"Time (s)","Gyroscope x (rad/s)","Gyroscope y (rad/s)","Gyroscope z (rad/s)"
5.355835000E-2,-2.166412354E0,-1.075180054E0,1.254364014E0
5.853271500E-2,-2.114212036E0,-9.686584473E-1,1.238388062E0
6.353759800E-2,-2.074798584E0,-9.846343994E-1,1.225601196E0
6.851196300E-2,-2.031112671E0,-1.062393188E0,1.211761475E0
7.348632800E-2,-1.982116699E0,-1.142288208E0,1.203231812E0
7.849121100E-2,-1.940567017E0,-1.197692871E0,1.186187744E0
8.346557600E-2,-1.908615112E0,-1.221130371E0,1.168075562E0
8.843994100E-2,-1.887313843E0,-1.216857910E0,1.146774292E0
9.341430700E-2,-1.879852295E0,-1.201950073E0,1.128662109E0
9.841919000E-2,-1.900085449E0,-1.208343506E0,1.110565186E0
1.033935550E-1,-1.944824219E0,-1.242431641E0,1.102035522E0
1.083679200E-1,-2.044967651E0,-1.335113525E0,1.107360840E0
1.133422850E-1,-2.201553345E0,-1.439498901E0,1.133987427E0
1.183471680E-1,-2.396499634E0,-1.458679199E0,1.171279907E0
1.233215330E-1,-2.618072510E0,-1.403289795E0,1.218154907E0
1.282958980E-1,-2.860961914E0,-1.295684814E0,1.266082764E0
1.332702640E-1,-3.109161377E0,-1.188095093E0,1.306564331E0
1.382751470E-1,-3.308364868E0,-1.190231323E0,1.336395264E0
1.432495120E-1,-3.439392090E0,-1.265869141E0,1.349182129E0
1.482238770E-1,-3.504379272E0,-1.323394775E0,1.338531494E0
1.531982420E-1,-3.518234253E0,-1.287170410E0,1.316146851E0
1.581726070E-1,-3.485198975E0,-1.135894775E0,1.295913696E0
1.631774900E-1,-3.427673340E0,-8.749084473E-1,1.284194946E0
1.681518560E-1,-3.347778320E0,-5.414886475E-1,1.284194946E0
1.731262210E-1,-3.240188599E0,-1.878204346E-1,1.301239014E0
1.781005860E-1,-3.105972290E0,1.541290283E-1,1.332138062E0
1.831054690E-1,-2.949371338E0,4.726409912E-1,1.377944946E0
1.880798340E-1,-2.775741577E0,7.634582520E-1,1.436523438E0
1.930541990E-1,-2.586120605E0,1.010604858E0,1.506835938E0
1.980285650E-1,-2.389053345E0,1.207687378E0,1.562225342E0
2.030029300E-1,-2.186645508E0,1.332321167E0,1.600585938E0
2.080078130E-1,-1.977859497E0,1.338714600E0,1.661300659E0
2.129821780E-1,-1.764801025E0,1.225784302E0,1.752914429E0
2.179565430E-1,-1.551742554E0,1.026580811E0,1.873291016E0
2.229309080E-1,-1.339767456E0,7.890319824E-1,2.022430420E0
2.279357910E-1,-1.126708984E0,5.621337891E-1,2.196060181E0
2.329101560E-1,-9.115295410E-1,3.693237305E-1,2.400588989E0
2.378845220E-1,-7.037963867E-1,1.978149414E-1,2.622161865E0
2.428588870E-1,-5.099182129E-1,2.310180664E-2,2.842681885E0
2.478332520E-1,-3.480072021E-1,-1.526641846E-1,3.052536011E0
2.528381350E-1,-2.361450195E-1,-3.156433105E-1,3.240020752E0
2.578125000E-1,-1.743621826E-1,-4.519958496E-1,3.398742676E0
2.627868650E-1,-1.647796631E-1,-5.596008301E-1,3.528701782E0
2.677612310E-1,-1.903381348E-1,-6.501464844E-1,3.633102417E0
2.727661130E-1,-2.436065674E-1,-7.204437256E-1,3.724716187E0
2.777404790E-1,-3.139190674E-1,-7.683868408E-1,3.811004639E0
2.827148440E-1,-3.991394043E-1,-7.811737061E-1,3.888763428E0
2.876892090E-1,-4.800872803E-1,-7.630615234E-1,3.954818726E0
2.926635740E-1,-3.938140869E-1,-4.946136475E-1,3.530838013E0
2.976684570E-1,1.345672607E-1,4.417572021E-1,1.826416016E0
3.026428220E-1,6.682586670E-1,1.168258667E0,8.470153809E-2
3.076171880E-1,8.919677734E-1,1.260940552E0,-5.512542725E-1
3.125915530E-1,9.569549561E-1,1.021255493E0,-5.097045898E-1
3.175964360E-1,8.845062256E-1,7.325744629E-1,-1.485900879E-1
3.225708010E-1,7.321777344E-1,5.578613281E-1,3.169403076E-1
3.275451660E-1,5.883636475E-1,4.651947021E-1,7.739410400E-1
3.325195310E-1,4.797058105E-1,4.161834717E-1,1.157424927E0
3.374938970E-1,3.976898193E-1,4.108581543E-1,1.424804688E0
3.424987790E-1,3.465576172E-1,4.673156738E-1,1.583541870E0
3.474731450E-1,3.124694824E-1,5.429534912E-1,1.643188477E0
3.524475100E-1,2.901000977E-1,5.802459717E-1,1.622955322E0
3.574218750E-1,2.677154541E-1,5.482788086E-1,1.554779053E0
3.624267580E-1,2.453460693E-1,4.715881348E-1,1.485534668E0
3.674011230E-1,2.421569824E-1,3.735809326E-1,1.468490601E0
3.723754880E-1,2.570648193E-1,2.542724609E-1,1.491928101E0
3.773498540E-1,2.687835693E-1,1.733093262E-1,1.541992188E0
3.823242190E-1,2.570648193E-1,1.594543457E-1,1.608032227E0
3.873291020E-1,2.240447998E-1,2.137908936E-1,1.688995361E0
3.923034670E-1,1.899566650E-1,3.373565674E-1,1.810440063E0
3.972778320E-1,1.739807129E-1,4.992828369E-1,1.944656372E0
4.022521970E-1,1.739807129E-1,6.111297607E-1,2.034149170E0
4.072570800E-1,1.739807129E-1,6.484222412E-1,2.029876709E0
4.122314450E-1,1.665191650E-1,6.580047607E-1,1.954254150E0
4.172058110E-1,1.558685303E-1,6.835632324E-1,1.862640381E0
4.221801760E-1,1.452178955E-1,7.219238281E-1,1.763565063E0
4.271545410E-1,1.388244629E-1,7.826385498E-1,1.654907227E0
4.321594240E-1,1.334991455E-1,8.678588867E-1,1.538787842E0
4.371337890E-1,1.249847412E-1,9.637298584E-1,1.421615601E0
4.421081540E-1,1.175231934E-1,1.057479858E0,1.311889648E0
4.470825200E-1,1.079406738E-1,1.109680176E0,1.202163696E0
4.520568850E-1,1.026000977E-1,1.109680176E0,1.098846436E0
4.570617680E-1,1.079406738E-1,1.081985474E0,1.006164551E0
4.620361330E-1,1.143188477E-1,1.034042358E0,9.134826660E-1
4.670104980E-1,1.303100586E-1,1.021255493E0,8.314514160E-1
4.719848630E-1,1.526794434E-1,1.051086426E0,7.696685791E-1
4.769897460E-1,1.750488281E-1,1.086242676E0,7.409057617E-1
4.819641110E-1,1.974182129E-1,1.092636108E0,7.451782227E-1
4.869384770E-1,2.112579346E-1,1.118194580E0,7.526245117E-1
4.919128420E-1,2.006072998E-1,1.193832397E0,7.345123291E-1
4.968872070E-1,1.707763672E-1,1.347229004E0,6.950988770E-1
5.018920900E-1,1.334991455E-1,1.536849976E0,6.482391357E-1
5.068664550E-1,1.015472412E-1,1.745635986E0,6.034851074E-1
5.118408200E-1,7.490539551E-2,2.020477295E0,5.672760010E-1
5.168151860E-1,5.574035645E-2,2.362426758E0,5.491638184E-1
5.218200680E-1,4.827880859E-2,2.704376221E0,5.534210205E-1
5.267944340E-1,4.295349121E-2,2.952575684E0,5.789947510E-1
5.317687990E-1,2.697753906E-2,3.087875366E0,6.375732422E-1
5.367431640E-1,1.100158691E-2,3.112365723E0,6.950988770E-1
5.417175290E-1,1.403808594E-3,3.076156616E0,7.249298096E-1
5.467224120E-1,-1.564025879E-2,3.023956299E0,7.355804443E-1
5.516967770E-1,-9.233093262E-2,2.948318481E0,7.313232422E-1
5.566711430E-1,-1.945953369E-1,2.818359375E0,7.036285400E-1
5.616455080E-1,-2.883453369E-1,2.672424316E0,6.535644531E-1
5.666503910E-1,-3.277587891E-1,2.543518066E0,5.960388184E-1
5.716247560E-1,-3.139190674E-1,2.446578979E0,5.470275879E-1
5.765991210E-1,-2.702331543E-1,2.352844238E0,5.086822510E-1
5.815734860E-1,-2.191009521E-1,2.182403564E0,4.564819336E-1
5.865478520E-1,-1.679687500E-1,1.881988525E0,3.584747314E-1
5.915527340E-1,-9.233093262E-2,1.580520630E0,2.274475098E-1
5.965271000E-1,9.933471680E-3,1.380249023E0,9.642028809E-2
6.015014650E-1,1.058044434E-1,1.285446167E0,-2.075195312E-2
6.064758300E-1,1.665191650E-1,1.215133667E0,-1.070404053E-1
6.114807130E-1,2.219238281E-1,1.186370850E0,-1.656341553E-1
6.164550780E-1,2.453460693E-1,1.190643311E0,-2.039794922E-1
6.214294430E-1,2.165832520E-1,1.183181763E0,-2.167663574E-1
6.264038090E-1,1.633300781E-1,1.169326782E0,-1.890716553E-1
6.313781740E-1,1.143188477E-1,1.172531128E0,-1.208953857E-1
6.363830570E-1,8.129882812E-2,1.231109619E0,-1.968383789E-2
6.413574220E-1,6.639099121E-2,1.295028687E0,1.070861816E-1
6.463317870E-1,6.639099121E-2,1.314208984E0,2.444915771E-1
6.513061520E-1,6.958007812E-2,1.279052734E0,3.776550293E-1
6.563110350E-1,7.490539551E-2,1.227920532E0,4.745941162E-1
6.612854000E-1,8.555603027E-2,1.218338013E0,5.278625488E-1
6.662597660E-1,9.194946289E-2,1.233245850E0,5.502319336E-1
6.712341310E-1,9.727478027E-2,1.258819580E0,5.544891357E-1
6.762084960E-1,1.079406738E-1,1.271591187E0,5.513000488E-1
6.812133790E-1,1.260375977E-1,1.237503052E0,5.267944336E-1
6.861877440E-1,1.452178955E-1,1.190643311E0,4.852447510E-1
6.911621090E-1,1.675872803E-1,1.126724243E0,4.373168945E-1
6.961364750E-1,1.942138672E-1,1.039367676E0,3.904418945E-1
7.011413570E-1,2.208557129E-1,9.232482910E-1,3.574218750E-1
7.061157230E-1,2.474822998E-1,8.092651367E-1,3.329162598E-1
7.110900880E-1,2.709197998E-1,7.187194824E-1,3.169403076E-1
7.160644530E-1,2.847595215E-1,6.771850586E-1,3.073425293E-1
7.210388180E-1,2.868957520E-1,6.420288086E-1,3.041534424E-1
7.260437010E-1,2.762451172E-1,6.079406738E-1,3.094787598E-1
7.310180660E-1,2.613372803E-1,5.632019043E-1,3.105468750E-1
7.359924320E-1,2.528076172E-1,5.663909912E-1,2.966918945E-1
7.409667970E-1,2.538757324E-1,6.750488281E-1,2.583465576E-1
7.459716800E-1,2.485504150E-1,8.284454346E-1,2.136077881E-1
7.509460450E-1,2.016754150E-1,1.041503906E0,1.848449707E-1
7.559204100E-1,1.015472412E-1,1.302490234E0,1.752624512E-1
7.608947750E-1,-1.776123047E-2,1.545364380E0,1.763153076E-1
7.658691410E-1,-1.104431152E-1,1.776535034E0,1.837768555E-1
7.708740230E-1,-1.562500000E-1,1.925674438E0,1.869659424E-1
7.758483890E-1,-1.487884521E-1,1.861755371E0,1.720581055E-1
7.808227540E-1,-8.700561523E-2,1.689178467E0,1.550140381E-1
7.857971190E-1,-1.882934570E-2,1.477188110E0,1.347808838E-1
7.908020020E-1,4.081726074E-2,1.252426147E0,1.092071533E-1
7.957763670E-1,8.450317383E-2,1.037231445E0,9.002685547E-2
8.007507320E-1,1.036682129E-1,8.721160889E-1,7.511901855E-2
8.057250980E-1,9.727478027E-2,7.506866455E-1,5.274963379E-2
8.106994630E-1,8.769226074E-2,6.580047607E-1,3.463745117E-2
8.157043460E-1,8.662414551E-2,5.930175781E-1,3.570556641E-2
8.206787110E-1,8.769226074E-2,5.695800781E-1,5.168151855E-2
8.256530760E-1,8.555603027E-2,5.770416260E-1,6.765747070E-2
8.306274410E-1,7.171630859E-2,5.738525391E-1,7.832336426E-2
8.356323240E-1,4.614257812E-2,5.504150391E-1,8.044433594E-2
8.406066900E-1,1.525878906E-2,5.248413086E-1,6.021118164E-2
8.455810550E-1,-7.171630859E-4,5.141906738E-1,2.719116211E-2
8.505554200E-1,-1.785278320E-3,5.046081543E-1,-5.844116211E-3
8.555297850E-1,1.403808594E-3,5.354919434E-1,-3.247070312E-2
8.605346680E-1,3.356933594E-4,5.876922607E-1,-4.418945312E-2
8.655090330E-1,-7.110595703E-3,5.951538086E-1,-3.779602051E-2
8.704833980E-1,-1.457214355E-2,5.621337891E-1,-1.649475098E-2
8.754577640E-1,-1.243591309E-2,5.291137695E-1,1.440429688E-2
8.804626470E-1,-1.031494141E-2,4.928894043E-1,4.742431641E-2
8.854370120E-1,-3.921508789E-3,4.705200195E-1,6.340026855E-2
8.904113770E-1,-9.246826172E-3,4.566650391E-1,5.914306641E-2
8.953857420E-1,-2.203369141E-2,4.555969238E-1,3.356933594E-2
9.003601070E-1,-4.652404785E-2,4.641265869E-1,-9.033203125E-3
9.053649900E-1,-7.316589355E-2,4.907531738E-1,-5.697631836E-2
9.103393560E-1,-1.019287109E-1,5.472106934E-1,-1.102294922E-1
9.153137210E-1,-1.381378174E-1,6.281738281E-1,-1.571044922E-1
9.202880860E-1,-1.690368652E-1,7.187194824E-1,-1.880035400E-1
9.252624510E-1,-1.914062500E-1,8.124694824E-1,-2.007904053E-1
9.302673340E-1,-2.041931152E-1,9.083404541E-1,-1.997222900E-1
9.352416990E-1,-2.073822021E-1,9.733276367E-1,-1.869354248E-1
9.402160650E-1,-2.009887695E-1,1.011672974E0,-1.666870117E-1
9.451904300E-1,-1.871490479E-1,1.055343628E0,-1.325988770E-1
9.501953130E-1,-1.679687500E-1,1.126724243E0,-8.786010742E-2
9.551696780E-1,-1.509246826E-1,1.200225830E0,-4.737854004E-2
9.601440430E-1,-1.349487305E-1,1.242828369E0,-3.140258789E-2
9.651184080E-1,-1.168365479E-1,1.289703369E0,-3.993225098E-2
9.700927730E-1,-9.127807617E-2,1.372802734E0,-5.804443359E-2
9.750976560E-1,-6.677246094E-2,1.459075928E0,-7.188415527E-2
9.800720220E-1,-4.652404785E-2,1.511276245E0,-7.827758789E-2
9.850463870E-1,-3.054809570E-2,1.560287476E0,-7.720947266E-2
9.900207520E-1,-1.776123047E-2,1.633789062E0,-7.081604004E-2
9.950256350E-1,-6.057739258E-3,1.706222534E0,-6.655883789E-2
1.000000000E0,-6.057739258E-3,1.724334717E0,-6.869506836E-2
1.004974365E0,-1.670837402E-2,1.696640015E0,-6.974792480E-2
1.009948731E0,-1.243591309E-2,1.675323486E0,-5.270385742E-2
1.014923096E0,-1.785278320E-3,1.668945312E0,-2.928161621E-2
1.019927979E0,-6.057739258E-3,1.668945312E0,-1.010131836E-2
1.024902344E0,-3.054809570E-2,1.627395630E0,-5.844116211E-3
1.029876709E0,-6.996154785E-2,1.517669678E0,-1.223754883E-2
1.034851074E0,-1.242980957E-1,1.371734619E0,-2.500915527E-2
1.039855957E0,-1.551818848E-1,1.246032715E0,-3.993225098E-2
1.044830322E0,-1.424102783E-1,1.123519897E0,-4.312133789E-2
1.049804688E0,-9.233093262E-2,9.413604736E-1,-2.821350098E-2
1.054779053E0,-4.547119141E-2,7.410888672E-1,4.806518555E-3
1.059753418E0,-2.842712402E-2,6.462860107E-1,3.996276855E-2
1.064758301E0,-4.226684570E-2,7.581329346E-1,4.103088379E-2
1.069732666E0,-7.528686523E-2,9.221954346E-1,1.014709473E-2
1.074707031E0,-1.040496826E-1,9.573364258E-1,-1.861572266E-2
1.079681397E0,-1.029968262E-1,8.774414062E-1,-1.435852051E-2
1.084686279E0,-7.635498047E-2,8.103332520E-1,1.014709473E-2
1.089660645E0,-4.652404785E-2,8.135375977E-1,3.356933594E-2
1.094635010E0,-3.800964355E-2,8.710632324E-1,5.168151855E-2
1.099609375E0,-5.612182617E-2,9.541473389E-1,6.446838379E-2
1.104583740E0,-7.849121094E-2,1.030853271E0,6.340026855E-2
1.109588623E0,-8.168029785E-2,1.076644897E0,4.316711426E-2
1.114562988E0,-6.889343262E-2,1.076644897E0,1.440429688E-2
1.119537354E0,-5.505371094E-2,1.021255493E0,-3.707885742E-3
1.124511719E0,-5.184936523E-2,9.232482910E-1,-1.968383789E-2
1.129516602E0,-5.184936523E-2,8.369750977E-1,-3.993225098E-2
1.134490967E0,-5.824279785E-2,8.039398193E-1,-6.655883789E-2
1.139465332E0,-7.635498047E-2,8.273773193E-1,-8.892822266E-2
1.144439697E0,-9.553527832E-2,8.731842041E-1,-1.112976074E-1
1.149414063E0,-1.232299805E-1,8.944854736E-1,-1.325988770E-1
1.154418945E0,-1.637115479E-1,8.774414062E-1,-1.358032227E-1
1.159393311E0,-2.041931152E-1,8.636016846E-1,-1.240844727E-1
1.164367676E0,-2.404022217E-1,8.806457520E-1,-1.027832031E-1
1.169342041E0,-2.840881348E-1,8.944854736E-1,-9.851074219E-2
1.174346924E0,-3.394775391E-1,8.817138672E-1,-1.294097900E-1
1.179321289E0,-4.001922607E-1,8.763885498E-1,-1.858673096E-1
1.184295654E0,-4.459991455E-1,9.434967041E-1,-2.572479248E-1
1.189270020E0,-4.694366455E-1,1.100082397E0,-3.339385986E-1
1.194244385E0,-4.832916260E-1,1.267333984E0,-4.276885986E-1
1.199249268E0,-5.195007324E-1,1.410079956E0,-5.384674072E-1
1.204223633E0,-5.940704346E-1,1.511276245E0,-6.567230225E-1
1.209197998E0,-7.016754150E-1,1.563476562E0,-8.079833984E-1
1.214172363E0,-8.167114258E-1,1.583724976E0,-1.108383179E0
1.219177246E0,-9.306945801E-1,1.667877197E0,-1.348068237E0
1.224151611E0,-8.422851562E-1,1.435653687E0,-9.475402832E-1
1.229125977E0,-9.040679932E-1,1.586914062E0,-1.075363159E0
1.234100342E0,-8.252410889E-1,1.344039917E0,-9.688415527E-1
1.239074707E0,-7.240447998E-1,1.072387695E0,-8.900146484E-1
1.244079590E0,-6.334838867E-1,8.156585693E-1,-7.675018311E-1
1.249053955E0,-5.535888672E-1,6.196594238E-1,-6.098480225E-1
1.254028320E0,-4.736938477E-1,4.588012695E-1,-4.617767334E-1
1.259002686E0,-3.746337891E-1,4.097900391E-1,-3.381958008E-1
1.264007568E0,-2.723693848E-1,4.279022217E-1,-2.412567139E-1
1.268981934E0,-1.615753174E-1,5.184478760E-1,-1.720275879E-1
1.273956299E0,-1.019287109E-1,7.538757324E-1,-6.869506836E-2
1.278930664E0,-1.051177979E-1,9.328460693E-1,8.010864258E-3
1.283905029E0,-9.660339355E-2,1.061737061E0,-3.744201660E-1
1.288909912E0,-8.061218262E-2,1.276916504E0,-8.484649658E-1
1.293884277E0,-4.972839355E-2,1.504882812E0,-1.402404785E0
1.298858643E0,8.865356445E-3,1.703033447E0,-1.817855835E0
1.303833008E0,7.597351074E-2,1.843643188E0,-2.093765259E0
1.308837891E0,1.526794434E-1,1.896911621E0,-2.242889404E0
1.313812256E0,2.421569824E-1,1.871337891E0,-2.288696289E0
1.318786621E0,3.359069824E-1,1.790374756E0,-2.259933472E0
1.323760986E0,4.317779541E-1,1.673202515E0,-2.193893433E0
1.328735352E0,5.244445801E-1,1.532592773E0,-2.103347778E0
1.333740234E0,6.160583496E-1,1.372802734E0,-1.996826172E0
1.338714600E0,6.949005127E-1,1.236434937E0,-1.882843018E0
1.343688965E0,7.598724365E-1,1.110748291E0,-1.782699585E0
1.348663330E0,8.056793213E-1,9.882354736E-1,-1.708129883E0
1.353637695E0,8.419036865E-1,8.891601562E-1,-1.684692383E0
1.358642578E0,8.749237061E-1,8.476257324E-1,-1.712387085E0
1.363616943E0,9.175415039E-1,8.689270020E-1,-1.766723633E0
1.368591309E0,9.729309082E-1,9.434967041E-1,-1.837036133E0
1.373565674E0,1.048568726E0,1.035110474E0,-1.936096191E0
1.378570557E0,1.131652832E0,1.158676147E0,-2.060729980E0
1.383544922E0,1.200897217E0,1.318466187E0,-2.191757202E0
1.388519287E0,1.252029419E0,1.496368408E0,-2.330245972E0
1.393493652E0,1.282913208E0,1.676391602E0,-2.485778809E0
1.398468018E0,1.297836304E0,1.850036621E0,-2.660476685E0
1.403472900E0,1.325531006E0,1.992782593E0,-2.850097656E0
1.408447266E0,1.383056641E0,2.074798584E0,-3.048233032E0
1.413421631E0,1.465072632E0,2.091842651E0,-3.234649658E0
1.418395996E0,1.563079834E0,2.069473267E0,-3.383789062E0
1.423400879E0,1.662155151E0,2.018341064E0,-3.487121582E0
1.428375244E0,1.764419556E0,1.923538208E0,-3.562759399E0
1.433349609E0,1.881591797E0,1.774398804E0,-3.634124756E0
1.438323975E0,2.011566162E0,1.577331543E0,-3.709762573E0
1.443298340E0,2.163894653E0,1.342971802E0,-3.785400391E0
1.448303223E0,2.340728760E0,1.091567993E0,-3.857833862E0
1.453277588E0,2.526077271E0,8.529510498E-1,-3.908966064E0
1.458251953E0,2.702911377E0,6.558685303E-1,-3.938796997E0
1.463226318E0,2.857376099E0,4.619903564E-1,-3.948379517E0
1.468231201E0,2.993728638E0,2.755737305E-1,-3.928146362E0
1.473205566E0,3.102386475E0,1.381530762E-1,-3.874877930E0
1.478179932E0,3.190811157E0,5.293273926E-2,-3.803512573E0
1.483154297E0,3.248336792E0,4.989624023E-3,-3.728942871E0
1.488128662E0,3.270706177E0,-2.270507812E-2,-3.659698486E0
1.493133545E0,3.261123657E0,-4.614257812E-2,-3.611755371E0
1.498107910E0,3.233413696E0,-3.761291504E-2,-3.596847534E0
1.503082275E0,3.200393677E0,2.949523926E-2,-3.635192871E0
1.508056641E0,3.171630859E0,1.306915283E-1,-3.732131958E0
1.513061523E0,3.153518677E0,2.542724609E-1,-3.865295410E0
1.518035889E0,3.138610840E0,3.842315674E-1,-4.029342651E0
1.523010254E0,3.125823975E0,5.418853760E-1,-4.186996460E0
1.527984619E0,3.129028320E0,6.409606934E-1,-4.398986816E0
1.532958984E0,3.131149292E0,7.410888672E-1,-4.608840942E0
1.537963867E0,3.106658936E0,8.817138672E-1,-4.642929077E0
1.542938232E0,3.016098022E0,8.976898193E-1,-4.572631836E0
1.547912598E0,2.894668579E0,7.943572998E-1,-4.492736816E0
1.552886963E0,2.751922607E0,6.835632324E-1,-4.372360229E0
1.557891846E0,2.576156616E0,6.185913086E-1,-4.199783325E0
1.562866211E0,2.373748779E0,5.738525391E-1,-3.980346680E0
1.567840576E0,2.159637451E0,5.131225586E-1,-3.731063843E0
1.572814941E0,1.946578979E0,4.161834717E-1,-3.486053467E0
1.577789307E0,1.731399536E0,3.107299805E-1,-3.266616821E0
1.582794190E0,1.506622314E0,2.532043457E-1,-3.087646484E0
1.587768555E0,1.298904419E0,2.382965088E-1,-2.945968628E0
1.592742920E0,1.139114380E0,2.372283936E-1,-2.853286743E0
1.597717285E0,1.025131226E0,2.063293457E-1,-2.824523926E0
1.602722168E0,9.441680908E-1,2.073974609E-1,-2.837310791E0
1.607696533E0,8.919677734E-1,2.297668457E-1,-2.876724243E0
1.612670898E0,8.674621582E-1,2.702484131E-1,-2.928924561E0
1.617645264E0,8.642730713E-1,3.235168457E-1,-2.991775513E0
1.622619629E0,8.749237061E-1,3.970184326E-1,-3.052490234E0
1.627624512E0,8.919677734E-1,4.907531738E-1,-3.110015869E0
1.632598877E0,9.079437256E-1,6.207122803E-1,-3.167541504E0
1.637573242E0,9.164733887E-1,8.124694824E-1,-3.222930908E0
1.642547607E0,9.143371582E-1,1.040435791E0,-3.276199341E0
1.647552490E0,9.409637451E-1,1.295028687E0,-3.318817139E0
1.652526856E0,9.761199951E-1,1.517669678E0,-3.358230591E0
1.657501221E0,1.010208130E0,1.762680054E0,-3.411483765E0
1.662475586E0,1.041107178E0,1.989578247E0,-3.458358765E0
1.667449951E0,1.051757812E0,2.204772949E0,-3.500976562E0
1.672454834E0,1.040039062E0,2.370956421E0,-3.539321899E0
1.677429199E0,1.019805908E0,2.468948364E0,-3.553176880E0
1.682403565E0,9.995574951E-1,2.458297729E0,-3.523345947E0
1.687377930E0,9.803771973E-1,2.324081421E0,-3.442382812E0
1.692382813E0,9.473571777E-1,2.099304199E0,-3.310287476E0
1.697357178E0,8.983612061E-1,1.852157593E0,-3.133453369E0
1.702331543E0,8.514862061E-1,1.625259399E0,-2.921463013E0
1.707305908E0,8.046112061E-1,1.413269043E0,-2.678588867E0
1.712280273E0,7.417602539E-1,1.215133667E0,-2.411209106E0
1.717285156E0,6.554718018E-1,1.070266724E0,-2.126785278E0
1.722259522E0,5.617370605E-1,9.701232910E-1,-1.831695557E0
1.727233887E0,4.669342041E-1,9.264526367E-1,-1.540878296E0
1.732208252E0,3.667907715E-1,9.680023193E-1,-1.257522583E0
1.737213135E0,2.485504150E-1,1.075592041E0,-9.922790527E-1
1.742187500E0,1.100616455E-1,1.221527100E0,-7.472686768E-1
1.747161865E0,-4.972839355E-2,1.366409302E0,-5.278167725E-1
1.752136231E0,-2.254943848E-1,1.473999023E0,-3.179626465E-1
1.757110596E0,-4.023284912E-1,1.563476562E0,-1.145019531E-1
1.762115479E0,-5.610504150E-1,1.683853149E0,6.872558594E-2
1.767089844E0,-6.974029541E-1,1.868148804E0,1.805877686E-1
1.772064209E0,-8.241729736E-1,2.105697632E0,1.933593750E-1
1.777038574E0,-9.413452148E-1,2.391189575E0,1.432952881E-1
1.782043457E0,-1.028701782E0,2.558441162E0,7.086181641E-2
1.787017822E0,-1.091552734E0,2.631942749E0,-5.844116211E-3
1.791992188E0,-1.113922119E0,2.646850586E0,-6.230163574E-2
1.796966553E0,-1.097946167E0,2.576538086E0,-9.851074219E-2
1.801940918E0,-1.055328369E0,2.431671143E0,-1.102294922E-1
1.806945801E0,-9.924926758E-1,2.282531738E0,-9.957885742E-2
1.811920166E0,-9.189758301E-1,2.114227295E0,-7.188415527E-2
1.816894531E0,-8.369598389E-1,1.942718506E0,-4.100036621E-2
1.821868897E0,-7.623901367E-1,1.801025391E0,-2.075195312E-2
1.826843262E0,-7.091217041E-1,1.693435669E0,-1.649475098E-2
1.831848145E0,-6.974029541E-1,1.599700928E0,-2.607727051E-2
1.836822510E0,-7.197723389E-1,1.498504639E0,-5.697631836E-2
1.841796875E0,-7.368164062E-1,1.504882812E0,-8.679199219E-2
1.846771240E0,-5.003356934E-1,1.901168823E0,-1.315460205E-1
1.851776123E0,2.471923828E-3,2.189849854E0,-1.677551270E-1
1.856750488E0,5.372314453E-1,2.130203247E0,-1.027832031E-1
1.861724854E0,8.994293213E-1,1.891586304E0,4.742431641E-2
1.866699219E0,1.050689697E0,1.649765015E0,2.594146729E-1
1.871673584E0,1.067733765E0,1.410079956E0,4.660797119E-1
1.876678467E0,1.013412476E0,1.183181763E0,6.130828857E-1
1.881652832E0,9.196624756E-1,9.530792236E-1,6.897735596E-1
1.886627197E0,8.035583496E-1,7.592010498E-1,7.174682617E-1
1.891601563E0,6.746520996E-1,6.430969238E-1,7.174682617E-1
1.896606445E0,5.436248779E-1,5.887603760E-1,6.961669922E-1
1.901580811E0,4.253845215E-1,5.791778564E-1,6.663360596E-1
1.906555176E0,3.263092041E-1,6.153869629E-1,6.311950684E-1
1.911529541E0,2.410888672E-1,6.441497803E-1,6.013641357E-1
1.916503906E0,1.590728760E-1,6.537475586E-1,5.843200684E-1
1.921508789E0,7.704162598E-2,6.601409912E-1,5.693969727E-1
1.926483154E0,6.729125977E-3,6.611938477E-1,5.289306641E-1
1.931457520E0,-4.547119141E-2,7.048797607E-1,4.671325684E-1
1.936431885E0,-6.570434570E-2,7.805023193E-1,3.765869141E-1
1.941436768E0,-5.718994141E-2,8.753204346E-1,2.807159424E-1
1.946411133E0,-1.989746094E-2,9.743804932E-1,2.008209229E-1
1.951385498E0,3.869628906E-2,1.095825195E0,1.773834229E-1
1.956359863E0,1.153869629E-1,1.161880493E0,1.805877686E-1
1.961334229E0,1.856994629E-1,1.186370850E0,2.242584229E-1
1.966339111E0,2.496185303E-1,1.142700195E0,2.668609619E-1
1.971313477E0,3.007507324E-1,1.074523926E0,3.126678467E-1
1.976287842E0,3.316345215E-1,9.988861084E-1,3.627471924E-1
1.981262207E0,3.508148193E-1,9.008789062E-1,4.000244141E-1
1.986267090E0,3.625335693E-1,7.986145020E-1,4.436950684E-1
1.991241455E0,3.657226562E-1,6.814422607E-1,5.022888184E-1
1.996215820E0,3.625335693E-1,5.237731934E-1,5.566253662E-1
2.001190186E0,3.529510498E-1,3.661193848E-1,5.971069336E-1
2.006164551E0,3.380279541E-1,2.361602783E-1,6.173400879E-1
2.011169434E0,3.177947998E-1,1.797027588E-1,6.045532227E-1
2.016143799E0,3.039398193E-1,1.967468262E-1,5.544891357E-1
2.021118164E0,2.826385498E-1,2.819671631E-1,4.714050293E-1
2.026092529E0,2.634582520E-1,4.119262695E-1,3.733978271E-1
2.031097412E0,2.602691650E-1,5.599975586E-1,2.722015381E-1
2.036071777E0,2.762451172E-1,7.197875977E-1,1.965637207E-1
2.041046143E0,3.092651367E-1,8.593444824E-1,1.709899902E-1
2.046020508E0,3.476104736E-1,9.083404541E-1,1.869659424E-1
2.050994873E0,3.785095215E-1,8.508148193E-1,2.061462402E-1
2.055999756E0,4.030151367E-1,7.655944824E-1,1.432952881E-1
2.060974121E0,4.094085693E-1,7.496185303E-1,2.685546875E-3
2.065948486E0,4.179229736E-1,8.582763672E-1,-1.315460205E-1
2.070922852E0,4.072723389E-1,9.094085693E-1,-2.306060791E-1
2.075927734E0,3.518829346E-1,7.517395020E-1,-2.860107422E-1
2.080902100E0,2.613372803E-1,5.077972412E-1,-2.572479248E-1
2.085876465E0,1.505432129E-1,3.054046631E-1,-1.986541748E-1
2.090850830E0,4.081726074E-2,1.541290283E-1,-1.666870117E-1
2.095825195E0,-5.079650879E-2,5.718994141E-2,-1.698913574E-1
2.100830078E0,-1.285552979E-1,4.989624023E-3,-2.124938965E-1
2.105804443E0,-2.041931152E-1,1.670837402E-2,-2.646942139E-1
2.110778809E0,-2.787628174E-1,6.465148926E-2,-3.179626465E-1
2.115753174E0,-3.458709717E-1,1.381530762E-1,-3.605651855E-1
2.120758057E0,-4.087219238E-1,1.956787109E-1,-3.659057617E-1
2.125732422E0,-4.854125977E-1,2.574615479E-1,-3.200988770E-1
2.130706787E0,-5.749053955E-1,3.096618652E-1,-2.093048096E-1
2.135681152E0,-6.846160889E-1,2.862243652E-1,-6.016540527E-2
2.140655518E0,-7.772979736E-1,2.233734131E-1,1.017456055E-1
2.145660400E0,-8.401489258E-1,1.189727783E-1,2.583465576E-1
2.150634766E0,-8.976745605E-1,-3.524780273E-3,3.904418945E-1
2.155609131E0,-9.498748779E-1,-7.490539551E-2,5.033569336E-1
2.160583496E0,-9.839630127E-1,-8.874511719E-2,6.077575684E-1
2.165588379E0,-1.007400513E0,-7.383728027E-2,6.993713379E-1
2.170562744E0,-1.005264282E0,-4.592895508E-3,7.771301270E-1
2.175537109E0,-9.733123779E-1,1.370849609E-1,8.282623291E-1
2.180511475E0,-9.338989258E-1,2.808990479E-1,8.144073486E-1
2.185485840E0,-8.540039062E-1,4.375000000E-1,7.121429443E-1
2.190490723E0,-7.304229736E-1,6.004791260E-1,5.044250488E-1
2.195465088E0,-6.079254150E-1,7.698516846E-1,1.880340576E-1
2.200439453E0,-4.907379150E-1,1.016998291E0,-2.774810791E-1
2.205413818E0,-3.330841064E-1,1.420730591E0,-7.344818115E-1
2.210418701E0,-1.732940674E-1,1.917144775E0,-1.106262207E0
2.215393066E0,-1.008605957E-1,2.299575806E0,-1.546218872E0
2.220367432E0,-1.093750000E-1,2.572280884E0,-2.011734009E0
2.225341797E0,-1.551818848E-1,2.843933105E0,-2.284439087E0
2.230316162E0,-1.562500000E-1,2.884399414E0,-2.363265991E0
2.235321045E0,-1.093750000E-1,2.794921875E0,-2.252487183E0
2.240295410E0,-1.457214355E-2,2.549911499E0,-2.088424683E0
2.245269775E0,1.153869629E-1,2.223937988E0,-2.093765259E0
2.250244141E0,2.293701172E-1,2.017288208E0,-1.782699585E0
2.255249023E0,2.229766846E-1,1.752029419E0,-1.380035400E0
2.260223389E0,3.549194336E-2,1.412216187E0,-1.261779785E0
2.265197754E0,-4.440307617E-2,1.384521484E0,-1.171234131E0
2.270172119E0,-1.104431152E-1,1.513412476E0,-1.168045044E0
2.275146484E0,-1.029968262E-1,1.778656006E0,-1.075363159E0
2.280151367E0,-1.445312500E-1,1.900100708E0,-9.379425049E-1
2.285125732E0,-2.308197021E-1,1.949096680E0,-8.143768311E-1
2.290100098E0,-2.840881348E-1,1.864944458E0,-7.589874268E-1
2.295074463E0,-3.522644043E-1,1.780792236E0,-7.568511963E-1
2.300079346E0,-4.577178955E-1,1.696640015E0,-7.600402832E-1
2.305053711E0,-5.855560303E-1,1.632720947E0,-7.515258789E-1
2.310028076E0,-6.590576172E-1,1.558151245E0,-7.121124268E-1
2.315002441E0,-6.974029541E-1,1.537918091E0,-6.663055420E-1
2.319976807E0,-6.888885498E-1,1.509155273E0,-6.631011963E-1
2.324981690E0,-6.089935303E-1,1.433517456E0,-6.673736572E-1
2.329956055E0,-5.898132324E-1,1.410079956E0,-6.790924072E-1
2.334930420E0,-6.548004150E-1,1.384521484E0,-6.971893311E-1
2.339904785E0,-7.815551758E-1,1.335510254E0,-7.216949463E-1
2.344909668E0,-9.818267822E-1,1.256683350E0,-7.483215332E-1
2.349884033E0,-1.217254639E0,1.128845215E0,-7.749633789E-1
2.354858398E0,-1.404739380E0,9.594726562E-1,-7.973327637E-1
2.359832764E0,-1.508071899E0,8.124694824E-1,-7.824096680E-1
2.364807129E0,-1.505935669E0,7.197875977E-1,-7.216949463E-1
2.369812012E0,-1.420715332E0,6.441497803E-1,-6.258239746E-1
2.374786377E0,-1.218322754E0,5.898284912E-1,-5.075836182E-1
2.379760742E0,-1.011657715E0,5.919494629E-1,-4.085083008E-1
2.384735107E0,-9.615936279E-1,6.367034912E-1,-3.722839355E-1
2.389739990E0,-1.067047119E0,6.100616455E-1,-4.053192139E-1
2.394714356E0,-1.188491821E0,5.599975586E-1,-4.830780029E-1
2.399688721E0,-1.328048706E0,4.630584717E-1,-5.970611572E-1
2.404663086E0,-1.574111938E0,4.801025391E-1,-7.312774658E-1
2.409637451E0,-1.803146362E0,5.259094238E-1,-8.324890137E-1
2.414642334E0,-1.967208862E0,4.662628174E-1,-9.081115723E-1
2.419616699E0,-2.141906738E0,4.140625000E-1,-9.848175049E-1
2.424591065E0,-2.280395508E0,3.309631348E-1,-1.054061890E0
2.429565430E0,-2.133377075E0,1.530609131E-1,-1.072174072E0
2.434539795E0,-1.926727295E0,1.764984131E-1,-1.039138794E0
2.439544678E0,-1.745620728E0,2.585296631E-1,-1.015716553E0
2.444519043E0,-1.520858765E0,3.298950195E-1,-1.039138794E0
2.449493408E0,-1.254547119E0,4.140625000E-1,-1.092407227E0
2.454467773E0,-9.786376953E-1,5.152587891E-1,-1.146743774E0
2.459472656E0,-7.677154541E-1,6.633300781E-1,-1.198928833E0
2.464447022E0,-6.409454346E-1,8.753204346E-1,-1.255401611E0
2.469421387E0,-5.237731934E-1,1.080917358E0,-1.331024170E0
2.474395752E0,-3.959350586E-1,1.292907715E0,-1.418380737E0
2.479370117E0,-2.819519043E-1,1.436706543E0,-1.491882324E0
2.484375000E0,-2.638397217E-1,1.463348389E0,-1.554733276E0
2.489349365E0,-3.607788086E-1,1.395172119E0,-1.553665161E0
2.494323731E0,-5.099182129E-1,1.265197754E0,-1.469512939E0
2.499298096E0,-6.420135498E-1,1.090499878E0,-1.312911987E0
2.504302979E0,-7.336273193E-1,8.817138672E-1,-1.101989746E0
2.509277344E0,-7.613220215E-1,6.398925781E-1,-8.942718506E-1
2.514251709E0,-7.336273193E-1,4.140625000E-1,-7.035827637E-1
2.519226074E0,-6.771697998E-1,2.212524414E-1,-5.299530029E-1
2.524200440E0,-5.908813477E-1,9.341430664E-2,-3.829498291E-1
2.529205322E0,-4.779663086E-1,4.653930664E-2,-2.796173096E-1
2.534179688E0,-3.554534912E-1,7.850646973E-2,-2.274169922E-1
2.539154053E0,-2.478637695E-1,1.775665283E-1,-2.146301270E-1
2.544128418E0,-1.701049805E-1,3.096618652E-1,-2.242126465E-1
2.549133301E0,-1.242980957E-1,4.268341064E-1,-2.391357422E-1
2.554107666E0,-9.979248047E-2,5.173950195E-1,-2.732238770E-1
2.559082031E0,-8.168029785E-2,5.951538086E-1,-3.179626465E-1
2.564056397E0,-5.718994141E-2,6.675872803E-1,-3.616333008E-1
2.569030762E0,-2.522277832E-2,7.496185303E-1,-4.212951660E-1
2.574035645E0,1.632690430E-2,8.465576172E-1,-4.777526855E-1
2.579010010E0,7.810974121E-2,9.392395020E-1,-5.256958008E-1
2.583984375E0,1.377563477E-1,1.011672974E0,-5.576477051E-1
2.588958740E0,1.707763672E-1,1.052154541E0,-5.800170898E-1
2.593963623E0,1.931610107E-1,1.039367676E0,-5.832061768E-1
2.598937988E0,2.144622803E-1,9.701232910E-1,-5.682983398E-1
2.603912354E0,2.165832520E-1,8.731842041E-1,-5.384674072E-1
2.608886719E0,1.867675781E-1,7.719879150E-1,-4.841461182E-1
2.613861084E0,1.665191650E-1,6.207122803E-1,-3.882751465E-1
2.618865967E0,1.771697998E-1,4.545440674E-1,-2.465820312E-1
2.623840332E0,2.261810303E-1,2.947540283E-1,-8.892822266E-2
2.628814697E0,3.007507324E-1,1.562652588E-1,8.258056641E-2
2.633789063E0,3.955535889E-1,5.400085449E-2,2.455596924E-1
2.638793945E0,4.626617432E-1,6.057739258E-3,3.701934814E-1
2.643768311E0,4.935607910E-1,1.138305664E-2,4.319915771E-1
2.648742676E0,5.042114258E-1,7.316589355E-2,4.383697510E-1
2.653717041E0,5.095367432E-1,1.424102783E-1,4.010925293E-1
2.658691406E0,5.063476562E-1,2.361602783E-1,3.361053467E-1
2.663696289E0,4.924926758E-1,3.554687500E-1,2.530212402E-1
2.668670654E0,4.978179932E-1,4.311065674E-1,1.986846924E-1
2.673645020E0,5.095367432E-1,4.673156738E-1,1.784515381E-1
2.678619385E0,5.436248779E-1,4.598693848E-1,1.550140381E-1
2.683624268E0,5.936889648E-1,4.002075195E-1,1.273193359E-1
2.688598633E0,6.277770996E-1,3.362884521E-1,1.283874512E-1
2.693572998E0,6.405639648E-1,3.959503174E-1,1.518249512E-1
2.698547363E0,6.341705322E-1,5.429534912E-1,2.040252686E-1
2.703521729E0,6.533508301E-1,6.846313477E-1,2.615356445E-1
2.708526611E0,6.661376953E-1,7.837066650E-1,3.009643555E-1
2.713500977E0,6.853027344E-1,8.636016846E-1,3.062896729E-1
2.718475342E0,6.650695801E-1,9.626617432E-1,2.679290771E-1
2.723449707E0,6.267242432E-1,1.039367676E0,2.104034424E-1
2.728454590E0,5.990142822E-1,1.036178589E0,1.507568359E-1
2.733428955E0,6.054077148E-1,9.498901367E-1,1.560821533E-1
2.738403320E0,6.299133301E-1,8.167266846E-1,2.263946533E-1
2.743377686E0,6.522827148E-1,6.707916260E-1,3.243865967E-1
2.748352051E0,6.853027344E-1,5.014038086E-1,4.373168945E-1
2.753356934E0,7.076721191E-1,2.958068848E-1,5.363769531E-1
2.758331299E0,7.268524170E-1,8.702087402E-2,5.971069336E-1
2.763305664E0,7.449645996E-1,-1.100463867E-1,5.992279053E-1
2.768280029E0,7.438964844E-1,-2.772979736E-1,5.534210205E-1
2.773284912E0,7.193908691E-1,-4.381561279E-1,5.012207031E-1
2.778259277E0,6.885070801E-1,-5.926208496E-1,4.319915771E-1
2.783233643E0,6.682586670E-1,-6.799621582E-1,3.627471924E-1
2.788208008E0,6.885070801E-1,-6.831665039E-1,3.265228271E-1
2.793182373E0,7.300415039E-1,-6.629180908E-1,3.105468750E-1
2.798187256E0,7.630767822E-1,-6.490783691E-1,2.796478271E-1
2.803161621E0,7.684020996E-1,-5.681152344E-1,2.125396729E-1
2.808135986E0,7.598724365E-1,-4.136505127E-1,1.390380859E-1
2.813110352E0,7.268524170E-1,-2.048645020E-1,8.470153809E-2
2.818115234E0,6.799774170E-1,3.588867188E-2,5.807495117E-2
2.823089600E0,6.192626953E-1,2.414855957E-1,5.274963379E-2
2.828063965E0,5.606689453E-1,3.767700195E-1,2.719116211E-2
2.833038330E0,5.042114258E-1,4.300384521E-1,-6.912231445E-3
2.838012695E0,4.658660889E-1,4.247131348E-1,-1.542663574E-2
2.843017578E0,4.605407715E-1,3.586578369E-1,-1.649475098E-2
2.847991943E0,4.765167236E-1,2.297668457E-1,2.398681641E-2
2.852966309E0,5.095367432E-1,6.997680664E-2,9.109497070E-2
2.857940674E0,5.319061279E-1,-8.767700195E-2,1.848449707E-1
2.862945557E0,5.745239258E-1,-2.517395020E-1,2.647399902E-1
2.867919922E0,6.618652344E-1,-4.232330322E-1,3.158721924E-1
2.872894287E0,7.918395996E-1,-6.139221191E-1,3.552856445E-1
2.877868652E0,9.644012451E-1,-8.354949951E-1,4.266510010E-1
2.882843018E0,1.123123169E0,-1.070922852E0,5.140075684E-1
2.887847900E0,1.238174438E0,-1.312728882E0,5.406341553E-1
2.892822266E0,1.270141602E0,-1.451217651E0,5.480957031E-1
2.897796631E0,1.227523804E0,-1.464004517E0,4.831237793E-1
2.902770996E0,1.155090332E0,-1.373458862E0,3.595428467E-1
2.907745361E0,1.030456543E0,-1.179580688E0,1.859130859E-1
2.912750244E0,8.972930908E-1,-8.631896973E-1,6.979370117E-2
2.917724609E0,7.641296387E-1,-5.904846191E-1,-1.187591553E-1
2.922698975E0,6.714630127E-1,-3.966064453E-1,-3.009185791E-1
2.927673340E0,6.192626953E-1,-2.794342041E-1,-3.989257812E-1
2.932678223E0,5.745239258E-1,-2.187042236E-1,-4.436645508E-1
2.937652588E0,5.340423584E-1,-1.537322998E-1,-4.489898682E-1
2.942626953E0,4.967498779E-1,-1.196441650E-1,-3.957214355E-1
2.947601318E0,4.615936279E-1,-1.015319824E-1,-3.456573486E-1
2.952575684E0,4.338989258E-1,-1.270904541E-1,-2.966613770E-1
2.957580566E0,4.200592041E-1,-1.782226562E-1,-2.359313965E-1
2.962554932E0,4.264526367E-1,-2.719726562E-1,-2.018432617E-1
2.967529297E0,4.360351562E-1,-4.168548584E-1,-1.997222900E-1
2.972503662E0,4.349670410E-1,-5.787658691E-1,-2.604370117E-1
2.977508545E0,4.243164062E-1,-7.225799561E-1,-3.445892334E-1
2.982482910E0,4.104614258E-1,-8.237762451E-1,-4.255523682E-1
2.987457275E0,4.008789062E-1,-8.972778320E-1,-5.235595703E-1
2.992431641E0,3.912963867E-1,-9.175262451E-1,-6.055908203E-1
2.997406006E0,3.785095215E-1,-8.898315430E-1,-6.450042725E-1
3.002410889E0,3.316345215E-1,-7.801055908E-1,-6.375427246E-1
3.007391019E0,2.464141846E-1,-5.702514648E-1,-5.725555420E-1
3.012365384E0,1.484069824E-1,-3.497314453E-1,-4.905395508E-1
3.017339749E0,6.532287598E-2,-1.739654541E-1,-4.149017334E-1
3.022344632E0,1.737976074E-2,-4.719543457E-2,-3.488616943E-1
3.027318997E0,-1.785278320E-3,3.802490234E-2,-2.753448486E-1
3.032293363E0,-1.243591309E-2,6.784057617E-2,-2.220916748E-1
3.037267728E0,-1.350402832E-2,9.767150879E-2,-1.187591553E-1
3.042242093E0,-1.776123047E-2,9.448242188E-2,-1.116943359E-2
3.047246976E0,-4.333496094E-2,1.565551758E-2,-4.205322266E-2
3.052221341E0,-5.824279785E-2,-8.874511719E-2,-1.432647705E-1
3.057195706E0,-1.882934570E-2,-1.175079346E-1,-2.167663574E-1
3.062170072E0,1.419067383E-2,-1.590576172E-1,-2.764129639E-1
3.067174955E0,9.408569336E-2,-3.880920410E-1,-3.648376465E-1
3.072149320E0,2.634582520E-1,-5.958099365E-1,-4.671020508E-1
3.077123685E0,3.699951172E-1,-5.095214844E-1,-5.672302246E-1
3.082098050E0,2.975463867E-1,-4.967498779E-1,-6.982574463E-1
3.087072415E0,1.089935303E-1,-3.444061279E-1,-8.314208984E-1
3.092077298E0,-1.530609131E-1,1.565551758E-2,-9.741668701E-1
3.097051663E0,-4.236297607E-1,4.428253174E-1,-1.103057861E0
3.102026029E0,-6.643829346E-1,6.995544434E-1,-1.196807861E0
3.107000394E0,-8.007354736E-1,9.125976562E-1,-1.230895996E0
3.112005277E0,-8.241729736E-1,1.140563965E0,-1.189346313E0
3.116979642E0,-7.453460693E-1,1.307815552E0,-1.068969727E0
3.121954007E0,-5.791625977E-1,1.355758667E0,-8.910675049E-1
3.126928372E0,-3.991394043E-1,1.285446167E0,-7.462005615E-1
3.131902738E0,-1.818237305E-1,1.306747437E0,-6.268920898E-1
3.136907621E0,1.271057129E-1,1.525131226E0,-4.180908203E-1
3.141881986E0,3.657226562E-1,1.431381226E0,-1.933288574E-1
3.146856351E0,5.947570801E-1,1.203414917E0,-6.123352051E-2
3.151830716E0,7.428283691E-1,6.761169434E-1,-1.453857422E-1
3.156835599E0,8.770599365E-1,3.448181152E-1,-2.220916748E-1
3.161809964E0,9.782562256E-1,2.638549805E-1,-2.668304443E-1
3.166784330E0,1.036849976E0,3.767700195E-1,-2.806701660E-1
3.171758695E0,1.079452515E0,6.697235107E-1,-2.487182617E-1
3.176733060E0,1.028320312E0,8.060760498E-1,-2.348785400E-1
3.181737943E0,9.185943604E-1,8.763885498E-1,-2.124938965E-1
3.186712308E0,8.269805908E-1,1.103286743E0,-1.272735596E-1
3.191686673E0,6.277770996E-1,1.091567993E0,-8.999633789E-2
3.196661038E0,4.530792236E-1,1.140563965E0,-5.844116211E-3
3.201665921E0,2.602691650E-1,1.121398926E0,4.423522949E-2
3.206640287E0,7.704162598E-2,1.043624878E0,5.914306641E-2
3.211614652E0,-2.310180664E-2,1.047897339E0,8.364868164E-2
3.216589017E0,-6.570434570E-2,1.101150513E0,9.429931641E-2
3.221563382E0,-7.423400879E-2,1.127792358E0,8.258056641E-2
3.226568265E0,-5.505371094E-2,1.134170532E0,5.700683594E-2
3.231542630E0,1.951599121E-2,1.228988647E0,6.979370117E-2
3.236516996E0,1.526794434E-1,1.429260254E0,1.305084229E-1
3.241491361E0,2.901000977E-1,1.625259399E0,2.061462402E-1
3.246496244E0,3.710479736E-1,1.726470947E0,2.668609619E-1
3.251470609E0,4.264526367E-1,1.841506958E0,3.169403076E-1
3.256444974E0,4.818420410E-1,2.125930786E0,3.148040771E-1
3.261419339E0,5.287170410E-1,2.292114258E0,3.126678467E-1
3.266393705E0,4.935607910E-1,2.243118286E0,3.265228271E-1
3.271398587E0,2.975463867E-1,1.900100708E0,3.222656250E-1
3.276372953E0,-5.612182617E-2,1.290771484E0,2.817840576E-1
3.281347318E0,-2.947387695E-1,7.794494629E-1,2.423706055E-1
3.286321683E0,-3.842163086E-1,4.353637695E-1,2.157287598E-1
3.291326566E0,-3.906097412E-1,1.743774414E-1,1.912384033E-1
3.296300931E0,-3.149719238E-1,6.057739258E-3,1.678009033E-1
3.301275296E0,-1.882171631E-1,-7.063293457E-2,1.496887207E-1
3.306249662E0,-4.652404785E-2,-1.121826172E-1,1.273193359E-1
3.311224027E0,7.704162598E-2,-1.548004150E-1,8.151245117E-2
3.316228910E0,1.643981934E-1,-1.697082520E-1,1.440429688E-2
3.321203275E0,2.038116455E-1,-1.324157715E-1,-6.442260742E-2
3.326177640E0,2.229766846E-1,-7.490539551E-2,-1.688232422E-1
3.331152005E0,2.197875977E-1,6.057739258E-3,-2.849426270E-1
3.336156888E0,2.059326172E-1,1.392211914E-1,-3.957214355E-1
3.341131253E0,1.750488281E-1,2.862243652E-1,-5.097045898E-1
3.346105619E0,1.388244629E-1,4.396209717E-1,-6.172943115E-1
3.351079984E0,1.303100586E-1,5.802459717E-1,-6.971893311E-1
3.356054349E0,1.569366455E-1,6.217803955E-1,-7.366180420E-1
3.361059232E0,2.634582520E-1,4.694519043E-1,-8.303527832E-1
3.366033597E0,3.390960693E-1,3.267059326E-1,-1.112655640E0
3.371007962E0,2.432250977E-1,3.746490479E-1,-1.423706055E0
3.375982328E0,2.909851074E-2,4.896850586E-1,-1.546218872E0
3.380987210E0,-1.764984131E-1,4.992828369E-1,-1.246871948E0
3.385961576E0,-3.043212891E-1,4.801025391E-1,-5.810852051E-1
3.390935941E0,-3.607788086E-1,5.845031738E-1,-4.418945312E-2
3.395910306E0,-3.565216064E-1,7.197875977E-1,1.507568359E-1
3.400884671E0,-2.851562500E-1,7.219238281E-1,1.507568359E-1
3.405889554E0,-1.701049805E-1,5.972900391E-1,9.642028809E-2
3.410863919E0,-5.505371094E-2,4.087371826E-1,4.316711426E-2
3.415838285E0,5.041503906E-2,1.850280762E-1,2.685546875E-3
3.420812650E0,1.558685303E-1,-5.465698242E-2,-3.247070312E-2
3.425787015E0,2.528076172E-1,-2.346954346E-1,-9.425354004E-2
3.430791898E0,3.284454346E-1,-2.826232910E-1,-1.049041748E-1
3.435766263E0,3.859710693E-1,-2.794342041E-1,-1.049041748E-1
3.440740628E0,3.859710693E-1,-2.304229736E-1,-1.155548096E-1
3.445714994E0,3.252410889E-1,-1.888885498E-1,-8.041381836E-2
3.450719876E0,2.144622803E-1,-1.750335693E-1,-6.123352051E-2
3.455694242E0,8.555603027E-2,-1.633148193E-1,-5.484008789E-2
3.460668607E0,-3.694152832E-2,-1.462707520E-1,-4.632568359E-2
3.465642972E0,-9.339904785E-2,-1.462707520E-1,-5.270385742E-2
3.470647855E0,-7.955932617E-2,-1.430816650E-1,-6.869506836E-2
3.475622220E0,-6.057739258E-3,-1.313629150E-1,-8.146667480E-2
3.480596585E0,1.015472412E-1,-1.196441650E-1,-9.106445312E-2
3.485570951E0,2.187194824E-1,-1.228332520E-1,-8.679199219E-2
3.490545316E0,3.177947998E-1,-1.292266846E-1,-8.360290527E-2
3.495550199E0,3.870391846E-1,-1.164398193E-1,-7.827758789E-2
3.500524564E0,4.243164062E-1,-9.088134766E-2,-6.549072266E-2
3.505498929E0,4.296417236E-1,-6.530761719E-2,-4.632568359E-2
3.510473294E0,4.051361084E-1,-3.974914551E-2,-3.033447266E-2
3.515478177E0,3.593292236E-1,-1.843261719E-2,-1.223754883E-2
3.520452542E0,2.943572998E-1,-1.388549805E-3,3.753662109E-3
3.525426908E0,2.112579346E-1,2.098083496E-2,1.226806641E-2
3.530401273E0,1.271057129E-1,3.907775879E-2,1.866149902E-2
3.535375638E0,5.041503906E-2,4.867553711E-2,1.972961426E-2
3.540380521E0,-1.350402832E-2,6.146240234E-2,2.398681641E-2
3.545354886E0,-7.209777832E-2,8.702087402E-2,2.612304688E-2
3.550329251E0,-1.104431152E-1,1.168518066E-1,1.119995117E-2
3.555303617E0,-1.210937500E-1,1.370849609E-1,5.493164062E-4
3.560277982E0,-1.104431152E-1,1.392211914E-1,-1.756286621E-2
3.565282865E0,-7.316589355E-2,1.157836914E-1,-4.737854004E-2
3.570257230E0,-3.375244141E-2,1.062011719E-1,-8.573913574E-2
3.575231595E0,-2.203369141E-2,1.200408936E-1,-1.262207031E-1
3.580205960E0,-2.310180664E-2,1.093902588E-1,-1.421966553E-1
3.585210843E0,-3.054809570E-2,6.784057617E-2,-1.389923096E-1
3.590185208E0,-2.629089355E-2,-1.098632812E-2,-1.240844727E-1
3.595159574E0,8.865356445E-3,-1.217651367E-1,-9.638977051E-2
3.600133939E0,7.810974121E-2,-2.272338867E-1,-6.762695312E-2
3.605108304E0,1.601257324E-1,-2.922058105E-1,-4.312133789E-2
3.610113187E0,2.165832520E-1,-3.103179932E-1,-2.075195312E-2
3.615087552E0,2.432250977E-1,-3.060607910E-1,-7.965087891E-3
3.620061917E0,2.378997803E-1,-2.815551758E-1,8.010864258E-3
3.625036283E0,2.187194824E-1,-2.421417236E-1,2.291870117E-2
3.630041165E0,1.888885498E-1,-1.878204346E-1,4.103088379E-2
3.635015531E0,1.537322998E-1,-1.228332520E-1,5.274963379E-2
3.639989896E0,1.111297607E-1,-4.293823242E-2,5.914306641E-2
3.644964261E0,5.999755859E-2,3.588867188E-2,6.446838379E-2
3.649938626E0,1.403808594E-3,1.072692871E-1,6.765747070E-2
3.654943509E0,-6.356811523E-2,1.584014893E-1,6.446838379E-2
3.659917874E0,-1.189727783E-1,1.754455566E-1,5.274963379E-2
3.664892240E0,-1.658325195E-1,1.871490479E-1,4.209899902E-2
3.669866605E0,-2.020568848E-1,2.010040283E-1,2.824401855E-2
3.674871488E0,-2.254943848E-1,2.127227783E-1,1.226806641E-2
3.679845853E0,-2.340240479E-1,2.105865479E-1,-3.707885742E-3
3.684820218E0,-2.340240479E-1,1.924896240E-1,-1.649475098E-2
3.689794583E0,-2.244262695E-1,1.637268066E-1,-3.033447266E-2
3.694768949E0,-2.084503174E-1,1.221771240E-1,-4.632568359E-2
3.699773831E0,-1.828765869E-1,6.571960449E-2,-6.442260742E-2
3.704748197E0,-1.594543457E-1,1.800537109E-3,-8.041381836E-2
3.709722562E0,-1.306915283E-1,-6.637573242E-2,-9.957885742E-2
3.714696927E0,-1.040496826E-1,-1.313629150E-1,-1.176910400E-1
3.719701810E0,-7.955932617E-2,-1.878204346E-1,-1.336669922E-1
3.724676175E0,-5.824279785E-2,-2.378845215E-1,-1.496429443E-1
3.729650540E0,-3.800964355E-2,-2.772979736E-1,-1.624298096E-1
3.734624906E0,-1.776123047E-2,-3.039245605E-1,-1.730804443E-1
3.739599271E0,3.356933594E-4,-3.188476562E-1,-1.805419922E-1
3.744604154E0,9.933471680E-3,-3.209686279E-1,-1.837310791E-1
3.749578519E0,2.058410645E-2,-3.156433105E-1,-1.890716553E-1
3.754552884E0,2.165222168E-2,-3.081970215E-1,-1.922607422E-1
3.759527249E0,2.165222168E-2,-2.975463867E-1,-1.943969727E-1
3.764532132E0,1.951599121E-2,-2.900848389E-1,-1.965179443E-1
3.769506497E0,1.419067383E-2,-2.815551758E-1,-2.007904053E-1
3.774480863E0,8.865356445E-3,-2.751617432E-1,-2.050476074E-1
3.779455228E0,4.608154297E-3,-2.730407715E-1,-2.124938965E-1
3.784429593E0,1.403808594E-3,-2.709045410E-1,-2.210235596E-1
3.789434476E0,6.729125977E-3,-2.709045410E-1,-2.306060791E-1
3.794408841E0,1.312255859E-2,-2.772979736E-1,-2.402038574E-1
3.799383206E0,2.590942383E-2,-2.826232910E-1,-2.519226074E-1
3.804357572E0,4.402160645E-2,-2.922058105E-1,-2.636260986E-1
3.809362455E0,6.532287598E-2,-3.060607910E-1,-2.764129639E-1
3.814336820E0,9.408569336E-2,-3.199157715E-1,-2.902679443E-1
3.819311185E0,1.249847412E-1,-3.401489258E-1,-3.041076660E-1
3.824285550E0,1.569366455E-1,-3.635864258E-1,-3.168945312E-1
3.829258265E0,1.856994629E-1,-3.891448975E-1,-3.286132812E-1
3.834263148E0,2.176513672E-1,-4.179077148E-1,-3.381958008E-1
3.839237513E0,2.432250977E-1,-4.488067627E-1,-3.445892334E-1
3.844211879E0,2.730560303E-1,-4.786376953E-1,-3.531188965E-1
3.849186244E0,2.986145020E-1,-5.084686279E-1,-3.563079834E-1
3.854191127E0,3.231201172E-1,-5.361633301E-1,-3.595123291E-1
3.859165492E0,3.369598389E-1,-5.574645996E-1,-3.573760986E-1
3.864139857E0,3.444213867E-1,-5.734405518E-1,-3.552398682E-1
3.869114222E0,3.476104736E-1,-5.798339844E-1,-3.584442139E-1
3.874088588E0,3.465576172E-1,-5.840911865E-1,-3.701629639E-1
3.879093471E0,3.422851562E-1,-5.862274170E-1,-3.872070312E-1
3.884067836E0,3.369598389E-1,-5.840911865E-1,-4.053192139E-1
3.889042201E0,3.327026367E-1,-5.830230713E-1,-4.202270508E-1
3.894016566E0,3.327026367E-1,-5.862274170E-1,-4.372711182E-1
3.899021449E0,3.380279541E-1,-5.958099365E-1,-4.543151855E-1
3.903995814E0,3.422851562E-1,-5.947418213E-1,-4.681701660E-1
3.908970180E0,3.465576172E-1,-5.606536865E-1,-4.660339355E-1
3.913944545E0,3.454895020E-1,-5.137939453E-1,-4.617767334E-1
3.918918910E0,3.476104736E-1,-4.733123779E-1,-4.585723877E-1
3.923923793E0,3.540039062E-1,-4.413452148E-1,-4.543151855E-1
3.928898158E0,3.572082520E-1,-4.179077148E-1,-4.458007812E-1
3.933872523E0,3.614654541E-1,-3.998107910E-1,-4.383392334E-1
3.938846888E0,3.582763672E-1,-3.795623779E-1,-4.404602051E-1
3.943851771E0,3.508148193E-1,-3.582611084E-1,-4.553833008E-1
3.948826137E0,3.444213867E-1,-3.401489258E-1,-4.734954834E-1
3.953800502E0,3.390960693E-1,-3.305664062E-1,-4.841461182E-1
3.958774867E0,3.380279541E-1,-3.380126953E-1,-4.894714355E-1
3.963749232E0,3.316345215E-1,-3.465423584E-1,-4.894714355E-1
3.968754115E0,3.177947998E-1,-3.348236084E-1,-4.841461182E-1
3.973728480E0,3.050079346E-1,-3.081970215E-1,-4.756164551E-1
3.978702846E0,2.911529541E-1,-2.741088867E-1,-4.660339355E-1
3.983677211E0,2.762451172E-1,-2.442779541E-1,-4.575042725E-1
3.988651576E0,2.528076172E-1,-2.133789062E-1,-4.500579834E-1
3.993656459E0,2.272491455E-1,-1.931457520E-1,-4.404602051E-1
3.998630824E0,2.091369629E-1,-1.910095215E-1,-4.298095703E-1
4.003605189E0,1.920928955E-1,-2.155151367E-1,-4.117126465E-1
4.008579555E0,1.867675781E-1,-2.666473389E-1,-3.733520508E-1
4.013584437E0,1.739807129E-1,-3.529357910E-1,-3.541870117E-1
4.018558803E0,1.484069824E-1,-4.541320801E-1,-3.584442139E-1
4.023533168E0,1.185913086E-1,-5.553283691E-1,-3.744201660E-1
4.028507533E0,9.515380859E-2,-6.352233887E-1,-3.978576660E-1
4.033481898E0,7.810974121E-2,-6.778411865E-1,-4.159698486E-1
4.038486781E0,6.425476074E-2,-6.831665039E-1,-4.180908203E-1
4.043461146E0,4.508972168E-2,-6.597290039E-1,-4.085083008E-1
4.048435512E0,1.737976074E-2,-6.096649170E-1,-3.861389160E-1
4.053409877E0,-1.989746094E-2,-5.382843018E-1,-3.488616943E-1
4.058414760E0,-5.612182617E-2,-4.583892822E-1,-3.051757812E-1
4.063389125E0,-8.488464355E-2,-3.603820801E-1,-2.615051270E-1
4.068363490E0,-9.765625000E-2,-2.400207520E-1,-2.284851074E-1
4.073337855E0,-8.274841309E-2,-9.620666504E-2,-2.156982422E-1
4.078312221E0,-3.694152832E-2,5.932617188E-2,-2.146301270E-1
4.083317103E0,3.016662598E-2,1.935424805E-1,-2.263488770E-1
4.088291469E0,9.727478027E-2,2.659912109E-1,-2.444610596E-1
4.093265834E0,1.409606934E-1,2.574615479E-1,-2.657623291E-1
4.098240199E0,1.409606934E-1,1.775665283E-1,-2.849426270E-1
4.103245082E0,9.941101074E-2,4.547119141E-2,-3.019866943E-1
4.108219447E0,1.844787598E-2,-1.111145020E-1,-3.211517334E-1
4.113193812E0,-8.593750000E-2,-2.741088867E-1,-3.381958008E-1
4.118168178E0,-1.999359131E-1,-4.370880127E-1,-3.520507812E-1
4.123142543E0,-2.979278564E-1,-5.819702148E-1,-3.605651855E-1
4.128147426E0,-3.661041260E-1,-6.948852539E-1,-3.627014160E-1
4.133121791E0,-3.970031738E-1,-7.694549561E-1,-3.595123291E-1
4.138096156E0,-3.991394043E-1,-8.046112061E-1,-3.563079834E-1
4.143070521E0,-3.757019043E-1,-8.067321777E-1,-3.531188965E-1
4.148075404E0,-3.426666260E-1,-7.779693604E-1,-3.467254639E-1
4.153049769E0,-3.043212891E-1,-7.396240234E-1,-3.392639160E-1
4.158024135E0,-2.681121826E-1,-6.916809082E-1,-3.424682617E-1
4.162998500E0,-2.361450195E-1,-6.394958496E-1,-3.456573486E-1
4.167972865E0,-2.105865479E-1,-5.904846191E-1,-3.541870117E-1
4.172977748E0,-1.924743652E-1,-5.500030518E-1,-3.669586182E-1
4.177952113E0,-1.828765869E-1,-5.233764648E-1,-3.818817139E-1
4.182926478E0,-1.764984131E-1,-5.180511475E-1,-4.010467529E-1
4.187900844E0,-1.796875000E-1,-5.308380127E-1,-4.234161377E-1
4.192905726E0,-1.882171631E-1,-5.563964844E-1,-4.394073486E-1
4.197880092E0,-2.009887695E-1,-5.926208496E-1,-4.479217529E-1
4.202854457E0,-2.244262695E-1,-6.267089844E-1,-4.415283203E-1
4.207828822E0,-2.542572021E-1,-6.586608887E-1,-4.202270508E-1
4.212803187E0,-2.798156738E-1,-6.959533691E-1,-3.903961182E-1
4.217808070E0,-3.043212891E-1,-7.428131104E-1,-3.648376465E-1
4.222782435E0,-3.245697021E-1,-7.864990234E-1,-3.456573486E-1
4.227756801E0,-3.416137695E-1,-8.184509277E-1,-3.403320312E-1
4.232731166E0,-3.543853760E-1,-8.227081299E-1,-3.414001465E-1
4.237736049E0,-3.629150391E-1,-8.056640625E-1,-3.381958008E-1
4.242710414E0,-3.671722412E-1,-7.673187256E-1,-3.339385986E-1
4.247684779E0,-3.639831543E-1,-7.097930908E-1,-3.296813965E-1
4.252659144E0,-3.565216064E-1,-6.362915039E-1,-3.211517334E-1
4.257633510E0,-3.384094238E-1,-5.404205322E-1,-3.115692139E-1
4.262638392E0,-3.149719238E-1,-4.328308105E-1,-2.955932617E-1
4.267612758E0,-2.936706543E-1,-3.252410889E-1,-2.849426270E-1
4.272587123E0,-2.766265869E-1,-2.133789062E-1,-2.785491943E-1
4.277561488E0,-2.521209717E-1,-1.111145020E-1,-2.604370117E-1
4.282566371E0,-2.127075195E-1,-4.507446289E-2,-2.274169922E-1
4.287540736E0,-1.807556152E-1,1.670837402E-2,-1.954498291E-1
4.292515101E0,-1.711730957E-1,1.019287109E-1,-1.752166748E-1
4.297489467E0,-1.860809326E-1,2.042083740E-1,-1.677551270E-1
4.302463832E0,-2.116394043E-1,3.075256348E-1,-1.752166748E-1
4.307468715E0,-2.382812500E-1,4.066009521E-1,-1.890716553E-1
4.312443080E0,-2.531890869E-1,4.950103760E-1,-2.061157227E-1
4.317417445E0,-2.574462891E-1,5.727844238E-1,-2.178344727E-1
4.322391810E0,-2.446746826E-1,6.398925781E-1,-2.242126465E-1
4.327396693E0,-2.244262695E-1,6.888885498E-1,-2.220916748E-1
4.332371058E0,-1.945953369E-1,7.165985107E-1,-2.146301270E-1
4.337345424E0,-1.637115479E-1,7.229919434E-1,-2.029113770E-1
4.342319789E0,-1.424102783E-1,7.059478760E-1,-1.890716553E-1
4.347294154E0,-1.285552979E-1,6.675872803E-1,-1.805419922E-1
4.352299037E0,-1.200408936E-1,6.228485107E-1,-1.688232422E-1
4.357273402E0,-1.210937500E-1,5.908966064E-1,-1.613616943E-1
4.362247767E0,-1.253662109E-1,5.781097412E-1,-1.634979248E-1
4.367222133E0,-1.349487305E-1,5.791778564E-1,-1.752166748E-1
4.372227015E0,-1.424102783E-1,5.834350586E-1,-1.847991943E-1
4.377201381E0,-1.498565674E-1,5.770416260E-1,-1.933288574E-1
4.382175746E0,-1.509246826E-1,5.568084717E-1,-1.986541748E-1
4.387150111E0,-1.541290283E-1,5.301666260E-1,-2.039794922E-1
4.392124476E0,-1.583862305E-1,4.928894043E-1,-2.061157227E-1
4.397129359E0,-1.637115479E-1,4.449462891E-1,-2.082366943E-1
4.402103724E0,-1.679687500E-1,3.895568848E-1,-2.114410400E-1
4.407078090E0,-1.647796631E-1,3.309631348E-1,-2.220916748E-1
4.412052455E0,-1.594543457E-1,2.851562500E-1,-2.295379639E-1
4.417057338E0,-1.562500000E-1,2.500000000E-1,-2.252807617E-1
4.422031703E0,-1.509246826E-1,2.233734131E-1,-2.156982422E-1
4.427006068E0,-1.424102783E-1,1.956787109E-1,-2.082366943E-1
4.431980433E0,-1.285552979E-1,1.690521240E-1,-2.007904053E-1
4.436954799E0,-1.125793457E-1,1.392211914E-1,-1.997222900E-1
4.441959681E0,-9.872436523E-2,1.083221436E-1,-1.986541748E-1
4.446934047E0,-8.807373047E-2,7.423400879E-2,-2.007904053E-1
4.451908412E0,-8.061218262E-2,3.802490234E-2,-1.965179443E-1
4.456882777E0,-7.849121094E-2,1.800537109E-3,-1.901245117E-1
4.461887660E0,-7.849121094E-2,-3.335571289E-2,-1.816101074E-1
4.466862025E0,-7.635498047E-2,-6.423950195E-2,-1.709594727E-1
4.471836390E0,-7.635498047E-2,-9.407043457E-2,-1.613616943E-1
4.476810756E0,-7.528686523E-2,-1.185760498E-1,-1.549835205E-1
4.481785121E0,-7.102966309E-2,-1.398773193E-1,-1.475219727E-1
4.486790004E0,-6.356811523E-2,-1.633148193E-1,-1.379394531E-1
4.491764369E0,-5.505371094E-2,-1.846160889E-1,-1.262207031E-1
4.496738734E0,-4.866027832E-2,-1.995391846E-1,-1.123657227E-1
4.501713099E0,-4.333496094E-2,-2.091217041E-1,-9.957885742E-2
4.506687465E0,-4.119873047E-2,-2.144470215E-1,-8.786010742E-2
4.511692347E0,-4.119873047E-2,-2.187042236E-1,-7.827758789E-2
4.516666713E0,-4.440307617E-2,-2.229766846E-1,-7.402038574E-2
4.521641078E0,-4.759216309E-2,-2.304229736E-1,-6.549072266E-2
4.526615443E0,-5.079650879E-2,-2.421417236E-1,-6.123352051E-2
4.531620326E0,-5.505371094E-2,-2.613220215E-1,-5.697631836E-2
4.536594691E0,-5.718994141E-2,-2.762298584E-1,-5.377197266E-2
4.541569056E0,-5.824279785E-2,-2.868804932E-1,-4.951477051E-2
4.546543422E0,-5.718994141E-2,-2.996673584E-1,-4.632568359E-2
4.551517787E0,-5.291748047E-2,-3.177795410E-1,-4.418945312E-2
4.556522670E0,-4.652404785E-2,-3.348236084E-1,-3.993225098E-2
4.561497035E0,-4.226684570E-2,-3.433380127E-1,-3.565979004E-2
4.566471400E0,-4.333496094E-2,-3.518676758E-1,-2.821350098E-2
4.571445765E0,-4.333496094E-2,-3.603820801E-1,-2.075195312E-2
4.576450648E0,-4.333496094E-2,-3.699798584E-1,-1.329040527E-2
4.581425013E0,-3.800964355E-2,-3.784942627E-1,-7.965087891E-3
4.586399379E0,-3.054809570E-2,-3.870239258E-1,-2.639770508E-3
4.591373744E0,-2.096557617E-2,-3.859558105E-1,5.493164062E-4
4.596348109E0,-1.138305664E-2,-3.774261475E-1,2.685546875E-3
4.601352992E0,1.403808594E-3,-3.614501953E-1,3.753662109E-3
4.606327357E0,1.419067383E-2,-3.390808105E-1,3.753662109E-3
4.611301722E0,2.590942383E-2,-3.124542236E-1,-5.187988281E-4
4.616276088E0,3.337097168E-2,-2.847595215E-1,-5.844116211E-3
4.621280971E0,3.762817383E-2,-2.517395020E-1,-1.223754883E-2
4.626255336E0,3.656005859E-2,-2.187042236E-1,-1.968383789E-2
4.631229701E0,3.549194336E-2,-1.899414062E-1,-2.395629883E-2
4.636204066E0,3.123474121E-2,-1.643829346E-1,-2.714538574E-2
4.641178431E0,2.697753906E-2,-1.409454346E-1,-2.714538574E-2
4.646183314E0,1.951599121E-2,-1.175079346E-1,-2.607727051E-2
4.651157680E0,1.632690430E-2,-9.194946289E-2,-2.607727051E-2
4.656132045E0,1.312255859E-2,-6.744384766E-2,-2.500915527E-2
4.661106410E0,1.205444336E-2,-3.868103027E-2,-2.500915527E-2
4.666111293E0,1.312255859E-2,-1.098632812E-2,-2.288818359E-2
4.671085658E0,1.525878906E-2,1.138305664E-2,-1.542663574E-2
4.676060023E0,1.737976074E-2,2.523803711E-2,-9.033203125E-3
4.681034388E0,1.419067383E-2,3.695678711E-2,-2.639770508E-3
4.686008754E0,1.100158691E-2,5.079650879E-2,-5.187988281E-4
4.691013637E0,4.608154297E-3,6.358337402E-2,1.617431641E-3
4.695988002E0,-2.853393555E-3,8.383178711E-2,4.806518555E-3
4.700962367E0,-1.243591309E-2,1.029968262E-1,5.874633789E-3
4.705936732E0,-2.203369141E-2,1.275024414E-1,3.753662109E-3
4.710941615E0,-3.161621094E-2,1.562652588E-1,-1.571655273E-3
4.715915980E0,-3.694152832E-2,1.860961914E-1,-6.912231445E-3
4.720890346E0,-3.480529785E-2,2.137908936E-1,-1.116943359E-2
4.725864711E0,-3.161621094E-2,2.372283936E-1,-1.649475098E-2
4.730839076E0,-2.415466309E-2,2.563934326E-1,-2.607727051E-2
4.735843959E0,-1.882934570E-2,2.787628174E-1,-3.033447266E-2
4.740818324E0,-1.243591309E-2,2.979431152E-1,-3.672790527E-2
4.745792689E0,-1.785278320E-3,3.117980957E-1,-4.525756836E-2
4.750767055E0,1.205444336E-2,3.203125000E-1,-5.377197266E-2
4.755771937E0,2.697753906E-2,3.192443848E-1,-6.442260742E-2
4.760746303E0,4.295349121E-2,3.139190674E-1,-7.295227051E-2
4.765720668E0,5.467224121E-2,3.043365479E-1,-7.614135742E-2
4.770695033E0,5.574035645E-2,2.990112305E-1,-7.188415527E-2
4.775669398E0,6.425476074E-2,2.755737305E-1,-5.909729004E-2
4.780674281E0,7.597351074E-2,2.319030762E-1,-4.418945312E-2
4.785648646E0,8.555603027E-2,2.063293457E-1,-2.607727051E-2
4.790623012E0,9.515380859E-2,1.914215088E-1,-1.329040527E-2
4.795597377E0,1.047363281E-1,1.839599609E-1,-1.571655273E-3
4.800602260E0,1.153869629E-1,1.828918457E-1,1.014709473E-2
4.805576625E0,1.239166260E-1,1.818237305E-1,2.185058594E-2
4.810550990E0,1.303100586E-1,1.807708740E-1,3.144836426E-2
4.815525355E0,1.324310303E-1,1.850280762E-1,3.889465332E-2
4.820499721E0,1.324310303E-1,1.892852783E-1,4.635620117E-2
4.825504603E0,1.271057129E-1,1.978149414E-1,5.168151855E-2
4.830478969E0,1.217803955E-1,2.084655762E-1,5.488586426E-2
4.835453334E0,1.164550781E-1,2.201843262E-1,5.700683594E-2
4.840427699E0,1.100616455E-1,2.329559326E-1,5.593872070E-2
4.845432582E0,1.079406738E-1,2.478790283E-1,5.593872070E-2
4.850406947E0,1.100616455E-1,2.627868652E-1,5.488586426E-2
4.855381312E0,1.121978760E-1,2.798309326E-1,5.807495117E-2
4.860355678E0,1.175231934E-1,3.000793457E-1,6.021118164E-2
4.865330043E0,1.196441650E-1,3.117980957E-1,6.446838379E-2
4.870334926E0,1.281738281E-1,3.181915283E-1,6.765747070E-2
4.875309291E0,1.334991455E-1,3.171234131E-1,6.765747070E-2
4.880283656E0,1.409606934E-1,3.139190674E-1,6.979370117E-2
4.885258021E0,1.473541260E-1,3.117980957E-1,6.765747070E-2
4.890262904E0,1.558685303E-1,3.075256348E-1,6.660461426E-2
4.895237269E0,1.590728760E-1,3.022003174E-1,6.660461426E-2
4.900211635E0,1.622619629E-1,2.926177979E-1,6.660461426E-2
4.905186000E0,1.611938477E-1,2.723846436E-1,6.553649902E-2
4.910160365E0,1.590728760E-1,2.457427979E-1,6.340026855E-2
4.915165248E0,1.526794434E-1,2.148590088E-1,6.233215332E-2
4.920139613E0,1.505432129E-1,1.871490479E-1,6.021118164E-2
4.925113978E0,1.462860107E-1,1.626586914E-1,5.700683594E-2
4.930088344E0,1.452178955E-1,1.445465088E-1,5.381774902E-2
4.935093226E0,1.462860107E-1,1.306915283E-1,5.061340332E-2
4.940067592E0,1.452178955E-1,1.221771240E-1,4.635620117E-2
4.945041957E0,1.441497803E-1,1.200408936E-1,4.103088379E-2
4.950016322E0,1.409606934E-1,1.221771240E-1,3.677368164E-2
4.954990687E0,1.366882324E-1,1.296386719E-1,3.144836426E-2
4.959995570E0,1.345672607E-1,1.381530762E-1,2.612304688E-2
4.964969935E0,1.345672607E-1,1.477355957E-1,2.291870117E-2
4.969944301E0,1.345672607E-1,1.605224609E-1,1.866149902E-2
4.974918666E0,1.377563477E-1,1.711730957E-1,1.547241211E-2
4.979923549E0,1.430816650E-1,1.818237305E-1,1.333618164E-2
4.984897914E0,1.473541260E-1,1.914215088E-1,1.226806641E-2
4.989872279E0,1.484069824E-1,1.988677979E-1,1.333618164E-2
4.994846644E0,1.505432129E-1,2.042083740E-1,1.333618164E-2
4.999821010E0,1.505432129E-1,2.084655762E-1,1.652526855E-2
5.004825892E0,1.494750977E-1,2.073974609E-1,2.079772949E-2
5.009800258E0,1.494750977E-1,2.031402588E-1,2.505493164E-2
5.014774623E0,1.505432129E-1,1.999359131E-1,2.719116211E-2
5.019748988E0,1.526794434E-1,1.956787109E-1,2.824401855E-2
5.024753871E0,1.569366455E-1,1.924896240E-1,2.719116211E-2
5.029728236E0,1.569366455E-1,1.924896240E-1,2.931213379E-2
5.034702601E0,1.558685303E-1,1.892852783E-1,2.824401855E-2
5.039676967E0,1.526794434E-1,1.850280762E-1,2.719116211E-2
5.044651332E0,1.505432129E-1,1.775665283E-1,2.505493164E-2
5.049656215E0,1.484069824E-1,1.658477783E-1,2.185058594E-2
5.054630580E0,1.505432129E-1,1.551971436E-1,2.079772949E-2
5.059604945E0,1.558685303E-1,1.466827393E-1,2.079772949E-2
5.064579310E0,1.580047607E-1,1.424102783E-1,2.291870117E-2
5.069553676E0,1.643981934E-1,1.424102783E-1,2.505493164E-2
5.074558558E0,1.675872803E-1,1.424102783E-1,2.612304688E-2
5.079532924E0,1.707763672E-1,1.434783936E-1,2.931213379E-2
5.084507289E0,1.707763672E-1,1.424102783E-1,3.038024902E-2
5.089481654E0,1.729125977E-1,1.445465088E-1,3.144836426E-2
5.094486537E0,1.707763672E-1,1.498718262E-1,3.463745117E-2
5.099460902E0,1.707763672E-1,1.551971436E-1,3.677368164E-2
5.104435267E0,1.654510498E-1,1.562652588E-1,3.889465332E-2
5.109409633E0,1.611938477E-1,1.562652588E-1,4.103088379E-2
5.114383998E0,1.537322998E-1,1.520080566E-1,4.209899902E-2
5.119388881E0,1.473541260E-1,1.488037109E-1,4.423522949E-2
5.124363246E0,1.441497803E-1,1.445465088E-1,4.742431641E-2
5.129337611E0,1.398925781E-1,1.392211914E-1,5.061340332E-2
5.134311976E0,1.388244629E-1,1.370849609E-1,5.488586426E-2
5.139316859E0,1.356353760E-1,1.328277588E-1,5.700683594E-2
5.144291224E0,1.345672607E-1,1.264343262E-1,5.914306641E-2
5.149265590E0,1.377563477E-1,1.211090088E-1,5.807495117E-2
5.154239955E0,1.409606934E-1,1.221771240E-1,5.700683594E-2
5.159214320E0,1.430816650E-1,1.243133545E-1,5.488586426E-2
5.164219203E0,1.430816650E-1,1.253662109E-1,4.956054688E-2
5.169193568E0,1.462860107E-1,1.275024414E-1,4.423522949E-2
5.174167933E0,1.473541260E-1,1.275024414E-1,4.103088379E-2
5.179142299E0,1.473541260E-1,1.264343262E-1,3.889465332E-2
5.184147181E0,1.462860107E-1,1.253662109E-1,3.251647949E-2
5.189121547E0,1.398925781E-1,1.243133545E-1,2.931213379E-2
5.194095912E0,1.366882324E-1,1.221771240E-1,2.291870117E-2
5.199070277E0,1.303100586E-1,1.200408936E-1,1.759338379E-2
5.204044642E0,1.271057129E-1,1.168518066E-1,1.547241211E-2
5.209049525E0,1.217803955E-1,1.125946045E-1,1.440429688E-2
5.214023890E0,1.153869629E-1,1.083221436E-1,1.333618164E-2
5.218998256E0,1.111297607E-1,9.980773926E-2,1.333618164E-2
5.223972621E0,1.036682129E-1,9.448242188E-2,1.333618164E-2
5.228977504E0,9.834289551E-2,8.915710449E-2,1.440429688E-2
5.233951869E0,9.622192383E-2,8.702087402E-2,1.652526855E-2
5.238926234E0,9.515380859E-2,8.595275879E-2,2.185058594E-2
5.243900599E0,9.622192383E-2,8.915710449E-2,2.719116211E-2
5.248874965E0,9.834289551E-2,9.341430664E-2,3.038024902E-2
5.253879847E0,9.941101074E-2,9.767150879E-2,3.356933594E-2
5.258854213E0,9.834289551E-2,9.873962402E-2,3.356933594E-2
5.263828578E0,9.408569336E-2,9.873962402E-2,3.144836426E-2
5.268802943E0,9.301757812E-2,9.234619141E-2,2.505493164E-2
5.273807826E0,9.194946289E-2,8.808898926E-2,1.866149902E-2
5.278782191E0,9.088134766E-2,8.915710449E-2,1.226806641E-2
5.283756556E0,8.982849121E-2,9.234619141E-2,8.010864258E-3
5.288730922E0,8.555603027E-2,9.660339355E-2,8.010864258E-3
5.293705287E0,8.236694336E-2,9.448242188E-2,1.119995117E-2
5.298710170E0,7.917785645E-2,9.020996094E-2,1.547241211E-2
5.303684535E0,7.597351074E-2,8.383178711E-2,1.759338379E-2
5.308658900E0,7.171630859E-2,7.743835449E-2,1.972961426E-2
5.313633265E0,7.278442383E-2,7.637023926E-2,2.079772949E-2
5.318638148E0,7.278442383E-2,7.850646973E-2,2.185058594E-2
5.323612513E0,7.383728027E-2,7.955932617E-2,1.972961426E-2
5.328586879E0,7.597351074E-2,7.530212402E-2,1.547241211E-2
5.333561244E0,7.490539551E-2,6.784057617E-2,1.014709473E-2
5.338535609E0,7.171630859E-2,5.932617188E-2,3.753662109E-3
5.343540492E0,6.318664551E-2,5.825805664E-2,5.493164062E-4
5.348514857E0,5.892944336E-2,5.718994141E-2,-1.571655273E-3
5.353489222E0,5.360412598E-2,5.400085449E-2,-1.571655273E-3
5.358463588E0,5.146789551E-2,4.974365234E-2,-3.707885742E-3
5.363468471E0,5.146789551E-2,4.228210449E-2,-3.707885742E-3
5.368442836E0,5.041503906E-2,3.907775879E-2,-2.639770508E-3
5.373417201E0,5.041503906E-2,3.802490234E-2,-3.707885742E-3
5.378391566E0,4.934692383E-2,3.482055664E-2,-3.707885742E-3
5.383365931E0,4.934692383E-2,3.269958496E-2,-4.776000977E-3
5.388370814E0,4.721069336E-2,3.056335449E-2,-6.912231445E-3
5.393345180E0,4.934692383E-2,3.375244141E-2,-9.033203125E-3
5.398319545E0,4.934692383E-2,3.802490234E-2,-1.010131836E-2
5.403293910E0,4.721069336E-2,4.014587402E-2,-1.010131836E-2
5.408298793E0,4.402160645E-2,3.802490234E-2,-1.329040527E-2
5.413273158E0,4.081726074E-2,3.163146973E-2,-1.329040527E-2
5.418247523E0,3.656005859E-2,2.523803711E-2,-1.649475098E-2
5.423221888E0,3.337097168E-2,1.991271973E-2,-1.756286621E-2
5.428196254E0,3.230285645E-2,1.351928711E-2,-1.756286621E-2
5.433201137E0,3.123474121E-2,7.125854492E-3,-1.542663574E-2
5.438175502E0,3.230285645E-2,2.868652344E-3,-1.861572266E-2
5.443149867E0,3.337097168E-2,-1.388549805E-3,-1.861572266E-2
5.448124232E0,3.230285645E-2,-3.524780273E-3,-1.861572266E-2
5.453129115E0,3.123474121E-2,-1.388549805E-3,-1.756286621E-2
5.458103480E0,3.123474121E-2,-3.356933594E-4,-1.756286621E-2
5.463077846E0,3.123474121E-2,2.868652344E-3,-1.649475098E-2
5.468052211E0,3.123474121E-2,7.125854492E-3,-1.542663574E-2
5.473026576E0,3.123474121E-2,1.033020020E-2,-1.649475098E-2
5.478031459E0,3.016662598E-2,1.245117188E-2,-1.861572266E-2
5.483005824E0,2.804565430E-2,1.245117188E-2,-1.861572266E-2
5.487980189E0,2.270507812E-2,1.033020020E-2,-2.075195312E-2
5.492954555E0,1.844787598E-2,6.057739258E-3,-2.075195312E-2
5.497959437E0,1.525878906E-2,-3.356933594E-4,-1.968383789E-2
5.502933803E0,1.312255859E-2,-7.781982422E-3,-1.861572266E-2
5.507908168E0,9.933471680E-3,-1.205444336E-2,-1.649475098E-2
5.512882533E0,7.797241211E-3,-1.205444336E-2,-1.542663574E-2
5.517856898E0,3.540039062E-3,-1.205444336E-2,-1.223754883E-2
5.522861781E0,-2.853393555E-3,-1.417541504E-2,-1.223754883E-2
5.527836146E0,-2.853393555E-3,-1.524353027E-2,-1.010131836E-2
5.532810512E0,-7.171630859E-4,-1.205444336E-2,-1.010131836E-2
5.537784877E0,1.403808594E-3,-9.918212891E-3,-1.010131836E-2
5.542789760E0,3.540039062E-3,-9.918212891E-3,-1.116943359E-2
5.547764125E0,4.608154297E-3,-9.918212891E-3,-1.223754883E-2
5.552738490E0,1.403808594E-3,-1.205444336E-2,-1.435852051E-2
5.557712855E0,3.540039062E-3,-1.205444336E-2,-1.329040527E-2
5.562687221E0,4.608154297E-3,-9.918212891E-3,-1.435852051E-2
5.567692103E0,5.661010742E-3,-6.729125977E-3,-1.542663574E-2
5.572666469E0,5.661010742E-3,-3.524780273E-3,-1.435852051E-2
5.577640834E0,3.540039062E-3,-3.356933594E-4,-1.435852051E-2
5.582615199E0,1.403808594E-3,-3.356933594E-4,-1.435852051E-2
5.587620082E0,-3.921508789E-3,7.324218750E-4,-1.542663574E-2
5.592594447E0,-7.110595703E-3,-2.456665039E-3,-1.756286621E-2
5.597568812E0,-1.243591309E-2,-9.918212891E-3,-2.075195312E-2
5.602543178E0,-1.882934570E-2,-1.843261719E-2,-2.075195312E-2
5.607517543E0,-2.203369141E-2,-2.803039551E-2,-2.288818359E-2
5.612522426E0,-2.415466309E-2,-3.442382812E-2,-2.288818359E-2
5.617496791E0,-2.415466309E-2,-3.761291504E-2,-2.395629883E-2
5.622471156E0,-2.629089355E-2,-3.974914551E-2,-2.395629883E-2
5.627445521E0,-2.735900879E-2,-4.293823242E-2,-2.288818359E-2
5.632450404E0,-2.522277832E-2,-4.400634766E-2,-2.288818359E-2
5.637424769E0,-2.415466309E-2,-4.507446289E-2,-2.182006836E-2
5.642399135E0,-1.882934570E-2,-4.507446289E-2,-2.075195312E-2
5.647373500E0,-1.350402832E-2,-4.293823242E-2,-1.968383789E-2
5.652347865E0,-1.031494141E-2,-3.868103027E-2,-1.968383789E-2
5.657352748E0,-1.138305664E-2,-3.761291504E-2,-1.756286621E-2
5.662327113E0,-1.138305664E-2,-3.761291504E-2,-1.756286621E-2
5.667301478E0,-1.350402832E-2,-3.868103027E-2,-1.649475098E-2
5.672275844E0,-1.350402832E-2,-4.081726074E-2,-1.649475098E-2
5.677280726E0,-1.670837402E-2,-4.081726074E-2,-1.756286621E-2
5.682255092E0,-1.670837402E-2,-4.187011719E-2,-1.861572266E-2
5.687229457E0,-1.989746094E-2,-4.400634766E-2,-1.968383789E-2
5.692203822E0,-2.415466309E-2,-4.614257812E-2,-2.182006836E-2
5.697178187E0,-2.842712402E-2,-5.039978027E-2,-2.395629883E-2
5.702183070E0,-3.375244141E-2,-5.465698242E-2,-2.607727051E-2
5.707157435E0,-3.694152832E-2,-5.891418457E-2,-2.928161621E-2
5.712131801E0,-3.800964355E-2,-6.211853027E-2,-3.140258789E-2
5.717106166E0,-3.800964355E-2,-6.423950195E-2,-3.140258789E-2
5.722111049E0,-3.587341309E-2,-6.637573242E-2,-3.460693359E-2
5.727085414E0,-3.587341309E-2,-6.851196289E-2,-3.779602051E-2
5.732059779E0,-3.480529785E-2,-7.276916504E-2,-3.672790527E-2
5.737034144E0,-3.375244141E-2,-7.702636719E-2,-3.886413574E-2
5.742008510E0,-3.480529785E-2,-8.235168457E-2,-3.886413574E-2
5.747013392E0,-3.375244141E-2,-9.194946289E-2,-3.993225098E-2
5.751987758E0,-3.800964355E-2,-1.004638672E-1,-3.993225098E-2
5.756962123E0,-3.800964355E-2,-1.068572998E-1,-4.312133789E-2
5.761936488E0,-3.800964355E-2,-1.079254150E-1,-4.312133789E-2
5.766910853E0,-3.800964355E-2,-1.100463867E-1,-4.418945312E-2
5.771915736E0,-3.694152832E-2,-1.121826172E-1,-4.632568359E-2
5.776890101E0,-3.800964355E-2,-1.132507324E-1,-4.632568359E-2
5.781864467E0,-3.800964355E-2,-1.121826172E-1,-4.844665527E-2
5.786838832E0,-4.014587402E-2,-1.121826172E-1,-4.737854004E-2
5.791843715E0,-4.014587402E-2,-1.111145020E-1,-4.737854004E-2
5.796818080E0,-4.226684570E-2,-1.121826172E-1,-4.737854004E-2
5.801792445E0,-4.440307617E-2,-1.111145020E-1,-4.632568359E-2
5.806766810E0,-4.333496094E-2,-1.036682129E-1,-4.737854004E-2
5.811741176E0,-4.226684570E-2,-9.727478027E-2,-4.844665527E-2
5.816746058E0,-4.119873047E-2,-9.194946289E-2,-5.058288574E-2
5.821720424E0,-4.014587402E-2,-8.767700195E-2,-5.058288574E-2
5.826694789E0,-4.119873047E-2,-8.555603027E-2,-5.165100098E-2
5.831669154E0,-4.119873047E-2,-8.555603027E-2,-5.058288574E-2
5.836674037E0,-4.014587402E-2,-8.448791504E-2,-5.058288574E-2
5.841648402E0,-3.587341309E-2,-8.235168457E-2,-5.165100098E-2
5.846622767E0,-3.268432617E-2,-8.341979980E-2,-5.165100098E-2
5.851597133E0,-2.947998047E-2,-8.767700195E-2,-4.951477051E-2
5.856602015E0,-2.735900879E-2,-9.194946289E-2,-4.951477051E-2
5.861576381E0,-2.842712402E-2,-9.407043457E-2,-4.844665527E-2
5.866550746E0,-3.161621094E-2,-9.620666504E-2,-4.737854004E-2
5.871525111E0,-3.268432617E-2,-1.004638672E-1,-4.737854004E-2
5.876499476E0,-3.375244141E-2,-1.004638672E-1,-4.525756836E-2
5.881504359E0,-3.375244141E-2,-1.026000977E-1,-4.418945312E-2
5.886478724E0,-3.480529785E-2,-1.004638672E-1,-4.312133789E-2
5.891453090E0,-3.694152832E-2,-9.513854980E-2,-4.205322266E-2
5.896427455E0,-3.800964355E-2,-8.341979980E-2,-4.100036621E-2
5.901432338E0,-4.014587402E-2,-7.170104980E-2,-3.886413574E-2
5.906406703E0,-4.014587402E-2,-6.105041504E-2,-3.779602051E-2
5.911381068E0,-4.119873047E-2,-5.465698242E-2,-3.565979004E-2
5.916355433E0,-4.547119141E-2,-5.039978027E-2,-3.460693359E-2
5.921329799E0,-4.972839355E-2,-4.933166504E-2,-3.247070312E-2
5.926334681E0,-5.184936523E-2,-4.933166504E-2,-2.821350098E-2
5.931309047E0,-4.759216309E-2,-4.933166504E-2,-2.714538574E-2
5.936283412E0,-4.759216309E-2,-5.679321289E-2,-2.395629883E-2
5.941257777E0,-4.759216309E-2,-6.530761719E-2,-2.182006836E-2
5.946232142E0,-4.652404785E-2,-7.490539551E-2,-2.075195312E-2
5.951237025E0,-4.759216309E-2,-8.341979980E-2,-1.649475098E-2
5.956211390E0,-4.652404785E-2,-9.088134766E-2,-1.542663574E-2
5.961185756E0,-4.440307617E-2,-9.088134766E-2,-1.329040527E-2
5.966160121E0,-4.119873047E-2,-8.874511719E-2,-1.435852051E-2
5.971165004E0,-3.907775879E-2,-8.448791504E-2,-1.435852051E-2
5.976139369E0,-3.800964355E-2,-7.702636719E-2,-1.649475098E-2
5.981113734E0,-3.587341309E-2,-6.851196289E-2,-1.968383789E-2
5.986088099E0,-3.800964355E-2,-5.891418457E-2,-2.607727051E-2
5.991062465E0,-4.014587402E-2,-4.933166504E-2,-3.140258789E-2
5.996067347E0,-4.226684570E-2,-4.507446289E-2,-3.460693359E-2
6.001041713E0,-4.440307617E-2,-4.614257812E-2,-3.993225098E-2
6.006016078E0,-4.652404785E-2,-5.039978027E-2,-4.312133789E-2
6.010990443E0,-4.547119141E-2,-5.891418457E-2,-4.632568359E-2
6.015995326E0,-4.652404785E-2,-6.530761719E-2,-4.418945312E-2
6.020969691E0,-4.547119141E-2,-6.956481934E-2,-4.205322266E-2
6.025944056E0,-4.119873047E-2,-7.170104980E-2,-3.993225098E-2
6.030918422E0,-3.907775879E-2,-7.276916504E-2,-3.672790527E-2
6.035892787E0,-3.694152832E-2,-7.276916504E-2,-3.353881836E-2
6.040897670E0,-3.480529785E-2,-7.170104980E-2,-2.928161621E-2
6.045872035E0,-3.268432617E-2,-6.956481934E-2,-2.714538574E-2
6.050846400E0,-3.375244141E-2,-6.956481934E-2,-2.395629883E-2
6.055820765E0,-3.375244141E-2,-6.851196289E-2,-2.075195312E-2
6.060825648E0,-3.161621094E-2,-6.744384766E-2,-1.756286621E-2
6.065800013E0,-3.161621094E-2,-6.530761719E-2,-1.649475098E-2
6.070774379E0,-3.375244141E-2,-6.211853027E-2,-1.542663574E-2
6.075748744E0,-3.480529785E-2,-5.786132812E-2,-1.756286621E-2
6.080723109E0,-3.480529785E-2,-5.146789551E-2,-1.968383789E-2
6.085727992E0,-3.375244141E-2,-4.719543457E-2,-2.075195312E-2
6.090702357E0,-3.054809570E-2,-4.293823242E-2,-2.500915527E-2
6.095676722E0,-3.054809570E-2,-4.507446289E-2,-2.714538574E-2
6.100651088E0,-3.161621094E-2,-4.933166504E-2,-2.821350098E-2
6.105655971E0,-3.268432617E-2,-5.358886719E-2,-3.033447266E-2
6.110630336E0,-3.480529785E-2,-5.465698242E-2,-2.821350098E-2
6.115604701E0,-3.375244141E-2,-5.465698242E-2,-2.928161621E-2
6.120579066E0,-3.054809570E-2,-5.572509766E-2,-2.821350098E-2
6.125553431E0,-2.842712402E-2,-5.358886719E-2,-2.714538574E-2
6.130558314E0,-2.629089355E-2,-5.465698242E-2,-2.395629883E-2
6.135532680E0,-2.415466309E-2,-5.572509766E-2,-2.288818359E-2
6.140507045E0,-2.096557617E-2,-5.786132812E-2,-2.182006836E-2
6.145481410E0,-2.096557617E-2,-6.211853027E-2,-2.182006836E-2
6.150486293E0,-2.310180664E-2,-6.530761719E-2,-2.075195312E-2
6.155460658E0,-2.203369141E-2,-6.851196289E-2,-1.968383789E-2
6.160435023E0,-2.415466309E-2,-7.063293457E-2,-2.182006836E-2
6.165409388E0,-2.522277832E-2,-6.851196289E-2,-2.182006836E-2
6.170383754E0,-2.310180664E-2,-6.530761719E-2,-2.395629883E-2
6.175388637E0,-2.522277832E-2,-5.786132812E-2,-2.500915527E-2
6.180363002E0,-2.629089355E-2,-5.146789551E-2,-2.395629883E-2
6.185337367E0,-2.629089355E-2,-4.507446289E-2,-2.288818359E-2
6.190311732E0,-2.415466309E-2,-3.547668457E-2,-2.288818359E-2
6.195316615E0,-2.203369141E-2,-2.589416504E-2,-2.288818359E-2
6.200290980E0,-1.670837402E-2,-1.843261719E-2,-2.182006836E-2
6.205265346E0,-1.243591309E-2,-1.205444336E-2,-2.182006836E-2
6.210239711E0,-9.246826172E-3,-9.918212891E-3,-2.288818359E-2
6.215214076E0,-7.110595703E-3,-9.918212891E-3,-2.288818359E-2
6.220218959E0,-7.110595703E-3,-1.631164551E-2,-2.288818359E-2
6.225193324E0,-7.110595703E-3,-2.270507812E-2,-2.075195312E-2
6.230167689E0,-9.246826172E-3,-3.015136719E-2,-2.288818359E-2
6.235142055E0,-1.243591309E-2,-3.868103027E-2,-2.182006836E-2
6.240146937E0,-1.138305664E-2,-4.614257812E-2,-2.075195312E-2
6.245121303E0,-1.138305664E-2,-5.146789551E-2,-1.968383789E-2
6.250095668E0,-1.031494141E-2,-5.465698242E-2,-1.968383789E-2
6.255070033E0,-4.989624023E-3,-5.572509766E-2,-1.861572266E-2
6.260044398E0,-7.110595703E-3,-5.358886719E-2,-1.756286621E-2
6.265049281E0,-3.921508789E-3,-4.826354980E-2,-1.649475098E-2
6.270023646E0,-2.853393555E-3,-4.081726074E-2,-1.542663574E-2
6.274998012E0,-1.785278320E-3,-3.121948242E-2,-1.435852051E-2
6.279972377E0,-2.853393555E-3,-2.377319336E-2,-1.223754883E-2
6.284977260E0,-3.921508789E-3,-1.737976074E-2,-1.223754883E-2
6.289951625E0,-4.989624023E-3,-1.310729980E-2,-1.116943359E-2
6.294925990E0,-7.110595703E-3,-1.205444336E-2,-1.116943359E-2
6.299900355E0,-7.110595703E-3,-9.918212891E-3,-1.116943359E-2
6.304874721E0,-4.989624023E-3,-6.729125977E-3,-1.116943359E-2
6.309879603E0,-3.921508789E-3,-2.456665039E-3,-1.116943359E-2
6.314853969E0,-1.785278320E-3,7.324218750E-4,-1.223754883E-2
6.319828334E0,3.356933594E-4,-3.356933594E-4,-1.542663574E-2
6.324802699E0,1.403808594E-3,7.324218750E-4,-1.542663574E-2
6.329807582E0,3.540039062E-3,7.324218750E-4,-1.649475098E-2
6.334781947E0,6.729125977E-3,-3.356933594E-4,-1.756286621E-2
6.339756312E0,8.865356445E-3,-2.456665039E-3,-1.542663574E-2
6.344730678E0,9.933471680E-3,-6.729125977E-3,-1.542663574E-2
6.349705043E0,1.100158691E-2,-9.918212891E-3,-1.435852051E-2
6.354709926E0,1.100158691E-2,-1.205444336E-2,-1.329040527E-2
6.359684291E0,1.100158691E-2,-1.631164551E-2,-1.116943359E-2
6.364658656E0,7.797241211E-3,-1.950073242E-2,-9.033203125E-3
6.369633021E0,7.797241211E-3,-2.270507812E-2,-9.033203125E-3
6.374637904E0,5.661010742E-3,-2.696228027E-2,-7.965087891E-3
6.379612269E0,2.471923828E-3,-3.015136719E-2,-5.844116211E-3
6.384586635E0,3.356933594E-4,-2.589416504E-2,-2.639770508E-3
6.389561000E0,-7.171630859E-4,-1.950073242E-2,-1.571655273E-3
6.394535365E0,1.403808594E-3,-1.205444336E-2,-5.187988281E-4
6.399540248E0,4.608154297E-3,-5.661010742E-3,-5.187988281E-4
6.404514613E0,5.661010742E-3,2.868652344E-3,-5.187988281E-4
6.409488978E0,6.729125977E-3,8.193969727E-3,-2.639770508E-3
6.414463344E0,8.865356445E-3,9.262084961E-3,-4.776000977E-3
6.419468226E0,1.205444336E-2,1.033020020E-2,-6.912231445E-3
6.424442592E0,1.205444336E-2,7.125854492E-3,-1.223754883E-2
6.429416957E0,9.933471680E-3,2.868652344E-3,-1.542663574E-2
6.434391322E0,6.729125977E-3,-2.456665039E-3,-1.756286621E-2
6.439365687E0,6.729125977E-3,-4.592895508E-3,-1.861572266E-2
6.444370570E0,9.933471680E-3,-7.781982422E-3,-2.075195312E-2
6.449344935E0,1.205444336E-2,-7.781982422E-3,-2.288818359E-2
6.454319301E0,1.419067383E-2,-8.850097656E-3,-2.395629883E-2
6.459293666E0,1.419067383E-2,-9.918212891E-3,-2.288818359E-2
6.464298549E0,1.419067383E-2,-1.098632812E-2,-2.182006836E-2
6.469272914E0,1.312255859E-2,-9.918212891E-3,-1.861572266E-2
6.474247279E0,1.525878906E-2,-3.524780273E-3,-1.542663574E-2
6.479221644E0,1.844787598E-2,4.989624023E-3,-1.116943359E-2
6.484196010E0,2.165222168E-2,1.565551758E-2,-5.844116211E-3
6.489200892E0,2.165222168E-2,2.523803711E-2,-4.776000977E-3
6.494175258E0,2.377319336E-2,3.056335449E-2,-1.571655273E-3
6.499149623E0,2.484130859E-2,3.375244141E-2,2.685546875E-3
6.504123988E0,2.270507812E-2,3.907775879E-2,4.806518555E-3
6.509098353E0,2.165222168E-2,4.228210449E-2,5.874633789E-3
6.514103236E0,2.058410645E-2,4.228210449E-2,8.010864258E-3
6.519077601E0,1.951599121E-2,3.802490234E-2,8.010864258E-3
6.524051967E0,1.844787598E-2,3.375244141E-2,8.010864258E-3
6.529026332E0,1.525878906E-2,3.056335449E-2,9.078979492E-3
6.534031215E0,1.632690430E-2,2.630615234E-2,6.942749023E-3
6.539005580E0,1.525878906E-2,2.523803711E-2,8.010864258E-3
6.543979945E0,1.419067383E-2,2.310180664E-2,8.010864258E-3
6.548954310E0,1.525878906E-2,2.416992188E-2,6.942749023E-3
6.553928676E0,1.632690430E-2,2.523803711E-2,8.010864258E-3
6.558933558E0,1.632690430E-2,2.842712402E-2,6.942749023E-3
6.563907924E0,1.525878906E-2,3.056335449E-2,8.010864258E-3
6.568882289E0,1.419067383E-2,3.588867188E-2,9.078979492E-3
6.573856654E0,1.312255859E-2,3.907775879E-2,1.014709473E-2
6.578861537E0,1.419067383E-2,3.907775879E-2,1.119995117E-2
6.583835902E0,1.205444336E-2,3.907775879E-2,1.014709473E-2
6.588810267E0,1.312255859E-2,3.695678711E-2,1.119995117E-2
6.593784633E0,1.100158691E-2,3.588867188E-2,1.014709473E-2
6.598758998E0,8.865356445E-3,3.163146973E-2,1.226806641E-2
6.603763881E0,8.865356445E-3,2.737426758E-2,1.226806641E-2
6.608738246E0,7.797241211E-3,2.310180664E-2,1.226806641E-2
6.613712611E0,7.797241211E-3,2.416992188E-2,1.333618164E-2
6.618686976E0,1.100158691E-2,2.949523926E-2,1.547241211E-2
6.623691859E0,1.737976074E-2,3.588867188E-2,1.333618164E-2
6.628666224E0,2.270507812E-2,3.907775879E-2,1.333618164E-2
6.633640590E0,2.590942383E-2,4.441833496E-2,1.226806641E-2
6.638614955E0,2.590942383E-2,4.867553711E-2,1.119995117E-2
6.643589320E0,2.270507812E-2,4.974365234E-2,1.014709473E-2
6.648594203E0,2.058410645E-2,4.441833496E-2,9.078979492E-3
6.653568568E0,1.844787598E-2,3.907775879E-2,9.078979492E-3
6.658542933E0,1.525878906E-2,3.163146973E-2,8.010864258E-3
6.663517299E0,1.419067383E-2,2.842712402E-2,8.010864258E-3
6.668522181E0,1.419067383E-2,2.523803711E-2,8.010864258E-3
6.673496547E0,1.205444336E-2,2.416992188E-2,6.942749023E-3
6.678470912E0,1.100158691E-2,2.310180664E-2,6.942749023E-3
6.683445277E0,1.100158691E-2,2.523803711E-2,4.806518555E-3
6.688419642E0,1.100158691E-2,2.737426758E-2,4.806518555E-3
6.693424525E0,1.205444336E-2,2.842712402E-2,3.753662109E-3
6.698398890E0,1.312255859E-2,3.269958496E-2,2.685546875E-3
6.703373256E0,1.525878906E-2,3.375244141E-2,5.493164062E-4
6.708347621E0,1.525878906E-2,3.375244141E-2,1.617431641E-3
6.713352504E0,1.844787598E-2,3.375244141E-2,5.493164062E-4
6.718326869E0,1.632690430E-2,3.056335449E-2,2.685546875E-3
6.723301234E0,1.737976074E-2,2.842712402E-2,2.685546875E-3
6.728275599E0,1.737976074E-2,2.523803711E-2,2.685546875E-3
6.733249965E0,1.844787598E-2,2.203369141E-2,4.806518555E-3
6.738254847E0,1.951599121E-2,1.777648926E-2,8.010864258E-3
6.743229213E0,1.737976074E-2,1.670837402E-2,1.014709473E-2
6.748203578E0,1.951599121E-2,1.991271973E-2,1.226806641E-2
6.753177943E0,2.165222168E-2,2.203369141E-2,1.333618164E-2
6.758182826E0,1.951599121E-2,2.203369141E-2,1.440429688E-2
6.763157191E0,1.632690430E-2,2.098083496E-2,1.226806641E-2
6.768131556E0,1.419067383E-2,2.416992188E-2,1.226806641E-2
6.773105922E0,1.205444336E-2,2.737426758E-2,6.942749023E-3
6.778080287E0,1.205444336E-2,3.056335449E-2,2.685546875E-3
6.783085170E0,9.933471680E-3,3.269958496E-2,-5.187988281E-4
6.788059535E0,9.933471680E-3,3.375244141E-2,-6.912231445E-3
6.793033900E0,1.205444336E-2,3.269958496E-2,-1.010131836E-2
6.798008265E0,1.205444336E-2,3.269958496E-2,-1.329040527E-2
6.803013148E0,1.205444336E-2,3.056335449E-2,-1.542663574E-2
6.807987513E0,1.312255859E-2,2.416992188E-2,-1.649475098E-2
6.812961879E0,1.525878906E-2,1.991271973E-2,-1.435852051E-2
6.817936244E0,1.951599121E-2,1.884460449E-2,-1.223754883E-2
6.822910609E0,2.377319336E-2,1.991271973E-2,-1.116943359E-2
6.827915492E0,2.590942383E-2,2.310180664E-2,-1.010131836E-2
6.832889857E0,2.484130859E-2,1.670837402E-2,-1.010131836E-2
6.837864222E0,2.270507812E-2,1.033020020E-2,-7.965087891E-3
6.842838588E0,1.951599121E-2,8.193969727E-3,-7.965087891E-3
6.847843471E0,1.419067383E-2,4.989624023E-3,-6.912231445E-3
6.852817836E0,1.100158691E-2,7.324218750E-4,-7.965087891E-3
6.857792201E0,7.797241211E-3,-6.729125977E-3,-7.965087891E-3
6.862766566E0,6.729125977E-3,-1.205444336E-2,-7.965087891E-3
6.867740931E0,3.540039062E-3,-1.524353027E-2,-9.033203125E-3
6.872745814E0,4.608154297E-3,-1.310729980E-2,-1.116943359E-2
6.877720180E0,9.933471680E-3,-1.205444336E-2,-1.223754883E-2
6.882694545E0,1.205444336E-2,-9.918212891E-3,-1.223754883E-2
6.887668910E0,1.737976074E-2,-1.098632812E-2,-1.435852051E-2
6.892673793E0,1.737976074E-2,-8.850097656E-3,-1.542663574E-2
6.897648158E0,1.737976074E-2,-6.729125977E-3,-1.756286621E-2
6.902622523E0,1.737976074E-2,-5.661010742E-3,-1.756286621E-2
6.907596888E0,1.737976074E-2,-8.850097656E-3,-1.968383789E-2
6.912571254E0,1.632690430E-2,-1.098632812E-2,-1.968383789E-2
6.917576137E0,1.525878906E-2,-1.205444336E-2,-1.861572266E-2
6.922550502E0,1.525878906E-2,-1.098632812E-2,-1.968383789E-2
6.927524867E0,1.419067383E-2,-1.098632812E-2,-1.756286621E-2
6.932499232E0,1.632690430E-2,-1.098632812E-2,-1.649475098E-2
6.937504115E0,1.632690430E-2,-9.918212891E-3,-1.329040527E-2
6.942478480E0,1.525878906E-2,-9.918212891E-3,-1.116943359E-2
6.947452846E0,1.312255859E-2,-1.205444336E-2,-9.033203125E-3
6.952427211E0,8.865356445E-3,-1.205444336E-2,-9.033203125E-3
6.957401576E0,5.661010742E-3,-1.098632812E-2,-6.912231445E-3
6.962406459E0,4.608154297E-3,-8.850097656E-3,-6.912231445E-3
6.967380824E0,2.471923828E-3,-4.592895508E-3,-4.776000977E-3
6.972355189E0,2.471923828E-3,-2.456665039E-3,-1.571655273E-3
6.977329555E0,3.356933594E-4,-3.524780273E-3,-5.187988281E-4
6.982334437E0,3.356933594E-4,-3.356933594E-4,1.617431641E-3
6.987308803E0,1.403808594E-3,3.936767578E-3,2.685546875E-3
6.992283168E0,4.608154297E-3,7.125854492E-3,6.942749023E-3
6.997257533E0,7.797241211E-3,9.262084961E-3,9.078979492E-3
7.002231898E0,9.933471680E-3,1.138305664E-2,1.014709473E-2
7.007236781E0,9.933471680E-3,1.670837402E-2,1.014709473E-2
7.012211146E0,9.933471680E-3,2.098083496E-2,8.010864258E-3
7.017185512E0,9.933471680E-3,2.737426758E-2,6.942749023E-3
7.022159877E0,1.100158691E-2,3.163146973E-2,6.942749023E-3
7.027164760E0,8.865356445E-3,3.375244141E-2,2.685546875E-3
7.032139125E0,7.797241211E-3,3.375244141E-2,1.617431641E-3
7.037113490E0,5.661010742E-3,3.269958496E-2,-1.571655273E-3
7.042087855E0,3.356933594E-4,3.375244141E-2,-5.187988281E-4
7.047062221E0,-1.785278320E-3,3.269958496E-2,-2.639770508E-3
7.052067103E0,-3.921508789E-3,3.163146973E-2,-1.571655273E-3
7.057041469E0,-7.110595703E-3,2.842712402E-2,-1.571655273E-3
7.062015834E0,-7.110595703E-3,2.737426758E-2,-5.187988281E-4
7.066990199E0,-6.057739258E-3,2.523803711E-2,1.617431641E-3
7.071995082E0,-4.989624023E-3,2.310180664E-2,4.806518555E-3
7.076969447E0,-2.853393555E-3,1.884460449E-2,4.806518555E-3
7.081943812E0,-7.171630859E-4,1.351928711E-2,4.806518555E-3
7.086918178E0,1.403808594E-3,1.458740234E-2,6.942749023E-3
7.091892543E0,1.403808594E-3,1.458740234E-2,4.806518555E-3
7.096897426E0,4.608154297E-3,1.565551758E-2,1.617431641E-3
7.101871791E0,5.661010742E-3,2.203369141E-2,2.685546875E-3
7.106846156E0,4.608154297E-3,3.056335449E-2,4.806518555E-3
7.111820521E0,5.661010742E-3,3.802490234E-2,6.942749023E-3
7.116825404E0,5.661010742E-3,4.547119141E-2,9.078979492E-3
7.121799769E0,6.729125977E-3,5.400085449E-2,1.014709473E-2
7.126774135E0,4.608154297E-3,6.146240234E-2,1.226806641E-2
7.131748500E0,2.471923828E-3,6.571960449E-2,1.119995117E-2
7.136722865E0,-7.171630859E-4,6.784057617E-2,1.119995117E-2
7.141727748E0,-3.921508789E-3,6.571960449E-2,1.119995117E-2
7.146702113E0,-7.110595703E-3,6.039428711E-2,1.119995117E-2
7.151676478E0,-8.178710938E-3,5.506896973E-2,1.226806641E-2
7.156650844E0,-1.031494141E-2,4.974365234E-2,1.333618164E-2
7.161655726E0,-8.178710938E-3,4.547119141E-2,1.333618164E-2
7.166630092E0,-6.057739258E-3,4.228210449E-2,1.547241211E-2
7.171604457E0,-3.921508789E-3,3.907775879E-2,1.547241211E-2
7.176578822E0,-2.853393555E-3,3.695678711E-2,1.652526855E-2
7.181553187E0,-3.921508789E-3,3.269958496E-2,1.759338379E-2
7.186558070E0,-2.853393555E-3,3.056335449E-2,1.759338379E-2
7.191532435E0,-2.853393555E-3,2.842712402E-2,1.547241211E-2
7.196506801E0,-1.785278320E-3,2.842712402E-2,1.226806641E-2
7.201481166E0,-3.921508789E-3,2.737426758E-2,1.014709473E-2
7.206486049E0,-4.989624023E-3,3.056335449E-2,1.014709473E-2
7.211460414E0,-6.057739258E-3,3.056335449E-2,6.942749023E-3
7.216434779E0,-4.989624023E-3,2.949523926E-2,3.753662109E-3
7.221409144E0,-6.057739258E-3,2.630615234E-2,5.493164062E-4
7.226383510E0,-7.110595703E-3,2.098083496E-2,-5.187988281E-4
7.231388392E0,-4.989624023E-3,1.670837402E-2,5.493164062E-4
7.236362758E0,-4.989624023E-3,1.033020020E-2,-5.187988281E-4
7.241337123E0,-3.921508789E-3,8.193969727E-3,-5.187988281E-4
7.246311488E0,-4.989624023E-3,8.193969727E-3,1.617431641E-3
7.251316371E0,-4.989624023E-3,6.057739258E-3,1.617431641E-3
7.256290736E0,-4.989624023E-3,1.800537109E-3,1.617431641E-3
7.261265101E0,-3.921508789E-3,-3.356933594E-4,1.617431641E-3
7.266239467E0,-3.921508789E-3,-3.524780273E-3,-5.187988281E-4
7.271213832E0,-4.989624023E-3,-7.781982422E-3,5.493164062E-4
7.276218715E0,-7.110595703E-3,-1.417541504E-2,-1.571655273E-3
7.281193080E0,-9.246826172E-3,-2.056884766E-2,-3.707885742E-3
7.286167445E0,-9.246826172E-3,-2.270507812E-2,-3.707885742E-3
7.291141810E0,-1.031494141E-2,-2.589416504E-2,-4.776000977E-3
7.296116176E0,-1.031494141E-2,-3.015136719E-2,-4.776000977E-3
7.301121058E0,-9.246826172E-3,-3.335571289E-2,-6.912231445E-3
7.306095424E0,-9.246826172E-3,-3.547668457E-2,-1.010131836E-2
7.311069789E0,-1.031494141E-2,-3.654479980E-2,-1.223754883E-2
7.316044154E0,-9.246826172E-3,-3.974914551E-2,-1.435852051E-2
7.321049037E0,-9.246826172E-3,-4.187011719E-2,-1.649475098E-2
7.326023402E0,-1.031494141E-2,-4.507446289E-2,-1.861572266E-2
7.330997767E0,-1.031494141E-2,-4.614257812E-2,-1.861572266E-2
7.335972133E0,-1.031494141E-2,-4.719543457E-2,-1.861572266E-2
7.340946498E0,-1.243591309E-2,-4.933166504E-2,-1.968383789E-2
7.345951381E0,-1.243591309E-2,-5.358886719E-2,-1.756286621E-2
7.350925746E0,-1.138305664E-2,-5.679321289E-2,-1.542663574E-2
7.355900111E0,-1.031494141E-2,-5.891418457E-2,-1.542663574E-2
7.360874476E0,-9.246826172E-3,-5.679321289E-2,-1.435852051E-2
7.365879359E0,-9.246826172E-3,-5.572509766E-2,-1.435852051E-2
7.370853724E0,-1.031494141E-2,-5.465698242E-2,-1.116943359E-2
7.375828090E0,-8.178710938E-3,-5.358886719E-2,-1.329040527E-2
7.380802455E0,-1.031494141E-2,-5.358886719E-2,-1.542663574E-2
7.385776820E0,-8.178710938E-3,-5.572509766E-2,-1.542663574E-2
7.390781703E0,-9.246826172E-3,-5.786132812E-2,-1.756286621E-2
7.395756068E0,-1.031494141E-2,-5.891418457E-2,-2.182006836E-2
7.400730433E0,-1.031494141E-2,-6.105041504E-2,-2.288818359E-2
7.405704799E0,-1.031494141E-2,-6.105041504E-2,-2.714538574E-2
7.410709681E0,-1.138305664E-2,-5.998229980E-2,-2.714538574E-2
7.415684047E0,-9.246826172E-3,-5.786132812E-2,-2.714538574E-2
7.420658412E0,-8.178710938E-3,-5.252075195E-2,-2.714538574E-2
7.425632777E0,-4.989624023E-3,-4.933166504E-2,-2.714538574E-2
7.430607142E0,-6.057739258E-3,-4.933166504E-2,-2.607727051E-2
7.435612025E0,-4.989624023E-3,-5.039978027E-2,-2.395629883E-2
7.440586390E0,-1.785278320E-3,-4.826354980E-2,-2.075195312E-2
7.445560756E0,-7.171630859E-4,-4.400634766E-2,-1.968383789E-2
7.450535121E0,-7.171630859E-4,-4.400634766E-2,-1.649475098E-2
7.455540004E0,-4.989624023E-3,-4.187011719E-2,-1.435852051E-2
7.460514369E0,-7.110595703E-3,-4.081726074E-2,-1.329040527E-2
7.465488734E0,-1.031494141E-2,-3.547668457E-2,-1.116943359E-2
7.470463099E0,-1.138305664E-2,-3.228759766E-2,-1.116943359E-2
7.475437465E0,-1.031494141E-2,-2.909851074E-2,-1.010131836E-2
7.480442347E0,-9.246826172E-3,-2.803039551E-2,-6.912231445E-3
7.485416713E0,-9.246826172E-3,-2.482604980E-2,-7.965087891E-3
7.490391078E0,-1.138305664E-2,-2.270507812E-2,-4.776000977E-3
7.495365443E0,-8.178710938E-3,-1.843261719E-2,-2.639770508E-3
7.500370326E0,-7.110595703E-3,-1.524353027E-2,-1.571655273E-3
7.505344691E0,-4.989624023E-3,-1.524353027E-2,-5.187988281E-4
7.510319056E0,-4.989624023E-3,-1.310729980E-2,5.493164062E-4
7.515293422E0,-4.989624023E-3,-1.310729980E-2,1.617431641E-3
7.520267787E0,-4.989624023E-3,-1.205444336E-2,3.753662109E-3
7.525272670E0,-3.921508789E-3,-9.918212891E-3,3.753662109E-3
7.530247035E0,-6.057739258E-3,-5.661010742E-3,4.806518555E-3
7.535221400E0,-6.057739258E-3,-4.592895508E-3,3.753662109E-3
7.540195765E0,-8.178710938E-3,-3.524780273E-3,4.806518555E-3
7.545200648E0,-9.246826172E-3,-3.524780273E-3,1.617431641E-3
7.550175013E0,-1.138305664E-2,-4.592895508E-3,5.493164062E-4
7.555149379E0,-1.457214355E-2,-8.850097656E-3,-1.571655273E-3
7.560123744E0,-1.776123047E-2,-1.310729980E-2,-2.639770508E-3
7.565098109E0,-1.989746094E-2,-1.843261719E-2,-2.639770508E-3
7.570102992E0,-1.882934570E-2,-2.163696289E-2,-2.639770508E-3
7.575077357E0,-1.670837402E-2,-2.270507812E-2,-2.639770508E-3
7.580051722E0,-1.243591309E-2,-2.163696289E-2,-2.639770508E-3
7.585026088E0,-7.110595703E-3,-1.843261719E-2,-1.571655273E-3
7.590030971E0,-2.853393555E-3,-1.417541504E-2,5.493164062E-4
7.595005336E0,-7.171630859E-4,-7.781982422E-3,5.493164062E-4
7.599979701E0,1.403808594E-3,-2.456665039E-3,5.493164062E-4
7.604954066E0,3.540039062E-3,3.936767578E-3,5.493164062E-4
7.609928431E0,5.661010742E-3,1.033020020E-2,2.685546875E-3
7.614933314E0,4.608154297E-3,1.458740234E-2,5.493164062E-4
7.619907680E0,2.471923828E-3,1.670837402E-2,2.685546875E-3
7.624882045E0,-1.785278320E-3,1.351928711E-2,5.493164062E-4
7.629856410E0,-4.989624023E-3,1.033020020E-2,5.493164062E-4
7.634861293E0,-6.057739258E-3,3.936767578E-3,-5.187988281E-4
7.639835658E0,-7.110595703E-3,-2.456665039E-3,-5.187988281E-4
7.644810023E0,-7.110595703E-3,-4.592895508E-3,-5.187988281E-4
7.649784388E0,-7.110595703E-3,-8.850097656E-3,-5.187988281E-4
7.654758754E0,-8.178710938E-3,-9.918212891E-3,5.493164062E-4
7.659763637E0,-6.057739258E-3,-1.205444336E-2,1.617431641E-3
7.664738002E0,-3.921508789E-3,-1.205444336E-2,2.685546875E-3
7.669712367E0,-1.785278320E-3,-8.850097656E-3,2.685546875E-3
7.674686732E0,1.403808594E-3,-3.524780273E-3,2.685546875E-3
7.679691615E0,-7.171630859E-4,1.800537109E-3,3.753662109E-3
7.684665980E0,2.471923828E-3,6.057739258E-3,5.874633789E-3
7.689640346E0,1.403808594E-3,9.262084961E-3,5.874633789E-3
7.694614711E0,3.356933594E-4,9.262084961E-3,6.942749023E-3
7.699589076E0,-1.785278320E-3,9.262084961E-3,4.806518555E-3
7.704593959E0,-6.057739258E-3,4.989624023E-3,3.753662109E-3
7.709568324E0,-7.110595703E-3,-1.388549805E-3,5.493164062E-4
7.714542689E0,-8.178710938E-3,-3.524780273E-3,5.493164062E-4
7.719517055E0,-6.057739258E-3,-1.388549805E-3,-1.571655273E-3
7.724521937E0,-3.921508789E-3,2.868652344E-3,-3.707885742E-3
7.729496303E0,-2.853393555E-3,4.989624023E-3,-2.639770508E-3
7.734470668E0,-7.171630859E-4,4.989624023E-3,-2.639770508E-3
7.739445033E0,-7.171630859E-4,2.868652344E-3,-1.571655273E-3
7.744419398E0,3.356933594E-4,-3.356933594E-4,-2.639770508E-3
7.749424281E0,3.356933594E-4,-3.356933594E-4,-1.571655273E-3
7.754398646E0,1.403808594E-3,7.324218750E-4,-2.639770508E-3
7.759373012E0,2.471923828E-3,-3.356933594E-4,-2.639770508E-3
7.764347377E0,1.403808594E-3,-3.524780273E-3,-2.639770508E-3
7.769352260E0,3.356933594E-4,-1.098632812E-2,-3.707885742E-3
7.774326625E0,-2.853393555E-3,-1.631164551E-2,-4.776000977E-3
7.779300990E0,-3.921508789E-3,-1.950073242E-2,-6.912231445E-3
7.784275355E0,-4.989624023E-3,-1.950073242E-2,-6.912231445E-3
7.789249721E0,-4.989624023E-3,-1.417541504E-2,-6.912231445E-3
7.794254603E0,-3.921508789E-3,-6.729125977E-3,-6.912231445E-3
7.799228969E0,-1.785278320E-3,7.324218750E-4,-5.844116211E-3
7.804203334E0,-7.171630859E-4,7.125854492E-3,-3.707885742E-3
7.809177699E0,3.356933594E-4,1.245117188E-2,-1.571655273E-3
7.814182582E0,1.403808594E-3,1.884460449E-2,-5.187988281E-4
7.819156947E0,4.608154297E-3,2.203369141E-2,-5.187988281E-4
7.824131312E0,2.471923828E-3,2.416992188E-2,1.617431641E-3
7.829105678E0,3.356933594E-4,1.991271973E-2,2.685546875E-3
7.834080043E0,-1.785278320E-3,1.565551758E-2,3.753662109E-3
7.839084926E0,-3.921508789E-3,1.351928711E-2,3.753662109E-3
7.844059291E0,-2.853393555E-3,1.245117188E-2,4.806518555E-3
7.849033656E0,-2.853393555E-3,8.193969727E-3,2.685546875E-3
7.854008021E0,-1.785278320E-3,4.989624023E-3,1.617431641E-3
7.859012904E0,-1.785278320E-3,1.800537109E-3,1.617431641E-3
7.863987269E0,-1.785278320E-3,7.324218750E-4,5.493164062E-4
7.868961635E0,-7.171630859E-4,-1.388549805E-3,1.617431641E-3
7.873936000E0,3.356933594E-4,-4.592895508E-3,5.493164062E-4
7.878910365E0,1.403808594E-3,-1.388549805E-3,-2.639770508E-3
7.883915248E0,2.471923828E-3,1.800537109E-3,-1.571655273E-3
7.888889613E0,3.540039062E-3,4.989624023E-3,-3.707885742E-3
7.893863978E0,2.471923828E-3,7.125854492E-3,-4.776000977E-3
7.898838344E0,1.403808594E-3,1.138305664E-2,-6.912231445E-3
7.903843226E0,3.356933594E-4,1.245117188E-2,-9.033203125E-3
7.908817592E0,-2.853393555E-3,1.138305664E-2,-7.965087891E-3
7.913791957E0,-3.921508789E-3,8.193969727E-3,-7.965087891E-3
7.918766322E0,-3.921508789E-3,6.057739258E-3,-5.844116211E-3
7.923740687E0,-3.921508789E-3,4.989624023E-3,-5.844116211E-3
7.928745570E0,-2.853393555E-3,4.989624023E-3,-4.776000977E-3
7.933719935E0,-7.171630859E-4,3.936767578E-3,-1.571655273E-3
7.938694301E0,2.471923828E-3,4.989624023E-3,5.493164062E-4
7.943668666E0,2.471923828E-3,7.125854492E-3,1.617431641E-3
7.948673549E0,5.661010742E-3,1.033020020E-2,2.685546875E-3
7.953647914E0,7.797241211E-3,1.138305664E-2,2.685546875E-3
7.958622279E0,7.797241211E-3,1.245117188E-2,4.806518555E-3
7.963596644E0,5.661010742E-3,1.138305664E-2,4.806518555E-3
7.968571010E0,5.661010742E-3,1.033020020E-2,5.874633789E-3
7.973575892E0,4.608154297E-3,1.033020020E-2,3.753662109E-3
7.978550258E0,3.540039062E-3,9.262084961E-3,1.617431641E-3
7.983524623E0,3.356933594E-4,4.989624023E-3,1.617431641E-3
7.988498988E0,-7.171630859E-4,7.324218750E-4,-5.187988281E-4
7.993503871E0,-7.171630859E-4,-1.388549805E-3,-5.187988281E-4
7.998478236E0,3.356933594E-4,1.800537109E-3,5.493164062E-4
8.003452601E0,1.403808594E-3,4.989624023E-3,-2.639770508E-3
8.008426967E0,1.403808594E-3,8.193969727E-3,-1.571655273E-3
8.013401332E0,-7.171630859E-4,6.057739258E-3,-5.187988281E-4
8.018406215E0,-3.921508789E-3,1.800537109E-3,5.493164062E-4
8.023380580E0,-3.921508789E-3,-3.356933594E-4,2.685546875E-3
8.028354945E0,-2.853393555E-3,-2.456665039E-3,2.685546875E-3
8.033329310E0,3.356933594E-4,-4.592895508E-3,3.753662109E-3
8.038334193E0,1.403808594E-3,-5.661010742E-3,3.753662109E-3
8.043308558E0,2.471923828E-3,-5.661010742E-3,2.685546875E-3
8.048282924E0,2.471923828E-3,-4.592895508E-3,1.617431641E-3
8.053257289E0,3.356933594E-4,-3.524780273E-3,5.493164062E-4
8.058231654E0,3.356933594E-4,-4.592895508E-3,-2.639770508E-3
8.063236537E0,1.403808594E-3,-2.456665039E-3,-5.187988281E-4
8.068210902E0,2.471923828E-3,7.324218750E-4,-3.707885742E-3
8.073185267E0,2.471923828E-3,3.936767578E-3,-5.844116211E-3
8.078159633E0,2.471923828E-3,6.057739258E-3,-6.912231445E-3
8.083164515E0,3.540039062E-3,4.989624023E-3,-7.965087891E-3
8.088138881E0,1.403808594E-3,2.868652344E-3,-6.912231445E-3
8.093113246E0,-7.171630859E-4,-3.356933594E-4,-9.033203125E-3
8.098087611E0,-3.921508789E-3,-4.592895508E-3,-6.912231445E-3
8.103061976E0,-3.921508789E-3,-3.524780273E-3,-4.776000977E-3
8.108066859E0,3.356933594E-4,-1.388549805E-3,-3.707885742E-3
8.113041224E0,3.356933594E-4,4.989624023E-3,-2.639770508E-3
8.118015590E0,2.471923828E-3,7.125854492E-3,-5.187988281E-4
8.122989955E0,2.471923828E-3,8.193969727E-3,3.753662109E-3
8.127994838E0,2.471923828E-3,7.125854492E-3,5.874633789E-3
8.132969203E0,3.540039062E-3,6.057739258E-3,6.942749023E-3
8.137943568E0,2.471923828E-3,2.868652344E-3,8.010864258E-3
8.142917933E0,1.403808594E-3,1.800537109E-3,6.942749023E-3
8.147892299E0,1.403808594E-3,-3.356933594E-4,8.010864258E-3
8.152897181E0,3.356933594E-4,-1.388549805E-3,8.010864258E-3
8.157871547E0,1.403808594E-3,7.324218750E-4,5.874633789E-3
8.162845912E0,3.540039062E-3,1.800537109E-3,4.806518555E-3
8.167820277E0,3.540039062E-3,4.989624023E-3,2.685546875E-3
8.172825160E0,5.661010742E-3,7.125854492E-3,2.685546875E-3
8.177799525E0,3.540039062E-3,6.057739258E-3,2.685546875E-3
8.182773890E0,4.608154297E-3,8.193969727E-3,1.617431641E-3
8.187748256E0,5.661010742E-3,6.057739258E-3,2.685546875E-3
8.192722621E0,4.608154297E-3,1.800537109E-3,5.493164062E-4
8.197727504E0,2.471923828E-3,-1.388549805E-3,5.493164062E-4
8.202701869E0,3.356933594E-4,-4.592895508E-3,-5.187988281E-4
8.207676234E0,-7.171630859E-4,-6.729125977E-3,-5.187988281E-4
8.212650599E0,-7.171630859E-4,-7.781982422E-3,5.493164062E-4
8.217655482E0,3.356933594E-4,-5.661010742E-3,-5.187988281E-4
8.222629847E0,2.471923828E-3,-4.592895508E-3,-5.187988281E-4
8.227604213E0,1.403808594E-3,-2.456665039E-3,-5.187988281E-4
8.232578578E0,2.471923828E-3,-1.388549805E-3,-5.187988281E-4
8.237552943E0,1.403808594E-3,-1.388549805E-3,5.493164062E-4
8.242557826E0,3.356933594E-4,-3.356933594E-4,-5.187988281E-4
8.247532191E0,2.471923828E-3,1.800537109E-3,5.493164062E-4
8.252506556E0,2.471923828E-3,7.324218750E-4,-5.187988281E-4
8.257480922E0,3.356933594E-4,-3.356933594E-4,-5.187988281E-4
8.262485805E0,1.403808594E-3,-3.356933594E-4,-5.187988281E-4
8.267460170E0,1.403808594E-3,-3.356933594E-4,-1.571655273E-3
8.272434535E0,4.608154297E-3,7.324218750E-4,-1.571655273E-3
8.277408900E0,3.540039062E-3,1.800537109E-3,-1.571655273E-3
8.282383265E0,5.661010742E-3,4.989624023E-3,-5.187988281E-4
8.287388148E0,5.661010742E-3,7.125854492E-3,5.493164062E-4
8.292362513E0,6.729125977E-3,6.057739258E-3,-5.187988281E-4
8.297336879E0,6.729125977E-3,2.868652344E-3,-5.187988281E-4
8.302311244E0,3.540039062E-3,2.868652344E-3,1.617431641E-3
8.307316127E0,3.356933594E-4,-1.388549805E-3,1.617431641E-3
8.312290492E0,-7.171630859E-4,-3.524780273E-3,-5.187988281E-4
8.317264857E0,-1.785278320E-3,-4.592895508E-3,-5.187988281E-4
8.322239222E0,-7.171630859E-4,-6.729125977E-3,-1.571655273E-3
8.327213588E0,-2.853393555E-3,-7.781982422E-3,-1.571655273E-3
8.332218471E0,-1.785278320E-3,-8.850097656E-3,-1.571655273E-3
8.337192836E0,-2.853393555E-3,-1.098632812E-2,-2.639770508E-3
8.342167201E0,-7.171630859E-4,-7.781982422E-3,-3.707885742E-3
8.347141566E0,3.356933594E-4,-4.592895508E-3,-5.844116211E-3
8.352146449E0,2.471923828E-3,-3.356933594E-4,-5.844116211E-3
8.357120814E0,5.661010742E-3,7.324218750E-4,-6.912231445E-3
8.362095180E0,6.729125977E-3,4.989624023E-3,-5.844116211E-3
8.367069545E0,9.933471680E-3,9.262084961E-3,-5.844116211E-3
8.372043910E0,1.100158691E-2,1.033020020E-2,-6.912231445E-3
8.377048793E0,1.100158691E-2,1.245117188E-2,-3.707885742E-3
8.382023158E0,1.312255859E-2,1.670837402E-2,-2.639770508E-3
8.386997523E0,1.312255859E-2,1.670837402E-2,-5.187988281E-4
8.391971888E0,1.205444336E-2,1.458740234E-2,-1.571655273E-3
8.396946254E0,6.729125977E-3,1.245117188E-2,5.493164062E-4
8.401951137E0,4.608154297E-3,6.057739258E-3,-5.187988281E-4
8.406925502E0,2.471923828E-3,4.989624023E-3,5.493164062E-4
8.411899867E0,1.403808594E-3,-1.388549805E-3,5.493164062E-4
8.416874232E0,1.403808594E-3,-3.524780273E-3,-5.187988281E-4
8.421879115E0,-7.171630859E-4,-3.524780273E-3,-5.187988281E-4
8.426853480E0,3.356933594E-4,7.324218750E-4,5.493164062E-4
8.431827846E0,3.540039062E-3,2.868652344E-3,1.617431641E-3
8.436802211E0,4.608154297E-3,3.936767578E-3,1.617431641E-3
8.441776576E0,6.729125977E-3,7.125854492E-3,5.493164062E-4
8.446781459E0,8.865356445E-3,7.125854492E-3,2.685546875E-3
8.451755824E0,8.865356445E-3,7.125854492E-3,1.617431641E-3
8.456730189E0,7.797241211E-3,8.193969727E-3,1.617431641E-3
8.461704555E0,5.661010742E-3,9.262084961E-3,1.617431641E-3
8.466709437E0,4.608154297E-3,1.033020020E-2,-5.187988281E-4
8.471683803E0,2.471923828E-3,1.138305664E-2,1.617431641E-3
8.476658168E0,1.403808594E-3,1.138305664E-2,2.685546875E-3
8.481632533E0,1.403808594E-3,1.245117188E-2,1.617431641E-3
8.486606898E0,-1.785278320E-3,1.458740234E-2,1.617431641E-3
8.491611781E0,-7.171630859E-4,1.458740234E-2,2.685546875E-3
8.496586146E0,-7.171630859E-4,1.458740234E-2,1.617431641E-3
8.501560512E0,1.403808594E-3,1.138305664E-2,1.617431641E-3
8.506534877E0,3.356933594E-4,8.193969727E-3,5.493164062E-4
8.511539760E0,-1.785278320E-3,6.057739258E-3,-5.187988281E-4
8.516514125E0,-2.853393555E-3,4.989624023E-3,-1.571655273E-3
8.521488490E0,-7.171630859E-4,1.800537109E-3,-3.707885742E-3
8.526462855E0,3.356933594E-4,-3.356933594E-4,-3.707885742E-3
8.531437221E0,3.356933594E-4,-2.456665039E-3,-5.844116211E-3
8.536442103E0,1.403808594E-3,-4.592895508E-3,-5.844116211E-3
8.541416469E0,4.608154297E-3,-4.592895508E-3,-3.707885742E-3
8.546390834E0,6.729125977E-3,-5.661010742E-3,-2.639770508E-3
8.551365199E0,6.729125977E-3,-3.524780273E-3,-2.639770508E-3
8.556370082E0,8.865356445E-3,-1.388549805E-3,5.493164062E-4
8.561344447E0,9.933471680E-3,7.324218750E-4,5.493164062E-4
8.566318812E0,7.797241211E-3,1.800537109E-3,1.617431641E-3
8.571293178E0,5.661010742E-3,4.989624023E-3,2.685546875E-3
8.576267543E0,6.729125977E-3,8.193969727E-3,3.753662109E-3
8.581272426E0,6.729125977E-3,9.262084961E-3,2.685546875E-3
8.586246791E0,6.729125977E-3,8.193969727E-3,2.685546875E-3
8.591221156E0,3.356933594E-4,7.125854492E-3,2.685546875E-3
8.596195521E0,-2.853393555E-3,6.057739258E-3,2.685546875E-3
8.601200404E0,-3.921508789E-3,6.057739258E-3,1.617431641E-3
8.606174769E0,-3.921508789E-3,9.262084961E-3,1.617431641E-3
8.611149135E0,-2.853393555E-3,1.033020020E-2,1.617431641E-3
8.616123500E0,-3.921508789E-3,1.138305664E-2,5.493164062E-4
8.621097865E0,-3.921508789E-3,1.138305664E-2,-2.639770508E-3
8.626102748E0,-2.853393555E-3,8.193969727E-3,5.493164062E-4
8.631077113E0,-7.171630859E-4,4.989624023E-3,5.493164062E-4
8.636051478E0,2.471923828E-3,3.936767578E-3,-1.571655273E-3
8.641025844E0,3.540039062E-3,1.800537109E-3,-2.639770508E-3
8.646030726E0,3.540039062E-3,-1.388549805E-3,-3.707885742E-3
8.651005092E0,1.403808594E-3,-5.661010742E-3,-4.776000977E-3
8.655979457E0,1.403808594E-3,-1.098632812E-2,-6.912231445E-3
8.660953822E0,2.471923828E-3,-1.205444336E-2,-9.033203125E-3
8.665958705E0,3.540039062E-3,-9.918212891E-3,-9.033203125E-3
8.670933070E0,3.540039062E-3,-4.592895508E-3,-5.844116211E-3
8.675907435E0,1.403808594E-3,1.800537109E-3,-5.844116211E-3
8.680881801E0,3.356933594E-4,7.125854492E-3,-1.571655273E-3
8.685856166E0,1.403808594E-3,1.138305664E-2,-1.571655273E-3
8.690861049E0,1.403808594E-3,1.351928711E-2,5.493164062E-4
8.695835414E0,2.471923828E-3,1.777648926E-2,2.685546875E-3
8.700809779E0,1.403808594E-3,1.670837402E-2,5.874633789E-3
8.705784144E0,2.471923828E-3,1.777648926E-2,3.753662109E-3
8.710789027E0,-7.171630859E-4,1.670837402E-2,5.874633789E-3
8.715763392E0,-1.785278320E-3,1.670837402E-2,4.806518555E-3
8.720737758E0,-4.989624023E-3,1.458740234E-2,4.806518555E-3
8.725712123E0,-1.785278320E-3,1.245117188E-2,4.806518555E-3
8.730686488E0,-7.171630859E-4,8.193969727E-3,2.685546875E-3
8.735691371E0,4.608154297E-3,6.057739258E-3,1.617431641E-3
8.740665736E0,3.540039062E-3,6.057739258E-3,-1.571655273E-3
8.745640101E0,5.661010742E-3,6.057739258E-3,-2.639770508E-3
8.750614467E0,5.661010742E-3,6.057739258E-3,-4.776000977E-3
8.755588832E0,6.729125977E-3,4.989624023E-3,-5.844116211E-3
8.760593715E0,4.608154297E-3,7.324218750E-4,-7.965087891E-3
8.765568080E0,1.403808594E-3,-5.661010742E-3,-1.010131836E-2
8.770542445E0,-1.785278320E-3,-1.205444336E-2,-1.010131836E-2
8.775516810E0,-3.921508789E-3,-1.524353027E-2,-1.010131836E-2
8.780521693E0,-6.057739258E-3,-1.737976074E-2,-9.033203125E-3
8.785496058E0,-7.110595703E-3,-1.524353027E-2,-1.010131836E-2
8.790470424E0,-7.110595703E-3,-1.098632812E-2,-7.965087891E-3
8.795444789E0,-4.989624023E-3,-4.592895508E-3,-3.707885742E-3
8.800419154E0,-3.921508789E-3,-1.388549805E-3,-2.639770508E-3
8.805424037E0,-7.171630859E-4,-3.356933594E-4,1.617431641E-3
8.810398402E0,-2.853393555E-3,-3.356933594E-4,4.806518555E-3
8.815372767E0,-2.853393555E-3,-3.356933594E-4,6.942749023E-3
8.820347133E0,-2.853393555E-3,1.800537109E-3,6.942749023E-3
8.825352015E0,-2.853393555E-3,4.989624023E-3,6.942749023E-3
8.830326381E0,-7.171630859E-4,8.193969727E-3,6.942749023E-3
8.835300746E0,3.356933594E-4,1.245117188E-2,3.753662109E-3
8.840275111E0,3.356933594E-4,1.138305664E-2,2.685546875E-3
8.845249476E0,3.356933594E-4,7.125854492E-3,1.617431641E-3
8.850254359E0,-3.921508789E-3,3.936767578E-3,-1.571655273E-3
8.855228724E0,-4.989624023E-3,7.324218750E-4,-2.639770508E-3
8.860203090E0,-8.178710938E-3,-2.456665039E-3,-4.776000977E-3
8.865177455E0,-9.246826172E-3,-2.456665039E-3,-6.912231445E-3
8.870182338E0,-6.057739258E-3,-3.524780273E-3,-6.912231445E-3
8.875156703E0,-1.785278320E-3,-2.456665039E-3,-5.844116211E-3
8.880131068E0,4.608154297E-3,-4.592895508E-3,-4.776000977E-3
8.885105433E0,4.608154297E-3,-6.729125977E-3,-5.844116211E-3
8.890079799E0,3.540039062E-3,-8.850097656E-3,-4.776000977E-3
8.895084681E0,1.403808594E-3,-8.850097656E-3,-4.776000977E-3
8.900059047E0,2.471923828E-3,-7.781982422E-3,-2.639770508E-3
8.905033412E0,3.356933594E-4,-6.729125977E-3,-3.707885742E-3
8.910007777E0,-7.171630859E-4,-6.729125977E-3,-4.776000977E-3
8.915012660E0,-1.785278320E-3,-7.781982422E-3,-2.639770508E-3
8.919987025E0,-3.921508789E-3,-6.729125977E-3,-3.707885742E-3
8.924961390E0,-6.057739258E-3,-8.850097656E-3,-3.707885742E-3
8.929935756E0,-6.057739258E-3,-1.098632812E-2,-3.707885742E-3
8.934910121E0,-7.110595703E-3,-1.098632812E-2,-2.639770508E-3
8.939915004E0,-9.246826172E-3,-1.205444336E-2,-2.639770508E-3
8.944889369E0,-1.031494141E-2,-1.205444336E-2,-5.187988281E-4
8.949863734E0,-9.246826172E-3,-9.918212891E-3,-5.187988281E-4
8.954838099E0,-7.110595703E-3,-6.729125977E-3,5.493164062E-4
8.959842982E0,-4.989624023E-3,-4.592895508E-3,5.493164062E-4
8.964817347E0,-3.921508789E-3,-3.524780273E-3,5.493164062E-4
8.969791713E0,-1.785278320E-3,-3.356933594E-4,5.493164062E-4
8.974766078E0,-1.785278320E-3,3.936767578E-3,-5.187988281E-4
8.979740443E0,3.356933594E-4,6.057739258E-3,-5.187988281E-4
8.984745326E0,3.540039062E-3,6.057739258E-3,-2.639770508E-3
8.989719691E0,3.540039062E-3,2.868652344E-3,-2.639770508E-3
8.994694056E0,2.471923828E-3,-3.356933594E-4,-1.571655273E-3
8.999668422E0,3.356933594E-4,-3.524780273E-3,-2.639770508E-3
9.004673305E0,-7.171630859E-4,-7.781982422E-3,-2.639770508E-3
9.009647670E0,-3.921508789E-3,-1.205444336E-2,-2.639770508E-3
9.014622035E0,-3.921508789E-3,-1.417541504E-2,-2.639770508E-3
9.019596400E0,-2.853393555E-3,-1.417541504E-2,-1.571655273E-3
9.024570765E0,-1.785278320E-3,-1.310729980E-2,-1.571655273E-3
9.029575648E0,-7.171630859E-4,-1.205444336E-2,-5.187988281E-4
9.034550013E0,-7.171630859E-4,-1.098632812E-2,-5.187988281E-4
9.039524379E0,3.356933594E-4,-7.781982422E-3,1.617431641E-3
9.044498744E0,4.608154297E-3,-2.456665039E-3,1.617431641E-3
9.049503627E0,2.471923828E-3,1.800537109E-3,2.685546875E-3
9.054477992E0,3.356933594E-4,6.057739258E-3,3.753662109E-3
9.059452357E0,-7.171630859E-4,7.125854492E-3,6.942749023E-3
9.064426722E0,3.356933594E-4,1.033020020E-2,6.942749023E-3
9.069401088E0,-1.785278320E-3,1.138305664E-2,6.942749023E-3
9.074405971E0,-2.853393555E-3,1.245117188E-2,6.942749023E-3
9.079380336E0,-2.853393555E-3,1.245117188E-2,6.942749023E-3
9.084354701E0,-2.853393555E-3,1.138305664E-2,5.874633789E-3
9.089329066E0,-1.785278320E-3,1.033020020E-2,4.806518555E-3
9.094333949E0,-1.785278320E-3,4.989624023E-3,2.685546875E-3
9.099308314E0,-2.853393555E-3,-1.388549805E-3,5.493164062E-4
9.104282680E0,-3.921508789E-3,-5.661010742E-3,-5.187988281E-4
9.109257045E0,-4.989624023E-3,-9.918212891E-3,-3.707885742E-3
9.114231410E0,-3.921508789E-3,-1.098632812E-2,-4.776000977E-3
9.119236293E0,-2.853393555E-3,-1.098632812E-2,-3.707885742E-3
9.124210658E0,-7.171630859E-4,-1.205444336E-2,-4.776000977E-3
9.129185023E0,1.403808594E-3,-1.417541504E-2,-4.776000977E-3
9.134159388E0,3.356933594E-4,-1.631164551E-2,-4.776000977E-3
9.139164271E0,-7.171630859E-4,-1.524353027E-2,-3.707885742E-3
9.144138637E0,-7.171630859E-4,-1.098632812E-2,-2.639770508E-3
9.149113002E0,4.608154297E-3,-6.729125977E-3,-3.707885742E-3
9.154087367E0,4.608154297E-3,-1.388549805E-3,-3.707885742E-3
9.159061732E0,2.471923828E-3,7.324218750E-4,-2.639770508E-3
9.164066615E0,-7.171630859E-4,-2.456665039E-3,-5.187988281E-4
9.169040980E0,-3.921508789E-3,-6.729125977E-3,5.493164062E-4
9.174015346E0,-7.110595703E-3,-6.729125977E-3,-5.187988281E-4
9.178989711E0,-7.110595703E-3,-6.729125977E-3,-1.571655273E-3
9.183994594E0,-8.178710938E-3,-5.661010742E-3,5.493164062E-4
9.188968959E0,-6.057739258E-3,-3.524780273E-3,5.493164062E-4
9.193943324E0,-6.057739258E-3,-3.524780273E-3,1.617431641E-3
9.198917689E0,-6.057739258E-3,-2.456665039E-3,3.753662109E-3
9.203892055E0,-3.921508789E-3,-1.388549805E-3,2.685546875E-3
9.208896937E0,-1.785278320E-3,7.324218750E-4,2.685546875E-3
9.213871303E0,-2.853393555E-3,-3.356933594E-4,3.753662109E-3
9.218845668E0,-7.171630859E-4,-4.592895508E-3,2.685546875E-3
9.223820033E0,-7.171630859E-4,-1.098632812E-2,5.493164062E-4
9.228824916E0,-7.171630859E-4,-1.205444336E-2,-5.187988281E-4
9.233799281E0,3.356933594E-4,-1.205444336E-2,-1.571655273E-3
9.238773646E0,-7.171630859E-4,-9.918212891E-3,-5.187988281E-4
9.243748012E0,-1.785278320E-3,-1.098632812E-2,-2.639770508E-3
9.248722377E0,-7.171630859E-4,-1.310729980E-2,-4.776000977E-3
9.253727260E0,-2.853393555E-3,-1.524353027E-2,-4.776000977E-3
9.258701625E0,-1.785278320E-3,-1.524353027E-2,-3.707885742E-3
9.263675990E0,-1.785278320E-3,-1.205444336E-2,-3.707885742E-3
9.268650355E0,1.403808594E-3,-7.781982422E-3,-1.571655273E-3
9.273655238E0,1.403808594E-3,-2.456665039E-3,-5.187988281E-4
9.278629603E0,2.471923828E-3,1.800537109E-3,5.493164062E-4
9.283603969E0,3.356933594E-4,4.989624023E-3,1.617431641E-3
9.288578334E0,3.356933594E-4,4.989624023E-3,3.753662109E-3
9.293552699E0,-1.785278320E-3,3.936767578E-3,5.874633789E-3
9.298557582E0,-4.989624023E-3,3.936767578E-3,6.942749023E-3
9.303531947E0,-3.921508789E-3,2.868652344E-3,9.078979492E-3
9.308506312E0,-3.921508789E-3,2.868652344E-3,9.078979492E-3
9.313480678E0,-2.853393555E-3,2.868652344E-3,9.078979492E-3
9.318485560E0,-1.785278320E-3,1.800537109E-3,8.010864258E-3
9.323459926E0,-1.785278320E-3,7.324218750E-4,8.010864258E-3
9.328434291E0,-1.785278320E-3,-1.388549805E-3,6.942749023E-3
9.333408656E0,-7.171630859E-4,-4.592895508E-3,4.806518555E-3
9.338383021E0,-2.853393555E-3,-6.729125977E-3,2.685546875E-3
9.343387904E0,3.356933594E-4,-5.661010742E-3,2.685546875E-3
9.348362269E0,-1.785278320E-3,-3.524780273E-3,1.617431641E-3
9.353336635E0,-1.785278320E-3,-3.524780273E-3,-1.571655273E-3
9.358311000E0,-2.853393555E-3,-1.388549805E-3,-2.639770508E-3
9.363315883E0,-7.171630859E-4,1.800537109E-3,-3.707885742E-3
9.368290248E0,-2.853393555E-3,-3.356933594E-4,-3.707885742E-3
9.373264613E0,-2.853393555E-3,-3.356933594E-4,-4.776000977E-3
9.378238978E0,-3.921508789E-3,-4.592895508E-3,-2.639770508E-3
9.383213344E0,-2.853393555E-3,-5.661010742E-3,-1.571655273E-3
9.388218226E0,-3.921508789E-3,-6.729125977E-3,-5.187988281E-4
9.393192592E0,-3.921508789E-3,-3.524780273E-3,5.493164062E-4
9.398166957E0,-2.853393555E-3,-2.456665039E-3,2.685546875E-3
9.403141322E0,-1.785278320E-3,-3.356933594E-4,5.874633789E-3
9.408146205E0,-7.171630859E-4,3.936767578E-3,6.942749023E-3
9.413120570E0,3.356933594E-4,8.193969727E-3,6.942749023E-3
9.418094935E0,3.540039062E-3,1.245117188E-2,5.874633789E-3
9.423069301E0,2.471923828E-3,1.351928711E-2,4.806518555E-3
9.428043666E0,2.471923828E-3,1.245117188E-2,5.874633789E-3
9.433048549E0,2.471923828E-3,9.262084961E-3,4.806518555E-3
9.438022914E0,1.403808594E-3,8.193969727E-3,3.753662109E-3
9.442997279E0,2.471923828E-3,7.125854492E-3,2.685546875E-3
9.447971644E0,3.540039062E-3,8.193969727E-3,1.617431641E-3
9.452976527E0,3.540039062E-3,4.989624023E-3,-5.187988281E-4
9.457950892E0,3.356933594E-4,7.324218750E-4,5.493164062E-4
9.462925258E0,-7.171630859E-4,-4.592895508E-3,-1.571655273E-3
9.467899623E0,3.356933594E-4,-5.661010742E-3,-1.571655273E-3
9.472873988E0,1.403808594E-3,-6.729125977E-3,-3.707885742E-3
9.477878871E0,2.471923828E-3,-6.729125977E-3,-3.707885742E-3
9.482853236E0,-7.171630859E-4,-1.098632812E-2,-4.776000977E-3
9.487827601E0,-7.171630859E-4,-1.310729980E-2,-2.639770508E-3
9.492801967E0,-1.785278320E-3,-1.098632812E-2,5.493164062E-4
9.497776332E0,-1.785278320E-3,-4.592895508E-3,5.493164062E-4
9.502781215E0,1.403808594E-3,-1.388549805E-3,-5.187988281E-4
9.507755580E0,3.356933594E-4,1.800537109E-3,1.617431641E-3
9.512729945E0,1.403808594E-3,3.936767578E-3,2.685546875E-3
9.517704310E0,1.403808594E-3,4.989624023E-3,3.753662109E-3
9.522709193E0,4.608154297E-3,8.193969727E-3,3.753662109E-3
9.527683558E0,3.540039062E-3,1.033020020E-2,3.753662109E-3
9.532657924E0,3.540039062E-3,1.245117188E-2,3.753662109E-3
9.537632289E0,2.471923828E-3,1.351928711E-2,3.753662109E-3
9.542606654E0,1.403808594E-3,1.033020020E-2,3.753662109E-3
9.547611537E0,1.403808594E-3,1.138305664E-2,3.753662109E-3
9.552585902E0,2.471923828E-3,1.138305664E-2,3.753662109E-3
9.557560267E0,1.403808594E-3,9.262084961E-3,2.685546875E-3
9.562534633E0,3.356933594E-4,6.057739258E-3,4.806518555E-3
9.567539515E0,3.356933594E-4,-3.356933594E-4,4.806518555E-3
9.572513881E0,3.356933594E-4,-4.592895508E-3,3.753662109E-3
9.577488246E0,1.403808594E-3,-7.781982422E-3,3.753662109E-3
9.582462611E0,3.356933594E-4,-9.918212891E-3,4.806518555E-3
9.587436976E0,3.540039062E-3,-9.918212891E-3,4.806518555E-3
9.592441859E0,3.540039062E-3,-8.850097656E-3,5.874633789E-3
9.597416224E0,2.471923828E-3,-9.918212891E-3,4.806518555E-3
9.602390590E0,3.356933594E-4,-6.729125977E-3,6.942749023E-3
9.607364955E0,1.403808594E-3,-4.592895508E-3,5.874633789E-3
9.612369838E0,4.608154297E-3,-1.388549805E-3,4.806518555E-3
9.617344203E0,1.403808594E-3,-3.356933594E-4,3.753662109E-3
9.622318568E0,3.356933594E-4,-1.388549805E-3,4.806518555E-3
9.627292933E0,3.356933594E-4,7.324218750E-4,2.685546875E-3
9.632267299E0,-7.171630859E-4,2.868652344E-3,1.617431641E-3
9.637272181E0,2.471923828E-3,3.936767578E-3,5.493164062E-4
9.642246547E0,3.356933594E-4,2.868652344E-3,-5.187988281E-4
9.647220912E0,1.403808594E-3,7.324218750E-4,-5.187988281E-4
9.652195277E0,2.471923828E-3,1.800537109E-3,-5.187988281E-4
9.657200160E0,2.471923828E-3,1.800537109E-3,5.493164062E-4
9.662174525E0,5.661010742E-3,4.989624023E-3,2.685546875E-3
9.667148890E0,6.729125977E-3,3.936767578E-3,1.617431641E-3
9.672123256E0,3.540039062E-3,-3.356933594E-4,1.617431641E-3
9.677097621E0,5.661010742E-3,-2.456665039E-3,3.753662109E-3
9.682102504E0,5.661010742E-3,-2.456665039E-3,2.685546875E-3
9.687076869E0,6.729125977E-3,1.800537109E-3,2.685546875E-3
9.692051234E0,7.797241211E-3,7.125854492E-3,2.685546875E-3
9.697025599E0,6.729125977E-3,6.057739258E-3,3.753662109E-3
9.702030482E0,6.729125977E-3,7.125854492E-3,2.685546875E-3
9.707004847E0,5.661010742E-3,1.033020020E-2,1.617431641E-3
9.711979213E0,3.540039062E-3,1.245117188E-2,1.617431641E-3
9.716953578E0,3.540039062E-3,1.670837402E-2,1.617431641E-3
9.721927943E0,2.471923828E-3,1.670837402E-2,3.753662109E-3
9.726932826E0,1.403808594E-3,1.777648926E-2,3.753662109E-3
9.731907191E0,2.471923828E-3,1.565551758E-2,5.874633789E-3
9.736881556E0,1.403808594E-3,1.245117188E-2,4.806518555E-3
9.741855922E0,1.403808594E-3,1.033020020E-2,5.874633789E-3
9.746860805E0,3.356933594E-4,8.193969727E-3,4.806518555E-3
9.751835170E0,4.608154297E-3,8.193969727E-3,6.942749023E-3
9.756809535E0,5.661010742E-3,1.245117188E-2,8.010864258E-3
9.761783900E0,8.865356445E-3,1.991271973E-2,9.078979492E-3
9.766758265E0,1.100158691E-2,2.416992188E-2,1.014709473E-2
9.771763148E0,1.100158691E-2,2.203369141E-2,9.078979492E-3
9.776737513E0,7.797241211E-3,1.777648926E-2,9.078979492E-3
9.781711879E0,6.729125977E-3,1.458740234E-2,6.942749023E-3
9.786686244E0,4.608154297E-3,1.245117188E-2,5.874633789E-3
9.791691127E0,2.471923828E-3,8.193969727E-3,3.753662109E-3
9.796665492E0,3.356933594E-4,4.989624023E-3,4.806518555E-3
9.801639857E0,3.356933594E-4,-3.356933594E-4,4.806518555E-3
9.806614222E0,-1.785278320E-3,-6.729125977E-3,4.806518555E-3
9.811588588E0,-3.921508789E-3,-9.918212891E-3,8.010864258E-3
9.816593471E0,-4.989624023E-3,-9.918212891E-3,9.078979492E-3
9.821567836E0,-3.921508789E-3,-8.850097656E-3,1.119995117E-2
9.826542201E0,-1.785278320E-3,-5.661010742E-3,1.440429688E-2
9.831516566E0,3.356933594E-4,-5.661010742E-3,1.652526855E-2
9.836521449E0,3.540039062E-3,-5.661010742E-3,1.972961426E-2
9.841495814E0,5.661010742E-3,-6.729125977E-3,2.291870117E-2
9.846470180E0,5.661010742E-3,-2.456665039E-3,2.612304688E-2
9.851444545E0,6.729125977E-3,2.868652344E-3,2.398681641E-2
9.856418910E0,4.608154297E-3,3.936767578E-3,2.612304688E-2
9.861423793E0,1.403808594E-3,-3.356933594E-4,2.612304688E-2
9.866398158E0,-3.921508789E-3,-9.918212891E-3,2.185058594E-2
9.871372523E0,-6.057739258E-3,-1.631164551E-2,1.866149902E-2
9.876346888E0,-8.178710938E-3,-1.843261719E-2,1.440429688E-2
9.881351771E0,-8.178710938E-3,-2.056884766E-2,9.078979492E-3
9.886326137E0,-7.110595703E-3,-2.056884766E-2,6.942749023E-3
9.891300502E0,-6.057739258E-3,-2.163696289E-2,4.806518555E-3
9.896274867E0,-3.921508789E-3,-1.950073242E-2,1.617431641E-3
9.901249232E0,-4.989624023E-3,-1.524353027E-2,-1.571655273E-3
9.906254115E0,-3.921508789E-3,-1.310729980E-2,-1.571655273E-3
9.911228480E0,-3.921508789E-3,-6.729125977E-3,-2.639770508E-3
9.916202846E0,-2.853393555E-3,-4.592895508E-3,-3.707885742E-3
9.921177211E0,-4.989624023E-3,-6.729125977E-3,-1.571655273E-3
9.926182094E0,-4.989624023E-3,-1.098632812E-2,-5.187988281E-4
9.931156459E0,-3.921508789E-3,-1.098632812E-2,3.753662109E-3
9.936130824E0,-6.057739258E-3,-1.310729980E-2,6.942749023E-3
9.941105189E0,-2.853393555E-3,-1.098632812E-2,1.119995117E-2
9.946079555E0,-2.853393555E-3,-5.661010742E-3,1.547241211E-2
9.951084437E0,-1.785278320E-3,-3.356933594E-4,1.866149902E-2
9.956058803E0,3.356933594E-4,4.989624023E-3,1.972961426E-2
9.961033168E0,1.403808594E-3,7.125854492E-3,1.972961426E-2
9.966007533E0,4.608154297E-3,1.033020020E-2,1.972961426E-2
