"Time (s)","Acceleration x (m/s^2)","Acceleration y (m/s^2)","Acceleration z (m/s^2)"
0.000000000E0,-2.754528999E0,3.617638826E0,8.767566681E0
6.809958000E-3,-2.625242233E0,3.801992416E0,8.939949036E0
1.160587500E-2,-2.579752445E0,3.817554712E0,8.804677010E0
1.678137500E-2,-2.546233416E0,3.846285105E0,8.670601845E0
2.157158300E-2,-2.511517525E0,3.891774893E0,8.582015991E0
2.650891600E-2,-2.543839216E0,3.861847401E0,8.506598473E0
3.156183300E-2,-2.506729126E0,3.749319792E0,8.503006935E0
3.667745800E-2,-2.491166830E0,3.623624325E0,8.536525726E0
4.154779100E-2,-2.548627615E0,3.507505417E0,8.646659851E0
4.676845800E-2,-2.515108824E0,3.478775024E0,8.822632790E0
5.163562500E-2,-2.361880064E0,3.499125719E0,8.847772598E0
5.709175000E-2,-2.264914751E0,3.481169224E0,8.821435928E0
6.176150000E-2,-2.218227863E0,3.445256233E0,8.702922821E0
6.716008300E-2,-2.315192938E0,3.420117140E0,8.505401611E0
7.199379200E-2,-2.636016130E0,3.482366323E0,8.276755333E0
7.713358300E-2,-2.941276789E0,3.597288132E0,8.192957878E0
8.237945800E-2,-3.005920172E0,3.803189516E0,8.280346870E0
8.717466700E-2,-3.005920172E0,3.803189516E0,8.280346870E0
9.244800000E-2,-2.867056608E0,3.983951569E0,8.372523308E0
9.706900000E-2,-2.754528999E0,4.098873138E0,8.604761124E0
1.021539580E-1,-2.686294317E0,4.115632534E0,8.832210541E0
1.069207080E-1,-2.564189911E0,3.987542868E0,9.131484985E0
1.118874580E-1,-2.296039343E0,3.652354717E0,9.388861656E0
1.174684170E-1,-1.850717902E0,3.245340347E0,9.556455612E0
1.217799580E-1,-1.167173386E0,3.041833162E0,9.622296333E0
1.270480830E-1,-3.244143426E-1,3.303998232E0,9.678560257E0
1.320825830E-1,4.261679053E-1,3.799597979E0,8.255207062E0
1.371277500E-1,2.873042040E-2,3.521870613E0,9.076418877E0
1.419210830E-1,-4.261679053E-1,3.123236179E0,9.294290543E0
1.473316670E-1,-7.924807668E-1,2.869450808E0,9.263166428E0
1.519472080E-1,-1.186326981E0,2.728192806E0,9.021351814E0
1.575085420E-1,-1.341950059E0,2.530671120E0,8.870517731E0
1.618135420E-1,-1.278503656E0,2.415749550E0,8.996212959E0
1.669885830E-1,-1.144428372E0,2.469619036E0,9.228450775E0
1.719008330E-1,-1.051054597E0,2.584540844E0,9.607931137E0
1.771186670E-1,-9.971849918E-1,2.716221809E0,9.946710587E0
1.818544580E-1,-8.774749041E-1,2.873042107E0,1.027950478E1
1.869840420E-1,-7.757213712E-1,3.020285368E0,1.055603504E1
1.919840420E-1,-6.117185354E-1,3.092111588E0,1.066736603E1
1.960321250E-1,-6.117185354E-1,3.092111588E0,1.066736603E1
2.019240420E-1,-9.696517140E-2,3.020285368E0,1.034295177E1
2.072673750E-1,1.125274822E-1,2.973598480E0,1.005564690E1
2.128127500E-1,2.573766708E-1,2.943670988E0,9.771934509E0
2.171781250E-1,3.770867586E-1,2.940079689E0,9.487024307E0
2.220946250E-1,4.525041282E-1,2.926911592E0,9.376891136E0
2.271531250E-1,5.207388401E-1,2.868253708E0,9.418789864E0
2.318568750E-1,5.458779931E-1,2.834734917E0,9.550470352E0
2.373177500E-1,5.003881454E-1,2.820369720E0,9.694122314E0
2.422811250E-1,4.680664241E-1,2.773682594E0,9.783905029E0
2.472914580E-1,4.094084799E-1,2.683900118E0,9.843760490E0
2.526741250E-1,4.740519226E-1,2.661155224E0,9.718064308E0
2.585959170E-1,5.446808934E-1,2.663549423E0,9.433155060E0
2.637425000E-1,6.296750307E-1,2.677914619E0,9.074024200E0
2.671904580E-1,3.387795389E-1,2.409764051E0,8.566453934E0
2.730945420E-1,1.316810995E-1,2.542642117E0,8.769960403E0
2.782057080E-1,2.561795712E-1,2.472013235E0,1.133654499E1
2.820266250E-1,-4.537012279E-1,2.619256735E0,1.010113716E1
2.871090830E-1,-8.008604646E-1,3.007117271E0,7.954735279E0
2.921445420E-1,-6.224924326E-1,3.298012733E0,7.536946774E0
2.976885830E-1,-7.541735172E-1,3.264493942E0,7.528567314E0
3.021328750E-1,-7.565677166E-1,2.990357876E0,8.234856606E0
3.071370830E-1,-6.667851806E-1,2.643198729E0,8.895656586E0
3.121225420E-1,-9.145850539E-1,2.111685991E0,9.278728485E0
3.172991250E-1,-1.033097982E0,1.782483220E0,9.649829865E0
3.218869170E-1,-1.170764685E0,1.547851443E0,1.006881523E1
3.272940830E-1,-9.241618514E-1,1.618480325E0,1.046026707E1
3.318729580E-1,-5.099649429E-1,1.835155606E0,1.054645824E1
3.372335830E-1,-2.142810524E-1,1.893813491E0,1.049258900E1
3.426262080E-1,-3.830722570E-1,1.796848416E0,1.019570827E1
3.473360830E-1,-9.014169574E-1,1.659181833E0,9.716867447E0
3.519308330E-1,-1.547851443E0,1.531091928E0,9.530119896E0
3.575969580E-1,-2.014720678E0,1.391031146E0,9.897629738E0
3.625294580E-1,-1.553836942E0,1.596932530E0,1.029147625E1
3.674678750E-1,-6.607996821E-1,1.994369984E0,1.070208168E1
3.720033330E-1,-2.250549644E-1,2.291250944E0,1.076911926E1
3.779892920E-1,7.781155407E-2,2.621650934E0,1.045308495E1
3.818693330E-1,2.801215947E-1,3.016694069E0,9.811438560E0
3.871243330E-1,3.962403834E-1,3.280056238E0,8.831012726E0
3.920434580E-1,6.691793799E-1,3.588908434E0,8.327033043E0
3.971363330E-1,8.104372621E-1,3.855861902E0,8.287528992E0
4.018773750E-1,4.189853072E-1,3.827131510E0,8.702922821E0
4.079067920E-1,-1.616086215E-1,3.588908434E0,9.084798813E0
4.119739170E-1,-7.649474144E-1,3.215412855E0,9.350554466E0
4.170630000E-1,-1.308431268E0,2.664746523E0,9.630676270E0
4.219113750E-1,-1.810016513E0,2.100912094E0,1.000895977E1
4.277376670E-1,-2.318784237E0,1.508347034E0,1.052610779E1
4.319724580E-1,-2.661155224E0,1.177947283E0,1.043871975E1
4.371493750E-1,-3.089717388E0,9.445125461E-1,1.024718285E1
4.420334170E-1,-3.221398354E0,7.422025204E-1,9.220070839E0
4.475821250E-1,-2.692279816E0,7.422025204E-1,7.643488884E0
4.518392920E-1,-1.641225219E0,8.607155085E-1,6.151901245E0
4.577473330E-1,-3.818751574E-1,1.065419793E0,5.493495941E0
4.619002920E-1,7.984662652E-1,1.454477549E0,5.532999992E0
4.670289580E-1,1.553836942E0,2.035071373E0,5.679046631E0
4.719550830E-1,1.939303398E0,2.948459387E0,6.410475254E0
4.773295420E-1,2.234987259E0,3.908534288E0,7.460332394E0
4.819906670E-1,2.719813108E0,4.607641220E0,6.854599476E0
4.869902920E-1,3.281253338E0,5.188235283E0,5.686229229E0
4.919902920E-1,3.620033026E0,5.577292919E0,4.843470097E0
4.963094580E-1,3.620033026E0,5.577292919E0,4.843470097E0
5.019650420E-1,2.607285738E0,5.748478413E0,4.477157116E0
5.069661250E-1,1.595735431E0,5.500678539E0,5.173870087E0
5.126399170E-1,7.769184709E-1,4.989516258E0,6.160281181E0
5.185616670E-1,1.041477770E-1,3.981557369E0,7.127538681E0
5.219601250E-1,-7.924807668E-1,2.500743628E0,8.346187592E0
5.269601250E-1,-1.816002011E0,1.271321058E0,9.056067467E0
5.290637500E-1,-1.816002011E0,1.271321058E0,9.056067467E0
5.338230000E-1,-2.630030632E0,7.900865674E-1,9.451110840E0
5.379143330E-1,-2.603694439E0,8.858546019E-1,9.895236015E0
5.435244170E-1,-2.231395960E0,1.052251697E0,1.018852520E1
5.473472920E-1,-1.545457244E0,1.422155857E0,1.028788471E1
5.523010000E-1,-7.026981711E-1,2.001552582E0,9.940725327E0
5.571320420E-1,-6.045359373E-1,1.707065821E0,9.471462250E0
5.626990000E-1,-3.447650373E-1,1.425747156E0,8.971074104E0
5.683302080E-1,-1.747767180E-1,1.318008065E0,8.547300339E0
5.731464170E-1,-1.687912196E-1,1.284489155E0,8.395268440E0
5.773492500E-1,-3.280056417E-1,1.209071875E0,8.166622162E0
5.823255000E-1,-6.500257850E-1,1.159990668E0,8.034940720E0
5.869744580E-1,-1.156399369E0,1.134851575E0,8.368931770E0
5.919744580E-1,-1.686715126E0,1.010353088E0,8.383296967E0
5.935675420E-1,-1.686715126E0,1.010353088E0,8.383296967E0
5.973584170E-1,-1.924938202E0,7.793126702E-1,8.432378769E0
6.018900000E-1,-2.055422068E0,6.344634295E-1,9.240421295E0
6.071212080E-1,-2.398990154E0,5.075707436E-1,9.865307808E0
6.121212080E-1,-2.806004286E0,3.160346150E-1,1.031062984E1
6.158846670E-1,-2.806004286E0,3.160346150E-1,1.031062984E1
6.208846670E-1,-3.104082584E0,5.386953801E-2,1.047702694E1
6.230967920E-1,-3.104082584E0,5.386953801E-2,1.047702694E1
6.278317920E-1,-2.675520420E0,-3.794809580E-1,1.021486187E1
6.319847920E-1,-2.348711967E0,-5.518634915E-1,1.023162079E1
6.370455000E-1,-2.140416384E0,-5.949591398E-1,1.005205631E1
6.419507920E-1,-1.662773132E0,-3.806780577E-1,8.983044624E0
6.478677920E-1,-9.672574997E-1,9.457096457E-2,7.790732384E0
6.521256670E-1,-4.189852998E-2,8.786720037E-1,7.220912457E0
6.570838330E-1,9.481038451E-1,1.416170359E0,7.034164429E0
6.620838330E-1,1.375468850E0,1.631648421E0,6.545747280E0
6.644208750E-1,1.375468850E0,1.631648421E0,6.545747280E0
6.678070420E-1,1.632845521E0,1.753752708E0,7.016208172E0
6.721547500E-1,2.849100113E0,2.252943754E0,1.168011284E1
6.771547500E-1,2.421735048E0,2.768894196E0,1.250491524E1
6.807196250E-1,2.421735048E0,2.768894196E0,1.250491524E1
6.874880000E-1,-9.804255962E-1,1.477222443E0,6.302735806E0
6.919004580E-1,-1.412578970E-1,9.445125461E-1,6.361393929E0
6.971998330E-1,6.955155730E-1,9.397241473E-1,7.723694801E0
7.022130420E-1,5.770025849E-1,9.361328483E-1,9.119514465E0
7.069080420E-1,2.322375625E-1,7.098808289E-1,1.015859795E1
7.124958330E-1,-1.292868853E-1,3.722983599E-1,1.055483818E1
7.174757920E-1,-2.873041928E-1,4.070143029E-2,1.047463226E1
7.226566250E-1,-2.262520641E-1,-2.394201756E-1,1.023281765E1
7.274621670E-1,6.584054977E-2,-4.668693244E-1,1.042555141E1
7.318533330E-1,4.165911078E-1,-6.308721304E-1,1.055603504E1
7.369966250E-1,5.351040959E-1,-7.709329724E-1,1.001973438E1
7.418873330E-1,7.505822182E-1,-8.271966577E-1,9.190143585E0
7.476647090E-1,9.923965931E-1,-8.044517636E-1,8.426392555E0
7.518520420E-1,1.259350061E0,-7.457938194E-1,7.823053837E0
7.571030840E-1,1.478419542E0,-6.967126727E-1,7.055712223E0
7.619331250E-1,1.558625340E0,-5.853823423E-1,5.985504150E0
7.670795420E-1,1.698686123E0,-3.639186621E-1,4.607641220E0
7.717901250E-1,2.045845270E0,-6.344634295E-2,3.226186752E0
7.773776250E-1,2.540247917E0,1.292868853E-1,2.165555477E0
7.819051250E-1,2.965218782E0,1.316810995E-1,1.419761658E0
7.872553750E-1,3.566163540E0,8.140286058E-2,9.552865028E-1
7.922553750E-1,4.303577423E0,4.070143029E-2,1.006761789E0
7.985442090E-1,4.303577423E0,4.070143029E-2,1.006761789E0
8.018714170E-1,5.492298603E0,-2.753331959E-1,2.918531895E0
8.075459590E-1,5.850231647E0,-6.272808313E-1,4.750096321E0
8.122779590E-1,5.816712856E0,-1.031900883E0,6.799532890E0
8.176260840E-1,5.396530628E0,-1.650802016E0,8.398859978E0
8.220904170E-1,4.598064423E0,-2.408566952E0,9.291896820E0
8.271673750E-1,3.521870613E0,-3.202244759E0,9.628282547E0
8.321060000E-1,2.422932148E0,-4.035427094E0,9.212887764E0
8.378240840E-1,1.419761658E0,-4.951209068E0,8.479064941E0
8.420262090E-1,6.584054828E-1,-5.920860767E0,7.375338554E0
8.470716250E-1,2.813186944E-1,-6.494272232E0,5.941211700E0
8.519813340E-1,2.813186944E-1,-6.494272232E0,5.941211700E0
8.569888750E-1,4.201824069E-1,-6.464344501E0,4.304774761E0
8.624747500E-1,3.830722570E-1,-6.034585476E0,2.967612982E0
8.679536670E-1,5.506663918E-1,-5.407304764E0,1.897404790E0
8.722029170E-1,9.481038451E-1,-4.960785866E0,1.332373261E0
8.784703340E-1,1.271321058E0,-4.918887615E0,1.186326981E0
8.820374590E-1,1.689109325E0,-5.013458252E0,9.301473498E-1
8.870835840E-1,2.630030632E0,-4.863820553E0,5.901707411E-1
8.920239590E-1,4.040215492E0,-4.335899353E0,9.588778019E-1
8.971379170E-1,5.232527733E0,-3.857059002E0,1.881842494E0
9.019790840E-1,5.503072739E0,-3.665522814E0,2.779668093E0
9.073700840E-1,5.493495941E0,-4.060565948E0,3.912125587E0
9.126340840E-1,5.459977150E0,-4.607641220E0,5.234921932E0
9.179497500E-1,5.043385983E0,-5.210979939E0,6.539762020E0
9.219915420E-1,4.311957359E0,-5.793968201E0,7.659051418E0
9.278870840E-1,3.626018524E0,-6.424840450E0,8.884882927E0
9.332493340E-1,3.161543369E0,-6.766014099E0,9.744400978E0
9.372816250E-1,2.851494312E0,-6.860584736E0,1.024478912E1
9.420803750E-1,2.495955229E0,-6.897695065E0,1.030823517E1
9.470803750E-1,2.121262789E0,-6.979097843E0,9.896432877E0
9.490948340E-1,2.121262789E0,-6.979097843E0,9.896432877E0
9.521358750E-1,1.826775908E0,-7.194576263E0,9.376891136E0
9.577648750E-1,1.814804912E0,-7.266402245E0,9.138668060E0
9.627648750E-1,2.165555477E0,-7.089231014E0,8.904036522E0
9.648016670E-1,2.165555477E0,-7.089231014E0,8.904036522E0
9.719823750E-1,3.375824451E0,-6.270414352E0,9.264363289E0
9.773122920E-1,3.682282209E0,-6.187814236E0,1.003888798E1
9.819125420E-1,4.200626850E0,-5.986701488E0,1.121683502E1
9.871171250E-1,4.900930882E0,-5.686229229E0,1.250611305E1
9.918857090E-1,5.918466568E0,-5.187037945E0,1.386721611E1
9.968857090E-1,6.955155849E0,-4.740519524E0,1.534204483E1
9.989959590E-1,6.955155849E0,-4.740519524E0,1.534204483E1
1.002150667E0,7.927201748E0,-4.346673012E0,1.735317421E1
1.007408417E0,8.579621315E0,-4.046200752E0,1.898362541E1
1.011872792E0,8.777143478E0,-3.998316765E0,2.007179070E1
1.017179375E0,8.730456352E0,-4.086902142E0,2.050753403E1
1.021887167E0,8.465897560E0,-4.222174644E0,2.023698997E1
1.026979792E0,1.173757362E1,-2.732981205E0,1.628655624E1
1.031979792E0,9.375694275E0,-2.448071241E0,1.531929970E1
1.033891542E0,9.375694275E0,-2.448071241E0,1.531929970E1
1.037134417E0,8.299500465E0,-3.323152065E0,1.406713200E1
1.041788084E0,8.817844391E0,-4.888959885E0,1.576940918E1
1.047076334E0,3.360262156E0,-6.748057365E0,1.925057793E1
1.051937792E0,6.301538944E0,-4.772840977E0,1.474828243E1
1.057096500E0,8.030152321E0,-3.824737310E0,1.349731255E1
1.061911750E0,1.003170490E1,-2.869450808E0,1.152808094E1
1.066914792E0,1.078348446E1,-2.346317768E0,1.075475407E1
1.072008167E0,1.122641182E1,-2.363077164E0,1.124795914E1
1.077008167E0,1.332133865E1,-1.786074519E0,1.173158836E1
1.080543000E0,1.332133865E1,-1.786074519E0,1.173158836E1
1.087289334E0,1.198417664E1,-1.774103403E0,1.225951004E1
1.092289334E0,1.202128696E1,-2.145204782E0,1.332492924E1
1.096043167E0,1.202128696E1,-2.145204782E0,1.332492924E1
1.103827584E0,1.222718811E1,-3.014299870E0,1.326866627E1
1.107755709E0,1.162504673E1,-3.241749048E0,1.358709431E1
1.112994709E0,1.063384724E1,-3.585317135E0,1.383609200E1
1.118780875E0,1.003409958E1,-4.181473255E0,1.438196945E1
1.121981209E0,1.002571964E1,-4.535815239E0,1.492784786E1
1.127260250E0,9.883264542E0,-4.605247021E0,1.496615505E1
1.132472667E0,1.004367638E1,-4.683058739E0,1.496256351E1
1.137275334E0,9.702502251E0,-4.776432514E0,1.504636097E1
1.141978417E0,9.226056099E0,-4.854243755E0,1.481891155E1
1.147074792E0,9.144653320E0,-4.917690277E0,1.422874069E1
1.152117084E0,9.789890289E0,-4.793191910E0,1.345182228E1
1.157433875E0,1.071884060E1,-4.416105270E0,1.223796177E1
1.161963250E0,1.214339066E1,-3.837905407E0,9.634267807E0
1.167034667E0,1.351766300E1,-2.955641985E0,6.392518520E0
1.172977875E0,1.392228317E1,-1.993172884E0,2.946065187E0
1.179264334E0,1.434246540E1,-1.073799491E0,-1.151610970E0
1.182246959E0,1.352125454E1,-1.593341231E0,-1.149216771E0
1.187040750E0,1.144188976E1,-3.209427357E0,4.704606235E-1
1.191996042E0,1.024598598E1,-4.480748653E0,2.325966835E0
1.197193750E0,9.501389503E0,-5.353435040E0,3.678690910E0
1.202925209E0,9.198522568E0,-5.712565422E0,4.847061157E0
1.207059042E0,8.726864815E0,-5.826289654E0,6.459556103E0
1.212112542E0,1.035731697E1,-5.956773758E0,6.398504257E0
1.217112542E0,8.774748802E0,-6.773196697E0,6.873753071E0
1.219579709E0,8.774748802E0,-6.773196697E0,6.873753071E0
1.223091834E0,7.831433773E0,-7.261613846E0,7.290344238E0
1.226935167E0,9.058462143E0,-7.198167324E0,6.770802498E0
1.232009000E0,1.056920338E1,-6.667851925E0,6.392518520E0
1.237505334E0,7.875726700E0,-7.249642849E0,6.050147533E0
1.241808834E0,6.927622795E0,-7.835024834E0,5.841852188E0
1.246816500E0,9.082404137E0,-7.508216381E0,6.168660641E0
1.252221250E0,7.528567314E0,-7.753622055E0,6.190208435E0
1.256921292E0,5.878962040E0,-8.182184219E0,5.804741859E0
1.261794292E0,5.979518890E0,-8.334216118E0,5.603629112E0
1.267141209E0,6.314706802E0,-8.366538048E0,6.511031628E0
1.271897834E0,5.944802761E0,-8.151060104E0,7.138312340E0
1.277528084E0,5.516240597E0,-7.894880295E0,7.917624950E0
1.282143834E0,4.717774391E0,-8.192957878E0,8.876502991E0
1.287465042E0,4.369418144E0,-8.042123795E0,9.058462143E0
1.291844334E0,4.362235546E0,-7.565677166E0,8.100781441E0
1.297284500E0,4.669890404E0,-7.474697590E0,8.520963669E0
1.301978875E0,5.167884350E0,-7.677007675E0,8.950722694E0
1.307450042E0,5.528211594E0,-7.947552681E0,9.054870605E0
1.312065042E0,5.837063789E0,-7.867346764E0,8.465897560E0
1.317169334E0,5.720944881E0,-7.433996201E0,7.167042732E0
1.322042459E0,5.439626217E0,-6.497863293E0,5.947196960E0
1.327084625E0,5.694608688E0,-5.617994308E0,5.212177277E0
1.331603917E0,5.742492676E0,-5.708973885E0,5.100846767E0
1.336603917E0,6.059724331E0,-6.132747650E0,5.555745125E0
1.338923625E0,6.059724331E0,-6.132747650E0,5.555745125E0
1.342257042E0,6.484695435E0,-6.569689274E0,5.774814606E0
1.347108834E0,6.417657852E0,-6.969521046E0,6.203376770E0
1.352209917E0,6.324283600E0,-7.438784599E0,6.849811077E0
1.357209917E0,6.075286865E0,-7.410054207E0,7.199364662E0
1.359496792E0,6.075286865E0,-7.410054207E0,7.199364662E0
1.363140000E0,5.699397087E0,-7.240066051E0,7.132327080E0
1.368140000E0,5.426458359E0,-7.022193432E0,7.177816868E0
1.370985500E0,5.426458359E0,-7.022193432E0,7.177816868E0
1.377188709E0,4.528632641E0,-7.765593052E0,7.533355713E0
1.381859417E0,2.322375536E0,-1.042435455E1,8.664615631E0
1.387650292E0,1.614889026E0,-1.031900978E1,9.252392769E0
1.392650292E0,2.755726099E0,-7.860164165E0,8.347384453E0
1.395977209E0,2.755726099E0,-7.860164165E0,8.347384453E0
1.403271125E0,3.839102507E0,-7.222109318E0,6.793547153E0
1.407059667E0,4.680664539E0,-6.621164799E0,6.977900982E0
1.411925292E0,5.243301868E0,-6.215347767E0,7.356184959E0
1.417714667E0,5.343858242E0,-5.827486992E0,7.102399349E0
1.421994084E0,5.525817394E0,-5.264849663E0,6.733692169E0
1.426976917E0,5.822698593E0,-4.861426353E0,6.177040577E0
1.431887084E0,5.712565422E0,-4.569334030E0,5.959167957E0
1.437201667E0,5.528211594E0,-4.735731125E0,5.995080948E0
1.441881209E0,4.831499100E0,-4.735731125E0,5.400122166E0
1.447185209E0,4.469974518E0,-5.039794445E0,5.450400352E0
1.451929917E0,4.412513733E0,-5.912481308E0,6.398504257E0
1.457042542E0,4.163516521E0,-6.647500992E0,6.855796337E0
1.461784126E0,3.681085110E0,-7.679401875E0,8.215703011E0
1.467246001E0,3.338714361E0,-8.268375397E0,8.896853447E0
1.471781251E0,2.821566820E0,-8.395268440E0,8.989029884E0
1.477657876E0,2.281674147E0,-8.371326447E0,8.635885239E0
1.481838376E0,2.231395960E0,-8.171410561E0,8.143877029E0
1.487239709E0,2.427720547E0,-7.976283073E0,8.293514252E0
1.492908709E0,2.248155355E0,-8.091204643E0,8.384494781E0
1.497156667E0,1.493981838E0,-8.259995461E0,7.480683327E0
1.501967667E0,7.038952708E-1,-9.545681953E0,7.565677166E0
1.507456626E0,-2.558204412E0,-1.497094345E1,8.578424454E0
1.512126417E0,-3.543418646E-1,-1.493622684E1,1.153167248E1
1.517867751E0,4.098873138E0,-6.443994045E0,9.447520256E0
1.521976959E0,5.238513470E0,-1.019929886E0,3.086126089E0
1.527418334E0,6.687005520E0,-3.922899485E0,3.983951569E0
1.531784709E0,4.035427094E0,-8.003816605E0,6.933608055E0
1.537010834E0,4.213795066E-1,-9.906009674E0,7.524975777E0
1.541648792E0,7.314286232E-1,-9.951498985E0,7.711723804E0
1.546673042E0,1.607706428E0,-8.512583733E0,8.070854187E0
1.551790417E0,2.042253971E0,-7.236474514E0,7.906851292E0
1.556795126E0,1.915361404E0,-7.441178799E0,8.975862503E0
1.561648292E0,1.837549806E0,-7.708132267E0,9.479841232E0
1.566587292E0,1.771709204E0,-7.595604897E0,9.380482674E0
1.571689959E0,1.242590666E0,-7.297526836E0,9.822212219E0
1.577096251E0,1.023521185E0,-7.189787865E0,1.070327854E1
1.581578376E0,8.583213091E-1,-7.568071365E0,1.137485218E1
1.586650209E0,4.405331016E-1,-7.425616741E0,9.831789017E0
1.591608542E0,-1.161187813E-1,-7.110779285E0,8.261193275E0
1.596755834E0,-4.991910458E-1,-6.187814236E0,4.691438198E0
1.601862334E0,2.885012925E-1,-4.801571369E0,-6.835445762E-1
1.607175292E0,6.584054977E-2,-5.106832027E0,2.721010208E0
1.611648626E0,6.584054977E-2,-5.106832027E0,2.721010208E0
1.616817417E0,-1.465251446E0,-6.420052052E0,1.148139381E1
1.621679709E0,-2.396595955E0,-5.866991043E0,5.718550682E0
1.626621334E0,-9.433154464E-1,-4.963180065E0,1.514332533E0
1.631625876E0,-6.200982332E-1,-5.425261021E0,4.065354347E0
1.637058834E0,-2.132036686E0,-6.764816761E0,1.047702694E1
1.641727751E0,-1.807622313E0,-7.344213486E0,1.664568710E1
1.646631042E0,-2.008735180E0,-4.612429619E0,-1.556231081E-1
1.651673084E0,-4.393360019E-1,-4.447229862E0,-4.126406670E0
1.657184376E0,-7.613561153E-1,-4.808753967E0,-9.253589511E-1
1.661814959E0,-1.145625472E0,-4.284423828E0,1.230619669E0
1.667001251E0,-6.739677787E-1,-3.445256233E0,-2.518700123E0
1.671850876E0,1.928529501E0,-3.554192305E0,7.026981711E-1
1.677106459E0,1.487996340E0,-4.192247391E0,-2.402581453E0
1.681963251E0,1.555034041E0,-4.823119164E0,-1.807622313E0
1.687746876E0,1.703474522E0,-5.832275391E0,2.415749550E0
1.692746876E0,1.800439715E0,-6.965929985E0,4.116829872E0
1.696165209E0,1.800439715E0,-6.965929985E0,4.116829872E0
1.702801792E0,1.497573137E0,-7.741651058E0,2.918531895E0
1.707185251E0,1.259350061E0,-7.885303497E0,2.485181332E0
1.711894917E0,1.163581967E0,-7.903259754E0,2.547430515E0
1.717070626E0,1.003170490E0,-7.934384346E0,2.754528999E0
1.722409209E0,8.259995580E-1,-7.875726700E0,2.875436306E0
1.727253876E0,6.440402865E-1,-7.697358608E0,2.786850691E0
1.733632876E0,5.339069963E-1,-7.447164536E0,2.658761024E0
1.737511334E0,3.950432837E-1,-7.155071735E0,2.661155224E0
1.742096459E0,3.303998411E-1,-6.745663166E0,2.571372509E0
1.747103834E0,2.082955539E-1,-6.166266441E0,2.126051188E0
1.751983334E0,2.047042400E-1,-5.610811710E0,1.863885999E0
1.757824417E0,2.346317619E-1,-5.188235283E0,1.490390539E0
1.762030667E0,2.920926213E-1,-5.207388878E0,1.151610970E0
1.767278667E0,1.795651205E-2,-6.628347397E0,-8.259996027E-2
1.771931084E0,8.020575345E-2,-6.630741596E0,1.891419291E0
1.777470876E0,4.465186298E-1,-5.702988625E0,4.538209438E0
1.781896126E0,6.165069342E-1,-5.461174011E0,6.349422932E0
1.786896126E0,4.201824069E-1,-6.121973515E0,7.557297707E0
1.790649584E0,4.201824069E-1,-6.121973515E0,7.557297707E0
1.797162667E0,-5.422866940E-1,-8.775946617E0,7.487865925E0
1.802070209E0,-1.154005170E0,-9.866505623E0,7.459135532E0
1.807070209E0,-2.038662672E0,-1.068771648E1,7.694964409E0
1.809726501E0,-2.038662672E0,-1.068771648E1,7.694964409E0
1.817307417E0,-2.432508945E0,-1.139161205E1,7.249642849E0
1.822071334E0,-1.824381709E0,-1.107437992E1,6.156689644E0
1.827901251E0,-1.235408068E0,-1.068412495E1,5.193023682E0
1.831905042E0,-1.052251697E0,-1.046146393E1,4.565742493E0
1.836905042E0,-7.410054207E-1,-1.022802925E1,3.991134167E0
1.840744709E0,-7.410054207E-1,-1.022802925E1,3.991134167E0
1.847301292E0,-5.422866940E-1,-9.768342972E0,3.295618534E0
1.852098584E0,-5.997475386E-1,-9.812635422E0,3.148375273E0
1.857056751E0,-3.136404157E-1,-9.898826599E0,3.069366693E0
1.861865334E0,1.089361757E-1,-1.005325317E1,3.039438963E0
1.866953042E0,-2.537853718E-1,-1.006402683E1,3.348291159E0
1.872025584E0,-1.177947283E0,-1.012747288E1,3.366247654E0
1.877156292E0,-1.720233917E0,-1.029865837E1,3.271676540E0
1.882026251E0,-2.432508945E0,-1.069609642E1,3.676296711E0
1.887192042E0,-2.541445017E0,-1.108036518E1,4.596867085E0
1.892136084E0,-2.856282711E0,-1.232654762E1,5.712565422E0
1.897075959E0,-2.924517393E0,-1.334049225E1,7.408857346E0
1.901834584E0,-2.741360903E0,-1.367568016E1,9.604340553E0
1.906989959E0,-5.159504414E-1,-1.155322075E1,8.887276649E0
1.911892084E0,3.110068083E0,-8.772355080E0,8.665813446E0
1.917118001E0,6.418854713E0,-6.877344608E0,7.706935406E0
1.922118167E0,5.200206280E0,-6.513425827E0,5.815515995E0
1.927281292E0,2.780865192E0,-6.161478043E0,4.995501995E0
1.931930084E0,3.074155092E0,-4.824316502E0,4.292803764E0
1.937249501E0,3.436876535E0,-4.988319397E0,3.192667961E0
1.942124542E0,2.889801502E0,-6.564900875E0,2.464830637E0
1.947131501E0,3.062183857E0,-6.554127216E0,2.339135170E0
1.951904042E0,3.139995575E0,-6.297947407E0,2.160767078E0
1.957439417E0,3.548206806E0,-5.658695698E0,1.758541107E0
1.962043459E0,3.609259129E0,-5.284003258E0,1.528697729E0
1.967359792E0,3.329137564E0,-4.587290287E0,1.313219666E0
1.972359792E0,2.999934673E0,-4.037821293E0,1.884236693E0
1.975057709E0,2.999934673E0,-4.037821293E0,1.884236693E0
1.977955334E0,2.213439465E0,-4.150348663E0,2.782062292E0
1.982077709E0,7.900865376E-2,-4.450820923E0,2.033874273E0
1.987214709E0,-7.721300721E-1,-4.071340084E0,9.481038451E-1
1.992214709E0,-1.616086215E-1,-3.949235678E0,9.145850539E-1
1.996358876E0,-1.616086215E-1,-3.949235678E0,9.145850539E-1
2.001965876E0,7.601590157E-1,-3.775655985E0,3.554192305E0
2.007073501E0,9.397241473E-1,-3.617638826E0,4.147954464E0
2.013095042E0,1.380257249E0,-3.581725836E0,4.715380192E0
2.017189584E0,2.154781580E0,-3.635595322E0,5.319916248E0
2.022050542E0,2.923320293E0,-3.356670856E0,5.274426460E0
2.027830917E0,3.663128614E0,-2.826355219E0,4.879383087E0
2.032212001E0,4.311957359E0,-2.500743628E0,4.699818134E0
2.037204834E0,4.472368717E0,-2.607285738E0,4.612429619E0
2.042204834E0,3.867832899E0,-3.087323189E0,4.380191803E0
2.044076917E0,3.867832899E0,-3.087323189E0,4.380191803E0
2.046940417E0,2.677914619E0,-3.891774893E0,4.013879299E0
2.051817626E0,1.516726732E0,-4.759673119E0,3.833117008E0
2.057093042E0,-1.915361360E-2,-6.010643482E0,3.737348795E0
2.062459709E0,-1.424550056E0,-6.987477779E0,3.325546265E0
2.067399876E0,-1.151610970E0,-7.787140846E0,3.586514235E0
2.072086709E0,-1.689109325E0,-8.321047783E0,2.900575399E0
2.077397959E0,-1.723825216E0,-8.438364029E0,1.006761789E0
2.081837917E0,-1.582567334E0,-8.105569839E0,2.970007181E0
2.087092376E0,-1.970427990E0,-8.215703011E0,6.234501362E0
2.092083417E0,-1.812410712E0,-9.076418877E0,8.498218536E0
2.097119584E0,-8.307880163E-1,-9.902418137E0,9.121908188E0
2.101976876E0,2.968810201E-1,-1.023281765E1,8.941145897E0
2.107125292E0,7.541735172E-1,-9.861717224E0,8.216899872E0
2.111972667E0,6.631938815E-1,-9.433155060E0,7.129932880E0
2.117428751E0,8.224082589E-1,-9.319430351E0,6.254851818E0
2.121911126E0,1.395819545E0,-9.399636269E0,6.447585106E0
2.127078459E0,1.708262920E0,-9.850942612E0,7.119158745E0
2.131950917E0,1.341950059E0,-1.041357994E1,7.669825077E0
2.137711876E0,5.985504389E-1,-1.092354488E1,7.620744228E0
2.142328417E0,-1.975216419E-1,-1.148019695E1,7.746439457E0
2.147820043E0,-8.248024583E-1,-1.185249519E1,7.908048153E0
2.151953418E0,-1.665167332E0,-1.200692177E1,7.782352448E0
2.158012251E0,-3.541024208E0,-1.202128696E1,6.051344872E0
2.162726959E0,-2.026691675E0,-1.134971333E1,5.521028996E0
2.166908126E0,1.277306557E0,-8.129511833E0,5.220556736E0
2.172055334E0,1.850717902E0,-5.813121796E0,3.314772367E0
2.177284626E0,2.403778553E0,-4.844666958E0,1.941697598E0
2.182304043E0,2.747346401E0,-4.255693436E0,7.936778665E-1
2.186993668E0,3.034650564E0,-3.703830004E0,7.182604820E-2
2.192093126E0,6.023811340E0,-3.123236179E0,1.368286252E0
2.197190376E0,1.092953110E1,-1.980004787E0,2.621650934E0
2.201886584E0,1.488714600E1,-1.225831270E0,4.363432407E0
2.207022293E0,1.747767258E1,-1.468842745E0,6.755239964E0
2.212614709E0,1.847485733E1,-2.788047791E0,9.976638794E0
2.217117751E0,1.759618568E1,-4.836287498E0,1.166574764E1
2.221940543E0,1.557907009E1,-7.262810707E0,1.195305157E1
2.226940543E0,1.278503704E1,-9.199720383E0,1.134492493E1
2.229867334E0,1.278503704E1,-9.199720383E0,1.134492493E1
2.237095626E0,1.279700851E1,-9.356540680E0,9.929951668E0
2.242138959E0,1.302206326E1,-8.998606682E0,8.153453827E0
2.247081251E0,1.277426338E1,-8.508993149E0,7.085639954E0
2.253335084E0,1.477581596E1,-7.763198853E0,6.045359135E0
2.258059251E0,1.615008736E1,-6.526593685E0,4.598064423E0
2.261994126E0,1.610699272E1,-5.092466831E0,2.539050817E0
2.266972584E0,1.565448761E1,-3.405751944E0,3.639186621E-1
2.271823918E0,1.537556362E1,-1.978807688E0,-3.507505357E-1
2.278211043E0,1.542224979E1,-1.297657371E0,-7.469909191E-1
2.281813751E0,1.221761131E1,-2.438494444E0,-5.674257874E-1
2.287340001E0,7.115567684E0,-6.604405403E0,-7.278373241E-1
2.292340001E0,1.436521053E0,-1.111268711E1,1.121683478E0
2.297340001E0,1.436521053E0,-1.111268711E1,1.121683478E0
2.299121501E0,1.436521053E0,-1.111268711E1,1.121683478E0
2.302050918E0,-7.497442722E0,-1.611058235E1,2.415749550E0
2.307042126E0,-9.212887764E0,-1.630331612E1,3.877409697E0
2.311957043E0,-8.243236542E0,-1.575504398E1,5.039794445E0
2.317082959E0,-5.966350555E0,-1.471476364E1,5.525817394E0
2.321889668E0,-4.005499363E0,-1.373433781E1,5.443217754E0
2.327009418E0,-4.108449936E0,-1.382771206E1,4.388571739E0
2.331976293E0,-6.045359135E0,-1.439872932E1,3.020285368E0
2.337342668E0,-7.472303391E0,-1.478180122E1,1.061828494E0
2.342506459E0,-8.864531517E0,-1.543182659E1,1.065419763E-1
2.347776209E0,-7.763198853E0,-1.496854877E1,-1.059434295E0
2.351898834E0,-6.342240334E0,-1.394263363E1,-2.312798738E0
2.357362543E0,-4.121618271E0,-1.299572659E1,-3.124433279E0
2.362249668E0,-3.086126089E0,-1.243308926E1,-3.163937569E0
2.367166418E0,-2.193088770E0,-1.256357384E1,-2.810792685E0
2.372039876E0,-8.774749041E-1,-1.272398472E1,-1.954865694E0
2.377158626E0,-8.774749041E-1,-1.272398472E1,-1.954865694E0
2.382273459E0,8.020575345E-2,-1.353083134E1,-1.306037068E0
2.387016459E0,5.674257874E-1,-1.491946793E1,-4.728548229E-1
2.391918209E0,1.252167463E0,-1.610699272E1,7.517793179E-1
2.397904501E0,2.287659645E0,-1.667920685E1,1.097741485E0
2.402120834E0,2.883816004E0,-1.715924263E1,1.878251195E0
2.407387418E0,3.652354717E0,-1.785715294E1,2.220622063E0
2.412387418E0,5.184643745E0,-1.796728706E1,1.703474522E0
2.417451251E0,5.184643745E0,-1.796728706E1,1.703474522E0
2.423111209E0,1.091636276E1,-1.700481796E1,1.659181833E0
2.429191543E0,1.236006641E1,-1.724663162E1,3.009511471E0
2.437382876E0,1.123479176E1,-1.579574585E1,3.145981073E0
2.442727751E0,7.071274757E0,-1.539591408E1,2.377442360E0
2.446663876E0,3.632004023E0,-1.521994019E1,1.254561663E0
2.452325293E0,1.201889277E0,-1.459026527E1,1.444900751E0
2.457520376E0,-5.027823523E-2,-1.325669479E1,2.009932280E0
2.462515126E0,-2.525882721E-1,-1.116416264E1,2.841917515E0
2.467415334E0,3.483563364E-1,-8.737639427E0,3.373430252E0
2.473738626E0,8.631097078E-1,-6.846219540E0,2.637213230E0
2.478738626E0,2.032677174E0,-4.909310818E0,1.185129806E-1
2.481983084E0,2.032677174E0,-4.909310818E0,1.185129806E-1
2.488171001E0,3.057395458E0,-4.636371613E0,-1.022324085E0
2.492809584E0,3.412934542E0,-4.468777657E0,-3.734954596E-1
2.497393043E0,4.763264179E0,-3.750516891E0,6.823474765E-1
2.503256293E0,6.949170589E0,-2.583343744E0,1.756146908E0
2.508227751E0,8.541314125E0,-1.883039594E0,2.015917778E0
2.512769376E0,8.598775864E0,-2.035071373E0,1.975216389E0
2.518479126E0,7.783549786E0,-2.651578426E0,2.097320795E0
2.522090834E0,6.415263653E0,-3.609259129E0,2.318784237E0
2.527403918E0,5.152322292E0,-4.456806660E0,2.715024710E0
2.531899834E0,4.886565685E0,-5.032611847E0,2.614468336E0
2.536948751E0,5.061342239E0,-5.359420300E0,2.460042238E0
2.541847584E0,4.958391666E0,-5.810727596E0,1.981201887E0
2.546847584E0,4.384980202E0,-6.961141586E0,9.600749016E-1
2.549144709E0,4.384980202E0,-6.961141586E0,9.600749016E-1
2.551814209E0,4.247313976E0,-7.636306286E0,2.932897210E-1
2.556944418E0,3.970783472E0,-7.964312077E0,1.197100878E-1
2.562077209E0,3.234566450E0,-8.281543732E0,-1.544260085E-1
2.566977626E0,2.234987259E0,-8.694543839E0,-7.422025204E-1
2.571913959E0,1.643619418E0,-9.162610054E0,-1.039083481E0
2.577155709E0,1.438915253E0,-9.562441826E0,-1.004367590E0
2.582161834E0,1.174355984E0,-9.874884605E0,-7.553706169E-1
2.586996126E0,1.013944387E0,-9.749189377E0,-6.117185354E-1
2.591996126E0,1.007958889E0,-9.652224541E0,-2.250549644E-1
2.595966543E0,1.007958889E0,-9.652224541E0,-2.250549644E-1
2.598474918E0,1.112106681E0,-9.995792389E0,3.363853395E-1
2.602032209E0,1.021126986E0,-1.071165848E1,7.098808289E-1
2.607088793E0,9.744400978E-1,-1.136407852E1,1.137245774E0
2.613160876E0,6.308721304E-1,-1.207395935E1,1.492784739E0
2.618837876E0,5.925649405E-1,-1.261744308E1,1.383848548E0
2.621987334E0,4.357447028E-1,-1.320881081E1,5.985504389E-1
2.627508918E0,2.334346622E-1,-1.380377007E1,-2.274491638E-1
2.632021168E0,1.903390288E-1,-1.415212631E1,-5.458779931E-1
2.637624918E0,3.699041605E-1,-1.419522190E1,-7.062894851E-2
2.642289084E0,5.410895944E-1,-1.384207726E1,-1.867477298E-1
2.647277209E0,6.979097724E-1,-1.323155594E1,-3.136404157E-1
2.652180959E0,6.368576288E-1,-1.254920864E1,-1.819593310E-1
2.657328043E0,9.576807022E-1,-1.127668953E1,6.787561774E-1
2.662328043E0,1.218648672E0,-9.774328232E0,1.434126854E0
2.664413501E0,1.218648672E0,-9.774328232E0,1.434126854E0
2.669168709E0,4.333505034E-1,-8.656236649E0,3.453635931E0
2.673341668E0,-1.358709455E0,-8.694543839E0,4.859032154E0
2.677530084E0,-2.677914619E0,-9.515754700E0,5.159504890E0
2.682530084E0,-2.802412987E0,-1.054047298E1,4.677073002E0
2.686991501E0,-2.802412987E0,-1.054047298E1,4.677073002E0
2.692016668E0,5.027823523E-2,-1.156279755E1,3.932476282E0
2.693745876E0,5.027823523E-2,-1.156279755E1,3.932476282E0
2.697420793E0,3.128024578E0,-9.706093788E0,3.720589399E0
2.702303751E0,5.895721912E0,-7.150283337E0,2.791639090E0
2.707006043E0,7.129932880E0,-4.972756863E0,2.698265314E0
2.712006751E0,7.382521152E0,-4.266467571E0,2.522291422E0
2.717603126E0,7.879317760E0,-4.331110954E0,2.959233284E0
2.722194376E0,8.400056839E0,-4.120420933E0,3.229778051E0
2.727356376E0,7.862558365E0,-3.764882088E0,1.074996591E0
2.732026834E0,5.949591160E0,-3.824737310E0,-1.547851443E0
2.738048168E0,2.069787264E0,-4.578910828E0,-2.652775526E0
2.741906334E0,6.799532771E-1,-5.374982834E0,-1.655590534E0
2.747404918E0,7.637503147E-1,-5.597643375E0,6.464344263E-2
2.752083584E0,2.547430515E0,-5.285200119E0,3.351882473E-2
2.757117918E0,3.979163170E0,-5.416881561E0,2.161964178E0
2.761981376E0,3.630806923E0,-6.283582211E0,2.742558002E0
2.767240168E0,2.970007181E0,-8.058882713E0,3.561375141E0
2.771938168E0,2.826355219E0,-9.397241592E0,3.535038710E0
2.777378959E0,4.079719543E0,-9.625887871E0,1.531091928E0
2.781959918E0,4.929661274E0,-1.043273354E1,1.520318031E0
2.787191626E0,5.342660904E0,-1.018014526E1,3.412934542E0
2.791976293E0,5.604825974E0,-9.130288124E0,4.996698856E0
2.797466626E0,4.911705017E0,-7.402871609E0,4.116829872E0
2.803234501E0,3.688267708E0,-5.918466568E0,3.075352192E0
2.807187084E0,2.167949677E0,-5.487510204E0,2.282871246E0
2.812470543E0,4.118026793E-1,-6.263231754E0,1.054645896E0
2.817245959E0,-8.403648138E-1,-7.886500359E0,-8.942343593E-1
2.821930834E0,-1.648407817E0,-9.686940193E0,-2.163161278E0
2.827113626E0,-1.768117905E0,-1.158314800E1,-2.735375404E0
2.832145084E0,-7.553706169E-1,-1.318367195E1,-2.766499996E0
2.837997584E0,7.374141216E-1,-1.417726517E1,-2.278082848E0
2.842168001E0,1.588552833E0,-1.452562141E1,-2.161964178E0
2.847772710E0,2.055422068E0,-1.437957573E1,-1.839944005E0
2.852067335E0,2.742558002E0,-1.375588608E1,-1.869871497E0
2.857266085E0,3.402160645E0,-1.310825443E1,-1.974019289E0
2.861977251E0,3.976768970E0,-1.190516758E1,-2.014720678E0
2.867567460E0,2.407369852E0,-1.181299114E1,-2.464830637E0
2.871899335E0,7.110779285E-1,-1.231098557E1,-1.808819413E0
2.877686710E0,-1.634042621E0,-1.322556973E1,-7.410054207E-1
2.882556460E0,-2.328361034E0,-1.351766300E1,1.807622313E-1
2.887224251E0,-2.944868088E0,-1.337520790E1,4.273650050E-1
2.892224251E0,-4.627991676E0,-1.319205093E1,6.584054977E-2
2.896308501E0,-4.627991676E0,-1.319205093E1,6.584054977E-2
2.902740460E0,-7.754819393E0,-1.381095219E1,2.047042400E-1
2.907240710E0,-8.127118111E0,-1.423352909E1,-1.197100878E-1
2.912103418E0,-8.821435928E0,-1.405396366E1,-1.083376288E0
2.918107085E0,-8.328230858E0,-1.356674385E1,-2.087743998E0
2.922208543E0,-7.880515099E0,-1.304720211E1,-2.152387381E0
2.927334085E0,-6.361393929E0,-1.243189240E1,-1.244984865E0
2.932334085E0,-1.873462796E0,-1.166694450E1,5.901707411E-1
2.934079918E0,-1.873462796E0,-1.166694450E1,5.901707411E-1
2.937339210E0,-9.337386489E-2,-1.111867237E1,9.457096457E-1
2.942031335E0,-1.294066072E0,-1.097980881E1,2.813186944E-1
2.947200626E0,-1.163581967E0,-1.111029339E1,-2.681505978E-1
2.952104876E0,-1.013944387E0,-1.128387260E1,-9.804255962E-1
2.957193835E0,-1.063025594E0,-1.115817738E1,-1.754949808E0
2.961936168E0,5.925649405E-1,-1.093431950E1,-2.223016262E0
2.966936168E0,2.215833664E0,-1.060511684E1,-4.333505034E-1
2.972951293E0,2.215833664E0,-1.060511684E1,-4.333505034E-1
2.977283668E0,2.797624588E0,-9.385271072E0,4.267664433E0
2.982292668E0,2.450465441E0,-8.681375504E0,2.688688517E0
2.987738168E0,2.682703018E0,-7.592013359E0,-1.819593310E-1
2.992270460E0,2.894589901E0,-6.084863663E0,-1.721431017E0
2.997489751E0,1.241393566E0,-4.991910458E0,-2.313995838E0
3.002489751E0,-1.450886250E0,-4.704606533E0,-1.576581836E0
3.004244835E0,-1.450886250E0,-4.704606533E0,-1.576581836E0
3.007670376E0,-3.049015760E0,-4.947618008E0,2.142810524E-1
3.011942793E0,-4.554968834E0,-5.729324818E0,1.734599113E0
3.017161793E0,-4.911705017E0,-6.610390663E0,2.564189911E0
3.022047043E0,-4.025850296E0,-7.156269073E0,2.248155355E0
3.026996251E0,-2.553416014E0,-7.358579159E0,1.194706678E0
3.032877043E0,-1.364694953E0,-7.310694695E0,3.902548850E-1
3.037127210E0,-9.744400978E-1,-7.181407928E0,3.986345828E-1
3.041923126E0,-8.547300100E-1,-7.012616634E0,4.584896266E-1
3.047187293E0,2.310404629E-1,-6.783970356E0,3.327940404E-1
3.052421876E0,1.544260144E0,-6.637924194E0,1.508347094E-1
3.057579543E0,2.741360903E0,-6.521805286E0,-1.328781992E-1
3.062601585E0,3.475183725E0,-6.479907036E0,5.386953801E-2
3.067263251E0,3.342305660E0,-6.570886612E0,-1.352723986E-1
3.073069168E0,2.456450939E0,-7.040150166E0,2.188300371E0
3.077333543E0,2.342726469E0,-7.592013359E0,4.126406670E0
3.081905960E0,3.162740469E0,-7.651868820E0,3.598485231E0
3.087120251E0,4.272452831E0,-7.237671852E0,2.856282711E0
3.092176668E0,5.286397457E0,-6.531382084E0,2.558204412E0
3.097300710E0,5.294776917E0,-6.102819920E0,2.711433411E0
3.101911585E0,5.133168221E0,-5.798756599E0,3.023876667E0
3.107252835E0,3.215412855E0,-6.303933144E0,2.613271236E0
3.111899543E0,-6.105214357E-2,-8.028955460E0,5.063736439E-1
3.117825835E0,-4.027047157E0,-1.005445004E1,-2.232593060E0
3.121912460E0,-7.155071735E0,-1.135450172E1,-3.040636063E0
3.127528460E0,-7.684190273E0,-1.165617085E1,-2.133233786E0
3.132074668E0,-5.220556736E0,-1.128746414E1,2.154781483E-2
3.138188668E0,-2.433706045E0,-1.079784966E1,1.698686123E0
3.141977793E0,-4.501099288E-1,-1.043393135E1,2.505532026E0
3.147134085E0,-4.501099288E-1,-1.043393135E1,2.505532026E0
3.152134085E0,1.404199243E0,-1.022802925E1,2.913743496E0
3.153931876E0,1.404199243E0,-1.022802925E1,2.913743496E0
3.157075876E0,2.937685490E0,-1.008198357E1,3.043030262E0
3.161866710E0,4.191050053E0,-9.927556992E0,2.946065187E0
3.167487751E0,4.775235176E0,-9.789890289E0,2.728192806E0
3.172051793E0,4.881777287E0,-9.512163162E0,1.856703401E0
3.177563210E0,4.689043999E0,-8.836998940E0,6.512228847E-1
3.182074751E0,3.921702385E0,-8.242039680E0,-1.376665980E-1
3.187088710E0,2.938882589E0,-7.914033890E0,-6.093243361E-1
3.192088710E0,1.804031014E0,-7.909245491E0,-6.572083831E-1
3.195911960E0,1.804031014E0,-7.909245491E0,-6.572083831E-1
3.201931793E0,-1.264138460E0,-8.799888611E0,-8.224082589E-1
3.207051376E0,-2.971204281E0,-9.196128845E0,-8.583213091E-1
3.212488335E0,-3.979163170E0,-9.539696693E0,-2.035071403E-1
3.218455585E0,-3.539827108E0,-9.671378136E0,8.451532125E-1
3.223140460E0,-2.361880064E0,-9.804255486E0,1.505952835E0
3.226855251E0,-1.446097851E0,-9.884461403E0,1.714248419E0
3.231846085E0,-1.407790542E0,-1.004726696E1,1.721431017E0
3.238176751E0,-2.285265446E0,-1.016937160E1,1.495178938E0
3.241918251E0,-3.426102638E0,-1.025197124E1,1.227028370E0
3.247058168E0,-4.340687752E0,-1.042794514E1,9.696516991E-1
3.252143251E0,-4.566939831E0,-1.061948204E1,9.768342972E-1
3.257143251E0,-4.218583584E0,-1.053089619E1,1.334767461E0
3.260593626E0,-4.218583584E0,-1.053089619E1,1.334767461E0
3.267242168E0,-2.208651066E0,-9.955090523E0,2.450465441E0
3.269168960E0,-2.208651066E0,-9.955090523E0,2.450465441E0
3.272551251E0,-1.393425345E0,-9.697713852E0,2.494758129E0
3.277184126E0,-1.066616893E0,-9.429563522E0,2.087743998E0
3.281885335E0,-1.507149935E0,-9.311050415E0,3.208230257E0
3.287300501E0,-1.885433793E0,-9.343372345E0,4.716577530E0
3.291919668E0,-1.067813993E0,-9.125499725E0,4.070142746E0
3.297332793E0,3.399766386E-1,-8.586804390E0,3.172317266E0
3.303282751E0,2.470816135E0,-7.836222172E0,2.766499996E0
3.307275460E0,5.487510204E0,-7.043741226E0,2.998737574E0
3.312155918E0,8.060079575E0,-6.546944618E0,4.016273499E0
3.317155918E0,9.684545517E0,-6.092046261E0,4.756081581E0
3.319295251E0,9.684545517E0,-6.092046261E0,4.756081581E0
3.323143835E0,9.855731010E0,-6.033388138E0,4.417302132E0
3.327068626E0,7.846996307E0,-7.949946880E0,3.405751944E0
3.331981168E0,6.211756229E0,-1.047343540E1,2.379836559E0
3.336981168E0,5.280411720E0,-1.106719780E1,2.111685991E0
3.338869543E0,5.280411720E0,-1.106719780E1,2.111685991E0
3.341940043E0,3.268085241E0,-9.518148422E0,2.497152328E0
3.346872793E0,1.939303398E0,-8.404845238E0,2.030282974E0
3.352342418E0,2.250549644E-1,-8.210914612E0,4.668693244E-1
3.357249585E0,-5.434837937E-1,-8.046912193E0,-7.661445141E-1
3.361901376E0,-2.537853718E-1,-7.779958248E0,2.717418969E-1
3.367082126E0,3.220201433E-1,-7.855375767E0,2.700659513E0
3.371972626E0,3.136404157E-1,-8.497021675E0,4.496310711E0
3.377239251E0,-2.525882721E-1,-8.888473511E0,3.207033157E0
3.381979126E0,-1.504755735E0,-8.905233383E0,9.923965931E-1
3.387139126E0,-2.711433411E0,-8.603564262E0,-7.050924301E-1
3.391991668E0,-3.222595453E0,-8.287528992E0,-1.268926859E0
3.396991668E0,-3.071760893E0,-7.902062893E0,-1.424550056E0
3.398911168E0,-3.071760893E0,-7.902062893E0,-1.424550056E0
3.402928376E0,-2.072181463E0,-7.575253963E0,-1.547851443E0
3.406907043E0,-4.082113802E-1,-7.242460251E0,-1.243787766E0
3.411841168E0,1.341950059E0,-7.237671852E0,-8.846575022E-1
3.417103418E0,3.106476784E0,-7.540538311E0,-8.379706144E-1
3.421910501E0,4.711789131E0,-8.088809967E0,-5.650315881E-1
3.427517043E0,5.962759495E0,-8.677783966E0,-8.463503122E-1
3.432044460E0,7.138312340E0,-9.015366554E0,-1.702277422E0
3.437718668E0,7.050923824E0,-9.261969566E0,-1.046266198E0
3.442009126E0,6.587646008E0,-9.835380554E0,-4.165911078E-1
3.447019126E0,6.209362030E0,-1.002811337E1,3.639186621E-1
3.451999918E0,6.184223175E0,-9.815030098E0,1.538274646E0
3.457716335E0,5.305551052E0,-9.989806175E0,2.262520552E0
3.462000710E0,3.859453201E0,-1.025915432E1,2.652775526E0
3.467497585E0,2.446874142E0,-1.047463226E1,3.325546265E0
3.472026835E0,1.513135433E0,-1.088763237E1,3.841496706E0
3.477032043E0,1.637633920E0,-1.089481449E1,4.786009312E0
3.481877168E0,2.627636433E0,-1.061110210E1,4.947618008E0
3.487490876E0,3.509899616E0,-1.117373943E1,1.107318282E0
3.492490876E0,4.062960148E0,-1.171602631E1,-3.648763418E0
3.497321960E0,4.062960148E0,-1.171602631E1,-3.648763418E0
3.501855168E0,3.857059002E0,-1.275151825E1,-4.179079056E0
3.508122876E0,2.636016130E0,-1.312621117E1,-5.313930511E0
3.511843543E0,1.107318282E0,-1.277905178E1,-6.088454723E0
3.517126085E0,2.896983922E-1,-1.197579670E1,-6.206967831E0
3.521907085E0,-1.747767180E-1,-1.141914463E1,-5.586869717E0
3.527068293E0,-8.738835901E-2,-1.069130802E1,-4.101267338E0
3.531840793E0,1.436521020E-2,-1.061828423E1,-9.241618514E-1
3.537311168E0,6.787561774E-1,-1.241273880E1,8.129511833E0
3.541991752E0,1.686715126E0,-1.434126854E1,1.502481270E1
3.547292877E0,2.224213362E0,-1.578616905E1,1.558026791E1
3.551965960E0,2.274491549E0,-1.712333107E1,1.234091282E1
3.557237418E0,2.475604534E0,-1.732803535E1,8.669404030E0
3.562050627E0,2.551021814E0,-1.733162689E1,5.026626587E0
3.566830335E0,2.310404539E0,-1.752076721E1,1.832761407E0
3.572019627E0,1.667561531E0,-1.780328369E1,-6.368576288E-1
3.577196043E0,6.021417379E-1,-1.772906303E1,-2.582146645E0
3.582505835E0,-6.703764796E-1,-1.708741760E1,-3.847482204E0
3.587505835E0,-1.280897856E0,-1.683722305E1,-3.970783472E0
3.589486752E0,-1.280897856E0,-1.683722305E1,-3.970783472E0
3.597173918E0,-2.730587006E0,-1.661456299E1,-3.160346270E0
3.601868585E0,-4.089296341E0,-1.527740097E1,-2.985569477E0
3.607085918E0,-4.793191910E0,-1.189798546E1,-3.236960649E0
3.611845335E0,-4.235342979E0,-7.903259754E0,-3.167528868E0
3.617005668E0,-3.568557739E0,-5.527014732E0,-2.439691544E0
3.622005668E0,-2.808398485E0,-5.023035049E0,-1.256955862E0
3.625689377E0,-2.808398485E0,-5.023035049E0,-1.256955862E0
3.633261418E0,-7.649474144E-1,-6.570886612E0,3.902548850E-1
3.637361335E0,1.867477298E-1,-7.176619530E0,9.133879542E-1
3.642361335E0,8.726865053E-1,-7.496245384E0,1.254561663E0
3.644290585E0,8.726865053E-1,-7.496245384E0,1.254561663E0
3.647354585E0,1.329979062E0,-7.662642479E0,1.549048543E0
3.652589627E0,1.599326730E0,-7.825448036E0,1.764526606E0
3.657589627E0,1.714248419E0,-8.051700592E0,1.934514999E0
3.659400918E0,1.714248419E0,-8.051700592E0,1.934514999E0
3.662219835E0,1.788468719E0,-8.370129585E0,2.140416384E0
3.667934960E0,1.853112102E0,-8.769960403E0,2.308010340E0
3.673057127E0,2.006340981E0,-9.191340446E0,2.409764051E0
3.677546918E0,2.240972757E0,-9.485827446E0,2.217030764E0
3.682601627E0,2.346317768E0,-9.655815125E0,1.916558504E0
3.687216127E0,2.313995838E0,-9.805453300E0,1.455674648E0
3.692263710E0,2.425326347E0,-9.932345390E0,1.173158884E0
3.697565835E0,2.596511841E0,-9.975440979E0,1.039083481E0
3.702565835E0,2.700659513E0,-9.841365814E0,9.109937549E-1
3.705314043E0,2.700659513E0,-9.841365814E0,9.109937549E-1
3.711984543E0,2.440888643E0,-9.137471199E0,1.028309584E0
3.717213377E0,2.304419041E0,-8.819042206E0,1.161187768E0
3.722519460E0,2.382230759E0,-8.429984093E0,1.359906554E0
3.727376585E0,2.588132143E0,-7.885303497E0,1.302445769E0
3.732063168E0,2.730587006E0,-7.199364662E0,1.158793569E0
3.737090710E0,2.776076794E0,-6.683413982E0,1.121683478E0
3.742003418E0,2.864662409E0,-6.432023048E0,1.173158884E0
3.746988043E0,3.057395458E0,-6.338648796E0,1.400607944E0
3.751958960E0,3.227383852E0,-6.104017258E0,1.770512104E0
3.758107002E0,3.387795448E0,-5.734113216E0,2.361880064E0
3.762022710E0,3.350685358E0,-5.352237701E0,3.301604033E0
3.766966627E0,3.163937569E0,-5.021838188E0,4.468777657E0
3.772012585E0,3.347094059E0,-5.122394562E0,5.632359505E0
3.777230835E0,3.621230125E0,-5.445611954E0,6.054935932E0
3.781832043E0,3.846285105E0,-6.009446144E0,5.342660904E0
3.787041002E0,4.414907932E0,-6.563704014E0,4.554968834E0
3.792041002E0,5.074510574E0,-6.736086369E0,3.879803896E0
3.796249877E0,5.074510574E0,-6.736086369E0,3.879803896E0
3.801995710E0,5.072116375E0,-6.852205276E0,2.316390038E0
3.807052252E0,5.158307552E0,-6.532579422E0,1.780089021E0
3.811876043E0,5.612008572E0,-6.007051945E0,1.825578809E0
3.817457710E0,5.999869347E0,-5.743690014E0,2.196680069E0
3.821929960E0,6.172252178E0,-5.916072369E0,2.758120298E0
3.827134752E0,6.058527470E0,-6.503849030E0,3.126827478E0
3.831858377E0,5.968744755E0,-7.044938564E0,3.579331636E0
3.837350043E0,5.882553577E0,-7.625532627E0,3.732560396E0
3.842230502E0,5.826289654E0,-8.268375397E0,3.924096584E0
3.848081377E0,5.408501625E0,-9.249998093E0,4.388571739E0
3.853094252E0,4.613626480E0,-1.064701462E1,5.021838188E0
3.858840252E0,3.626018524E0,-1.207874775E1,5.216965675E0
3.862459168E0,3.019088268E0,-1.362061310E1,5.038597584E0
3.867891335E0,2.826355219E0,-1.529176617E1,4.098873138E0
3.871936043E0,3.633201122E0,-1.691982269E1,1.698686123E0
3.877404668E0,5.284003258E0,-1.768596840E1,-2.606088638E0
3.881944127E0,5.658695698E0,-1.919072342E1,-6.631938934E0
3.887546085E0,5.541379929E0,-2.098517799E1,-1.111149025E1
3.891937377E0,4.199429989E0,-2.257013893E1,-1.545936012E1
3.896937377E0,1.607706428E0,-2.195842171E1,-1.638591576E1
3.899389335E0,1.607706428E0,-2.195842171E1,-1.638591576E1
3.901997127E0,-1.382651448E0,-1.965519905E1,-1.260906315E1
3.907543585E0,-3.616441727E0,-1.799003220E1,-6.969521046E0
3.912117002E0,-3.809175014E0,-1.672349930E1,-1.074996591E0
3.917216002E0,-3.268085241E0,-1.556949329E1,4.632780075E0
3.922089418E0,-3.076549292E0,-1.481771469E1,9.815030098E0
3.927142918E0,-3.110068083E0,-1.341710663E1,1.260666943E1
3.932008127E0,-3.110068083E0,-1.341710663E1,1.260666943E1
3.937049252E0,-4.295197964E0,-1.199973869E1,1.193389797E1
3.943122668E0,-5.712565422E0,-1.125514221E1,9.787496567E0
3.947626668E0,-5.723339081E0,-1.072123528E1,8.456320763E0
3.951817502E0,-4.920084476E0,-1.042914295E1,6.930016994E0
3.957200168E0,-3.502717018E0,-1.044470501E1,5.688623428E0
3.962204085E0,-1.795651317E0,-1.059673691E1,4.734533787E0
3.967159252E0,1.472434103E-1,-1.074517727E1,4.101267338E0
3.971984127E0,1.906981707E0,-1.055004978E1,2.896984100E0
3.977812293E0,2.585737944E0,-1.026274586E1,7.709329724E-1
3.981973377E0,2.376245260E0,-1.020049667E1,-1.030703783E0
3.987201543E0,1.804031014E0,-1.032499504E1,-1.134851575E0
3.991960377E0,1.191115379E0,-1.090917969E1,-1.041477680E0
3.997588085E0,1.660378933E0,-1.133415127E1,-1.561019540E0
4.001824960E0,3.167528868E0,-1.145864964E1,-1.994369984E0
4.006972335E0,4.593276024E0,-1.157357121E1,-2.899378300E0
4.011863752E0,5.675455093E0,-1.141435623E1,-3.433285236E0
4.017160502E0,6.325480938E0,-1.080263805E1,-3.189076662E0
4.022280543E0,6.730101109E0,-9.605537415E0,-2.858676910E0
4.027430960E0,6.731297970E0,-8.635885239E0,-2.966415882E0
4.032169460E0,6.561309814E0,-7.715314865E0,-3.611653328E0
4.037231543E0,6.379350662E0,-6.950367451E0,-2.038662672E0
4.042637002E0,5.967547894E0,-6.557718277E0,-1.938106298E0
4.047054210E0,5.528211594E0,-6.064512730E0,-1.174355984E0
4.051887085E0,5.237316132E0,-5.527014732E0,3.591302410E-2
4.057044918E0,4.754884720E0,-4.776432514E0,-5.458779931E-1
4.062044918E0,4.681861401E0,-4.266467571E0,-1.431732655E0
4.063813293E0,4.681861401E0,-4.266467571E0,-1.431732655E0
4.070283918E0,5.020640850E0,-4.174290657E0,9.097966552E-1
4.077170460E0,3.339911461E0,-4.458003521E0,3.882198095E0
4.082199668E0,1.477222443E0,-4.696226597E0,3.007117271E0
4.086999752E0,-2.645592988E-1,-5.025429249E0,1.856703401E0
4.091999752E0,-1.646013618E0,-5.379771233E0,1.064222693E0
4.095920502E0,-1.646013618E0,-5.379771233E0,1.064222693E0
4.101835627E0,-3.088520288E0,-8.276755333E0,3.262099743E0
4.107233502E0,-2.880224705E0,-9.398438454E0,3.970783472E0
4.111878168E0,-1.831564307E0,-9.477447510E0,1.786074519E0
4.117219877E0,-9.576807022E-1,-9.095572472E0,8.212111592E-1
4.122416668E0,-5.111620426E-1,-8.653841972E0,9.900023937E-1
4.127045960E0,-3.315969408E-1,-8.528146744E0,1.352723956E0
4.132087168E0,-2.513911724E-1,-8.627506256E0,1.558625340E0
4.138034710E0,1.185129806E-1,-8.686163902E0,1.352723956E0
4.144088085E0,5.374982953E-1,-8.598775864E0,1.159990668E0
4.149088085E0,9.457096457E-1,-8.343792915E0,1.110909581E0
4.151396460E0,9.457096457E-1,-8.343792915E0,1.110909581E0
4.157835918E0,1.534683347E0,-7.593210697E0,1.102529883E0
4.162259918E0,1.576581836E0,-7.841010571E0,9.241618514E-1
4.167733377E0,1.404199243E0,-8.628703117E0,9.325415492E-1
4.171990793E0,1.391031146E0,-9.376891136E0,7.936778665E-1
4.177705752E0,1.248576164E0,-9.831789017E0,5.925649405E-1
4.182111543E0,9.648633003E-1,-1.008916569E1,2.801215947E-1
4.187589293E0,6.464344859E-1,-1.014542961E1,9.576806799E-3
4.192013585E0,4.309563041E-1,-9.849745750E0,-7.302315533E-2
4.198226752E0,7.062894851E-2,-9.466673851E0,-1.340752989E-1
4.202484627E0,-2.047042400E-1,-9.251194954E0,-2.106897533E-1
4.207277585E0,-3.962403834E-1,-9.314641953E0,-4.297592044E-1
4.212485543E0,-5.207388401E-1,-9.634267807E0,-4.944026470E-1
4.217363668E0,-1.089361757E-1,-9.782708168E0,-3.663128614E-1
4.222530127E0,5.075707436E-1,-9.557653427E0,-1.077390742E-2
4.227530127E0,1.007958889E0,-9.257181168E0,3.435679376E-1
4.229460668E0,1.007958889E0,-9.257181168E0,3.435679376E-1
4.232161460E0,1.255758762E0,-9.196128845E0,5.614402890E-1
4.236974960E0,1.448492050E0,-9.442731857E0,8.906430602E-1
4.241859585E0,1.728613615E0,-9.524134636E0,1.289277673E0
4.247117127E0,2.068590164E0,-9.433155060E0,1.602918029E0
4.251972877E0,2.438494444E0,-9.273940086E0,1.808819413E0
4.257254002E0,2.881421804E0,-9.106346130E0,1.984793186E0
4.261831544E0,3.187879562E0,-8.888473511E0,2.213439465E0
4.267005960E0,3.481169224E0,-8.684967041E0,2.179920673E0
4.271851460E0,3.946841478E0,-8.431180954E0,2.266111851E0
4.277895835E0,4.447229862E0,-8.204929352E0,2.810792685E0
4.282866169E0,4.843470097E0,-7.921216488E0,2.950853586E0
4.286953044E0,5.480327606E0,-7.184999466E0,3.281253338E0
4.292294460E0,5.890933514E0,-6.236895561E0,3.858256102E0
4.297324419E0,6.214150429E0,-5.335478306E0,4.158728123E0
4.301863044E0,6.256049156E0,-5.124788761E0,4.565742493E0
4.307072085E0,6.271611214E0,-6.084863663E0,4.453215122E0
4.311997085E0,5.968744755E0,-6.767210960E0,3.724180698E0
4.317883585E0,5.827486992E0,-7.298723698E0,2.685097218E0
4.322470169E0,5.759252071E0,-7.741651058E0,1.911770105E0
4.327887085E0,5.726930618E0,-8.259995461E0,1.622071624E0
4.331911127E0,5.840654850E0,-8.589199066E0,1.410184860E0
4.337347960E0,5.888539314E0,-8.281543732E0,1.528697729E0
4.342216502E0,5.762843609E0,-7.429207802E0,1.744175911E0
4.347304752E0,5.519832134E0,-6.512228489E0,1.985990286E0
4.352224169E0,5.076904774E0,-6.095637321E0,2.008735180E0
4.357607502E0,4.383783340E0,-6.374562263E0,2.329558372E0
4.363473044E0,3.289633036E0,-6.763619900E0,1.725022316E0
4.368512210E0,2.214636564E0,-7.702147007E0,1.872265697E0
4.372269085E0,1.523909330E0,-8.975862503E0,1.727416515E0
4.378597960E0,4.513070285E-1,-9.552865028E0,1.855506301E0
4.383443919E0,-8.248024583E-1,-9.502586365E0,2.358288765E0
4.388511794E0,-1.417367458E0,-8.793902397E0,9.846154213E0
4.393511794E0,-8.870517015E-1,-9.580398560E0,2.545036316E0
4.397357419E0,-8.870517015E-1,-9.580398560E0,2.545036316E0
4.400159460E0,-1.265335560E0,-1.036569595E1,-1.696291924E0
4.407374335E0,-2.200271368E0,-1.048540592E1,4.800374508E-1
4.412592877E0,-2.070984364E0,-1.078827286E1,1.769315004E0
4.417306127E0,-1.811213613E0,-1.142752457E1,2.120065689E0
4.422022377E0,-1.380257249E0,-1.224634171E1,1.550245643E0
4.427624960E0,-6.536170840E-1,-1.335485744E1,6.691793799E-1
4.432825085E0,2.370259613E-1,-1.466807652E1,-1.029506698E-1
4.437458752E0,1.473631144E0,-1.593221474E1,-1.424550056E0
4.442876335E0,2.996343374E0,-1.738190460E1,-2.415749550E0
4.448897419E0,4.363432407E0,-1.915361404E1,-3.940855980E0
4.452096669E0,5.307945251E0,-2.111925316E1,-5.187037945E0
4.457374460E0,5.541379929E0,-2.316749191E1,-5.075707436E0
4.461904669E0,5.128379822E0,-2.480632401E1,-5.161899090E0
4.467654919E0,4.588487625E0,-2.568020821E1,-6.288370609E0
4.472495002E0,3.627215624E0,-2.560718346E1,-7.042544365E0
4.477123252E0,2.846705914E0,-2.410003471E1,-6.171054840E0
4.482123252E0,3.313575268E0,-2.197517967E1,-7.624335289E0
4.483750919E0,3.313575268E0,-2.197517967E1,-7.624335289E0
4.487206460E0,4.819528103E0,-1.927930832E1,-8.441955566E0
4.492259085E0,6.404489517E0,-1.650562668E1,-7.502231121E0
4.497852585E0,7.571662903E0,-1.438795471E1,-5.272032261E0
4.501899544E0,8.300697327E0,-1.298255825E1,-2.636016130E0
4.507506294E0,8.149862289E0,-1.183334160E1,-3.986345828E-1
4.512022502E0,6.937199593E0,-1.085770512E1,1.970427990E0
4.517954877E0,4.383783340E0,-9.903614998E0,3.869029999E0
4.522407794E0,2.516305923E0,-9.147047997E0,5.981913090E0
4.527374294E0,2.505532026E0,-8.793902397E0,7.424419403E0
4.532261669E0,3.223792553E0,-8.562862396E0,9.375694275E0
4.537527877E0,3.554192305E0,-8.463502884E0,9.314641953E0
4.542032210E0,2.810792685E0,-8.354566574E0,5.822698593E0
4.547624210E0,1.203086376E0,-8.401253700E0,2.408566952E0
4.553954835E0,6.919242740E-1,-8.128314972E0,6.823474765E-1
4.559106210E0,5.339069963E-1,-7.584830761E0,-2.633621916E-2
4.562763044E0,1.048660398E0,-6.980295181E0,-1.335964561E0
4.568366752E0,1.661576033E0,-6.342240334E0,-2.936488390E0
4.572773710E0,1.867477298E0,-5.967547894E0,-3.737348795E0
4.577312294E0,1.634042621E0,-5.821501255E0,-3.269282341E0
4.582312294E0,1.733402014E0,-5.844246387E0,-2.916137695E0
4.586430002E0,1.733402014E0,-5.844246387E0,-2.916137695E0
4.592067419E0,2.661155224E0,-5.695806026E0,-2.801215887E0
4.597067419E0,2.691082716E0,-5.677849293E0,-2.518700123E0
4.600826752E0,2.691082716E0,-5.677849293E0,-2.518700123E0
4.605826752E0,2.455253839E0,-5.644330502E0,-2.152387381E0
4.611594044E0,2.455253839E0,-5.644330502E0,-2.152387381E0
4.617173169E0,1.200692177E0,-5.710171223E0,-1.255758762E0
4.622173169E0,7.805097699E-1,-5.943605900E0,-1.019929886E0
4.627148669E0,7.805097699E-1,-5.943605900E0,-1.019929886E0
4.633546877E0,1.161187813E-1,-6.424840450E0,-6.943184733E-1
4.637384710E0,1.161187813E-1,-6.424840450E0,-6.943184733E-1
4.642004544E0,-4.141969085E-1,-6.673837185E0,-2.873041928E-1
4.646921710E0,-4.896142483E-1,-6.791152954E0,1.077390760E-1
4.651814460E0,-5.398924947E-1,-6.889315605E0,6.488286853E-1
4.657022210E0,-7.110779285E-1,-6.914454460E0,1.108515382E0
4.661825210E0,-7.254431248E-1,-6.901286602E0,1.569399238E0
4.667091044E0,-8.176198602E-1,-6.959944248E0,1.971625090E0
4.671951294E0,-8.188169599E-1,-6.944382191E0,2.443282843E0
4.677412710E0,-8.080430627E-1,-6.855796337E0,2.749740601E0
4.682412710E0,-8.427590132E-1,-6.854599476E0,2.850297213E0
4.684415669E0,-8.427590132E-1,-6.854599476E0,2.850297213E0
4.687071669E0,-7.433996201E-1,-6.787561893E0,2.772485495E0
4.692071669E0,-7.433996201E-1,-6.787561893E0,2.772485495E0
4.695795585E0,-7.433996201E-1,-6.787561893E0,2.772485495E0
4.703045835E0,2.154781483E-2,-6.256049156E0,2.768894196E0
4.706967127E0,7.709329724E-1,-5.925649166E0,2.888604403E0
4.711838377E0,1.565807939E0,-5.659893036E0,2.998737574E0
4.717818252E0,2.365471363E0,-5.480327606E0,3.112462282E0
4.722433419E0,3.019088268E0,-5.325901508E0,3.198653460E0
4.727183419E0,3.446453333E0,-5.213374138E0,3.234566450E0
4.733483835E0,4.048594952E0,-4.952406406E0,3.375824451E0
4.737112252E0,4.978742599E0,-4.392162800E0,3.866635799E0
4.741836419E0,6.655880928E0,-3.701435804E0,4.600458622E0
4.746979294E0,8.556877136E0,-2.639607430E0,5.999869347E0
4.752795252E0,1.027471638E1,-2.019509077E0,6.511031628E0
4.757272835E0,1.172799683E1,-2.773682594E0,5.258863926E0
4.763453627E0,1.201530170E1,-4.752490520E0,3.394978046E0
4.767770794E0,1.113662910E1,-6.841431141E0,2.021903276E0
4.772489544E0,1.064222622E1,-8.281543732E0,1.798045516E0
4.777880585E0,1.000058079E1,-9.890447617E0,1.940500498E0
4.782880585E0,8.213309288E0,-1.197938824E1,1.890222192E0
4.785277460E0,8.213309288E0,-1.197938824E1,1.890222192E0
4.791854085E0,4.213795185E0,-1.467047119E1,2.288856745E0
4.796988294E0,2.783259392E0,-1.520557499E1,1.829170108E0
4.801988294E0,2.480392933E0,-1.489193439E1,1.413776159E0
4.806640502E0,2.480392933E0,-1.489193439E1,1.413776159E0
4.812005752E0,3.716998100E0,-1.310107136E1,1.923741102E0
4.817834419E0,4.760869980E0,-1.192432117E1,1.668758631E0
4.821989794E0,5.866991043E0,-1.069011021E1,1.314416766E0
4.826933460E0,6.575675011E0,-9.890447617E0,1.179144382E0
4.831867335E0,6.412869453E0,-9.755174637E0,9.014169574E-1
4.836867335E0,5.565321922E0,-1.048780060E1,-1.723825186E-1
4.838705210E0,5.565321922E0,-1.048780060E1,-1.723825186E-1
4.843348377E0,5.355829239E0,-1.187883186E1,-1.583764434E0
4.847469960E0,4.915296078E0,-1.345541382E1,-3.846285105E0
4.852469960E0,4.878185749E0,-1.440591145E1,-6.896498203E0
4.854716960E0,4.878185749E0,-1.440591145E1,-6.896498203E0
4.861956252E0,3.062183857E0,-1.582567310E1,-9.033323288E0
4.867281835E0,9.433154464E-1,-1.619916916E1,-6.720524311E0
4.872438044E0,-8.702923059E-1,-1.594179249E1,-2.922123194E0
4.877712419E0,-2.537853718E0,-1.483806515E1,1.655590534E0
4.881939835E0,-4.256890774E0,-1.350928307E1,5.923254967E0
4.888033752E0,-5.458779812E0,-1.247259331E1,6.975506783E0
4.892209127E0,-5.631162167E0,-1.163941193E1,5.051765442E0
4.897193669E0,-5.378573895E0,-1.093431950E1,3.104082584E0
4.902022210E0,-5.321113110E0,-1.018253994E1,3.359065056E0
4.907070502E0,-4.960785866E0,-9.475052834E0,3.682282209E0
4.912012669E0,-4.353855610E0,-9.179368973E0,3.992331266E0
4.917012669E0,-3.519476414E0,-9.461885452E0,4.144362926E0
4.920912835E0,-3.519476414E0,-9.461885452E0,4.144362926E0
4.927388210E0,-1.037886381E0,-9.700108528E0,4.177882195E0
4.931881335E0,1.185129806E-1,-9.709685326E0,3.770867586E0
4.937059919E0,6.739677787E-1,-1.016937160E1,2.877830505E0
4.941825586E0,1.186326981E0,-1.097142887E1,1.283292055E0
4.947058586E0,1.726219416E0,-1.219247246E1,-7.852981687E-1
4.952058586E0,2.372653961E0,-1.352245140E1,-2.433706045E0
4.954283544E0,2.372653961E0,-1.352245140E1,-2.433706045E0
4.957141752E0,3.114856482E0,-1.487876606E1,-3.342305660E0
4.961827711E0,3.567360640E0,-1.608664131E1,-3.288435936E0
4.967184836E0,3.859453201E0,-1.677736855E1,-3.136404276E0
4.971962586E0,3.499125719E0,-1.706108093E1,-3.160346270E0
4.977117294E0,2.667140722E0,-1.699045181E1,-3.503914118E0
4.981980711E0,1.917755604E0,-1.654273605E1,-3.881000996E0
4.987144627E0,1.035492182E0,-1.575624180E1,-3.983951569E0
4.992144627E0,7.900865674E-1,-1.452083302E1,-3.780444384E0
4.996361627E0,7.900865674E-1,-1.452083302E1,-3.780444384E0
5.003313211E0,7.900865674E-1,-1.180820274E1,-1.877054095E0
5.007265252E0,5.219359994E-1,-1.056321812E1,-2.609679997E-1
5.012649877E0,2.849099934E-1,-9.466673851E0,1.189918280E0
5.017364127E0,2.693476975E-1,-8.519766808E0,1.833958507E0
5.022081919E0,9.576806426E-2,-7.621941090E0,2.603694439E0
5.027611877E0,1.077390742E-2,-6.795941353E0,3.020285368E0
5.031963544E0,2.454056740E-1,-6.148310184E0,2.598906040E0
5.037747377E0,6.212953329E-1,-5.698200226E0,2.145204782E0
5.043240211E0,8.499416113E-1,-5.481524944E0,1.923741102E0
5.047880752E0,5.937620401E-1,-5.492298603E0,2.134430885E0
5.052880752E0,4.321534038E-1,-5.556941986E0,2.167949677E0
5.057725294E0,4.321534038E-1,-5.556941986E0,2.167949677E0
5.063593252E0,6.105214357E-2,-5.734113216E0,1.543063045E0
5.067537086E0,-7.182605099E-3,-5.866991043E0,1.385045648E0
5.073071461E0,1.077390760E-1,-6.120776653E0,8.978256583E-1
5.077333419E0,1.113303825E-1,-6.423643112E0,2.442085743E-1
5.082001294E0,5.386953801E-2,-6.786364555E0,-2.681505978E-1
5.087709877E0,-8.020575345E-2,-7.302315235E0,-5.494692922E-1
5.092270294E0,-9.576806426E-2,-7.712920666E0,-6.536170840E-1
5.097498211E0,-2.394201700E-3,-8.042123795E0,-8.798691034E-1
5.102408711E0,1.484405100E-1,-8.343792915E0,-8.714894056E-1
5.107686377E0,7.062895298E-1,-8.635885239E0,-3.064578176E-1
5.111979169E0,1.262941360E0,-8.730456352E0,1.448491961E-1
5.117184044E0,1.632845521E0,-8.823830605E0,3.423708379E-1
5.122065502E0,2.063801765E0,-8.920795441E0,1.161187813E-1
5.127645502E0,2.402581453E0,-9.072827339E0,-1.795651205E-2
5.131925211E0,2.510320425E0,-9.205705643E0,9.337386489E-2
5.137630294E0,2.523488522E0,-9.193734169E0,3.172317147E-1
5.142772502E0,2.540247917E0,-9.170989990E0,1.268926859E-1
5.147485044E0,2.455253839E0,-9.157821655E0,2.873042040E-2
5.152273836E0,2.209848166E0,-9.106346130E0,1.101332754E-1
5.157334544E0,2.201468468E0,-8.980650902E0,2.226607651E-1
5.162135711E0,2.234987259E0,-8.872911453E0,2.609679997E-1
5.167703502E0,2.227804661E0,-8.762778282E0,3.004723191E-1
5.172223836E0,2.500743628E0,-8.680178642E0,4.321534038E-1
5.177206877E0,2.786850691E0,-8.708909035E0,6.895300746E-1
5.181942461E0,3.056198359E0,-8.674192429E0,9.816226959E-1
5.187435711E0,3.162740469E0,-8.664615631E0,1.292868972E0
5.192241169E0,3.295618534E0,-8.535328865E0,1.655590534E0
5.197423252E0,3.434482336E0,-8.365341187E0,2.043451071E0
5.201945211E0,3.596091032E0,-8.110358238E0,2.398990154E0
5.207146377E0,3.507505417E0,-7.746439457E0,2.948459387E0
5.211923794E0,3.463212729E0,-7.241262913E0,3.336320162E0
5.217701044E0,3.476380825E0,-6.752845764E0,3.485957623E0
5.222701044E0,3.368641853E0,-6.274005413E0,3.762487888E0
5.225873252E0,3.368641853E0,-6.274005413E0,3.762487888E0
5.231958919E0,3.805583715E0,-4.999093056E0,4.753687382E0
5.237594044E0,4.116829872E0,-4.268861771E0,5.225345135E0
5.241951544E0,4.642356873E0,-3.635595322E0,5.199008942E0
5.247055877E0,5.236119270E0,-3.362656355E0,4.764461517E0
5.251877127E0,5.904101372E0,-3.317166567E0,4.463989258E0
5.257600544E0,6.578069210E0,-3.497928619E0,4.631583214E0
5.261856752E0,7.234080315E0,-4.085705280E0,4.770446777E0
5.267073586E0,7.656657219E0,-5.020640850E0,4.855441093E0
5.272190169E0,7.759607792E0,-6.108805656E0,4.915296078E0
5.277012752E0,7.473500729E0,-7.293935299E0,4.513070107E0
5.281870377E0,6.971915245E0,-8.467094421E0,3.785232782E0
5.287298502E0,6.271611214E0,-9.440337181E0,3.411737442E0
5.292298502E0,5.571307182E0,-1.024598598E1,3.209427357E0
5.296039711E0,5.571307182E0,-1.024598598E1,3.209427357E0
5.301988336E0,3.714603901E0,-1.134253025E1,2.409764051E0
5.307781044E0,2.082955360E0,-1.199614716E1,1.778891921E0
5.312106919E0,8.822633028E-1,-1.253364563E1,1.544260144E0
5.317943252E0,5.913678408E-1,-1.249773312E1,1.836352706E0
5.322145586E0,4.824316502E-1,-1.202727222E1,2.203862667E0
5.327099919E0,2.334346622E-1,-1.127908421E1,1.873462796E0
5.331944544E0,-3.112462163E-2,-1.053209305E1,1.060631394E0
5.336944544E0,-3.567360640E-1,-1.003409958E1,1.604115069E-1
5.338573211E0,-3.567360640E-1,-1.003409958E1,1.604115069E-1
5.342007377E0,-7.086837292E-1,-9.803058624E0,-5.638344884E-1
5.347105544E0,-6.607996821E-1,-9.716867447E0,-1.040280581E0
5.352082544E0,-3.292027414E-1,-9.798270226E0,-1.144428372E0
5.357535461E0,6.823474914E-2,-9.850942612E0,-9.983820915E-1
5.362016586E0,3.303998411E-1,-9.992200851E0,-4.537012279E-1
5.367400127E0,7.960720658E-1,-1.028549004E1,4.932055473E-1
5.372086377E0,1.555034041E0,-1.079425812E1,9.050082564E-1
5.377216877E0,2.296039343E0,-1.166814232E1,8.894459605E-1
5.381939336E0,3.131615877E0,-1.276827812E1,5.710170865E-1
5.387111627E0,3.841496706E0,-1.415571785E1,5.853823423E-1
5.392466502E0,4.572925091E0,-1.571194839E1,1.711854190E-1
5.397214794E0,5.008669853E0,-1.757822800E1,-5.674257874E-1
5.401991419E0,5.084087372E0,-1.954506493E1,-1.393425345E0
5.407488836E0,4.788403511E0,-2.149873352E1,-2.266111851E0
5.412039127E0,3.842693806E0,-2.334107208E1,-2.992752075E0
5.417108419E0,2.309207439E0,-2.488772583E1,-3.520673513E0
5.422137252E0,6.117185354E-1,-2.591603661E1,-4.025850296E0
5.427928794E0,-4.165911078E-1,-2.621770477E1,-4.945223808E0
5.432121836E0,-2.561795712E-1,-2.552099228E1,-6.465541840E0
5.437656461E0,9.636662006E-1,-2.375048065E1,-8.609549522E0
5.443549294E0,3.105279684E0,-2.120185280E1,-1.056202126E1
5.447513627E0,4.452018261E0,-1.827853203E1,-8.736441612E0
5.453444669E0,5.886145115E0,-1.550125885E1,-5.668272495E0
5.458444669E0,5.886145115E0,-1.550125885E1,-5.668272495E0
5.461135336E0,5.886145115E0,-1.550125885E1,-5.668272495E0
5.467078294E0,6.676231384E0,-1.115458584E1,-3.043030262E0
5.472128544E0,6.621164799E0,-8.706514359E0,1.561019540E0
5.478355544E0,6.501454830E0,-6.596025467E0,4.957194805E0
5.482208127E0,6.602011204E0,-5.658695698E0,4.267664433E0
5.487366336E0,7.553706169E0,-5.020640850E0,2.486378431E0
5.493057586E0,7.540538311E0,-4.513070107E0,2.252943754E0
5.497350961E0,6.866570473E0,-4.150348663E0,2.771288395E0
5.502172002E0,5.913678169E0,-4.169502258E0,2.535459518E0
5.507272086E0,4.331110954E0,-4.716577530E0,1.903390408E0
5.512198419E0,3.576937437E0,-4.966771603E0,1.189918280E0
5.517766752E0,3.025073767E0,-5.191826344E0,6.799532771E-1
5.522212044E0,2.778470993E0,-5.506663799E0,8.870517015E-1
5.526995169E0,2.491166830E0,-5.865794182E0,1.295263171E0
5.531990961E0,1.794454217E0,-6.289567947E0,1.423352957E0
5.537070711E0,1.145625472E0,-6.499060631E0,1.055842996E0
5.541933586E0,4.106055796E-1,-6.582857609E0,6.572083831E-1
5.546921169E0,-3.794809580E-1,-6.624756336E0,1.915361285E-1
5.551837419E0,-8.678981066E-1,-6.501454830E0,-7.661445439E-2
5.557241669E0,-1.247379065E0,-6.276399612E0,-2.011129409E-1
5.561977919E0,-1.350329757E0,-6.053739071E0,-1.795651317E-1
5.566950336E0,-1.316810966E0,-5.914875507E0,-5.147533491E-2
5.572056419E0,-1.182735682E0,-5.710171223E0,4.908113554E-2
5.577533961E0,-9.600749016E-1,-5.491101742E0,1.687912196E-1
5.581823877E0,-9.181763530E-1,-5.371391296E0,3.447650373E-1
5.587396336E0,-9.959878922E-1,-5.261258125E0,4.836287498E-1
5.592396336E0,-1.182735682E0,-5.263652325E0,5.722141862E-1
5.595953211E0,-1.182735682E0,-5.263652325E0,5.722141862E-1
5.602208669E0,-1.545457244E0,-5.371391296E0,5.937620401E-1
5.607214836E0,-1.709460020E0,-5.633556366E0,6.548141837E-1
5.611860961E0,-1.866280198E0,-5.974730492E0,7.422025204E-1
5.616976961E0,-1.972822189E0,-6.214150429E0,9.624691010E-1
5.621855544E0,-2.068590164E0,-6.329071999E0,1.150413871E0
5.627033044E0,-2.201468468E0,-6.447585106E0,1.242590666E0
5.631914252E0,-1.819593310E0,-6.384139061E0,1.308431268E0
5.637328586E0,-7.673416734E-1,-6.218938828E0,1.689109325E0
5.641983128E0,1.424549967E-1,-6.080075264E0,2.020706177E0
5.647136419E0,8.870517015E-1,-6.015431881E0,2.115277290E0
5.652133419E0,1.711854219E0,-5.929240704E0,1.996764183E0
5.657822628E0,2.400187254E0,-5.708973885E0,1.929726601E0
5.661854211E0,2.823961020E0,-5.286397457E0,2.167949677E0
5.666940169E0,3.357867956E0,-4.723760128E0,2.752134800E0
5.671944503E0,3.835511208E0,-4.264073372E0,3.333925962E0
5.677267961E0,4.553771496E0,-3.752911091E0,3.848679304E0
5.682053419E0,5.249287128E0,-2.904166698E0,4.626794815E0
5.687262044E0,6.427234650E0,-2.323572636E0,5.307945251E0
5.691981044E0,8.627506256E0,-3.181894064E0,4.645948410E0
5.696997878E0,1.015740108E1,-4.985925198E0,3.863044500E0
5.701893794E0,1.033217716E1,-7.097610950E0,3.254917145E0
5.707437044E0,9.277531624E0,-9.010578156E0,3.203441858E0
5.711837919E0,7.535749912E0,-1.085770512E1,3.748122692E0
5.717187919E0,5.650316238E0,-1.313219643E1,4.211400986E0
5.722004586E0,4.121618271E0,-1.499488544E1,4.702212334E0
5.727174711E0,3.060986757E0,-1.570835781E1,4.808753967E0
5.732066544E0,2.548627615E0,-1.569040108E1,4.135983467E0
5.737468086E0,2.521094322E0,-1.512656593E1,2.986766577E0
5.742163961E0,3.181894064E0,-1.435323906E1,2.080561161E0
5.747026878E0,4.243722439E0,-1.362300777E1,1.921346903E0
5.751897878E0,5.064933777E0,-1.281975269E1,2.398990154E0
5.757382086E0,6.221333027E0,-1.161307526E1,3.143586874E0
5.762061961E0,6.950367451E0,-1.091037750E1,3.452438831E0
5.767190378E0,6.701370716E0,-1.150294209E1,1.796848416E0
5.773556128E0,6.277596951E0,-1.307952404E1,-1.240196466E0
5.777405836E0,6.063315868E0,-1.460463047E1,-4.906916618E0
5.782072711E0,6.162675381E0,-1.614051056E1,-9.245209694E0
5.787023919E0,6.851007938E0,-1.730169868E1,-1.225591850E1
5.792594086E0,6.816292286E0,-1.790503693E1,-1.099297714E1
5.797060253E0,5.159504890E0,-1.860055351E1,-6.866570473E0
5.801910794E0,2.653972626E0,-1.907340813E1,-3.547009706E0
5.807086169E0,-1.783680320E-1,-1.799242592E1,-1.146822572E0
5.812086169E0,-2.169146776E0,-1.533845329E1,1.912967205E0
5.814481419E0,-2.169146776E0,-1.533845329E1,1.912967205E0
5.819206253E0,-3.256114244E0,-1.215895367E1,4.386177540E0
5.822890503E0,-4.183867455E0,-1.032140350E1,4.436455727E0
5.827135128E0,-4.750096321E0,-1.015021801E1,3.666719913E0
5.831990919E0,-4.969165802E0,-1.036449909E1,2.000355482E0
5.836990919E0,-5.214571476E0,-1.051533413E1,1.953668594E0
5.838832878E0,-5.214571476E0,-1.051533413E1,1.953668594E0
5.842692336E0,-4.845864296E0,-1.020648193E1,3.398569345E0
5.847449128E0,-4.113238335E0,-9.759963036E0,4.953603268E0
5.852677128E0,-3.471592426E0,-9.561244011E0,4.958391666E0
5.857639128E0,-2.856282711E0,-9.479841232E0,4.271255970E0
5.863496461E0,-2.442085743E0,-9.670180321E0,3.685873508E0
5.867192836E0,-2.130839586E0,-1.027471638E1,3.235763550E0
5.872241169E0,-1.989581585E0,-1.121204662E1,2.807201385E0
5.877678003E0,-1.823184609E0,-1.247738171E1,1.963245392E0
5.882098586E0,-1.381454349E0,-1.393425369E1,9.349357486E-1
5.887010503E0,-7.110779285E-1,-1.536838055E1,-2.154781520E-1
5.892010503E0,-1.316810995E-1,-1.671751404E1,-1.768117905E0
5.897896836E0,-1.316810995E-1,-1.671751404E1,-1.768117905E0
5.901922419E0,6.236895323E-1,-1.811333275E1,-4.352658749E0
5.907356336E0,7.266402245E-1,-1.787511063E1,-4.860229492E0
5.912356336E0,7.673416734E-1,-1.712213326E1,-5.594052315E0
5.914526836E0,7.673416734E-1,-1.712213326E1,-5.594052315E0
5.917148044E0,7.242460251E-1,-1.608544350E1,-5.371391296E0
5.921932836E0,5.446808934E-1,-1.484285355E1,-4.186261654E0
5.927357753E0,6.224924326E-1,-1.328542519E1,-3.137601376E0
5.932083586E0,7.481880188E-1,-1.157476807E1,-1.833958507E0
5.937165128E0,7.637503147E-1,-1.006522369E1,-1.041477770E-1
5.941851878E0,7.481880188E-1,-8.795100212E0,1.280897856E0
5.947021878E0,6.979097724E-1,-7.627926826E0,2.070984364E0
5.951838336E0,7.769184709E-1,-6.643909931E0,2.730587006E0
5.957189919E0,8.271966577E-1,-6.036979675E0,2.704250813E0
5.961836378E0,7.769184709E-1,-5.657498837E0,2.387019157E0
5.967029961E0,4.740519226E-1,-5.469553947E0,2.814383984E0
5.971852878E0,1.903390288E-1,-5.328295708E0,3.369838953E0
5.978199544E0,2.226607651E-1,-5.152322292E0,3.383007050E0
5.982425169E0,1.843535304E-1,-5.056553841E0,3.487154722E0
5.987849003E0,1.939303428E-1,-5.013458252E0,3.687070608E0
5.992342961E0,8.619125932E-2,-5.304353714E0,3.675099611E0
5.997767253E0,1.675941199E-1,-5.635950565E0,3.223792553E0
6.002002753E0,2.298433632E-1,-5.846640587E0,2.630030632E0
6.006908086E0,3.268085420E-1,-6.145915985E0,2.081758261E0
6.013245628E0,1.496376097E-1,-6.555324078E0,1.570596337E0
6.017994419E0,5.147533491E-2,-6.847416878E0,9.816226959E-1
6.022082378E0,4.548983276E-1,-6.959944248E0,3.375824392E-1
6.027150544E0,9.145850539E-1,-7.259219646E0,-1.915361360E-2
6.031981628E0,1.212663174E0,-7.560888767E0,-4.201824069E-1
6.037147586E0,1.471236944E0,-7.875726700E0,-7.577648163E-1
6.041883419E0,1.782483220E0,-8.090007782E0,-7.864952683E-1
6.047234336E0,2.039859772E0,-8.437167168E0,-5.913678408E-1
6.051872919E0,2.379836559E0,-8.652645111E0,-8.535329103E-1
6.057323544E0,2.592920542E0,-8.874108315E0,-1.212663174E0
6.063252378E0,2.719813108E0,-9.012971878E0,-1.295263171E0
6.067418794E0,2.879027605E0,-9.130288124E0,-1.058237195E0
6.072093003E0,3.193865061E0,-8.985439301E0,-6.344634295E-1
6.077351253E0,3.251325846E0,-8.808267593E0,-3.914519846E-1
6.081927503E0,3.248931646E0,-8.565256119E0,-1.017535701E-1
6.087015211E0,3.281253338E0,-8.163030624E0,3.567360640E-1
6.091961753E0,3.497928619E0,-7.851784706E0,6.907271743E-1
6.096961753E0,3.563769341E0,-7.717709064E0,9.696516991E-1
6.098776503E0,3.563769341E0,-7.717709064E0,9.696516991E-1
6.102069753E0,3.592499733E0,-7.552509308E0,1.041477680E0
6.107145086E0,3.606864929E0,-7.554903507E0,1.086967587E0
6.112087336E0,3.702632904E0,-7.581239700E0,1.229422569E0
6.117135294E0,3.843890905E0,-7.621941090E0,1.347935557E0
6.121922753E0,4.203021049E0,-7.614758492E0,1.464054346E0
6.127021544E0,4.425682068E0,-7.462726593E0,1.847126603E0
6.132272336E0,4.398148537E0,-7.104793549E0,2.322375536E0
6.137432044E0,4.083311081E0,-6.623558998E0,3.134010077E0
6.142116503E0,3.660734415E0,-6.198588371E0,3.813963413E0
6.147633336E0,3.552995205E0,-5.708973885E0,4.436455727E0
6.153503961E0,3.312378168E0,-5.176264286E0,4.941632271E0
6.157877044E0,3.294421434E0,-4.480748653E0,5.366602898E0
6.162648294E0,3.408146143E0,-3.742137194E0,5.918466568E0
6.168187169E0,3.543418407E0,-3.110068083E0,6.107608318E0
6.172311003E0,3.938461781E0,-2.852691412E0,5.096058369E0
6.177225753E0,4.577713490E0,-3.038241863E0,3.623624325E0
6.183531586E0,5.140350819E0,-3.575740337E0,3.390189648E0
6.188357544E0,5.488707542E0,-4.447229862E0,3.751713991E0
6.193357544E0,5.499481201E0,-5.711368084E0,4.186261654E0
6.196514628E0,5.499481201E0,-5.711368084E0,4.186261654E0
6.201997919E0,5.459977150E0,-8.559270859E0,4.602852821E0
6.206997919E0,5.262455463E0,-9.764751434E0,4.601655483E0
6.210780086E0,5.262455463E0,-9.764751434E0,4.601655483E0
6.217291836E0,5.134365559E0,-1.061589050E1,4.191050053E0
6.222203586E0,5.100846767E0,-1.134731865E1,3.847482204E0
6.227012419E0,5.184643745E0,-1.207156467E1,3.532644510E0
6.232187419E0,5.266046524E0,-1.257075596E1,3.473986626E0
6.238029419E0,4.554968834E0,-1.284848309E1,3.700238705E0
6.242029003E0,3.338714361E0,-1.301488018E1,3.031059265E0
6.247594544E0,2.334346771E0,-1.296460247E1,2.383427858E0
6.252089044E0,1.841141105E0,-1.251928043E1,2.243366957E0
6.257089044E0,1.709460020E0,-1.156638813E1,2.839523315E0
6.258610086E0,1.709460020E0,-1.156638813E1,2.839523315E0
6.262019919E0,1.696291924E0,-1.049258900E1,3.014299870E0
6.267367211E0,1.443703651E0,-9.800664902E0,2.243366957E0
6.272101669E0,1.453280449E0,-9.481039047E0,1.051054597E0
6.278028711E0,1.215057373E0,-9.524134636E0,-1.316810958E-2
6.284186586E0,1.458068848E0,-9.498994827E0,-7.733271718E-1
6.287778669E0,1.945288897E0,-9.625887871E0,-1.352723956E0
6.292186586E0,2.347514868E0,-9.727641106E0,-1.792060018E0
6.297551794E0,2.413355350E0,-9.854534149E0,-1.521515131E0
6.302194586E0,2.602497339E0,-1.003888798E1,-9.265560508E-1
6.307096586E0,2.697068214E0,-1.048899746E1,-5.398924947E-1
6.312122211E0,2.748543501E0,-1.128147888E1,-2.585737705E-1
6.318224294E0,3.175908566E0,-1.239957047E1,7.661445439E-2
6.322463128E0,3.845088005E0,-1.370919895E1,1.053448766E-1
6.327224336E0,4.563348293E0,-1.510741234E1,3.830722719E-2
6.332212503E0,5.061342239E0,-1.671152878E1,-4.213795066E-1
6.337288586E0,5.279214859E0,-1.853950119E1,-1.364694953E0
6.342033128E0,4.922478676E0,-2.041176605E1,-2.367865562E0
6.347886170E0,4.012681961E0,-2.238937759E1,-3.393780947E0
6.352329461E0,2.865859509E0,-2.426164246E1,-4.187458992E0
6.357404336E0,1.507149935E0,-2.571133232E1,-4.896142483E0
6.361927753E0,1.675941236E-2,-2.652655792E1,-5.374982834E0
6.367097753E0,-5.638344884E-1,-2.615186501E1,-6.093243122E0
6.372123378E0,-2.430114746E-1,-2.472731590E1,-6.866570473E0
6.377099170E0,1.125274777E0,-2.251387596E1,-7.392097950E0
6.382326336E0,2.481590033E0,-1.999517632E1,-7.450755596E0
6.387364753E0,3.288435936E0,-1.748605156E1,-6.386533260E0
6.392009586E0,3.875015497E0,-1.520796967E1,-4.156333923E0
6.397243670E0,4.489128113E0,-1.267610073E1,-8.643068075E-1
6.402243670E0,5.674258232E0,-9.788693428E0,6.512228847E-1
6.404301545E0,5.674258232E0,-9.788693428E0,6.512228847E-1
6.407085795E0,6.749254704E0,-8.131906509E0,2.857479811E0
6.412062961E0,6.501454830E0,-6.896498203E0,4.546588898E0
6.417806920E0,6.569689274E0,-5.374982834E0,3.778050184E0
6.422483128E0,6.902483463E0,-4.571728230E0,3.476380825E0
6.427238670E0,6.643909931E0,-4.030638695E0,1.651999116E0
6.432238670E0,5.677849293E0,-3.616441727E0,6.165069342E-1
6.434261920E0,5.677849293E0,-3.616441727E0,6.165069342E-1
6.437856045E0,5.043385983E0,-3.405751944E0,4.944026470E-1
6.442443128E0,4.648342609E0,-3.512293816E0,-2.885012925E-1
6.447781253E0,3.913322687E0,-3.992331266E0,-6.404489279E-1
6.453058128E0,3.635595322E0,-4.374206543E0,-3.830722570E-1
6.457726336E0,3.332728863E0,-4.699818134E0,1.580173075E-1
6.462525086E0,2.717418909E0,-5.151124954E0,5.027823448E-1
6.467396378E0,2.167949677E0,-5.498284340E0,3.399766386E-1
6.472334920E0,1.371877551E0,-5.977124691E0,9.696517140E-2
6.477325628E0,5.195417404E-1,-6.319495201E0,-2.849099934E-1
6.483239086E0,-3.746925592E-1,-6.653486729E0,-5.805938840E-1
6.488262711E0,-9.074024558E-1,-6.675034523E0,-5.925649405E-1
6.493262711E0,-1.219845772E0,-6.658275127E0,-5.698199868E-1
6.496891878E0,-1.219845772E0,-6.658275127E0,-5.698199868E-1
6.503226628E0,-1.113303781E0,-6.154295444E0,-1.795651205E-2
6.507350295E0,-8.475474119E-1,-5.840654850E0,2.466027737E-1
6.513128420E0,-6.332663298E-1,-5.536591530E0,3.794809580E-1
6.517886211E0,-4.225766063E-1,-5.322310448E0,6.117185354E-1
6.522270211E0,-2.130839527E-1,-5.175066948E0,9.493009448E-1
6.528148461E0,-1.484405100E-1,-5.131971359E0,1.238999367E0
6.533148461E0,-2.142810524E-1,-5.189432144E0,1.454477549E0
6.537069753E0,-2.142810524E-1,-5.189432144E0,1.454477549E0
6.542135503E0,-3.435679376E-1,-5.395333767E0,1.816002011E0
6.546943961E0,-5.470750928E-1,-5.560533524E0,1.782483220E0
6.552492003E0,-6.584054828E-1,-5.571307182E0,1.808819413E0
6.557184878E0,-7.673416734E-1,-5.667075634E0,1.702277422E0
6.561958086E0,-7.876923680E-1,-5.816712856E0,1.589749932E0
6.567392836E0,-5.650315881E-1,-5.919663906E0,1.557428241E0
6.572182253E0,-2.609679997E-1,-5.856217384E0,1.447294950E0
6.577240170E0,9.696517140E-2,-5.781997204E0,1.313219666E0
6.581941045E0,8.930372596E-1,-5.638344765E0,1.489193439E0
6.587549003E0,1.807622313E0,-5.324704647E0,3.282450438E0
6.592078295E0,3.220201254E0,-4.995501995E0,3.542221308E0
6.597251836E0,3.711012602E0,-4.775235176E0,2.182314873E0
6.602251836E0,4.151545525E0,-4.553771496E0,1.665167332E0
6.605901586E0,4.151545525E0,-4.553771496E0,1.665167332E0
6.612111336E0,6.011840343E0,-3.870227098E0,2.363077164E0
6.617905086E0,7.204153061E0,-3.013102770E0,3.445256233E0
6.622224128E0,8.658630371E0,-2.183511972E0,4.467580318E0
6.627063503E0,1.038604736E1,-2.060210466E0,5.722142220E0
6.632130336E0,1.122880554E1,-3.368641853E0,5.996278286E0
6.637474128E0,1.089840603E1,-6.077681065E0,4.723760128E0
6.642063170E0,1.045547867E1,-8.787917137E0,3.308786631E0
6.647752211E0,1.003409958E1,-1.102649593E1,2.535459518E0
6.652228753E0,8.663418770E0,-1.298375607E1,2.765302896E0
6.658318086E0,6.345831394E0,-1.442985344E1,3.689464808E0
6.662247753E0,3.743334293E0,-1.559822369E1,3.817554712E0
6.667247753E0,1.326387763E0,-1.670195198E1,2.463633537E0
6.670621170E0,1.326387763E0,-1.670195198E1,2.463633537E0
6.678313545E0,8.882488012E-1,-1.660618210E1,-6.631938815E-1
6.682143211E0,2.246958256E0,-1.589271069E1,-8.559271097E-1
6.688136045E0,3.819948912E0,-1.467525959E1,-1.271321058E0
6.693788461E0,5.541379929E0,-1.320761395E1,-9.911994934E-1
6.697866045E0,7.417236805E0,-1.207994461E1,4.058171809E-1
6.702536295E0,8.573636055E0,-1.221880817E1,2.438494444E0
6.707225086E0,7.837419033E0,-1.382292366E1,3.399766445E0
6.711999420E0,6.159083843E0,-1.583405304E1,1.054645896E0
6.717223920E0,4.453215122E0,-1.729571342E1,-5.758055210E0
6.722524295E0,2.971204281E0,-1.832641602E1,-1.526662731E1
6.727219920E0,2.336740971E0,-1.905305672E1,-1.865442276E1
6.731999836E0,2.268506050E0,-1.922663689E1,-9.245209694E0
6.736999836E0,1.266532660E0,-1.839225769E1,3.963600874E0
6.739515670E0,1.266532660E0,-1.839225769E1,3.963600874E0
6.747022211E0,-3.378218651E0,-1.250970364E1,1.174475670E1
6.752096045E0,-5.346252441E0,-9.372102737E0,8.953117371E0
6.757223920E0,-6.799532890E0,-8.028955460E0,4.587290287E0
6.761937128E0,-7.198167324E0,-8.183381081E0,1.906981707E0
6.767027461E0,-7.785943985E0,-9.091980934E0,1.227028370E0
6.772017670E0,-6.860584736E0,-9.388861656E0,2.388216257E0
6.777323670E0,-5.282805920E0,-9.440337181E0,4.663905144E0
6.781899795E0,-4.115632534E0,-9.561244011E0,6.241683960E0
6.787426586E0,-3.396175146E0,-9.873687744E0,7.007828236E0
6.792426586E0,-2.851494312E0,-1.038484955E1,6.932411194E0
6.796606420E0,-2.851494312E0,-1.038484955E1,6.932411194E0
6.802067003E0,-2.079364061E0,-1.174236202E1,3.422511339E0
6.807109586E0,-1.618480325E0,-1.302206326E1,1.083376288E0
6.811984795E0,-9.265560508E-1,-1.458667374E1,-1.157596469E0
6.817644378E0,1.113303825E-1,-1.629373932E1,-2.880224705E0
6.822732753E0,1.532289028E0,-1.765125275E1,-3.960009575E0
6.827628003E0,3.163937569E0,-1.865322495E1,-4.317942619E0
6.832113503E0,4.302380562E0,-1.943612862E1,-4.449624062E0
6.837586795E0,4.627991676E0,-1.961808968E1,-4.544194698E0
6.842006378E0,4.487931252E0,-1.903031158E1,-4.465186119E0
6.847090211E0,4.134786129E0,-1.792059898E1,-4.400542736E0
6.852429753E0,3.829525709E0,-1.652837181E1,-4.147954464E0
6.857892878E0,3.599682331E0,-1.511698914E1,-3.463212729E0
6.862514211E0,3.135207176E0,-1.358350372E1,-2.087743998E0
6.867214628E0,2.683900118E0,-1.206557941E1,-8.738836050E-1
6.872214628E0,2.121262789E0,-1.057518864E1,-4.189852998E-2
6.873884961E0,2.121262789E0,-1.057518864E1,-4.189852998E-2
6.877186920E0,1.140837073E0,-9.423578262E0,6.823474765E-1
6.882113128E0,3.938461840E-1,-8.394071579E0,1.412579060E0
6.886968128E0,-9.217676520E-2,-7.665036678E0,1.945288897E0
6.891854420E0,-2.873041928E-1,-7.016208172E0,2.407369852E0
6.897369378E0,-3.603273630E-1,-6.518214226E0,2.418143749E0
6.901885878E0,-5.973533392E-1,-6.242880821E0,2.463633537E0
6.907549128E0,-7.350199223E-1,-5.954379559E0,2.233790159E0
6.912112920E0,-6.440402865E-1,-5.634753704E0,1.985990286E0
6.917455170E0,-4.644751251E-1,-5.408501625E0,1.844732404E0
6.921979586E0,-4.872200489E-1,-5.439626217E0,1.988384485E0
6.926912753E0,-6.356605291E-1,-5.685031891E0,2.012326479E0
6.931855128E0,-2.932897210E-1,-5.695806026E0,2.256535053E0
6.936855128E0,1.508347094E-1,-5.778405666E0,1.939303398E0
6.938505086E0,1.508347094E-1,-5.778405666E0,1.939303398E0
6.943561503E0,3.699041605E-1,-5.910087109E0,1.355118155E0
6.948549628E0,7.721300721E-1,-5.990292549E0,8.559271097E-1
6.952275045E0,8.930372596E-1,-6.162675381E0,6.009446383E-1
6.957656670E0,8.439561129E-1,-6.281188011E0,7.637503147E-1
6.963143628E0,6.524199843E-1,-6.374562263E0,1.249773264E0
6.967127253E0,9.169792533E-1,-6.295553207E0,9.457096457E-1
6.972285711E0,1.246181965E0,-6.373364925E0,2.861070931E-1
6.977279211E0,1.604115129E0,-6.457161903E0,5.746084079E-2
6.981983336E0,1.577778935E0,-6.636727333E0,1.544260085E-1
6.987687045E0,1.577778935E0,-6.636727333E0,1.544260085E-1
6.992479420E0,1.722628117E0,-6.766014099E0,2.370259613E-1
6.997325003E0,1.999158382E0,-6.868964672E0,1.819593310E-1
7.001931295E0,2.213439465E0,-6.993463039E0,-9.576806799E-3
7.007246086E0,2.370259762E0,-7.141903877E0,-2.873042040E-2
7.012034836E0,2.669534922E0,-7.153874874E0,3.711012602E-1
7.017427128E0,2.863465309E0,-7.265204906E0,6.715735793E-1
7.022427128E0,2.782062292E0,-7.359776020E0,9.349357486E-1
7.025682545E0,2.782062292E0,-7.359776020E0,9.349357486E-1
7.028427961E0,2.853888512E0,-7.260416508E0,1.060631394E0
7.032612461E0,3.100491285E0,-7.131129742E0,1.039083481E0
7.037082795E0,3.275267839E0,-7.036558628E0,1.167173386E0
7.042008795E0,3.450044632E0,-7.025784969E0,1.127668977E0
7.047094212E0,3.469198227E0,-7.064092159E0,1.035492182E0
7.051869587E0,3.547009706E0,-7.152677536E0,8.415619135E-1
7.057084587E0,3.731363297E0,-7.293935299E0,8.140285611E-1
7.062059878E0,3.981557369E0,-7.417236805E0,9.888052940E-1
7.068309920E0,4.219780445E0,-7.522581577E0,1.209071875E0
7.073086337E0,4.554968834E0,-7.451952934E0,1.449689150E0
7.077481170E0,4.711789131E0,-7.308300495E0,1.920149803E0
7.082187170E0,4.499902248E0,-7.064092159E0,2.687491417E0
7.087056587E0,4.156333923E0,-6.727706909E0,3.032256365E0
7.092056587E0,3.402160645E0,-6.374562263E0,3.184288263E0
7.095959587E0,3.402160645E0,-6.374562263E0,3.184288263E0
7.101860253E0,3.302801132E0,-5.537788391E0,4.582501888E0
7.107199795E0,2.987963676E0,-5.141548157E0,5.269638062E0
7.111983212E0,2.879027605E0,-4.741716385E0,5.580883980E0
7.117304920E0,3.111265182E0,-4.516661644E0,5.295974255E0
7.122077712E0,3.812766314E0,-4.358644009E0,4.479551315E0
7.127426545E0,4.448426723E0,-4.556165695E0,4.149151325E0
7.132012462E0,4.758475780E0,-5.189432144E0,4.290409565E0
7.137206628E0,5.189432144E0,-6.047753334E0,4.428076267E0
7.142035295E0,5.573701382E0,-7.320271492E0,4.556165695E0
7.147210045E0,5.440823555E0,-8.865729332E0,5.118803024E0
7.152072503E0,5.288791656E0,-1.029506683E1,5.501875401E0
7.157353295E0,5.256469727E0,-1.133175659E1,5.300762653E0
7.162021628E0,5.228936672E0,-1.210388660E1,4.967968464E0
7.167248545E0,5.226542473E0,-1.267490387E1,4.449624062E0
7.172120587E0,5.462371349E0,-1.315733528E1,3.603273630E0
7.177219628E0,5.669469833E0,-1.355716705E1,2.978386879E0
7.181904628E0,5.831078053E0,-1.340872669E1,2.820369720E0
7.187373712E0,5.019443989E0,-1.277426338E1,3.283647537E0
7.193056295E0,3.891774893E0,-1.215057373E1,2.959233284E0
7.197759337E0,3.055001259E0,-1.156758595E1,2.522291422E0
7.202593670E0,2.512714624E0,-1.091516590E1,2.358288765E0
7.207081462E0,2.191891670E0,-1.017655468E1,2.468421936E0
7.212209670E0,2.001552582E0,-9.246406555E0,2.522291422E0
7.217084837E0,2.243366957E0,-8.228871346E0,2.208651066E0
7.221965628E0,2.571372509E0,-7.516596317E0,1.397016644E0
7.226965628E0,2.249352455E0,-7.433996201E0,1.735796183E-1
7.229687462E0,2.249352455E0,-7.433996201E0,1.735796183E-1
7.238564212E0,1.849520802E0,-7.808688641E0,-1.140837073E0
7.242068087E0,2.038662672E0,-7.975085735E0,-1.400607944E0
7.247025920E0,2.120065689E0,-8.197746277E0,-1.453280449E0
7.252167837E0,2.047042370E0,-8.627506256E0,-1.223437071E0
7.257423587E0,2.238578558E0,-9.137471199E0,-6.033388376E-1
7.261954295E0,2.223016262E0,-9.871294022E0,1.436521020E-2
7.267466295E0,3.525461912E0,-1.069130802E1,7.577648163E-1
7.271942962E0,4.654327869E0,-1.165138245E1,-2.430114746E-1
7.277324378E0,5.389348030E0,-1.305079365E1,-4.501099288E-1
7.282021295E0,6.111199856E0,-1.464533138E1,-8.583213091E-1
7.287309003E0,6.460753441E0,-1.656188965E1,-1.376665950E0
7.293095295E0,6.363788128E0,-1.878969574E1,-2.263717651E0
7.297373462E0,5.573701382E0,-2.105101776E1,-3.317166567E0
7.301944420E0,4.424484730E0,-2.322615051E1,-4.525041103E0
7.307435503E0,2.730587006E0,-2.500983047E1,-4.933252811E0
7.312435503E0,8.176198602E-1,-2.640205956E1,-4.809951305E0
7.313958628E0,8.176198602E-1,-2.640205956E1,-4.809951305E0
7.317548003E0,-7.302315235E-1,-2.737530136E1,-4.950012207E0
7.322040462E0,-1.489193439E0,-2.742917252E1,-5.580883980E0
7.327214170E0,-1.284489155E0,-2.568379784E1,-6.386533260E0
7.332255420E0,5.985504016E-3,-2.251986122E1,-7.116764545E0
7.337517420E0,1.385045648E0,-1.953189659E1,-7.724891663E0
7.343622837E0,1.917755604E0,-1.699284744E1,-6.898892403E0
7.347690170E0,3.391386747E0,-1.444182491E1,-3.661931515E0
7.352494503E0,5.724536419E0,-1.139999104E1,1.774103403E0
7.357496795E0,6.464344501E0,-9.118317604E0,6.478709698E0
7.362308587E0,6.807912350E0,-7.331045628E0,6.233304024E0
7.367548045E0,5.974730492E0,-6.004657745E0,6.150704384E0
7.371989253E0,5.657498837E0,-5.057751179E0,7.273584843E0
7.377438503E0,5.103240967E0,-4.894945145E0,5.764040470E0
7.382937670E0,5.871779442E0,-5.058948040E0,3.979163170E0
7.387197878E0,7.846996307E0,-4.301183224E0,2.132036686E0
7.392197878E0,7.489062786E0,-4.022258759E0,-1.751358509E0
7.396446170E0,7.489062786E0,-4.022258759E0,-1.751358509E0
7.402175170E0,5.378573895E0,-4.328716755E0,-2.892195702E0
7.408083753E0,4.893748283E0,-4.516661644E0,-1.833958507E0
7.412157878E0,4.551377296E0,-4.650736809E0,-6.260837317E-1
7.417502462E0,4.153939724E0,-4.860229492E0,-1.424549967E-1
7.422142753E0,3.517082214E0,-5.046977043E0,-1.113303825E-1
7.426978920E0,2.608482838E0,-5.280411720E0,-2.801215947E-1
7.431968753E0,1.648407817E0,-5.548562527E0,-2.274491638E-1
7.437284670E0,7.242460251E-1,-5.728127480E0,-1.867477298E-1
7.442100378E0,3.112462163E-2,-5.853823185E0,-1.616086215E-1
7.448175670E0,-4.752490520E-1,-5.829881191E0,-1.771709323E-1
7.451881253E0,-9.361328483E-1,-5.743690014E0,-6.344634295E-2
7.457582378E0,-1.277306557E0,-5.486313343E0,9.816227108E-2
7.462517712E0,-1.420958757E0,-5.224148273E0,6.224924326E-2
7.467354920E0,-1.537077546E0,-5.109226227E0,-9.576806799E-3
7.471919545E0,-1.625662923E0,-5.017049789E0,7.422025502E-2
7.477164753E0,-1.619677424E0,-4.966771603E0,2.777273953E-1
7.481912170E0,-1.709460020E0,-5.019443989E0,6.428431273E-1
7.487362503E0,-1.681926727E0,-5.062539577E0,1.007958889E0
7.492636087E0,-1.770512104E0,-5.207388878E0,1.224634171E0
7.497321545E0,-1.922544003E0,-5.368997097E0,1.339555860E0
7.501891462E0,-2.039859772E0,-5.620388508E0,1.373074651E0
7.507076128E0,-2.006340981E0,-5.862202644E0,1.401805043E0
7.511934712E0,-2.084152699E0,-6.077681065E0,1.568202138E0
7.517709003E0,-2.019509077E0,-6.149507046E0,1.789665818E0
7.521869503E0,-1.703474522E0,-6.071695328E0,2.121262789E0
7.527711378E0,-1.168370485E0,-5.972336292E0,2.397793055E0
7.532100962E0,-6.727706790E-1,-5.937620163E0,2.477998734E0
7.537421587E0,-1.424549967E-1,-5.950788498E0,2.574964046E0
7.542879545E0,7.841010690E-1,-5.919663906E0,2.650381327E0
7.547156087E0,1.672349930E0,-5.874173641E0,2.631227732E0
7.551964378E0,2.355894566E0,-5.637147903E0,2.650381327E0
7.557219420E0,2.983175278E0,-5.185841084E0,2.743755102E0
7.562029878E0,3.665522814E0,-4.708197594E0,2.863465309E0
7.567824962E0,4.702212334E0,-4.129997730E0,3.264493942E0
7.572165837E0,6.198588371E0,-3.456030130E0,4.028244495E0
7.578186212E0,7.929595947E0,-3.075352192E0,4.101267338E0
7.582017253E0,9.173383713E0,-3.594893932E0,4.007893562E0
7.587209628E0,9.756371498E0,-5.445611954E0,3.610456228E0
7.591986503E0,1.015261269E1,-7.620744228E0,2.524685621E0
7.597225795E0,1.005445004E1,-9.324218750E0,1.635239720E0
7.602014878E0,9.100360870E0,-1.128985786E1,1.379060149E0
7.607002128E0,7.776367188E0,-1.321120453E1,1.741781712E0
7.612077503E0,5.922058105E0,-1.468842697E1,2.761711597E0
7.617933545E0,3.924096584E0,-1.558864689E1,3.642777920E0
7.622197212E0,2.397793055E0,-1.588313389E1,3.037044764E0
7.627197212E0,1.698686123E0,-1.546893692E1,2.045845270E0
7.630409712E0,1.698686123E0,-1.546893692E1,2.045845270E0
7.637532087E0,3.454833031E0,-1.418803883E1,1.300051570E0
7.642577670E0,5.458779812E0,-1.353083134E1,2.149993181E0
7.647831878E0,7.223306656E0,-1.300410652E1,2.650381327E0
7.652295587E0,8.702922821E0,-1.288679028E1,2.209848166E0
7.657384962E0,9.588777542E0,-1.365054131E1,1.550245643E0
7.663393962E0,9.846154213E0,-1.511100388E1,8.894459605E-1
7.667969545E0,8.881291389E0,-1.672230148E1,-1.714248419E0
7.672811170E0,8.158242226E0,-1.803671837E1,-7.135918140E0
7.677811170E0,7.311892033E0,-1.881124306E1,-1.304121685E1
7.679411753E0,7.311892033E0,-1.881124306E1,-1.304121685E1
7.683627545E0,4.830301762E0,-1.946366310E1,-1.565448761E1
7.687707837E0,2.748543501E0,-1.944091797E1,-1.009634876E1
7.692707837E0,2.574964046E0,-1.794454193E1,1.057040095E0
7.696513587E0,2.574964046E0,-1.794454193E1,1.057040095E0
7.703129712E0,-9.828197956E-1,-1.271560478E1,8.901641846E0
7.707146337E0,-3.265691042E0,-9.606734276E0,7.089231014E0
7.712330378E0,-4.871003151E0,-7.867346764E0,5.073313236E0
7.717600962E0,-5.761646271E0,-7.659051418E0,3.873818398E0
7.722095503E0,-6.748057365E0,-7.989450932E0,2.580949545E0
7.728107503E0,-7.286752701E0,-8.123526573E0,2.064998865E0
7.732496170E0,-6.679822922E0,-8.319850922E0,2.644395828E0
7.738787170E0,-5.521028996E0,-8.485051155E0,3.542221308E0
7.742165629E0,-4.180276394E0,-8.599972725E0,4.231751442E0
7.747073795E0,-3.100491285E0,-9.003395081E0,4.662707806E0
7.752269587E0,-2.561795712E0,-9.736021042E0,4.581305027E0
7.757291920E0,-2.267308950E0,-1.082298851E1,3.317166567E0
7.762772837E0,-1.927332401E0,-1.229662037E1,1.420958757E0
7.768282212E0,-1.927332401E0,-1.229662037E1,1.420958757E0
7.772718629E0,-1.405396342E0,-1.426824474E1,-5.147533417E-1
7.777349462E0,-5.997475386E-1,-1.630331612E1,-1.495178938E0
7.783307379E0,1.568202078E-1,-1.828930664E1,-1.916558504E0
7.787369129E0,1.061828494E0,-1.974258804E1,-2.445677042E0
7.792325545E0,2.003946781E0,-2.059492302E1,-3.331531763E0
7.797300962E0,2.831143618E0,-2.079244423E1,-4.261679173E0
7.802580670E0,3.136404276E0,-2.032078743E1,-5.149928093E0
7.807639504E0,2.989160776E0,-1.909854698E1,-5.327098846E0
7.812728920E0,2.788047791E0,-1.727057457E1,-4.471171856E0
7.817610004E0,2.962824583E0,-1.534443855E1,-3.402160645E0
7.823494254E0,3.005920172E0,-1.356195545E1,-2.268506050E0
7.827511170E0,2.774879694E0,-1.190516758E1,-1.037886381E0
7.832582879E0,2.437297344E0,-1.043871975E1,-2.154781520E-1
7.838405379E0,1.921346903E0,-9.143456459E0,9.947907925E-1
7.842036670E0,1.411381960E0,-7.887697697E0,1.974019289E0
7.847036670E0,1.307234168E0,-6.689399719E0,2.639607430E0
7.848740212E0,1.307234168E0,-6.689399719E0,2.639607430E0
7.852326212E0,1.025915384E0,-5.801150799E0,2.767697096E0
7.857464254E0,7.781155705E-1,-5.023035049E0,2.300827742E0
7.862301087E0,5.446808934E-1,-4.390965939E0,2.155978680E0
7.867679045E0,5.722141862E-1,-3.931279182E0,2.127248287E0
7.872269170E0,2.418143749E-1,-3.933673382E0,2.430114746E0
7.877364004E0,6.464344263E-2,-4.141968727E0,2.922123194E0
7.882516795E0,3.160346150E-1,-4.302380562E0,3.011905670E0
7.886985129E0,3.303998411E-1,-4.486733913E0,2.662352324E0
7.891966587E0,5.626374111E-2,-4.935647011E0,2.504334927E0
7.896966587E0,-6.224924326E-2,-5.510255337E0,2.048239470E0
7.898775920E0,-6.224924326E-2,-5.510255337E0,2.048239470E0
7.903689795E0,-1.604115069E-1,-5.993884087E0,1.916558504E0
7.907213379E0,-3.926490843E-1,-6.393715858E0,2.246958256E0
7.912263462E0,-3.100491166E-1,-6.671442986E0,1.984793186E0
7.917517920E0,1.089361757E-1,-6.750451565E0,1.362300754E0
7.922171087E0,4.501099288E-1,-6.856993675E0,5.758054852E-1
7.927214337E0,6.811503768E-1,-6.918045998E0,1.125274822E-1
7.932089629E0,7.757213712E-1,-7.019799232E0,-1.376665980E-1
7.937525504E0,8.750807047E-1,-7.204153061E0,-3.232172430E-1
7.941946545E0,1.199495077E0,-7.343016624E0,-3.507505357E-1
7.947143087E0,1.622071624E0,-7.520187378E0,-3.064578176E-1
7.952048420E0,1.976413488E0,-7.795520782E0,-1.137245819E-1
7.957192754E0,2.114080191E0,-8.061277390E0,2.166752517E-1
7.961868629E0,2.155978680E0,-8.285135269E0,1.663970202E-1
7.967087379E0,2.312798738E0,-8.401253700E0,3.351882473E-2
7.972065879E0,2.456450939E0,-8.474276543E0,3.591302549E-3
7.977211879E0,2.707842112E0,-8.397662163E0,1.963245422E-1
7.981980129E0,2.926911592E0,-8.397662163E0,3.938461840E-1
7.987351754E0,3.265691042E0,-8.234856606E0,7.206547260E-1
7.992351754E0,3.421314240E0,-8.117541313E0,1.182735682E0
7.996012254E0,3.421314240E0,-8.117541313E0,1.182735682E0
8.002046879E0,3.790021181E0,-7.776367188E0,1.784877419E0
8.007068045E0,3.981557369E0,-7.584830761E0,1.829170108E0
8.011881920E0,4.085705280E0,-7.522581577E0,1.820790410E0
8.017962670E0,4.124012470E0,-7.491456985E0,1.845929503E0
8.023749087E0,4.440047264E0,-7.337030888E0,1.975216389E0
8.027280337E0,4.812345505E0,-7.145494938E0,1.897404790E0
8.032021295E0,4.961983204E0,-6.853402138E0,2.001552582E0
8.037210212E0,4.856637955E0,-6.600813866E0,2.319981337E0
8.041957795E0,4.744110584E0,-6.199785233E0,2.676717520E0
8.046957795E0,4.307168961E0,-5.777208805E0,2.973598480E0
8.048716795E0,4.307168961E0,-5.777208805E0,2.973598480E0
8.053352254E0,4.101267338E0,-5.285200119E0,2.924517393E0
8.057977087E0,4.163516521E0,-4.867412090E0,2.573766708E0
8.062150462E0,4.302380562E0,-4.638765812E0,2.698265314E0
8.067934462E0,4.347870350E0,-4.428076267E0,3.641580820E0
8.074343379E0,4.179079056E0,-4.218583584E0,4.586093426E0
8.077527420E0,4.243722439E0,-4.052186489E0,4.416105270E0
8.082832295E0,4.434061527E0,-4.301183224E0,3.764882088E0
8.088071545E0,4.643554211E0,-4.958391666E0,3.596091032E0
8.092331170E0,4.778826714E0,-5.858611584E0,3.543418407E0
8.098496795E0,4.709394932E0,-7.035361767E0,3.487154722E0
8.102218420E0,4.242525578E0,-8.540117264E0,3.657143116E0
8.107155212E0,3.925293684E0,-1.017056847E1,3.536235809E0
8.112064670E0,3.646369219E0,-1.160110474E1,3.423708439E0
8.117064670E0,3.468001127E0,-1.274313831E1,3.314772367E0
8.118890837E0,3.468001127E0,-1.274313831E1,3.314772367E0
8.122306879E0,3.654748917E0,-1.355477333E1,3.076549292E0
8.127812587E0,4.238934040E0,-1.404917526E1,2.759317398E0
8.133329129E0,4.984727859E0,-1.425268269E1,2.632424831E0
8.138141212E0,5.419275761E0,-1.392108536E1,2.971204281E0
8.143618087E0,4.920084476E0,-1.298614979E1,3.196259260E0
8.147025212E0,3.494337320E0,-1.238759995E1,2.685097218E0
8.152866170E0,2.403778553E0,-1.190516758E1,2.345120668E0
8.157331545E0,2.185906172E0,-1.119648457E1,2.483984232E0
8.162043045E0,2.196680069E0,-1.022324085E1,3.136404276E0
8.167300837E0,2.240972757E0,-9.204508781E0,3.256114244E0
8.172284004E0,2.303221941E0,-8.371326447E0,2.644395828E0
8.177190712E0,2.261323452E0,-8.025363922E0,1.543063045E0
8.182581212E0,2.011129379E0,-8.129511833E0,3.998316824E-1
8.187151879E0,1.933317900E0,-8.231265068E0,-6.009446383E-1
8.192151004E0,1.592144132E0,-8.536525726E0,-1.476025343E0
8.197197295E0,1.502361536E0,-8.953117371E0,-1.352723956E0
8.203016129E0,2.193088770E0,-9.132682800E0,-8.499416113E-1
8.207668045E0,2.699462414E0,-9.281123161E0,-3.711012751E-2
8.212668045E0,3.038241863E0,-9.404424667E0,5.207388401E-1
8.215678837E0,3.038241863E0,-9.404424667E0,5.207388401E-1
8.218300670E0,3.093308687E0,-9.648633003E0,9.145850539E-1
8.223300670E0,3.377021551E0,-1.006761837E1,1.168370485E0
8.225040045E0,3.377021551E0,-1.006761837E1,1.168370485E0
8.231945670E0,4.887762547E0,-1.169567490E1,7.948749661E-1
8.233542629E0,4.887762547E0,-1.169567490E1,7.948749661E-1
8.239075754E0,5.267243862E0,-1.326268005E1,8.092401624E-1
8.245126879E0,5.414487362E0,-1.515769100E1,5.925649405E-1
8.252615087E0,4.711789131E0,-1.923501587E1,-1.205480576E0
8.254161504E0,4.711789131E0,-1.923501587E1,-1.205480576E0
8.257693295E0,3.672705412E0,-2.122340012E1,-2.322375536E0
8.262229879E0,2.172738075E0,-2.308728790E1,-2.855085611E0
8.267564212E0,5.889736414E-1,-2.452500534E1,-2.736572504E0
8.272564212E0,-5.817909837E-1,-2.560718346E1,-2.616862535E0
8.277564212E0,-5.817909837E-1,-2.560718346E1,-2.616862535E0
8.281185170E0,-5.817909837E-1,-2.560718346E1,-2.616862535E0
8.288774504E0,1.748964310E0,-2.338656235E1,-7.521384716E0
8.293774504E0,3.665522814E0,-2.042613220E1,-8.967482567E0
8.295972795E0,3.665522814E0,-2.042613220E1,-8.967482567E0
8.302085462E0,5.239710331E0,-1.572272301E1,-9.068038940E0
8.307386920E0,7.474697590E0,-1.236844635E1,-4.376600742E0
8.311999795E0,8.299500465E0,-1.024957752E1,1.833958507E0
8.317727587E0,7.930793285E0,-8.541314125E0,4.538209438E0
8.322280837E0,6.797138691E0,-7.181407928E0,3.901351690E0
8.327343629E0,5.633556366E0,-5.971138954E0,4.705803394E0
8.332050629E0,4.830301762E0,-4.926070213E0,4.924872875E0
8.337591670E0,4.630385876E0,-4.332307816E0,4.203021049E0
8.341890587E0,5.249287128E0,-4.047398090E0,6.159083843E0
8.347480545E0,5.882553577E0,-3.519476414E0,2.029085875E0
8.351887587E0,5.289988518E0,-3.614047527E0,-2.804807186E0
8.357213837E0,4.311957359E0,-3.746925592E0,-2.402581453E0
8.361921962E0,2.867056608E0,-4.203021049E0,-3.495534360E-1
8.367416795E0,2.196680069E0,-4.560954094E0,1.156399369E0
8.373075837E0,2.681505919E0,-4.679467201E0,1.066616893E0
8.377389170E0,2.754528999E0,-4.938041210E0,4.608838260E-1
8.382731295E0,2.238578558E0,-5.201403141E0,9.576806799E-3
8.386797754E0,1.693897724E0,-5.365406036E0,-2.813186944E-1
8.391865170E0,9.947907925E-1,-5.643133640E0,-3.830722570E-1
8.397080420E0,4.560954273E-1,-5.663484097E0,-5.159504414E-1
8.402232379E0,-6.823474914E-2,-5.598840714E0,-4.788403511E-1
8.407314170E0,-4.908113480E-1,-5.498284340E0,-5.422866940E-1
8.411988795E0,-8.535329103E-1,-5.449203014E0,-6.548141837E-1
8.417844004E0,-9.959878922E-1,-5.443217754E0,-6.907271743E-1
8.421907045E0,-9.780313969E-1,-5.483919144E0,-4.788403511E-1
8.427127962E0,-9.397241473E-1,-5.475539207E0,-2.418143749E-1
8.431882545E0,-9.469067454E-1,-5.407304764E0,-9.457096457E-2
8.437437796E0,-1.115697980E0,-5.495890141E0,9.097966552E-2
8.442038004E0,-1.133654475E0,-5.689820290E0,2.705447972E-1
8.447525462E0,-1.222239971E0,-6.136339188E0,4.608838260E-1
8.453915171E0,-1.295263171E0,-6.481103897E0,7.134721279E-1
8.457439629E0,-1.345541358E0,-6.774393559E0,9.109937549E-1
8.462117421E0,-1.313219666E0,-7.031770229E0,1.189918280E0
8.467767171E0,-1.320402265E0,-7.187393665E0,1.316810966E0
8.473089671E0,-1.164779186E0,-7.275979042E0,1.350329757E0
8.478840296E0,-6.883329749E-1,-7.155071735E0,1.499967337E0
8.482221212E0,-2.597708702E-1,-6.959944248E0,1.577778935E0
8.488514837E0,1.651999205E-1,-6.688202381E0,1.635239720E0
8.493549879E0,7.146692276E-1,-6.386533260E0,1.757344007E0
8.497338879E0,1.339555860E0,-6.065710068E0,2.037465572E0
8.502338879E0,2.111685991E0,-5.686229229E0,2.248155355E0
8.505970921E0,2.111685991E0,-5.686229229E0,2.248155355E0
8.512570171E0,3.853467703E0,-4.511873245E0,2.176329374E0
8.514196254E0,3.853467703E0,-4.511873245E0,2.176329374E0
8.517258004E0,4.734533787E0,-3.914519787E0,2.148796082E0
8.522775504E0,5.546168327E0,-3.397372246E0,2.651578426E0
8.527460587E0,6.484695435E0,-2.619256735E0,3.836708307E0
8.532055212E0,6.985083580E0,-1.741781712E0,5.266046524E0
8.537243504E0,6.985083580E0,-1.741781712E0,5.266046524E0
8.542652962E0,7.790732384E0,-1.329979062E0,6.392518520E0
8.546984379E0,8.878896713E0,-2.473210335E0,6.008249283E0
8.552012879E0,9.294290543E0,-4.412513733E0,5.651513100E0
8.557297087E0,9.684545517E0,-6.417657852E0,5.366602898E0
8.561939712E0,9.375694275E0,-8.664615631E0,3.867832899E0
8.567094546E0,8.285135269E0,-1.119528675E1,3.179499865E0
8.571949421E0,6.314706802E0,-1.361103630E1,3.685873508E0
8.577409712E0,4.346673012E0,-1.541865921E1,4.471171856E0
8.582023921E0,2.990357876E0,-1.627937508E1,4.857835293E0
8.587216546E0,1.825578809E0,-1.645055962E1,4.273650169E0
8.592216546E0,1.314416766E0,-1.701080322E1,2.934094191E0
8.596211296E0,1.314416766E0,-1.701080322E1,2.934094191E0
8.603603212E0,3.606864929E0,-1.578616905E1,4.788403511E-1
8.607534087E0,5.215768337E0,-1.448132896E1,6.548141837E-1
8.612057754E0,6.952761650E0,-1.297896767E1,1.207874775E0
8.617275046E0,8.310274124E0,-1.251688671E1,2.133233786E0
8.622031046E0,8.504204750E0,-1.371039581E1,2.309207439E0
8.627490629E0,8.074444771E0,-1.565089607E1,4.812345505E-1
8.632147046E0,7.735665798E0,-1.742140961E1,-3.851073503E0
8.637147046E0,7.159860134E0,-1.832282639E1,-1.012268448E1
8.638922754E0,7.159860134E0,-1.832282639E1,-1.012268448E1
8.642992129E0,6.099228859E0,-1.884835243E1,-1.461660099E1
8.648687046E0,5.021838188E0,-1.943134117E1,-1.240316200E1
8.652545796E0,4.396951199E0,-1.900996208E1,-2.974795580E0
8.657422171E0,2.772485495E0,-1.725620842E1,4.951209068E0
8.662761504E0,2.681505978E-1,-1.450167942E1,7.542932510E0
8.667083962E0,-1.728613615E0,-1.135809326E1,7.396886349E0
8.672505087E0,-3.678690910E0,-9.294290543E0,6.220136166E0
8.677710254E0,-5.336675644E0,-8.147468567E0,4.606443882E0
8.682268879E0,-6.598419666E0,-8.224082947E0,1.407790542E0
8.687268879E0,-7.158663273E0,-8.622717857E0,-1.101332754E-1
8.690416254E0,-7.158663273E0,-8.622717857E0,-1.101332754E-1
8.698574921E0,-4.390965939E0,-8.240841866E0,3.002328873E0
8.702234504E0,-3.020285368E0,-8.160636902E0,4.171896458E0
8.707208296E0,-2.340332270E0,-8.383296967E0,4.714183331E0
8.712060004E0,-2.084152699E0,-8.835801125E0,4.594472885E0
8.717253296E0,-2.025494576E0,-9.448717117E0,3.695450306E0
8.722253296E0,-2.110488892E0,-1.039203262E1,2.652775526E0
8.724301421E0,-2.110488892E0,-1.039203262E1,2.652775526E0
8.727543462E0,-1.745373011E0,-1.156399441E1,2.013523579E0
8.733299962E0,-1.228225470E0,-1.319564247E1,1.011550188E0
8.738332629E0,-4.716577232E-1,-1.488235760E1,-2.358288616E-1
8.742289046E0,4.752490520E-1,-1.630092239E1,-1.005564690E0
8.747750962E0,1.443703651E0,-1.753513336E1,-2.088941097E0
8.752494254E0,2.604891539E0,-1.831803703E1,-3.471592426E0
8.757494254E0,3.568557739E0,-1.855626106E1,-3.645172119E0
8.761426087E0,3.568557739E0,-1.855626106E1,-3.645172119E0
8.765072837E0,4.308365822E0,-1.826775932E1,-3.786429882E0
8.767707712E0,4.540603638E0,-1.762611198E1,-4.401739597E0
8.772772587E0,4.299986362E0,-1.658224106E1,-4.285621166E0
8.777389296E0,4.359841347E0,-1.524867058E1,-3.919308186E0
8.781967546E0,4.211400986E0,-1.367807388E1,-3.114856482E0
8.787059671E0,3.934870481E0,-1.197220516E1,-1.968033791E0
8.791957337E0,3.418920040E0,-1.039083576E1,-6.452373862E-1
8.797313087E0,2.451662540E0,-9.006986618E0,9.995791912E-1
8.802004087E0,2.027888775E0,-7.808688641E0,1.787271619E0
8.807230171E0,1.509544134E0,-6.916848660E0,2.254140854E0
8.812788504E0,1.155202270E0,-6.185420036E0,2.151190281E0
8.817141337E0,9.780313969E-1,-5.628767967E0,1.939303398E0
8.822267546E0,3.902548850E-1,-5.456385612E0,1.690306425E0
8.827386754E0,-3.603273630E-1,-5.228936672E0,2.302024841E0
8.832180129E0,-7.864952683E-1,-4.881777287E0,2.626439333E0
8.837721754E0,-6.727706790E-1,-4.583699226E0,2.248155355E0
8.842204462E0,-5.949591398E-1,-4.474762917E0,1.859097600E0
8.847346879E0,-6.200982332E-1,-4.693832397E0,2.402581453E0
8.852568587E0,-7.781155705E-1,-5.045780182E0,2.996343374E0
8.858111379E0,-6.248866320E-1,-5.262455463E0,2.930502892E0
8.862341129E0,-6.452373862E-1,-5.701791286E0,2.683900118E0
8.868022671E0,-6.883329749E-1,-6.121973515E0,2.341529369E0
8.872215296E0,-5.530605912E-1,-6.246472359E0,1.748964310E0
8.878336004E0,-3.327940404E-1,-6.397306919E0,1.357512355E0
8.882441629E0,-3.112462163E-1,-6.575675011E0,9.768342972E-1
8.887142504E0,-3.040636182E-1,-6.731297970E0,4.213795066E-1
8.892142504E0,-4.788403399E-3,-6.902483463E0,-2.932897210E-1
8.896560587E0,-4.788403399E-3,-6.902483463E0,-2.932897210E-1
8.902413254E0,6.093243361E-1,-7.358579159E0,-5.255272985E-1
8.907413254E0,9.504981041E-1,-7.668628216E0,-4.369418025E-1
8.912662587E0,9.504981041E-1,-7.668628216E0,-4.369418025E-1
8.917181004E0,1.328781962E0,-8.167819023E0,-3.375824392E-1
8.921964962E0,1.557428241E0,-8.293514252E0,-3.100491166E-1
8.926964962E0,1.612494826E0,-8.422801971E0,-3.292027414E-1
8.929332421E0,1.612494826E0,-8.422801971E0,-3.292027414E-1
8.931956462E0,1.602918029E0,-8.542511940E0,-3.902548850E-1
8.937269796E0,1.771709204E0,-8.518569946E0,-2.489969730E-1
8.942009337E0,2.026691675E0,-8.468291283E0,-5.626374111E-2
8.946969004E0,2.278082848E0,-8.407238960E0,1.352723986E-1
8.951863087E0,2.888604403E0,-8.195352554E0,5.195417404E-1
8.957721671E0,3.160346270E0,-8.072051048E0,7.445967197E-1
8.961858796E0,3.415328741E0,-7.911639690E0,1.007958889E0
8.967465462E0,3.512293816E0,-7.778761387E0,1.201889277E0
8.971989337E0,3.853467703E0,-7.645883083E0,1.098938584E0
8.977418379E0,4.113238335E0,-7.733271599E0,8.702923059E-1
8.982131421E0,4.382586002E0,-7.803900242E0,8.427590132E-1
8.987248004E0,4.649539471E0,-7.802703381E0,1.080982089E0
8.992070212E0,4.770446777E0,-7.681796074E0,1.069011092E0
8.997323129E0,4.924872875E0,-7.376535416E0,9.923965931E-1
9.001904004E0,4.832695961E0,-7.048529625E0,1.401805043E0
9.007741212E0,4.689043999E0,-6.657077789E0,1.714248419E0
9.012133712E0,4.431667328E0,-6.233304024E0,2.236184359E0
9.017300754E0,3.825934410E0,-5.767632008E0,2.925714493E0
9.022082962E0,3.234566450E0,-5.327098846E0,3.555389643E0
9.027200837E0,2.709039211E0,-4.991910458E0,4.030638695E0
9.032085504E0,2.644395828E0,-4.850652695E0,4.102464676E0
9.037399421E0,3.071760893E0,-4.835090160E0,3.936067581E0
9.042794337E0,3.587711334E0,-4.836287498E0,4.047398090E0
9.047922671E0,3.907337189E0,-4.885368347E0,4.243722439E0
9.052167796E0,3.955221176E0,-5.009867191E0,4.820724964E0
9.057167796E0,4.076128483E0,-5.562927723E0,5.645527840E0
9.059010504E0,4.076128483E0,-5.562927723E0,5.645527840E0
9.064010504E0,4.364629745E0,-6.606799603E0,6.194996834E0
9.066043879E0,4.364629745E0,-6.606799603E0,6.194996834E0
9.073398504E0,5.284003258E0,-9.433155060E0,7.190984726E0
9.077527712E0,5.644330502E0,-1.039203262E1,7.169436932E0
9.082527712E0,5.623979568E0,-1.120007515E1,6.473921299E0
9.084535421E0,5.623979568E0,-1.120007515E1,6.473921299E0
9.087428087E0,6.007051945E0,-1.175553036E1,5.493495941E0
9.092428087E0,6.087257862E0,-1.219726086E1,4.238934040E0
9.094219837E0,6.087257862E0,-1.219726086E1,4.238934040E0
9.098167754E0,5.770026207E0,-1.249653530E1,2.992752075E0
9.102646379E0,5.346252441E0,-1.258033276E1,2.473210335E0
9.107189087E0,4.620809078E0,-1.236126328E1,2.339135170E0
9.112721671E0,3.622427225E0,-1.187643719E1,1.477222443E0
9.117721671E0,2.679111719E0,-1.156638813E1,3.507505357E-1
9.119554046E0,2.679111719E0,-1.156638813E1,3.507505357E-1
9.122260254E0,2.029085875E0,-1.160828686E1,-6.200982332E-1
9.127963212E0,1.702277422E0,-1.161546993E1,-1.072602391E0
9.132490921E0,1.969230890E0,-1.148977375E1,-1.602918029E0
9.138209754E0,2.194285870E0,-1.135330486E1,-2.008735180E0
9.143243838E0,2.135627985E0,-1.114740276E1,-2.123656988E0
9.148181254E0,2.055422068E0,-1.099656868E1,-2.099714994E0
9.152051254E0,2.075772762E0,-1.109473038E1,-2.100912094E0
9.157312379E0,2.106897593E0,-1.134851646E1,-1.557428241E0
9.162312379E0,2.160767078E0,-1.172081470E1,-5.626373887E-1
9.164487879E0,2.160767078E0,-1.172081470E1,-5.626373887E-1
9.168642254E0,2.184709072E0,-1.223317337E1,3.806780577E-1
9.172634713E0,2.480392933E0,-1.300171280E1,1.132457376E0
9.177634713E0,3.132812977E0,-1.385524559E1,1.549048543E0
9.180757838E0,3.132812977E0,-1.385524559E1,1.549048543E0
9.187763046E0,4.751293182E0,-1.581489944E1,8.667010069E-1
9.192763046E0,5.459977150E0,-1.683961678E1,1.244984865E-1
9.196232463E0,5.459977150E0,-1.683961678E1,1.244984865E-1
9.202305963E0,5.420472622E0,-1.892257309E1,-2.069787264E0
9.207127796E0,4.417302132E0,-2.009573174E1,-2.995146275E0
9.213441796E0,3.093308687E0,-2.124494934E1,-3.457227230E0
9.217408421E0,1.790862918E0,-2.210087585E1,-3.788824081E0
9.222098838E0,9.397241473E-1,-2.248514557E1,-4.118026733E0
9.227204254E0,9.696516991E-1,-2.210207367E1,-4.759673119E0
9.233069004E0,1.661576033E0,-2.113122368E1,-5.961562157E0
9.237172129E0,2.813186884E0,-1.963484764E1,-7.210138321E0
9.242044838E0,4.059369087E0,-1.783919716E1,-8.189367294E0
9.247994171E0,5.037400246E0,-1.598967648E1,-8.372523308E0
9.252630338E0,6.020220280E0,-1.396777248E1,-6.846219540E0
9.257199504E0,7.278373241E0,-1.184052467E1,-3.785232782E0
9.262685088E0,9.342175484E0,-9.397241592E0,-1.011550188E0
9.267413879E0,8.419210434E0,-8.423998833E0,-1.738190413E0
9.271970629E0,6.789956093E0,-7.611167431E0,-1.914164305E0
9.277592338E0,5.904101372E0,-6.125565052E0,8.643068075E-1
9.283068921E0,4.860229492E0,-5.176264286E0,3.331531763E0
9.287632879E0,4.990713596E0,-4.235342979E0,3.511096716E0
9.293680046E0,4.879383087E0,-3.521870613E0,3.821146011E0
9.297449921E0,4.097676277E0,-3.126827478E0,5.705382824E0
9.302653963E0,4.952406406E0,-2.549824715E0,4.953603268E0
9.307070129E0,4.952406406E0,-2.549824715E0,4.953603268E0
9.312117463E0,4.461595058E0,-2.679111719E0,1.122880578E0
9.317207338E0,3.667917013E0,-3.105279684E0,-6.129156351E-1
9.322068421E0,2.294842243E0,-3.936067581E0,1.675941236E-2
9.327068421E0,1.577778935E0,-4.736927986E0,1.132457376E0
9.330399629E0,1.577778935E0,-4.736927986E0,1.132457376E0
9.337926421E0,1.900996208E0,-5.448006153E0,1.649604917E0
9.342291754E0,1.425747156E0,-5.522226334E0,1.059434295E0
9.347930046E0,7.529764175E-1,-5.518634796E0,5.159504414E-1
9.352535129E0,1.280897856E-1,-5.567716122E0,6.464344263E-2
9.357179463E0,-3.519476354E-1,-5.607220173E0,-1.221042871E-1
9.362485379E0,-7.003039718E-1,-5.591658115E0,-1.424549967E-1
9.367145879E0,-9.109937549E-1,-5.450400352E0,-1.005564705E-1
9.372150671E0,-1.086967587E0,-5.280411720E0,2.633621916E-2
9.377706046E0,-1.143231273E0,-5.208585739E0,-3.471592441E-2
9.381988838E0,-1.277306557E0,-5.236119270E0,-1.197100803E-2
9.387220296E0,-1.435323954E0,-5.305551052E0,8.619125932E-2
9.391952421E0,-1.437718153E0,-5.468356609E0,1.268926859E-1
9.397646588E0,-1.375468850E0,-5.655104637E0,3.974374831E-1
9.402422629E0,-1.373074651E0,-5.781997204E0,7.314286232E-1
9.407099629E0,-1.436521053E0,-5.901707172E0,1.054645896E0
9.412996671E0,-1.480813742E0,-6.050147533E0,1.223437071E0
9.417438379E0,-1.341950059E0,-6.263231754E0,1.436521053E0
9.422169629E0,-9.720458984E-1,-6.461950302E0,1.569399238E0
9.427272213E0,-6.883329749E-1,-6.566098213E0,1.709460020E0
9.431944629E0,-3.818751574E-1,-6.558915615E0,1.811213613E0
9.437595088E0,1.316810958E-2,-6.534973621E0,1.817199111E0
9.441883088E0,4.441244006E-1,-6.551733017E0,1.831564307E0
9.447202504E0,8.535329103E-1,-6.476315498E0,1.868674397E0
9.452022546E0,1.159990668E0,-6.299144745E0,1.839944005E0
9.457497546E0,1.580173135E0,-6.098031521E0,1.766920805E0
9.462188004E0,2.173935175E0,-5.883750439E0,1.680729628E0
9.467232504E0,2.890998602E0,-5.653907299E0,1.519120932E0
9.473726129E0,3.774458885E0,-5.276820660E0,1.503558636E0
9.477095421E0,4.544194698E0,-4.742913723E0,1.703474522E0
9.482081546E0,5.120000362E0,-4.169502258E0,2.546233416E0
9.487107504E0,5.895721912E0,-3.713406801E0,3.750516891E0
9.492107504E0,6.673837185E0,-3.362656355E0,5.390544891E0
9.496615838E0,6.673837185E0,-3.362656355E0,5.390544891E0
9.502308129E0,8.304288864E0,-4.376600742E0,6.513425827E0
9.507963921E0,8.364143372E0,-6.659471989E0,5.282805920E0
9.513460921E0,8.325836182E0,-8.595184326E0,5.153519154E0
9.517286796E0,7.511807919E0,-1.043033981E1,4.724956989E0
9.521934588E0,6.199785233E0,-1.261983681E1,4.474762917E0
9.527131213E0,4.491522312E0,-1.471596050E1,4.432864666E0
9.532088838E0,3.169923067E0,-1.591784954E1,3.677493811E0
9.537530129E0,2.542642117E0,-1.622311020E1,2.548627615E0
9.542896421E0,2.118868589E0,-1.621832275E1,1.482010841E0
9.547158504E0,2.528276920E0,-1.581370258E1,1.261744261E0
9.551924213E0,3.196259260E0,-1.518522453E1,1.249773264E0
9.557134921E0,4.349067211E0,-1.406952667E1,5.817909837E-1
9.562029463E0,5.901707172E0,-1.270004272E1,1.310825467E0
9.566943754E0,7.424419403E0,-1.190636539E1,3.027467966E0
9.571929254E0,7.717709064E0,-1.238520527E1,3.220201254E0
9.577287671E0,7.515398979E0,-1.360624790E1,1.814804912E0
9.582055296E0,7.686584473E0,-1.546893692E1,-5.135562420E-1
9.587049213E0,6.822277546E0,-1.704791260E1,-5.317522049E0
9.592146713E0,5.541379929E0,-1.828691292E1,-1.226070690E1
9.597793379E0,4.741716385E0,-1.952351761E1,-1.532767963E1
9.602018088E0,4.396951199E0,-1.988264847E1,-8.469488144E0
9.607110421E0,2.885013103E0,-1.965879059E1,1.905784607E0
9.612008296E0,8.379706182E-3,-1.820790482E1,6.687005520E0
9.617631088E0,-2.503137827E0,-1.578736591E1,6.260837555E0
9.621984879E0,-3.341108561E0,-1.282454109E1,3.642777920E0
9.627126504E0,-3.626018524E0,-1.035851383E1,1.553836942E0
9.632452754E0,-3.963600874E0,-9.569623947E0,2.142810524E-1
9.637780171E0,-4.370615005E0,-9.340977669E0,2.250549644E-1
9.642543296E0,-3.930082083E0,-9.063250542E0,1.685518026E0
9.647595088E0,-3.120841980E0,-8.595184326E0,3.205836058E0
9.652283629E0,-2.489969730E0,-8.306682587E0,3.951629877E0
9.657838088E0,-1.996764183E0,-8.176198959E0,4.491522312E0
9.663069129E0,-1.891419291E0,-8.277952194E0,4.623203278E0
9.668931754E0,-1.885433793E0,-8.653841972E0,3.622427225E0
9.673839171E0,-1.587355733E0,-9.211690903E0,2.826355219E0
9.679179171E0,-1.341950059E0,-1.036449909E1,1.886630893E0
9.683754004E0,-1.137245774E0,-1.211106968E1,5.434837937E-1
9.687366504E0,-9.672574997E-1,-1.421916389E1,-7.074866295E-1
9.692687046E0,-1.137245819E-1,-1.617761993E1,-2.267308950E0
9.698892379E0,9.397241473E-1,-1.789067268E1,-3.303998232E0
9.703669463E0,1.850717902E0,-1.912129211E1,-3.788824081E0
9.707237879E0,2.483984232E0,-1.952591133E1,-3.647566319E0
9.712156171E0,2.656366825E0,-1.916797829E1,-3.892971992E0
9.717615129E0,2.627636433E0,-1.832282639E1,-4.116829872E0
9.722412004E0,2.276885748E0,-1.704192734E1,-4.068945885E0
9.728415879E0,2.381033659E0,-1.540309620E1,-3.402160645E0
9.732452088E0,2.189497471E0,-1.362659931E1,-2.118868589E0
9.737886671E0,1.895010591E0,-1.179982281E1,-1.047463298E0
9.742137421E0,1.501164436E0,-9.962273598E0,2.980781198E-1
9.747553629E0,1.131260276E0,-8.386888504E0,1.705868721E0
9.752262796E0,9.504981041E-1,-6.980295181E0,2.834734917E0
9.757411504E0,7.996633649E-1,-5.780799866E0,3.060986757E0
9.762085296E0,6.643909812E-1,-4.823119164E0,2.364274263E0
9.768350463E0,1.101332754E-1,-4.349067211E0,1.921346903E0
9.772278088E0,-4.261679053E-1,-4.019864559E0,2.657563925E0
9.777495796E0,-5.734112859E-1,-3.818751812E0,2.916137695E0
9.783747088E0,-7.505822182E-1,-3.886986494E0,2.904166698E0
9.787125796E0,-7.290344238E-1,-4.120420933E0,2.979583979E0
9.792125796E0,-8.774749041E-1,-4.469974518E0,3.381809950E0
9.796179921E0,-8.774749041E-1,-4.469974518E0,3.381809950E0
9.802269629E0,-3.734954596E-1,-5.055356979E0,2.828749418E0
9.808050213E0,-3.495534360E-1,-5.594052315E0,2.936488390E0
9.813490879E0,-2.980781198E-1,-6.004657745E0,2.449268341E0
9.817213629E0,-3.471592367E-1,-6.333860397E0,2.127248287E0
9.822213629E0,-4.010287821E-1,-6.607996464E0,1.799242616E0
9.825299046E0,-4.010287821E-1,-6.607996464E0,1.799242616E0
9.832111463E0,9.097966552E-2,-6.910863400E0,1.442506552E0
9.833692921E0,9.097966552E-2,-6.910863400E0,1.442506552E0
9.838513880E0,1.221042871E-1,-7.177816868E0,8.762778044E-1
9.843395630E0,4.249708056E-1,-7.435193539E0,7.302315235E-1
9.847313796E0,1.094150186E0,-7.614758492E0,5.458779931E-1
9.852062505E0,1.606509328E0,-7.782352448E0,5.482721925E-1
9.857857088E0,2.092532396E0,-7.820659637E0,3.148375154E-1
9.861954088E0,2.559401512E0,-7.872135162E0,5.506663769E-2
9.867362255E0,2.640804529E0,-8.093599319E0,-2.166752517E-1
9.872065171E0,2.568978310E0,-8.479064941E0,-5.650315881E-1
9.877065171E0,2.451662540E0,-8.868123055E0,-8.188169599E-1
9.879352046E0,2.451662540E0,-8.868123055E0,-8.188169599E-1
9.882105088E0,2.470816135E0,-9.095572472E0,-8.295909166E-1
9.888456880E0,2.630030632E0,-9.132682800E0,-6.775590777E-1
9.892168546E0,2.721010208E0,-9.065644264E0,-3.579331636E-1
9.897113171E0,2.868253708E0,-9.015366554E0,4.070143029E-2
9.902888588E0,2.948459387E0,-8.761581421E0,5.949591398E-1
9.907049421E0,3.096899986E0,-8.339004517E0,8.379706144E-1
9.912030546E0,3.179499865E0,-8.063671112E0,1.063025594E0
9.917351921E0,3.421314240E0,-7.891288757E0,1.127668977E0
9.922139255E0,3.790021181E0,-7.735665798E0,1.292868972E0
9.927686963E0,4.064157486E0,-7.685387611E0,1.526303530E0
9.932279755E0,4.420893669E0,-7.546523571E0,1.805228114E0
9.937292213E0,4.590881824E0,-7.365761757E0,2.104503393E0
9.941907380E0,4.661510944E0,-7.101202011E0,2.664746523E0
9.947083463E0,4.577713490E0,-6.613982201E0,3.436876535E0
9.951943630E0,4.211400986E0,-6.083666325E0,3.888183594E0
9.957232171E0,4.562151432E0,-5.379771233E0,3.927687883E0
9.961963255E0,4.965574265E0,-4.686649799E0,3.986345768E0
9.966963255E0,4.994304657E0,-4.213795185E0,4.254496574E0
9.968980921E0,4.994304657E0,-4.213795185E0,4.254496574E0
9.972020838E0,4.859032154E0,-3.778050184E0,4.784811974E0
9.978514630E0,4.965574265E0,-3.653551817E0,4.900930882E0
9.981922921E0,5.534197330E0,-3.591302633E0,4.499902248E0
9.987040546E0,6.230909824E0,-3.727771997E0,3.700238705E0
9.991944296E0,6.709750175E0,-4.193444252E0,3.511096716E0
9.997318546E0,6.961141586E0,-4.841075897E0,3.643975019E0
1.000209105E1,6.797138691E0,-5.931634903E0,3.977966070E0
1.000725913E1,6.630741596E0,-7.392097950E0,4.344278812E0
1.001210084E1,6.390124321E0,-8.932766914E0,4.695029736E0
1.001735334E1,6.039373875E0,-1.016697788E1,4.686649799E0
