"Time (s)","Acceleration x (m/s^2)","Acceleration y (m/s^2)","Acceleration z (m/s^2)"
0.000000000E0,-1.320292354E0,4.448690891E0,7.992985249E0
1.987187000E-3,-1.339456201E0,4.429527283E0,8.055268288E0
3.974323000E-3,-1.372992992E0,4.463063717E0,8.136714935E0
5.961458000E-3,-1.464021087E0,4.491809368E0,8.198997498E0
7.948594000E-3,-1.521512628E0,4.525346279E0,8.261279106E0
9.935729000E-3,-1.564631224E0,4.587628841E0,8.347517014E0
1.192286400E-2,-1.598167896E0,4.611583233E0,8.405008316E0
1.391000000E-2,-1.612540841E0,4.659492970E0,8.486454964E0
1.589713500E-2,-1.660450339E0,4.688238621E0,8.524782181E0
1.788416700E-2,-1.689196110E0,4.707402706E0,8.510409355E0
1.986880200E-2,-1.670032263E0,4.702611446E0,8.505618095E0
2.185343700E-2,-1.655659437E0,4.726566315E0,8.601437569E0
2.383843700E-2,-1.650868416E0,4.736148357E0,8.644556046E0
2.582385400E-2,-1.703568935E0,4.740939140E0,8.634974480E0
2.780973900E-2,-1.670032263E0,4.716984272E0,8.625391960E0
2.979614600E-2,-1.622122645E0,4.721775532E0,8.630183220E0
3.178307300E-2,-1.545467377E0,4.697820663E0,8.615810394E0
3.377052100E-2,-1.502348781E0,4.712193489E0,8.596646309E0
3.575859400E-2,-1.449648261E0,4.740939140E0,8.577482224E0
3.774739600E-2,-1.401738644E0,4.760103226E0,8.563109398E0
3.973697900E-2,-1.315501451E0,4.774476051E0,8.567900658E0
4.172739600E-2,-1.258009911E0,4.827176571E0,8.587064743E0
4.371854200E-2,-1.214891315E0,4.841549397E0,8.577482224E0
4.571036400E-2,-1.138236046E0,4.980487347E0,8.663720131E0
4.770270800E-2,-8.938972354E-1,5.335018158E0,8.687674522E0
4.969546900E-2,-1.109490275E0,5.191289425E0,8.726002693E0
5.168848900E-2,-1.420902491E0,5.172125340E0,8.702047348E0
5.368161400E-2,-1.636495590E0,5.354181767E0,8.797866821E0
5.567385400E-2,-1.674823284E0,5.502701283E0,8.625391960E0
5.766328100E-2,-1.780224323E0,5.953051567E0,8.716420174E0
5.965270800E-2,-1.583795071E0,5.617684364E0,8.611019135E0
6.164213500E-2,-1.444857240E0,5.459582806E0,8.687674522E0
6.363156200E-2,-1.435275435E0,5.684757710E0,9.348826408E0
6.562098900E-2,-1.396947742E0,5.967424393E0,9.736894608E0
6.761041700E-2,-1.248428106E0,5.656012058E0,8.888895035E0
6.959984400E-2,-1.152608871E0,5.363763809E0,8.524782181E0
7.158927100E-2,-1.133445024E0,5.076306343E0,8.328352928E0
7.357869800E-2,-1.109490275E0,4.865504265E0,8.309188843E0
7.556812500E-2,-1.061580777E0,4.731357574E0,8.122342110E0
7.755755200E-2,-9.657616019E-1,4.640329361E0,8.064849854E0
7.954697900E-2,-8.747333884E-1,4.549301147E0,8.016940117E0
8.153640600E-2,-7.980780602E-1,4.491809368E0,8.036104202E0
8.352583300E-2,-7.980780602E-1,4.343289852E0,8.155878067E0
8.551526000E-2,-8.603605032E-1,4.228306770E0,8.246906281E0
8.750468700E-2,-9.226429462E-1,4.213933945E0,8.242115974E0
8.949411400E-2,-9.561796784E-1,4.199561119E0,8.337934494E0
9.148354200E-2,-1.018462181E0,4.276216507E0,8.203787804E0
9.347296900E-2,-9.322248697E-1,4.319334984E0,8.222951889E0
9.546239600E-2,-9.705525637E-1,4.381617546E0,8.232533455E0
9.745182300E-2,-9.561796784E-1,4.376826763E0,8.203787804E0
9.944125000E-2,-9.849253893E-1,4.434318066E0,8.218160629E0
1.014306770E-1,-9.897163510E-1,4.439108849E0,8.333144188E0
1.034201040E-1,-9.657616019E-1,4.530137062E0,8.294816017E0
1.054095310E-1,-9.034791589E-1,4.544509888E0,8.400217056E0
1.073989580E-1,-8.843153119E-1,4.525346279E0,8.376262665E0
1.093883850E-1,-8.316147923E-1,4.520555019E0,8.587064743E0
1.113778120E-1,-8.268238306E-1,4.568464756E0,8.572691917E0
1.133672390E-1,-7.645413876E-1,4.611583233E0,8.649347305E0
1.153566670E-1,-6.985261291E-2,5.042769432E0,8.543946266E0
1.173460940E-1,1.026218459E-1,5.085888386E0,8.582273483E0
1.193355210E-1,-2.614909112E-1,5.133797646E0,8.601437569E0
1.213249480E-1,-5.968579054E-1,5.196080208E0,8.639764786E0
1.233143750E-1,-7.549594641E-1,5.191289425E0,8.630183220E0
1.253038020E-1,-7.549594641E-1,5.172125340E0,8.850566864E0
1.272932290E-1,-7.166318297E-1,5.119424820E0,8.912849426E0
1.292826560E-1,-7.453775406E-1,5.133797646E0,8.821821213E0
1.312720830E-1,-8.220328689E-1,5.095469952E0,8.932013512E0
1.332615100E-1,-9.418067932E-1,5.119424820E0,8.639764786E0
1.352509370E-1,-9.418067932E-1,5.066724300E0,8.845776558E0
1.372403640E-1,-9.034791589E-1,5.009232998E0,8.860149384E0
1.392297920E-1,-8.651514649E-1,4.975696087E0,8.879312515E0
1.412192190E-1,-9.178519845E-1,4.894249916E0,9.032623291E0
1.432086460E-1,-9.082701206E-1,4.822385311E0,9.032623291E0
1.451980730E-1,-9.034791589E-1,4.693029881E0,9.075741768E0
1.471875000E-1,-8.411967158E-1,4.659492970E0,9.066160202E0
1.491769270E-1,-7.980780602E-1,4.640329361E0,9.003877640E0
1.511663540E-1,-7.166318297E-1,4.606792450E0,8.884103775E0
1.531557810E-1,-6.303945780E-1,4.568464756E0,9.042205811E0
1.551452080E-1,-6.256036162E-1,4.582837582E0,8.836194038E0
1.571346350E-1,-6.160216928E-1,4.510973454E0,9.080533028E0
1.591240620E-1,-6.974679828E-1,4.482227802E0,8.984713554E0
1.611134890E-1,-8.028690219E-1,4.410363197E0,9.046996117E0
1.631029170E-1,-7.214227915E-1,4.419945240E0,9.008668900E0
1.650923440E-1,-6.543493867E-1,4.439108849E0,8.855358124E0
1.670817710E-1,-5.824850202E-1,4.482227802E0,8.802658081E0
1.690711980E-1,-5.537392497E-1,4.549301147E0,8.769121170E0
1.710606250E-1,-5.345754623E-1,4.616374493E0,8.649347305E0
1.730500520E-1,-5.106206536E-1,4.625956535E0,8.716420174E0
1.750394790E-1,-5.249935389E-1,4.640329361E0,8.692465782E0
1.770289060E-1,-5.345754623E-1,4.721775532E0,8.644556046E0
1.790183330E-1,-4.818749130E-1,4.755311966E0,8.668510437E0
1.810077600E-1,-4.339653552E-1,4.764894009E0,8.630183220E0
1.829971870E-1,-4.339653552E-1,4.788848877E0,8.539155006E0
1.849866140E-1,-4.387563169E-1,4.808012486E0,8.563109398E0
1.869760420E-1,-4.004286528E-1,4.831967354E0,8.567900658E0
1.889654690E-1,-3.908467293E-1,4.865504265E0,8.515200615E0
1.909548960E-1,-4.004286528E-1,4.836758614E0,8.601437569E0
1.929443230E-1,-3.908467293E-1,4.870295048E0,8.577482224E0
1.949337500E-1,-4.100105762E-1,4.855922222E0,8.654137611E0
1.969231770E-1,-4.339653552E-1,4.798430920E0,8.754748344E0
1.989126040E-1,-5.681121349E-1,4.764894009E0,8.802658081E0
2.009020310E-1,-5.249935389E-1,4.788848877E0,8.831403732E0
2.028914580E-1,-4.675020576E-1,4.784058094E0,8.845776558E0
2.048808850E-1,-4.483382106E-1,4.793639660E0,8.826612473E0
2.068703120E-1,-4.627110958E-1,4.812803745E0,8.759538651E0
2.088597390E-1,-4.579201341E-1,4.822385311E0,8.778702736E0
2.108491670E-1,-5.585302114E-1,4.784058094E0,8.788285255E0
2.128385940E-1,-5.968579054E-1,4.808012486E0,8.831403732E0
2.148280210E-1,-5.776940584E-1,4.822385311E0,8.783493996E0
2.168174480E-1,-5.872759819E-1,4.831967354E0,8.788285255E0
2.188068750E-1,-5.920669436E-1,4.846340179E0,8.749957085E0
2.207963020E-1,-5.968579054E-1,4.788848877E0,8.706838608E0
2.227857290E-1,-6.016488671E-1,4.755311966E0,8.773911476E0
2.247751560E-1,-6.160216928E-1,4.755311966E0,8.697257042E0
2.267645830E-1,-6.351855397E-1,4.750521183E0,8.678092957E0
2.287540100E-1,-6.783041358E-1,4.712193489E0,8.634974480E0
2.307434370E-1,-6.830950975E-1,4.669075012E0,8.682883263E0
2.327328640E-1,-6.783041358E-1,4.578046799E0,8.726002693E0
2.347222920E-1,-7.645413876E-1,4.539719105E0,8.682883263E0
2.367117190E-1,-6.735131741E-1,4.554091930E0,8.682883263E0
2.387011460E-1,-6.160216928E-1,4.544509888E0,8.615810394E0
2.406905730E-1,-5.824850202E-1,4.501391411E0,8.534363747E0
2.426800000E-1,-5.633211732E-1,4.482227802E0,8.481663704E0
2.446694270E-1,-5.441573858E-1,4.491809368E0,8.476872444E0
2.466588540E-1,-5.681121349E-1,4.477436543E0,8.462499619E0
2.486482810E-1,-5.297845006E-1,4.506182194E0,8.500827789E0
2.506377080E-1,-5.058296919E-1,4.467854500E0,8.510409355E0
2.526271350E-1,-4.770839512E-1,4.448690891E0,8.448126793E0
2.546165620E-1,-4.435472488E-1,4.467854500E0,8.361889839E0
2.566059890E-1,-3.764738739E-1,4.439108849E0,8.452918053E0
2.585954170E-1,-4.291743934E-1,4.491809368E0,8.385844231E0
2.605848440E-1,-4.818749130E-1,4.554091930E0,8.486454964E0
2.625742710E-1,-5.106206536E-1,4.520555019E0,8.496036530E0
2.645636980E-1,-5.633211732E-1,4.606792450E0,8.433753967E0
2.665531250E-1,-5.729030967E-1,4.534928322E0,8.577482224E0
2.685425520E-1,-5.729030967E-1,4.597210407E0,8.587064743E0
2.705319790E-1,-5.585302114E-1,4.592419624E0,8.572691917E0
2.725214060E-1,-6.256036162E-1,4.645120144E0,8.678092957E0
2.745108330E-1,-7.022589445E-1,4.649910927E0,8.658928871E0
2.765002600E-1,-7.693323493E-1,4.592419624E0,8.745165825E0
2.784896870E-1,-7.262137532E-1,4.606792450E0,8.730792999E0
2.804791140E-1,-6.447674632E-1,4.640329361E0,8.730792999E0
2.824685420E-1,-6.447674632E-1,4.649910927E0,8.726002693E0
2.844579690E-1,-6.303945780E-1,4.659492970E0,8.687674522E0
2.864473960E-1,-6.208126545E-1,4.755311966E0,8.697257042E0
2.884368230E-1,-5.968579054E-1,4.750521183E0,8.730792999E0
2.904262500E-1,-6.399765015E-1,4.755311966E0,8.702047348E0
2.924156770E-1,-6.543493867E-1,4.764894009E0,8.716420174E0
2.944051040E-1,-6.256036162E-1,4.750521183E0,8.716420174E0
2.963945310E-1,-6.064398289E-1,4.779266834E0,8.706838608E0
2.983839580E-1,-5.729030967E-1,4.740939140E0,8.735584259E0
3.003733850E-1,-5.872759819E-1,4.731357574E0,8.726002693E0
3.023628120E-1,-5.681121349E-1,4.740939140E0,8.706838608E0
3.043522390E-1,-5.585302114E-1,4.697820663E0,8.721211433E0
3.063416670E-1,-5.106206536E-1,4.678657055E0,8.745165825E0
3.083310940E-1,-4.914568365E-1,4.654702187E0,8.759538651E0
3.103205210E-1,-5.058296919E-1,4.558882713E0,8.730792999E0
3.123100000E-1,-5.154116154E-1,4.539719105E0,8.778702736E0
3.142994790E-1,-5.537392497E-1,4.563673973E0,8.783493996E0
3.162889580E-1,-4.914568365E-1,4.578046799E0,8.797866821E0
3.182784370E-1,-4.627110958E-1,4.640329361E0,8.726002693E0
3.202679170E-1,-4.195924699E-1,4.544509888E0,8.711629868E0
3.222573960E-1,-4.339653552E-1,4.611583233E0,8.697257042E0
3.242468750E-1,-3.908467293E-1,4.597210407E0,8.702047348E0
3.262363540E-1,-4.770839512E-1,4.630747318E0,8.735584259E0
3.282258330E-1,-4.435472488E-1,4.611583233E0,8.678092957E0
3.302153120E-1,-4.339653552E-1,4.568464756E0,8.673301697E0
3.322047920E-1,-4.291743934E-1,4.625956535E0,8.702047348E0
3.341942710E-1,-4.052196145E-1,4.611583233E0,8.678092957E0
3.361837500E-1,-4.387563169E-1,4.659492970E0,8.615810394E0
3.381732290E-1,-3.764738739E-1,4.645120144E0,8.611019135E0
3.401627080E-1,-3.621009886E-1,4.707402706E0,8.563109398E0
3.421521870E-1,-3.477281332E-1,4.673865795E0,8.529573441E0
3.441416670E-1,-3.094004691E-1,4.740939140E0,8.472081184E0
3.461311460E-1,-3.381462097E-1,4.688238621E0,8.496036530E0
3.481206250E-1,-2.471180260E-1,4.702611446E0,8.428962708E0
3.501101040E-1,-2.087903619E-1,4.793639660E0,8.390635490E0
3.520995830E-1,-1.752536595E-1,4.764894009E0,8.333144188E0
3.540890620E-1,-1.129712313E-1,4.788848877E0,8.290025711E0
3.560785420E-1,-5.068878829E-2,4.865504265E0,8.227743149E0
3.580680210E-1,-1.236112881E-2,4.860713005E0,8.170250893E0
3.600575000E-1,4.033939540E-2,4.812803745E0,8.184623718E0
3.620469790E-1,1.074127927E-1,4.817594528E0,8.218160629E0
3.640364580E-1,1.744862050E-1,4.803221703E0,8.208579063E0
3.660259370E-1,1.840681136E-1,4.755311966E0,8.246906281E0
3.680154170E-1,1.936500371E-1,4.712193489E0,8.270861626E0
3.700048960E-1,2.798872590E-1,4.688238621E0,8.285234451E0
3.719943230E-1,3.421697021E-1,4.645120144E0,8.313980103E0
3.739837500E-1,3.900792599E-1,4.635538101E0,8.299607277E0
3.759731770E-1,4.523617029E-1,4.630747318E0,8.275651932E0
3.779626040E-1,5.002712607E-1,4.573255539E0,8.304398537E0
3.799520310E-1,6.056723595E-1,4.544509888E0,8.294816017E0
3.819414580E-1,7.158643603E-1,4.472645760E0,8.313980103E0
3.839308850E-1,7.398191690E-1,4.439108849E0,8.400217056E0
3.859203120E-1,7.637739182E-1,4.362453461E0,8.424172401E0
3.879097390E-1,7.062824368E-1,4.343289852E0,8.462499619E0
3.898991670E-1,6.631638408E-1,4.281007290E0,8.409799576E0
3.918885940E-1,6.775367260E-1,4.257052422E0,8.428962708E0
3.938780210E-1,6.248361468E-1,4.185188293E0,8.448126793E0
3.958674480E-1,5.194351077E-1,4.180397511E0,8.381052971E0
3.978568750E-1,5.050622225E-1,4.161233425E0,8.419381142E0
3.998463020E-1,4.667345881E-1,4.142069817E0,8.510409355E0
4.018357290E-1,3.852883279E-1,4.022295952E0,8.611019135E0
4.038251560E-1,2.415595949E-1,3.998340845E0,8.596646309E0
4.058145830E-1,1.217856631E-1,4.012713909E0,8.558319092E0
4.078040100E-1,1.159365661E-2,4.084578037E0,8.558319092E0
4.097934370E-1,-4.589782655E-2,4.060623646E0,8.524782181E0
4.117828640E-1,-1.321350485E-1,4.036668777E0,8.558319092E0
4.137722920E-1,-2.423270643E-1,4.027086735E0,8.548736572E0
4.157617190E-1,-2.662818432E-1,4.103742123E0,8.558319092E0
4.177511460E-1,-3.477281332E-1,4.118114948E0,8.543946266E0
4.197405730E-1,-3.860557675E-1,4.108532906E0,8.587064743E0
4.217300000E-1,-3.908467293E-1,4.108532906E0,8.587064743E0
4.237194270E-1,-3.956376910E-1,4.060623646E0,8.625391960E0
4.257088540E-1,-4.675020576E-1,4.055832386E0,8.634974480E0
4.276982810E-1,-4.722929895E-1,4.089369297E0,8.692465782E0
4.296877080E-1,-5.249935389E-1,4.060623646E0,8.821821213E0
4.316771350E-1,-5.106206536E-1,4.060623646E0,8.879312515E0
4.336665620E-1,-5.585302114E-1,4.074996471E0,8.922431946E0
4.356559890E-1,-6.016488671E-1,4.060623646E0,8.984713554E0
4.376454170E-1,-6.112307310E-1,4.036668777E0,9.056578636E0
4.396348440E-1,-6.256036162E-1,4.003131866E0,9.142815590E0
4.416242710E-1,-6.495584249E-1,3.964804173E0,9.219470978E0
4.436136980E-1,-7.070499063E-1,3.931267500E0,9.286543846E0
4.456031250E-1,-6.974679828E-1,3.912103653E0,9.382363319E0
4.475925520E-1,-6.878860593E-1,3.830657482E0,9.478182793E0
4.495819790E-1,-7.070499063E-1,3.773165941E0,9.530882835E0
4.515714060E-1,-6.639313102E-1,3.730047226E0,9.621911049E0
4.535608330E-1,-5.441573858E-1,3.758793116E0,9.784803391E0
4.555502600E-1,-2.998185456E-1,3.897730827E0,9.981232643E0
4.575396870E-1,-3.631591424E-2,4.065414429E0,1.001956081E1
4.595291140E-1,2.990510762E-1,4.204351902E0,1.003393364E1
4.615185420E-1,6.104633212E-1,4.324126244E0,1.003872490E1
4.635079690E-1,8.931297660E-1,4.439108849E0,1.002914238E1
4.654973960E-1,1.113513827E0,4.534928322E0,9.986023903E0
4.674868230E-1,1.285988212E0,4.558882713E0,9.914159775E0
4.694762500E-1,1.343479753E0,4.611583233E0,9.818340302E0
4.714656770E-1,1.477626562E0,4.602001667E0,9.703357697E0
4.734551040E-1,1.688428640E0,4.592419624E0,9.890205383E0
4.754445310E-1,1.822575450E0,4.688238621E0,1.018245316E1
4.774339580E-1,1.870485067E0,4.860713005E0,9.842295647E0
4.794233850E-1,1.980677009E0,4.937368393E0,9.487764359E0
4.814128120E-1,2.162733316E0,4.932577610E0,9.262589455E0
4.834022390E-1,2.301671028E0,5.014023781E0,9.214679718E0
4.853916670E-1,2.277716160E0,5.138588905E0,9.233843803E0
4.873810940E-1,2.392699242E0,5.081097126E0,9.118861198E0
4.893705210E-1,2.541218996E0,5.042769432E0,9.080533028E0
4.913599480E-1,2.713693380E0,5.018814564E0,8.999087334E0
4.933493750E-1,2.780766726E0,4.932577610E0,8.927222252E0
4.953388020E-1,2.886167765E0,4.740939140E0,8.807448387E0
4.973282290E-1,2.900540590E0,4.645120144E0,8.802658081E0
4.993176560E-1,2.838258266E0,4.530137062E0,8.831403732E0
5.013070830E-1,2.675365686E0,4.525346279E0,9.061368942E0
5.032965100E-1,2.546009779E0,4.463063717E0,9.166769981E0
5.052859370E-1,2.397490263E0,4.395990372E0,9.253007889E0
5.072753640E-1,2.066914082E0,4.295380116E0,9.286543846E0
5.092647920E-1,1.137468576E0,3.835448265E0,8.989504814E0
5.112542190E-1,8.452202082E-1,3.964804173E0,9.267380714E0
5.132436460E-1,6.056723595E-1,4.041459560E0,9.502137184E0
5.152330730E-1,4.140340686E-1,4.156442642E0,9.636283875E0
5.172225000E-1,3.230058849E-1,4.261843681E0,9.861458778E0
5.192119270E-1,3.613335192E-1,4.362453461E0,1.027348137E1
5.212013540E-1,3.709154427E-1,4.453481674E0,1.064238548E1
5.231907810E-1,3.182149231E-1,4.554091930E0,1.073341370E1
5.251802080E-1,4.236159623E-1,4.640329361E0,1.093942451E1
5.271696350E-1,5.577627420E-1,4.745730400E0,1.115980816E1
5.291590620E-1,6.487909555E-1,4.745730400E0,1.136581993E1
5.311484890E-1,7.829377651E-1,4.769684792E0,1.161494923E1
5.331379170E-1,8.500111699E-1,4.769684792E0,1.184012413E1
5.351273440E-1,8.643839955E-1,4.764894009E0,1.218986416E1
5.371167710E-1,8.931297660E-1,4.750521183E0,1.253481293E1
5.391061980E-1,8.068925142E-1,4.731357574E0,1.301390934E1
5.410956250E-1,7.254462838E-1,5.176916599E0,1.373255253E1
5.430850520E-1,7.541919947E-1,5.138588905E0,1.389065361E1
5.450744790E-1,7.973106503E-1,4.822385311E0,1.406791973E1
5.470639060E-1,8.883388042E-1,4.496600628E0,1.428351212E1
5.490533330E-1,1.027276516E0,4.271425247E0,1.449910545E1
5.510427600E-1,1.228496790E0,4.094160080E0,1.477219009E1
5.530321870E-1,1.362643600E0,3.888149023E0,1.489196396E1
5.550216140E-1,1.520745158E0,3.763584137E0,1.504527473E1
5.570110420E-1,1.741129160E0,3.490499496E0,1.515546703E1
5.590004690E-1,1.980677009E0,3.294070244E0,1.515067577E1
5.609898960E-1,2.215433836E0,3.097640991E0,1.475302601E1
5.629793230E-1,2.335207701E0,3.025776625E0,1.429309464E1
5.649687500E-1,2.632246971E0,2.767065048E0,1.368464279E1
5.669581770E-1,2.943659306E0,2.302342176E0,1.289413548E1
5.689476040E-1,3.034687519E0,2.192150116E0,1.243420315E1
5.709370310E-1,3.149670362E0,1.899901867E0,1.185928822E1
5.729264580E-1,3.207161903E0,1.708263516E0,1.138019276E1
5.749158850E-1,3.211952925E0,1.492670536E0,1.088193321E1
5.769053120E-1,3.183207035E0,1.157303452E0,1.025910854E1
5.788947390E-1,3.039478540E0,8.794279695E-1,9.698566437E0
5.808841670E-1,2.838258266E0,7.021625638E-1,9.253007889E0
5.828735940E-1,2.593919516E0,4.578237534E-1,8.788285255E0
5.848630210E-1,2.296880007E0,3.093040586E-1,8.433753967E0
5.868524480E-1,2.196269989E0,1.943210959E-1,8.079222679E0
5.888418750E-1,2.287298203E0,8.412908763E-2,7.710319042E0
5.908313020E-1,2.023795605E0,-1.169005036E-2,7.355788231E0
5.928207290E-1,1.698010564E0,-2.108141780E-3,7.025212288E0
5.948101560E-1,1.405762196E0,-1.169005036E-2,6.675472260E0
5.967995830E-1,1.089558959E0,3.621951863E-2,6.378432751E0
5.987890100E-1,7.637739182E-1,1.320386529E-1,6.114930153E0
6.007784370E-1,4.044521451E-1,2.566035390E-1,5.952037811E0
6.027678640E-1,-6.985261291E-2,3.572136164E-1,5.789144993E0
6.047572920E-1,-6.016488671E-1,4.865694642E-1,5.712490082E0
6.067467190E-1,-1.224473238E0,6.638349295E-1,5.769981384E0
6.087361460E-1,-1.698778033E0,4.817785025E-1,6.225122452E0
6.107255730E-1,-2.278483868E0,9.081737399E-1,6.900647163E0
6.127150000E-1,-3.423522711E0,1.578907728E0,5.046546936E0
6.147044270E-1,-4.022392273E0,1.564534903E0,5.262139797E0
6.166938540E-1,-4.242775917E0,1.679517865E0,5.918500900E0
6.186832810E-1,-4.693126202E0,1.899901867E0,5.880173206E0
6.206727080E-1,-5.224922180E0,2.182568073E0,5.798727036E0
6.226621350E-1,-5.766300678E0,2.628127098E0,5.884964466E0
6.246515620E-1,-6.116040230E0,2.882047892E0,5.592715740E0
6.266409890E-1,-6.092085361E0,2.992239952E0,5.549597263E0
6.286304170E-1,-5.761509418E0,2.910793781E0,5.362750053E0
6.306198440E-1,-5.771091461E0,2.915584564E0,5.180693626E0
6.326092710E-1,-5.991475582E0,2.949121237E0,4.974682331E0
6.345986980E-1,-6.149577141E0,3.064104319E0,4.706388950E0
6.365881770E-1,-6.274141788E0,3.265324593E0,4.634524345E0
6.385776560E-1,-6.365170002E0,3.456962824E0,4.677643299E0
6.405671350E-1,-6.446616173E0,3.571945667E0,4.739925385E0
6.425566140E-1,-6.494525909E0,3.672555923E0,4.672852039E0
6.445460940E-1,-6.547226429E0,3.782747746E0,4.653688431E0
6.465355730E-1,-6.523271561E0,3.797120810E0,4.433304310E0
6.485250520E-1,-6.585554123E0,3.845030308E0,4.476422787E0
6.505145310E-1,-6.667000294E0,3.830657482E0,4.486004829E0
6.525040100E-1,-6.743655682E0,3.859403133E0,4.481214046E0
6.544934890E-1,-6.801146984E0,3.921685696E0,4.303948402E0
6.564829690E-1,-6.604717731E0,3.648601055E0,4.634524345E0
6.584724480E-1,-6.580763340E0,3.744420290E0,4.586615086E0
6.604619270E-1,-6.609508991E0,3.873775959E0,4.131474018E0
6.624514060E-1,-6.446616173E0,3.902521849E0,3.776943445E0
6.644408850E-1,-6.211859703E0,3.720465422E0,4.016490936E0
6.664303640E-1,-6.106458187E0,3.639019251E0,4.141056061E0
6.684198440E-1,-6.125622272E0,3.576736689E0,4.040445805E0
6.704093230E-1,-6.259768963E0,3.725256443E0,3.829643965E0
6.723988020E-1,-6.120831490E0,3.394680262E0,3.930253983E0
6.743882810E-1,-6.072921753E0,3.337188959E0,3.681124210E0
6.763777600E-1,-6.048966885E0,3.270115376E0,3.604469061E0
6.783672390E-1,-6.072921753E0,3.246160746E0,3.446367502E0
6.803567190E-1,-6.092085361E0,3.226996899E0,3.336175442E0
6.823461980E-1,-6.159159184E0,3.222205877E0,3.163700819E0
6.843356770E-1,-6.250186920E0,3.217414856E0,3.005599260E0
6.863251560E-1,-6.322051525E0,3.203042030E0,2.842706919E0
6.883146350E-1,-6.513689995E0,3.370725632E0,2.775633335E0
6.903041140E-1,-6.896966457E0,3.749211073E0,2.881034374E0
6.922935940E-1,-7.021531105E0,3.720465422E0,2.718142033E0
6.942830730E-1,-7.170051098E0,3.586318731E0,2.588786125E0
6.962725000E-1,-7.251497269E0,3.399471283E0,2.698978186E0
6.982619270E-1,-7.352107048E0,3.270115376E0,2.512130737E0
7.002513540E-1,-7.390434742E0,3.121595860E0,2.406729698E0
7.022407810E-1,-7.471881390E0,2.953912258E0,2.306119680E0
7.042302080E-1,-7.534163475E0,2.867675066E0,2.095317602E0
7.062196350E-1,-7.615610123E0,2.762274027E0,1.946797848E0
7.082090620E-1,-7.692265034E0,2.738319159E0,1.573103189E0
7.101984890E-1,-7.773711681E0,2.685618639E0,1.506029725E0
7.121879170E-1,-7.792875290E0,2.585008621E0,1.448538303E0
7.141773440E-1,-7.797666073E0,2.489189386E0,1.256899953E0
7.161667710E-1,-7.807248116E0,2.450861692E0,8.688324094E-1
7.181561980E-1,-7.855157852E0,2.388579369E0,7.394765615E-1
7.201456250E-1,-7.898276329E0,2.378997326E0,4.903468490E-1
7.221350520E-1,-7.888694286E0,2.374206543E0,2.172622979E-1
7.241244790E-1,-7.922231197E0,2.393370390E0,-3.121742979E-3
7.261139060E-1,-7.970140934E0,2.441279888E0,-2.857882082E-1
7.281033330E-1,-7.979722500E0,2.470025539E0,-5.109632015E-1
7.300927600E-1,-7.984513760E0,2.455652714E0,-6.930195689E-1
7.320821870E-1,-8.003677368E0,2.441279888E0,-8.654940128E-1
7.340716140E-1,-8.037214279E0,2.426907063E0,-1.042759418E0
7.360610420E-1,-8.065959930E0,2.398161173E0,-1.186488152E0
7.380504690E-1,-8.104288101E0,2.388579369E0,-1.301471114E0
7.400398960E-1,-8.190525055E0,2.378997326E0,-1.397290230E0
7.420293230E-1,-8.262389183E0,2.388579369E0,-1.469154596E0
7.440187500E-1,-8.348627090E0,2.398161173E0,-1.507482290E0
7.460081770E-1,-8.415699959E0,2.374206543E0,-1.512273192E0
7.479976040E-1,-8.573801994E0,2.374206543E0,-1.584137559E0
7.499870310E-1,-8.707948685E0,2.426907063E0,-1.627256155E0
7.519764580E-1,-8.832513809E0,2.450861692E0,-1.598510385E0
7.539658850E-1,-8.885213852E0,2.422116041E0,-1.550600886E0
7.559553120E-1,-8.851676941E0,2.321506023E0,-1.411663055E0
7.579447390E-1,-8.789395332E0,2.153822422E0,-1.152951360E0
7.599341670E-1,-8.746275902E0,1.971766233E0,-9.804770350E-1
7.619235940E-1,-8.731903076E0,1.813664556E0,-8.990307450E-1
7.639130210E-1,-8.669620514E0,1.622026324E0,-5.205451250E-1
7.659024480E-1,-8.578592300E0,1.392060399E0,1.885165274E-1
7.678918750E-1,-8.482773781E0,1.214794993E0,5.526292324E-1
7.698813020E-1,-8.343835831E0,1.023156643E0,8.736233711E-1
7.718707290E-1,-8.099496841E0,7.309083343E-1,1.472493052E0
7.738601560E-1,-7.883903503E0,4.913604259E-1,1.702458978E0
7.758495830E-1,-7.697056293E0,2.901402414E-1,1.846187711E0
7.778390100E-1,-7.514999866E0,9.850195795E-2,2.028244019E0
7.798284370E-1,-7.361689091E0,-1.648101211E-2,2.224673271E0
7.818178640E-1,-7.337734222E0,-6.899096072E-3,2.421102524E0
7.838072920E-1,-7.323361397E0,7.473774254E-3,2.593577147E0
7.857967190E-1,-7.356898308E0,2.682819963E-3,2.837915897E0
7.877861460E-1,-7.419180870E0,1.226473600E-2,3.178073883E0
7.897755730E-1,-7.577282429E0,8.892004937E-2,3.647587538E0
7.917650000E-1,-7.845575809E0,1.991120577E-1,4.165010929E0
7.937544270E-1,-8.238434792E0,3.524227142E-1,4.519541740E0
7.957438540E-1,-8.578592300E0,4.242870212E-1,4.773462296E0
7.977332810E-1,-8.928332329E0,4.721966386E-1,4.984264374E0
7.997227080E-1,-9.191835403E0,4.817785025E-1,5.132783890E0
8.017121350E-1,-9.440964699E0,4.721966386E-1,5.271721840E0
8.037015620E-1,-9.675722122E0,4.674056768E-1,5.367540836E0
8.056909890E-1,-9.872151375E0,4.482418299E-1,5.448987007E0
8.076804170E-1,-1.009253502E1,4.817785025E-1,5.578342915E0
8.096698440E-1,-1.029375553E1,5.105242729E-1,5.683743954E0
8.116592710E-1,-1.048539352E1,5.775976777E-1,5.769981384E0
8.136486980E-1,-1.065307713E1,5.871796012E-1,5.832263947E0
8.156381250E-1,-1.075847816E1,5.919705629E-1,5.822681904E0
8.176275520E-1,-1.083513355E1,5.440609455E-1,5.765190601E0
8.196169790E-1,-1.084471512E1,5.009423494E-1,5.736444473E0
8.216064060E-1,-1.085908794E1,4.194960594E-1,5.659789562E0
8.235958330E-1,-1.087825203E1,3.859593868E-1,5.540015221E0
8.255852600E-1,-1.088783360E1,3.620045781E-1,5.381913662E0
8.275746870E-1,-1.086867046E1,2.901402414E-1,5.238184929E0
8.295641140E-1,-1.082555199E1,1.991120577E-1,5.089665413E0
8.315535420E-1,-1.075368690E1,1.320386529E-1,4.945936680E0
8.335429690E-1,-1.065786839E1,4.580143094E-2,4.806999207E0
8.355323960E-1,-1.057163048E1,-5.001771450E-2,4.672852039E0
8.375218230E-1,-1.048060226E1,-1.458368450E-1,4.509959698E0
8.395112500E-1,-1.040873814E1,-2.368650287E-1,4.380603790E0
8.415006770E-1,-1.030333710E1,-3.518480062E-1,4.236875057E0
8.434901040E-1,-1.020751858E1,-4.285032749E-1,4.150637627E0
8.454795310E-1,-1.010690784E1,-5.626500845E-1,4.050027847E0
8.474689580E-1,-9.910478592E0,-7.207517028E-1,3.891926289E0
8.494583850E-1,-9.718840599E0,-8.740622997E-1,3.527813673E0
8.514478120E-1,-9.675722122E0,-9.698814154E-1,3.091836691E0
8.534372390E-1,-9.685303688E0,-1.008209109E0,2.790006161E0
8.554266670E-1,-9.738004684E0,-1.027372956E0,2.574413300E0
8.574160940E-1,-9.795495987E0,-1.013000011E0,2.387565851E0
8.594055210E-1,-9.872151375E0,-1.013000011E0,2.296537638E0
8.613949480E-1,-9.963179588E0,-9.986271858E-1,2.229464293E0
8.633843750E-1,-1.006378937E1,-1.013000011E0,2.143227100E0
8.653738020E-1,-1.012128067E1,-1.013000011E0,2.066571712E0
8.673632290E-1,-1.020751858E1,-1.036954880E0,1.989916444E0
8.693526560E-1,-1.033687401E1,-1.084864378E0,1.946797848E0
8.713420830E-1,-1.043269348E1,-1.060909629E0,1.894097328E0
8.733315100E-1,-1.054288483E1,-1.008209109E0,1.913261175E0
8.753209370E-1,-1.092616177E1,-8.644803762E-1,1.989916444E0
8.773103640E-1,-1.158731365E1,-7.159607410E-1,2.243837118E0
8.792997920E-1,-1.246885014E1,-4.428761601E-1,2.545667410E0
8.812892190E-1,-1.303897381E1,-3.039384484E-1,2.756469488E0
8.832786460E-1,-1.300543690E1,-2.751926780E-1,2.703768969E0
8.852680730E-1,-1.270839787E1,-2.608197927E-1,2.358820200E0
8.872575000E-1,-1.242094040E1,-2.416559905E-1,1.922843099E0
8.892469270E-1,-1.227242088E1,-1.410458982E-1,1.529984593E0
8.912363540E-1,-1.224367523E1,3.621951863E-2,1.314391494E0
8.932257810E-1,-1.227721119E1,2.470216304E-1,1.165871859E0
8.952152080E-1,-1.235865784E1,4.386599064E-1,1.060470819E0
8.972046350E-1,-1.246885014E1,6.494620442E-1,1.041306973E0
8.991940620E-1,-1.257904148E1,8.794279695E-1,1.065261722E0
9.011834890E-1,-1.268444252E1,1.032738566E0,1.089216471E0
9.031729170E-1,-1.281859016E1,1.171676397E0,1.151498914E0
9.051623440E-1,-1.300543690E1,1.315405130E0,1.328764319E0
9.071517710E-1,-1.372887135E1,1.511834264E0,2.952898741E0
9.091411980E-1,-1.492181969E1,1.622026324E0,6.459879398E0
9.111306250E-1,-1.583689308E1,1.454342842E0,9.406318665E0
9.131200520E-1,-1.496972942E1,1.243540764E0,7.168941021E0
9.151094790E-1,-1.365221596E1,1.099812031E0,3.475113153E0
9.170989060E-1,-1.290482712E1,1.003992796E0,1.716831923E0
9.190883330E-1,-1.272277069E1,9.752471447E-1,1.534775496E0
9.210777600E-1,-1.279942608E1,9.752471447E-1,2.363610983E0
9.230671870E-1,-1.287608147E1,9.465013742E-1,2.938525915E0
9.250566140E-1,-1.295752716E1,9.369194508E-1,3.302638769E0
9.270460420E-1,-1.299585533E1,8.411003351E-1,3.671542406E0
9.290354690E-1,-1.283775330E1,6.877896786E-1,4.193756580E0
9.310248960E-1,-1.263653374E1,4.817785025E-1,4.596196651E0
9.330143230E-1,-1.239219475E1,2.422306687E-1,4.711179733E0
9.350037500E-1,-1.204724598E1,8.892004937E-2,4.548287392E0
9.369931770E-1,-1.164001465E1,-6.439058483E-2,4.093146324E0
9.389826040E-1,-1.122799206E1,-1.889554709E-1,3.570932388E0
9.409720310E-1,-1.084950638E1,-2.895655632E-1,3.024763107E0
9.429614580E-1,-1.053330326E1,-3.758028150E-1,2.440266371E0
9.449508850E-1,-1.026980019E1,-4.380851984E-1,2.114481211E0
9.469403120E-1,-1.009732628E1,-5.099495649E-1,2.047407866E0
9.489297390E-1,-9.948806763E0,-6.153506041E-1,2.114481211E0
9.509191670E-1,-9.752377510E0,-7.926160693E-1,2.387565851E0
9.529085940E-1,-9.651766777E0,-9.698814154E-1,2.670232296E0
9.548980210E-1,-9.589485168E0,-1.166310668E0,2.866661549E0
9.568874480E-1,-9.139134407E0,-1.492095828E0,3.254729033E0
9.588768750E-1,-8.171360970E0,-1.975982547E0,4.107519150E0
9.608663020E-1,-7.016740322E0,-2.464660168E0,5.003427982E0
9.628557290E-1,-5.900447369E0,-2.953337908E0,6.047856808E0
9.648451560E-1,-4.616470814E0,-3.442015409E0,7.192895412E0
9.668345830E-1,-3.294166803E0,-3.997766495E0,8.663720131E0
9.688240100E-1,-2.211410522E0,-4.462489128E0,9.823131561E0
9.708134370E-1,-1.171772718E0,-4.908048153E0,1.087714195E1
9.728028640E-1,-1.369260103E-1,-5.425471783E0,1.165327740E1
9.747923440E-1,-4.579201341E-1,-5.698556423E0,1.224735546E1
9.767818230E-1,-1.430484414E0,-6.086623669E0,1.271207905E1
9.787713020E-1,-3.198347807E0,-6.153697014E0,1.291808987E1
9.807607810E-1,-5.363860130E0,-6.139324188E0,1.263542366E1
9.827502600E-1,-7.615610123E0,-5.986013412E0,1.184012413E1
9.847397390E-1,-9.445755959E0,-5.684183121E0,1.047949219E1
9.867292190E-1,-1.058600330E1,-5.300906658E0,8.999087334E0
9.887186980E-1,-1.084950638E1,-5.133223057E0,7.178522587E0
9.907081770E-1,-1.058600330E1,-5.042195320E0,5.880173206E0
9.926976560E-1,-1.044227505E1,-4.970330715E0,4.711179733E0
9.946871350E-1,-9.987133980E0,-4.903257370E0,3.834434986E0
9.966766140E-1,-9.412219048E0,-4.754737854E0,3.058299780E0
9.986660940E-1,-9.062479019E0,-4.500816822E0,2.397147894E0
1.000655573E0,-8.746275902E0,-4.208568573E0,2.143227100E0
1.002645052E0,-8.492355347E0,-3.858828783E0,1.894097328E0
1.004634531E0,-8.477982521E0,-3.485134125E0,1.764741421E0
1.006624010E0,-8.334254265E0,-3.144976139E0,1.683295131E0
1.008613489E0,-8.209689140E0,-2.929383039E0,1.827023864E0
1.010602969E0,-8.300717354E0,-2.689835072E0,1.850978732E0
1.012592448E0,-8.477982521E0,-2.455078363E0,2.033035040E0
1.014581927E0,-8.521100998E0,-2.330513477E0,2.210300446E0
1.016571406E0,-8.602547646E0,-2.263439894E0,2.310910463E0
1.018560885E0,-8.640874863E0,-2.282603741E0,2.387565851E0
1.020550364E0,-8.746275902E0,-2.258649111E0,2.679814339E0
1.022539844E0,-8.952287674E0,-2.119711161E0,2.943316936E0
1.024529323E0,-9.081643105E0,-2.100547552E0,2.962480783E0
1.026518802E0,-9.172671318E0,-2.043056011E0,3.149327993E0
1.028508281E0,-9.234953880E0,-2.162829876E0,3.288265705E0
1.030497760E0,-9.206208229E0,-2.340095282E0,3.317011595E0
1.032487239E0,-9.445755959E0,-2.349677324E0,3.470322132E0
1.034476667E0,-9.579902649E0,-2.555688381E0,3.546977520E0
1.036466094E0,-9.603857994E0,-2.761699438E0,3.676333427E0
1.038455521E0,-9.747586250E0,-2.661089420E0,3.695497274E0
1.040444948E0,-9.881732941E0,-2.732953787E0,3.642796755E0
1.042434375E0,-1.005420780E1,-2.752117634E0,3.614050865E0
1.044423802E0,-1.023147297E1,-2.665880442E0,3.570932388E0
1.046413229E0,-1.032729244E1,-2.713789940E0,3.494277000E0
1.048402656E0,-1.034166527E1,-2.823982000E0,3.345757246E0
1.050392083E0,-1.037520123E1,-2.891055346E0,3.106209517E0
1.052381510E0,-1.047102070E1,-2.982083559E0,2.890616417E0
1.054370937E0,-1.052372169E1,-2.986874580E0,2.727723837E0
1.056360364E0,-1.046622944E1,-2.962919712E0,2.521712780E0
1.058349792E0,-1.040873814E1,-2.991665363E0,2.354029179E0
1.060339219E0,-1.036561966E1,-2.862309694E0,2.296537638E0
1.062328646E0,-1.035603809E1,-2.737744808E0,2.478594065E0
1.064318073E0,-1.026500988E1,-2.680253267E0,2.713351011E0
1.066307500E0,-1.022668171E1,-2.689835072E0,2.957689762E0
1.068296927E0,-1.015960884E1,-2.627552748E0,3.336175442E0
1.070286354E0,-1.002067089E1,-2.694626093E0,3.614050865E0
1.072275781E0,-9.958388329E0,-2.718580961E0,3.915881157E0
1.074265208E0,-9.934433937E0,-2.728162766E0,4.126683235E0
1.076254635E0,-9.948806763E0,-2.795236111E0,4.351858139E0
1.078244062E0,-9.991925240E0,-2.900637388E0,4.634524345E0
1.080233489E0,-1.000150681E1,-2.905428171E0,4.811789989E0
1.082222917E0,-9.929642677E0,-2.938964844E0,4.921981812E0
1.084212344E0,-9.848196030E0,-2.771281481E0,5.013010025E0
1.086201771E0,-9.761959076E0,-2.560479403E0,5.166320801E0
1.088191198E0,-9.522411346E0,-2.483824015E0,5.324422359E0
1.090180625E0,-9.268490791E0,-2.359259129E0,5.377122879E0
1.092170052E0,-9.091225624E0,-2.239485264E0,5.477733135E0
1.094159479E0,-8.913959503E0,-2.086174488E0,5.669371128E0
1.096148906E0,-8.837304115E0,-1.966400504E0,5.875382423E0
1.098138333E0,-8.707948685E0,-1.966400504E0,6.033483982E0
1.100127760E0,-8.640874863E0,-1.942445636E0,6.158049107E0
1.102117187E0,-8.626502037E0,-1.923282027E0,6.349687099E0
1.104106614E0,-8.645666122E0,-1.894536138E0,6.493415833E0
1.106096042E0,-8.621711731E0,-1.851417542E0,6.584444046E0
1.108085469E0,-8.660038948E0,-1.827462792E0,6.613189697E0
1.110074896E0,-8.784604073E0,-1.779553175E0,6.637144566E0
1.112064323E0,-8.875632286E0,-1.688524961E0,6.531743526E0
1.114053750E0,-8.885213852E0,-1.707688808E0,6.498206615E0
1.116043177E0,-8.947496414E0,-1.698106885E0,6.469460964E0
1.118032604E0,-9.014570236E0,-1.650197387E0,6.455088139E0
1.120022031E0,-9.100807190E0,-1.607078791E0,6.344896317E0
1.122011458E0,-9.139134407E0,-1.568751097E0,6.301777363E0
1.124000885E0,-9.139134407E0,-1.520841479E0,6.191585541E0
1.125990312E0,-9.119971275E0,-1.410649538E0,6.057438850E0
1.127979739E0,-9.139134407E0,-1.238175035E0,5.870591640E0
1.129969167E0,-9.373891830E0,-7.303336263E-1,6.105348110E0
1.131958594E0,-9.306818008E0,-6.967968941E-1,5.798727036E0
1.133948021E0,-9.249326706E0,-6.967968941E-1,5.640625477E0
1.135937448E0,-9.287653923E0,-6.584692597E-1,5.678953171E0
1.137926875E0,-9.215789795E0,-6.920059323E-1,5.688535213E0
1.139916302E0,-9.182252884E0,-7.207517028E-1,5.760399342E0
1.141905729E0,-9.033733368E0,-7.159607410E-1,5.856218338E0
1.143895156E0,-8.899586678E0,-7.351245284E-1,5.904128075E0
1.145884583E0,-8.861259460E0,-7.255426645E-1,6.052647591E0
1.147874010E0,-8.918750763E0,-5.291134119E-1,6.244286060E0
1.149863437E0,-8.789395332E0,-5.003676414E-1,6.426342487E0
1.151852864E0,-8.722321510E0,-3.997575641E-1,6.507788658E0
1.153842292E0,-8.707948685E0,-2.608197927E-1,6.685054302E0
1.155831719E0,-8.660038948E0,-1.410458982E-1,6.795246124E0
1.157821146E0,-8.741485596E0,2.184664458E-2,6.814410210E0
1.159810573E0,-8.899586678E0,9.371100366E-2,6.895856380E0
1.161800000E0,-9.014570236E0,4.580143094E-2,6.838364601E0
1.163789427E0,-9.086434364E0,-1.889554709E-1,6.871901512E0
1.165778854E0,-9.263699532E0,-2.416559905E-1,6.704217911E0
1.167768281E0,-9.551156998E0,-1.841645092E-1,6.488625050E0
1.169757708E0,-9.838614464E0,-8.834536374E-2,6.340105057E0
1.171747135E0,-1.002067089E1,-1.841645092E-1,6.407178402E0
1.173736562E0,-9.996716499E0,-3.278931975E-1,6.656308174E0
1.175725989E0,-1.000150681E1,-3.853846788E-1,6.670681477E0
1.177715417E0,-1.009732628E1,-3.805937767E-1,6.699427128E0
1.179704844E0,-1.002546215E1,-4.237123728E-1,6.555698395E0
1.181694271E0,-9.934433937E0,-5.626500845E-1,6.455088139E0
1.183683698E0,-9.958388329E0,-5.770229697E-1,6.306568623E0
1.185673125E0,-1.005420780E1,-5.291134119E-1,6.258658886E0
1.187662552E0,-1.000629807E1,-5.243224502E-1,6.249076843E0
1.189651979E0,-1.003025246E1,-6.249325275E-1,6.335314274E0
1.191641406E0,-9.958388329E0,-6.297234893E-1,6.282613754E0
1.193630833E0,-9.920061111E0,-6.680511832E-1,6.100557327E0
1.195620260E0,-9.809868813E0,-7.638702989E-1,5.851427555E0
1.197609687E0,-9.742794991E0,-8.501075506E-1,5.731653690E0
1.199599114E0,-9.680512428E0,-8.692713380E-1,5.712490082E0
1.201588542E0,-9.694886208E0,-8.405256271E-1,5.884964466E0
1.203577969E0,-9.493665695E0,-1.027372956E0,5.654998302E0
1.205567396E0,-9.273281097E0,-1.132773995E0,5.386704922E0
1.207556823E0,-8.832513809E0,-1.640615463E0,3.958999872E0
1.209546250E0,-8.166570663E0,-1.645406365E0,3.096627474E0
1.211535677E0,-8.386954308E0,-1.290875554E0,4.596196651E0
1.213525104E0,-8.660038948E0,-1.247756958E0,4.888445377E0
1.215514531E0,-8.640874863E0,-1.353157997E0,4.806999207E0
1.217503958E0,-8.501937866E0,-1.276502728E0,5.281303883E0
1.219493385E0,-8.324671745E0,-1.377112865E0,5.065710545E0
1.221482812E0,-8.209689140E0,-1.381903768E0,5.166320801E0
1.223472239E0,-8.032423973E0,-1.434604287E0,5.554388046E0
1.225461667E0,-7.802457333E0,-1.525632501E0,5.803517818E0
1.227451094E0,-7.692265034E0,-1.645406365E0,5.865800381E0
1.229440521E0,-7.610818863E0,-1.659779310E0,6.138885021E0
1.231429948E0,-7.697056293E0,-1.635824442E0,6.148467064E0
1.233419375E0,-7.802457333E0,-1.583123922E0,6.076602459E0
1.235408802E0,-7.955767632E0,-1.587914944E0,5.947246552E0
1.237398229E0,-8.214480400E0,-1.549587250E0,5.789144993E0
1.239387656E0,-8.636084557E0,-1.453768134E0,5.741235733E0
1.241377083E0,-9.028943062E0,-1.357949018E0,5.631043434E0
1.243366510E0,-9.297236443E0,-1.319621325E0,5.506478786E0
1.245355937E0,-9.541575432E0,-1.367530942E0,5.391495705E0
1.247345364E0,-9.603857994E0,-1.444186211E0,5.362750053E0
1.249334792E0,-9.603857994E0,-1.631033540E0,5.439405441E0
1.251324219E0,-9.555948257E0,-1.707688808E0,5.616670609E0
1.253313646E0,-9.484083176E0,-1.726852655E0,5.726862907E0
1.255303073E0,-9.469710350E0,-1.755598426E0,6.043066025E0
1.257292500E0,-9.646976471E0,-1.477722883E0,6.378432751E0
1.259281927E0,-9.819450378E0,-1.214220285E0,6.929392815E0
1.261271354E0,-9.675722122E0,-1.223802209E0,7.964239597E0
1.263260781E0,-1.003025246E1,-1.137564898E0,9.224262238E0
1.265250208E0,-9.963179588E0,-1.300457478E0,1.066154861E1
1.267239635E0,-9.670930862E0,-1.501677632E0,1.161494923E1
1.269229062E0,-9.196626663E0,-1.607078791E0,1.111189938E1
1.271218489E0,-8.775021553E0,-1.487304807E0,9.966859818E0
1.273207917E0,-8.420491219E0,-1.348367095E0,8.936804771E0
1.275197344E0,-8.027632713E0,-1.238175035E0,8.318771362E0
1.277186771E0,-7.558118343E0,-1.142355919E0,8.012149811E0
1.279176198E0,-7.107768536E0,-1.094446301E0,7.686364174E0
1.281165625E0,-6.906548023E0,-1.094446301E0,8.189414978E0
1.283155052E0,-6.494525909E0,-1.113610148E0,8.797866821E0
1.285144479E0,-6.130413055E0,-1.257338881E0,9.454227448E0
1.287133906E0,-5.833374023E0,-1.458559036E0,1.025910854E1
1.289123333E0,-5.555498123E0,-1.669361234E0,1.121730042E1
1.291112760E0,-5.268041134E0,-1.774762273E0,1.158141232E1
1.293102187E0,-5.148266792E0,-1.856208563E0,1.140893841E1
1.295091614E0,-5.167430878E0,-1.904118061E0,1.105919838E1
1.297081042E0,-5.153058052E0,-1.908908963E0,1.066154861E1
1.299070469E0,-4.841645718E0,-2.114920378E0,1.014891624E1
1.301059896E0,-4.721871853E0,-2.335304260E0,9.411108971E0
1.303049323E0,-4.659589291E0,-2.550897360E0,8.634974480E0
1.305038750E0,-4.760199547E0,-2.435914516E0,8.050477028E0
1.307028177E0,-4.851227760E0,-1.937654853E0,8.117550850E0
1.309017604E0,-5.239295006E0,-1.477722883E0,8.630183220E0
1.311007031E0,-5.421351433E0,-1.156728745E0,9.411108971E0
1.312996458E0,-5.320741653E0,-1.089655399E0,9.272171021E0
1.314985885E0,-5.153058052E0,-1.032163858E0,9.324872017E0
1.316975312E0,-5.076402664E0,-8.932261467E-1,9.166769981E0
1.318964739E0,-5.210549355E0,-7.686612606E-1,8.735584259E0
1.320954167E0,-5.363860130E0,-6.536782980E-1,8.237324715E0
1.322943594E0,-5.584244251E0,-5.386953354E-1,7.686364174E0
1.324933073E0,-5.656108379E0,-4.285032749E-1,7.552217484E0
1.326922552E0,-5.636944771E0,-3.183113337E-1,7.518680573E0
1.328912031E0,-5.536334515E0,-3.135203719E-1,7.446816444E0
1.330901510E0,-5.330323219E0,-3.566389680E-1,7.600126743E0
1.332890989E0,-5.009329319E0,-4.332942367E-1,7.791765213E0
1.334880469E0,-4.697916985E0,-5.434862971E-1,8.141505241E0
1.336869948E0,-4.396086693E0,-6.872149706E-1,8.467290878E0
1.338859427E0,-4.008019447E0,-9.459266663E-1,8.769121170E0
1.340848906E0,-3.643906832E0,-1.209429264E0,8.869730949E0
1.342838385E0,-3.164810896E0,-1.333994150E0,8.486454964E0
1.344827864E0,-2.014981270E0,-4.323551655E0,3.317011595E0
1.346817344E0,-2.264111042E0,-3.317450523E0,4.121891975E0
1.348806823E0,-3.160020113E0,-2.253858089E0,6.431133270E0
1.350796302E0,-3.203138590E0,-2.838354826E0,7.973821640E0
1.352785781E0,-2.661760569E0,-3.451597452E0,8.060059547E0
1.354775260E0,-2.134755135E0,-3.633653641E0,7.940284729E0
1.356764739E0,-1.923953056E0,-3.810919046E0,7.763019562E0
1.358754219E0,-1.808969975E0,-4.127122402E0,7.087494373E0
1.360743698E0,-1.550258398E0,-4.361879349E0,6.023901939E0
1.362733177E0,-1.353829145E0,-4.467280388E0,5.295676708E0
1.364722656E0,-1.162190795E0,-4.534353733E0,4.658479214E0
1.366712135E0,-9.609706402E-1,-4.572681427E0,4.088355541E0
1.368701614E0,-8.843153119E-1,-4.558308601E0,3.618841887E0
1.370691094E0,-7.884961963E-1,-4.467280388E0,3.388875961E0
1.372680573E0,-7.118408680E-1,-4.390625000E0,3.163700819E0
1.374670052E0,-6.351855397E-1,-4.270851135E0,2.909780264E0
1.376659531E0,-6.016488671E-1,-4.088794708E0,2.866661549E0
1.378649010E0,-5.776940584E-1,-4.026512146E0,2.866661549E0
1.380638489E0,-5.106206536E-1,-3.935483932E0,2.881034374E0
1.382627917E0,-4.483382106E-1,-3.844455719E0,2.924153090E0
1.384617344E0,-4.195924699E-1,-3.753427744E0,2.952898741E0
1.386606771E0,-4.770839512E-1,-3.667190313E0,3.010390282E0
1.388596198E0,-9.513887167E-1,-3.628862858E0,2.732514858E0
1.390585625E0,-1.392156720E0,-3.609699011E0,2.718142033E0
1.392575052E0,-1.717941880E0,-3.652817488E0,3.039135933E0
1.394564479E0,-1.947907805E0,-3.667190313E0,3.700288057E0
1.396553906E0,-2.091636658E0,-3.671981335E0,4.222502232E0
1.398543333E0,-2.331184387E0,-3.700727224E0,4.668061256E0
1.400532760E0,-2.494076967E0,-3.710309029E0,4.974682331E0
1.402522187E0,-2.561150312E0,-3.743845701E0,5.238184929E0
1.404511614E0,-2.599478006E0,-3.782173395E0,5.511269569E0
1.406501042E0,-2.695297241E0,-3.873201609E0,5.908919334E0
1.408490469E0,-2.805489302E0,-3.911529064E0,6.253868103E0
1.410479896E0,-2.906099319E0,-4.016930103E0,6.613189697E0
1.412469323E0,-2.954008818E0,-4.127122402E0,6.876692295E0
1.414458750E0,-3.001918554E0,-4.184613705E0,7.053957939E0
1.416448177E0,-3.035455227E0,-4.294806004E0,7.350996971E0
1.418437604E0,-2.954008818E0,-4.428952694E0,7.576172352E0
1.420427031E0,-2.910890341E0,-4.563099384E0,7.801347256E0
1.422416458E0,-2.834234953E0,-4.692455292E0,7.978612423E0
1.424405885E0,-2.805489302E0,-4.721200943E0,8.045686722E0
1.426395312E0,-2.709670067E0,-4.783483505E0,8.074432373E0
1.428384739E0,-2.570732355E0,-4.960748672E0,8.280443192E0
1.430374167E0,-2.513240814E0,-5.042195320E0,8.510409355E0
1.432363594E0,-2.441376448E0,-5.142805099E0,8.649347305E0
1.434353021E0,-2.374303102E0,-5.142805099E0,8.649347305E0
1.436342448E0,-2.302438736E0,-5.152387142E0,8.596646309E0
1.438331875E0,-2.192246675E0,-5.257788181E0,8.721211433E0
1.440321302E0,-2.110800505E0,-5.281743050E0,8.663720131E0
1.442310729E0,-2.058099985E0,-5.382352829E0,8.821821213E0
1.444300156E0,-2.043727160E0,-5.420680523E0,8.673301697E0
1.446289583E0,-2.034145117E0,-5.459008217E0,8.668510437E0
1.448279010E0,-2.086845636E0,-5.463799477E0,8.716420174E0
1.450268437E0,-2.120382309E0,-5.502127171E0,8.702047348E0
1.452257864E0,-2.158710003E0,-5.435053349E0,8.505618095E0
1.454247292E0,-2.187455654E0,-5.406307697E0,8.500827789E0
1.456236719E0,-2.235365391E0,-5.391934872E0,8.428962708E0
1.458226146E0,-2.259320021E0,-5.411098957E0,8.366680145E0
1.460215573E0,-2.321602583E0,-5.367980003E0,8.275651932E0
1.462205000E0,-2.503659010E0,-5.281743050E0,8.266070366E0
1.464194427E0,-2.695297241E0,-5.300906658E0,8.357098579E0
1.466183854E0,-2.853398800E0,-5.300906658E0,8.366680145E0
1.468173281E0,-3.045037031E0,-5.300906658E0,8.318771362E0
1.470162708E0,-3.313330650E0,-5.334443569E0,8.285234451E0
1.472152135E0,-3.538505554E0,-5.358398438E0,8.323561668E0
1.474141562E0,-3.730144024E0,-5.310488701E0,8.328352928E0
1.476130989E0,-3.955318928E0,-5.276951790E0,8.361889839E0
1.478120417E0,-4.108629227E0,-5.320070744E0,8.467290878E0
1.480109844E0,-4.175702572E0,-5.344025612E0,8.457708359E0
1.482099271E0,-4.319431305E0,-5.363189220E0,8.524782181E0
1.484088698E0,-4.429623604E0,-5.324861526E0,8.563109398E0
1.486078125E0,-4.496696949E0,-5.401516914E0,8.788285255E0
1.488067552E0,-4.491905689E0,-5.449426651E0,8.946386337E0
1.490056979E0,-4.506278515E0,-5.449426651E0,9.046996117E0
1.492046406E0,-4.458369255E0,-5.530872822E0,9.243425369E0
1.494035833E0,-4.396086693E0,-5.593155384E0,9.401527405E0
1.496025260E0,-4.319431305E0,-5.655437469E0,9.506928444E0
1.498014687E0,-4.271522045E0,-5.602736950E0,9.478182793E0
1.500004114E0,-4.190075397E0,-5.688974380E0,9.554838181E0
1.501993542E0,-4.075092793E0,-5.679392338E0,9.698566437E0
1.503982969E0,-3.926573277E0,-5.722510815E0,9.703357697E0
1.505972396E0,-3.821172237E0,-5.693765163E0,9.621911049E0
1.507961823E0,-3.758889675E0,-5.650646687E0,9.463809967E0
1.509951250E0,-3.701398134E0,-5.602736950E0,9.291335106E0
1.511940677E0,-3.619951963E0,-5.564409256E0,9.161979675E0
1.513930104E0,-3.557669401E0,-5.597946167E0,9.109278679E0
1.515919531E0,-3.490596056E0,-5.492545128E0,9.046996117E0
1.517908958E0,-3.413940668E0,-5.454217434E0,8.826612473E0
1.519898385E0,-3.313330650E0,-5.363189220E0,8.596646309E0
1.521887812E0,-3.284584999E0,-5.262578964E0,8.246906281E0
1.523877239E0,-3.279793978E0,-5.181132793E0,8.112759590E0
1.525866667E0,-3.289375782E0,-5.109268665E0,8.084013939E0
1.527856094E0,-3.298957825E0,-5.042195320E0,7.949866772E0
1.529845521E0,-3.337285519E0,-4.917630196E0,7.839674950E0
1.531834948E0,-3.524132729E0,-4.812229156E0,8.093596458E0
1.533824375E0,-3.581624269E0,-4.740365028E0,8.189414978E0
1.535813802E0,-3.452268362E0,-4.658918381E0,8.285234451E0
1.537803229E0,-3.399567842E0,-4.587054253E0,8.405008316E0
1.539792656E0,-3.447477579E0,-4.481653214E0,8.553527832E0
1.541782083E0,-3.452268362E0,-4.366670132E0,8.730792999E0
1.543771510E0,-3.413940668E0,-4.246896267E0,8.903267860E0
1.545760937E0,-3.370822191E0,-4.112749577E0,9.138024330E0
1.547750364E0,-3.361240149E0,-3.844455719E0,9.248216629E0
1.549739792E0,-3.346867323E0,-3.346196175E0,9.094905853E0
1.551729219E0,-3.476223230E0,-2.742535591E0,9.037414551E0
1.553718646E0,-3.643906832E0,-2.138875008E0,9.018250465E0
1.555708073E0,-3.754098654E0,-1.602287769E0,9.056578636E0
1.557697500E0,-3.734934807E0,-1.185474515E0,9.109278679E0
1.559686927E0,-3.763680696E0,-8.501075506E-1,9.257798195E0
1.561676354E0,-3.811590195E0,-6.345144510E-1,9.401527405E0
1.563665781E0,-3.883454561E0,-4.859948158E-1,9.574001312E0
1.565655208E0,-3.921782255E0,-4.189214110E-1,9.703357697E0
1.567644635E0,-3.883454561E0,-4.428761601E-1,9.813549995E0
1.569634062E0,-3.768471479E0,-5.770229697E-1,9.904578209E0
1.571623489E0,-3.576833248E0,-8.117798567E-1,9.717730522E0
1.573612917E0,-3.366031170E0,-1.132773995E0,9.703357697E0
1.575602344E0,-3.083364725E0,-1.468140960E0,9.645866394E0
1.577591771E0,-2.901308298E0,-1.808298945E0,9.363199234E0
1.579581198E0,-2.920472145E0,-2.081383705E0,9.013460159E0
1.581570625E0,-2.896517515E0,-2.325722456E0,8.692465782E0
1.583560052E0,-2.843816996E0,-2.526942730E0,8.333144188E0
1.585549479E0,-2.781534433E0,-2.685044289E0,8.064849854E0
1.587538906E0,-2.690506220E0,-2.823982000E0,7.854047775E0
1.589528333E0,-2.594687223E0,-2.871891499E0,7.643245697E0
1.591517760E0,-2.522822857E0,-2.838354826E0,7.422861576E0
1.593507187E0,-2.498867989E0,-2.718580961E0,7.164149761E0
1.595496614E0,-2.599478006E0,-2.526942730E0,6.847946644E0
1.597486042E0,-2.781534433E0,-2.335304260E0,6.608398914E0
1.599475469E0,-2.992336512E0,-2.114920378E0,6.311359406E0
1.601464896E0,-3.193556786E0,-1.904118061E0,6.038274765E0
1.603454323E0,-3.399567842E0,-1.688524961E0,5.846636772E0
1.605443750E0,-3.576833248E0,-1.448977113E0,5.654998302E0
1.607433177E0,-3.725353003E0,-1.262129784E0,5.597507000E0
1.609422604E0,-3.830754042E0,-1.089655399E0,5.635834694E0
1.611412031E0,-3.893036366E0,-9.075989723E-1,5.688535213E0
1.613401458E0,-3.916991234E0,-7.159607410E-1,5.769981384E0
1.615390885E0,-3.907409430E0,-5.818139315E-1,5.827472687E0
1.617380312E0,-3.907409430E0,-4.141304493E-1,5.999947071E0
1.619369739E0,-3.888245583E0,-2.272831351E-1,6.162839890E0
1.621359167E0,-3.945737123E0,-2.108141780E-3,6.182003498E0
1.623348594E0,-4.022392273E0,2.326487601E-1,6.301777363E0
1.625338021E0,-4.060719967E0,4.099141955E-1,6.507788658E0
1.627327448E0,-4.079883575E0,7.021625638E-1,6.656308174E0
1.629316875E0,-4.127793312E0,9.560832977E-1,6.766500473E0
1.631306302E0,-4.146956921E0,1.186049223E0,6.871901512E0
1.633295729E0,-4.146956921E0,1.320196033E0,7.058748722E0
1.635285156E0,-4.099047184E0,1.459133744E0,7.288714886E0
1.637274583E0,-4.041555882E0,1.593280554E0,7.389324665E0
1.639264010E0,-4.008019447E0,1.756173134E0,7.475562096E0
1.641253437E0,-3.993646622E0,1.914274693E0,7.619290829E0
1.643242864E0,-3.921782255E0,2.096330881E0,7.743855476E0
1.645232292E0,-3.758889675E0,2.172986269E0,7.791765213E0
1.647221719E0,-3.672652483E0,2.383788347E0,7.810929298E0
1.649211146E0,-3.538505554E0,2.513144255E0,7.834883690E0
1.651200573E0,-3.327703476E0,2.671245813E0,7.858838558E0
1.653190000E0,-3.045037031E0,2.925166607E0,7.830092907E0
1.655179427E0,-2.858189821E0,3.030567646E0,7.734273911E0
1.657168854E0,-2.647387743E0,3.193460226E0,7.643245697E0
1.659158281E0,-2.436585426E0,3.179087162E0,7.509098530E0
1.661147708E0,-2.192246675E0,3.092849970E0,7.456398010E0
1.663137135E0,-1.967071652E0,2.944330454E0,7.327042580E0
1.665126614E0,-1.756269455E0,2.723946333E0,7.240805149E0
1.667116094E0,-1.583795071E0,2.474816561E0,6.962929726E0
1.669105573E0,-1.401738644E0,2.264014482E0,6.507788658E0
1.671095052E0,-1.281964779E0,1.919065714E0,6.057438850E0
1.673084531E0,-1.171772718E0,1.526207209E0,6.090975285E0
1.675074010E0,-1.123863220E0,1.138139606E0,5.956828594E0
1.677063489E0,-1.147817969E0,8.075636029E-1,5.635834694E0
1.679052969E0,-1.291546702E0,4.817785025E-1,5.334004402E0
1.681042448E0,-1.521512628E0,7.454717159E-2,5.401077747E0
1.683031927E0,-1.636495590E0,-3.422660828E-1,5.650207520E0
1.685021406E0,-1.655659437E0,-7.734522223E-1,5.645416260E0
1.687010885E0,-1.684405088E0,-1.214220285E0,5.592715740E0
1.689000364E0,-1.693987012E0,-1.587914944E0,5.386704922E0
1.690989844E0,-1.789806247E0,-1.971191525E0,5.338795185E0
1.692979323E0,-1.852088690E0,-2.296976805E0,5.439405441E0
1.694968802E0,-1.909580112E0,-2.603597879E0,5.520851612E0
1.696958281E0,-1.981444478E0,-2.871891499E0,5.568761349E0
1.698947760E0,-2.359930277E0,-2.124502182E0,5.113620281E0
1.700937239E0,-3.548087597E0,-7.876345515E-2,2.488175869E0
1.702926719E0,-4.012810230E0,-1.266730279E-1,2.042617083E0
1.704916198E0,-3.500178099E0,-1.722061753E0,2.909780264E0
1.706905677E0,-3.236675262E0,-2.651507616E0,3.379293919E0
1.708895156E0,-2.944427013E0,-3.370151043E0,4.059609890E0
1.710884635E0,-2.618641853E0,-4.170240879E0,4.677643299E0
1.712874114E0,-2.589896202E0,-4.333133221E0,4.869281292E0
1.714863594E0,-2.810280085E0,-4.376252174E0,5.127993107E0
1.716853073E0,-3.150438070E0,-4.481653214E0,5.731653690E0
1.718842552E0,-3.327703476E0,-4.553517342E0,6.191585541E0
1.720832031E0,-3.423522711E0,-4.759528637E0,6.790455341E0
1.722821510E0,-3.543296576E0,-4.711618900E0,7.240805149E0
1.724810937E0,-3.734934807E0,-4.654127598E0,7.192895412E0
1.726800364E0,-4.094256401E0,-4.711618900E0,7.633663654E0
1.728789792E0,-4.396086693E0,-4.821811199E0,8.031313896E0
1.730779219E0,-4.616470814E0,-4.941585064E0,8.290025711E0
1.732768646E0,-4.851227760E0,-5.056568146E0,8.409799576E0
1.734758073E0,-5.066820621E0,-5.310488701E0,9.008668900E0
1.736747500E0,-5.153058052E0,-5.411098957E0,8.999087334E0
1.738736927E0,-5.239295006E0,-5.516499996E0,8.927222252E0
1.740726354E0,-5.521961689E0,-5.732092857E0,8.745165825E0
1.742715781E0,-5.680063248E0,-5.875821590E0,8.433753967E0
1.744705208E0,-5.833374023E0,-5.909358501E0,7.969030857E0
1.746694635E0,-6.187904835E0,-5.962059021E0,7.547426224E0
1.748684062E0,-6.489735126E0,-6.144115448E0,7.317460537E0
1.750673489E0,-6.758028507E0,-6.364499092E0,6.938974857E0
1.752662917E0,-7.031113148E0,-6.541764736E0,6.603607655E0
1.754652344E0,-7.409598827E0,-6.714239120E0,6.402387619E0
1.756641771E0,-7.697056293E0,-6.896295547E0,6.244286060E0
1.758631198E0,-8.003677368E0,-7.073560715E0,6.014320374E0
1.760620625E0,-8.497146606E0,-7.116679668E0,5.827472687E0
1.762610052E0,-9.105598450E0,-6.872340679E0,5.702908039E0
1.764599479E0,-9.761959076E0,-6.498646259E0,5.693325996E0
1.766588906E0,-1.001108932E1,-5.780002594E0,5.808309078E0
1.768578333E0,-1.001108932E1,-4.888884544E0,6.019111156E0
1.770567760E0,-9.891315460E0,-3.921111107E0,6.354477882E0
1.772557187E0,-9.728422165E0,-2.948546886E0,6.819200993E0
1.774546614E0,-9.445755959E0,-2.081383705E0,7.312669754E0
1.776536042E0,-9.100807190E0,-1.401067615E0,7.810929298E0
1.778525469E0,-8.698367119E0,-8.980171084E-1,8.266070366E0
1.780514896E0,-8.262389183E0,-5.530681610E-1,8.711629868E0
1.782504323E0,-7.840785027E0,-3.135203719E-1,9.133234024E0
1.784493750E0,-7.514999866E0,-1.506278068E-1,9.583583832E0
1.786483177E0,-7.198796749E0,-5.959962308E-2,1.004830647E1
1.788472604E0,-6.906548023E0,-4.043579102E-2,1.051302910E1
1.790462031E0,-6.643045425E0,-5.959962308E-2,1.094421577E1
1.792451458E0,-6.465780258E0,-1.123001575E-1,1.128916454E1
1.794440885E0,-6.283723831E0,-1.745825857E-1,1.159578609E1
1.796430312E0,-6.106458187E0,-2.608197927E-1,1.185449696E1
1.798419739E0,-5.933983803E0,-3.183113337E-1,1.207488155E1
1.800409167E0,-5.775882244E0,-3.374751210E-1,1.213237286E1
1.802398594E0,-5.641735554E0,-3.997575641E-1,1.230963802E1
1.804388021E0,-5.454888344E0,-3.901756406E-1,1.236233902E1
1.806377448E0,-5.258459091E0,-3.326841593E-1,1.238150215E1
1.808366875E0,-5.105148315E0,-2.704017162E-1,1.237192059E1
1.810356302E0,-4.942255974E0,-2.033283263E-1,1.230484772E1
1.812345729E0,-4.755408287E0,-1.410458982E-1,1.226172829E1
1.814335156E0,-4.568561077E0,-5.001771450E-2,1.217549133E1
1.816324583E0,-4.410459518E0,2.682819963E-3,1.207488155E1
1.818314010E0,-4.290685654E0,7.454717159E-2,1.196948051E1
1.820303437E0,-4.194866657E0,1.464115381E-1,1.185449696E1
1.822292864E0,-4.113420486E0,2.230668515E-1,1.173472309E1
1.824282292E0,-4.075092793E0,2.949312031E-1,1.158620358E1
1.826271719E0,-4.055928707E0,3.524227142E-1,1.138498306E1
1.828261146E0,-4.075092793E0,4.147051573E-1,1.115980816E1
1.830250573E0,-4.108629227E0,4.194960594E-1,1.094900608E1
1.832240000E0,-3.945737123E0,4.003322721E-1,1.066633987E1
1.834229427E0,-3.821172237E0,3.284679055E-1,1.028785419E1
1.836218854E0,-3.734934807E0,2.709764242E-1,9.914159775E0
1.838208281E0,-3.701398134E0,1.751572788E-1,9.554838181E0
1.840197708E0,-3.663070440E0,9.371100366E-2,9.243425369E0
1.842187135E0,-3.634324789E0,-1.169005036E-2,8.922431946E0
1.844176562E0,-3.648697615E0,-1.075091958E-1,8.620601654E0
1.846165989E0,-3.677443504E0,-2.464469522E-1,8.333144188E0
1.848155417E0,-3.677443504E0,-3.853846788E-1,8.060059547E0
1.850144844E0,-3.667861462E0,-5.386953354E-1,7.820510864E0
1.852134271E0,-3.615160942E0,-7.015878558E-1,7.595335960E0
1.854123698E0,-3.557669401E0,-8.165708184E-1,7.365370274E0
1.856113125E0,-3.461850405E0,-9.602994919E-1,7.226432323E0
1.858102552E0,-3.279793978E0,-1.108819246E0,7.058748722E0
1.860091979E0,-3.121692419E0,-1.252547979E0,6.948556900E0
1.862081406E0,-2.925263166E0,-1.377112865E0,6.876692295E0
1.864070833E0,-2.728833914E0,-1.511259556E0,6.838364601E0
1.866060260E0,-2.513240814E0,-1.635824442E0,6.776082516E0
1.868049687E0,-2.331184387E0,-1.736434579E0,6.766500473E0
1.870039114E0,-2.182664871E0,-1.837044716E0,6.761709690E0
1.872028542E0,-2.014981270E0,-1.889745235E0,6.752127647E0
1.874017969E0,-1.866461515E0,-1.947236657E0,6.780873299E0
1.876007396E0,-1.737105727E0,-1.990355372E0,6.747336388E0
1.877996823E0,-1.646077514E0,-1.971191525E0,6.761709690E0
1.879986250E0,-1.574213147E0,-1.966400504E0,6.776082516E0
1.881975677E0,-1.507139683E0,-1.928072810E0,6.804828167E0
1.883965104E0,-1.473603010E0,-1.856208563E0,6.795246124E0
1.885954531E0,-1.444857240E0,-1.746016502E0,6.785664082E0
1.887943958E0,-1.473603010E0,-1.602287769E0,6.785664082E0
1.889933385E0,-1.545467377E0,-1.477722883E0,6.780873299E0
1.891922812E0,-1.641286492E0,-1.333994150E0,6.761709690E0
1.893912239E0,-1.813760996E0,-1.262129784E0,6.776082516E0
1.895901667E0,-1.967071652E0,-1.185474515E0,6.771291256E0
1.897891094E0,-2.120382309E0,-1.084864378E0,6.732963562E0
1.899880521E0,-2.240156174E0,-1.027372956E0,6.737754822E0
1.901869948E0,-2.359930277E0,-9.650905132E-1,6.718590736E0
1.903859375E0,-2.465331316E0,-8.548985124E-1,6.718590736E0
1.905848802E0,-2.680924416E0,-8.309437037E-1,6.761709690E0
1.907838229E0,-2.762370586E0,-6.824240088E-1,6.742545605E0
1.909827656E0,-2.901308298E0,-5.722320080E-1,6.728172779E0
1.911817083E0,-2.997127533E0,-4.237123728E-1,6.732963562E0
1.913806510E0,-3.083364725E0,-2.656107545E-1,6.713799953E0
1.915795937E0,-3.207929611E0,-1.314639747E-1,6.728172779E0
1.917785364E0,-3.294166803E0,2.184664458E-2,6.694635868E0
1.919774792E0,-3.399567842E0,1.320386529E-1,6.656308174E0
1.921764219E0,-3.490596056E0,2.422306687E-1,6.637144566E0
1.923753646E0,-3.538505554E0,3.667955399E-1,6.608398914E0
1.925743073E0,-3.605579138E0,4.194960594E-1,6.570071220E0
1.927732500E0,-3.605579138E0,4.674056768E-1,6.555698395E0
1.929721927E0,-3.586415291E0,5.105242729E-1,6.536534309E0
1.931711354E0,-3.562460423E0,5.248971581E-1,6.570071220E0
1.933700781E0,-3.533714771E0,5.584338307E-1,6.589234829E0
1.935690208E0,-3.500178099E0,5.632247925E-1,6.632353783E0
1.937679635E0,-3.433104515E0,6.015524864E-1,6.680263042E0
1.939669062E0,-3.356449366E0,5.919705629E-1,6.776082516E0
1.941658489E0,-3.289375782E0,5.967615247E-1,6.915019989E0
1.943647917E0,-3.203138590E0,5.823886395E-1,7.025212288E0
1.945637344E0,-3.155229092E0,5.488519073E-1,7.164149761E0
1.947626771E0,-3.078573704E0,5.105242729E-1,7.350996971E0
1.949616198E0,-3.049828053E0,4.578237534E-1,7.518680573E0
1.951605625E0,-3.016291380E0,3.667955399E-1,7.719901085E0
1.953595052E0,-3.025873184E0,2.709764242E-1,7.911539078E0
1.955584479E0,-3.025873184E0,1.799482405E-1,8.122342110E0
1.957573906E0,-3.025873184E0,8.892004937E-2,8.337934494E0
1.959563333E0,-3.049828053E0,-1.648101211E-2,8.539155006E0
1.961552760E0,-3.054619074E0,-5.001771450E-2,8.769121170E0
1.963542187E0,-3.102528572E0,7.473774254E-3,8.888895035E0
1.965531614E0,-3.188765764E0,1.559934467E-1,8.898476601E0
1.967521042E0,-3.351658344E0,4.530327916E-1,8.845776558E0
1.969510469E0,-3.485805035E0,8.027726412E-1,8.783493996E0
1.971499896E0,-3.629533768E0,1.123766780E0,8.788285255E0
1.973489323E0,-3.754098654E0,1.377687573E0,8.979923248E0
1.975478750E0,-3.950527906E0,1.507043362E0,9.200306892E0
1.977468177E0,-4.151747704E0,1.569325805E0,9.463809967E0
1.979457604E0,-4.448787212E0,1.626817346E0,9.789594650E0
1.981447031E0,-4.822482109E0,1.746591210E0,1.007705212E1
1.983436458E0,-5.244086266E0,1.923856616E0,1.027827263E1
1.985425885E0,-5.670481205E0,2.067585230E0,1.034534550E1
1.987415312E0,-6.163949966E0,2.378997326E0,1.032139111E1
1.989404739E0,-6.623881817E0,2.666454792E0,1.031659985E1
1.991394167E0,-6.978412628E0,2.920375586E0,1.040283775E1
1.993383594E0,-7.304197788E0,3.116804838E0,1.048907471E1
1.995373021E0,-7.591655254E0,3.303652048E0,1.059926701E1
1.997362448E0,-7.716219902E0,3.346770763E0,1.073341370E1
1.999351875E0,-7.850366592E0,3.361143589E0,1.085797787E1
2.001341302E0,-8.018050194E0,3.337188959E0,1.095858860E1
2.003330729E0,-8.123452187E0,3.318025112E0,1.099212551E1
2.005320208E0,-8.233643532E0,3.274906397E0,1.093463326E1
2.007309687E0,-8.281553268E0,3.217414856E0,1.089630604E1
2.009299167E0,-8.329463005E0,3.207833052E0,1.079090500E1
2.011288646E0,-8.329463005E0,3.246160746E0,1.068550396E1
2.013278125E0,-8.281553268E0,3.236578703E0,1.051302910E1
2.015267604E0,-8.180943489E0,3.226996899E0,1.035971832E1
2.017257083E0,-8.171360970E0,3.236578703E0,1.018724442E1
2.019246562E0,-8.080332756E0,3.279697418E0,1.000518799E1
2.021236042E0,-8.051587105E0,3.294070244E0,9.765640259E0
2.023225521E0,-7.974931717E0,3.289279222E0,9.535674095E0
2.025215000E0,-7.893485546E0,3.255742550E0,9.334453583E0
2.027204479E0,-7.797666073E0,3.217414856E0,9.142815590E0
2.029193958E0,-7.706637859E0,3.164714336E0,9.008668900E0
2.031183437E0,-7.543745518E0,3.078477144E0,8.812239647E0
2.033172917E0,-7.423971653E0,2.997030973E0,8.678092957E0
2.035162396E0,-7.328152657E0,2.906002760E0,8.596646309E0
2.037151875E0,-7.227542400E0,2.862884045E0,8.601437569E0
2.039141354E0,-7.102977276E0,2.795810699E0,8.644556046E0
2.041130833E0,-7.011949539E0,2.723946333E0,8.706838608E0
2.043120312E0,-6.877802372E0,2.685618639E0,8.884103775E0
2.045109792E0,-6.791565418E0,2.671245813E0,9.066160202E0
2.047099271E0,-6.743655682E0,2.743110180E0,9.267380714E0
2.049088750E0,-6.671791553E0,2.973076105E0,9.478182793E0
2.051078229E0,-6.609508991E0,3.260533571E0,9.736894608E0
2.053067708E0,-6.552017212E0,3.619855404E0,1.007705212E1
2.055057187E0,-6.504107952E0,3.998340845E0,1.042200089E1
2.057046667E0,-6.499316692E0,4.281007290E0,1.076694965E1
2.059036146E0,-6.523271561E0,4.578046799E0,1.104482555E1
2.061025625E0,-6.547226429E0,4.894249916E0,1.133707428E1
2.063015104E0,-6.628672600E0,5.172125340E0,1.154787636E1
2.065004531E0,-6.690955162E0,5.555401802E0,1.178742409E1
2.066993958E0,-6.781983376E0,5.991379261E0,1.194073486E1
2.068983385E0,-6.892175198E0,6.379446507E0,1.201259899E1
2.070972812E0,-7.016740322E0,6.844169617E0,1.208446312E1
2.072962239E0,-7.170051098E0,7.189118385E0,1.202218056E1
2.074951667E0,-7.328152657E0,7.548439980E0,1.195031643E1
2.076941094E0,-7.524581909E0,7.874225140E0,1.176826000E1
2.078930521E0,-7.797666073E0,8.243128777E0,1.152871227E1
2.080919948E0,-8.037214279E0,8.588077545E0,1.114064503E1
2.082909375E0,-8.281553268E0,8.952190399E0,1.074299526E1
2.084898802E0,-8.516310692E0,9.316303253E0,1.025431728E1
2.086888229E0,-8.789395332E0,9.656461716E0,9.799177170E0
2.088877656E0,-9.100807190E0,9.977455139E0,9.281753540E0
2.090867083E0,-9.417010307E0,1.029844952E1,8.788285255E0
2.092856510E0,-9.723631859E0,1.049008751E1,8.189414978E0
2.094845937E0,-9.953597069E0,1.073442650E1,7.580963135E0
2.096835364E0,-1.019793606E1,1.094522858E1,7.039585114E0
2.098824792E0,-1.035124683E1,1.111770344E1,6.493415833E0
2.100814219E0,-1.049497604E1,1.122310448E1,5.990365505E0
2.102803646E0,-1.064349556E1,1.131413269E1,5.501687527E0
2.104793073E0,-1.073452377E1,1.146744347E1,5.089665413E0
2.106782500E0,-1.080159664E1,1.157763481E1,4.739925385E0
2.108771927E0,-1.089262486E1,1.162554455E1,4.486004829E0
2.110761354E0,-1.094053459E1,1.165429020E1,4.294366360E0
2.112750781E0,-1.097407150E1,1.168782711E1,4.165010929E0
2.114740208E0,-1.101718998E1,1.160159016E1,4.145846844E0
2.116729635E0,-1.103156281E1,1.154409790E1,4.126683235E0
2.118719062E0,-1.102677155E1,1.141953373E1,4.174592495E0
2.120708489E0,-1.101718998E1,1.123268604E1,4.241665840E0
2.122697917E0,-1.101718998E1,1.103146553E1,4.337485313E0
2.124687344E0,-1.100281715E1,1.079191780E1,4.466841221E0
2.126676771E0,-1.093574333E1,1.049967003E1,4.581823826E0
2.128666198E0,-1.080638790E1,1.027928543E1,4.711179733E0
2.130655625E0,-1.067703152E1,1.003015614E1,4.792625904E0
2.132645052E0,-1.049018478E1,9.804981232E0,4.898026943E0
2.134634479E0,-1.031770992E1,9.560642242E0,4.945936680E0
2.136623906E0,-1.010211754E1,9.316303253E0,5.027382851E0
2.138613333E0,-9.905688286E0,9.110292435E0,5.137575150E0
2.140602760E0,-9.675722122E0,8.889907837E0,5.281303883E0
2.142592187E0,-9.512829781E0,8.688688278E0,5.405868530E0
2.144581614E0,-9.306818008E0,8.453930855E0,5.511269569E0
2.146571042E0,-9.124761581E0,8.137727737E0,5.607088566E0
2.148560469E0,-9.000197411E0,7.802361012E0,5.793936253E0
2.150549896E0,-8.981033325E0,7.538858414E0,5.961619854E0
2.152539323E0,-8.990614891E0,7.323265076E0,6.100557327E0
2.154528750E0,-9.024151802E0,7.208281994E0,6.234704018E0
2.156518177E0,-9.143925667E0,7.184327602E0,6.306568623E0
2.158507604E0,-9.210999489E0,7.155581474E0,6.273031712E0
2.160497031E0,-9.086434364E0,7.031016827E0,6.110139370E0
2.162486458E0,-8.899586678E0,6.930406570E0,5.985574245E0
2.164475885E0,-8.789395332E0,6.925615788E0,5.813099861E0
2.166465312E0,-8.631293297E0,6.882497311E0,5.841845512E0
2.168454739E0,-8.286344528E0,6.614203453E0,6.043066025E0
2.170444167E0,-8.089915276E0,6.451311111E0,6.416760445E0
2.172433594E0,-7.984513760E0,6.283627510E0,6.833573818E0
2.174423021E0,-7.821620941E0,6.048870564E0,7.298296452E0
2.176412448E0,-7.486254215E0,5.670384884E0,7.648036480E0
2.178401875E0,-7.174841881E0,5.296690464E0,7.834883690E0
2.180391302E0,-7.687474251E0,5.598520756E0,7.782183170E0
2.182380729E0,-8.080332756E0,5.862023354E0,7.499516964E0
2.184370156E0,-8.080332756E0,5.862023354E0,7.121031284E0
2.186359583E0,-8.286344528E0,6.039288521E0,6.790455341E0
2.188349010E0,-8.966660500E0,6.551920891E0,6.574862003E0
2.190338437E0,-9.805077553E0,7.093299389E0,6.330523491E0
2.192327864E0,-1.001108932E1,7.265773773E0,6.258658886E0
2.194317292E0,-9.527202606E0,7.275355339E0,5.975992680E0
2.196306719E0,-8.971450806E0,7.098090172E0,5.755608559E0
2.198296146E0,-8.707948685E0,7.078926563E0,5.501687527E0
2.200285573E0,-8.832513809E0,7.280146599E0,5.295676708E0
2.202275000E0,-9.302027702E0,7.620304585E0,5.075292587E0
2.204264427E0,-1.014523602E1,8.281456947E0,4.845326424E0
2.206253854E0,-1.097407150E1,9.019264221E0,4.644106388E0
2.208243281E0,-1.152024078E1,9.656461716E0,4.442886353E0
2.210232708E0,-1.177416134E1,1.014034748E1,4.217711449E0
2.212222135E0,-1.198975372E1,1.042301464E1,3.987745523E0
2.214211562E0,-1.233949375E1,1.018346691E1,3.705079079E0
2.216200989E0,-1.219097424E1,1.025533104E1,3.393666983E0
2.218190417E0,-1.185081673E1,1.041822338E1,3.149327993E0
2.220179844E0,-1.164001465E1,1.068172646E1,3.024763107E0
2.222169271E0,-1.171187878E1,1.119914913E1,3.043926954E0
2.224158698E0,-1.195621777E1,1.182676506E1,3.082254648E0
2.226148125E0,-1.183165264E1,1.222920513E1,3.154119015E0
2.228137552E0,-1.148191261E1,1.233460617E1,3.221192360E0
2.230126979E0,-1.124236488E1,1.255019951E1,3.288265705E0
2.232116406E0,-1.106989002E1,1.269871902E1,3.254729033E0
2.234105833E0,-1.070577812E1,1.256457233E1,3.254729033E0
2.236095260E0,-1.026021862E1,1.229148769E1,3.403248787E0
2.238084687E0,-9.814660072E0,1.204235744E1,3.800898314E0
2.240074114E0,-9.431383133E0,1.175010967E1,4.222502232E0
2.242063542E0,-9.096015930E0,1.134766865E1,4.524332523E0
2.244052969E0,-8.707948685E0,1.084940910E1,4.605778694E0
2.246042396E0,-8.367790222E0,1.036073208E1,4.548287392E0
2.248031823E0,-8.133033752E0,9.958292007E0,4.438095093E0
2.250021250E0,-7.922231197E0,9.584596634E0,4.275202751E0
2.252010677E0,-7.812039375E0,9.277976036E0,4.073982716E0
2.254000104E0,-7.840785027E0,9.100709915E0,3.872762680E0
2.255989531E0,-7.917440414E0,8.985727310E0,3.666751385E0
2.257978958E0,-8.051587105E0,8.918653488E0,3.546977520E0
2.259968385E0,-8.161779404E0,8.923444748E0,3.532604694E0
2.261957812E0,-8.310298920E0,9.038427353E0,3.585305214E0
2.263947239E0,-8.487565041E0,9.143828392E0,3.518231869E0
2.265936667E0,-8.703157425E0,9.230066299E0,3.302638769E0
2.267926094E0,-8.846886635E0,9.369004250E0,2.794797182E0
2.269915521E0,-9.072061539E0,9.785817146E0,2.138436079E0
2.271904948E0,-9.383473396E0,1.038468647E1,1.472493052E0
2.273894375E0,-9.455337524E0,1.089731884E1,8.065499663E-1
2.275883802E0,-9.546365738E0,1.128538704E1,3.418271840E-1
2.277873229E0,-9.661349297E0,1.154409790E1,4.232734442E-1
2.279862656E0,-9.608648300E0,1.164470863E1,9.406967759E-1
2.281852083E0,-9.306818008E0,1.167345428E1,1.520402670E0
2.283841510E0,-8.923542023E0,1.156326199E1,2.056989908E0
2.285830937E0,-8.669620514E0,1.132371426E1,2.603158951E0
2.287820364E0,-8.473191261E0,1.116561317E1,3.173282862E0
2.289809792E0,-8.224061966E0,1.097397423E1,3.561350346E0
2.291799219E0,-7.864739895E0,1.072963524E1,3.834434986E0
2.293788646E0,-7.859948635E0,1.123268604E1,4.078773499E0
2.295778073E0,-7.850366592E0,1.128538704E1,4.016490936E0
2.297767500E0,-7.735383987E0,1.118956757E1,3.666751385E0
2.299756927E0,-7.553327560E0,1.112249374E1,3.350548267E0
2.301746354E0,-7.543745518E0,1.096918392E1,3.139746189E0
2.303735781E0,-7.673101425E0,1.077275467E1,2.852288723E0
2.305725208E0,-7.855157852E0,1.063860703E1,2.416311741E0
2.307714635E0,-7.970140934E0,1.035114956E1,1.865351558E0
2.309704062E0,-8.046796799E0,1.015951157E1,1.132335067E0
2.311693489E0,-8.070751190E0,1.016909409E1,2.699628174E-1
2.313682917E0,-7.979722500E0,1.019304848E1,-6.355280876E-1
2.315672344E0,-7.543745518E0,1.035594082E1,-1.330216765E0
2.317661771E0,-7.217960358E0,1.057153416E1,-1.737448215E0
2.319651198E0,-6.829893112E0,1.036552334E1,-2.264453411E0
2.321640625E0,-6.403497696E0,1.019304848E1,-2.518374205E0
2.323630052E0,-6.978412628E0,9.929545403E0,-2.436927795E0
2.325619531E0,-6.738864899E0,9.991827965E0,-2.259662390E0
2.327609010E0,-6.183113575E0,1.003494644E1,-1.900340676E0
2.329598489E0,-5.641735554E0,9.972664833E0,-1.512273192E0
2.331587969E0,-5.229713440E0,9.795398712E0,-1.325425863E0
2.333577448E0,-5.162640095E0,9.632506371E0,-1.435617924E0
2.335566927E0,-5.526752472E0,9.824144363E0,-1.224815726E0
2.337556406E0,-5.732763767E0,1.016909409E1,-4.822174609E-1
2.339545885E0,-6.005848408E0,1.034635925E1,6.436574459E-1
2.341535364E0,-6.676582336E0,1.066735363E1,1.908470154E0
2.343524844E0,-6.312469482E0,1.037510490E1,2.128854275E0
2.345514323E0,-5.780673504E0,9.752280235E0,1.089216471E0
2.347503802E0,-5.828582764E0,9.517523766E0,3.082904816E-1
2.349493281E0,-6.072921753E0,9.704370499E0,1.406069696E-1
2.351482760E0,-6.293305874E0,9.594179153E0,2.843357027E-1
2.353472239E0,-5.579452991E0,7.711332798E0,1.146708012E0
2.355461719E0,-5.555498123E0,7.816733837E0,2.286955833E0
2.357451198E0,-6.264560223E0,8.612032890E0,3.312220573E0
2.359440677E0,-6.590344906E0,8.559331894E0,3.891926289E0
2.361430156E0,-6.772401333E0,8.386857986E0,4.375813007E0
2.363419635E0,-7.055068016E0,8.176055908E0,4.672852039E0
2.365409114E0,-7.265870094E0,7.634677410E0,4.696806908E0
2.367398594E0,-7.299406528E0,6.906451702E0,4.538705349E0
2.369388073E0,-7.538954735E0,7.040598869E0,4.136264801E0
2.371377552E0,-7.562909603E0,6.906451702E0,3.647587538E0
2.373367031E0,-7.390434742E0,6.451311111E0,3.326593399E0
2.375356510E0,-7.610818863E0,6.896870136E0,3.139746189E0
2.377345989E0,-7.907858372E0,7.208281994E0,2.689396143E0
2.379335469E0,-8.128242493E0,7.304101467E0,2.272583008E0
2.381324948E0,-8.482773781E0,7.749660492E0,1.822232962E0
2.383314427E0,-8.592966080E0,8.128146172E0,1.410210609E0
2.385303854E0,-8.645666122E0,8.362902641E0,1.065261722E0
2.387293281E0,-8.573801994E0,8.310202599E0,1.036515951E0
2.389282708E0,-8.444445610E0,8.291038513E0,8.209228516E-1
2.391272135E0,-8.104288101E0,8.027536392E0,6.915670037E-1
2.393261562E0,-8.018050194E0,8.056282043E0,4.232734442E-1
2.395250989E0,-7.706637859E0,7.831106663E0,3.370362222E-1
2.397240417E0,-6.882593632E0,6.662113190E0,6.771941185E-1
2.399229844E0,-6.403497696E0,6.451311111E0,8.640414476E-1
2.401219271E0,-6.163949966E0,5.483537674E0,7.155218124E-1
2.403208698E0,-6.456198215E0,5.627266407E0,5.436974019E-2
2.405198125E0,-7.011949539E0,6.767514229E0,-9.229855537E-1
2.407187552E0,-6.781983376E0,6.590248585E0,-1.617674232E0
2.409176979E0,-5.795046329E0,6.010542870E0,-1.047550321E0
2.411166406E0,-5.018911362E0,5.473955631E0,-1.995509863E-1
2.413155833E0,-4.305058479E0,5.445209980E0,9.263238907E-1
2.415145260E0,-3.893036366E0,6.211762905E0,1.788696289E0
2.417134687E0,-3.270212173E0,6.321955204E0,2.234255314E0
2.419124114E0,-2.714461088E0,6.120734692E0,2.315701485E0
2.421113542E0,-2.417421818E0,5.564983845E0,2.272583008E0
2.423102969E0,-2.728833914E0,7.002271175E0,1.803069115E0
2.425092396E0,-2.671342373E0,7.217864037E0,7.251037359E-1
2.427081823E0,-1.904789209E0,5.675175667E0,6.388664842E-1
2.429071250E0,-1.670032263E0,5.311063290E0,1.113171339E0
2.431060677E0,-1.440066338E0,4.501391411E0,5.526292324E-1
2.433050104E0,-1.353829145E0,4.036668777E0,1.789346337E-1
2.435039531E0,-9.082701206E-1,3.078477144E0,-2.666243613E-1
2.437028958E0,-8.364057541E-1,2.465234756E0,-6.259461641E-1
2.439018385E0,-1.123863220E0,2.407743216E0,-9.325674176E-1
2.441007812E0,-1.214891315E0,2.604172468E0,-9.996408820E-1
2.442997239E0,-9.130610824E-1,2.527517080E0,-8.798668981E-1
2.444986667E0,-5.058296919E-1,2.517935276E0,-5.349180102E-1
2.446976094E0,-1.512988806E-1,2.623336315E0,-7.977705449E-2
2.448965521E0,7.866705209E-2,2.699991465E0,2.268441916E-1
2.450954948E0,2.032319456E-1,2.652081966E0,3.849457800E-1
2.452944375E0,1.888590753E-1,2.848511219E0,4.711830020E-1
2.454933802E0,1.217856631E-1,2.838929415E0,1.741436720E-1
2.456923229E0,1.265766323E-1,2.872466087E0,-1.803871691E-1
2.458912656E0,2.367686331E-1,2.982657909E0,-5.013812780E-1
2.460902083E0,2.655143738E-1,2.997030973E0,-6.930195689E-1
2.462891510E0,4.188250005E-1,2.944330454E0,-8.846578598E-1
2.464880937E0,5.721356273E-1,2.958703279E0,-9.469403028E-1
2.466870364E0,6.296271086E-1,2.987448931E0,-1.090668917E0
2.468859792E0,3.852883279E-1,3.073686123E0,-1.114623785E0
2.470849219E0,6.429418176E-2,3.250951529E0,-1.272725344E0
2.472838646E0,-4.004286528E-1,3.456962824E0,-1.406872153E0
2.474828073E0,-8.268238306E-1,3.773165941E0,-1.473945498E0
2.476817500E0,-1.181354642E0,3.960013151E0,-8.607031107E-1
2.478806927E0,-1.253219008E0,4.223515987E0,-7.912699133E-3
2.480796354E0,-1.152608871E0,4.300171375E0,1.046097875E0
2.482785781E0,-1.071162581E0,4.343289852E0,2.344447374E0
2.484775208E0,-8.507786393E-1,4.046250820E0,3.293056726E0
2.486764635E0,-6.112307310E-1,3.897730827E0,3.906299353E0
2.488754062E0,-4.531291723E-1,3.787538767E0,3.877553463E0
2.490743489E0,-2.566999495E-1,3.571945667E0,3.470322132E0
2.492732917E0,-1.081802696E-1,3.332397938E0,2.646277666E0
2.494722344E0,2.011742443E-3,3.011403799E0,1.874933481E0
2.496711771E0,6.908514351E-2,2.738319159E0,1.304809570E0
2.498701198E0,7.387609780E-2,2.532308102E0,8.544595242E-1
2.500690625E0,4.992131144E-2,2.378997326E0,6.484484076E-1
2.502680052E0,-3.631591424E-2,2.240059614E0,6.244935989E-1
2.504669479E0,-1.081802696E-1,2.134658575E0,7.059398890E-1
2.506658906E0,-1.560898423E-1,2.144240618E0,8.209228516E-1
2.508648333E0,-1.512988806E-1,2.153822422E0,8.784143329E-1
2.510637760E0,-1.033893153E-1,2.196941137E0,8.592504859E-1
2.512627187E0,-1.715208590E-2,2.326296806E0,8.113409281E-1
2.514616614E0,9.303992242E-2,2.551471949E0,7.538494468E-1
2.516606042E0,3.182149231E-1,2.824556351E0,6.819850802E-1
2.518595469E0,5.338079929E-1,3.088059187E0,6.580303311E-1
2.520584896E0,8.595930934E-1,3.356352568E0,6.963579655E-1
2.522574323E0,1.166214347E0,3.571945667E0,8.209228516E-1
2.524563750E0,1.592609525E0,3.734838247E0,1.022143126E0
2.526553177E0,2.009422541E0,3.955222368E0,1.280854821E0
2.528542604E0,2.435817719E0,4.185188293E0,1.491656899E0
2.530532031E0,2.905331612E0,4.295380116E0,1.745577574E0
2.532521458E0,3.417963982E0,4.419945240E0,1.942006826E0
2.534510885E0,3.916223526E0,4.645120144E0,2.009080172E0
2.536500312E0,4.285127640E0,4.817594528E0,2.162390947E0
2.538489739E0,4.788177967E0,5.042769432E0,2.263000965E0
2.540479167E0,5.276855469E0,5.152961731E0,2.315701485E0
2.542468594E0,5.334347248E0,5.071515083E0,2.310910463E0
2.544458021E0,4.965443611E0,4.812803745E0,2.330074310E0
2.546447448E0,4.400110245E0,4.482227802E0,2.301328659E0
2.548436875E0,4.016833782E0,4.084578037E0,2.416311741E0
2.550426302E0,3.657511950E0,3.902521849E0,2.521712780E0
2.552415729E0,3.187998056E0,3.993550062E0,2.569622278E0
2.554405156E0,3.034687519E0,4.161233425E0,2.593577147E0
2.556394583E0,2.828676224E0,4.367244720E0,2.497757912E0
2.558384010E0,2.742439032E0,4.678657055E0,2.440266371E0
2.560373437E0,2.660992861E0,5.061933517E0,2.109690428E0
2.562362864E0,2.541218996E0,5.440419197E0,1.779114366E0
2.564352292E0,2.335207701E0,5.699130535E0,1.472493052E0
2.566341719E0,2.186687946E0,5.790158749E0,9.071601033E-1
2.568331146E0,2.004631758E0,5.933887482E0,4.376463294E-1
2.570320573E0,1.894439816E0,6.091989040E0,-2.228557318E-2
2.572310000E0,1.875275970E0,6.096780300E0,-4.151440561E-1
2.574299427E0,2.014213562E0,5.857232094E0,-9.708951116E-1
2.576288854E0,2.239388704E0,5.766203880E0,-1.291889191E0
2.578278281E0,2.344789743E0,5.881186962E0,-1.426036000E0
2.580267708E0,2.454981565E0,5.737458229E0,-1.924295545E0
2.582257135E0,2.344789743E0,5.756622314E0,-2.278826237E0
2.584246562E0,1.712383389E0,4.918204784E0,-2.872905016E0
2.586235989E0,2.052541256E0,4.506182194E0,-2.815413475E0
2.588225417E0,2.464563608E0,4.103742123E0,-2.978306055E0
2.590214844E0,2.804721594E0,3.840239286E0,-3.007051706E0
2.592204271E0,2.196269989E0,2.910793781E0,-3.361582518E0
2.594193698E0,1.971095085E0,2.513144255E0,-3.399910212E0
2.596183125E0,2.119614601E0,2.939539433E0,-3.620294333E0
2.598172552E0,1.927976489E0,3.777956963E0,-2.432137012E0
2.600161979E0,1.932767510E0,4.429527283E0,-1.933877468E0
2.602151406E0,2.033377409E0,5.004441738E0,-1.981786966E0
2.604140833E0,1.995049834E0,5.564983845E0,-1.742239118E0
2.606130260E0,2.062123060E0,5.953051567E0,-1.555391788E0
2.608119687E0,1.990259051E0,6.341118813E0,-1.454781651E0
2.610109114E0,1.880066872E0,6.882497311E0,-1.272725344E0
2.612098542E0,1.808202624E0,7.203491211E0,-1.100250840E0
2.614087969E0,1.674055815E0,7.280146599E0,-9.325674176E-1
2.616077396E0,1.650100946E0,7.409502506E0,-7.600929737E-1
2.618066823E0,1.525536060E0,7.629886627E0,-5.972004533E-1
2.620056250E0,1.247660637E0,8.032326698E0,-1.803871691E-1
2.622045677E0,8.643839955E-1,8.477886200E0,1.262340993E-1
2.624035104E0,4.811074734E-1,8.918653488E0,3.753638864E-1
2.626024531E0,1.409495026E-1,9.388167381E0,5.334654450E-1
2.628013958E0,-3.094004691E-1,9.924755096E0,5.957478881E-1
2.630003385E0,-7.932871580E-1,1.037989616E1,5.526292324E-1
2.631992812E0,-1.248428106E0,1.105062962E1,4.999287724E-1
2.633982292E0,-1.813760996E0,1.191300201E1,6.340755224E-1
2.635971771E0,-2.484495163E0,1.297180367E1,8.688324094E-1
2.637961250E0,-2.934844971E0,1.377189350E1,1.022143126E0
2.639950729E0,-3.366031170E0,1.439471817E1,9.502786994E-1
2.641940208E0,-3.931364059E0,1.483548546E1,7.107308507E-1
2.643929687E0,-4.501487732E0,1.533374500E1,7.538494468E-1
2.645919167E0,-4.961419582E0,1.581284142E1,8.688324094E-1
2.647908646E0,-5.545916557E0,1.627277374E1,7.921771407E-1
2.649898125E0,-6.207068443E0,1.639254761E1,6.101207137E-1
2.651887604E0,-7.045485973E0,1.579367733E1,4.903468490E-1
2.653877083E0,-7.706637859E0,1.471092129E1,3.274542987E-1
2.655866562E0,-8.061169624E0,1.396832275E1,6.874261796E-2
2.657856042E0,-8.549846649E0,1.328800678E1,2.699628174E-1
2.659845521E0,-8.612129211E0,1.286161137E1,2.316351533E-1
2.661835000E0,-8.602547646E0,1.266997337E1,6.388664842E-1
2.663824479E0,-8.808558464E0,1.246396255E1,1.261690974E0
2.665813958E0,-8.918750763E0,1.244000721E1,1.630594611E0
2.667803437E0,-8.885213852E0,1.242563438E1,1.898888230E0
2.669792917E0,-8.880422592E0,1.233460617E1,2.473803043E0
2.671782396E0,-8.995406151E0,1.236814308E1,3.000808477E0
2.673771875E0,-9.124761581E0,1.232023335E1,3.791316271E0
2.675761354E0,-9.067270279E0,1.203756714E1,3.997327566E0
2.677750833E0,-8.861259460E0,1.188425636E1,4.169801712E0
2.679740312E0,-8.420491219E0,1.153451633E1,4.323112488E0
2.681729792E0,-7.936604023E0,1.123747730E1,4.600987911E0
2.683719271E0,-7.596446037E0,1.108416653E1,4.874072552E0
2.685708750E0,-6.940084934E0,1.090690136E1,4.945936680E0
2.687698229E0,-6.139995098E0,1.093085575E1,4.965100765E0
2.689687708E0,-5.248877048E0,1.093085575E1,4.711179733E0
2.691677187E0,-4.741035461E0,1.091648293E1,4.634524345E0
2.693666667E0,-4.185284615E0,1.112728500E1,4.289575577E0
2.695656094E0,-3.639115810E0,1.136204243E1,4.150637627E0
2.697645521E0,-3.528923750E0,1.125185013E1,3.767361403E0
2.699634948E0,-3.389986038E0,1.130455017E1,3.441576481E0
2.701624375E0,-3.241466284E0,1.141474247E1,3.192446709E0
2.703613802E0,-3.217511415E0,1.121352196E1,3.000808477E0
2.705603229E0,-3.366031170E0,1.141474247E1,2.976853609E0
2.707592656E0,-3.811590195E0,1.164949894E1,3.029554129E0
2.709582083E0,-4.535024643E0,1.200882149E1,3.297847748E0
2.711571510E0,-5.133893967E0,1.223399639E1,2.670232296E0
2.713560937E0,-5.641735554E0,1.224836922E1,1.654549479E0
2.715550364E0,-6.048966885E0,1.217650509E1,5.717930794E-1
2.717539792E0,-6.451407433E0,1.199444866E1,-2.043419480E-1
2.719529219E0,-6.278933048E0,1.160159016E1,-4.247259498E-1
2.721518646E0,-6.063339710E0,1.121352196E1,-5.780366063E-1
2.723508073E0,-5.953147888E0,1.098355675E1,-9.708951116E-1
2.725497500E0,-5.675272465E0,1.081587315E1,-1.152951360E0
2.727486927E0,-5.378232956E0,1.054278851E1,-1.354171634E0
2.729476354E0,-5.081193447E0,1.025533104E1,-1.296680093E0
2.731465781E0,-4.721871853E0,9.742698669E0,-1.186488152E0
2.733455208E0,-4.453577995E0,9.220483780E0,-1.057132244E0
2.735444635E0,-4.889555454E0,8.449139595E0,-6.930195689E-1
2.737434062E0,-4.606888771E0,8.449139595E0,-3.576525748E-1
2.739423489E0,-4.846436501E0,8.741388321E0,2.028894126E-1
2.741412917E0,-5.220131397E0,8.966563225E0,7.059398890E-1
2.743402344E0,-5.220131397E0,9.024054527E0,9.646515846E-1
2.745391771E0,-4.774572372E0,9.000100136E0,1.491656899E0
2.747381198E0,-4.923091888E0,9.129455566E0,1.769532442E0
2.749370625E0,-4.587725163E0,9.062382698E0,2.066571712E0
2.751360052E0,-4.697916985E0,9.225275040E0,2.325283527E0
2.753349479E0,-4.640425682E0,9.177365303E0,2.483385086E0
2.755338906E0,-4.889555454E0,9.263603210E0,2.833124876E0
2.757328333E0,-5.464470387E0,9.258811951E0,2.957689762E0
2.759317760E0,-6.015430450E0,9.268393517E0,3.245147228E0
2.761307187E0,-6.528062820E0,9.210902214E0,3.264311075E0
2.763296614E0,-6.853847504E0,9.129455566E0,3.283474922E0
2.765286042E0,-7.174841881E0,9.215693474E0,3.408039808E0
2.767275469E0,-7.553327560E0,9.268393517E0,3.532604694E0
2.769264896E0,-7.744965553E0,9.297139168E0,3.264311075E0
2.771254323E0,-7.965349674E0,9.527105331E0,3.374503136E0
2.773243750E0,-8.089915276E0,9.709161758E0,3.293056726E0
2.775233177E0,-8.300717354E0,9.867263794E0,3.374503136E0
2.777222604E0,-8.353417397E0,1.005890179E1,3.388875961E0
2.779212031E0,-7.898276329E0,9.967873573E0,3.427203655E0
2.781201458E0,-7.170051098E0,9.781025887E0,3.240356207E0
2.783190885E0,-6.681373119E0,9.809771538E0,3.317011595E0
2.785180312E0,-6.393915653E0,9.896009445E0,3.230774403E0
2.787169739E0,-6.034594059E0,1.000620079E1,3.120582342E0
2.789159167E0,-5.780673504E0,1.009722900E1,3.206819534E0
2.791148594E0,-5.330323219E0,9.872054100E0,2.904989243E0
2.793138021E0,-4.836854935E0,9.369004250E0,3.005599260E0
2.795127448E0,-4.453577995E0,8.808462143E0,3.173282862E0
2.797116875E0,-4.180493832E0,8.358112335E0,3.384084940E0
2.799106302E0,-3.739725828E0,7.740078449E0,3.336175442E0
2.801095729E0,-3.155229092E0,7.203491211E0,3.225983381E0
2.803085156E0,-2.570732355E0,6.829796791E0,3.398457766E0
2.805074583E0,-1.957489729E0,6.360282898E0,3.537395477E0
2.807064010E0,-1.162190795E0,5.766203880E0,3.695497274E0
2.809053437E0,-6.160216928E-1,5.406882286E0,3.930253983E0
2.811042864E0,-2.902366221E-1,5.243989944E0,4.083564281E0
2.813032292E0,-1.704627126E-1,5.172125340E0,3.906299353E0
2.815021719E0,-1.129712313E-1,5.315854073E0,4.002118111E0
2.817011146E0,-3.152495623E-2,5.464373589E0,4.945936680E0
2.819000573E0,-1.321350485E-1,5.598520756E0,5.104038239E0
2.820990000E0,-5.872759819E-1,5.670384884E0,4.787835121E0
2.822979427E0,-6.926770210E-1,5.833277702E0,4.744716644E0
2.824968854E0,-7.501685023E-1,5.847650528E0,4.730343819E0
2.826958281E0,-8.507786393E-1,5.780577183E0,4.644106388E0
2.828947708E0,-1.080744505E0,5.684757710E0,4.471632004E0
2.830937135E0,-1.339456201E0,5.612893581E0,4.126683235E0
2.832926562E0,-1.598167896E0,5.526656151E0,3.844016790E0
2.834915989E0,-1.967071652E0,5.517074108E0,3.513440847E0
2.836905417E0,-2.398257971E0,5.569774628E0,3.216401339E0
2.838894844E0,-2.867771626E0,5.747040272E0,3.043926954E0
2.840884271E0,-3.361240149E0,5.905141830E0,2.837915897E0
2.842873698E0,-3.883454561E0,6.211762905E0,2.655859470E0
2.844863125E0,-4.415250778E0,6.566293716E0,2.603158951E0
2.846852552E0,-4.971001625E0,6.963943481E0,2.459430218E0
2.848841979E0,-5.550707340E0,7.457411766E0,2.473803043E0
2.850831406E0,-6.053757668E0,7.970044136E0,2.593577147E0
2.852820833E0,-6.633463860E0,8.348529816E0,2.895407438E0
2.854810260E0,-7.069440842E0,8.621614456E0,3.216401339E0
2.856799687E0,-7.438344479E0,8.841998100E0,3.604469061E0
2.858789114E0,-7.754547596E0,8.947399139E0,3.935045004E0
2.860778542E0,-7.936604023E0,9.115082741E0,4.256039143E0
2.862767969E0,-8.051587105E0,9.196529388E0,4.538705349E0
2.864757396E0,-8.118660927E0,9.225275040E0,4.744716644E0
2.866746823E0,-8.156988144E0,9.282766342E0,4.883654118E0
2.868736250E0,-7.965349674E0,9.301930428E0,4.744716644E0
2.870725677E0,-7.725801945E0,9.340257645E0,4.816580772E0
2.872715104E0,-7.452717304E0,9.330676079E0,4.486004829E0
2.874704531E0,-7.246706009E0,9.268393517E0,4.107519150E0
2.876693958E0,-6.959248543E0,9.167783737E0,3.824852943E0
2.878683385E0,-6.623881817E0,9.134246826E0,3.465531111E0
2.880672812E0,-6.365170002E0,9.110292435E0,3.230774403E0
2.882662239E0,-6.111249447E0,9.019264221E0,2.818752050E0
2.884651667E0,-5.756718636E0,9.182156563E0,2.263000965E0
2.886641094E0,-5.569871426E0,9.220483780E0,1.798278213E0
2.888630521E0,-5.325532436E0,9.148619652E0,1.261690974E0
2.890619948E0,-5.143476009E0,9.239647865E0,5.334654450E-1
2.892609375E0,-5.272831917E0,9.503150940E0,1.604208536E-2
2.894598802E0,-5.397396564E0,9.584596634E0,-3.097429872E-1
2.896588229E0,-5.133893967E0,9.689997673E0,-4.295169115E-1
2.898577656E0,-5.028492928E0,9.402540207E0,-1.071505189E0
2.900567083E0,-4.827272892E0,9.067173958E0,-1.564973712E0
2.902556510E0,-4.305058479E0,8.549750328E0,-2.499210358E0
2.904545937E0,-3.816381216E0,8.449139595E0,-3.361582518E0
2.906535364E0,-3.600788116E0,8.583287239E0,-3.984407187E0
2.908524792E0,-3.533714771E0,8.717433929E0,-4.698259830E0
2.910514219E0,-3.504968882E0,8.822834969E0,-5.249219894E0
2.912503646E0,-3.399567842E0,9.052800179E0,-5.718733788E0
2.914493073E0,-3.447477579E0,9.464822769E0,-6.082846642E0
2.916482500E0,-3.528923750E0,9.958292007E0,-6.475705147E0
2.918471927E0,-3.351658344E0,1.042301464E1,-6.916472912E0
2.920461354E0,-3.265421152E0,1.074400806E1,-6.906890869E0
2.922450781E0,-3.183974743E0,1.092606449E1,-6.648179531E0
2.924440208E0,-3.006709337E0,1.125185013E1,-6.585896969E0
2.926429635E0,-2.570732355E0,1.152014351E1,-6.648179531E0
2.928419062E0,-2.690506220E0,1.150097942E1,-6.312812328E0
2.930408489E0,-2.848607779E0,1.119914913E1,-6.106801510E0
2.932397969E0,-2.470122337E0,1.120394039E1,-5.824134827E0
2.934387448E0,-2.038936138E0,1.110333061E1,-5.584587097E0
2.936376927E0,-1.487975955E0,1.124705887E1,-5.038417816E0
2.938366406E0,-1.190936565E0,1.120873165E1,-4.880316257E0
2.940355885E0,-1.099908352E0,1.105062962E1,-4.564113140E0
2.942345364E0,-1.008880258E0,1.072005367E1,-4.444339275E0
2.944334844E0,-5.249935389E-1,1.085420036E1,-3.907751799E0
2.946324323E0,6.908514351E-2,1.128059578E1,-3.366373539E0
2.948313802E0,5.960904360E-1,1.177406406E1,-2.868113995E0
2.950303281E0,1.559072852E0,1.217171383E1,-2.139888525E0
2.952292760E0,2.042959452E0,1.279932880E1,-1.224815726E0
2.954282239E0,2.574755669E0,1.338861656E1,-5.828275681E-1
2.956271719E0,2.493309259E0,1.370002937E1,3.041495755E-2
2.958261198E0,2.450190783E0,1.404976845E1,1.544357419E0
2.960250677E0,3.422755003E0,1.413600636E1,1.208990455E0
2.962240156E0,4.040788651E0,1.411684227E1,6.436574459E-1
2.964229635E0,4.706731796E0,1.445699978E1,6.484484076E-1
2.966219114E0,5.094799042E0,1.477799416E1,5.143015981E-1
2.968208594E0,5.257691860E0,1.483069515E1,4.232734442E-1
2.970198073E0,5.310392380E0,1.489776802E1,3.418271840E-1
2.972187552E0,5.157081604E0,1.463426590E1,4.184824824E-1
2.974177031E0,4.907951832E0,1.435639000E1,2.220532298E-1
2.976166510E0,4.754641533E0,1.376710224E1,6.388664842E-1
2.978155989E0,4.687567711E0,1.330237961E1,7.825952172E-1
2.980145469E0,4.639658451E0,1.298617649E1,1.065261722E0
2.982134948E0,4.342618942E0,1.274662876E1,1.122753263E0
2.984124427E0,3.988087893E0,1.243521595E1,1.290436745E0
2.986113906E0,3.638348103E0,1.198486614E1,1.223363280E0
2.988103385E0,3.164043188E0,1.151535225E1,1.381464839E0
2.990092864E0,2.555591822E0,1.097876549E1,1.458120227E0
2.992082344E0,1.913603663E0,1.058111572E1,1.563521266E0
2.994071771E0,1.252451539E0,1.015951157E1,1.477284074E0
2.996061198E0,5.194351077E-1,9.943918228E0,1.496447921E0
2.998050625E0,-2.375361025E-1,9.704370499E0,1.419792533E0
3.000040052E0,-8.651514649E-1,9.464822769E0,1.137126088E0
3.002029479E0,-1.550258398E0,9.479195595E0,9.933972955E-1
3.004018906E0,-2.197037697E0,9.301930428E0,5.238835216E-1
3.006008333E0,-2.781534433E0,9.153410912E0,2.076803744E-1
3.007997760E0,-3.351658344E0,9.158202171E0,-1.995509863E-1
3.009987187E0,-3.916991234E0,9.412122726E0,-5.588727593E-1
3.011976614E0,-4.295476437E0,9.546269417E0,-9.708951116E-1
3.013966042E0,-4.673962116E0,9.838517189E0,-1.426036000E0
3.015955469E0,-5.004538059E0,1.013076591E1,-1.775775790E0
3.017944896E0,-4.942255974E0,9.953500748E0,-2.393809319E0
3.019934323E0,-4.971001625E0,9.934336662E0,-2.686057568E0
3.021923750E0,-4.860809803E0,9.977455139E0,-2.920814514E0
3.023913177E0,-4.784154415E0,9.967873573E0,-3.064543247E0
3.025902604E0,-4.726662636E0,1.013076591E1,-3.136407614E0
3.027892031E0,-4.472742081E0,9.924755096E0,-3.241808653E0
3.029881458E0,-4.381713867E0,9.915172577E0,-3.241808653E0
3.031870885E0,-4.348176956E0,9.886426926E0,-3.107661963E0
3.033860312E0,-4.333804131E0,1.008285618E1,-2.781876802E0
3.035849739E0,-4.271522045E0,9.900799751E0,-2.527956009E0
3.037839167E0,-4.170911789E0,9.675624847E0,-1.972205043E0
3.039828594E0,-3.936155081E0,9.220483780E0,-1.454781651E0
3.041818021E0,-3.672652483E0,8.439558029E0,-8.367483020E-1
3.043807448E0,-3.658279657E0,8.017953873E0,-6.307371259E-1
3.045796875E0,-3.198347807E0,7.433457375E0,1.501888931E-1
3.047786302E0,-2.944427013E0,6.978316307E0,5.765840411E-1
3.049775729E0,-2.800698280E0,6.451311111E0,8.832052946E-1
3.051765156E0,-2.700088263E0,6.144689560E0,1.156289935E0
3.053754583E0,-2.508449793E0,5.871604919E0,1.386255860E0
3.055744010E0,-2.163501024E0,5.545820236E0,1.606639862E0
3.057733437E0,-1.923953056E0,5.406882286E0,1.788696289E0
3.059722864E0,-1.717941880E0,5.282317638E0,1.999498367E0
3.061712292E0,-1.531094551E0,5.109842777E0,2.152808905E0
3.063701719E0,-1.363411069E0,4.999650955E0,2.296537638E0
3.065691146E0,-1.262800932E0,4.875086308E0,2.368402004E0
3.067680573E0,-1.301128626E0,4.803221703E0,2.354029179E0
3.069670000E0,-1.320292354E0,4.707402706E0,2.286955833E0
3.071659427E0,-1.349038124E0,4.568464756E0,2.148018122E0
3.073648854E0,-1.502348781E0,4.510973454E0,2.095317602E0
3.075638281E0,-1.641286492E0,4.410363197E0,1.913261175E0
3.077627708E0,-1.741896629E0,4.309752941E0,1.769532442E0
3.079617135E0,-1.923953056E0,4.309752941E0,1.496447921E0
3.081606562E0,-2.072472811E0,4.333707809E0,1.185035706E0
3.083595989E0,-2.173082829E0,4.357662678E0,9.933972955E-1
3.085585417E0,-2.292856932E0,4.333707809E0,7.825952172E-1
3.087574844E0,-2.398257971E0,4.304962158E0,6.388664842E-1
3.089564271E0,-2.465331316E0,4.242679596E0,4.999287724E-1
3.091553698E0,-2.541986465E0,4.257052422E0,3.993186653E-1
3.093543125E0,-2.652178526E0,4.290589333E0,3.801548183E-1
3.095532552E0,-2.709670067E0,4.295380116E0,3.034995198E-1
3.097521979E0,-2.743206739E0,4.309752941E0,2.124713361E-1
3.099511406E0,-2.791116238E0,4.304962158E0,1.693527102E-1
3.101500833E0,-2.843816996E0,4.400781155E0,6.395165622E-2
3.103490260E0,-2.906099319E0,4.506182194E0,1.022793129E-1
3.105479687E0,-2.906099319E0,4.602001667E0,1.597707868E-1
3.107469114E0,-2.824653149E0,4.879877090E0,7.353357226E-2
3.109458542E0,-2.685715199E0,5.105051994E0,3.999686986E-2
3.111447969E0,-2.532404661E0,5.196080208E0,1.118612289E-1
3.113437396E0,-2.393466949E0,5.464373589E0,2.268441916E-1
3.115426823E0,-2.182664871E0,5.732667446E0,5.478382707E-1
3.117416250E0,-1.938325882E0,6.020124912E0,8.592504859E-1
3.119405677E0,-1.741896629E0,6.302791119E0,1.103589416E0
3.121395104E0,-1.516721606E0,6.633367538E0,1.506029725E0
3.123384531E0,-1.238846183E0,6.920824528E0,1.927634001E0
3.125373958E0,-9.992982745E-1,7.232236862E0,2.325283527E0
3.127363385E0,-8.172419071E-1,7.519694328E0,2.847497702E0
3.129352812E0,-6.016488671E-1,7.864643097E0,3.379293919E0
3.131342239E0,-4.339653552E-1,8.257501602E0,4.002118111E0
3.133331667E0,-3.429371715E-1,8.674315453E0,4.677643299E0
3.135321094E0,-4.589782655E-2,9.148619652E0,5.290885448E0
3.137310521E0,2.128138542E-1,9.689997673E0,6.033483982E0
3.139299948E0,4.571526647E-1,1.023616695E1,6.584444046E0
3.141289375E0,1.573445678E0,1.088294601E1,7.197686672E0
3.143278802E0,4.337828159E0,1.113686657E1,7.518680573E0
3.145268229E0,6.019454002E0,1.170219994E1,8.069641113E0
3.147257656E0,6.853080273E0,1.192737484E1,8.524782181E0
3.149247083E0,7.399249554E0,1.226753330E1,8.745165825E0
3.151236510E0,7.025555134E0,1.263164520E1,9.200306892E0
3.153225937E0,6.211092472E0,1.289035702E1,9.708148956E0
3.155215364E0,5.358302116E0,1.326405239E1,1.022078133E1
3.157204792E0,4.457602024E0,1.341257191E1,1.051782036E1
3.159194219E0,3.600020409E0,1.360420990E1,1.083402348E1
3.161183646E0,2.593919516E0,1.346048164E1,1.084839630E1
3.163173073E0,1.985468030E0,1.312511444E1,1.063280296E1
3.165162500E0,1.468044639E0,1.278016567E1,1.039804649E1
3.167151927E0,1.017694592E0,1.257415390E1,1.002435207E1
3.169141354E0,8.643839955E-1,1.227232361E1,9.569211006E0
3.171130781E0,8.308473229E-1,1.175489998E1,9.233843803E0
3.173120208E0,6.631638408E-1,1.138120556E1,9.018250465E0
3.175109635E0,3.469606638E-1,1.103625679E1,8.615810394E0
3.177099062E0,-3.631591424E-2,1.088294601E1,8.256488800E0
3.179088489E0,-5.154116154E-1,1.079670906E1,7.868420601E0
3.181077917E0,-1.023253083E0,1.071047211E1,7.403697491E0
3.183067344E0,-1.277173758E0,1.060027981E1,6.915019989E0
3.185056771E0,-1.401738644E0,1.036073208E1,6.483833790E0
3.187046198E0,-1.430484414E0,1.009722900E1,5.995156288E0
3.189035625E0,-1.334665298E0,1.004452896E1,5.472941875E0
3.191025052E0,-1.195727468E0,9.972664833E0,5.080083370E0
3.193014479E0,-1.085535526E0,9.723534584E0,4.806999207E0
3.195003906E0,-9.178519845E-1,9.517523766E0,4.452467918E0
3.196993333E0,-7.357956171E-1,9.297139168E0,4.174592495E0
3.198982760E0,-4.531291723E-1,9.004891396E0,3.733824730E0
3.200972187E0,-1.225531474E-1,8.794089317E0,3.163700819E0
3.202961614E0,-2.194304392E-2,8.794089317E0,2.133645058E0
3.204951042E0,1.074127927E-1,8.880326271E0,-3.959802091E-1
3.206940469E0,8.824896812E-2,9.311511993E0,-4.588068008E0
3.208929896E0,-2.135813236E-1,9.828935623E0,-8.281895638E0
3.210919323E0,-4.627110958E-1,1.033198643E1,-1.134810829E1
3.212908750E0,-6.687222719E-1,1.079191780E1,-1.407895374E1
3.214898229E0,-5.202025771E-1,1.133329582E1,-1.678105354E1
3.216887708E0,-2.087903619E-1,1.201840305E1,-1.899447632E1
3.218877187E0,1.026218459E-1,1.255019951E1,-2.022575188E1
3.220866667E0,8.260563612E-1,1.300054932E1,-2.009639549E1
3.222856146E0,1.324315906E0,1.319218731E1,-1.870222855E1
3.224845625E0,2.181897163E0,1.327842522E1,-1.660378838E1
3.226835104E0,2.756811857E0,1.342215347E1,-1.426580048E1
3.228824583E0,3.216743946E0,1.357546425E1,-1.200926018E1
3.230814062E0,3.274235249E0,1.351797295E1,-9.920402527E0
3.232803542E0,3.322144985E0,1.362337399E1,-8.080675125E0
3.234793021E0,2.541218996E0,1.322572422E1,-6.466123104E0
3.236782500E0,1.956722260E0,1.290952110E1,-5.110282421E0
3.238771979E0,1.429716945E0,1.264601803E1,-3.941288471E0
3.240761458E0,7.110733986E-1,1.243042564E1,-2.906441689E0
3.242750937E0,3.517516255E-1,1.233939743E1,-2.106351852E0
3.244740417E0,-3.141914308E-1,1.205673027E1,-1.311053038E0
3.246729896E0,-6.591403484E-1,1.190821075E1,-6.594828963E-1
3.248719375E0,-8.076599836E-1,1.172615433E1,-2.330876887E-1
3.250708854E0,-1.066371679E0,1.151535225E1,2.843357027E-1
3.252698333E0,-1.411320567E0,1.132850552E1,6.915670037E-1
3.254687812E0,-1.607749820E0,1.118477631E1,1.055679798E0
3.256677292E0,-1.626913667E0,1.106500244E1,1.371883035E0
3.258666771E0,-1.478394032E0,1.114165783E1,1.697668076E0
3.260656250E0,-1.262800932E0,1.119914913E1,1.942006826E0
3.262645729E0,-1.157399893E0,1.107937527E1,2.152808905E0
3.264635208E0,-9.609706402E-1,1.106500244E1,2.377984047E0
3.266624687E0,-7.357956171E-1,1.092606449E1,2.603158951E0
3.268614167E0,-5.297845006E-1,1.093085575E1,2.823543072E0
3.270603646E0,-2.279541939E-1,1.099313831E1,3.019972324E0
3.272593125E0,2.117557265E-2,1.106021214E1,3.202028513E0
3.274582604E0,1.696952432E-1,1.116561317E1,3.317011595E0
3.276572083E0,3.373787403E-1,1.124226761E1,3.374503136E0
3.278561510E0,6.008813977E-1,1.134287834E1,3.369712114E0
3.280550937E0,8.164744377E-1,1.142432404E1,3.269102097E0
3.282540364E0,9.745759964E-1,1.152493477E1,3.163700819E0
3.284529792E0,1.127886653E0,1.165908146E1,3.029554129E0
3.286519219E0,1.271615386E0,1.166387272E1,2.890616417E0
3.288508646E0,1.396180272E0,1.172136402E1,2.665441275E0
3.290498073E0,1.357852578E0,1.179322815E1,2.406729698E0
3.292487500E0,1.362643600E0,1.196570301E1,2.128854275E0
3.294476927E0,1.343479753E0,1.216213226E1,1.831814885E0
3.296466354E0,9.937398434E-1,1.217650509E1,1.515611649E0
3.298455781E0,7.110733986E-1,1.222920513E1,1.256899953E0
3.300445208E0,3.469606638E-1,1.230586052E1,9.933972955E-1
3.302434635E0,8.345801383E-2,1.236814308E1,6.915670037E-1
3.304424062E0,-1.896265298E-1,1.239209747E1,4.759739637E-1
3.306413489E0,-3.812648058E-1,1.244958878E1,3.370362222E-1
3.308402917E0,-5.010387897E-1,1.254061699E1,2.651718557E-1
3.310392344E0,-5.729030967E-1,1.256457233E1,1.453979313E-1
3.312381771E0,-6.878860593E-1,1.258852673E1,8.311548829E-2
3.314371198E0,-7.166318297E-1,1.256457233E1,6.460171193E-3
3.316360625E0,-7.214227915E-1,1.262206364E1,-6.540418416E-2
3.318350052E0,-6.543493867E-1,1.261727238E1,-1.133137569E-1
3.320339479E0,-6.830950975E-1,1.265560055E1,-1.803871691E-1
3.322328906E0,-5.441573858E-1,1.260289955E1,-2.426695824E-1
3.324318333E0,-5.154116154E-1,1.255019951E1,-2.618334293E-1
3.326307760E0,-4.148015082E-1,1.244479847E1,-2.714153230E-1
3.328297187E0,-3.860557675E-1,1.224357796E1,-2.139238417E-1
3.330286614E0,-4.914568365E-1,1.189862919E1,-1.851781011E-1
3.332276042E0,-4.770839512E-1,1.130455017E1,-6.540418416E-2
3.334265469E0,-4.052196145E-1,1.068651676E1,4.478782788E-2
3.336254896E0,-3.094004691E-1,1.016909409E1,2.124713361E-1
3.338244323E0,-1.033893153E-1,9.867263794E0,3.945277035E-1
3.340233750E0,4.513035715E-2,9.670834541E0,5.047196746E-1
3.342223177E0,1.936500371E-1,9.551059723E0,5.526292324E-1
3.344212604E0,2.559324801E-1,9.565433502E0,5.957478881E-1
3.346202031E0,3.277968168E-1,9.622924805E0,6.244935989E-1
3.348191458E0,3.038420379E-1,9.718743324E0,6.149116755E-1
3.350180885E0,3.613335192E-1,9.771444321E0,6.292845607E-1
3.352170312E0,3.709154427E-1,9.795398712E0,5.670021176E-1
3.354159739E0,3.469606638E-1,9.828935623E0,4.855558872E-1
3.356149167E0,4.284069240E-1,9.785817146E0,4.472282231E-1
3.358138594E0,4.092431068E-1,9.838517189E0,3.945277035E-1
3.360128021E0,4.140340686E-1,9.833726883E0,3.034995198E-1
3.362117448E0,3.804973662E-1,9.804981232E0,2.795447409E-1
3.364106875E0,3.757064044E-1,9.833726883E0,2.268441916E-1
3.366096302E0,3.757064044E-1,9.795398712E0,1.597707868E-1
3.368085729E0,6.871185899E-1,8.956981659E0,3.370362222E-1
3.370075156E0,1.032067537E0,8.180846214E0,6.771941185E-1
3.372064583E0,1.075186133E0,8.415603638E0,8.017590046E-1
3.374054010E0,1.084768057E0,8.607241631E0,7.490584850E-1
3.376043437E0,1.012903690E0,8.612032890E0,2.795447409E-1
3.378032864E0,8.883388042E-1,8.583287239E0,4.478782788E-2
3.380022292E0,7.829377651E-1,8.554541588E0,3.520591557E-2
3.382011719E0,7.302372456E-1,8.458722115E0,4.855558872E-1
3.384001146E0,8.643839955E-1,8.166473389E0,8.544595242E-1
3.385990573E0,1.228496790E0,7.476575851E0,1.002979279E0
3.387980000E0,9.506212473E-1,6.834587574E0,1.146708012E0
3.389969427E0,8.308473229E-1,6.518384457E0,1.304809570E0
3.391958854E0,7.685648799E-1,6.226136208E0,1.300018668E0
3.393948281E0,6.919095516E-1,5.953051567E0,9.550696611E-1
3.395937708E0,4.715255499E-1,5.747040272E0,7.490584850E-1
3.397927135E0,1.457404643E-1,5.622475147E0,6.053298116E-1
3.399916562E0,-2.327451557E-1,5.483537674E0,3.705729246E-1
3.401905989E0,-6.112307310E-1,5.373345375E0,1.885165274E-1
3.403895417E0,-7.166318297E-1,5.493119717E0,-7.498610020E-2
3.405884844E0,-1.047207832E0,5.564983845E0,-7.977705449E-2
3.407874271E0,-1.368201971E0,5.641639233E0,-3.720254302E-1
3.409863698E0,-1.785015225E0,5.770995140E0,-4.726355374E-1
3.411853125E0,-2.086845636E0,6.111153126E0,-4.534716904E-1
3.413842552E0,-2.192246675E0,6.470474720E0,-5.684546828E-1
3.415831979E0,-2.187455654E0,6.729186535E0,-6.690648198E-1
3.417821406E0,-2.091636658E0,7.026225567E0,-8.032115698E-1
3.419810833E0,-1.785015225E0,7.375965595E0,-9.038217068E-1
3.421800260E0,-1.713150859E0,7.711332798E0,-8.798668981E-1
3.423789687E0,-1.607749820E0,7.970044136E0,-9.756860137E-1
3.425779114E0,-1.258009911E0,8.338948250E0,-8.942397833E-1
3.427768542E0,-9.034791589E-1,8.521004677E0,-6.882286072E-1
3.429757969E0,-8.843153119E-1,8.635987282E0,-5.732456446E-1
3.431747396E0,-7.070499063E-1,8.880326271E0,-5.061722398E-1
3.433736823E0,-3.908467293E-1,8.976145744E0,-4.247259498E-1
3.435726250E0,-2.566999495E-1,9.201320648E0,-2.522515059E-1
3.437715677E0,1.217856631E-1,9.512732506E0,-1.276866198E-1
3.439705104E0,5.481808782E-1,9.733116150E0,7.832452655E-2
3.441694531E0,9.841579199E-1,9.915172577E0,3.945277035E-1
3.443683958E0,1.515954137E0,1.025053978E1,5.430473685E-1
3.445673385E0,1.549490929E0,1.039426899E1,6.532393694E-1
3.447662812E0,1.544699907E0,1.052362442E1,6.963579655E-1
3.449652239E0,1.832157373E0,1.079191780E1,6.532393694E-1
3.451641667E0,1.827366352E0,1.089252853E1,6.724031568E-1
3.453631094E0,1.544699907E0,1.099792957E1,6.771941185E-1
3.455620521E0,1.262033463E0,1.112728500E1,6.580303311E-1
3.457609948E0,9.985308647E-1,1.118477631E1,6.580303311E-1
3.459599375E0,9.218755364E-1,1.151535225E1,6.963579655E-1
3.461588802E0,8.452202082E-1,1.154409790E1,7.634313703E-1
3.463578229E0,6.152542830E-1,1.150577068E1,7.825952172E-1
3.465567656E0,6.296271086E-1,1.145786095E1,9.215329289E-1
3.467557083E0,7.158643603E-1,1.142911530E1,8.927872181E-1
3.469546510E0,7.973106503E-1,1.135245991E1,9.502786994E-1
3.471535937E0,6.535819173E-1,1.130934143E1,1.170662761E0
3.473525364E0,8.500111699E-1,1.113207626E1,1.391046762E0
3.475514792E0,1.027276516E0,1.084461880E1,1.601848960E0
3.477504219E0,1.166214347E0,1.043738747E1,2.013871193E0
3.479493646E0,1.396180272E0,1.025533104E1,2.306119680E0
3.481483073E0,1.400971174E0,9.987037659E0,2.579204082E0
3.483472500E0,1.238078713E0,9.637297630E0,2.665441275E0
3.485461927E0,1.161423326E0,9.464822769E0,2.775633335E0
3.487451354E0,8.739659190E-1,9.340257645E0,2.679814339E0
3.489440781E0,6.008813977E-1,9.359421730E0,2.421102524E0
3.491430260E0,4.427798092E-1,9.330676079E0,2.330074310E0
3.493419739E0,2.750962973E-1,9.364212990E0,2.253419161E0
3.495409219E0,4.044521451E-1,9.354630470E0,2.334865332E0
3.497398698E0,2.032319456E-1,9.364212990E0,2.253419161E0
3.499388177E0,1.984409839E-1,9.359421730E0,2.267791986E0
3.501377656E0,1.265766323E-1,9.445658684E0,2.291746855E0
3.503367135E0,-1.656717509E-1,9.589387894E0,2.157599926E0
3.505356614E0,-5.776940584E-1,9.924755096E0,1.942006826E0
3.507346094E0,-7.357956171E-1,9.996619225E0,1.831814885E0
3.509335573E0,-5.968579054E-1,1.008285618E1,1.539566517E0
3.511325052E0,-6.974679828E-1,1.022179413E1,1.400628686E0
3.513314531E0,-7.405865788E-1,1.017867565E1,1.391046762E0
3.515304010E0,-7.118408680E-1,1.003973770E1,1.252109051E0
3.517293489E0,-5.489482880E-1,1.000620079E1,1.185035706E0
3.519282969E0,-6.783041358E-1,1.010202026E1,1.084425569E0
3.521272448E0,-7.405865788E-1,1.036552334E1,9.886063337E-1
3.523261927E0,-8.938972354E-1,1.044217777E1,8.784143329E-1
3.525251406E0,-1.071162581E0,1.043259621E1,7.490584850E-1
3.527240885E0,-1.258009911E0,1.055716133E1,2.172622979E-1
3.529230364E0,-1.516721606E0,1.062902546E1,-3.097429872E-1
3.531219844E0,-1.617331743E0,1.087815571E1,-4.295169115E-1
3.533209323E0,-1.588585973E0,1.089731884E1,-4.822174609E-1
3.535198802E0,-1.325083375E0,1.080629063E1,-6.690648198E-1
3.537188281E0,-1.051998854E0,1.070568085E1,-5.924094915E-1
3.539177760E0,-6.256036162E-1,1.054757881E1,-4.534716904E-1
3.541167239E0,-9.859836102E-2,1.051883316E1,-1.755962074E-1
3.543156719E0,3.373787403E-1,1.048050594E1,1.980984509E-1
3.545146198E0,2.798872590E-1,1.035114956E1,1.214431450E-1
3.547135677E0,2.990510762E-1,1.020263004E1,6.874261796E-2
3.549125156E0,1.553223729E-1,1.071526241E1,-2.809972465E-1
3.551114635E0,7.387609780E-2,1.103146553E1,-6.163643003E-1
3.553104114E0,2.559324801E-1,1.091169167E1,-1.228956655E-1
3.555093542E0,1.361585408E-1,1.077275467E1,-9.414992481E-2
3.557082969E0,1.888590753E-1,1.052362442E1,-3.816073537E-1
3.559072396E0,2.990510762E-1,1.046613312E1,-1.372685432E-1
3.561061823E0,2.655143738E-1,1.052841568E1,-4.247259498E-1
3.563051250E0,2.607234418E-1,1.089731884E1,-3.768163919E-1
3.565040677E0,4.715255499E-1,1.073921776E1,-5.684546828E-1
3.567030104E0,7.494010329E-1,1.044217777E1,-8.032115698E-1
3.569019531E0,7.685648799E-1,1.027928543E1,-7.744658589E-1
3.571008958E0,7.062824368E-1,1.013555717E1,-9.948498607E-1
3.572998385E0,6.583728790E-1,9.728325844E0,-1.239188671E0
3.574987812E0,6.583728790E-1,9.378585815E0,-1.483527422E0
3.576977239E0,6.727457643E-1,9.507941246E0,-1.426036000E0
3.578966667E0,7.014914751E-1,9.551059723E0,-1.416454077E0
3.580956094E0,8.883388042E-1,9.249229431E0,-1.449990749E0
3.582945521E0,8.068925142E-1,9.369004250E0,-1.277516246E0
3.584934948E0,3.134239614E-1,9.412122726E0,-1.215233803E0
3.586924375E0,-8.901644498E-2,9.598969460E0,-1.239188671E0
3.588913802E0,-1.081802696E-1,1.004452896E1,-1.133787632E0
3.590903229E0,1.601133347E-1,1.010202026E1,-1.061923265E0
3.592892656E0,3.038420379E-1,9.886426926E0,-1.061923265E0
3.594882083E0,3.613335192E-1,9.824144363E0,-9.661041498E-1
3.596871510E0,1.122037545E-1,9.440868378E0,-9.517312646E-1
3.598860937E0,-1.417169720E-1,9.426495552E0,-1.061923265E0
3.600850364E0,-2.327451557E-1,9.651670456E0,-8.080025315E-1
3.602839792E0,-4.195924699E-1,9.771444321E0,-7.553020120E-1
3.604829219E0,-4.627110958E-1,9.991827965E0,-7.217653394E-1
3.606818646E0,-3.668919504E-1,9.833726883E0,-7.026014924E-1
3.608808073E0,-1.321350485E-1,9.479195595E0,-5.013812780E-1
3.610797500E0,-1.992084533E-1,9.565433502E0,-3.911892474E-1
3.612786927E0,6.802698597E-3,9.560642242E0,-4.247259498E-1
3.614776354E0,7.866705209E-2,9.359421730E0,-5.492908955E-1
3.616765781E0,8.824896812E-2,9.598969460E0,-2.809972465E-1
3.618755208E0,-4.291743934E-1,1.014513874E1,-6.061322987E-2
3.620744635E0,-7.214227915E-1,1.039426899E1,-8.456801623E-2
3.622734062E0,-4.770839512E-1,1.019304848E1,-3.665844351E-2
3.624723489E0,-4.243834317E-1,9.991827965E0,1.125112828E-2
3.626712917E0,-3.573100269E-1,1.008285618E1,6.395165622E-2
3.628702344E0,-9.370158315E-1,1.104583836E1,4.951378107E-1
3.630691771E0,-6.591403484E-1,1.098355675E1,5.717930794E-1
3.632681198E0,-4.627110958E-1,1.082066345E1,8.832052946E-1
3.634670625E0,-4.770839512E-1,1.102188396E1,6.867760420E-1
3.636660052E0,-4.435472488E-1,1.123268604E1,9.023691416E-1
3.638649479E0,-4.579201341E-1,1.123268604E1,8.400866985E-1
3.640638906E0,-3.908467293E-1,1.136683273E1,1.022143126E0
3.642628333E0,-5.824850202E-1,1.197528458E1,1.156289935E0
3.644617760E0,-3.381462097E-1,1.171178150E1,1.285645723E0
3.646607187E0,8.824896812E-2,1.107937527E1,9.502786994E-1
3.648596614E0,3.948702216E-1,1.065297985E1,8.065499663E-1
3.650586042E0,4.523617029E-1,1.049487877E1,1.060470819E0
3.652575469E0,2.894691825E-1,1.070568085E1,1.036515951E0
3.654564896E0,2.032319456E-1,1.087815571E1,8.688324094E-1
3.656554323E0,-2.673400007E-2,1.088294601E1,8.544595242E-1
3.658543750E0,-1.800446212E-1,1.087815571E1,7.538494468E-1
3.660533177E0,-2.279541939E-1,1.107458496E1,8.640414476E-1
3.662522604E0,-2.327451557E-1,1.105062962E1,9.838153720E-1
3.664512031E0,-7.464357466E-2,1.129975986E1,9.167419672E-1
3.666501458E0,-3.631591424E-2,1.128059578E1,1.074843645E0
3.668490885E0,1.313675940E-1,1.107458496E1,9.886063337E-1
3.670480312E0,3.900792599E-1,1.068651676E1,7.730132937E-1
3.672469739E0,5.721356273E-1,1.039905930E1,7.203127742E-1
3.674459167E0,7.446100712E-1,1.018825722E1,8.209228516E-1
3.676448594E0,6.823276281E-1,1.021221256E1,7.346855998E-1
3.678438021E0,6.439999938E-1,1.022658539E1,7.969680429E-1
3.680427448E0,4.140340686E-1,1.027449512E1,8.400866985E-1
3.682416875E0,2.798872590E-1,1.032240391E1,8.544595242E-1
3.684406302E0,3.277968168E-1,1.031282234E1,6.676122546E-1
3.686395729E0,4.092431068E-1,1.030324078E1,7.155218124E-1
3.688385156E0,3.325877786E-1,1.019304848E1,8.592504859E-1
3.690374583E0,1.792771667E-1,1.026012230E1,9.454877377E-1
3.692364010E0,2.559324801E-1,1.025533104E1,9.119510651E-1
3.694353437E0,3.086329997E-1,1.012597466E1,8.065499663E-1
3.696342864E0,1.074127927E-1,1.024574852E1,8.305047750E-1
3.698332292E0,1.457404643E-1,1.017867565E1,6.963579655E-1
3.700321719E0,2.463505566E-1,9.977455139E0,7.921771407E-1
3.702311146E0,3.517516255E-1,9.781025887E0,7.538494468E-1
3.704300573E0,3.469606638E-1,9.613342285E0,4.855558872E-1
3.706290000E0,2.798872590E-1,9.498359680E0,2.651718557E-1
3.708279427E0,8.824896812E-2,9.469614029E0,1.837255955E-1
3.710268854E0,-7.570171729E-3,9.483986855E0,8.790644258E-2
3.712258281E0,-4.110687226E-2,9.445658684E0,1.789346337E-1
3.714247708E0,-2.614909112E-1,9.531896591E0,1.166521832E-1
3.716237135E0,-3.333552480E-1,9.603760719E0,8.790644258E-2
3.718226562E0,-3.046095073E-1,9.498359680E0,6.395165622E-2
3.720215989E0,-2.662818432E-1,9.402540207E0,7.832452655E-2
3.722205417E0,-3.046095073E-1,9.335467339E0,-1.270365715E-2
3.724194844E0,-3.716829121E-1,9.340257645E0,3.520591557E-2
3.726184271E0,-4.579201341E-1,9.340257645E0,4.957878590E-2
3.728173698E0,-4.770839512E-1,9.282766342E0,-1.468504667E-1
3.730163125E0,-5.537392497E-1,9.354630470E0,-6.061322987E-2
3.732152552E0,-5.872759819E-1,9.416913033E0,-9.894088656E-2
3.734141979E0,-4.914568365E-1,9.359421730E0,-1.420595050E-1
3.736131406E0,-4.531291723E-1,9.162992477E0,-1.516413987E-1
3.738120833E0,-3.908467293E-1,9.024054527E0,-9.414992481E-2
3.740110260E0,-1.417169720E-1,8.909071922E0,-1.755962074E-1
3.742099687E0,-2.087903619E-1,9.062382698E0,-7.977705449E-2
3.744089114E0,-2.854456902E-1,9.129455566E0,-8.935897052E-2
3.746078542E0,-3.381462097E-1,9.182156563E0,-6.061322987E-2
3.748067969E0,-5.058296919E-1,9.306721687E0,1.645617485E-1
3.750057396E0,-7.789142728E-1,9.450449944E0,1.645617485E-1
3.752046823E0,-9.082701206E-1,9.474405289E0,8.311548829E-2
3.754036250E0,-9.801344275E-1,9.575015068E0,2.364261150E-1
3.756025677E0,-7.741233110E-1,9.733116150E0,2.699628174E-1
3.758015104E0,-6.351855397E-1,1.003494644E1,2.460080385E-1
3.760004531E0,-5.872759819E-1,1.018825722E1,3.705729246E-1
3.761994010E0,-5.249935389E-1,1.017867565E1,5.238835216E-1
3.763983489E0,-6.543493867E-1,1.010681152E1,7.873861790E-1
3.765972969E0,-4.675020576E-1,1.015951157E1,9.311148524E-1
3.767962448E0,-7.453775406E-1,1.019783974E1,1.046097875E0
3.769951927E0,-1.090326428E0,1.039426899E1,1.079634547E0
3.771941406E0,-5.058296919E-1,1.094043732E1,1.228154302E0
3.773930885E0,-2.375361025E-1,1.142911530E1,1.031725049E0
3.775920364E0,-3.716829121E-1,1.151056194E1,1.434165478E0
3.777909844E0,-3.525190651E-1,1.157763481E1,1.774323344E0
3.779899323E0,-3.141914308E-1,1.161596298E1,1.975543618E0
3.781888802E0,-1.369260103E-1,1.173573685E1,2.071362734E0
3.783878281E0,-2.231632322E-1,1.180760098E1,2.167181969E0
3.785867760E0,-2.519089878E-1,1.182676506E1,2.516921759E0
3.787857239E0,-9.380739927E-2,1.177885532E1,2.243837118E0
3.789846719E0,-1.800446212E-1,1.178364658E1,2.373193026E0
3.791836198E0,-1.225531474E-1,1.161596298E1,2.435475349E0
3.793825677E0,-5.547974259E-2,1.144348812E1,2.416311741E0
3.795815156E0,2.463505566E-1,1.136204243E1,2.128854275E0
3.797804635E0,3.709154427E-1,1.115123940E1,1.975543618E0
3.799794114E0,5.050622225E-1,1.086378288E1,1.937215924E0
3.801783594E0,5.098531842E-1,1.062423420E1,1.822232962E0
3.803773073E0,4.571526647E-1,1.049008751E1,1.649758458E0
3.805762552E0,4.619436264E-1,1.046613312E1,1.529984593E0
3.807752031E0,4.571526647E-1,1.032240391E1,1.333555341E0
3.809741510E0,4.619436264E-1,1.018346691E1,1.137126088E0
3.811730989E0,4.331978858E-1,1.014513874E1,9.598606229E-1
3.813720469E0,4.188250005E-1,1.017867565E1,8.784143329E-1
3.815709948E0,4.619436264E-1,1.012597466E1,8.113409281E-1
3.817699427E0,4.619436264E-1,1.005411053E1,7.059398890E-1
3.819688906E0,4.188250005E-1,1.006848335E1,6.676122546E-1
3.821678385E0,4.331978858E-1,9.991827965E0,6.484484076E-1
3.823667864E0,4.092431068E-1,1.002057362E1,6.005388498E-1
3.825657292E0,2.894691825E-1,9.991827965E0,8.017590046E-1
3.827646719E0,5.002712607E-1,9.982246399E0,9.167419672E-1
3.829636146E0,8.345801383E-2,1.006848335E1,2.603808939E-1
3.831625573E0,-2.566999495E-1,1.033198643E1,-1.420595050E-1
3.833615000E0,-5.068878829E-2,1.000620079E1,8.448776603E-1
3.835604427E0,9.075026512E-1,9.675624847E0,4.616011083E-1
3.837593854E0,1.089558959E0,1.022179413E1,1.885165274E-1
3.839583281E0,1.386598349E0,1.018825722E1,4.478782788E-2
3.841572708E0,8.452202082E-1,1.019783974E1,6.244935989E-1
3.843562135E0,5.673446655E-1,1.014513874E1,5.095106363E-1
3.845551562E0,1.122037545E-1,1.012597466E1,4.280644059E-1
3.847540989E0,-4.110687226E-2,1.014513874E1,4.184824824E-1
3.849530417E0,1.217856631E-1,1.015951157E1,2.220532298E-1
3.851519844E0,-4.110687226E-2,1.019783974E1,8.790644258E-2
3.853509271E0,-1.033893153E-1,1.024095821E1,-1.270365715E-2
3.855498698E0,-3.285642862E-1,1.024095821E1,-1.372685432E-1
3.857488125E0,-4.195924699E-1,1.022179413E1,-2.714153230E-1
3.859477552E0,-4.291743934E-1,1.017388439E1,-3.097429872E-1
3.861466979E0,-5.154116154E-1,1.015472031E1,-3.432796896E-1
3.863456406E0,-4.722929895E-1,1.006848335E1,-3.289068043E-1
3.865445833E0,-4.339653552E-1,9.919963837E0,-2.809972465E-1
3.867435260E0,-5.058296919E-1,9.896009445E0,-1.851781011E-1
3.869424687E0,-5.249935389E-1,9.886426926E0,-5.582226813E-2
3.871414114E0,-4.195924699E-1,9.790608406E0,4.478782788E-2
3.873403542E0,-3.573100269E-1,9.757071495E0,1.166521832E-1
3.875392969E0,-3.477281332E-1,9.785817146E0,1.789346337E-1
3.877382396E0,-3.094004691E-1,9.723534584E0,1.933074892E-1
3.879371823E0,-2.998185456E-1,9.742698669E0,2.316351533E-1
3.881361250E0,-3.046095073E-1,9.771444321E0,3.034995198E-1
3.883350677E0,-3.429371715E-1,9.867263794E0,4.089005888E-1
3.885340104E0,-3.429371715E-1,9.924755096E0,5.095106363E-1
3.887329531E0,-3.429371715E-1,9.915172577E0,5.957478881E-1
3.889318958E0,-3.381462097E-1,9.953500748E0,7.107308507E-1
3.891308385E0,-2.902366221E-1,9.972664833E0,7.730132937E-1
3.893297812E0,-2.806547284E-1,9.972664833E0,8.496686220E-1
3.895287239E0,-2.950275838E-1,1.008764744E1,9.646515846E-1
3.897276667E0,-2.662818432E-1,1.012118435E1,1.098798394E0
3.899266094E0,-2.519089878E-1,1.014034748E1,1.194617510E0
3.901255521E0,-1.560898423E-1,1.011160183E1,1.285645723E0
3.903244948E0,-1.081802696E-1,1.010202026E1,1.391046762E0
3.905234375E0,-4.589782655E-2,1.007806587E1,1.472493052E0
3.907223802E0,2.117557265E-2,1.003015614E1,1.529984593E0
3.909213229E0,2.596652694E-2,1.003973770E1,1.563521266E0
3.911202656E0,1.159365661E-2,1.005411053E1,1.582685113E0
3.913192083E0,-2.779213712E-3,9.996619225E0,1.577894092E0
3.915181510E0,4.033939540E-2,9.939127922E0,1.592267036E0
3.917170937E0,4.033939540E-2,9.881636620E0,1.534775496E0
3.919160364E0,-2.673400007E-2,9.761862755E0,1.453329206E0
3.921149792E0,-4.110687226E-2,9.666043282E0,1.352719188E0
3.923139219E0,2.011742443E-3,9.541478157E0,1.314391494E0
3.925128646E0,2.117557265E-2,9.464822769E0,1.256899953E0
3.927118073E0,1.159365661E-2,9.397749901E0,1.199408531E0
3.929107500E0,1.159365661E-2,9.311511993E0,1.094007492E0
3.931096927E0,-7.570171729E-3,9.254020691E0,1.036515951E0
3.933086354E0,1.159365661E-2,9.191738129E0,9.933972955E-1
3.935075781E0,6.429418176E-2,9.153410912E0,9.502786994E-1
3.937065208E0,8.824896812E-2,9.067173958E0,8.784143329E-1
3.939054635E0,2.117557265E-2,9.057591438E0,7.921771407E-1
3.941044062E0,7.387609780E-2,9.086337090E0,7.586404085E-1
3.943033489E0,6.908514351E-2,9.067173958E0,7.298946977E-1
3.945022917E0,8.345801383E-2,9.028845787E0,7.442675233E-1
3.947012344E0,1.361585408E-1,8.966563225E0,7.059398890E-1
3.949001771E0,1.409495026E-1,9.000100136E0,7.059398890E-1
3.950991198E0,1.361585408E-1,9.115082741E0,7.107308507E-1
3.952980625E0,1.553223729E-1,9.134246826E0,7.107308507E-1
3.954970052E0,1.553223729E-1,9.311511993E0,7.442675233E-1
3.956959479E0,1.265766323E-1,9.282766342E0,7.538494468E-1
3.958948906E0,1.122037545E-1,9.364212990E0,7.825952172E-1
3.960938333E0,8.345801383E-2,9.469614029E0,8.065499663E-1
3.962927760E0,9.783088416E-2,9.541478157E0,8.113409281E-1
3.964917187E0,7.866705209E-2,9.632506371E0,8.784143329E-1
3.966906614E0,7.866705209E-2,9.728325844E0,9.023691416E-1
3.968896042E0,6.429418176E-2,9.809771538E0,9.406967759E-1
3.970885469E0,1.159365661E-2,9.891218185E0,9.550696611E-1
3.972874896E0,-3.152495623E-2,9.934336662E0,9.598606229E-1
3.974864323E0,-3.152495623E-2,9.991827965E0,9.646515846E-1
3.976853750E0,-1.177621856E-1,1.002057362E1,9.071601033E-1
3.978843177E0,-9.380739927E-2,1.006369305E1,9.071601033E-1
3.980832604E0,-7.943452895E-2,1.005411053E1,8.400866985E-1
3.982822031E0,-6.985261291E-2,1.014993000E1,7.969680429E-1
3.984811458E0,-4.110687226E-2,1.020263004E1,7.490584850E-1
3.986800885E0,-8.422548324E-2,1.020263004E1,6.436574459E-1
3.988790312E0,-6.027069688E-2,1.026970387E1,6.244935989E-1
3.990779739E0,-7.570171729E-3,1.037989616E1,6.292845607E-1
3.992769167E0,-2.779213712E-3,1.050446033E1,6.436574459E-1
3.994758594E0,6.908514351E-2,1.055237007E1,6.388664842E-1
3.996748021E0,9.783088416E-2,1.059548855E1,6.244935989E-1
3.998737448E0,1.074127927E-1,1.069609928E1,6.340755224E-1
4.000726875E0,9.303992242E-2,1.072963524E1,6.244935989E-1
4.002716302E0,7.387609780E-2,1.085899162E1,6.292845607E-1
4.004705729E0,1.026218459E-1,1.090690136E1,6.005388498E-1
4.006695156E0,6.429418176E-2,1.100751114E1,5.957478881E-1
4.008684583E0,3.075748496E-2,1.117040348E1,6.005388498E-1
4.010674010E0,6.802698597E-3,1.126143169E1,6.101207137E-1
4.012663437E0,1.638461463E-2,1.134766865E1,6.197026372E-1
4.014652864E0,1.159365661E-2,1.138599682E1,5.765840411E-1
4.016642292E0,-7.943452895E-2,1.146744347E1,5.334654450E-1
4.018631719E0,-1.129712313E-1,1.145786095E1,5.190925598E-1
4.020621146E0,-1.608807892E-1,1.144827938E1,4.759739637E-1
4.022610573E0,-2.135813236E-1,1.146744347E1,4.136915207E-1
4.024600052E0,-2.806547284E-1,1.146265221E1,3.034995198E-1
4.026589531E0,-3.285642862E-1,1.142432404E1,2.124713361E-1
4.028579010E0,-3.141914308E-1,1.137162399E1,1.022793129E-1
4.030568489E0,-3.046095073E-1,1.132371426E1,-7.912699133E-3
4.032557969E0,-2.566999495E-1,1.128538704E1,-1.612233222E-1
4.034547448E0,-2.471180260E-1,1.127580452E1,-2.570424676E-1
4.036536927E0,-2.183722854E-1,1.126143169E1,-3.624435067E-1
4.038526406E0,-1.896265298E-1,1.128059578E1,-4.486807585E-1
4.040515885E0,-1.560898423E-1,1.133329582E1,-5.397089720E-1
4.042505364E0,-1.081802696E-1,1.131413269E1,-5.684546828E-1
4.044494844E0,-3.152495623E-2,1.136204243E1,-6.163643003E-1
4.046484323E0,-7.570171729E-3,1.137641525E1,-5.924094915E-1
4.048473802E0,7.387609780E-2,1.141474247E1,-6.211552024E-1
4.050463281E0,1.265766323E-1,1.143869686E1,-6.211552024E-1
4.052452760E0,1.888590753E-1,1.149139786E1,-6.163643003E-1
4.054442239E0,2.750962973E-1,1.151056194E1,-6.594828963E-1
4.056431719E0,3.182149231E-1,1.154409790E1,-6.403190494E-1
4.058421198E0,3.709154427E-1,1.154888916E1,-6.834376454E-1
4.060410677E0,4.044521451E-1,1.157763481E1,-7.026014924E-1
4.062400156E0,3.900792599E-1,1.161596298E1,-6.978105307E-1
4.064389635E0,4.140340686E-1,1.164949894E1,-7.265563011E-1
4.066379114E0,3.900792599E-1,1.170219994E1,-7.265563011E-1
4.068368594E0,3.277968168E-1,1.175969124E1,-7.505110502E-1
4.070358073E0,3.038420379E-1,1.179322815E1,-7.505110502E-1
4.072347552E0,1.984409839E-1,1.177885532E1,-6.786467433E-1
4.074337031E0,1.601133347E-1,1.179801941E1,-6.403190494E-1
4.076326510E0,9.783088416E-2,1.175010967E1,-5.684546828E-1
4.078315989E0,8.824896812E-2,1.171657276E1,-5.157541633E-1
4.080305469E0,2.117557265E-2,1.162075329E1,-4.486807585E-1
4.082294948E0,6.802698597E-3,1.157763481E1,-3.576525748E-1
4.084284427E0,2.607234418E-1,1.143390656E1,-6.067823768E-1
4.086273906E0,1.166214347E0,1.146265221E1,-1.368544459E0
4.088263385E0,1.285988212E0,1.121831322E1,-7.648839355E-1
4.090252812E0,1.357852578E0,1.068651676E1,1.125112828E-2
4.092242239E0,1.396180272E0,1.008285618E1,6.676122546E-1
4.094231667E0,9.266664386E-1,9.311511993E0,1.472493052E0
4.096221094E0,5.673446655E-1,8.521004677E0,2.152808905E0
4.098210521E0,2.559324801E-1,7.893389225E0,2.746887684E0
4.100199948E0,1.026218459E-1,7.308892250E0,3.106209517E0
4.102189375E0,-1.800446212E-1,6.810632706E0,3.499068022E0
4.104178802E0,-2.950275838E-1,6.446519852E0,3.733824730E0
