"Time (s)","Gyroscope x (rad/s)","Gyroscope y (rad/s)","Gyroscope z (rad/s)"
9.202291700E-2,-1.353298068E0,-1.927240968E0,4.701515436E-1
9.443593800E-2,-1.362461090E0,-2.004209995E0,4.732058644E-1
9.684812500E-2,-1.363682747E0,-2.081179142E0,4.756493270E-1
9.925953200E-2,-1.356963277E0,-2.155093670E0,4.768710434E-1
1.016717710E-1,-1.346578598E0,-2.222288847E0,4.725950062E-1
1.040847400E-1,-1.323365688E0,-2.285207987E0,4.719841480E-1
1.064969800E-1,-1.286103010E0,-2.355457306E0,4.732058644E-1
1.089083860E-1,-1.239066362E0,-2.428150177E0,4.780927896E-1
1.113205730E-1,-1.179201603E0,-2.501453876E0,4.860340357E-1
1.137335940E-1,-1.108341336E0,-2.575368643E0,4.951969981E-1
1.161457820E-1,-1.033815861E0,-2.634622574E0,5.049708486E-1
1.185571880E-1,-9.599011540E-1,-2.678604841E0,5.171881318E-1
1.209694270E-1,-8.908734322E-1,-2.709758759E0,5.275728106E-1
1.233823960E-1,-8.273435235E-1,-2.722587109E0,5.330706239E-1
1.257946360E-1,-7.680896521E-1,-2.723197937E0,5.416226983E-1
1.282060420E-1,-7.131118178E-1,-2.719532728E0,5.507856607E-1
1.306182300E-1,-6.636317372E-1,-2.715256691E0,5.605595112E-1
1.330312500E-1,-6.159843206E-1,-2.715867519E0,5.703333616E-1
1.354434380E-1,-5.738346577E-1,-2.719532728E0,5.801072121E-1
1.378548960E-1,-5.384044647E-1,-2.728695631E0,5.911027789E-1
1.402670840E-1,-5.060286522E-1,-2.742134571E0,6.039308906E-1
1.426800520E-1,-4.822049737E-1,-2.754962921E0,6.143156290E-1
1.450922920E-1,-4.687659442E-1,-2.755573750E0,6.222568750E-1
1.475036980E-1,-4.638790190E-1,-2.750686884E0,6.289763451E-1
1.499159380E-1,-4.620464444E-1,-2.743967295E0,6.375284791E-1
1.523289070E-1,-4.638790190E-1,-2.741523743E0,6.436371207E-1
1.547410940E-1,-4.693768024E-1,-2.739691257E0,6.485240459E-1
1.571525520E-1,-4.791506529E-1,-2.736636877E0,6.521892548E-1
1.595647400E-1,-4.883136153E-1,-2.741523743E0,6.534109712E-1
1.619777610E-1,-5.005308986E-1,-2.748854160E0,6.491349339E-1
1.643899480E-1,-5.121372938E-1,-2.753130198E0,6.387501955E-1
1.668013550E-1,-5.292415023E-1,-2.756795406E0,6.253111959E-1
1.692135940E-1,-5.494000316E-1,-2.756184578E0,6.100395918E-1
1.716265630E-1,-5.726129413E-1,-2.756795406E0,5.929353833E-1
1.740388020E-1,-6.043778658E-1,-2.758628130E0,5.715550780E-1
1.764502090E-1,-6.434732080E-1,-2.759849787E0,5.471205115E-1
1.788623960E-1,-6.898989677E-1,-2.767791033E0,5.196315646E-1
1.812754170E-1,-7.467093468E-1,-2.784284353E0,4.829797149E-1
1.836876050E-1,-8.157370687E-1,-2.812384129E0,4.426626265E-1
1.860990110E-1,-8.982037902E-1,-2.863696814E0,4.011238217E-1
1.885112500E-1,-9.965530038E-1,-2.921728849E0,3.553089797E-1
1.909242190E-1,-1.100400090E0,-2.935168028E0,3.027746081E-1
1.933364590E-1,-1.195084095E0,-2.893018246E0,2.416881323E-1
1.957478650E-1,-1.286103010E0,-2.856977224E0,1.824342608E-1
1.981600520E-1,-1.380787015E0,-2.857588053E0,1.262347102E-1
2.005731250E-1,-1.476081848E0,-2.867362022E0,6.759169698E-2
2.029852610E-1,-1.557326913E0,-2.858198881E0,1.017040946E-2
2.053967190E-1,-1.620856881E0,-2.826433897E0,-4.358568788E-2
2.078089070E-1,-1.676445484E0,-2.787949562E0,-8.756794780E-2
2.102219800E-1,-1.726536393E0,-2.743967295E0,-1.229981035E-1
2.126341150E-1,-1.765631795E0,-2.690211296E0,-1.474326849E-1
2.150455210E-1,-1.792509794E0,-2.621183395E0,-1.682020873E-1
2.174577610E-1,-1.804727077E0,-2.541160107E0,-1.865280271E-1
2.198707820E-1,-1.800451040E0,-2.447087049E0,-2.036322355E-1
2.222829690E-1,-1.780292511E0,-2.342629194E0,-2.170712650E-1
2.246943750E-1,-1.749749303E0,-2.239392996E0,-2.237907797E-1
2.271065630E-1,-1.713097453E0,-2.135545969E0,-2.286776900E-1
2.295196360E-1,-1.672169447E0,-2.032920837E0,-2.335646152E-1
2.319317710E-1,-1.629408956E0,-1.922354102E0,-2.384515405E-1
2.343431770E-1,-1.581150651E0,-1.800181150E0,-2.402841151E-1
2.367554170E-1,-1.521896720E0,-1.674342990E0,-2.360080779E-1
2.391684380E-1,-1.456534266E0,-1.555835247E0,-2.286776900E-1
2.415806250E-1,-1.383230448E0,-1.449544787E0,-2.164604068E-1
2.439920320E-1,-1.302596331E0,-1.353639007E0,-2.048539668E-1
2.464042710E-1,-1.221351266E0,-1.264452815E0,-1.981344670E-1
2.488172920E-1,-1.135830283E0,-1.177710056E0,-1.987453252E-1
2.512294270E-1,-1.051530957E0,-1.084858537E0,-2.066865712E-1
2.536408860E-1,-9.696750045E-1,-9.785681367E-1,-2.225690484E-1
2.560530730E-1,-8.841539025E-1,-8.661689758E-1,-2.421167195E-1
2.584660940E-1,-7.986328602E-1,-7.598785162E-1,-2.634969950E-1
2.608782820E-1,-7.161661386E-1,-6.603075862E-1,-2.793794572E-1
2.632896880E-1,-6.336994171E-1,-5.680670142E-1,-2.879315615E-1
2.657019270E-1,-5.524543524E-1,-4.758264720E-1,-2.903750241E-1
2.681149480E-1,-4.693768024E-1,-3.854185045E-1,-2.836555243E-1
2.705271360E-1,-3.893535435E-1,-2.950105071E-1,-2.714382410E-1
2.729385420E-1,-3.105519712E-1,-2.039916664E-1,-2.512796819E-1
2.753507300E-1,-2.323612869E-1,-1.190814674E-1,-2.256233692E-1
2.777638020E-1,-1.590575129E-1,-4.333424196E-2,-1.950801313E-1
2.801759380E-1,-8.880807459E-2,1.897396334E-2,-1.590391248E-1
2.825873440E-1,-2.588900365E-2,6.906487048E-2,-1.211654991E-1
2.849995840E-1,2.786709182E-2,1.130471230E-1,-8.329189569E-2
2.874126050E-1,7.246021181E-2,1.496990174E-1,-4.358568788E-2
2.898247920E-1,1.078903675E-1,1.832965761E-1,-8.251552936E-4
2.922361980E-1,1.359901428E-1,2.120072097E-1,4.560056329E-2
2.946484380E-1,1.585921347E-1,2.401069850E-1,9.935665876E-2
2.970614590E-1,1.756963581E-1,2.749262750E-1,1.610540003E-1
2.994735940E-1,1.891353726E-1,3.066912293E-1,2.282491177E-1
3.018850520E-1,1.989092082E-1,3.305149674E-1,2.972768247E-1
3.042972400E-1,2.025744021E-1,3.378453255E-1,3.620284796E-1
3.067103130E-1,1.976874769E-1,3.225737214E-1,4.212823808E-1
3.091224480E-1,1.787506789E-1,2.889761627E-1,4.701515436E-1
3.115338550E-1,1.408770680E-1,2.419395894E-1,5.055816770E-1
3.139460940E-1,9.078615904E-2,1.894052178E-1,5.349032283E-1
3.163591150E-1,2.969968505E-2,1.393143088E-1,5.587269068E-1
3.187713020E-1,-4.177148640E-2,9.349946678E-2,5.788854361E-1
3.211827090E-1,-1.169078499E-1,4.768460244E-2,6.020983458E-1
3.235948960E-1,-1.914333403E-1,5.534937605E-3,6.314198375E-1
3.260079690E-1,-2.665697336E-1,-2.928435057E-2,6.674608588E-1
3.284201050E-1,-3.398734927E-1,-5.249721184E-2,7.065562010E-1
3.308315630E-1,-4.046251476E-1,-6.776882708E-2,7.480949759E-1
3.332437500E-1,-4.626573026E-1,-8.059698343E-2,7.920772433E-1
3.356567710E-1,-5.158025026E-1,-9.709033370E-2,8.366703987E-1
3.380689590E-1,-5.646716952E-1,-1.203031987E-1,8.806526661E-1
3.404803650E-1,-6.110973954E-1,-1.502355635E-1,9.240240455E-1
3.428926050E-1,-6.514144540E-1,-1.881091744E-1,9.588433504E-1
3.453056250E-1,-6.850120425E-1,-2.357566208E-1,9.875539541E-1
3.477178130E-1,-7.094466090E-1,-2.858475447E-1,1.010155916E0
3.501292190E-1,-7.192204595E-1,-3.383819163E-1,1.030925274E0
3.525414070E-1,-7.131118178E-1,-4.019118547E-1,1.055359840E0
3.549544800E-1,-6.911206841E-1,-4.581114054E-1,1.080405354E0
3.573666150E-1,-6.508036256E-1,-4.965958893E-1,1.104839921E0
3.597780730E-1,-5.903279781E-1,-5.240847468E-1,1.125609279E0
3.621902610E-1,-5.170242190E-1,-5.417998433E-1,1.140880942E0
3.646032820E-1,-4.333357811E-1,-5.509628057E-1,1.145767808E0
3.670154690E-1,-3.514799178E-1,-5.637909770E-1,1.139659166E0
3.694268750E-1,-2.818413377E-1,-5.833386183E-1,1.124387622E0
3.718391150E-1,-2.238091826E-1,-6.010537148E-1,1.103618145E0
3.742521360E-1,-1.743291318E-1,-6.059406400E-1,1.081016183E0
3.766642710E-1,-1.309577376E-1,-6.053297520E-1,1.057192445E0
3.790757300E-1,-9.308412671E-2,-6.028863192E-1,1.034590483E0
3.814879170E-1,-6.070829183E-2,-5.998319983E-1,1.015042901E0
3.839009900E-1,-3.688456863E-2,-5.967776775E-1,9.961060882E-1
3.863131250E-1,-1.855862699E-2,-5.876147151E-1,9.765583873E-1
3.887245320E-1,-5.119603593E-3,-5.760082603E-1,9.563998580E-1
3.911367710E-1,9.890433867E-4,-5.619583726E-1,9.319652915E-1
3.935497920E-1,4.043367226E-3,-5.460758805E-1,9.044763446E-1
3.959619800E-1,2.210772829E-3,-5.289716721E-1,8.739331365E-1
3.983733860E-1,2.210772829E-3,-5.100348592E-1,8.421681523E-1
4.007856250E-1,2.210772829E-3,-4.837677181E-1,8.067380190E-1
4.031986460E-1,9.541149251E-3,-4.556679428E-1,7.713078260E-1
4.056107820E-1,1.626066118E-2,-4.214595258E-1,7.334342599E-1
4.080222400E-1,2.908881940E-2,-3.817533255E-1,6.992258430E-1
4.104344270E-1,4.558217153E-2,-3.408253789E-1,6.662391424E-1
4.128475000E-1,6.329724193E-2,-2.968431115E-1,6.332524419E-1
4.152596360E-1,8.101232350E-2,-2.479739189E-1,6.014874578E-1
4.176710420E-1,9.628393501E-2,-1.991047412E-1,5.654464364E-1
4.200832820E-1,1.103338301E-1,-1.581768095E-1,5.257402062E-1
4.224963020E-1,1.170533374E-1,-1.282444298E-1,4.848122895E-1
4.249084900E-1,1.182750687E-1,-1.141945422E-1,4.408300519E-1
4.273198960E-1,1.146098822E-1,-1.129728109E-1,3.907391429E-1
4.297320840E-1,1.091120988E-1,-1.374074072E-1,3.375939131E-1
4.321451570E-1,1.017817184E-1,-1.758918911E-1,2.746748328E-1
4.345572920E-1,9.750566632E-2,-2.052133977E-1,1.946515590E-1
4.369687500E-1,1.121664196E-1,-1.911635101E-1,8.347417414E-2
4.393809380E-1,1.695877016E-1,-1.398508698E-1,-6.007903069E-2
4.417940110E-1,2.569413483E-1,-1.325204819E-1,-2.127952129E-1
4.442061460E-1,3.436841369E-1,-1.807788014E-1,-3.429093957E-1
4.466175520E-1,4.237074256E-1,-2.247610688E-1,-4.443129301E-1
4.490297920E-1,4.964003265E-1,-2.290371209E-1,-5.237253308E-1
4.514428130E-1,5.538216233E-1,-1.911635101E-1,-5.915313363E-1
4.538550000E-1,5.855866075E-1,-1.429051906E-1,-6.544504166E-1
4.562664070E-1,5.880300403E-1,-1.050315797E-1,-7.167586088E-1
4.586785940E-1,5.709258318E-1,-8.914908767E-2,-7.778450847E-1
4.610916670E-1,5.416043401E-1,-1.044207066E-1,-8.352663517E-1
4.635038020E-1,5.031198859E-1,-1.429051906E-1,-8.823029399E-1
4.659152610E-1,4.628027678E-1,-1.777244806E-1,-9.091809988E-1
4.683274480E-1,4.261508584E-1,-2.021590620E-1,-9.122353196E-1
4.707405210E-1,3.937750459E-1,-2.107111812E-1,-8.969637156E-1
4.731526570E-1,3.705621958E-1,-2.046025246E-1,-8.615335226E-1
4.755640630E-1,3.595666289E-1,-2.052133977E-1,-8.065557480E-1
4.779763020E-1,3.613992035E-1,-2.186524123E-1,-7.375280261E-1
4.803893230E-1,3.791143000E-1,-2.436978668E-1,-6.599481702E-1
4.828015110E-1,4.114901125E-1,-2.760737240E-1,-5.768705606E-1
4.852129170E-1,4.554723799E-1,-3.176125288E-1,-4.956255555E-1
4.876251570E-1,5.043416023E-1,-3.677034080E-1,-4.174349010E-1
4.900381770E-1,5.562651157E-1,-4.275681674E-1,-3.441311419E-1
4.924503130E-1,6.033016443E-1,-4.996502101E-1,-2.775468826E-1
4.948617710E-1,6.430078745E-1,-5.784516931E-1,-2.237907797E-1
4.972739590E-1,6.735511422E-1,-6.682488322E-1,-1.810302436E-1
4.996870320E-1,6.949313879E-1,-7.647654414E-1,-1.492652893E-1
5.020991670E-1,7.053160667E-1,-8.582277894E-1,-1.321610659E-1
5.045106250E-1,6.985965967E-1,-9.455814362E-1,-1.303284764E-1
5.069228130E-1,6.747728586E-1,-1.021939516E0,-1.456000954E-1
5.093358340E-1,6.381209493E-1,-1.081193328E0,-1.785867959E-1
5.117480210E-1,5.886409283E-1,-1.122121334E0,-2.280668318E-1
5.141594270E-1,5.306087732E-1,-1.147777677E0,-2.952619493E-1
5.165716670E-1,4.664679468E-1,-1.158773184E0,-3.783395588E-1
5.189846880E-1,4.108792543E-1,-1.166714430E0,-4.705801308E-1
5.213968750E-1,3.626209497E-1,-1.161827564E0,-5.652641654E-1
5.238082820E-1,3.223038614E-1,-1.139836431E0,-6.617807746E-1
5.262204690E-1,2.917606235E-1,-1.117845297E0,-7.534105182E-1
5.286335420E-1,2.709912360E-1,-1.102573633E0,-8.444293141E-1
5.310456770E-1,2.593848109E-1,-1.094632387E0,-9.311721325E-1
5.334571360E-1,2.544978857E-1,-1.097075820E0,-1.006308556E0
5.358693230E-1,2.544978857E-1,-1.114790916E0,-1.070449352E0
5.382823960E-1,2.612173855E-1,-1.153886318E0,-1.121151090E0
5.406945320E-1,2.758781612E-1,-1.215583682E0,-1.157192111E0
5.431059380E-1,2.948149443E-1,-1.296828628E0,-1.184681058E0
5.455181770E-1,3.241364658E-1,-1.398232222E0,-1.199341774E0
5.479311980E-1,3.601774871E-1,-1.510631323E0,-1.201174378E0
5.503433860E-1,4.029380083E-1,-1.635858536E0,-1.192011476E0
5.527547920E-1,4.463094175E-1,-1.769637942E0,-1.176739812E0
5.551669800E-1,4.902916551E-1,-1.908915043E0,-1.157192111E0
5.575800520E-1,5.367174149E-1,-2.051246643E0,-1.137033582E0
5.599921880E-1,5.880300403E-1,-2.191134691E0,-1.121762037E0
5.624036460E-1,6.448404789E-1,-2.328579187E0,-1.122983694E0
5.648158340E-1,7.028726339E-1,-2.458082676E0,-1.136422753E0
5.672289070E-1,7.621265054E-1,-2.576590300E0,-1.149250865E0
5.696410420E-1,8.232129812E-1,-2.688989401E0,-1.170631170E0
5.720524480E-1,8.879646063E-1,-2.794058084E0,-1.195676565E0
5.744646880E-1,9.441641569E-1,-2.883244514E0,-1.217056870E0
5.768777090E-1,9.991419911E-1,-2.961435080E0,-1.229884982E0
5.792898960E-1,1.047400236E0,-3.032906294E0,-1.242713213E0
5.817013020E-1,1.085884690E0,-3.098268747E0,-1.259817362E0
5.841134900E-1,1.120704055E0,-3.156911850E0,-1.281808496E0
5.865265630E-1,1.147582054E0,-3.205170155E0,-1.305632234E0
5.889386980E-1,1.164686322E0,-3.246708870E0,-1.334953785E0
5.913501570E-1,1.177514434E0,-3.278473854E0,-1.362442732E0
5.937623440E-1,1.186677456E0,-3.294356346E0,-1.388709903E0
5.961754170E-1,1.192786098E0,-3.291301966E0,-1.416198730E0
5.985875520E-1,1.192786098E0,-3.268089294E0,-1.441244245E0
6.009989590E-1,1.186677456E0,-3.230215549E0,-1.463846207E0
6.034111980E-1,1.179347038E0,-3.185622454E0,-1.484615564E0
6.058242190E-1,1.168351531E0,-3.137974977E0,-1.502330661E0
6.082364070E-1,1.154912472E0,-3.089716673E0,-1.520045757E0
6.106478130E-1,1.139029980E0,-3.048788786E0,-1.535928249E0
6.130600520E-1,1.121925712E0,-3.021299839E0,-1.562195420E0
6.154730730E-1,1.106043220E0,-3.004195690E0,-1.598236442E0
6.178852610E-1,1.084663033E0,-2.990756512E0,-1.630612254E0
6.202966670E-1,1.060839295E0,-2.993810892E0,-1.651992559E0
6.227088550E-1,1.032739520E0,-3.023132563E0,-1.671540260E0
6.251219270E-1,1.006472349E0,-3.089105844E0,-1.685590148E0
6.275340630E-1,9.795943499E-1,-3.189287663E0,-1.692309618E0
6.299455210E-1,9.478293657E-1,-3.316958427E0,-1.694753051E0
6.323577090E-1,9.178969860E-1,-3.462954998E0,-1.690477014E0
6.347707820E-1,8.855211735E-1,-3.611395121E0,-1.688644409E0
6.371829170E-1,8.549779654E-1,-3.764111280E0,-1.684979200E0
6.395943230E-1,8.280999064E-1,-3.917438507E0,-1.678870559E0
6.420065630E-1,8.067196012E-1,-4.063434601E0,-1.672761917E0
6.444195840E-1,7.890045643E-1,-4.192327499E0,-1.666653275E0
6.468317710E-1,7.773981094E-1,-4.297396183E0,-1.658712029E0
6.492431770E-1,7.712894678E-1,-4.381695271E0,-1.645273089E0
6.516554170E-1,7.700677514E-1,-4.445836067E0,-1.629390597E0
6.540684380E-1,7.755655050E-1,-4.498370647E0,-1.612286329E0
6.564805730E-1,7.859502435E-1,-4.542352676E0,-1.592738628E0
6.588920320E-1,8.018327355E-1,-4.578393936E0,-1.570747495E0
6.613042190E-1,8.195477724E-1,-4.606493473E0,-1.551199913E0
6.637172920E-1,8.397063017E-1,-4.634593487E0,-1.533484817E0
6.661294270E-1,8.610866070E-1,-4.660249710E0,-1.519434929E0
6.685408860E-1,8.818559647E-1,-4.683462620E0,-1.510271907E0
6.709530730E-1,8.995710611E-1,-4.703010082E0,-1.507828474E0
6.733660940E-1,9.160643816E-1,-4.717670918E0,-1.508439302E0
6.757782820E-1,9.301142693E-1,-4.724390507E0,-1.512104511E0
6.781896880E-1,9.398881197E-1,-4.718892574E0,-1.523100138E0
6.806019270E-1,9.453859329E-1,-4.703010082E0,-1.538982630E0
6.830149480E-1,9.441641569E-1,-4.676132202E0,-1.558530211E0
6.854271360E-1,9.392772913E-1,-4.642534733E0,-1.578688741E0
6.878385420E-1,9.319468737E-1,-4.608325958E0,-1.598236442E0
6.902507300E-1,9.178969860E-1,-4.569231033E0,-1.619616747E0
6.926638020E-1,9.007927775E-1,-4.527691841E0,-1.637331843E0
6.950759380E-1,8.781908154E-1,-4.487374783E0,-1.651381731E0
6.974873960E-1,8.543670774E-1,-4.450112343E0,-1.662988067E0
6.998995840E-1,8.280999064E-1,-4.412238598E0,-1.673983693E0
7.023126570E-1,8.024435639E-1,-4.369478226E0,-1.681924939E0
7.047247920E-1,7.749546766E-1,-4.313889503E0,-1.687422752E0
7.071361980E-1,7.468549013E-1,-4.247304916E0,-1.693531394E0
7.095484380E-1,7.193659544E-1,-4.175834179E0,-1.699640036E0
7.119614590E-1,6.918770671E-1,-4.096421719E0,-1.700250864E0
7.143736460E-1,6.656098962E-1,-4.010289669E0,-1.695974827E0
7.167850520E-1,6.423969865E-1,-3.917438507E0,-1.688644409E0
7.191972920E-1,6.252927780E-1,-3.828252077E0,-1.673372865E0
7.216103130E-1,6.149080992E-1,-3.743341923E0,-1.650159955E0
7.240225000E-1,6.075777411E-1,-3.662707806E0,-1.622060180E0
7.264339070E-1,6.045234203E-1,-3.590014935E0,-1.593349576E0
7.288460940E-1,6.063559651E-1,-3.529539347E0,-1.562195420E0
7.312591670E-1,6.087994576E-1,-3.475783110E0,-1.529819608E0
7.336713020E-1,6.142972112E-1,-3.422027111E0,-1.495000362E0
7.360827610E-1,6.259036660E-1,-3.371936321E0,-1.451628923E0
7.384949480E-1,6.430078745E-1,-3.321234465E0,-1.399094582E0
7.409080210E-1,6.649990082E-1,-3.271143436E0,-1.344727635E0
7.433201570E-1,6.894335747E-1,-3.219830990E0,-1.283641100E0
7.457315630E-1,7.126464844E-1,-3.161798716E0,-1.214613438E0
7.481438020E-1,7.401353717E-1,-3.093381882E0,-1.140698791E0
7.505568230E-1,7.688460350E-1,-3.018856287E0,-1.059453726E0
7.529690110E-1,7.951132059E-1,-2.943109274E0,-9.775978923E-1
7.553804170E-1,8.226020932E-1,-2.861253262E0,-8.994071484E-1
7.577926570E-1,8.549779654E-1,-2.770845413E0,-8.273251057E-1
7.602056770E-1,8.897972107E-1,-2.684102535E0,-7.619625926E-1
7.626178650E-1,9.252274036E-1,-2.601024866E0,-6.984326839E-1
7.650292710E-1,9.612684250E-1,-2.520390749E0,-6.391788125E-1
7.674414590E-1,9.966985583E-1,-2.440367460E0,-5.811466575E-1
7.698545320E-1,1.033350348E0,-2.368896246E0,-5.231145024E-1
7.722666670E-1,1.074278355E0,-2.309031487E0,-4.742453098E-1
7.746781250E-1,1.118871450E0,-2.258940697E0,-4.314847887E-1
7.770903130E-1,1.162853718E0,-2.220456123E0,-3.984980881E-1
7.795033860E-1,1.209890246E0,-2.195410728E0,-3.734526336E-1
7.819155210E-1,1.256926894E0,-2.175863028E0,-3.581810296E-1
7.843269270E-1,1.300909162E0,-2.155093670E0,-3.539049625E-1
7.867391670E-1,1.343058825E0,-2.126383066E0,-3.557375669E-1
7.891521880E-1,1.379099846E0,-2.081789970E0,-3.594027460E-1
7.915643750E-1,1.407199621E0,-2.013372898E0,-3.618462086E-1
7.939757820E-1,1.427358150E0,-1.919299841E0,-3.563484251E-1
7.963880210E-1,1.437742829E0,-1.801402926E0,-3.422985375E-1
7.988010420E-1,1.438353658E0,-1.667012691E0,-3.148096204E-1
8.012132300E-1,1.423692942E0,-1.539341927E0,-2.738816738E-1
8.036246360E-1,1.393760562E0,-1.456264377E0,-2.274559736E-1
8.060368230E-1,1.345502257E0,-1.442214489E0,-1.822519749E-1
8.084498960E-1,1.275863647E0,-1.485585809E0,-1.382697225E-1
8.108620320E-1,1.187288284E0,-1.554613590E0,-9.917438030E-2
8.132734900E-1,1.080997825E0,-1.630360723E0,-6.863114238E-2
8.156856770E-1,9.582141042E-1,-1.710384011E0,-4.358568788E-2
8.180987500E-1,8.207694888E-1,-1.786131263E0,-1.976196095E-2
8.205108860E-1,6.766054630E-1,-1.848439455E0,2.840033034E-3
8.229222920E-1,5.306087732E-1,-1.888756514E0,2.360943332E-2
8.253345320E-1,3.913315833E-1,-1.906471610E0,4.743316025E-2
8.277475520E-1,2.630499899E-1,-1.908304214E0,8.103071898E-2
8.301597400E-1,1.408770680E-1,-1.890589118E0,1.231803820E-1
8.325711460E-1,2.664536051E-2,-1.862489343E0,1.769364774E-1
8.349833860E-1,-7.964510471E-2,-1.813009381E0,2.361903489E-1
8.373964070E-1,-1.743291318E-1,-1.738483787E0,2.911681831E-1
8.398085940E-1,-2.616828084E-1,-1.656017065E0,3.492003381E-1
8.422200000E-1,-3.478147388E-1,-1.596152306E0,4.298344851E-1
8.446321880E-1,-4.284488857E-1,-1.555224419E0,5.312380195E-1
8.470452610E-1,-5.048069358E-1,-1.525292039E0,6.460806131E-1
8.494573960E-1,-5.726129413E-1,-1.511242151E0,7.719187140E-1
8.518688550E-1,-6.330885291E-1,-1.517961621E0,9.087524414E-1
8.542810420E-1,-6.837902665E-1,-1.544228792E0,1.054749012E0
8.566941150E-1,-7.265508175E-1,-1.585767627E0,1.203799963E0
8.591062500E-1,-7.625918388E-1,-1.644410610E0,1.355294466E0
8.615176570E-1,-7.894698977E-1,-1.715270996E0,1.509232402E0
8.639298960E-1,-8.102393150E-1,-1.786742091E0,1.659505129E0
8.663429170E-1,-8.218457103E-1,-1.845385194E0,1.796949625E0
8.687551050E-1,-8.267326355E-1,-1.878371835E0,1.913013935E0
8.711665110E-1,-8.255109191E-1,-1.887534857E0,2.009530783E0
8.735787500E-1,-8.224565983E-1,-1.877150178E0,2.084056139E0
8.759917710E-1,-8.151262403E-1,-1.858824134E0,2.133536339E0
8.784039590E-1,-8.041306734E-1,-1.833167911E0,2.162246943E0
8.808153650E-1,-7.906916142E-1,-1.808122396E0,2.181794643E0
8.832275520E-1,-7.790852189E-1,-1.794683337E0,2.187292337E0
8.856406250E-1,-7.668678761E-1,-1.800181150E0,2.190346718E0
8.880527610E-1,-7.552614808E-1,-1.827059269E0,2.198898792E0
8.904642190E-1,-7.412115932E-1,-1.872874022E0,2.223333359E0
8.928764070E-1,-7.283834219E-1,-1.928462744E0,2.258763552E0
8.952894800E-1,-7.118901014E-1,-1.997490525E0,2.305189133E0
8.977016150E-1,-6.923424006E-1,-2.078124762E0,2.357112646E0
9.001130730E-1,-6.685186625E-1,-2.155093670E0,2.409646988E0
9.025252610E-1,-6.385862827E-1,-2.219234467E0,2.457294464E0
9.049382820E-1,-6.080430746E-1,-2.272379637E0,2.498833418E0
9.073504690E-1,-5.738346577E-1,-2.312696695E0,2.531820059E0
9.097618750E-1,-5.335175991E-1,-2.343240023E0,2.560530663E0
9.121741150E-1,-4.925896823E-1,-2.356068134E0,2.586186886E0
9.145871360E-1,-4.510508776E-1,-2.356678963E0,2.624671459E0
9.169992710E-1,-4.150098562E-1,-2.363398552E0,2.670486212E0
9.194107300E-1,-3.808014095E-1,-2.368896246E0,2.717522860E0
9.218229170E-1,-3.514799178E-1,-2.353624821E0,2.757839918E0
9.242359900E-1,-3.282670677E-1,-2.309642553E0,2.782885551E0
9.266481250E-1,-3.136062920E-1,-2.233284473E0,2.795102835E0
9.290595840E-1,-3.038324714E-1,-2.123328686E0,2.796324492E0
9.314717710E-1,-2.989455462E-1,-1.988327503E0,2.792048454E0
9.338848440E-1,-2.983346879E-1,-1.835000396E0,2.783496380E0
9.362969800E-1,-2.989455462E-1,-1.673732162E0,2.776165962E0
9.387084380E-1,-3.050541878E-1,-1.508187771E0,2.764559507E0
9.411206250E-1,-3.123845756E-1,-1.344476104E0,2.750509501E0
9.435336460E-1,-3.276561797E-1,-1.184429526E0,2.733405352E0
9.459458340E-1,-3.459821343E-1,-1.026826382E0,2.718744755E0
9.483572400E-1,-3.643080890E-1,-8.814406395E-1,2.705305576E0
9.507694800E-1,-3.862991929E-1,-7.482721210E-1,2.693088293E0
9.531825000E-1,-4.095120728E-1,-6.297643781E-1,2.684536219E0
9.555946880E-1,-4.376118481E-1,-5.234738588E-1,2.675984144E0
9.580060940E-1,-4.681550860E-1,-4.318442047E-1,2.671097279E0
9.604182820E-1,-5.005308986E-1,-3.499883413E-1,2.672318935E0
9.628313550E-1,-5.365719199E-1,-2.772954404E-1,2.675984144E0
9.652434900E-1,-5.762780905E-1,-2.125437707E-1,2.680871010E0
9.676549480E-1,-6.196495295E-1,-1.539007574E-1,2.685757875E0
9.700671360E-1,-6.617991924E-1,-1.013663858E-1,2.694921017E0
9.724802090E-1,-7.033379674E-1,-5.371894315E-2,2.702862263E0
9.748923440E-1,-7.448767424E-1,-5.460625514E-3,2.712025166E0
9.773038020E-1,-7.864155769E-1,4.279768467E-2,2.721188068E0
9.797159900E-1,-8.261217475E-1,8.616907895E-2,2.734016180E0
9.821290630E-1,-8.633845448E-1,1.301513463E-1,2.749287844E0
9.845411980E-1,-8.988146782E-1,1.753553301E-1,2.765781164E0
9.869526050E-1,-9.354665875E-1,2.132289410E-1,2.786550522E0
9.893648440E-1,-9.684532285E-1,2.468265146E-1,2.811596155E0
9.917778650E-1,-1.002050877E0,2.761479914E-1,2.841528416E0
9.941900520E-1,-1.035037518E0,3.018043041E-1,2.876347780E0
9.966014590E-1,-1.063748240E0,3.225737214E-1,2.914221287E0
9.990136980E-1,-1.085739374E0,3.341801465E-1,2.952705860E0
1.001426719E0,-1.101621866E0,3.360127509E-1,2.989357710E0
1.003838907E0,-1.108341336E0,3.262389004E-1,3.024787903E0
1.006250313E0,-1.102232695E0,3.042477667E-1,3.057163715E0
1.008662500E0,-1.086961031E0,2.755371332E-1,3.083430767E0
1.011075573E0,-1.064359069E0,2.474373728E-1,3.099313259E0
1.013487709E0,-1.034426689E0,2.211701870E-1,3.109698057E0
1.015899167E0,-9.965530038E-1,1.961247325E-1,3.114584923E0
1.018311355E0,-9.519599080E-1,1.759661883E-1,3.113363266E0
1.020724427E0,-8.994255662E-1,1.631380320E-1,3.104200363E0
1.023136563E0,-8.420042396E-1,1.570293903E-1,3.084041834E0
1.025548021E0,-7.741982937E-1,1.539750695E-1,3.055330992E0
1.027960209E0,-7.008945346E-1,1.576402485E-1,3.019289970E0
1.030373230E0,-6.239255667E-1,1.674140841E-1,2.975307941E0
1.032785417E0,-5.439022779E-1,1.808531135E-1,2.924606085E0
1.035196823E0,-4.638790190E-1,2.089528888E-1,2.870849848E0
1.037609063E0,-3.856883347E-1,2.407178432E-1,2.818926573E0
1.040022084E0,-3.160497546E-1,2.706502080E-1,2.768224716E0
1.042434271E0,-2.531307042E-1,3.042477667E-1,2.724242449E0
1.044845677E0,-1.957093924E-1,3.402887881E-1,2.688201427E0
1.047257865E0,-1.505054086E-1,3.696103096E-1,2.664988518E0
1.049670938E0,-1.187404469E-1,3.952666223E-1,2.657047272E0
1.052083073E0,-1.034688279E-1,4.294750392E-1,2.658268929E0
1.054494532E0,-1.040796936E-1,4.673486650E-1,2.669264555E0
1.056906719E0,-1.242382228E-1,5.021679401E-1,2.685757875E0
1.059319792E0,-1.627227068E-1,5.369872451E-1,2.705916405E0
1.061731927E0,-2.164787948E-1,5.681413412E-1,2.726074934E0
1.064143386E0,-2.848956585E-1,5.986846089E-1,2.745622635E0
1.066555573E0,-3.606428802E-1,6.273952127E-1,2.763337851E0
1.068968646E0,-4.412770271E-1,6.573275924E-1,2.777998447E0
1.071380782E0,-5.206894279E-1,6.860382557E-1,2.793270111E0
1.073792188E0,-5.982692242E-1,7.141380310E-1,2.807320118E0
1.076204427E0,-6.734055877E-1,7.397943735E-1,2.818926573E0
1.078617448E0,-7.412115932E-1,7.599529028E-1,2.828089476E0
1.081029636E0,-8.022980690E-1,7.752245069E-1,2.832976341E0
1.083441042E0,-8.566650152E-1,7.917178273E-1,2.833587170E0
1.085853282E0,-9.018689990E-1,8.088220358E-1,2.831754684E0
1.088266302E0,-9.391317368E-1,8.204284906E-1,2.830532789E0
1.090678490E0,-9.684532285E-1,8.332566619E-1,2.829921961E0
1.093089896E0,-9.861683249E-1,8.595238328E-1,2.832976341E0
1.095502084E0,-9.825031161E-1,9.071713090E-1,2.848858833E0
1.097915157E0,-9.605120420E-1,9.542078376E-1,2.876958609E0
1.100327292E0,-9.360774159E-1,9.890271425E-1,2.911167145E0
1.102738750E0,-9.079776406E-1,1.018959522E0,2.950262308E0
1.105150938E0,-8.810995817E-1,1.045837522E0,2.983860016E0
1.107564011E0,-8.554432988E-1,1.065385222E0,3.006461859E0
1.109976146E0,-8.279543519E-1,1.070272207E0,3.020511866E0
1.112387605E0,-8.047415018E-1,1.061109185E0,3.025398731E0
1.114799792E0,-7.833612561E-1,1.036674619E0,3.028453112E0
1.117212813E0,-7.650353312E-1,1.002466202E0,3.030285597E0
1.119625000E0,-7.564831972E-1,9.627599716E-1,3.037616014E0
1.122036407E0,-7.577049136E-1,9.218320251E-1,3.048000813E0
1.124448646E0,-7.625918388E-1,8.845692873E-1,3.060218096E0
1.126861667E0,-7.662570477E-1,8.637998700E-1,3.065715790E0
1.129273855E0,-7.668678761E-1,8.589129448E-1,3.063272238E0
1.131685261E0,-7.589266300E-1,8.625781536E-1,3.056552887E0
1.134097500E0,-7.454876304E-1,8.784606457E-1,3.049833298E0
1.136510521E0,-7.259399891E-1,9.053387046E-1,3.044335604E0
1.138922657E0,-6.996727586E-1,9.450448751E-1,3.045557261E0
1.141334115E0,-6.715729833E-1,1.004909635E0,3.046168089E0
1.143746302E0,-6.446949840E-1,1.086154699E0,3.043724775E0
1.146159375E0,-6.196495295E-1,1.181449533E0,3.038226843E0
1.148571511E0,-5.988801122E-1,1.280409575E0,3.027231216E0
1.150982969E0,-5.811650157E-1,1.373261094E0,3.009516239E0
1.153395157E0,-5.671151280E-1,1.452062607E0,2.987525225E0
1.155808230E0,-5.591738820E-1,1.514370799E0,2.961868763E0
1.158220365E0,-5.524543524E-1,1.549190044E0,2.936823368E0
1.160631771E0,-5.518435240E-1,1.569959521E0,2.910556078E0
1.163044011E0,-5.573412776E-1,1.584620237E0,2.881234646E0
1.165457032E0,-5.689477324E-1,1.590728879E0,2.849469662E0
1.167869219E0,-5.805541873E-1,1.587063670E0,2.812817812E0
1.170280625E0,-5.903279781E-1,1.565072536E0,2.771889925E0
1.172692865E0,-6.031561494E-1,1.543081403E0,2.731572866E0
1.175105886E0,-6.141517162E-1,1.527199030E0,2.691255808E0
1.177518073E0,-6.251472831E-1,1.511316538E0,2.652160406E0
1.179929480E0,-6.330885291E-1,1.501542687E0,2.616730213E0
1.182341667E0,-6.367537379E-1,1.505818725E0,2.584354401E0
1.184754740E0,-6.367537379E-1,1.519257784E0,2.553200245E0
1.187166875E0,-6.343102455E-1,1.534529328E0,2.522046089E0
1.189578334E0,-6.312559247E-1,1.556520462E0,2.487837791E0
1.191990521E0,-6.214820743E-1,1.580955029E0,2.450575113E0
1.194403594E0,-6.074321866E-1,1.604167938E0,2.415755749E0
1.196815730E0,-5.927714705E-1,1.634100318E0,2.379714727E0
1.199227188E0,-5.781106949E-1,1.667697906E0,2.346728086E0
1.201639375E0,-5.610064864E-1,1.707404017E0,2.316184759E0
1.204052396E0,-5.439022779E-1,1.751386285E0,2.286252499E0
1.206464584E0,-5.243545771E-1,1.792925119E0,2.262428761E0
1.208875990E0,-5.066395402E-1,1.827744365E0,2.241659403E0
1.211288230E0,-4.925896823E-1,1.858287692E0,2.221500874E0
1.213701250E0,-4.815941155E-1,1.890052676E0,2.199509621E0
1.216113438E0,-4.730420113E-1,1.924871922E0,2.175075054E0
1.218524844E0,-4.657116234E-1,1.955415130E0,2.149418831E0
1.220937084E0,-4.620464444E-1,1.981071353E0,2.126205921E0
1.223350105E0,-4.632681608E-1,2.001229763E0,2.104825497E0
1.225762292E0,-4.760963321E-1,2.012225389E0,2.084056139E0
1.228173698E0,-5.017526150E-1,2.001229763E0,2.061454296E0
1.230585886E0,-5.402370691E-1,1.993288636E0,2.035797834E0
1.232998959E0,-5.939931870E-1,1.988401771E0,2.010752439E0
1.235411094E0,-6.544687748E-1,1.991456151E0,1.986928582E0
1.237822552E0,-7.094466090E-1,2.005506039E0,1.960050583E0
1.240234740E0,-7.772526145E-1,1.998786569E0,1.930118203E0
1.242647813E0,-8.609410524E-1,1.958469510E0,1.889190197E0
1.245059948E0,-9.556251168E-1,1.889441729E0,1.843986273E0
1.247471407E0,-1.075354695E0,1.805142403E0,1.798171401E0
1.249883594E0,-1.206079721E0,1.719621301E0,1.747469664E0
1.252296615E0,-1.367958784E0,1.602946162E0,1.688215733E0
1.254708802E0,-1.538390160E0,1.500931740E0,1.627129316E0
1.257120209E0,-1.701490998E0,1.424573660E0,1.567264557E0
1.259532448E0,-1.851152897E0,1.375704527E0,1.503734589E0
1.261945469E0,-1.992262602E0,1.329278827E0,1.443869829E0
1.264357657E0,-2.108937740E0,1.292626977E0,1.389502883E0
1.266769063E0,-2.213395596E0,1.245590329E0,1.336357713E0
1.269181302E0,-2.316631794E0,1.168621421E0,1.284434199E0
1.271594323E0,-2.404596329E0,1.073937297E0,1.234343290E0
1.274006511E0,-2.488895655E0,9.401579499E-1,1.186695814E0
1.276417917E0,-2.561588526E0,7.953830361E-1,1.146989584E0
1.278830105E0,-2.628172874E0,6.420559883E-1,1.116446376E0
1.281243177E0,-2.703919888E0,4.746790230E-1,1.096898675E0
1.283655313E0,-2.761952162E0,3.182976544E-1,1.090179205E0
1.286066771E0,-2.816930056E0,1.606945693E-1,1.095677018E0
1.288478959E0,-2.869464397E0,1.347617991E-2,1.112781167E0
1.290892032E0,-2.906727076E0,-1.019772440E-1,1.135994077E0
1.293304167E0,-2.898175001E0,-1.490138322E-1,1.160428643E0
1.295715625E0,-2.725300312E0,-4.238897935E-3,1.206243515E0
1.298127813E0,-2.358170509E0,3.219628334E-1,1.292375445E0
1.300540834E0,-1.994706035E0,5.113309622E-1,1.379729033E0
1.302953021E0,-1.748527527E0,4.991135895E-1,1.426765680E0
1.305364427E0,-1.545720458E0,5.595892668E-1,1.416380882E0
1.307776667E0,-1.342913389E0,7.562876940E-1,1.363235712E0
1.310189688E0,-1.158432245E0,9.792532921E-1,1.295429707E0
1.312601875E0,-9.806705713E-1,1.206495047E0,1.237397552E0
1.315013282E0,-7.980219722E-1,1.428238869E0,1.204410911E0
1.317425521E0,-6.251472831E-1,1.631045938E0,1.216628194E0
1.319838542E0,-4.486074150E-1,1.910822034E0,1.260610461E0
1.322250730E0,-2.506872416E-1,2.271232128E0,1.292375445E0
1.324662136E0,-6.498435140E-2,2.637140036E0,1.324751258E0
1.327074323E0,1.133881509E-1,2.943183184E0,1.369344354E0
1.329487396E0,2.367828190E-1,3.020152330E0,1.412715793E0
1.331899532E0,2.868737280E-1,2.853386164E0,1.413326621E0
1.334310990E0,2.465566546E-1,2.500306368E0,1.336968541E0
1.336723177E0,1.262163073E-1,2.060483694E0,1.201356530E0
1.339136250E0,-4.238234833E-2,1.645706773E0,1.017486334E0
1.341548386E0,-2.293069512E-1,1.314007163E0,7.994076014E-1
1.343959844E0,-4.034034312E-1,1.075159073E0,5.801072121E-1
1.346372032E0,-5.377936363E-1,9.175559878E-1,3.944043219E-1
1.348785105E0,-6.117082834E-1,8.100438118E-1,2.636792660E-1
1.351197240E0,-6.282016039E-1,7.324639559E-1,2.093123049E-1
1.353608646E0,-5.866628289E-1,6.842056513E-1,2.160318196E-1
1.356020886E0,-5.182459354E-1,6.011280417E-1,2.435207367E-1
1.358433907E0,-4.162315726E-1,5.137743950E-1,2.893355787E-1
1.360846094E0,-2.665697336E-1,4.759007394E-1,3.473677337E-1
1.363257500E0,-6.864953786E-2,5.015571117E-1,4.273910224E-1
1.365669740E0,1.708094329E-1,6.182322502E-1,5.495639443E-1
1.368082761E0,4.566940963E-1,8.418087363E-1,7.206060886E-1
1.370494948E0,7.596830130E-1,1.185725570E0,9.197480083E-1
1.372906355E0,1.068780541E0,1.591950655E0,1.131717920E0
1.375318542E0,1.317402482E0,1.856455088E0,1.338801146E0
1.377731615E0,1.437742829E0,1.919374108E0,1.530612588E0
1.380143750E0,1.422471166E0,1.847292066E0,1.704098225E0
1.382555209E0,1.285026670E0,1.701295376E0,1.844597101E0
1.384967396E0,1.073667407E0,1.587674618E0,1.934394240E0
1.387380469E0,8.604757190E-1,1.571181178E0,1.980209112E0
1.389792605E0,6.955422163E-1,1.598670125E0,1.986928582E0
1.392204063E0,6.094103456E-1,1.729395151E0,1.969824433E0
1.394616250E0,5.361065269E-1,1.862563729E0,1.949665785E0
1.397029323E0,4.481419921E-1,1.886387467E0,1.916679144E0
1.399441459E0,3.235256076E-1,1.861341953E0,1.866588235E0
1.401852865E0,1.420987993E-1,1.788649082E0,1.809166908E0
1.404265105E0,-9.797104448E-2,1.609665751E0,1.746247888E0
1.406678125E0,-3.606428802E-1,1.431904078E0,1.672944069E0
1.409090313E0,-5.646716952E-1,1.357989430E0,1.593531728E0
1.411501719E0,-6.477493048E-1,1.402582526E0,1.520838857E0
1.413913959E0,-6.251472831E-1,1.473442912E0,1.467693567E0
1.416326980E0,-5.237437487E-1,1.496655703E0,1.438372016E0
1.418739167E0,-3.661406636E-1,1.493601441E0,1.435317755E0
1.421150573E0,-1.547814608E-1,1.516203403E0,1.460974097E0
1.423562761E0,6.329724193E-2,1.538194537E0,1.502512813E0
1.425975834E0,2.819868028E-1,1.579733372E0,1.545884252E0
1.428387969E0,5.238892436E-1,1.700073719E0,1.589866519E0
1.430799427E0,7.376919389E-1,1.829576969E0,1.635681391E0
1.433211615E0,8.818559647E-1,1.857676744E0,1.682717919E0
1.435624688E0,8.952950239E-1,1.751997232E0,1.718148112E0
1.438036823E0,7.804524302E-1,1.549190044E0,1.713261247E0
1.440448282E0,5.611519814E-1,1.323781013E0,1.665613770E0
1.442860469E0,2.948149443E-1,1.159458399E0,1.603305578E0
1.445273542E0,3.031055070E-2,1.076380849E0,1.547106028E0
1.447685677E0,-1.914333403E-1,1.037285447E0,1.498847723E0
1.450097084E0,-3.502582014E-1,1.025068164E0,1.459141493E0
1.452509323E0,-4.479965568E-1,1.022013903E0,1.416380882E0
1.454922344E0,-4.693768024E-1,1.018959522E0,1.371176958E0
1.457334532E0,-4.424987733E-1,9.951357841E-1,1.319253445E0
1.459745938E0,-3.734710515E-1,9.584839344E-1,1.257556081E0
1.462158177E0,-2.800087333E-1,9.126690626E-1,1.190971851E0
1.464571198E0,-1.688313484E-1,8.564695120E-1,1.116446376E0
1.466983386E0,-4.299321398E-2,8.045459986E-1,1.029092669E0
1.469394792E0,8.712096512E-2,7.391834855E-1,9.295217991E-1
1.471806980E0,2.092939168E-1,6.347256303E-1,8.342269063E-1
1.474220052E0,3.100865781E-1,4.844528735E-1,7.578688264E-1
1.476632188E0,3.907207251E-1,3.225737214E-1,6.943389177E-1
1.479043646E0,4.463094175E-1,1.826857030E-1,6.381393671E-1
1.481455834E0,4.768526554E-1,7.211919129E-2,5.849941373E-1
1.483868907E0,4.750200510E-1,-1.034754422E-2,5.336814523E-1
1.486281042E0,4.463094175E-1,-8.181871474E-2,4.854231477E-1
1.488692500E0,3.962185085E-1,-1.459595114E-1,4.353322685E-1
1.491104688E0,3.345211744E-1,-1.984938830E-1,3.834087551E-1
1.493517761E0,2.691586316E-1,-2.412544042E-1,3.308743834E-1
1.495929896E0,2.013526708E-1,-2.803497612E-1,2.777291536E-1
1.498341355E0,1.335466802E-1,-3.139473200E-1,2.288599759E-1
1.500753542E0,6.635156274E-2,-3.402145207E-1,1.873211861E-1
1.503166563E0,-9.395657107E-3,-3.628165126E-1,1.525018960E-1
1.505578750E0,-1.089666113E-1,-3.994683921E-1,1.213477850E-1
1.507990157E0,-2.378590703E-1,-4.703286886E-1,8.591763675E-2
1.510402396E0,-3.826340139E-1,-5.460758805E-1,5.476353317E-2
1.512815417E0,-5.261871815E-1,-6.120492816E-1,4.498969764E-2
1.515227605E0,-6.508036256E-1,-6.822987199E-1,6.270477921E-2
1.517639011E0,-7.387681007E-1,-7.433851957E-1,9.935665876E-2
1.520051198E0,-7.790852189E-1,-7.733175755E-1,1.470040977E-1
1.522464271E0,-7.741982937E-1,-7.678197622E-1,1.915972382E-1
1.524876459E0,-7.344920635E-1,-7.220049500E-1,2.141992301E-1
1.527287865E0,-6.709621549E-1,-6.523663402E-1,2.154209614E-1
1.529700052E0,-5.842193365E-1,-5.589040518E-1,1.946515590E-1
1.532113125E0,-4.828158319E-1,-4.654417932E-1,1.586105376E-1
1.534525261E0,-3.753036559E-1,-4.092422128E-1,1.231803820E-1
1.536936719E0,-2.793978751E-1,-3.829750419E-1,8.347417414E-2
1.539348907E0,-2.048723698E-1,-3.786989748E-1,4.498969764E-2
1.541761980E0,-1.523379982E-1,-3.915271461E-1,1.322473399E-2
1.544174115E0,-1.205730364E-1,-4.074096382E-1,-1.304244995E-2
1.546585573E0,-8.636461198E-2,-4.049661756E-1,-4.175309092E-2
1.548997761E0,-2.405641042E-2,-3.481557667E-1,-7.596151531E-2
1.551410782E0,6.024292484E-2,-2.669107318E-1,-9.734178334E-2
1.553822969E0,1.463748515E-1,-1.905526370E-1,-1.077264845E-1
1.556234375E0,2.257872522E-1,-1.172488630E-1,-1.077264845E-1
1.558646615E0,2.838194072E-1,-5.982758850E-2,-9.367659688E-2
1.561059636E0,3.168060780E-1,-3.844732419E-2,-6.191162765E-2
1.563471823E0,3.113082945E-1,-4.638856277E-2,-2.220541984E-2
1.565883230E0,2.874845862E-1,-4.699942842E-2,2.360943332E-2
1.568295469E0,2.569413483E-1,-4.238897935E-3,6.148304790E-2
1.570708490E0,2.245655358E-1,5.318238586E-2,9.202627838E-2
1.573120677E0,1.921896935E-1,8.372563124E-2,1.201260611E-1
1.575532084E0,1.653116494E-1,1.051058918E-1,1.415063143E-1
1.577944271E0,1.366010159E-1,1.350382566E-1,1.561670750E-1
1.580357344E0,1.207185239E-1,1.649706215E-1,1.702169627E-1
1.582769480E0,1.121664196E-1,1.857400239E-1,1.787690669E-1
1.585180938E0,1.103338301E-1,1.912378073E-1,1.854885817E-1
1.587593125E0,1.109446883E-1,1.826857030E-1,1.897646338E-1
1.590006198E0,1.146098822E-1,1.686358154E-1,1.940406859E-1
1.592418334E0,1.188859344E-1,1.484772861E-1,2.025927901E-1
1.594829792E0,1.298815012E-1,1.332056671E-1,2.111449093E-1
1.597241980E0,1.414879262E-1,1.270970106E-1,2.160318196E-1
1.599655052E0,1.543160826E-1,1.313730627E-1,2.178644091E-1
1.602067188E0,1.647007912E-1,1.429795027E-1,2.178644091E-1
1.604478594E0,1.671442389E-1,1.460338235E-1,2.166426778E-1
1.606890834E0,1.628681868E-1,1.387034506E-1,2.062579840E-1
1.609303855E0,1.518726200E-1,1.313730627E-1,1.885429025E-1
1.611716042E0,1.372118741E-1,1.228209585E-1,1.757147461E-1
1.614127448E0,1.164424717E-1,1.124362648E-1,1.671626419E-1
1.616539688E0,8.467750996E-2,9.044513106E-2,1.586105376E-1
1.618952709E0,3.580833599E-2,5.196065456E-2,1.457823813E-1
1.621364844E0,-9.395657107E-3,2.019569091E-2,1.335650831E-1
1.623776302E0,-4.360407963E-2,1.103272103E-2,1.097413599E-1
1.626188490E0,-1.144643873E-1,-5.921672285E-2,7.858725637E-2
1.628601563E0,-3.612537682E-1,-3.829750419E-1,7.003515214E-2
1.631013698E0,-6.062104702E-1,-7.501047254E-1,4.865489155E-2
1.633425157E0,-7.082248926E-1,-7.446069121E-1,2.840033034E-3
1.635837344E0,-6.801251173E-1,-5.827277899E-1,-4.490343854E-3
1.638250417E0,-6.019344330E-1,-4.617765844E-1,-9.377263486E-3
1.640662552E0,-4.999200404E-1,-3.609839082E-1,-3.564444184E-2
1.643074011E0,-3.948513269E-1,-3.200559616E-1,-5.274865776E-2
1.645486198E0,-3.136062920E-1,-3.829750419E-1,-4.114222527E-2
1.647899271E0,-2.506872416E-1,-4.978176057E-1,-2.281628549E-2
1.650311407E0,-1.975419968E-1,-5.802842975E-1,-2.281628549E-2
1.652722813E0,-1.608901173E-1,-6.407599449E-1,-2.770320326E-2
1.655135052E0,-1.297360063E-1,-6.939051747E-1,-2.281628549E-2
1.657548073E0,-9.674931318E-2,-7.250592709E-1,-1.731850207E-2
1.659960261E0,-6.681694090E-2,-7.262809873E-1,-3.197925538E-2
1.662371667E0,-2.344554476E-2,-7.049007416E-1,-8.329189569E-2
1.664783907E0,3.580833599E-2,-6.853530407E-1,-1.523196101E-1
1.667196927E0,9.872739762E-2,-6.994029284E-1,-1.956910044E-1
1.669609115E0,1.695877016E-1,-7.384982705E-1,-2.207364589E-1
1.672020521E0,2.551087439E-1,-7.659872174E-1,-2.628861070E-1
1.674432709E0,3.552905619E-1,-7.714849710E-1,-3.203074038E-1
1.676845782E0,4.628027678E-1,-7.782045007E-1,-3.716200292E-1
1.679257917E0,5.660389066E-1,-7.898108959E-1,-4.052175879E-1
1.681669375E0,6.582794785E-1,-8.124129176E-1,-4.259870052E-1
1.684081563E0,7.352484465E-1,-8.539516926E-1,-4.479781389E-1
1.686494636E0,7.969458103E-1,-9.138164520E-1,-4.687475264E-1
1.688906771E0,8.445932269E-1,-9.773463607E-1,-4.852408767E-1
1.691318230E0,8.745256066E-1,-1.042098045E0,-4.992907643E-1
1.693730417E0,8.897972107E-1,-1.112347484E0,-5.053994060E-1
1.696143490E0,8.849102855E-1,-1.180764318E0,-5.096754432E-1
1.698555625E0,8.653626442E-1,-1.240629077E0,-5.163949728E-1
1.700967032E0,8.348193765E-1,-1.291330814E0,-5.200601816E-1
1.703379271E0,7.865610719E-1,-1.317597985E0,-5.261688232E-1
1.705792292E0,7.236420512E-1,-1.310267687E0,-5.273905396E-1
1.708204480E0,6.454513669E-1,-1.265674591E0,-5.280014277E-1
1.710615886E0,5.495455861E-1,-1.179542661E0,-5.383861065E-1
1.713028125E0,4.402007759E-1,-1.050039291E0,-5.493816733E-1
1.715441146E0,3.180278242E-1,-8.649472594E-1,-5.603772402E-1
1.717853334E0,1.732528955E-1,-6.267100573E-1,-5.909204483E-1
1.720264740E0,1.931498386E-2,-3.683142960E-1,-6.489526033E-1
1.722676980E0,-1.358446628E-1,-1.086967587E-1,-7.448583841E-1
1.725090000E0,-2.897825837E-1,1.215992272E-1,-8.670313358E-1
1.727502188E0,-4.431096315E-1,3.030260503E-1,-9.794304967E-1
1.729913594E0,-5.915496945E-1,4.746790230E-1,-1.075947165E0
1.732325782E0,-7.625918388E-1,6.628254056E-1,-1.184681058E0
1.734738855E0,-1.050920010E0,8.069894910E-1,-1.326401711E0
1.737150990E0,-1.505403399E0,8.405870199E-1,-1.473620057E0
1.739562448E0,-1.972104073E0,8.839583993E-1,-1.578688741E0
1.741974636E0,-2.273260355E0,1.046448469E0,-1.610453725E0
1.744387709E0,-2.393600702E0,1.280409575E0,-1.551810741E0
1.746799844E0,-2.443080664E0,1.420908570E0,-1.425972581E0
1.749211302E0,-2.499280214E0,1.372039318E0,-1.314184308E0
1.751623490E0,-2.550592899E0,1.191223383E0,-1.233550191E0
1.754036511E0,-2.580525398E0,9.450448751E-1,-1.171241999E0
1.756448698E0,-2.565864563E0,6.866491437E-1,-1.104657769E0
1.758860105E0,-2.499280214E0,4.484118521E-1,-1.019747615E0
1.761272344E0,-2.392379045E0,2.327766269E-1,-9.232308865E-1
1.763685365E0,-2.248825788E0,4.707373679E-2,-8.316012025E-1
1.766097552E0,-2.066177130E0,-1.062533110E-1,-7.509670258E-1
1.768508959E0,-1.843211651E0,-2.265936583E-1,-6.843827963E-1
1.770921198E0,-1.609861255E0,-3.402145207E-1,-6.349027157E-1
1.773334219E0,-1.368569732E0,-4.410071969E-1,-6.025269032E-1
1.775746355E0,-1.129110694E0,-5.424107313E-1,-5.762597322E-1
1.778157813E0,-9.128645658E-1,-6.768009663E-1,-5.481599569E-1
1.780570000E0,-5.927714705E-1,-7.299461961E-1,-5.035668015E-1
1.782983073E0,-3.685841262E-1,-8.136346340E-1,-4.663040638E-1
1.785395209E0,-1.706639379E-1,-8.515082598E-1,-4.522541761E-1
1.787806667E0,1.198460814E-2,-8.502865434E-1,-4.687475264E-1
1.790218855E0,1.659225225E-1,-8.777754307E-1,-5.041776896E-1
1.792631927E0,2.862628400E-1,-9.871202111E-1,-5.432730317E-1
1.795044063E0,3.723947704E-1,-1.170990467E0,-5.890879035E-1
1.797455521E0,4.334812462E-1,-1.373797536E0,-6.287940741E-1
1.799867709E0,4.774635136E-1,-1.518572569E0,-6.416222453E-1
1.802280782E0,4.976220429E-1,-1.585767627E0,-6.440656781E-1
1.804692917E0,5.128936768E-1,-1.570496082E0,-6.495634913E-1
1.807104323E0,5.202240944E-1,-1.489251018E0,-6.507852077E-1
1.809516563E0,5.080067515E-1,-1.353639007E0,-6.489526033E-1
1.811929584E0,4.811286926E-1,-1.194814205E0,-6.489526033E-1
1.814341771E0,4.603593051E-1,-1.045763254E0,-6.410113573E-1
1.816753177E0,4.463094175E-1,-9.345858693E-1,-6.184093952E-1
1.819165417E0,4.243182838E-1,-8.655581474E-1,-5.848118067E-1
1.821578438E0,3.840011954E-1,-8.295171261E-1,-5.444947481E-1
1.823990625E0,3.296342492E-1,-7.953087091E-1,-4.968473315E-1
1.826402032E0,2.593848109E-1,-7.458286285E-1,-4.394260347E-1
1.828814219E0,2.007418126E-1,-6.865747571E-1,-3.734526336E-1
1.831227292E0,1.592030078E-1,-6.432033777E-1,-2.989271283E-1
1.833639427E0,1.078903675E-1,-6.193796396E-1,-2.250125110E-1
1.836050886E0,4.863649234E-2,-5.815060735E-1,-1.535413414E-1
1.838463073E0,-9.395657107E-3,-5.246956348E-1,-8.207016438E-2
1.840876146E0,-6.131915748E-2,-4.684961140E-1,-8.766397834E-3
1.843288282E0,-1.034688279E-1,-4.275681674E-1,6.087218225E-2
1.845699740E0,-1.370663792E-1,-4.208486676E-1,1.280672997E-1
1.848111927E0,-1.645552963E-1,-4.397854507E-1,1.922080964E-1
1.850525000E0,-1.847138405E-1,-4.825460017E-1,2.477967888E-1
1.852937136E0,-2.024289072E-1,-5.350803137E-1,2.881138623E-1
1.855348542E0,-2.128136158E-1,-5.979993939E-1,3.198788166E-1
1.857760782E0,-2.128136158E-1,-6.676379442E-1,3.449242711E-1
1.860173855E0,-1.944876760E-1,-7.384982705E-1,3.601959050E-1
1.862585990E0,-1.590575129E-1,-8.215758801E-1,3.644719422E-1
1.864997396E0,-1.199621707E-1,-9.064860940E-1,3.595850170E-1
1.867409636E0,-7.231472433E-2,-9.944505692E-1,3.522546589E-1
1.869822657E0,-2.039122209E-2,-1.077528238E0,3.382047713E-1
1.872234844E0,3.214314580E-2,-1.147777677E0,3.223222792E-1
1.874646250E0,8.101232350E-2,-1.207031488E0,3.046072125E-1
1.877058490E0,1.182750687E-1,-1.268118024E0,2.868921161E-1
1.879471511E0,1.537052244E-1,-1.331647873E0,2.697879374E-1
1.881883698E0,1.811941415E-1,-1.395788670E0,2.514619827E-1
1.884295105E0,2.019635290E-1,-1.446490526E0,2.343577594E-1
1.886707292E0,2.178460211E-1,-1.471535921E0,2.190861404E-1
1.889120365E0,2.276198566E-1,-1.468481660E0,2.056471258E-1
1.891532500E0,2.245655358E-1,-1.431829691E0,2.013710737E-1
1.893943959E0,2.154025584E-1,-1.351806402E0,2.062579840E-1
1.896356146E0,2.025744021E-1,-1.230244398E0,2.135883570E-1
1.898769219E0,1.848593205E-1,-1.101351976E0,2.221404612E-1
1.901181355E0,1.628681868E-1,-9.895637035E-1,2.416881323E-1
1.903592813E0,1.396553367E-1,-9.022099972E-1,2.740639746E-1
1.906005000E0,1.194968000E-1,-8.441779017E-1,3.174353540E-1
1.908418073E0,9.933826327E-2,-8.044716716E-1,3.730240464E-1
1.910830209E0,7.856886089E-2,-7.623220086E-1,4.518255889E-1
1.913241615E0,5.169081688E-2,-7.030681372E-1,5.630030036E-1
1.915653855E0,1.198460814E-2,-6.438142657E-1,7.083888054E-1
1.918066875E0,-3.566283733E-2,-5.918907523E-1,8.843178153E-1
1.920479063E0,-1.083557457E-1,-5.906690359E-1,1.088957429E0
1.922890469E0,-1.993745863E-1,-7.256700993E-1,1.329638124E0
1.925302709E0,-2.470220327E-1,-8.814406395E-1,1.494571567E0
1.927715730E0,-2.439677119E-1,-9.327532649E-1,1.583147049E0
1.930127917E0,-2.170896679E-1,-9.327532649E-1,1.667446375E0
1.932539323E0,-1.914333403E-1,-9.516900778E-1,1.753578305E0
1.934951511E0,-1.767725945E-1,-9.950614572E-1,1.831158042E0
1.937364584E0,-1.663878858E-1,-1.037822008E0,1.895909786E0
1.939776719E0,-1.498945504E-1,-1.025604725E0,1.946000695E0
1.942188177E0,-1.309577376E-1,-9.474140406E-1,1.987539411E0
1.944600365E0,-1.028579623E-1,-8.557842970E-1,2.011363268E0
1.947013438E0,-7.842337340E-2,-7.904217839E-1,2.024191618E0
1.949425573E0,-6.803867221E-2,-7.556024790E-1,2.021748066E0
1.951837032E0,-7.292558998E-2,-7.476612329E-1,2.020526409E0
1.954249219E0,-8.331029117E-2,-7.342222333E-1,2.017472029E0
1.956662292E0,-8.880807459E-2,-6.853530407E-1,1.995480657E0
1.959074427E0,-9.797104448E-2,-6.352621317E-1,1.956996202E0
1.961485834E0,-1.107992008E-1,-6.047189236E-1,1.938670278E0
1.963898073E0,-1.309577376E-1,-5.949450731E-1,1.946000695E0
1.966311094E0,-1.553923339E-1,-5.943341851E-1,1.985095978E0
1.968723282E0,-1.676096171E-1,-5.912798643E-1,2.043128252E0
1.971134688E0,-1.749400049E-1,-5.821169019E-1,2.110934258E0
1.973546927E0,-1.841029674E-1,-6.028863192E-1,2.186681509E0
1.975959948E0,-1.841029674E-1,-6.639727950E-1,2.277700424E0
1.978372136E0,-1.694422215E-1,-7.611002922E-1,2.387045145E0
1.980783542E0,-1.425641626E-1,-8.557842970E-1,2.498222589E0
1.983195730E0,-1.040796936E-1,-9.156490564E-1,2.603902102E0
1.985608802E0,-5.337791517E-2,-9.406945109E-1,2.686979771E0
1.988020990E0,1.259547286E-2,-9.639073610E-1,2.746844530E0
1.990432396E0,1.017817184E-1,-9.852876067E-1,2.792659283E0
1.992844584E0,2.178460211E-1,-9.657399654E-1,2.829921961E0
1.995257657E0,1.488182992E-1,-1.032324195E0,2.864741325E0
1.997669792E0,2.135699689E-1,-1.067754388E0,2.912388802E0
2.000081250E0,5.348848104E-1,-9.260337353E-1,2.960036278E0
2.002493438E0,5.831431150E-1,-9.981157780E-1,2.994244576E0
2.004906511E0,6.136863828E-1,-1.096464992E0,3.024787903E0
2.007318646E0,6.423969865E-1,-1.163049221E0,3.029063940E0
2.009730052E0,6.387318373E-1,-1.177099109E0,2.984470844E0
2.012142292E0,6.045234203E-1,-1.182596922E0,2.898949623E0
2.014555365E0,5.532107353E-1,-1.214361906E0,2.770057201E0
2.016967500E0,4.725765884E-1,-1.241239905E0,2.612454176E0
2.019378907E0,3.852229416E-1,-1.230855227E0,2.445077181E0
2.021791146E0,2.813759446E-1,-1.198479414E0,2.291750193E0
2.024204167E0,1.665333807E-1,-1.163049221E0,2.160414219E0
2.026616355E0,4.741476476E-2,-1.117845297E0,2.052901983E0
2.029027761E0,-7.475818694E-2,-1.057369709E0,1.964326620E0
2.031440000E0,-2.030397803E-1,-9.791789651E-1,1.889801145E0
2.033853021E0,-3.307105303E-1,-8.759428263E-1,1.836045027E0
2.036265157E0,-4.589920938E-1,-7.501047254E-1,1.801836610E0
2.038676615E0,-5.878845453E-1,-6.114383936E-1,1.777402043E0
2.041088802E0,-7.247182131E-1,-4.715504348E-1,1.766406417E0
2.043501875E0,-8.493346572E-1,-3.286080658E-1,1.774347663E0
2.045914011E0,-9.641771913E-1,-1.710049659E-1,1.807945251E0
2.048325469E0,-1.060083032E0,2.569347434E-2,1.870253444E0
2.050737657E0,-1.135219336E0,2.596546412E-1,1.960050583E0
2.053150730E0,-1.206079721E0,5.040005445E-1,2.074893236E0
2.055562865E0,-1.273274779E0,7.312422395E-1,2.203785658E0
2.057974323E0,-1.339859009E0,9.242755175E-1,2.322904348E0
2.060386511E0,-1.408886790E0,1.071493864E0,2.416366577E0
2.062799584E0,-1.478525400E0,1.162512779E0,2.465235710E0
2.065211719E0,-1.549996495E0,1.192445159E0,2.464014053E0
2.067623177E0,-1.605585217E0,1.176562667E0,2.420642614E0
2.070035365E0,-1.639793634E0,1.139299870E0,2.360777855E0
2.072448386E0,-1.670336843E0,1.061720014E0,2.291750193E0
2.074860573E0,-1.695382357E0,9.493209720E-1,2.211116076E0
2.077271980E0,-1.714930058E0,8.027133942E-1,2.114599466E0
2.079684219E0,-1.727147341E0,6.273952127E-1,2.004033089E0
2.082097240E0,-1.733255982E0,4.526878893E-1,1.880027294E0
2.084509427E0,-1.735699415E0,3.060803711E-1,1.763962984E0
2.086920834E0,-1.732034206E0,1.918486804E-1,1.672333241E0
2.089333021E0,-1.735088587E0,1.038841605E-1,1.592920899E0
2.091746094E0,-1.738142848E0,3.241298348E-2,1.514119267E0
2.094158282E0,-1.738142848E0,-3.050608002E-2,1.439593792E0
2.096569688E0,-1.728979945E0,-9.464687109E-2,1.369955182E0
2.098981875E0,-1.711875677E0,-1.532898843E-1,1.305814385E0
2.101394948E0,-1.683775902E0,-1.978830099E-1,1.266108274E0
2.103807084E0,-1.650178313E0,-2.333131731E-1,1.241673589E0
2.106218542E0,-1.607417822E0,-2.656890154E-1,1.222736835E0
2.108630730E0,-1.559770346E0,-2.937887907E-1,1.211130381E0
2.111043802E0,-1.509679437E0,-3.145581782E-1,1.203189135E0
2.113455938E0,-1.458977699E0,-3.292189538E-1,1.200745702E0
2.115867344E0,-1.408886790E0,-3.432688415E-1,1.202578306E0
2.118279584E0,-1.358795881E0,-3.640382290E-1,1.211130381E0
2.120692605E0,-1.311148405E0,-3.817533255E-1,1.223347664E0
2.123104792E0,-1.271442175E0,-3.835859001E-1,1.238008380E0
2.125516198E0,-1.240288138E0,-3.646490872E-1,1.253280044E0
2.127928438E0,-1.215242624E0,-3.237211704E-1,1.265497327E0
2.130341459E0,-1.201192737E0,-2.638564110E-1,1.275271177E0
2.132753646E0,-1.191418886E0,-2.039916664E-1,1.281379819E0
2.135165052E0,-1.187753797E0,-1.490138322E-1,1.281379819E0
2.137577292E0,-1.188364625E0,-9.586860240E-2,1.277103782E0
2.139990313E0,-1.193251491E0,-2.745175548E-2,1.263664722E0
2.142402500E0,-1.200581908E0,7.089745998E-2,1.244727969E0
2.144813907E0,-1.212799191E0,2.052876949E-1,1.223347664E0
2.147226094E0,-1.228681684E0,3.616690636E-1,1.204410911E0
2.149639167E0,-1.244564176E0,5.247699618E-1,1.189139247E0
2.152051302E0,-1.263500929E0,6.787078977E-1,1.181198001E0
2.154462761E0,-1.285492063E0,8.112655282E-1,1.183030605E0
2.156874948E0,-1.308094144E0,9.248863459E-1,1.197080493E0
2.159288021E0,-1.332528710E0,1.024457335E0,1.218460798E0
2.161700157E0,-1.355741501E0,1.115476131E0,1.243506193E0
2.164111563E0,-1.378343582E0,1.188779950E0,1.261221290E0
2.166523802E0,-1.403999805E0,1.230929613E0,1.269162536E0
2.168936823E0,-1.429656148E0,1.228486180E0,1.272216916E0
2.171349011E0,-1.459588528E0,1.186336398E0,1.262443066E0
2.173760417E0,-1.497462153E0,1.119752169E0,1.252669215E0
2.176172657E0,-1.531670570E0,1.032398582E0,1.238008380E0
2.178585677E0,-1.556716084E0,9.389362335E-1,1.211130381E0
2.180997865E0,-1.571376801E0,8.454739451E-1,1.185474038E0
2.183409271E0,-1.573820233E0,7.489573359E-1,1.187306643E0
2.185821511E0,-1.565878987E0,6.408342719E-1,1.197691321E0
2.188234532E0,-1.545109630E0,5.382089615E-1,1.201356530E0
2.190646719E0,-1.518842459E0,4.704029858E-1,1.206854343E0
2.193058125E0,-1.489520907E0,4.319185019E-1,1.221515059E0
2.195470313E0,-1.455312490E0,4.007644057E-1,1.238008380E0
2.197883386E0,-1.411330223E0,3.738863468E-1,1.253890872E0
2.200295521E0,-1.361850142E0,3.531169593E-1,1.267329931E0
2.202706980E0,-1.305039763E0,3.457865715E-1,1.281990647E0
2.205119167E0,-1.234790325E0,3.543386757E-1,1.304592729E0
2.207532240E0,-1.155377865E0,3.799949884E-1,1.336357713E0
2.209944375E0,-1.075354695E0,4.172577560E-1,1.368733525E0
2.212355834E0,-9.880009294E-1,4.563530982E-1,1.397444129E0
2.214768021E0,-8.957603574E-1,4.856745899E-1,1.420657039E0
2.217181094E0,-7.980219722E-1,5.027788281E-1,1.434706926E0
2.219593230E0,-7.027270794E-1,5.235482454E-1,1.435317755E0
2.222004636E0,-6.080430746E-1,5.705848336E-1,1.430430770E0
2.224416875E0,-5.176351070E-1,6.292278171E-1,1.426154733E0
2.226829896E0,-4.131772518E-1,7.037533522E-1,1.409661412E0
2.229242084E0,-3.062759340E-1,8.057677150E-1,1.382783413E0
2.231653490E0,-2.048723698E-1,9.206103086E-1,1.345520616E0
2.234065730E0,-1.071340144E-1,1.044005036E0,1.285045028E0
2.236478750E0,-1.489343960E-2,1.173508286E0,1.203799963E0
2.238890938E0,7.612539828E-2,1.301789880E0,1.112170339E0
2.241302344E0,1.689768434E-1,1.417854190E0,1.012599349E0
2.243714584E0,2.636608481E-1,1.528420687E0,9.179154038E-1
2.246127605E0,3.559014201E-1,1.640819788E0,8.354486227E-1
2.248539792E0,4.426442087E-1,1.731838703E0,7.682535052E-1
2.250951198E0,5.153371692E-1,1.794757724E0,7.065562010E-1
2.253363386E0,5.782561898E-1,1.825300932E0,6.442480087E-1
2.255776459E0,6.234602332E-1,1.814305425E0,6.137047410E-1
2.258188594E0,6.521708369E-1,1.782540441E0,6.075960994E-1
2.260600052E0,6.711076498E-1,1.719621301E0,6.137047410E-1
2.263012240E0,6.943204999E-1,1.662200093E0,6.399719119E-1
2.265425313E0,7.169225216E-1,1.626769900E0,6.729586124E-1
2.267837448E0,7.285289168E-1,1.551633596E0,6.918954253E-1
2.270248907E0,7.273072004E-1,1.418465018E0,6.876193881E-1
2.272661094E0,7.211985588E-1,1.269414067E0,6.680716872E-1
2.275074167E0,7.053160667E-1,1.123417377E0,6.540217996E-1
2.277486302E0,6.741619706E-1,9.615382552E-1,6.479131579E-1
2.279897709E0,6.344558001E-1,8.192067742E-1,6.509674788E-1
2.282309948E0,5.892517567E-1,6.952012181E-1,6.680716872E-1
2.284722969E0,5.501564145E-1,6.115127802E-1,6.827324629E-1
2.287135157E0,5.177806020E-1,5.656979084E-1,6.955606341E-1
2.289546563E0,5.018981099E-1,5.724174380E-1,6.955606341E-1
2.291958802E0,4.964003265E-1,5.736391544E-1,6.912845969E-1
2.294371823E0,5.171697736E-1,4.789550602E-1,6.986149549E-1
2.296784011E0,5.477129817E-1,2.718719542E-1,7.206060886E-1
2.299195417E0,5.721475482E-1,9.105600417E-2,7.627557516E-1
2.301607657E0,5.892517567E-1,3.974336386E-2,8.152900934E-1
2.304020677E0,6.533925533E-1,-3.294954076E-2,8.476659656E-1
2.306432813E0,7.566286922E-1,-2.180415541E-1,8.354486227E-1
2.308844271E0,8.659734726E-1,-3.982466459E-1,8.085706234E-1
2.311256459E0,9.753183126E-1,-5.460758805E-1,8.299508691E-1
2.313669532E0,1.076721787E0,-7.073441744E-1,8.659918904E-1
2.316081667E0,1.150025487E0,-8.710559011E-1,8.659918904E-1
2.318493125E0,1.195229530E0,-1.123343110E0,7.994076014E-1
2.320905313E0,1.211112022E0,-1.415336370E0,6.918954253E-1
2.323318386E0,1.184233904E0,-1.635858536E0,5.801072121E-1
2.325730521E0,1.129256129E0,-1.831335306E0,4.585451186E-1
2.328141927E0,1.059006691E0,-1.970612407E0,3.314852417E-1
2.330554167E0,9.887573123E-1,-2.034753323E0,2.135883570E-1
2.332967188E0,9.166752696E-1,-2.040862083E0,1.158500090E-1
2.335379375E0,8.482584357E-1,-1.963281989E0,3.949191794E-2
2.337790782E0,7.951132059E-1,-1.805068135E0,-1.059899107E-2
2.340203021E0,7.499092221E-1,-1.590043664E0,-4.053135961E-2
2.342616042E0,7.157008052E-1,-1.326150179E0,-5.702470988E-2
2.345028230E0,6.851575375E-1,-1.044541478E0,-6.068989635E-2
2.347439636E0,6.478947997E-1,-7.501047254E-1,-5.335952342E-2
2.349851875E0,6.118537784E-1,-4.556679428E-1,-3.869877011E-2
2.352264896E0,5.800887942E-1,-1.673397869E-1,-1.731850207E-2
2.354677084E0,5.379391313E-1,9.838637710E-2,1.078127418E-2
2.357088490E0,4.933460057E-1,3.262389004E-1,3.765932471E-2
2.359500677E0,4.328703880E-1,4.911724031E-1,5.659613013E-2
2.361913750E0,3.644535244E-1,5.913541913E-1,7.064601779E-2
2.364325886E0,2.929823697E-1,6.451103091E-1,8.713936806E-2
2.366737344E0,2.160134166E-1,6.567167640E-1,1.011892557E-1
2.369149532E0,1.317140907E-1,6.194540262E-1,1.079087630E-1
2.371562605E0,4.802562669E-2,5.583675504E-1,1.115739495E-1
2.373974740E0,-4.054975510E-2,4.594074190E-1,1.176825985E-1
2.376386198E0,-1.138535291E-1,3.262389004E-1,1.323433518E-1
2.378798386E0,-1.847138405E-1,1.704684049E-1,1.482258290E-1
2.381211407E0,-2.525198460E-1,9.200127795E-3,1.702169627E-1
2.383623594E0,-3.136062920E-1,-1.355748177E-1,1.940406859E-1
2.386035000E0,-3.667515218E-1,-2.705759108E-1,2.129774988E-1
2.388447240E0,-3.979056478E-1,-4.281790257E-1,2.270273864E-1
2.390860261E0,-4.107337892E-1,-5.845603943E-1,2.673444748E-1
2.393272448E0,-4.302814603E-1,-6.749683619E-1,3.302635252E-1
2.395683855E0,-4.418878853E-1,-7.073441744E-1,4.066216052E-1
2.398096094E0,-4.351683855E-1,-6.438142657E-1,5.123012066E-1
2.400509115E0,-4.284488857E-1,-5.973885059E-1,6.124830246E-1
2.402921302E0,-4.082903266E-1,-5.747865438E-1,6.863976717E-1
2.405332709E0,-3.612537682E-1,-5.815060735E-1,7.108322382E-1
2.407744896E0,-2.855065167E-1,-5.466867685E-1,7.633666396E-1
2.410157969E0,-1.419533044E-1,-3.634273708E-1,8.598832488E-1
2.412570105E0,2.664536051E-2,-2.382000834E-1,9.252457619E-1
2.414981563E0,1.451531202E-1,-1.917743683E-1,9.447934031E-1
2.417393750E0,2.667151690E-1,-5.982758850E-2,9.967168570E-1
2.419806823E0,4.011054337E-1,1.215992272E-1,1.046196938E0
2.422218959E0,4.768526554E-1,1.936812699E-1,1.019929767E0
2.424630417E0,5.312196612E-1,2.877544165E-1,9.948843122E-1
2.427042605E0,5.904735327E-1,4.691812396E-1,1.005879879E0
2.429455677E0,6.045234203E-1,5.394307375E-1,9.906082749E-1
2.431867813E0,5.513781905E-1,5.730282664E-1,9.954952002E-1
2.434279271E0,4.982329011E-1,6.823730469E-1,1.031536222E0
2.436691459E0,4.353138506E-1,7.129163146E-1,1.090179205E0
2.439104480E0,3.375754952E-1,6.524406672E-1,1.245338798E0
2.441516667E0,2.630499899E-1,6.640471220E-1,1.595364332E0
2.443928073E0,1.543160826E-1,6.713774800E-1,2.005865574E0
2.446340313E0,7.708555087E-3,6.664905548E-1,2.339397669E0
2.448753334E0,-1.199621707E-1,6.408342719E-1,2.574580669E0
2.451165521E0,-2.054832280E-1,5.540914536E-1,2.725464106E0
2.453576927E0,-2.659588456E-1,3.940448761E-1,2.785939693E0
2.455989115E0,-3.184932172E-1,2.138398141E-1,2.747455359E0
2.458402188E0,-3.801905513E-1,3.668903559E-2,2.614286661E0
2.460814323E0,-4.223402143E-1,-1.422943175E-1,2.393764496E0
2.463225782E0,-4.363901019E-1,-3.206668496E-1,2.104214668E0
2.465637969E0,-4.198967516E-1,-5.069805384E-1,1.762741208E0
2.468051042E0,-3.649189472E-1,-6.939051747E-1,1.386448622E0
2.470463177E0,-2.684023082E-1,-8.618929386E-1,9.979386330E-1
2.472874636E0,-1.309577376E-1,-1.001170039E0,6.283655167E-1
2.475286823E0,4.069525376E-2,-1.108682275E0,2.942225039E-1
2.477699896E0,2.318959087E-1,-1.177099109E0,3.450896824E-3
2.480112032E0,4.402007759E-1,-1.211307526E0,-2.415058613E-1
2.482523438E0,6.515600085E-1,-1.214361906E0,-4.449238181E-1
2.484935677E0,8.458149433E-1,-1.207642436E0,-6.092464328E-1
2.487348698E0,9.905899167E-1,-1.146555901E0,-7.253107429E-1
2.489760886E0,1.036404729E0,-9.492465854E-1,-7.815102935E-1
2.492172292E0,9.899790287E-1,-6.584749818E-1,-7.827320099E-1
2.494584532E0,8.702495694E-1,-3.475448787E-1,-7.363062501E-1
2.496997552E0,6.949313879E-1,-6.104931980E-2,-6.538395286E-1
2.499409740E0,4.927351177E-1,1.826857030E-1,-5.512142777E-1
2.501821146E0,2.935932279E-1,3.677777052E-1,-4.308739305E-1
2.504233334E0,9.811653197E-2,5.229373574E-1,-3.032031953E-1
2.506646407E0,-8.392115682E-2,6.585493088E-1,-1.785867959E-1
2.509058542E0,-2.378590703E-1,7.776679397E-1,-7.046373188E-2
2.511470000E0,-3.478147388E-1,8.760171533E-1,1.627905667E-2
2.513882188E0,-4.125663936E-1,9.456557631E-1,7.736553252E-2
2.516295261E0,-4.455530941E-1,9.639816880E-1,1.048544422E-1
2.518707396E0,-4.693768024E-1,9.004517794E-1,1.060761735E-1
2.521118855E0,-4.913679361E-1,7.703375816E-1,9.874579310E-2
2.523531042E0,-5.151916146E-1,6.102910042E-1,9.446974099E-2
2.525944115E0,-5.316849947E-1,4.380271435E-1,9.752406180E-2
2.528356250E0,-5.402370691E-1,2.712610662E-1,1.048544422E-1
2.530767657E0,-5.402370691E-1,1.234318316E-1,1.170717329E-1
2.533179896E0,-5.255763531E-1,2.480614698E-3,1.298998892E-1
2.535592917E0,-4.919787943E-1,-8.792735636E-2,1.427280456E-1
2.538005105E0,-4.412770271E-1,-1.447377801E-1,1.567779481E-1
2.540416511E0,-3.856883347E-1,-1.783353388E-1,1.677735150E-1
2.542828750E0,-3.313213885E-1,-1.893309057E-1,1.732712835E-1
2.545241771E0,-2.812304795E-1,-1.789462119E-1,1.714386940E-1
2.547653959E0,-2.427459806E-1,-1.526790261E-1,1.610540003E-1
2.550065365E0,-2.152570635E-1,-1.099184901E-1,1.445606500E-1
2.552477605E0,-2.036506385E-1,-5.310807750E-2,1.189043298E-1
2.554890625E0,-2.073158324E-1,1.347617991E-2,8.836109191E-2
2.557302813E0,-2.225874513E-1,7.578438520E-2,6.087218225E-2
2.559714219E0,-2.476329058E-1,1.295404732E-1,4.071364552E-2
2.562126407E0,-2.793978751E-1,1.716901362E-1,2.849635296E-2
2.564539480E0,-3.197149634E-1,2.034551054E-1,2.299856953E-2
2.566951615E0,-3.643080890E-1,2.254462391E-1,2.299856953E-2
2.569363073E0,-4.058468640E-1,2.401069850E-1,2.544202842E-2
2.571775261E0,-4.455530941E-1,2.480482310E-1,2.849635296E-2
2.574188334E0,-4.815941155E-1,2.486590892E-1,3.338327259E-2
2.576600469E0,-5.133590102E-1,2.443830520E-1,3.888105229E-2
2.579011927E0,-5.445131660E-1,2.382743806E-1,4.498969764E-2
2.581424115E0,-5.750563741E-1,2.339983433E-1,5.354180932E-2
2.583837188E0,-6.013235450E-1,2.285005599E-1,6.209391356E-2
2.586249323E0,-6.269798875E-1,2.278897017E-1,6.881342083E-2
2.588660730E0,-6.459167004E-1,2.272788435E-1,7.370033860E-2
2.591072969E0,-6.569122672E-1,2.254462391E-1,8.041985333E-2
2.593485990E0,-6.605774164E-1,2.156724036E-1,8.897195756E-2
2.595898177E0,-6.556904912E-1,1.967355907E-1,9.813492745E-2
2.598309584E0,-6.398080587E-1,1.759661883E-1,1.054653078E-1
2.600721823E0,-6.153734326E-1,1.533641964E-1,1.134065464E-1
2.603134844E0,-5.872736573E-1,1.325947940E-1,1.182934642E-1
2.605547032E0,-5.530652404E-1,1.161014587E-1,1.201260611E-1
2.607958438E0,-5.145807862E-1,9.960810840E-2,1.189043298E-1
2.610370625E0,-4.736528695E-1,8.616907895E-2,1.140174121E-1
2.612783698E0,-4.290597439E-1,7.761697471E-2,1.085196286E-1
2.615195834E0,-3.869100809E-1,7.517351210E-2,9.813492745E-2
2.617607292E0,-3.441495299E-1,8.128216863E-2,8.897195756E-2
2.620019480E0,-3.032216132E-1,9.227773547E-2,7.919812202E-2
2.622432552E0,-2.629045248E-1,1.020515561E-1,7.003515214E-2
2.624844688E0,-2.225874513E-1,1.099928021E-1,6.026131660E-2
2.627256146E0,-1.792160571E-1,1.130471230E-1,5.170921236E-2
2.629668334E0,-1.315685958E-1,1.081602126E-1,4.437883571E-2
2.632081355E0,-8.147769421E-2,9.960810840E-2,3.765932471E-2
2.634493542E0,-4.116062075E-2,8.739081025E-2,3.277240694E-2
2.636904948E0,-5.704310164E-2,7.517351210E-2,3.277240694E-2
2.639317188E0,-1.547814608E-1,5.990189314E-2,4.682229459E-2
2.641730209E0,-3.044433296E-1,4.768460244E-2,6.575910002E-2
2.644142396E0,-4.467748106E-1,3.607817367E-2,8.408503979E-2
2.646553802E0,-5.591738820E-1,3.058039211E-2,1.005783901E-1
2.648966042E0,-6.630209088E-1,4.279768467E-2,1.103522256E-1
2.651379063E0,-7.760308981E-1,7.028660178E-2,1.164608747E-1
2.653791250E0,-8.951494694E-1,1.106036752E-1,1.305107623E-1
2.656202657E0,-1.002661705E0,1.576402485E-1,1.451715082E-1
2.658614896E0,-1.085739374E0,2.168941349E-1,1.476149708E-1
2.661027917E0,-1.153545380E0,2.785914540E-1,1.451715082E-1
2.663440052E0,-1.222573042E0,3.482300341E-1,1.347868145E-1
2.665851511E0,-1.285492063E0,4.245881140E-1,1.164608747E-1
2.668263698E0,-1.334972143E0,5.052223206E-1,8.958282322E-2
2.670676771E0,-1.370402336E0,5.950194001E-1,5.720699579E-2
2.673088907E0,-1.390560865E0,6.872599721E-1,3.032894619E-2
2.675500365E0,-1.390560865E0,7.825548649E-1,1.618303591E-3
2.677912552E0,-1.363071918E0,8.772389293E-1,-2.709233761E-2
2.680325625E0,-1.308704972E0,9.755880833E-1,-5.335952342E-2
2.682737761E0,-1.226849079E0,1.078213453E0,-7.657238096E-2
2.685149167E0,-1.113228202E0,1.180838704E0,-9.428745508E-2
2.687561407E0,-9.684532285E-1,1.277355313E0,-1.089482158E-1
2.689974427E0,-7.851938605E-1,1.352491617E0,-1.211654991E-1
2.692386615E0,-5.658934116E-1,1.391587019E0,-1.272741556E-1
2.694798021E0,-3.264344633E-1,1.377537131E0,-1.278850138E-1
2.697210261E0,-8.697547764E-2,1.312785506E0,-1.223872304E-1
2.699623282E0,1.366010159E-1,1.230318666E0,-1.156677306E-1
2.702035469E0,3.455167413E-1,1.170454025E0,-1.034504324E-1
2.704446875E0,5.623737574E-1,1.138689041E0,-7.901583612E-2
2.706859063E0,7.584612966E-1,1.140521646E0,-4.541827738E-2
2.709272136E0,8.867428899E-1,1.185725570E0,-2.046884736E-3
2.711684271E0,9.881464243E-1,1.202829838E0,5.659613013E-2
2.714095730E0,1.134143114E0,1.170454025E0,1.176825985E-1
2.716507917E0,1.317402482E0,1.117308736E0,1.653300524E-1
2.718920990E0,1.508603096E0,1.047059298E0,2.038145214E-1
2.721333125E0,1.685753942E0,9.768098593E-1,2.337469012E-1
2.723744584E0,1.842135310E0,9.193885922E-1,2.545163035E-1
2.726156771E0,1.977136374E0,8.668541908E-1,2.624575496E-1
2.728569844E0,2.107861519E0,8.265371323E-1,2.581814826E-1
2.730981980E0,2.233699560E0,8.063786030E-1,2.453533262E-1
2.733393386E0,2.343044281E0,8.027133942E-1,2.288599759E-1
2.735805625E0,2.427343607E0,8.228719234E-1,2.080905735E-1
2.738218646E0,2.485986710E0,8.595238328E-1,1.854885817E-1
2.740630834E0,2.504312515E0,9.254972339E-1,1.598322690E-1
2.743042240E0,2.476212740E0,1.032398582E0,1.268455684E-1
2.745454480E0,2.413904667E0,1.138689041E0,8.897195756E-2
2.747867500E0,2.321053267E0,1.239481688E0,4.865489155E-2
2.750279688E0,2.198880196E0,1.333554864E0,7.726950571E-3
2.752691094E0,2.053494453E0,1.421519399E0,-3.747703880E-2
2.755103282E0,1.889171839E0,1.499099135E0,-8.878967166E-2
2.757516355E0,1.711410165E0,1.564461708E0,-1.394914538E-1
2.759928542E0,1.529983401E0,1.618217826E0,-1.810302436E-1
2.762339948E0,1.358941317E0,1.654258847E0,-2.127952129E-1
2.764752136E0,1.195229530E0,1.675028205E0,-2.427275777E-1
2.767165209E0,1.035182953E0,1.677471638E0,-2.702164948E-1
2.769577344E0,8.806342483E-1,1.666476130E0,-2.977054119E-1
2.771988802E0,7.370810509E-1,1.659145713E0,-3.239725828E-1
2.774400990E0,6.008582115E-1,1.661589265E0,-3.471854627E-1
2.776814063E0,4.707439840E-1,1.675639153E0,-3.679548502E-1
2.779226198E0,3.430732787E-1,1.710458398E0,-3.887242675E-1
2.781637657E0,2.221220732E-1,1.770323157E0,-4.101045132E-1
2.784049844E0,1.115555540E-1,1.847292066E0,-4.296521842E-1
2.786462917E0,8.319419809E-3,1.938310981E0,-4.473672807E-1
2.788875052E0,-8.025597036E-2,2.036659956E0,-4.638606012E-1
2.791286459E0,-1.553923339E-1,2.133787632E0,-4.760779142E-1
2.793698698E0,-2.134244740E-1,2.220530272E0,-4.870734811E-1
2.796111719E0,-2.470220327E-1,2.281616688E0,-4.907386899E-1
2.798523907E0,-2.506872416E-1,2.306051254E0,-4.791322351E-1
2.800935313E0,-2.335830182E-1,2.288947105E0,-4.565302432E-1
2.803347500E0,-2.054832280E-1,2.229082346E0,-4.290413260E-1
2.805760573E0,-1.706639379E-1,2.136230946E0,-3.966654837E-1
2.808172709E0,-1.382881105E-1,2.015890598E0,-3.594027460E-1
2.810584167E0,-1.120209321E-1,1.869894028E0,-3.154204786E-1
2.812996355E0,-9.308412671E-2,1.698851943E0,-2.689947784E-1
2.815409427E0,-8.453202248E-2,1.507040381E0,-2.256233692E-1
2.817821563E0,-8.697547764E-2,1.293848634E0,-1.883606315E-1
2.820233021E0,-9.858191013E-2,1.063552618E0,-1.572065204E-1
2.822645209E0,-1.193513125E-1,8.265371323E-1,-1.315502077E-1
2.825058282E0,-1.498945504E-1,5.901324749E-1,-1.095590740E-1
2.827470417E0,-1.883790195E-1,3.635016382E-1,-8.878967166E-2
2.829881823E0,-2.262526304E-1,1.558076590E-1,-6.496594846E-2
2.832294063E0,-2.659588456E-1,-2.378656901E-2,-4.541827738E-2
2.834707084E0,-3.026107252E-1,-1.740592867E-1,-2.831406891E-2
2.837119271E0,-3.398734927E-1,-2.968431115E-1,-1.426418126E-2
2.839530677E0,-3.740819097E-1,-3.988575339E-1,-3.268614179E-3
2.841942917E0,-4.058468640E-1,-4.831568599E-1,6.505221128E-3
2.844355938E0,-4.363901019E-1,-5.515736938E-1,1.444646157E-2
2.846768125E0,-4.644898772E-1,-6.108275652E-1,1.811165176E-2
2.849179532E0,-4.925896823E-1,-6.584749818E-1,1.933337934E-2
2.851591771E0,-5.200785398E-1,-6.951268911E-1,2.055511065E-2
2.854004792E0,-5.500109196E-1,-7.189506292E-1,1.811165176E-2
2.856416980E0,-5.799432993E-1,-7.275027037E-1,1.017040946E-2
2.858828386E0,-6.092647910E-1,-7.287244201E-1,1.618303591E-3
2.861240573E0,-6.349211335E-1,-7.226157784E-1,-3.879479831E-3
2.863653646E0,-6.569122672E-1,-7.128419876E-1,-6.933800876E-3
2.866065782E0,-6.734055877E-1,-6.957377195E-1,-9.988125414E-3
2.868477240E0,-6.819577217E-1,-6.774117947E-1,-1.120985672E-2
2.870889427E0,-6.880663633E-1,-6.541989446E-1,-1.365331560E-2
2.873302500E0,-6.874554753E-1,-6.260991693E-1,-1.304244995E-2
2.875714636E0,-6.813468337E-1,-5.949450731E-1,-1.426418126E-2
2.878126042E0,-6.703512669E-1,-5.595149398E-1,-1.609677449E-2
2.880538282E0,-6.556904912E-1,-5.204195380E-1,-1.976196095E-2
2.882951355E0,-6.398080587E-1,-4.776590765E-1,-2.464887872E-2
2.885363490E0,-6.208712459E-1,-4.324550927E-1,-2.892493457E-2
2.887774896E0,-6.001018286E-1,-3.884728253E-1,-3.075752780E-2
2.890187136E0,-5.787215829E-1,-3.469340205E-1,-3.259012103E-2
2.892600157E0,-5.585630536E-1,-3.066169620E-1,-3.381185234E-2
2.895012344E0,-5.396262407E-1,-2.675215900E-1,-3.747703880E-2
2.897423750E0,-5.176351070E-1,-2.272045165E-1,-3.930963576E-2
2.899835938E0,-4.938113987E-1,-1.820005327E-1,-4.297482222E-2
2.902249011E0,-4.687659442E-1,-1.331313550E-1,-5.091606081E-2
2.904661146E0,-4.424987733E-1,-8.242958039E-2,-5.946816504E-2
2.907072605E0,-4.150098562E-1,-3.294954076E-2,-6.802027673E-2
2.909484792E0,-3.844666183E-1,1.408704557E-2,-7.657238096E-2
2.911897865E0,-3.551450968E-1,5.929103494E-2,-8.817881346E-2
2.914310000E0,-3.282670677E-1,9.655378759E-2,-9.856350720E-2
2.916721459E0,-2.977238297E-1,1.277078837E-1,-1.077264845E-1
2.919133646E0,-2.677914500E-1,1.533641964E-1,-1.168894470E-1
2.921546719E0,-2.415242493E-1,1.765770614E-1,-1.266632825E-1
2.923958855E0,-2.128136158E-1,1.949030012E-1,-1.284958869E-1
2.926370261E0,-1.871572882E-1,2.071202993E-1,-1.303284764E-1
2.928782500E0,-1.651661694E-1,2.150615305E-1,-1.333827972E-1
2.931195573E0,-1.443967670E-1,2.217810452E-1,-1.364371181E-1
2.933607709E0,-1.266816854E-1,2.309440225E-1,-1.401023120E-1
2.936019115E0,-1.077448800E-1,2.388852686E-1,-1.449892223E-1
2.938431355E0,-8.636461198E-2,2.468265146E-1,-1.468218267E-1
2.940844375E0,-6.315175444E-2,2.559894621E-1,-1.480435580E-1
2.943256563E0,-4.360407963E-2,2.657632828E-1,-1.492652893E-1
2.945667969E0,-1.916949265E-2,2.730936706E-1,-1.456000954E-1
2.948080209E0,5.265096668E-3,2.810349166E-1,-1.407131702E-1
2.950493230E0,2.786709182E-2,2.859218419E-1,-1.388805807E-1
2.952905365E0,4.924735799E-2,2.859218419E-1,-1.364371181E-1
2.955316823E0,6.451897323E-2,2.847000957E-1,-1.358262599E-1
2.957729011E0,8.101232350E-2,2.883652747E-1,-1.388805807E-1
2.960142084E0,9.872739762E-2,2.975282669E-1,-1.425457746E-1
2.962554219E0,1.146098822E-1,3.164650500E-1,-1.480435580E-1
2.964965677E0,1.341575533E-1,3.427322507E-1,-1.510978788E-1
2.967377865E0,1.524834931E-1,3.708320260E-1,-1.559847891E-1
2.969790938E0,1.647007912E-1,3.922123015E-1,-1.602608413E-1
2.972203073E0,1.671442389E-1,3.970991969E-1,-1.657586247E-1
2.974614532E0,1.604247391E-1,3.836601973E-1,-1.724781394E-1
2.977026719E0,1.445422471E-1,3.561712801E-1,-1.749216020E-1
2.979439792E0,1.274380386E-1,3.201302588E-1,-1.706455499E-1
2.981851927E0,1.146098822E-1,2.792023122E-1,-1.608717144E-1
2.984263334E0,1.042251810E-1,2.352200598E-1,-1.462109536E-1
2.986675573E0,9.811653197E-2,1.924595386E-1,-1.284958869E-1
2.989088594E0,9.567306936E-2,1.576402485E-1,-1.175003201E-1
2.991500782E0,9.872739762E-2,1.399251819E-1,-1.132242680E-1
2.993912188E0,1.097229645E-1,1.423686296E-1,-1.101699471E-1
2.996324427E0,1.237728521E-1,1.625271738E-1,-1.120025367E-1
2.998737448E0,1.359901428E-1,2.010116428E-1,-1.205546409E-1
3.001149636E0,1.439313889E-1,2.425504476E-1,-1.321610659E-1
3.003561042E0,1.390444636E-1,2.645415664E-1,-1.468218267E-1
3.005973230E0,1.231619865E-1,2.608763874E-1,-1.651477665E-1
3.008386302E0,9.994912893E-2,2.431613058E-1,-1.773650646E-1
3.010798438E0,7.123848796E-2,2.162832618E-1,-1.761433333E-1
3.013209896E0,4.497130588E-2,1.832965761E-1,-1.657586247E-1
3.015622084E0,2.298017405E-2,1.466446817E-1,-1.523196101E-1
3.018035157E0,5.875961389E-3,1.081602126E-1,-1.431566328E-1
3.020447292E0,-9.395657107E-3,7.578438520E-2,-1.407131702E-1
3.022858750E0,-1.916949265E-2,6.173449010E-2,-1.437675059E-1
3.025270938E0,-2.527813986E-2,7.273006439E-2,-1.504870057E-1
3.027684011E0,-2.711073495E-2,1.014406979E-1,-1.559847891E-1
3.030096146E0,-3.138678893E-2,1.423686296E-1,-1.620934457E-1
3.032507552E0,-3.932802752E-2,1.790205240E-1,-1.663694978E-1
3.034919792E0,-5.215618387E-2,2.046768367E-1,-1.688129604E-1
3.037332813E0,-6.620607525E-2,2.242245078E-1,-1.706455499E-1
3.039745000E0,-7.964510471E-2,2.449939102E-1,-1.743107438E-1
3.042156407E0,-8.819720894E-2,2.706502080E-1,-1.767541915E-1
3.044568646E0,-9.002980590E-2,2.999717295E-1,-1.761433333E-1
3.046981667E0,-8.819720894E-2,3.286823630E-1,-1.706455499E-1
3.049393855E0,-8.514288068E-2,3.537278175E-1,-1.645368934E-1
3.051805261E0,-8.086682856E-2,3.781624138E-1,-1.584282517E-1
3.054217500E0,-7.536904514E-2,3.989318013E-1,-1.504870057E-1
3.056630521E0,-6.926040351E-2,4.160360098E-1,-1.425457746E-1
3.059042657E0,-6.559520960E-2,4.343619645E-1,-1.376588494E-1
3.061454115E0,-6.131915748E-2,4.526878893E-1,-1.364371181E-1
3.063866302E0,-5.582137406E-2,4.728464186E-1,-1.364371181E-1
3.066279375E0,-5.093445629E-2,4.972810447E-1,-1.401023120E-1
3.068691511E0,-4.604753852E-2,5.247699618E-1,-1.456000954E-1
3.071102969E0,-3.993889317E-2,5.540914536E-1,-1.541521996E-1
3.073515157E0,-3.016505763E-2,5.858564377E-1,-1.614825726E-1
3.075928177E0,-2.100208588E-2,6.194540262E-1,-1.700346768E-1
3.078340365E0,-1.000652183E-2,6.524406672E-1,-1.798085123E-1
3.080751771E0,2.821637550E-3,6.848165393E-1,-1.877497584E-1
3.083164011E0,1.442806702E-2,7.153597474E-1,-1.956910044E-1
3.085577032E0,2.603449672E-2,7.434595227E-1,-2.042431086E-1
3.087989219E0,3.580833599E-2,7.691158652E-1,-2.103517503E-1
3.090400625E0,4.558217153E-2,7.917178273E-1,-2.170712650E-1
3.092812865E0,5.535600707E-2,8.149306774E-1,-2.244016528E-1
3.095225886E0,6.329724193E-2,8.350892663E-1,-2.323428988E-1
3.097638073E0,7.307107747E-2,8.540260792E-1,-2.390623987E-1
3.100049480E0,8.162318170E-2,8.741846085E-1,-2.482253611E-1
3.102461667E0,9.139701724E-2,8.900670409E-1,-2.555557489E-1
3.104874740E0,9.872739762E-2,9.010626078E-1,-2.628861070E-1
3.107286875E0,1.042251810E-1,9.065604210E-1,-2.677730322E-1
3.109698334E0,1.091120988E-1,9.047278166E-1,-2.714382410E-1
3.112110521E0,1.109446883E-1,8.992300630E-1,-2.763251364E-1
3.114523594E0,1.133881509E-1,8.912888169E-1,-2.769359946E-1
3.116935730E0,1.127772853E-1,8.815149665E-1,-2.781577408E-1
3.119347188E0,1.109446883E-1,8.662433624E-1,-2.775468826E-1
3.121759375E0,1.023925841E-1,8.503608704E-1,-2.775468826E-1
3.124172396E0,9.322961420E-2,8.308131695E-1,-2.763251364E-1
3.126584584E0,8.406664431E-2,8.076003194E-1,-2.738816738E-1
3.128995990E0,7.123848796E-2,7.813331485E-1,-2.714382410E-1
3.131408230E0,5.352341011E-2,7.599529028E-1,-2.708273530E-1
3.133821250E0,4.008438811E-2,7.434595227E-1,-2.683838904E-1
3.136233438E0,2.908881940E-2,7.336856723E-1,-2.696056366E-1
3.138644844E0,1.809325628E-2,7.312422395E-1,-2.689947784E-1
3.141057084E0,7.097690832E-3,7.281879187E-1,-2.653295696E-1
3.143470105E0,-3.287009662E-3,7.251335979E-1,-2.598317862E-1
3.145882292E0,-1.672603376E-2,7.196357846E-1,-2.525014281E-1
3.148293698E0,-2.772159874E-2,7.135271430E-1,-2.433384359E-1
3.150705886E0,-3.749543056E-2,7.129163146E-1,-2.366189361E-1
3.153118959E0,-4.543667287E-2,7.178032398E-1,-2.298994362E-1
3.155531094E0,-4.971272871E-2,7.257444859E-1,-2.244016528E-1
3.157942552E0,-4.971272871E-2,7.312422395E-1,-2.152386755E-1
3.160354740E0,-5.032359064E-2,7.361291647E-1,-2.103517503E-1
3.162767813E0,-5.215618387E-2,7.410160899E-1,-2.097408921E-1
3.165179948E0,-5.337791517E-2,7.434595227E-1,-2.097408921E-1
3.167591407E0,-5.459964648E-2,7.446812391E-1,-2.109626234E-1
3.170003594E0,-5.521050841E-2,7.434595227E-1,-2.146278024E-1
3.172416667E0,-5.521050841E-2,7.422378063E-1,-2.176821381E-1
3.174828802E0,-5.215618387E-2,7.385725975E-1,-2.195147276E-1
3.177240209E0,-5.093445629E-2,7.349074483E-1,-2.237907797E-1
3.179652448E0,-4.849099740E-2,7.294096351E-1,-2.280668318E-1
3.182065469E0,-4.482581094E-2,7.245227098E-1,-2.317320108E-1
3.184477657E0,-4.421494529E-2,7.196357846E-1,-2.408950031E-1
3.186889063E0,-4.177148640E-2,7.086402178E-1,-2.470036447E-1
3.189301302E0,-4.116062075E-2,6.945903301E-1,-2.525014281E-1
3.191714323E0,-4.116062075E-2,6.799296141E-1,-2.573883533E-1
3.194126459E0,-4.116062075E-2,6.616036892E-1,-2.616643906E-1
3.196537917E0,-4.054975510E-2,6.408342719E-1,-2.647187114E-1
3.198950105E0,-4.116062075E-2,6.188431382E-1,-2.665513158E-1
3.201363177E0,-3.993889317E-2,5.992954373E-1,-2.671621740E-1
3.203775313E0,-3.993889317E-2,5.840238333E-1,-2.696056366E-1
3.206186771E0,-4.116062075E-2,5.705848336E-1,-2.714382410E-1
3.208598959E0,-4.116062075E-2,5.565349460E-1,-2.751034200E-1
3.211012032E0,-4.421494529E-2,5.449284911E-1,-2.751034200E-1
3.213424167E0,-4.604753852E-2,5.357655287E-1,-2.708273530E-1
3.215835573E0,-4.971272871E-2,5.278242826E-1,-2.647187114E-1
3.218247813E0,-5.215618387E-2,5.192722082E-1,-2.567774653E-1
3.220660834E0,-5.276704952E-2,5.101091862E-1,-2.457818985E-1
3.223073021E0,-5.459964648E-2,5.033897161E-1,-2.341754735E-1
3.225484427E0,-5.704310164E-2,4.991135895E-1,-2.237907797E-1
3.227896667E0,-5.826483294E-2,4.936158359E-1,-2.109626234E-1
3.230309688E0,-6.070829183E-2,4.887289107E-1,-1.956910044E-1
3.232721875E0,-6.559520960E-2,4.862854779E-1,-1.810302436E-1
3.235133282E0,-7.048213482E-2,4.838419855E-1,-1.669803560E-1
3.237545469E0,-7.659077644E-2,4.826202691E-1,-1.541521996E-1
3.239958542E0,-8.331029117E-2,4.801768363E-1,-1.388805807E-1
3.242370677E0,-9.369499236E-2,4.752899110E-1,-1.223872304E-1
3.244782136E0,-1.046905518E-1,4.710138440E-1,-1.065047532E-1
3.247194323E0,-1.193513125E-1,4.661269188E-1,-9.123313427E-2
3.249607396E0,-1.346229315E-1,4.569639564E-1,-7.412892580E-2
3.252019532E0,-1.535597295E-1,4.447466433E-1,-5.702470988E-2
3.254430990E0,-1.731074005E-1,4.306967556E-1,-3.930963576E-2
3.256843177E0,-1.932659447E-1,4.160360098E-1,-2.098369226E-2
3.259256250E0,-2.152570635E-1,4.001535177E-1,-2.657748526E-3
3.261668386E0,-2.378590703E-1,3.836601973E-1,1.444646157E-2
3.264079792E0,-2.622936666E-1,3.647233844E-1,3.093980812E-2
3.266492032E0,-2.848956585E-1,3.427322507E-1,4.621142894E-2
3.268905052E0,-3.081085086E-1,3.231845796E-1,6.209391356E-2
3.271317240E0,-3.307105303E-1,3.042477667E-1,7.858725637E-2
3.273728646E0,-3.496473134E-1,2.847000957E-1,9.630233794E-2
3.276140886E0,-3.685841262E-1,2.718719542E-1,1.121848151E-1
3.278553907E0,-3.832448721E-1,2.620981038E-1,1.298998892E-1
3.280966094E0,-3.936295807E-1,2.633198202E-1,1.476149708E-1
3.283377500E0,-3.972947598E-1,2.706502080E-1,1.696061045E-1
3.285789688E0,-3.991273642E-1,2.908087373E-1,1.879320443E-1
3.288202761E0,-3.936295807E-1,3.256280422E-1,2.093123049E-1
3.290614896E0,-3.850774765E-1,3.653342426E-1,2.368012220E-1
3.293026355E0,-3.814122975E-1,3.824384511E-1,2.655118704E-1
3.295438542E0,-3.917969763E-1,3.665559590E-1,2.832269371E-1
3.297851615E0,-4.107337892E-1,3.347910047E-1,2.862812579E-1
3.300263750E0,-4.302814603E-1,3.024151623E-1,2.795617580E-1
3.302675209E0,-4.467748106E-1,2.767588496E-1,2.740639746E-1
3.305087396E0,-4.614355564E-1,2.559894621E-1,2.703987956E-1
3.307500469E0,-4.730420113E-1,2.419395894E-1,2.673444748E-1
3.309912605E0,-4.779289067E-1,2.413287312E-1,2.661227286E-1
3.312324011E0,-4.767071903E-1,2.364418060E-1,2.722313702E-1
3.314736250E0,-4.730420113E-1,2.230027765E-1,2.807834744E-1
3.317149271E0,-4.687659442E-1,2.095637470E-1,2.813943326E-1
3.319561459E0,-4.596029818E-1,2.071202993E-1,2.716205120E-1
3.321972865E0,-4.461639524E-1,2.144506723E-1,2.569597661E-1
3.324385105E0,-4.272271395E-1,2.254462391E-1,2.435207367E-1
3.326798125E0,-4.034034312E-1,2.352200598E-1,2.337469012E-1
3.329210313E0,-3.801905513E-1,2.407178432E-1,2.282491177E-1
3.331621719E0,-3.539233804E-1,2.413287312E-1,2.245839238E-1
3.334033907E0,-3.300996423E-1,2.413287312E-1,2.190861404E-1
3.336446980E0,-3.074976504E-1,2.346092016E-1,2.141992301E-1
3.338859115E0,-2.842848003E-1,2.254462391E-1,2.111449093E-1
3.341270573E0,-2.641262710E-1,2.168941349E-1,2.105340362E-1
3.343682761E0,-2.464111745E-1,2.058985680E-1,2.099231780E-1
3.346095834E0,-2.299178243E-1,1.900160760E-1,2.080905735E-1
3.348507969E0,-2.164787948E-1,1.759661883E-1,2.050362527E-1
3.350919427E0,-2.048723698E-1,1.600837111E-1,2.044253945E-1
3.353331615E0,-1.914333403E-1,1.435903609E-1,2.013710737E-1
3.355744688E0,-1.810486466E-1,1.270970106E-1,1.934298277E-1
3.358156823E0,-1.688313484E-1,1.087710708E-1,1.879320443E-1
3.360568230E0,-1.547814608E-1,9.166686237E-2,1.848777235E-1
3.362980469E0,-1.413424462E-1,8.189302683E-2,1.818234026E-1
3.365393490E0,-1.303468794E-1,7.211919129E-2,1.836559922E-1
3.367805677E0,-1.181295812E-1,6.478881836E-2,1.879320443E-1
3.370217084E0,-1.077448800E-1,5.929103494E-2,1.915972382E-1
3.372629323E0,-1.010253653E-1,5.073892325E-2,1.952624172E-1
3.375042344E0,-9.491671622E-2,3.363471478E-2,2.001493424E-1
3.377454532E0,-9.125152975E-2,8.589262143E-3,2.056471258E-1
3.379865938E0,-9.064066410E-2,-2.256483771E-2,2.111449093E-1
3.382278125E0,-9.125152975E-2,-5.921672285E-2,2.184752822E-1
3.384691198E0,-9.674931318E-2,-9.831206501E-2,2.239730656E-1
3.387103334E0,-1.053014174E-1,-1.422943175E-1,2.282491177E-1
3.389514792E0,-1.175187156E-1,-1.929960996E-1,2.300817072E-1
3.391926980E0,-1.321794689E-1,-2.522499859E-1,2.313034385E-1
3.394340052E0,-1.517271399E-1,-3.218885660E-1,2.319142967E-1
3.396752188E0,-1.724965423E-1,-4.013009965E-1,2.325251698E-1
3.399163646E0,-1.944876760E-1,-4.856003225E-1,2.325251698E-1
3.401575834E0,-2.195331305E-1,-5.698996186E-1,2.337469012E-1
3.403988907E0,-2.451894432E-1,-6.548098326E-1,2.306925803E-1
3.406401042E0,-2.732892334E-1,-7.378874421E-1,2.300817072E-1
3.408812448E0,-2.965020835E-1,-8.136346340E-1,2.319142967E-1
3.411224688E0,-3.154388964E-1,-8.765537143E-1,2.306925803E-1
3.413637709E0,-3.307105303E-1,-9.315315485E-1,2.251947969E-1
3.416049896E0,-3.423169553E-1,-9.755138159E-1,2.166426778E-1
3.418461302E0,-3.459821343E-1,-1.005446076E0,2.080905735E-1
3.420873542E0,-3.429278135E-1,-1.013998270E0,1.983167380E-1
3.423286563E0,-3.337648511E-1,-1.009111285E0,1.860994548E-1
3.425698750E0,-3.239910007E-1,-9.926180243E-1,1.671626419E-1
3.428110157E0,-3.111628592E-1,-9.614639282E-1,1.476149708E-1
3.430522344E0,-2.903934419E-1,-9.113730192E-1,1.329542100E-1
3.432935417E0,-2.622936666E-1,-8.496756554E-1,1.207369268E-1
3.435347552E0,-2.341938764E-1,-7.861457467E-1,1.097413599E-1
3.437759011E0,-2.091484219E-1,-7.268918753E-1,1.011892557E-1
3.440171198E0,-1.871572882E-1,-6.792443991E-1,9.691320360E-2
3.442584271E0,-1.712748110E-1,-6.456468701E-1,8.958282322E-2
3.444996407E0,-1.645552963E-1,-6.212122440E-1,7.553293556E-2
3.447407865E0,-1.639444381E-1,-6.108275652E-1,5.354180932E-2
3.449820052E0,-1.663878858E-1,-6.126601696E-1,2.544202842E-2
3.452233073E0,-1.749400049E-1,-6.224339604E-1,-3.879479831E-3
3.454645261E0,-1.859355569E-1,-6.364838481E-1,-3.686617315E-2
3.457056667E0,-1.987637281E-1,-6.541989446E-1,-6.679854542E-2
3.459468907E0,-2.158679366E-1,-6.743574739E-1,-9.550918639E-2
3.461881927E0,-2.335830182E-1,-6.987921000E-1,-1.211654991E-1
3.464294115E0,-2.549632788E-1,-7.177288532E-1,-1.517087370E-1
3.466705521E0,-2.745109499E-1,-7.360548377E-1,-1.755324602E-1
3.469117761E0,-2.885608375E-1,-7.488830090E-1,-1.932475418E-1
3.471530782E0,-2.952803671E-1,-7.519373298E-1,-2.042431086E-1
3.473942917E0,-2.989455462E-1,-7.458286285E-1,-2.115734816E-1
3.476354375E0,-2.989455462E-1,-7.336113453E-1,-2.182929963E-1
3.478766563E0,-2.928369045E-1,-7.165071368E-1,-2.158495337E-1
3.481179636E0,-2.775653005E-1,-6.877965331E-1,-2.017996460E-1
3.483591771E0,-2.592393458E-1,-6.566423774E-1,-1.834737062E-1
3.486003230E0,-2.439677119E-1,-6.260991693E-1,-1.639260352E-1
3.488415417E0,-2.335830182E-1,-5.979993939E-1,-1.474326849E-1
3.490828490E0,-2.231983095E-1,-5.686779022E-1,-1.370479912E-1
3.493240625E0,-2.122027427E-1,-5.344694853E-1,-1.382697225E-1
3.495652084E0,-2.024289072E-1,-4.984284639E-1,-1.492652893E-1
3.498064271E0,-1.957093924E-1,-4.623874426E-1,-1.675912291E-1
3.500477292E0,-1.883790195E-1,-4.287898839E-1,-1.877497584E-1
3.502889480E0,-1.828812361E-1,-3.933597505E-1,-2.085191607E-1
3.505300886E0,-1.786051840E-1,-3.554861248E-1,-2.280668318E-1
3.507713125E0,-1.798269153E-1,-3.212777078E-1,-2.372297943E-1
3.510126146E0,-1.834921092E-1,-2.943996489E-1,-2.366189361E-1
3.512538334E0,-1.834921092E-1,-2.779062986E-1,-2.256233692E-1
3.514949740E0,-1.810486466E-1,-2.687433362E-1,-2.030213773E-1
3.517361927E0,-1.786051840E-1,-2.626346946E-1,-1.688129604E-1
3.519775000E0,-1.767725945E-1,-2.546934485E-1,-1.266632825E-1
3.522187136E0,-1.779943258E-1,-2.467521876E-1,-7.779411227E-2
3.524598594E0,-1.749400049E-1,-2.430870086E-1,-2.098369226E-2
3.527010782E0,-1.724965423E-1,-2.479739189E-1,4.132451117E-2
3.529423855E0,-1.724965423E-1,-2.577477694E-1,1.054653078E-1
3.531835990E0,-1.731074005E-1,-2.736302614E-1,1.659409106E-1
3.534247448E0,-1.694422215E-1,-2.950105071E-1,2.215296030E-1
3.536659636E0,-1.639444381E-1,-3.212777078E-1,2.691770494E-1
3.539072709E0,-1.535597295E-1,-3.512100875E-1,3.058289289E-1
3.541484844E0,-1.395098418E-1,-3.811424375E-1,3.296526670E-1
3.543896250E0,-1.217947677E-1,-4.165726006E-1,3.375939131E-1
3.546308490E0,-1.040796936E-1,-4.526136220E-1,3.290417790E-1
3.548721511E0,-8.514288068E-2,-4.898763597E-1,3.021637499E-1
3.551133698E0,-7.109299302E-2,-5.265282393E-1,2.612358034E-1
3.553545105E0,-5.826483294E-2,-5.582931638E-1,2.111449093E-1
3.555957344E0,-4.788013175E-2,-5.827277899E-1,1.573888063E-1
3.558370365E0,-4.238234833E-2,-5.973885059E-1,9.569147229E-2
3.560782552E0,-3.871716186E-2,-6.004428267E-1,2.788548730E-2
3.563193959E0,-3.993889317E-2,-5.986102819E-1,-3.259012103E-2
3.565606146E0,-4.238234833E-2,-5.937233567E-1,-8.329189569E-2
3.568019219E0,-4.971272871E-2,-5.839495063E-1,-1.303284764E-1
3.570431355E0,-6.193001941E-2,-5.686779022E-1,-1.736998707E-1
3.572842813E0,-7.659077644E-2,-5.491302013E-1,-2.127952129E-1
3.575255000E0,-9.430585802E-2,-5.332477093E-1,-2.463927865E-1
3.577668073E0,-1.150752530E-1,-5.222521424E-1,-2.787685990E-1
3.580080209E0,-1.352337897E-1,-5.155326128E-1,-3.074792325E-1
3.582491667E0,-1.596683860E-1,-5.124782920E-1,-3.325246871E-1
3.584903855E0,-1.877681613E-1,-5.167543888E-1,-3.557375669E-1
3.587316875E0,-2.152570635E-1,-5.271390676E-1,-3.716200292E-1
3.589729063E0,-2.476329058E-1,-5.454650521E-1,-3.826155961E-1
3.592140469E0,-2.842848003E-1,-5.753973722E-1,-3.887242675E-1
3.594552709E0,-3.252127469E-1,-6.120492816E-1,-3.942220211E-1
3.596965730E0,-3.655298054E-1,-6.609184742E-1,-3.960546255E-1
3.599377917E0,-4.040142894E-1,-7.195614576E-1,-3.893351257E-1
3.601789323E0,-4.492182732E-1,-7.824805379E-1,-3.789504170E-1
3.604201563E0,-4.986983240E-1,-8.374583721E-1,-3.630679250E-1
3.606614584E0,-5.524543524E-1,-8.789971471E-1,-3.380224705E-1
3.609026719E0,-6.123191118E-1,-9.119838476E-1,-3.050357997E-1
3.611438177E0,-6.782925129E-1,-9.425271153E-1,-2.689947784E-1
3.613850365E0,-7.497636676E-1,-9.785681367E-1,-2.268451154E-1
3.616263438E0,-8.261217475E-1,-1.018885136E0,-1.810302436E-1
3.618675573E0,-9.043124318E-1,-1.065921783E0,-1.278850138E-1
3.621087032E0,-9.880009294E-1,-1.130673409E0,-6.496594846E-2
3.623499219E0,-1.076576352E0,-1.215583682E0,1.007437939E-3
3.625912292E0,-1.162708282E0,-1.318208933E0,6.575910002E-2
3.628324427E0,-1.245175004E0,-1.431218863E0,1.274564266E-1
3.630735834E0,-1.319700480E0,-1.551559210E0,1.860994548E-1
3.633148073E0,-1.388117433E0,-1.656628013E0,2.319142967E-1
3.635561094E0,-1.446760416E0,-1.736651182E0,2.618466914E-1
3.637973282E0,-1.494407892E0,-1.791629076E0,2.826160789E-1
3.640384688E0,-1.531059742E0,-1.824615717E0,2.978876829E-1
3.642796927E0,-1.557326913E0,-1.841719985E0,3.119375706E-1
3.645209948E0,-1.578707218E0,-1.844774246E0,3.223222792E-1
3.647622136E0,-1.595200539E0,-1.841109157E0,3.320961297E-1
3.650033542E0,-1.606196046E0,-1.833778739E0,3.406482339E-1
3.652445730E0,-1.614748240E0,-1.823394060E0,3.443134129E-1
3.654858802E0,-1.623911142E0,-1.811176777E0,3.418699503E-1
3.657270938E0,-1.634295821E0,-1.801402926E0,3.363721669E-1
3.659682396E0,-1.644680619E0,-1.798959494E0,3.272092044E-1
3.662094584E0,-1.655676126E0,-1.805678964E0,3.162136376E-1
3.664507657E0,-1.666671634E0,-1.819728851E0,3.082723916E-1
3.666919792E0,-1.678889036E0,-1.838665605E0,3.015528917E-1
3.669331250E0,-1.683165073E0,-1.853937268E0,2.966659665E-1
3.671743438E0,-1.675834656E0,-1.853937268E0,2.893355787E-1
3.674156511E0,-1.653843522E0,-1.838665605E0,2.777291536E-1
3.676568646E0,-1.615969896E0,-1.812398434E0,2.679553330E-1
3.678980052E0,-1.567711592E0,-1.772692204E0,2.539054453E-1
3.681392292E0,-1.496240377E0,-1.702442765E0,2.368012220E-1
3.683805313E0,-1.408275962E0,-1.598595858E0,2.117557675E-1
3.686217500E0,-1.298931122E0,-1.464205623E0,1.824342608E-1
3.688628907E0,-1.172482133E0,-1.302937269E0,1.518910229E-1
3.691041146E0,-1.038091898E0,-1.120288730E0,1.189043298E-1
3.693454167E0,-8.945386410E-1,-9.290880561E-1,8.530677110E-2
3.695866302E0,-7.485419512E-1,-7.421634793E-1,5.903958529E-2
3.698277761E0,-6.098756790E-1,-5.753973722E-1,3.460500017E-2
3.700689948E0,-4.724311233E-1,-4.275681674E-1,1.383559778E-2
3.703103021E0,-3.410952091E-1,-2.956213951E-1,-5.101207644E-3
3.705515157E0,-2.177005261E-1,-1.752810180E-1,-2.770320326E-2
3.707926615E0,-9.430585802E-2,-7.387746871E-2,-5.885730684E-2
3.710338802E0,2.236930840E-2,1.286531426E-2,-1.046721637E-1
3.712751875E0,1.366010159E-1,8.372563124E-2,-1.572065204E-1
3.715164011E0,2.459457964E-1,1.374817193E-1,-2.097408921E-1
3.717575469E0,3.491819203E-1,1.802422404E-1,-2.543340027E-1
3.719987657E0,4.420333505E-1,2.077311575E-1,-2.915967703E-1
3.722400730E0,5.293870568E-1,2.162832618E-1,-3.203074038E-1
3.724812865E0,6.106320620E-1,2.071202993E-1,-3.355790377E-1
3.727224271E0,6.857684255E-1,1.832965761E-1,-3.404659331E-1
3.729636511E0,7.431896925E-1,1.478664130E-1,-3.368007541E-1
3.732049532E0,7.841176391E-1,9.777551889E-2,-3.215291202E-1
3.734461719E0,8.097739220E-1,3.119125776E-2,-2.952619493E-1
3.736873125E0,8.183260560E-1,-3.050608002E-2,-2.641078532E-1
3.739285365E0,8.067196012E-1,-5.310807750E-2,-2.292885482E-1
3.741698386E0,7.664025426E-1,-2.073224448E-2,-1.865280271E-1
3.744110521E0,6.943204999E-1,8.128216863E-2,-1.352154016E-1
3.746521980E0,5.929169655E-1,2.633198202E-1,-7.412892580E-2
3.748934167E0,4.634136260E-1,4.905615151E-1,-3.268614179E-3
3.751347240E0,3.198603988E-1,7.025315762E-1,7.003515214E-2
3.753759375E0,1.732528955E-1,8.772389293E-1,1.384519935E-1
3.756170834E0,2.725622617E-2,1.011018276E0,1.970950067E-1
3.758583021E0,-1.187404469E-1,1.090430737E0,2.477967888E-1
3.760996094E0,-2.580176294E-1,1.113032699E0,2.887247205E-1
3.763408230E0,-3.936295807E-1,1.092874169E0,3.149918914E-1
3.765819636E0,-5.176351070E-1,1.034231186E0,3.363721669E-1
3.768231875E0,-6.294233203E-1,9.480991960E-1,3.540872335E-1
3.770644896E0,-7.302160263E-1,8.399761319E-1,3.675262630E-1
3.773057084E0,-8.187913895E-1,7.233009934E-1,3.742457926E-1
3.775468490E0,-8.853756785E-1,6.029606462E-1,3.815761507E-1
3.777880730E0,-9.330230951E-1,4.801768363E-1,3.962369263E-1
3.780293750E0,-9.605120420E-1,3.616690636E-1,4.212823808E-1
3.782705938E0,-9.666206837E-1,2.498808354E-1,4.530473351E-1
3.785117344E0,-9.489055872E-1,1.509207338E-1,4.933643937E-1
3.787529532E0,-9.091993570E-1,6.906487048E-2,5.367357731E-1
3.789942605E0,-8.511672020E-1,-1.184573513E-3,5.849941373E-1
3.792354740E0,-7.790852189E-1,-5.066461861E-2,6.301981211E-1
3.794766198E0,-6.990619302E-1,-7.571007311E-2,6.735695004E-1
3.797178386E0,-6.147626042E-1,-8.487303555E-2,7.151082754E-1
3.799591459E0,-5.341284275E-1,-8.059698343E-2,7.505384684E-1
3.802003594E0,-4.589920938E-1,-5.799499527E-2,7.761947513E-1
3.804415000E0,-3.985165060E-1,-2.195397392E-2,7.890229225E-1
3.806827240E0,-3.459821343E-1,9.810993448E-3,7.884120345E-1
3.809240313E0,-2.983346879E-1,3.424558043E-2,7.841359973E-1
3.811652448E0,-2.574067414E-1,5.073892325E-2,7.755839229E-1
3.814063855E0,-2.225874513E-1,6.356708705E-2,7.670317888E-1
3.816476094E0,-1.963202655E-1,7.028660178E-2,7.572579384E-1
3.818889115E0,-1.743291318E-1,7.089745998E-2,7.493167520E-1
3.821301302E0,-1.572249234E-1,7.334092259E-2,7.413755059E-1
3.823712709E0,-1.450076252E-1,7.578438520E-2,7.322124839E-1
3.826124948E0,-1.358446628E-1,7.700611651E-2,7.224386930E-1
3.828537969E0,-1.291251481E-1,8.739081025E-2,7.108322382E-1
3.830950105E0,-1.187404469E-1,1.057167500E-1,6.986149549E-1
3.833361563E0,-1.071340144E-1,1.246535629E-1,6.833433509E-1
3.835773750E0,-9.919277579E-2,1.466446817E-1,6.631848216E-1
3.838186823E0,-9.064066410E-2,1.704684049E-1,6.363067627E-1
3.840598959E0,-8.086682856E-2,1.955138594E-1,6.039308906E-1
3.843010417E0,-7.231472433E-2,2.168941349E-1,5.709442496E-1
3.845422605E0,-6.498435140E-2,2.388852686E-1,5.385683775E-1
3.847835677E0,-5.276704952E-2,2.608763874E-1,5.104686022E-1
3.850247813E0,-3.871716186E-2,2.822566330E-1,4.842014313E-1
3.852659219E0,-2.283468097E-2,3.097455502E-1,4.615994394E-1
3.855071459E0,-2.676144941E-3,3.408996463E-1,4.402191639E-1
3.857484480E0,1.687152497E-2,3.769406676E-1,4.218932390E-1
3.859896667E0,3.580833599E-2,4.154251516E-1,4.053998888E-1
3.862308073E0,5.413427576E-2,4.532987773E-1,3.882956803E-1
3.864720313E0,7.123848796E-2,4.917832315E-1,3.730240464E-1
3.867133334E0,8.773183078E-2,5.266025662E-1,3.583633006E-1
3.869545521E0,1.042251810E-1,5.626435876E-1,3.455351293E-1
3.871956927E0,1.194968000E-1,5.986846089E-1,3.388156295E-1
3.874369115E0,1.359901428E-1,6.328930259E-1,3.369830251E-1
3.876782188E0,1.494291723E-1,6.677123308E-1,3.363721669E-1
3.879194323E0,1.573704034E-1,6.970338225E-1,3.351504505E-1
3.881605782E0,1.647007912E-1,7.184140682E-1,3.363721669E-1
3.884017969E0,1.763072163E-1,7.428486943E-1,3.357613087E-1
3.886431042E0,1.873027831E-1,7.678941488E-1,3.467568755E-1
3.888843177E0,1.866919100E-1,7.849983573E-1,3.565306962E-1
3.891254636E0,1.818049997E-1,8.051568866E-1,3.473677337E-1
3.893666823E0,1.799724102E-1,8.271480203E-1,3.327069879E-1
3.896079844E0,1.769180745E-1,8.448630571E-1,3.180462420E-1
3.898492032E0,1.708094329E-1,8.576912284E-1,3.039963543E-1
3.900903438E0,1.616464704E-1,8.613564372E-1,2.911681831E-1
3.903315677E0,1.457639784E-1,8.546369076E-1,2.813943326E-1
3.905728698E0,1.268271804E-1,8.399761319E-1,2.771182954E-1
3.908140886E0,1.127772853E-1,8.179850578E-1,2.783400118E-1
3.910552292E0,9.994912893E-2,7.947721481E-1,2.813943326E-1
3.912964532E0,8.651009947E-2,7.709484696E-1,2.862812579E-1
3.915377552E0,7.368194312E-2,7.422378063E-1,2.948333621E-1
3.917789740E0,5.902119353E-2,7.129163146E-1,3.052180707E-1
3.920201146E0,4.436044022E-2,6.799296141E-1,3.186571002E-1
3.922613334E0,2.969968505E-2,6.506081223E-1,3.357613087E-1
3.925026407E0,1.809325628E-2,6.328930259E-1,3.571415842E-1
3.927438542E0,1.320633758E-2,6.316713095E-1,3.803544343E-1
3.929850000E0,1.626066118E-2,6.438885927E-1,4.035672843E-1
3.932262188E0,1.748239063E-2,6.732100844E-1,4.225040972E-1
3.934675261E0,2.298017405E-2,7.068076730E-1,4.451060891E-1
3.937087396E0,3.031055070E-2,7.459030151E-1,4.658755064E-1
3.939498802E0,3.825179115E-2,7.868309021E-1,4.921426773E-1
3.941911042E0,4.619303346E-2,8.344783783E-1,5.141338110E-1
3.944324063E0,5.718860030E-2,8.833475709E-1,5.336814523E-1
3.946736250E0,6.696242839E-2,9.334384799E-1,5.550617576E-1
3.949147657E0,7.612539828E-2,9.823076725E-1,5.782746077E-1
3.951559896E0,8.284491301E-2,1.026900768E0,6.039308906E-1
3.953972917E0,8.834269643E-2,1.069050431E0,6.308089495E-1
3.956385105E0,8.895356208E-2,1.095928431E0,6.668499708E-1
3.958796511E0,7.979059219E-2,1.099593639E0,7.096105218E-1
3.961208698E0,7.246021181E-2,1.092874169E0,7.456515431E-1
3.963621771E0,7.246021181E-2,1.089208961E0,7.700861096E-1
3.966033907E0,7.429280877E-2,1.084932923E0,7.829142809E-1
3.968445365E0,7.307107747E-2,1.073326468E0,7.878012061E-1
3.970857552E0,7.001675665E-2,1.055611372E0,7.871903181E-1
3.973270625E0,6.635156274E-2,1.026900768E0,7.823033929E-1
3.975682761E0,6.207551807E-2,9.884163141E-1,7.743621469E-1
3.978094219E0,6.268637627E-2,9.444340467E-1,7.615340352E-1
3.980506407E0,6.635156274E-2,8.973974586E-1,7.444298267E-1
3.982919427E0,7.429280877E-2,8.485282660E-1,7.254930139E-1
3.985331615E0,8.406664431E-2,7.996590734E-1,7.047235966E-1
3.987743021E0,9.872739762E-2,7.495681643E-1,6.827324629E-1
3.990155261E0,1.109446883E-1,6.982555389E-1,6.637956500E-1
3.992568282E0,1.262163073E-1,6.426668763E-1,6.454697251E-1
3.994980469E0,1.414879262E-1,5.931867957E-1,6.228677034E-1
3.997391875E0,1.585921347E-1,5.528697371E-1,6.027091742E-1
3.999804115E0,1.756963581E-1,5.113309622E-1,5.856049657E-1
4.002217136E0,1.860810518E-1,4.679595232E-1,5.703333616E-1
4.004629271E0,1.946331561E-1,4.288641810E-1,5.538399816E-1
4.007040730E0,1.995200813E-1,3.970991969E-1,5.318489075E-1
4.009452917E0,2.056287229E-1,3.787732720E-1,5.055816770E-1
4.011865990E0,2.092939168E-1,3.738863468E-1,4.695406854E-1
4.014278125E0,2.147917002E-1,3.738863468E-1,4.237258136E-1
4.016689584E0,2.202894837E-1,3.708320260E-1,3.705805838E-1
4.019101771E0,2.251763940E-1,3.616690636E-1,3.113267124E-1
4.021514844E0,2.300633043E-1,3.421213925E-1,2.471859008E-1
4.023926980E0,2.386154234E-1,3.048586249E-1,1.903755069E-1
4.026338386E0,2.532761693E-1,2.443830520E-1,1.573888063E-1
4.028750625E0,2.758781612E-1,1.704684049E-1,1.579996645E-1
4.031163646E0,3.058105111E-1,9.655378759E-2,1.830451190E-1
4.033575834E0,3.418515325E-1,5.806930363E-2,2.032036632E-1
4.035987240E0,3.840011954E-1,7.700611651E-2,2.032036632E-1
4.038399480E0,4.255400002E-1,1.460338235E-1,1.799907982E-1
4.040812500E0,4.646353424E-1,2.388852686E-1,1.408954561E-1
4.043224688E0,4.988437593E-1,3.317366838E-1,9.691320360E-2
4.045636094E0,5.208349228E-1,4.123708308E-1,5.293094367E-2
4.048048282E0,5.324413776E-1,4.673486650E-1,1.566819288E-2
4.050461355E0,5.367174149E-1,5.027788281E-1,-1.487504318E-2
4.052873490E0,5.373283029E-1,5.351546407E-1,-4.053135961E-2
4.055284948E0,5.397717357E-1,5.724174380E-1,-5.763557553E-2
4.057697136E0,5.312196612E-1,6.054040790E-1,-6.374422461E-2
4.060110209E0,5.183914900E-1,6.341147423E-1,-6.130076200E-2
4.062522344E0,5.110610723E-1,6.787078977E-1,-5.885730684E-2
4.064933750E0,5.159479976E-1,7.410160899E-1,-5.641384423E-2
4.067345990E0,5.190023184E-1,8.045459986E-1,-4.847260565E-2
4.069759011E0,5.220566392E-1,8.668541908E-1,-4.053135961E-2
4.072171198E0,5.269435644E-1,9.303841591E-1,-4.114222527E-2
4.074582605E0,5.293870568E-1,9.816967249E-1,-4.114222527E-2
4.076994844E0,5.275544524E-1,1.029344201E0,-4.236395657E-2
4.079407865E0,5.263327360E-1,1.076380849E0,-4.236395657E-2
4.081820052E0,5.220566392E-1,1.117308736E0,-4.175309092E-2
4.084231459E0,5.061742067E-1,1.139910698E0,-3.564444184E-2
4.086643646E0,4.805178344E-1,1.141132474E0,-2.525974438E-2
4.089056719E0,4.463094175E-1,1.119141340E0,-5.712073296E-3
4.091468855E0,4.029380083E-1,1.084932923E0,1.933337934E-2
4.093880313E0,3.559014201E-1,1.037896276E0,5.048748106E-2
4.096292500E0,3.058105111E-1,9.884163141E-1,8.469590545E-2
4.098705573E0,2.581630647E-1,9.487100840E-1,1.182934642E-1
4.101117709E0,2.196786106E-1,9.242755175E-1,1.476149708E-1
4.103529167E0,1.928005666E-1,9.151124954E-1,1.677735150E-1
4.105941355E0,1.769180745E-1,9.163342714E-1,1.812125295E-1
4.108354375E0,1.714202911E-1,9.273298383E-1,1.922080964E-1
4.110766563E0,1.708094329E-1,9.462666512E-1,2.013710737E-1
4.113177969E0,1.689768434E-1,9.688686132E-1,2.190861404E-1
4.115590209E0,1.604247391E-1,9.823076725E-1,2.459641993E-1
4.118003230E0,1.451531202E-1,9.774206877E-1,2.807834744E-1
4.120415417E0,1.194968000E-1,9.432122707E-1,3.211005628E-1
4.122826823E0,8.162318170E-2,8.809040785E-1,3.620284796E-1
4.125239063E0,3.641919792E-2,8.027133942E-1,4.047890306E-1
4.127652084E0,-8.173927665E-3,7.171923518E-1,4.463278055E-1
4.130064271E0,-5.398878083E-2,6.341147423E-1,4.817579687E-1
4.132475677E0,-9.186239541E-2,5.602000952E-1,5.074142814E-1
4.134887865E0,-1.230164990E-1,5.040005445E-1,5.239076018E-1
4.137300938E0,-1.443967670E-1,4.618508816E-1,5.312380195E-1
4.139713073E0,-1.590575129E-1,4.331402183E-1,5.318489075E-1
4.142124532E0,-1.651661694E-1,4.142034352E-1,5.275728106E-1
4.144536719E0,-1.633335650E-1,4.032078683E-1,5.184098482E-1
4.146949792E0,-1.553923339E-1,3.977100849E-1,5.092468858E-1
4.149361927E0,-1.413424462E-1,4.001535177E-1,5.000839233E-1
4.151773334E0,-1.236273646E-1,4.087056518E-1,4.896992147E-1
4.154185573E0,-1.028579623E-1,4.209229350E-1,4.823688269E-1
4.156598594E0,-8.147769421E-2,4.337510765E-1,4.750384688E-1
4.159010782E0,-6.009742618E-2,4.447466433E-1,4.670972228E-1
4.161422188E0,-4.054975510E-2,4.581856728E-1,4.597668350E-1
4.163834427E0,-2.405641042E-2,4.704029858E-1,4.518255889E-1
4.166247448E0,-7.563062478E-3,4.832311571E-1,4.426626265E-1
4.168659636E0,7.708555087E-3,4.948375523E-1,4.292235970E-1
4.171071042E0,2.786709182E-2,5.052223206E-1,4.127302468E-1
4.173483230E0,4.436044022E-2,5.174396038E-1,3.901282549E-1
4.175896302E0,6.329724193E-2,5.375981331E-1,3.595850170E-1
4.178308438E0,8.956442773E-2,5.602000952E-1,3.302635252E-1
4.180719896E0,1.201076657E-1,5.889107585E-1,2.997202873E-1
4.183132084E0,1.512617618E-1,6.255626678E-1,2.703987956E-1
4.185545157E0,1.793615371E-1,6.616036892E-1,2.477967888E-1
4.187957292E0,2.031852603E-1,6.897034645E-1,2.325251698E-1
4.190368750E0,2.221220732E-1,7.080293894E-1,2.239730656E-1
4.192780938E0,2.349502295E-1,7.214683890E-1,2.190861404E-1
4.195193959E0,2.410588712E-1,7.349074483E-1,2.123666257E-1
4.197606146E0,2.459457964E-1,7.495681643E-1,2.050362527E-1
4.200017552E0,2.526652813E-1,7.642289400E-1,2.013710737E-1
4.202429792E0,2.575522065E-1,7.862200737E-1,1.940406859E-1
4.204842813E0,2.654934525E-1,8.155415654E-1,1.885429025E-1
4.207255000E0,2.783216238E-1,8.595238328E-1,1.824342608E-1
4.209666407E0,3.045887947E-1,9.193885922E-1,1.781582087E-1
4.212078594E0,3.394080698E-1,9.926923513E-1,1.720495671E-1
4.214491667E0,3.833903372E-1,1.080045938E0,1.641083211E-1
4.216903802E0,4.359247088E-1,1.175340891E0,1.549453437E-1
4.219315261E0,4.835721552E-1,1.255364180E0,1.531127542E-1
4.221727448E0,4.988437593E-1,1.270635843E0,1.744930148E-1
4.224140521E0,4.866264760E-1,1.224820971E0,1.958732903E-1
4.226552657E0,4.536397755E-1,1.136856437E0,2.080905735E-1
4.228964115E0,4.121009707E-1,1.037896276E0,2.093123049E-1
4.231376302E0,3.785034120E-1,9.554296136E-1,1.915972382E-1
4.233789323E0,3.589557409E-1,9.090038538E-1,1.579996645E-1
4.236201511E0,3.552905619E-1,8.973974586E-1,1.182934642E-1
4.238612917E0,3.583448827E-1,8.961757421E-1,8.591763675E-2
4.241025157E0,3.565123081E-1,8.839583993E-1,7.064601779E-2
4.243438177E0,3.424623907E-1,8.497499824E-1,7.064601779E-2
4.245850365E0,3.149735034E-1,7.935504317E-1,7.553293556E-2
4.248261771E0,2.777107358E-1,7.239118814E-1,7.919812202E-2
4.250674011E0,2.343393713E-1,6.499972343E-1,8.591763675E-2
4.253087032E0,1.854701936E-1,5.754717588E-1,9.141542017E-2
4.255499219E0,1.402661949E-1,5.088874698E-1,9.263714403E-2
4.257910625E0,1.011708528E-1,4.636834562E-1,8.591763675E-2
4.260322813E0,7.673626393E-2,4.416923225E-1,7.492206991E-2
4.262735886E0,6.146465242E-2,4.453575313E-1,6.026131660E-2
4.265148021E0,5.474514142E-2,4.642943144E-1,4.376797378E-2
4.267559480E0,5.291254446E-2,4.936158359E-1,2.299856953E-2
4.269971667E0,5.169081688E-2,5.278242826E-1,-2.142896410E-4
4.272384740E0,4.985822365E-2,5.644761920E-1,-2.098369226E-2
4.274796875E0,4.497130588E-2,5.956302881E-1,-3.930963576E-2
4.277208282E0,3.764092922E-2,6.194540262E-1,-5.274865776E-2
4.279620521E0,2.847795561E-2,6.414451003E-1,-6.435509026E-2
4.282033542E0,2.298017405E-2,6.671014428E-1,-7.107459754E-2
4.284445730E0,1.931498386E-2,7.086402178E-1,-7.657238096E-2
4.286857136E0,2.114757895E-2,7.514007688E-1,-7.535064965E-2
4.289269375E0,2.298017405E-2,7.984373569E-1,-7.535064965E-2
4.291682396E0,2.908881940E-2,8.485282660E-1,-7.718324661E-2
4.294094584E0,4.191698134E-2,9.083930254E-1,-8.451361954E-2
4.296505990E0,5.596686900E-2,9.743664265E-1,-9.673091769E-2
4.298918177E0,6.818415970E-2,1.034842014E0,-1.107808053E-1
4.301331250E0,7.551454008E-2,1.080656886E0,-1.278850138E-1
4.303743386E0,7.246021181E-2,1.103869677E0,-1.437675059E-1
4.306154844E0,6.024292484E-2,1.101426244E0,-1.517087370E-1
4.308567032E0,4.374957457E-2,1.086154699E0,-1.565956622E-1
4.310980105E0,2.664536051E-2,1.077602506E0,-1.578173935E-1
4.313392240E0,1.809325628E-2,1.099593639E0,-1.590391248E-1
4.315803646E0,1.809325628E-2,1.146019340E0,-1.578173935E-1
4.318215886E0,1.259547286E-2,1.179616928E0,-1.523196101E-1
4.320628907E0,3.781786654E-4,1.180227757E0,-1.456000954E-1
4.323041094E0,-1.916949265E-2,1.163734436E0,-1.419349015E-1
4.325452500E0,-3.871716186E-2,1.142965078E0,-1.413240433E-1
4.327864740E0,-5.398878083E-2,1.113643527E0,-1.370479912E-1
4.330277761E0,-6.193001941E-2,1.089208961E0,-1.315502077E-1
4.332689948E0,-5.582137406E-2,1.087987185E0,-1.272741556E-1
4.335101355E0,-3.444110975E-2,1.128304362E0,-1.315502077E-1
4.337513542E0,-5.730468314E-3,1.194888592E0,-1.388805807E-1
4.339926615E0,1.320633758E-2,1.226653576E0,-1.278850138E-1
4.342338750E0,1.259547286E-2,1.194888592E0,-9.612005204E-2
4.344750209E0,-2.676144941E-3,1.114865303E0,-5.397038907E-2
4.347162396E0,-2.405641042E-2,1.018348694E0,-9.988125414E-3
4.349575469E0,-3.993889317E-2,9.419905543E-1,3.338327259E-2
4.351987605E0,-4.116062075E-2,9.102256298E-1,6.575910002E-2
4.354399063E0,-3.383024409E-2,9.096147418E-1,8.164158463E-2
4.356811250E0,-2.772159874E-2,9.138907790E-1,8.775023371E-2
4.359224323E0,-2.772159874E-2,9.041169286E-1,9.385887533E-2
4.361636459E0,-3.321937844E-2,8.821258545E-1,9.385887533E-2
4.364047865E0,-4.238234833E-2,8.576912284E-1,9.141542017E-2
4.366460105E0,-5.276704952E-2,8.375326991E-1,8.469590545E-2
4.368873125E0,-5.826483294E-2,8.277588487E-1,7.370033860E-2
4.371285313E0,-6.009742618E-2,8.338674903E-1,5.781786144E-2
4.373696719E0,-5.887569860E-2,8.546369076E-1,3.460500017E-2
4.376108959E0,-5.215618387E-2,8.827366829E-1,8.337814361E-3
4.378521980E0,-4.177148640E-2,9.212211967E-1,-2.403801680E-2
4.380934115E0,-3.016505763E-2,9.609273672E-1,-5.458125472E-2
4.383345573E0,-2.466727607E-2,9.994118214E-1,-8.390276134E-2
4.385757761E0,-2.161295153E-2,1.028733373E0,-1.052830219E-1
4.388170834E0,-2.405641042E-2,1.049502730E0,-1.193329096E-1
4.390582969E0,-3.016505763E-2,1.066606998E0,-1.272741556E-1
4.392994375E0,-4.299321398E-2,1.081267715E0,-1.327719390E-1
4.395406615E0,-6.070829183E-2,1.091652393E0,-1.333827972E-1
4.397819636E0,-8.086682856E-2,1.098371983E0,-1.315502077E-1
4.400231823E0,-9.797104448E-2,1.108145833E0,-1.339936703E-1
4.402643230E0,-1.126317978E-1,1.122195721E0,-1.364371181E-1
4.405055469E0,-1.242382228E-1,1.144186735E0,-1.419349015E-1
4.407468490E0,-1.327903271E-1,1.169843078E0,-1.480435580E-1
4.409880677E0,-1.395098418E-1,1.192445159E0,-1.541521996E-1
4.412292084E0,-1.425641626E-1,1.214436293E0,-1.590391248E-1
4.414704271E0,-1.437858939E-1,1.238870859E0,-1.651477665E-1
4.417117344E0,-1.425641626E-1,1.260861993E0,-1.688129604E-1
4.419529480E0,-1.419533044E-1,1.277966142E0,-1.712564081E-1
4.421940938E0,-1.407315731E-1,1.289572597E0,-1.718672812E-1
4.424353125E0,-1.382881105E-1,1.294459462E0,-1.706455499E-1
4.426766198E0,-1.382881105E-1,1.294459462E0,-1.700346768E-1
4.429178334E0,-1.382881105E-1,1.293237805E0,-1.700346768E-1
4.431589792E0,-1.352337897E-1,1.298124671E0,-1.712564081E-1
4.434001980E0,-1.315685958E-1,1.301789880E0,-1.743107438E-1
4.436415052E0,-1.285142750E-1,1.304233313E0,-1.785867959E-1
4.438827188E0,-1.266816854E-1,1.309120297E0,-1.846954376E-1
4.441238594E0,-1.236273646E-1,1.312785506E0,-1.901932210E-1
4.443650834E0,-1.217947677E-1,1.310341954E0,-1.926366836E-1
4.446063855E0,-1.242382228E-1,1.303011656E0,-1.926366836E-1
4.448476042E0,-1.291251481E-1,1.293848634E0,-1.901932210E-1
4.450887448E0,-1.358446628E-1,1.282242179E0,-1.834737062E-1
4.453299688E0,-1.437858939E-1,1.274300933E0,-1.767541915E-1
4.455712709E0,-1.511162668E-1,1.266359687E0,-1.736998707E-1
4.458124844E0,-1.596683860E-1,1.263916254E0,-1.730890125E-1
4.460536302E0,-1.645552963E-1,1.258418441E0,-1.694238186E-1
4.462948490E0,-1.712748110E-1,1.251698971E0,-1.694238186E-1
4.465361563E0,-1.792160571E-1,1.246201158E0,-1.700346768E-1
4.467773698E0,-1.883790195E-1,1.239481688E0,-1.688129604E-1
4.470185157E0,-1.957093924E-1,1.233373046E0,-1.688129604E-1
4.472597344E0,-2.030397803E-1,1.226042628E0,-1.700346768E-1
4.475010417E0,-2.097592801E-1,1.221766591E0,-1.718672812E-1
4.477422552E0,-2.164787948E-1,1.222377419E0,-1.724781394E-1
4.479833959E0,-2.213657200E-1,1.221155763E0,-1.712564081E-1
4.482246198E0,-2.256417722E-1,1.219323158E0,-1.675912291E-1
4.484659219E0,-2.274743617E-1,1.218712330E0,-1.633151770E-1
4.487071407E0,-2.262526304E-1,1.219323158E0,-1.590391248E-1
4.489482813E0,-2.262526304E-1,1.219933987E0,-1.565956622E-1
4.491895052E0,-2.280852348E-1,1.221155763E0,-1.559847891E-1
4.494308073E0,-2.286960930E-1,1.220544934E0,-1.547630727E-1
4.496720261E0,-2.280852348E-1,1.221766591E0,-1.559847891E-1
4.499131667E0,-2.274743617E-1,1.223599195E0,-1.596499830E-1
4.501543855E0,-2.268635035E-1,1.231540442E0,-1.657586247E-1
4.503956927E0,-2.250308990E-1,1.238259912E0,-1.675912291E-1
4.506369063E0,-2.238091826E-1,1.241925120E0,-1.712564081E-1
4.508780521E0,-2.213657200E-1,1.241925120E0,-1.804193854E-1
4.511192709E0,-2.189222574E-1,1.238870859E0,-1.920258105E-1
4.513605782E0,-2.134244740E-1,1.236427307E0,-2.048539668E-1
4.516017917E0,-2.073158324E-1,1.233983874E0,-2.176821381E-1
4.518429323E0,-1.969311237E-1,1.226042628E0,-2.256233692E-1
4.520841563E0,-1.914333403E-1,1.221155763E0,-2.360080779E-1
4.523254584E0,-1.889898926E-1,1.216879725E0,-2.439493239E-1
4.525666771E0,-1.847138405E-1,1.208327532E0,-2.463927865E-1
4.528078177E0,-1.779943258E-1,1.195499420E0,-2.463927865E-1
4.530490365E0,-1.743291318E-1,1.185725570E0,-2.463927865E-1
4.532903438E0,-1.676096171E-1,1.176562667E0,-2.427275777E-1
4.535315625E0,-1.596683860E-1,1.174730062E0,-2.427275777E-1
4.537727032E0,-1.480619460E-1,1.173508286E0,-2.421167195E-1
4.540139219E0,-1.346229315E-1,1.170454025E0,-2.421167195E-1
4.542552292E0,-1.199621707E-1,1.162512779E0,-2.396732569E-1
4.544964427E0,-1.040796936E-1,1.155793190E0,-2.378406525E-1
4.547375886E0,-8.758634329E-2,1.147241116E0,-2.347863317E-1
4.549788073E0,-7.170385867E-2,1.136245608E0,-2.341754735E-1
4.552201146E0,-5.704310164E-2,1.119752169E0,-2.323428988E-1
4.554613282E0,-4.726926610E-2,1.100204587E0,-2.311211526E-1
4.557024688E0,-3.932802752E-2,1.075769901E0,-2.329537570E-1
4.559436927E0,-3.505197540E-2,1.047059298E0,-2.335646152E-1
4.561849948E0,-3.566283733E-2,1.020792127E0,-2.360080779E-1
4.564262136E0,-3.688456863E-2,9.969683886E-1,-2.366189361E-1
4.566673542E0,-3.810629621E-2,9.761990309E-1,-2.402841151E-1
4.569085782E0,-3.932802752E-2,9.578730464E-1,-2.470036447E-1
4.571498802E0,-3.871716186E-2,9.407688379E-1,-2.512796819E-1
4.573910990E0,-4.238234833E-2,9.261080623E-1,-2.610535324E-1
4.576322396E0,-4.482581094E-2,9.090038538E-1,-2.708273530E-1
4.578734584E0,-4.482581094E-2,8.888453245E-1,-2.799903452E-1
4.581147657E0,-4.421494529E-2,8.680759668E-1,-2.897641659E-1
4.583559792E0,-4.238234833E-2,8.454739451E-1,-2.983162701E-1
4.585971250E0,-3.993889317E-2,8.222610950E-1,-3.062575161E-1
4.588383438E0,-3.505197540E-2,7.996590734E-1,-3.166422248E-1
4.590796511E0,-2.772159874E-2,7.740027905E-1,-3.294703662E-1
4.593208646E0,-2.283468097E-2,7.489573359E-1,-3.416876793E-1
4.595620052E0,-1.550430432E-2,7.226901054E-1,-3.557375669E-1
4.598032292E0,-4.508738872E-3,6.903142929E-1,-3.679548502E-1
4.600445313E0,4.043367226E-3,6.561058760E-1,-3.801721334E-1
4.602857500E0,1.198460814E-2,6.237300634E-1,-3.930003047E-1
4.605268907E0,1.992584951E-2,5.925759673E-1,-4.033850133E-1
4.607681146E0,2.603449672E-2,5.632544160E-1,-4.137697220E-1
4.610094167E0,3.092141449E-2,5.321003199E-1,-4.217109382E-1
4.612506355E0,3.519747034E-2,5.015571117E-1,-4.290413260E-1
4.614917761E0,3.641919792E-2,4.710138440E-1,-4.375934303E-1
4.617329948E0,3.275401145E-2,4.392488599E-1,-4.473672807E-1
4.619743021E0,3.092141449E-2,4.001535177E-1,-4.589737058E-1
4.622155157E0,2.786709182E-2,3.586147428E-1,-4.705801308E-1
4.624566615E0,2.786709182E-2,3.170759380E-1,-4.821865559E-1
4.626978802E0,2.847795561E-2,2.755371332E-1,-4.944038391E-1
4.629391875E0,3.275401145E-2,2.327766269E-1,-5.053994060E-1
4.631804011E0,3.947352245E-2,1.918486804E-1,-5.157841444E-1
4.634215469E0,4.802562669E-2,1.484772861E-1,-5.267796516E-1
4.636627657E0,5.779946223E-2,1.075493395E-1,-5.377752185E-1
4.639040677E0,6.879502535E-2,6.906487048E-2,-5.475490689E-1
4.641452865E0,7.979059219E-2,3.119125776E-2,-5.567120314E-1
4.643864271E0,9.017529339E-2,-3.628032515E-3,-5.683184862E-1
4.646276511E0,9.933826327E-2,-3.233867511E-2,-5.805357695E-1
4.648689532E0,1.085012332E-1,-5.921672285E-2,-5.921422243E-1
4.651101719E0,1.182750687E-1,-7.937525213E-2,-6.086355448E-1
4.653513125E0,1.268271804E-1,-9.525774419E-2,-6.257397532E-1
4.655925313E0,1.347684115E-1,-1.044207066E-1,-6.361244917E-1
4.658338386E0,1.414879262E-1,-1.062533110E-1,-6.446765661E-1
4.660750521E0,1.451531202E-1,-1.019772440E-1,-6.538395286E-1
4.663161980E0,1.482074410E-1,-9.770119190E-2,-6.575047374E-1
4.665574167E0,1.512617618E-1,-8.792735636E-2,-6.605590582E-1
4.667987240E0,1.549269557E-1,-6.837968528E-2,-6.630024910E-1
4.670399375E0,1.573704034E-1,-4.211251065E-2,-6.617807746E-1
4.672810782E0,1.616464704E-1,-1.462359726E-2,-6.599481702E-1
4.675223021E0,1.677551121E-1,1.591963880E-2,-6.556721330E-1
4.677636042E0,1.775289476E-1,5.073892325E-2,-6.513960958E-1
4.680048230E0,1.897462457E-1,8.739081025E-2,-6.458982825E-1
4.682459636E0,2.025744021E-1,1.209883690E-1,-6.342918873E-1
4.684871875E0,2.184568793E-1,1.527533382E-1,-6.226854324E-1
4.687284896E0,2.373936921E-1,1.796313822E-1,-6.104681492E-1
4.689697084E0,2.538870275E-1,2.016225159E-1,-5.958073735E-1
4.692108490E0,2.728238404E-1,2.168941349E-1,-5.756488442E-1
4.694520677E0,2.905389071E-1,2.217810452E-1,-5.518251061E-1
4.696933750E0,3.045887947E-1,2.181158662E-1,-5.286122561E-1
4.699345886E0,3.210821450E-1,2.022333741E-1,-5.060102940E-1
4.701757344E0,3.369646370E-1,1.723010093E-1,-4.827974439E-1
4.704169532E0,3.491819203E-1,1.313730627E-1,-4.565302432E-1
4.706582605E0,3.632318079E-1,7.883870602E-2,-4.308739305E-1
4.708994740E0,3.760599792E-1,2.630433999E-2,-4.076610506E-1
4.711406198E0,3.919424415E-1,-2.989521436E-2,-3.838373423E-1
4.713818386E0,4.072140753E-1,-9.037081897E-2,-3.587918878E-1
4.716231407E0,4.206530750E-1,-1.520681679E-1,-3.306921124E-1
4.718643594E0,4.359247088E-1,-2.137655020E-1,-2.983162701E-1
4.721055000E0,4.469202757E-1,-2.742411196E-1,-2.647187114E-1
4.723467240E0,4.554723799E-1,-3.371601999E-1,-2.311211526E-1
4.725880261E0,4.658570886E-1,-4.019118547E-1,-2.017996460E-1
4.728292448E0,4.750200510E-1,-4.672743678E-1,-1.767541915E-1
4.730703855E0,4.866264760E-1,-5.289716721E-1,-1.547630727E-1
4.733116042E0,4.988437593E-1,-5.900581479E-1,-1.364371181E-1
4.735529115E0,5.116719604E-1,-6.425924897E-1,-1.229981035E-1
4.737941250E0,5.269435644E-1,-6.926833987E-1,-1.126133949E-1
4.740352709E0,5.440477729E-1,-7.342222333E-1,-1.101699471E-1
4.742764896E0,5.611519814E-1,-7.635437250E-1,-1.144459993E-1
4.745177969E0,5.806996822E-1,-7.837022543E-1,-1.211654991E-1
4.747590105E0,6.008582115E-1,-7.910326719E-1,-1.321610659E-1
4.750001563E0,6.222384572E-1,-7.867565751E-1,-1.498761475E-1
4.752413750E0,6.472839117E-1,-7.684306502E-1,-1.736998707E-1
4.754826771E0,6.772162914E-1,-7.354439497E-1,-1.999670565E-1
4.757238959E0,7.077595592E-1,-6.853530407E-1,-2.298994362E-1
4.759650365E0,7.425788045E-1,-6.187688112E-1,-2.604426742E-1
4.762062605E0,7.780089974E-1,-5.338585973E-1,-2.964836955E-1
4.764475625E0,8.146608472E-1,-4.342876673E-1,-3.337464333E-1
4.766887813E0,8.476475477E-1,-3.231103122E-1,-3.697874546E-1
4.769299219E0,8.818559647E-1,-2.101003081E-1,-4.015524089E-1
4.771711407E0,9.130100608E-1,-1.050315797E-1,-4.302630424E-1
4.774124480E0,9.380555153E-1,-1.462359726E-2,-4.546976388E-1
4.776536615E0,9.576032162E-1,6.051275879E-2,-4.754670262E-1
4.778948073E0,9.728748202E-1,1.209883690E-1,-4.980690479E-1
4.781360261E0,9.881464243E-1,1.637489051E-1,-5.206710100E-1
4.783773334E0,1.002807140E0,1.918486804E-1,-5.438839197E-1
4.786185469E0,1.012580991E0,2.120072097E-1,-5.646532774E-1
4.788596927E0,1.018689632E0,2.205593139E-1,-5.835900903E-1
4.791009115E0,1.025409102E0,2.175049931E-1,-5.988616943E-1
4.793422136E0,1.027241707E0,2.065094262E-1,-6.098572612E-1
4.795834323E0,1.026630878E0,1.875726283E-1,-6.190202832E-1
4.798245730E0,1.022965670E0,1.643597633E-1,-6.294049621E-1
4.800657969E0,1.016857028E0,1.387034506E-1,-6.349027157E-1
4.803070990E0,1.009526610E0,1.087710708E-1,-6.385679245E-1
4.805483177E0,9.997528791E-1,7.395179570E-2,-6.404005289E-1
4.807894584E0,9.875355959E-1,3.363471478E-2,-6.379570365E-1
4.810306771E0,9.728748202E-1,-9.736679494E-3,-6.275723577E-1
4.812719844E0,9.569923282E-1,-6.043845415E-2,-6.098572612E-1
4.815131980E0,9.350011945E-1,-1.080859005E-1,-5.933639407E-1
4.817543438E0,9.123992324E-1,-1.569550782E-1,-5.744271278E-1
4.819955625E0,8.897972107E-1,-2.046025246E-1,-5.493816733E-1
4.822368698E0,8.665843606E-1,-2.491956502E-1,-5.243362188E-1
4.824780834E0,8.445932269E-1,-2.931779325E-1,-4.992907643E-1
4.827192240E0,8.207694888E-1,-3.316624165E-1,-4.760779142E-1
4.829604480E0,7.993892431E-1,-3.683142960E-1,-4.559193850E-1
4.832017500E0,7.767872810E-1,-4.019118547E-1,-4.400368929E-1
4.834429688E0,7.547961473E-1,-4.318442047E-1,-4.235435426E-1
4.836841094E0,7.309724092E-1,-4.593331218E-1,-4.076610506E-1
4.839253334E0,7.040943503E-1,-4.782699347E-1,-3.942220211E-1
4.841666355E0,6.839358211E-1,-4.990393519E-1,-3.765069544E-1
4.844078490E0,6.619446874E-1,-5.185869932E-1,-3.594027460E-1
4.846489948E0,6.411752701E-1,-5.338585973E-1,-3.422985375E-1
4.848902136E0,6.222384572E-1,-5.479084849E-1,-3.276377916E-1
4.851315209E0,6.002473235E-1,-5.625692606E-1,-3.160313368E-1
4.853727344E0,5.800887942E-1,-5.784516931E-1,-3.050357997E-1
4.856138802E0,5.605411530E-1,-5.955559611E-1,-2.970945537E-1
4.858550990E0,5.403826237E-1,-6.108275652E-1,-2.940402329E-1
4.860964063E0,5.202240944E-1,-6.297643781E-1,-2.958728075E-1
4.863376198E0,5.000655651E-1,-6.474794149E-1,-3.007597327E-1
4.865787605E0,4.786852300E-1,-6.615293026E-1,-3.129770160E-1
4.868199844E0,4.579158425E-1,-6.719140410E-1,-3.264160454E-1
4.870612865E0,4.377573133E-1,-6.774117947E-1,-3.386333585E-1
4.873025052E0,4.182096422E-1,-6.804661155E-1,-3.484071791E-1
4.875436459E0,3.980510831E-1,-6.816878319E-1,-3.563484251E-1
4.877848698E0,3.778925538E-1,-6.896290779E-1,-3.612353504E-1
4.880261719E0,3.577340245E-1,-6.969594955E-1,-3.642896712E-1
4.882673855E0,3.357428908E-1,-7.024572492E-1,-3.691765964E-1
4.885085313E0,3.168060780E-1,-7.122310996E-1,-3.703983128E-1
4.887497500E0,2.984801531E-1,-7.226157784E-1,-3.734526336E-1
4.889910573E0,2.838194072E-1,-7.311679125E-1,-3.752852380E-1
4.892322709E0,2.697694898E-1,-7.384982705E-1,-3.752852380E-1
4.894734167E0,2.551087439E-1,-7.446069121E-1,-3.758960962E-1
4.897146355E0,2.422806025E-1,-7.507155538E-1,-3.765069544E-1
4.899559375E0,2.300633043E-1,-7.592676878E-1,-3.752852380E-1
4.901971563E0,2.202894837E-1,-7.629328966E-1,-3.777287006E-1
4.904382969E0,2.123482376E-1,-7.641546130E-1,-3.813938797E-1
4.906795209E0,2.044069916E-1,-7.672089338E-1,-3.862808049E-1
4.909208230E0,1.952440292E-1,-7.653763294E-1,-3.923894465E-1
4.911620417E0,1.897462457E-1,-7.617111206E-1,-4.003306925E-1
4.914031823E0,1.854701936E-1,-7.543807626E-1,-4.064393342E-1
4.916444063E0,1.811941415E-1,-7.397199869E-1,-4.113262594E-1
