"Time (s)","Acceleration x (m/s^2)","Acceleration y (m/s^2)","Acceleration z (m/s^2)"
0.000000000E0,-5.914826989E-1,3.200128317E0,8.541908264E0
2.000000000E-3,-6.644867659E-1,3.155864239E0,8.561732292E0
4.000000000E-3,-7.498639822E-1,3.117566586E0,8.585971832E0
6.000000000E-3,-8.207898140E-1,3.077794075E0,8.618695259E0
8.000000000E-3,-8.739601970E-1,3.038481474E0,8.661168098E0
1.000000000E-2,-9.506512880E-1,2.999513388E0,8.696640968E0
1.200000000E-2,-1.000086784E0,2.989179850E0,8.699571609E0
1.400000000E-2,-1.046486497E0,2.984238386E0,8.680360794E0
1.600000000E-2,-1.065304756E0,2.986584663E0,8.666971207E0
1.800000000E-2,-1.068082094E0,3.019241571E0,8.657519341E0
2.000000000E-2,-1.043689966E0,3.041469336E0,8.659914017E0
2.200000000E-2,-1.037196875E0,3.035196543E0,8.684784889E0
2.400000000E-2,-1.056762338E0,2.987580538E0,8.737524033E0
2.600000000E-2,-1.089400053E0,2.941046953E0,8.786528587E0
2.800000000E-2,-1.114050746E0,2.907528162E0,8.826501846E0
3.000000000E-2,-1.141775608E0,2.868004560E0,8.867424011E0
3.200000000E-2,-1.150835276E0,2.860094309E0,8.878725052E0
3.400000000E-2,-1.118973255E0,2.873683691E0,8.888224602E0
3.600000000E-2,-1.075006127E0,2.896198750E0,8.916084290E0
3.800000000E-2,-1.038901567E0,2.927237272E0,8.946145058E0
4.000000000E-2,-9.990812540E-1,2.942205906E0,8.993857384E0
4.200000000E-2,-9.501916170E-1,2.955699444E0,9.044336319E0
4.400000000E-2,-8.676682711E-1,2.967862129E0,9.095170021E0
4.600000000E-2,-8.058882952E-1,2.971424580E0,9.155676842E0
4.800000000E-2,-7.348092198E-1,2.981077909E0,9.234962463E0
5.000000000E-2,-6.656550765E-1,2.978846788E0,9.316422462E0
5.200000000E-2,-5.922009945E-1,2.967498064E0,9.376105309E0
5.400000000E-2,-5.264466405E-1,2.964730501E0,9.427198410E0
5.600000000E-2,-4.831307232E-1,2.976959944E0,9.466875076E0
5.800000000E-2,-4.552909732E-1,2.973090887E0,9.490999222E0
6.000000000E-2,-4.293282330E-1,2.958610773E0,9.511684418E0
6.200000000E-2,-4.164282978E-1,2.955862284E0,9.519039154E0
6.400000000E-2,-4.171944261E-1,2.957212687E0,9.515716553E0
6.600000000E-2,-4.304296076E-1,2.957720280E0,9.496658325E0
6.800000000E-2,-4.672045410E-1,2.959108829E0,9.474047661E0
7.000000000E-2,-5.229702592E-1,2.959673882E0,9.440251350E0
7.200000000E-2,-5.665543079E-1,2.948976517E0,9.391323090E0
7.400000000E-2,-6.101287603E-1,2.942454815E0,9.346906662E0
7.600000000E-2,-6.644771695E-1,2.925838947E0,9.303456306E0
7.800000000E-2,-7.074579000E-1,2.914691687E0,9.254538536E0
8.000000000E-2,-7.300687432E-1,2.917354107E0,9.201530457E0
8.200000000E-2,-7.499406338E-1,2.910803556E0,9.157793045E0
8.400000000E-2,-7.724747658E-1,2.903831482E0,9.116344452E0
8.600000000E-2,-8.042027354E-1,2.906982183E0,9.063652039E0
8.800000000E-2,-8.342643380E-1,2.936842680E0,9.008825302E0
9.000000000E-2,-8.807119131E-1,2.938652754E0,8.952925682E0
9.200000000E-2,-9.006986618E-1,2.940060616E0,8.901613235E0
9.400000000E-2,-9.239032865E-1,2.959108829E0,8.851085663E0
9.600000000E-2,-9.302526712E-1,2.977122784E0,8.796249390E0
9.800000000E-2,-9.272552133E-1,2.977984667E0,8.741948128E0
1.000000000E-1,-9.182338119E-1,3.002826929E0,8.703009605E0
1.020000000E-1,-8.821005225E-1,3.021329403E0,8.674968719E0
1.040000000E-1,-8.490030766E-1,3.032888412E0,8.655000687E0
1.060000000E-1,-8.231840134E-1,3.046113968E0,8.647712708E0
1.080000000E-1,-7.882765532E-1,3.054915190E0,8.633079529E0
1.100000000E-1,-7.459375262E-1,3.072938681E0,8.627246857E0
1.120000000E-1,-7.103021741E-1,3.085378885E0,8.627793312E0
1.140000000E-1,-6.596887708E-1,3.093921661E0,8.637991905E0
1.160000000E-1,-5.975927711E-1,3.101008415E0,8.655124664E0
1.180000000E-1,-5.409554839E-1,3.111341715E0,8.672497749E0
1.200000000E-1,-5.044008493E-1,3.117030382E0,8.702779770E0
1.220000000E-1,-4.412705302E-1,3.136701107E0,8.735972404E0
1.240000000E-1,-3.714651763E-1,3.145425558E0,8.765306473E0
1.260000000E-1,-3.093883097E-1,3.157837152E0,8.786557198E0
1.280000000E-1,-2.515731454E-1,3.161773205E0,8.832602501E0
1.300000000E-1,-1.975695193E-1,3.174740314E0,8.879988670E0
1.320000000E-1,-1.594155282E-1,3.184891701E0,8.921389580E0
1.340000000E-1,-1.043776199E-1,3.172882318E0,8.957943916E0
1.360000000E-1,-5.531563610E-2,3.177316427E0,9.003166199E0
1.380000000E-1,-1.371398754E-2,3.185312986E0,9.048194885E0
1.400000000E-1,1.851196587E-2,3.186826229E0,9.092575073E0
1.420000000E-1,4.646666721E-2,3.182028055E0,9.131772041E0
1.440000000E-1,7.219954580E-2,3.185370445E0,9.166910172E0
1.460000000E-1,9.165961295E-2,3.187486887E0,9.196033478E0
1.480000000E-1,1.183597594E-1,3.160643101E0,9.228411674E0
1.500000000E-1,1.450503021E-1,3.156601906E0,9.253532410E0
1.520000000E-1,1.682740748E-1,3.151305676E0,9.290039062E0
1.540000000E-1,1.897261143E-1,3.133856773E0,9.308216095E0
1.560000000E-1,1.750448793E-1,3.077593088E0,9.329380989E0
1.580000000E-1,1.527883708E-1,3.024729013E0,9.327054024E0
1.600000000E-1,1.527213454E-1,3.014175653E0,9.272072792E0
1.620000000E-1,1.544738859E-1,3.058190346E0,9.215905190E0
1.640000000E-1,1.531235725E-1,3.106419086E0,9.179303169E0
1.660000000E-1,1.301200688E-1,3.141393900E0,9.148570061E0
1.680000000E-1,1.113782674E-1,3.175535202E0,9.140793800E0
1.700000000E-1,7.803182304E-2,3.206889391E0,9.147641182E0
1.720000000E-1,3.442861885E-2,3.210413933E0,9.151979446E0
1.740000000E-1,-2.876872756E-2,3.214455366E0,9.150074005E0
1.760000000E-1,-1.011406556E-1,3.185542822E0,9.143705368E0
1.780000000E-1,-1.778317243E-1,3.163812876E0,9.119341850E0
1.800000000E-1,-2.410482317E-1,3.130591154E0,9.088016510E0
1.820000000E-1,-3.104034662E-1,3.097847939E0,9.050503731E0
1.840000000E-1,-3.834170103E-1,3.061733961E0,9.013182640E0
1.860000000E-1,-4.621862769E-1,3.033357620E0,9.006852150E0
1.880000000E-1,-5.248090029E-1,3.009607315E0,9.007637978E0
1.900000000E-1,-5.870869756E-1,2.983366966E0,9.020557404E0
1.920000000E-1,-6.320309639E-1,2.958926678E0,9.037115097E0
1.940000000E-1,-6.697635651E-1,2.949733257E0,9.059448242E0
1.960000000E-1,-7.104841471E-1,2.937618494E0,9.085986137E0
1.980000000E-1,-7.833732367E-1,2.851053715E0,9.107371330E0
2.000000000E-1,-8.647474051E-1,2.724505901E0,9.135153770E0
2.020000000E-1,-8.598918915E-1,2.692605495E0,9.133936882E0
2.040000000E-1,-8.012052774E-1,2.742127180E0,9.113059998E0
2.060000000E-1,-7.269849777E-1,2.820829391E0,9.087536812E0
2.080000000E-1,-6.487233043E-1,2.935664892E0,9.051288605E0
2.100000000E-1,-5.736219883E-1,3.041182041E0,9.024780273E0
2.120000000E-1,-4.965382814E-1,3.138635635E0,9.003893852E0
2.140000000E-1,-4.293474257E-1,3.218899012E0,9.003156662E0
2.160000000E-1,-3.909827173E-1,3.270096540E0,9.008414268E0
2.180000000E-1,-3.674716353E-1,3.297850132E0,9.001853943E0
2.200000000E-1,-3.576362729E-1,3.310539246E0,8.988637924E0
2.220000000E-1,-3.614286780E-1,3.314686060E0,8.957886696E0
2.240000000E-1,-3.881958723E-1,3.310529709E0,8.913459778E0
2.260000000E-1,-4.225574434E-1,3.285064936E0,8.862004280E0
2.280000000E-1,-4.337335825E-1,3.263325691E0,8.796200752E0
2.300000000E-1,-4.360128343E-1,3.251344919E0,8.716436386E0
2.320000000E-1,-4.437413216E-1,3.225056648E0,8.630014420E0
2.340000000E-1,-4.338772297E-1,3.213104963E0,8.554406166E0
2.360000000E-1,-4.193204939E-1,3.191442251E0,8.488326073E0
2.380000000E-1,-3.984143138E-1,3.181146860E0,8.445220947E0
2.400000000E-1,-3.741179407E-1,3.198146105E0,8.413196564E0
2.420000000E-1,-3.431561291E-1,3.204811335E0,8.385653496E0
2.440000000E-1,-3.037379980E-1,3.219770193E0,8.359518051E0
2.460000000E-1,-2.717227340E-1,3.226416826E0,8.336333275E0
2.480000000E-1,-2.455110103E-1,3.220737457E0,8.310015678E0
2.500000000E-1,-2.015247494E-1,3.240121126E0,8.300649643E0
2.520000000E-1,-1.446768194E-1,3.263641596E0,8.297872543E0
2.540000000E-1,-1.167125478E-1,3.258029699E0,8.287901878E0
2.560000000E-1,-9.990525246E-2,3.246183157E0,8.282022476E0
2.580000000E-1,-6.512228400E-2,3.225966454E0,8.288888931E0
2.600000000E-1,-3.148854151E-2,3.203528166E0,8.311882973E0
2.620000000E-1,-1.679771952E-2,3.176272392E0,8.344290733E0
2.640000000E-1,5.238513462E-3,3.147542000E0,8.392461777E0
2.660000000E-1,3.167049959E-2,3.115392923E0,8.448534012E0
2.680000000E-1,6.403053552E-2,3.068227053E0,8.530483246E0
2.700000000E-1,1.011693850E-1,3.014453173E0,8.636632919E0
2.720000000E-1,1.525106579E-1,2.982552767E0,8.735359192E0
2.740000000E-1,2.098565698E-1,2.951457024E0,8.837793350E0
2.760000000E-1,2.993422449E-1,2.943680763E0,8.940045357E0
2.780000000E-1,3.897760212E-1,2.937628031E0,9.034605980E0
2.800000000E-1,4.919988811E-1,2.937206507E0,9.092077255E0
2.820000000E-1,6.073036790E-1,2.931632996E0,9.107983589E0
2.840000000E-1,7.126772404E-1,2.906005383E0,9.128631592E0
2.860000000E-1,8.328182697E-1,2.880607605E0,9.170903206E0
2.880000000E-1,9.368224144E-1,2.863829136E0,9.220205307E0
2.900000000E-1,1.052749634E0,2.841543913E0,9.247987747E0
2.920000000E-1,1.163907647E0,2.816385746E0,9.235076904E0
2.940000000E-1,1.231481552E0,2.773778439E0,9.239137650E0
2.960000000E-1,1.269214272E0,2.727800369E0,9.256883621E0
2.980000000E-1,1.312616348E0,2.669170856E0,9.284215927E0
3.000000000E-1,1.346230865E0,2.616641998E0,9.302507401E0
3.020000000E-1,1.377547026E0,2.591436148E0,9.298734665E0
3.040000000E-1,1.412339568E0,2.565588236E0,9.296607971E0
3.060000000E-1,1.473592877E0,2.527903557E0,9.243150711E0
3.080000000E-1,1.591368437E0,2.372318506E0,8.797924995E0
3.100000000E-1,1.597708225E0,2.248950243E0,8.597185135E0
3.120000000E-1,1.540209055E0,2.149677038E0,8.651112556E0
3.140000000E-1,1.458241224E0,2.124375343E0,8.770056725E0
3.160000000E-1,1.376857519E0,2.157214165E0,8.854782104E0
3.180000000E-1,1.273926020E0,2.202225208E0,8.897830009E0
3.200000000E-1,1.136786103E0,2.247820377E0,8.872911453E0
3.220000000E-1,9.608601928E-1,2.207386971E0,8.749054909E0
3.240000000E-1,7.702625990E-1,2.133712530E0,8.595892906E0
3.260000000E-1,6.881510019E-1,2.178187370E0,8.592196465E0
3.280000000E-1,6.675800681E-1,2.269300938E0,8.608400345E0
3.300000000E-1,6.742838025E-1,2.350512266E0,8.610554695E0
3.320000000E-1,7.195342183E-1,2.433524132E0,8.628607750E0
3.340000000E-1,7.633002400E-1,2.523086309E0,8.661973000E0
3.360000000E-1,7.554855347E-1,2.558654547E0,8.676845551E0
3.380000000E-1,7.147553563E-1,2.563165188E0,8.675715446E0
3.400000000E-1,6.446818709E-1,2.539491415E0,8.672976494E0
3.420000000E-1,5.175498128E-1,2.499900818E0,8.642024040E0
3.440000000E-1,3.700382411E-1,2.487690449E0,8.625236511E0
3.460000000E-1,2.829563320E-1,2.536072493E0,8.670955658E0
3.480000000E-1,1.968129575E-1,2.623690605E0,8.749380112E0
3.500000000E-1,1.168274656E-1,2.734188080E0,8.815613747E0
3.520000000E-1,6.091806665E-2,2.874823332E0,8.843367577E0
3.540000000E-1,2.651817910E-2,3.011178017E0,8.793529510E0
3.560000000E-1,-1.544738933E-2,3.123504162E0,8.695434570E0
3.580000000E-1,-7.202716172E-2,3.200406075E0,8.577533722E0
3.600000000E-1,-1.511794776E-1,3.249123335E0,8.464872360E0
3.620000000E-1,-2.294985950E-1,3.227766752E0,8.340066910E0
3.640000000E-1,-3.333303332E-1,3.178771973E0,8.230987549E0
3.660000000E-1,-4.402074814E-1,3.123417854E0,8.112235069E0
3.680000000E-1,-5.694273710E-1,3.045079947E0,7.985198498E0
3.700000000E-1,-7.250504494E-1,2.950863361E0,7.856869698E0
3.720000000E-1,-8.764310479E-1,2.847548485E0,7.729823589E0
3.740000000E-1,-1.031805158E0,2.747059107E0,7.593651295E0
3.760000000E-1,-1.175648808E0,2.635431767E0,7.439905167E0
3.780000000E-1,-1.313315392E0,2.545381069E0,7.314975739E0
3.800000000E-1,-1.445044398E0,2.454267263E0,7.223593712E0
3.820000000E-1,-1.556547165E0,2.373247623E0,7.144039154E0
3.840000000E-1,-1.624044418E0,2.312885046E0,7.087104797E0
3.860000000E-1,-1.656098008E0,2.272049665E0,7.079146862E0
3.880000000E-1,-1.648743033E0,2.245790005E0,7.090744019E0
3.900000000E-1,-1.625854492E0,2.226636171E0,7.089910984E0
3.920000000E-1,-1.562254906E0,2.188099146E0,7.067760468E0
3.940000000E-1,-1.486847162E0,2.126682997E0,6.989115238E0
3.960000000E-1,-1.382067204E0,2.047636271E0,6.865162373E0
3.980000000E-1,-1.311438322E0,2.046276331E0,6.952311516E0
4.000000000E-1,-1.272259593E0,2.074317217E0,7.141999722E0
4.020000000E-1,-1.276358485E0,2.104273319E0,7.323623657E0
4.040000000E-1,-1.333177686E0,2.128837824E0,7.478154659E0
4.060000000E-1,-1.432690263E0,2.127554655E0,7.601868153E0
4.080000000E-1,-1.542421341E0,2.119960308E0,7.702673912E0
4.100000000E-1,-1.603444695E0,2.141565323E0,7.840234756E0
4.120000000E-1,-1.620510578E0,2.184306860E0,7.980889797E0
4.140000000E-1,-1.606384873E0,2.228455782E0,8.105866432E0
4.160000000E-1,-1.558271050E0,2.310079098E0,8.196760178E0
4.180000000E-1,-1.521285295E0,2.372356892E0,8.249077797E0
4.200000000E-1,-1.498856425E0,2.379089594E0,8.245755196E0
4.220000000E-1,-1.497218847E0,2.351786137E0,8.189491272E0
4.240000000E-1,-1.530258775E0,2.306564569E0,8.106939316E0
4.260000000E-1,-1.586781144E0,2.243319035E0,8.075029373E0
4.280000000E-1,-1.670511127E0,2.185475111E0,8.063097000E0
4.300000000E-1,-1.767935991E0,2.142714739E0,8.071821213E0
4.320000000E-1,-1.885682821E0,2.102472782E0,8.088226318E0
4.340000000E-1,-2.003544569E0,2.065238237E0,8.120088577E0
4.360000000E-1,-2.110852718E0,2.049810171E0,8.165596962E0
4.380000000E-1,-2.210375071E0,2.040712118E0,8.187508583E0
4.400000000E-1,-2.284863234E0,2.063811541E0,8.158625603E0
4.420000000E-1,-2.312837124E0,2.116962671E0,8.105148315E0
4.440000000E-1,-2.308345795E0,2.217011690E0,8.044154167E0
4.460000000E-1,-2.304304123E0,2.328025818E0,7.945541382E0
4.480000000E-1,-2.315356016E0,2.425824165E0,7.835609436E0
4.500000000E-1,-2.346260309E0,2.502400398E0,7.708764553E0
4.520000000E-1,-2.412914753E0,2.554469585E0,7.563896179E0
4.540000000E-1,-3.101850986E0,2.450446367E0,7.630531788E0
4.560000000E-1,-4.656329632E0,2.177469015E0,8.003021240E0
4.580000000E-1,-6.093319893E0,1.969163775E0,8.511224747E0
4.600000000E-1,-7.022500038E0,1.984381318E0,9.178200722E0
4.620000000E-1,-7.785522461E0,2.117728710E0,9.880956650E0
4.640000000E-1,-8.433298111E0,2.321580887E0,1.027423763E1
4.660000000E-1,-9.043369293E0,2.551567793E0,1.006076050E1
4.680000000E-1,-9.153790474E0,2.779620409E0,8.709340096E0
4.700000000E-1,-8.960597038E0,2.692710638E0,7.186464310E0
4.720000000E-1,-8.395785332E0,2.378926754E0,6.842484951E0
4.740000000E-1,-7.597098827E0,2.374856472E0,7.469717979E0
4.760000000E-1,-6.477292538E0,2.630298853E0,7.762921333E0
4.780000000E-1,-5.115451336E0,3.137965441E0,7.672822952E0
4.800000000E-1,-3.838891745E0,3.668012619E0,7.285479069E0
4.820000000E-1,-2.868655682E0,4.072230816E0,6.589293003E0
4.840000000E-1,-2.276790142E0,4.268708706E0,5.755047798E0
4.860000000E-1,-2.039103270E0,4.277040005E0,5.025352478E0
4.880000000E-1,-2.006791115E0,4.114550591E0,4.471439838E0
4.900000000E-1,-2.111839056E0,3.891631126E0,4.177048683E0
4.920000000E-1,-2.274635315E0,3.632913828E0,4.084153652E0
4.940000000E-1,-2.495103121E0,3.351269484E0,4.113937378E0
4.960000000E-1,-2.729763508E0,3.102761030E0,4.199956417E0
4.980000000E-1,-2.886104822E0,2.903285742E0,4.256928921E0
5.000000000E-1,-2.971319437E0,2.726526260E0,4.283609867E0
5.020000000E-1,-3.014750004E0,2.565578699E0,4.337805271E0
5.040000000E-1,-3.078416824E0,2.434386015E0,4.450735092E0
5.060000000E-1,-3.171072245E0,2.245847464E0,4.501559258E0
5.080000000E-1,-3.333533287E0,2.051380873E0,4.592079163E0
5.100000000E-1,-3.549978495E0,1.903878808E0,4.801542759E0
5.120000000E-1,-3.741284847E0,1.792902708E0,5.082813263E0
5.140000000E-1,-3.845212460E0,1.773404241E0,5.273775101E0
5.160578120E-1,-3.907557487E0,1.812774658E0,5.341627121E0
5.180000000E-1,-3.892445326E0,1.861711979E0,5.369275093E0
5.200000000E-1,-3.883663416E0,1.879888892E0,5.427665234E0
5.220000000E-1,-3.895605564E0,1.833680749E0,5.519515991E0
5.240000000E-1,-3.876298904E0,1.790700078E0,5.608350754E0
5.260000000E-1,-3.803879023E0,1.734723687E0,5.670877457E0
5.280000000E-1,-3.735912323E0,1.635766506E0,5.740165710E0
5.300000000E-1,-3.623844385E0,1.515692472E0,5.760449409E0
5.320000000E-1,-3.435813427E0,1.452648282E0,5.705650806E0
5.340000000E-1,-3.188981056E0,1.439805865E0,5.608580112E0
5.360234370E-1,-3.034526110E0,1.400655866E0,5.457276344E0
5.380000000E-1,-2.945729971E0,1.335667729E0,5.262302399E0
5.400000000E-1,-2.867228985E0,1.230619669E0,5.100329399E0
5.420000000E-1,-2.814048767E0,1.110536098E0,4.956533909E0
5.440000000E-1,-2.766480923E0,9.795540571E-1,4.834975719E0
5.460000000E-1,-2.730960369E0,8.537340164E-1,4.744895935E0
5.480000000E-1,-2.674179792E0,7.291685343E-1,4.654759407E0
5.500000000E-1,-2.632405519E0,5.916551352E-1,4.617189407E0
5.520000000E-1,-2.631074429E0,4.321438372E-1,4.718770504E0
5.540000000E-1,-2.702440977E0,2.911636531E-1,5.017806053E0
5.560000000E-1,-2.807029009E0,2.066866457E-1,5.486926079E0
5.580000000E-1,-2.947367668E0,1.360864192E-1,6.076550961E0
5.600000000E-1,-3.085340500E0,6.006573141E-2,6.666769505E0
5.620000000E-1,-3.334088564E0,-2.257253416E-2,7.423720360E0
5.640000000E-1,-3.683105707E0,-1.630451381E-1,8.453112602E0
5.660000000E-1,-4.044314384E0,-3.043988049E-1,9.536229134E0
5.680000000E-1,-4.317157269E0,-3.995347917E-1,1.045736504E1
5.700000000E-1,-4.734189034E0,-5.245121717E-1,1.157841682E1
5.720000000E-1,-5.509115696E0,-6.588460207E-1,1.329272270E1
5.740000000E-1,-6.569727421E0,-7.661349773E-1,1.512756252E1
5.760000000E-1,-7.435126305E0,-8.309507966E-1,1.661937904E1
5.780000000E-1,-7.797464848E0,-7.778378129E-1,1.768048096E1
5.800000000E-1,-7.882190704E0,-7.180785537E-1,1.844382858E1
5.820000000E-1,-8.140783310E0,-7.588182688E-1,1.902098465E1
5.840000000E-1,-7.985744476E0,-7.258549333E-1,1.903603935E1
5.860000000E-1,-7.493257523E0,-5.781326890E-1,1.838426971E1
5.880000000E-1,-6.997676849E0,-3.978876173E-1,1.740332794E1
5.900000000E-1,-6.560160637E0,-1.307808757E-1,1.641731834E1
5.920000000E-1,-5.969252586E0,1.495226920E-1,1.527600288E1
5.940000000E-1,-5.311268330E0,3.498215973E-1,1.388885021E1
5.960000000E-1,-4.832973480E0,4.615924954E-1,1.254277229E1
5.980000000E-1,-4.520942211E0,5.207962990E-1,1.147430801E1
6.000000000E-1,-4.304296017E0,6.008009911E-1,1.059305000E1
6.020000000E-1,-4.053211212E0,7.908239961E-1,9.947802544E0
6.040000000E-1,-3.821146011E0,9.866601229E-1,9.465428352E0
6.060000000E-1,-3.684006214E0,1.137504339E0,8.971600533E0
6.080000000E-1,-3.665312052E0,1.221100330E0,8.586450577E0
6.100000000E-1,-3.685250998E0,1.367845654E0,8.481153488E0
6.120000000E-1,-3.723759174E0,1.495255589E0,8.517046928E0
6.140000000E-1,-3.822180271E0,1.586465120E0,8.476660728E0
6.160000000E-1,-3.958094120E0,1.652477980E0,8.312869072E0
6.180000000E-1,-4.096766472E0,1.783527017E0,8.190736771E0
6.200000000E-1,-4.263632774E0,1.920456171E0,8.193082809E0
6.220000000E-1,-4.414429188E0,2.036986828E0,8.207553864E0
6.240000000E-1,-4.523796558E0,2.165756702E0,8.016745567E0
6.260000000E-1,-4.601770401E0,2.291500092E0,7.759291649E0
6.280000000E-1,-4.693372726E0,2.419292927E0,7.588767052E0
6.300000000E-1,-4.756397724E0,2.567867517E0,7.470570087E0
6.320000000E-1,-4.768138885E0,2.738248587E0,7.338984966E0
6.340000000E-1,-4.782092094E0,2.876690865E0,7.161632061E0
6.360000000E-1,-4.833988667E0,3.010047913E0,6.994047165E0
6.380000000E-1,-4.925112247E0,3.156075001E0,6.923973560E0
6.400000000E-1,-5.071341038E0,3.265154839E0,6.855078220E0
6.420000000E-1,-5.253721237E0,3.358490467E0,6.801783085E0
6.440000000E-1,-5.429618835E0,3.468298197E0,6.855614662E0
6.460000000E-1,-5.548294544E0,3.571583986E0,6.964359283E0
6.480000000E-1,-5.632599354E0,3.639473915E0,7.040485382E0
6.500000000E-1,-5.673788548E0,3.669104576E0,7.116725922E0
6.520000000E-1,-5.714346886E0,3.674017429E0,7.234176159E0
6.540000000E-1,-5.771127224E0,3.674898386E0,7.419008732E0
6.560000000E-1,-5.803937435E0,3.675568819E0,7.665439129E0
6.580000000E-1,-5.821482658E0,3.677675724E0,7.974386692E0
6.600000000E-1,-5.816243649E0,3.644990206E0,8.188629150E0
6.620000000E-1,-5.769087315E0,3.612112999E0,8.326918602E0
6.640000000E-1,-5.765591621E0,3.592030287E0,8.518550873E0
6.660000000E-1,-5.748755932E0,3.550265789E0,8.722565651E0
6.680000000E-1,-5.718675137E0,3.499499321E0,8.808421135E0
6.700000000E-1,-5.657029152E0,3.477941990E0,8.808460236E0
6.720000000E-1,-5.602326870E0,3.461383581E0,8.837631226E0
6.740000000E-1,-5.546513081E0,3.408395052E0,8.835447311E0
6.760000000E-1,-5.487864971E0,3.313622952E0,8.779191971E0
6.780000000E-1,-5.418394566E0,3.204715490E0,8.679967880E0
6.800000000E-1,-5.326562405E0,3.085465193E0,8.576251030E0
6.820000000E-1,-5.190437794E0,2.973253727E0,8.489533424E0
6.840000000E-1,-5.078676224E0,2.853189230E0,8.437042236E0
6.860000000E-1,-4.990014076E0,2.725128174E0,8.432962418E0
6.880000000E-1,-4.923589706E0,2.599624157E0,8.452556610E0
6.900000000E-1,-4.865946770E0,2.471524954E0,8.441093445E0
6.920000000E-1,-4.819959164E0,2.357618332E0,8.415734291E0
6.940000000E-1,-4.788547039E0,2.241231441E0,8.430998802E0
6.960000000E-1,-4.765686989E0,2.140416145E0,8.452825546E0
6.980000000E-1,-4.712258339E0,2.016741514E0,8.492865562E0
7.000000000E-1,-4.666548252E0,1.875588894E0,8.566061020E0
7.020000000E-1,-4.636994362E0,1.754375219E0,8.563035011E0
7.040000000E-1,-4.600458622E0,1.649930596E0,8.547443390E0
7.060000000E-1,-4.601952553E0,1.562752962E0,8.548554420E0
7.080000000E-1,-4.593716145E0,1.498185992E0,8.567918777E0
7.100000000E-1,-4.580730438E0,1.457034588E0,8.565888405E0
7.120000000E-1,-4.583459854E0,1.424320221E0,8.576193810E0
7.140000000E-1,-4.595095634E0,1.412952542E0,8.598755836E0
7.160000000E-1,-4.594060898E0,1.416457653E0,8.592502594E0
7.180000000E-1,-4.620416641E0,1.399717450E0,8.616626740E0
7.200000000E-1,-4.650076389E0,1.382469535E0,8.663476944E0
7.220000000E-1,-4.691332817E0,1.387660146E0,8.723522186E0
7.240000000E-1,-4.745834351E0,1.390418172E0,8.838972092E0
7.260000000E-1,-4.824115276E0,1.416036248E0,8.977289200E0
7.280000000E-1,-4.896152020E0,1.447285414E0,9.085756302E0
7.300000000E-1,-4.953066826E0,1.467511654E0,9.171009064E0
7.320000000E-1,-5.015948296E0,1.472098827E0,9.281467438E0
7.340000000E-1,-5.057445049E0,1.482805729E0,9.456751823E0
7.360000000E-1,-5.062749863E0,1.486262918E0,9.624911308E0
7.380000000E-1,-5.025496483E0,1.491635442E0,9.764827728E0
7.400000000E-1,-4.919174671E0,1.481914997E0,9.880333900E0
7.420000000E-1,-4.768052578E0,1.466295242E0,9.967252731E0
7.440000000E-1,-4.628844261E0,1.456067204E0,1.005045605E1
7.460000000E-1,-4.507505894E0,1.438618302E0,1.016110706E1
7.480000000E-1,-4.406758308E0,1.384796619E0,1.032993698E1
7.500000000E-1,-4.316745758E0,1.310011387E0,1.048892117E1
7.520000000E-1,-4.219837666E0,1.229920506E0,1.060130501E1
7.540000000E-1,-4.143798351E0,1.158027411E0,1.067800617E1
7.560000000E-1,-4.139670372E0,1.107347012E0,1.074996567E1
7.580000000E-1,-4.194229603E0,1.051839828E0,1.074265862E1
7.600000000E-1,-4.286636353E0,1.018321037E0,1.054418850E1
7.620000000E-1,-4.401768684E0,1.021117449E0,1.015408707E1
7.640000000E-1,-4.515186310E0,1.029535413E0,9.636680603E0
7.660000000E-1,-4.607095242E0,1.060324907E0,9.084012985E0
7.680000000E-1,-4.693372726E0,1.103707910E0,8.622841835E0
7.700000000E-1,-4.766338348E0,1.138462067E0,8.341848373E0
7.720000000E-1,-4.849417210E0,1.158123255E0,8.282415390E0
7.740000000E-1,-4.963103294E0,1.164520502E0,8.431430817E0
7.760000000E-1,-5.108680725E0,1.150979042E0,8.612174034E0
7.780000000E-1,-5.276762962E0,1.091727257E0,8.718007088E0
7.800000000E-1,-5.422617912E0,1.014480710E0,8.740387917E0
7.820000000E-1,-5.520282269E0,9.561291933E-1,8.689716339E0
7.840000000E-1,-5.573576927E0,9.329054356E-1,8.600757599E0
7.860000000E-1,-5.600009441E0,9.824080467E-1,8.465810776E0
7.880000000E-1,-5.591188908E0,1.035338998E0,8.307966232E0
7.900000000E-1,-5.553743839E0,1.103066206E0,8.151279449E0
7.920000000E-1,-5.544741154E0,1.181059718E0,8.007646561E0
7.940000000E-1,-5.550506115E0,1.249189138E0,7.882018566E0
7.960000000E-1,-5.586544037E0,1.312194943E0,7.805154800E0
7.980000000E-1,-5.642635345E0,1.357263446E0,7.765956879E0
8.000000000E-1,-5.683260441E0,1.392755032E0,7.766770840E0
8.020000000E-1,-5.730329990E0,1.453117728E0,7.838625908E0
8.040000000E-1,-5.760190964E0,1.533744693E0,8.005271912E0
8.060000000E-1,-5.807366371E0,1.620098829E0,8.230001450E0
8.080000000E-1,-5.864405632E0,1.706797600E0,8.473596573E0
8.100000000E-1,-5.917997360E0,1.796360016E0,8.736442566E0
8.120000000E-1,-5.956189632E0,1.859107137E0,8.985984802E0
8.140000000E-1,-6.039804459E0,1.859193325E0,9.221535683E0
8.160000000E-1,-6.183389664E0,1.748284459E0,9.422026634E0
8.180000000E-1,-6.344538689E0,1.577616096E0,9.547080040E0
8.200000000E-1,-6.526660442E0,1.404984593E0,9.619154930E0
8.220000000E-1,-6.356634140E0,1.432776451E0,9.491803169E0
8.240000000E-1,-6.006381989E0,1.569820523E0,9.349387169E0
8.260000000E-1,-5.790807724E0,1.620156288E0,9.413062096E0
8.280000000E-1,-5.590786457E0,1.638668180E0,9.598872185E0
8.300000000E-1,-5.325738907E0,1.632050633E0,9.942612648E0
8.320000000E-1,-4.987351894E0,1.602343440E0,1.038873863E1
8.340000000E-1,-4.573327541E0,1.601778388E0,1.078760242E1
8.360000000E-1,-4.075946331E0,1.602238059E0,1.111104965E1
8.380000000E-1,-3.555973530E0,1.621506572E0,1.127792549E1
8.400000000E-1,-3.070199728E0,1.676985145E0,1.132047558E1
8.420000000E-1,-2.568058968E0,1.781717062E0,1.126367474E1
8.440000000E-1,-1.921710849E0,1.993077159E0,1.111066628E1
8.460000000E-1,-1.225227952E0,2.290197611E0,1.083415508E1
8.480000000E-1,-5.618999600E-1,2.607879400E0,1.044790363E1
8.500000000E-1,-4.412992299E-2,2.900096416E0,9.974464417E0
8.520000000E-1,2.266542763E-1,3.108143091E0,9.335567474E0
8.540000000E-1,3.076549172E-1,3.233647108E0,8.572946548E0
8.560000000E-1,2.321417928E-1,3.265374899E0,7.887036800E0
8.580000000E-1,2.318544872E-2,3.234940052E0,7.429112434E0
8.600000000E-1,-2.843449712E-1,3.136691570E0,7.246942043E0
8.620000000E-1,-6.317244768E-1,2.995625257E0,7.310761929E0
8.640000000E-1,-9.578339458E-1,2.842712402E0,7.523663998E0
8.660000000E-1,-1.380180717E0,2.683287144E0,7.891662121E0
8.680000000E-1,-1.996850491E0,2.610455513E0,8.465753555E0
8.700000000E-1,-2.788249016E0,2.518364906E0,9.081418037E0
8.720000000E-1,-3.351432323E0,2.381905079E0,9.472525597E0
8.740000000E-1,-3.439692020E0,2.261792660E0,9.608142853E0
8.760000000E-1,-3.342765331E0,2.175917387E0,9.666273117E0
8.780000000E-1,-3.166571379E0,2.121339321E0,9.706994057E0
8.800000000E-1,-3.028147936E0,2.062537909E0,9.674202919E0
8.820000000E-1,-2.950250149E0,1.974364042E0,9.509576797E0
8.840000000E-1,-2.826153994E0,1.904951453E0,9.199346542E0
8.860000000E-1,-2.627339602E0,1.812583089E0,8.779289246E0
8.880000000E-1,-2.368717670E0,1.719764590E0,8.363655090E0
8.900000000E-1,-2.144697189E0,1.613069415E0,7.989996910E0
8.920000000E-1,-1.990635037E0,1.526648283E0,7.695864201E0
8.940000000E-1,-2.004157543E0,1.399832249E0,7.465561390E0
8.960000000E-1,-1.999129653E0,1.312060833E0,7.222808361E0
8.980000000E-1,-2.012805462E0,1.243299365E0,6.994143009E0
9.000000000E-1,-2.093739033E0,1.204455853E0,6.781021118E0
9.020000000E-1,-2.277527332E0,1.155987620E0,6.676719666E0
9.040000000E-1,-2.555245399E0,1.111388445E0,6.867068291E0
9.060000000E-1,-2.805947065E0,1.102213860E0,7.278420925E0
9.080000000E-1,-3.079422235E0,1.102549076E0,7.753507137E0
9.100000000E-1,-3.312512159E0,1.136230707E0,8.153903961E0
9.120000000E-1,-3.510598898E0,1.186049223E0,8.479936600E0
9.140000000E-1,-3.684628487E0,1.251525879E0,8.664510727E0
9.160000000E-1,-3.819939137E0,1.334039569E0,8.642925262E0
9.180000000E-1,-3.888978481E0,1.545045376E0,8.293945312E0
9.200000000E-1,-3.849512339E0,1.781132817E0,7.993578434E0
9.220000000E-1,-3.902912617E0,1.933566928E0,7.947380543E0
9.240000000E-1,-3.997081518E0,2.018503428E0,7.995331287E0
9.260000000E-1,-3.956810951E0,2.084784746E0,7.967989445E0
9.280000000E-1,-3.829621315E0,2.176980495E0,7.891653061E0
9.300000000E-1,-3.662295341E0,2.246029377E0,7.804867744E0
9.320000000E-1,-3.544261217E0,2.290714741E0,7.703794003E0
9.340000000E-1,-3.477242708E0,2.301316261E0,7.609500885E0
9.360000000E-1,-3.406135082E0,2.302953959E0,7.440546989E0
9.380000000E-1,-3.307819605E0,2.312147617E0,7.193972588E0
9.400000000E-1,-3.285505533E0,2.285380363E0,6.958642006E0
9.420000000E-1,-3.315835238E0,2.255596638E0,6.753046989E0
9.440000000E-1,-3.366056204E0,2.249275923E0,6.609825611E0
9.460000000E-1,-3.528009415E0,2.207520962E0,6.573357582E0
9.480000000E-1,-3.644099474E0,2.201286554E0,6.602145195E0
9.500000000E-1,-3.693046570E0,2.226032972E0,6.703639984E0
9.520000000E-1,-3.783901691E0,2.187323570E0,6.875313759E0
9.540000000E-1,-3.787301540E0,2.142982960E0,7.022088528E0
9.560000000E-1,-3.764298201E0,2.108152151E0,7.148205280E0
9.580000000E-1,-3.798276663E0,2.068456411E0,7.262169361E0
9.600000000E-1,-3.789887190E0,2.038375378E0,7.427896023E0
9.620000000E-1,-3.819144249E0,2.027888775E0,7.561607361E0
9.640000000E-1,-3.928252935E0,2.006752729E0,7.610267162E0
9.660000000E-1,-4.051563740E0,1.987407684E0,7.641257286E0
9.680000000E-1,-4.161409855E0,1.990558505E0,7.651207924E0
9.700000000E-1,-4.278055191E0,2.029449940E0,7.586602688E0
9.720000000E-1,-4.430480003E0,2.047406435E0,7.367619514E0
9.740000000E-1,-4.590335846E0,2.060651064E0,7.128218174E0
9.760000000E-1,-4.731852531E0,2.067623138E0,6.984757900E0
9.780000000E-1,-4.864223003E0,2.108276606E0,6.975822926E0
9.800000000E-1,-4.968811512E0,2.173877716E0,7.031214714E0
9.820000000E-1,-5.012491226E0,2.281588078E0,7.041797161E0
9.840000000E-1,-4.963840961E0,2.394690275E0,6.970201015E0
9.860000000E-1,-4.908142090E0,2.495514631E0,6.803555012E0
9.880000000E-1,-4.861005306E0,2.588562965E0,6.572083473E0
9.900000000E-1,-4.839802265E0,2.688200235E0,6.248942852E0
9.920000000E-1,-4.835626602E0,2.778394461E0,5.968878746E0
9.940000000E-1,-4.817986488E0,2.852126122E0,5.805038929E0
9.960000000E-1,-4.727753639E0,2.917306185E0,5.686612129E0
9.980000000E-1,-4.628403664E0,3.000566959E0,5.647864342E0
1.000000000E0,-4.525098801E0,3.125132322E0,5.688680649E0
1.002000000E0,-4.368307114E0,3.262205124E0,5.804052830E0
1.004000000E0,-4.183762074E0,3.406144619E0,5.966915607E0
1.006000000E0,-3.979708910E0,3.532031775E0,6.098510742E0
1.008000000E0,-3.857959270E0,3.647662163E0,6.197994709E0
1.010000000E0,-3.796686649E0,3.736094236E0,6.277855396E0
1.012000000E0,-3.836507082E0,3.806139231E0,6.312734604E0
1.014000000E0,-3.974892139E0,3.868426561E0,6.263901711E0
1.016000000E0,-4.129078388E0,3.953507185E0,6.120115757E0
1.018000000E0,-4.287230015E0,4.036882401E0,5.904475212E0
1.020000000E0,-4.376255989E0,4.088491917E0,5.727217674E0
1.022000000E0,-4.491369247E0,4.149410248E0,5.530892849E0
1.024000000E0,-4.696753502E0,4.242592335E0,5.345629692E0
1.026000000E0,-4.953555584E0,4.330842972E0,5.301854610E0
1.028000000E0,-5.177087784E0,4.399230480E0,5.356040001E0
1.030000000E0,-5.307849407E0,4.418479919E0,5.476410866E0
1.032000000E0,-5.365750790E0,4.423354626E0,5.675483704E0
1.034000000E0,-5.390497208E0,4.418001652E0,5.952617645E0
1.036000000E0,-5.398245335E0,4.406786442E0,6.251806736E0
1.038000000E0,-5.361575127E0,4.419313431E0,6.514077187E0
1.040000000E0,-5.256086826E0,4.465827465E0,6.749560833E0
1.042000000E0,-5.065192223E0,4.516728401E0,7.030668736E0
1.044000000E0,-4.819068432E0,4.573950291E0,7.370148182E0
1.046000000E0,-4.500447750E0,4.653427601E0,7.673665524E0
1.048000000E0,-4.119846821E0,4.747041225E0,7.888521194E0
1.050000000E0,-3.760122538E0,4.825331688E0,8.051355362E0
1.052000000E0,-3.486015081E0,4.917719364E0,8.211977959E0
1.054000000E0,-3.298271418E0,5.051008701E0,8.353531837E0
1.056000000E0,-3.163257599E0,5.202064037E0,8.462545395E0
1.058000000E0,-3.061552048E0,5.336369038E0,8.548151970E0
1.060000000E0,-2.952156067E0,5.477645874E0,8.629564285E0
1.062000000E0,-2.928702354E0,5.647481441E0,8.639314651E0
1.064000000E0,-2.941410780E0,5.835167408E0,8.599866867E0
1.066000000E0,-2.897587299E0,6.042227745E0,8.548066139E0
1.068000000E0,-2.710561991E0,6.221802235E0,8.446485519E0
1.070000000E0,-2.361947060E0,6.358606815E0,8.277224541E0
1.072000000E0,-2.032859325E0,6.425022602E0,8.088207245E0
1.074000000E0,-1.897184610E0,6.438123703E0,7.892303944E0
1.076000000E0,-1.989897728E0,6.391646862E0,7.742675781E0
1.078000000E0,-2.202129126E0,6.277089119E0,7.624325752E0
1.080000000E0,-2.433035612E0,6.105827332E0,7.510256290E0
1.082000000E0,-2.624773026E0,5.889534950E0,7.416671753E0
1.084000000E0,-2.748218060E0,5.689791679E0,7.335393429E0
1.086000000E0,-2.833317280E0,5.512936592E0,7.238543510E0
1.088000000E0,-2.908332586E0,5.347612381E0,7.106096268E0
1.090000000E0,-2.965994596E0,5.204525471E0,6.954380512E0
1.092000000E0,-2.981729269E0,5.108191967E0,6.813562870E0
1.094000000E0,-2.969049454E0,5.028762341E0,6.701552868E0
1.096000000E0,-2.922151804E0,4.931892395E0,6.613464832E0
1.098000000E0,-2.970390320E0,4.872276783E0,6.516222000E0
1.100000000E0,-3.029910088E0,4.891746521E0,6.418500423E0
1.102000000E0,-3.109244347E0,4.934947968E0,6.339166164E0
1.104000000E0,-3.196479559E0,4.997781277E0,6.312073231E0
1.106000000E0,-3.256143093E0,5.079959393E0,6.301778316E0
1.108000000E0,-3.278418779E0,5.142706871E0,6.286771297E0
1.110000000E0,-3.257110357E0,5.213278294E0,6.249546528E0
1.112000000E0,-3.203049421E0,5.264303684E0,6.183964252E0
1.114000000E0,-3.145962000E0,5.263374329E0,6.086520672E0
1.116000000E0,-3.097522497E0,5.263269424E0,5.970784664E0
1.118000000E0,-3.039831877E0,5.258442879E0,5.851275921E0
1.120000000E0,-2.966693640E0,5.246519566E0,5.712220669E0
1.122000000E0,-2.906331062E0,5.232336521E0,5.576536179E0
1.124000000E0,-2.843459129E0,5.224224567E0,5.444146633E0
1.126000000E0,-2.756798744E0,5.205387115E0,5.316641331E0
1.128000000E0,-2.669410467E0,5.213000298E0,5.210328579E0
1.130000000E0,-2.601166010E0,5.197208405E0,5.139738083E0
1.132000000E0,-2.526802301E0,5.157321453E0,5.071637630E0
1.134000000E0,-2.451844454E0,5.102560997E0,5.005078793E0
1.136000000E0,-2.361956596E0,5.054657936E0,4.930503845E0
1.138000000E0,-2.261792660E0,4.993758678E0,4.865535259E0
1.140000000E0,-2.159770966E0,4.915851593E0,4.823263168E0
1.142000000E0,-2.076902866E0,4.855077267E0,4.787091255E0
1.144000000E0,-1.974478960E0,4.786880970E0,4.746112347E0
1.146000000E0,-1.865169287E0,4.719555855E0,4.735548973E0
1.148000000E0,-1.739128947E0,4.666136265E0,4.752528667E0
1.150000000E0,-1.618442059E0,4.635155201E0,4.767841816E0
1.152000000E0,-1.578200340E0,4.625721931E0,4.733921051E0
1.154000000E0,-1.527816772E0,4.631545067E0,4.680243015E0
1.156000000E0,-1.405616641E0,4.665561676E0,4.614938259E0
1.158000000E0,-1.234067440E0,4.673414707E0,4.543562889E0
1.160000000E0,-1.067833185E0,4.654222488E0,4.493399620E0
1.162000000E0,-9.419651628E-1,4.617735386E0,4.502880573E0
1.164000000E0,-8.443583250E-1,4.552641392E0,4.578106403E0
1.166000000E0,-8.419162631E-1,4.500782967E0,4.694540977E0
1.168000000E0,-8.816599846E-1,4.497181892E0,4.850106716E0
1.170000000E0,-9.116066694E-1,4.531380653E0,5.036739826E0
1.172000000E0,-9.427025914E-1,4.611500263E0,5.209208488E0
1.174000000E0,-9.469546676E-1,4.722773552E0,5.349451065E0
1.176000000E0,-9.265655875E-1,4.864500523E0,5.443189144E0
1.178000000E0,-8.875688314E-1,5.053604603E0,5.483219624E0
1.180000000E0,-8.463215828E-1,5.256124973E0,5.503752232E0
1.182000000E0,-8.560132980E-1,5.453378201E0,5.474141121E0
1.184000000E0,-9.090975523E-1,5.609786987E0,5.385296822E0
1.186000000E0,-9.033035636E-1,5.725369453E0,5.263298035E0
1.188000000E0,-8.566262126E-1,5.752778530E0,5.125008583E0
1.190000000E0,-8.173229694E-1,5.715821266E0,4.956984043E0
1.192000000E0,-8.443583250E-1,5.615140438E0,4.787684917E0
1.194000000E0,-9.042612314E-1,5.506012917E0,4.643764496E0
1.196000000E0,-9.876847863E-1,5.415463924E0,4.521181583E0
1.198000000E0,-1.069030285E0,5.359899521E0,4.423689842E0
1.200000000E0,-1.136901021E0,5.353741646E0,4.353357792E0
1.202000000E0,-1.188050747E0,5.384578705E0,4.304688454E0
1.204000000E0,-1.214942336E0,5.433334351E0,4.290332794E0
1.206000000E0,-1.214999914E0,5.493266106E0,4.298855782E0
1.208000000E0,-1.204637766E0,5.563291550E0,4.328965664E0
1.210000000E0,-1.120840669E0,5.632454872E0,4.386971951E0
1.212000000E0,-8.356146812E-1,5.712067604E0,4.463443279E0
1.214000000E0,-3.458280563E-1,5.792014599E0,4.632780075E0
1.216000000E0,9.185115248E-2,5.855164051E0,4.775838852E0
1.218000000E0,2.531532943E-1,5.885273457E0,4.814490795E0
1.220000000E0,1.501068771E-1,5.877812862E0,4.856868267E0
1.222000000E0,-8.760862797E-2,5.856447220E0,4.941842556E0
1.224000000E0,-3.037092686E-1,5.842579842E0,5.027469158E0
1.226000000E0,-3.799502254E-1,5.828013897E0,5.106793880E0
1.228000000E0,-2.607285678E-1,5.805824280E0,5.140762806E0
1.230000000E0,-2.155739255E-2,5.778942108E0,5.113794327E0
1.232000000E0,1.648647338E-1,5.758466721E0,5.035197735E0
1.234000000E0,2.173360586E-1,5.740050793E0,4.953631878E0
1.236000000E0,1.659373343E-1,5.699176788E0,4.911158562E0
1.238000000E0,6.362830102E-2,5.606837273E0,4.926951408E0
1.240000000E0,-8.471643180E-2,5.433085442E0,5.007339001E0
1.242000000E0,-1.970619559E-1,5.343858242E0,5.134308338E0
1.244000000E0,-2.366428971E-1,5.347382545E0,5.280469418E0
1.246000000E0,-2.927055359E-1,5.394155979E0,5.432251930E0
1.248000000E0,-3.303040862E-1,5.484790325E0,5.581037521E0
1.250000000E0,-3.423325419E-1,5.589225769E0,5.710639954E0
1.252000000E0,-3.632387221E-1,5.660409927E0,5.837418079E0
1.254000000E0,-3.497641385E-1,5.717181206E0,5.995885849E0
1.256000000E0,-3.022823036E-1,5.744771957E0,6.179070950E0
1.258000000E0,-2.310691923E-1,5.748957157E0,6.364075184E0
1.260000000E0,-1.361055821E-1,5.733098030E0,6.543889523E0
1.262000000E0,-7.121313363E-2,5.726585865E0,6.715487003E0
1.264000000E0,-4.933013022E-2,5.714097500E0,6.875726223E0
1.266000000E0,-4.920563474E-2,5.716932297E0,7.041826248E0
1.268000000E0,-4.088338837E-2,5.717717648E0,7.199249744E0
1.270000000E0,-5.660850555E-2,5.739810944E0,7.359019756E0
1.272000000E0,-9.887095541E-2,5.764997959E0,7.509107113E0
1.274000000E0,-1.716259569E-1,5.785550117E0,7.645145416E0
1.276000000E0,-2.554709017E-1,5.832352161E0,7.770984650E0
1.278000000E0,-3.233800232E-1,5.890377998E0,7.869041920E0
1.280000000E0,-3.729687631E-1,5.950548649E0,7.939785480E0
1.282000000E0,-4.267233610E-1,6.010384560E0,8.010318756E0
1.284000000E0,-5.190916657E-1,6.090590477E0,8.086722374E0
1.286000000E0,-6.073419452E-1,6.205512047E0,8.154995918E0
1.288000000E0,-6.744561791E-1,6.348819256E0,8.220644951E0
1.290000000E0,-7.137785554E-1,6.513282299E0,8.284867287E0
1.292000000E0,-7.020756602E-1,6.692483425E0,8.346847534E0
1.294000000E0,-6.421823502E-1,6.875812054E0,8.412525177E0
1.296000000E0,-5.886576176E-1,7.050732613E0,8.506243706E0
1.298000000E0,-5.616988540E-1,7.208596706E0,8.613945007E0
1.300000000E0,-5.555410385E-1,7.347853184E0,8.764942169E0
1.302000000E0,-5.779890418E-1,7.470598698E0,8.968899727E0
1.304000000E0,-6.126953959E-1,7.588508129E0,9.196875572E0
1.306000000E0,-6.678673625E-1,7.692196846E0,9.464087486E0
1.308000000E0,-7.422791123E-1,7.783492088E0,9.747168541E0
1.310000000E0,-8.374917507E-1,7.867184162E0,1.004293823E1
1.312000000E0,-9.274753928E-1,7.921963215E0,1.033329773E1
1.314000000E0,-1.011808753E0,7.970594406E0,1.062275696E1
1.316000000E0,-1.118561387E0,7.986597061E0,1.091717720E1
1.318000000E0,-1.256400347E0,8.006871223E0,1.120410728E1
1.320000000E0,-1.362856150E0,8.033964157E0,1.148520565E1
1.322000000E0,-1.441807389E0,8.054669380E0,1.177880192E1
1.324000000E0,-1.530411959E0,8.079990387E0,1.209369755E1
1.326000000E0,-1.636743307E0,8.104506493E0,1.239006042E1
1.328000000E0,-1.729753256E0,8.142210960E0,1.263990974E1
1.330000000E0,-1.779160023E0,8.191578865E0,1.281719589E1
1.332000000E0,-1.844550371E0,8.273221970E0,1.295906639E1
1.334000000E0,-1.910371780E0,8.375424385E0,1.305755424E1
1.336000000E0,-1.867295384E0,8.411433220E0,1.307512760E1
1.338000000E0,-1.904386401E0,8.497739792E0,1.304490376E1
1.340000000E0,-2.022727013E0,8.629996300E0,1.301414299E1
1.342000000E0,-2.229212284E0,8.770421028E0,1.298909950E1
1.344000000E0,-2.455215693E0,8.871197701E0,1.292558575E1
1.346000000E0,-2.601175547E0,8.942112923E0,1.283295059E1
1.348000000E0,-2.716825247E0,9.037287712E0,1.275322247E1
1.350000000E0,-2.902289629E0,9.173039436E0,1.273540974E1
1.352000000E0,-3.103948593E0,9.321756363E0,1.271703243E1
1.354000000E0,-3.266581774E0,9.442367554E0,1.268521786E1
1.356000000E0,-3.388925552E0,9.544294357E0,1.264194012E1
1.358000000E0,-3.505417824E0,9.618159294E0,1.260491562E1
1.360000000E0,-3.599768639E0,9.677085876E0,1.254550171E1
1.362000000E0,-3.647518396E0,9.721302032E0,1.246128273E1
1.364000000E0,-3.666901827E0,9.741030693E0,1.235630226E1
1.366000000E0,-3.686313868E0,9.775382042E0,1.226692200E1
1.368000000E0,-3.687319517E0,9.825430870E0,1.219117928E1
1.370000000E0,-3.680711746E0,9.858048439E0,1.212613392E1
1.372000000E0,-3.657315493E0,9.903069496E0,1.205040073E1
1.374000000E0,-3.649529457E0,9.974971771E0,1.198895550E1
1.376000000E0,-3.690451145E0,1.005402851E1,1.194895267E1
1.378000000E0,-3.743650436E0,1.009241199E1,1.191947556E1
1.380000000E0,-3.803850174E0,1.010015011E1,1.188796806E1
1.382000000E0,-3.869547129E0,1.007340240E1,1.186738777E1
1.384000000E0,-3.925973654E0,1.001333714E1,1.185382748E1
1.386000000E0,-3.932054996E0,9.954822540E0,1.178522778E1
1.388000000E0,-3.910698652E0,9.885333061E0,1.168742943E1
1.390000000E0,-3.887513161E0,9.818984985E0,1.157605171E1
1.392000000E0,-3.858256102E0,9.771397591E0,1.145856380E1
1.394000000E0,-3.823626280E0,9.739411354E0,1.134659100E1
1.396000000E0,-3.797443390E0,9.724892616E0,1.125889683E1
1.398000000E0,-3.759500027E0,9.709157944E0,1.118279839E1
1.400000000E0,-3.726364374E0,9.674470901E0,1.115192413E1
1.402000000E0,-3.701100588E0,9.618350983E0,1.115373325E1
1.404000000E0,-3.681046963E0,9.571242332E0,1.116401863E1
1.406000000E0,-3.699999332E0,9.444857597E0,1.119356346E1
1.408000000E0,-3.741869211E0,9.163873672E0,1.120743084E1
1.410000000E0,-3.755745888E0,8.960041046E0,1.121567535E1
1.412000000E0,-3.721183062E0,8.942879677E0,1.118651485E1
1.414000000E0,-3.683632612E0,9.034807205E0,1.109275818E1
1.416000000E0,-3.665618658E0,9.168547630E0,1.095823288E1
1.418000000E0,-3.626114368E0,9.309211731E0,1.080766582E1
1.420000000E0,-3.578852892E0,9.402049065E0,1.064636326E1
1.422000000E0,-3.534923792E0,9.449205399E0,1.049273205E1
1.424000000E0,-3.510780811E0,9.472553253E0,1.036668301E1
1.426000000E0,-3.531246424E0,9.460333824E0,1.026725578E1
1.428000000E0,-3.573231220E0,9.437722206E0,1.018911934E1
1.430000000E0,-3.620808601E0,9.364182472E0,1.013693523E1
1.432000000E0,-3.692778349E0,9.259766579E0,1.011721706E1
1.434000000E0,-3.757862329E0,9.163702011E0,1.013270187E1
1.436000000E0,-3.827916861E0,9.053022385E0,1.016575241E1
1.438000000E0,-3.924086809E0,8.929433823E0,1.016657543E1
1.440000000E0,-4.024384975E0,8.827718735E0,1.015297699E1
1.442000000E0,-4.118639469E0,8.741537094E0,1.011031151E1
1.444000000E0,-4.181319714E0,8.666176796E0,1.004858875E1
1.446000000E0,-4.250196457E0,8.579832077E0,9.970623970E0
1.448000000E0,-4.287344933E0,8.500248909E0,9.866927147E0
1.450000000E0,-4.274406910E0,8.438297272E0,9.743041039E0
1.452000000E0,-4.238033772E0,8.392941475E0,9.597702980E0
1.454000000E0,-4.129729748E0,8.347365379E0,9.450268745E0
1.456000000E0,-4.016273499E0,8.309814453E0,9.321939468E0
1.458000000E0,-3.923972130E0,8.254441261E0,9.226554871E0
1.460000000E0,-3.878922939E0,8.210426331E0,9.165932655E0
1.462000000E0,-3.864548206E0,8.155407906E0,9.131945610E0
1.464000000E0,-3.901083469E0,8.109879494E0,9.120471954E0
1.466000000E0,-3.915985107E0,8.071524620E0,9.109774590E0
1.468000000E0,-3.886651278E0,8.066793442E0,9.084510803E0
1.470000000E0,-3.798592567E0,8.091492653E0,9.006344795E0
1.472000000E0,-3.692270756E0,8.151538849E0,8.893549919E0
1.474000000E0,-3.585508585E0,8.234646797E0,8.754244804E0
1.476000000E0,-3.503645897E0,8.310101509E0,8.596515656E0
1.478000000E0,-3.442785501E0,8.376009941E0,8.433977127E0
1.480000000E0,-3.405570030E0,8.397173882E0,8.226141930E0
1.482000000E0,-3.423287153E0,8.343984604E0,8.031924248E0
1.484000000E0,-3.513356924E0,8.299386024E0,7.905175209E0
1.486000000E0,-3.615761757E0,8.363243103E0,7.799274921E0
1.488000000E0,-3.728796959E0,8.564384460E0,7.687025070E0
1.490000000E0,-3.833538294E0,8.790589333E0,7.587492943E0
1.492000000E0,-3.904684305E0,9.004046440E0,7.472437382E0
1.494000000E0,-3.952175856E0,9.179695129E0,7.380184174E0
1.496000000E0,-3.970754862E0,9.317141533E0,7.295161247E0
1.498000000E0,-3.939505577E0,9.438469887E0,7.209716797E0
1.500000000E0,-3.881240368E0,9.565304756E0,7.151432514E0
1.502000000E0,-3.807000875E0,9.704312325E0,7.131034374E0
1.504000000E0,-3.759653330E0,9.818774223E0,7.093607903E0
1.506000000E0,-3.737684011E0,9.927049637E0,7.040044785E0
1.508000000E0,-3.744857073E0,1.000691128E1,6.962711811E0
1.510000000E0,-3.781038284E0,1.007824802E1,6.829240322E0
1.512000000E0,-3.814317703E0,1.014837933E1,6.691084862E0
1.514000000E0,-3.836305857E0,1.019367790E1,6.531114101E0
1.516000000E0,-3.885023117E0,1.019255733E1,6.355599880E0
1.518000000E0,-3.923521996E0,1.016569424E1,6.211526394E0
1.520000000E0,-3.925839663E0,1.011230373E1,6.120038986E0
1.522000000E0,-3.918934584E0,1.004651070E1,6.062454224E0
1.524000000E0,-3.925858736E0,9.967291832E0,6.024740219E0
1.526000000E0,-3.951869488E0,9.884385109E0,6.011581898E0
1.528000000E0,-3.929296970E0,9.827690125E0,6.017232418E0
1.530000000E0,-3.816769361E0,9.758880615E0,6.036127567E0
1.532000000E0,-3.610274076E0,9.672804832E0,6.054064274E0
1.534000000E0,-3.364150286E0,9.608420372E0,6.055807590E0
1.536028125E0,-3.149936199E0,9.615104675E0,6.138886452E0
1.538000000E0,-2.962336063E0,9.741584778E0,6.240850449E0
1.540000000E0,-2.580834389E0,1.005100155E1,6.127509117E0
1.542000000E0,-2.190512657E0,1.029541206E1,5.971617699E0
1.544000000E0,-2.004569292E0,1.035776615E1,5.633460999E0
1.546000000E0,-2.126711845E0,1.020757294E1,5.271831036E0
1.548000000E0,-2.497717381E0,9.944527626E0,4.862958908E0
1.550000000E0,-2.884658575E0,9.659856796E0,4.580031395E0
1.552000000E0,-3.124959946E0,9.472534180E0,4.526295662E0
1.554000000E0,-3.179605246E0,9.401407242E0,4.765763760E0
1.556000000E0,-3.074633837E0,9.417295456E0,5.281024933E0
1.558000000E0,-2.904482603E0,9.449569702E0,5.778769493E0
1.560000000E0,-2.788938522E0,9.329590797E0,6.030342579E0
1.562000000E0,-2.780051231E0,9.082326889E0,5.856648445E0
1.564000000E0,-2.763445139E0,8.773274422E0,5.417800903E0
1.566000000E0,-2.866031647E0,8.443909645E0,4.805018902E0
1.568000000E0,-3.118007183E0,8.134817123E0,4.149649620E0
1.570000000E0,-3.432499886E0,7.879873276E0,3.511814833E0
1.572000000E0,-3.597824574E0,7.780341148E0,3.201277494E0
1.574000000E0,-3.928128481E0,7.632006168E0,2.600179672E0
1.576000000E0,-4.238263607E0,7.534361362E0,2.134124279E0
1.578000000E0,-4.551770210E0,7.538728237E0,1.619121909E0
1.580000000E0,-4.874039173E0,7.603725910E0,1.279068708E0
1.582000000E0,-5.204851151E0,7.804512978E0,1.084027410E0
1.584000000E0,-5.265481472E0,7.906295776E0,1.071989536E0
1.586000000E0,-5.352209091E0,8.150437355E0,1.114251971E0
1.588000000E0,-5.410081863E0,8.420100212E0,1.287256956E0
1.590000000E0,-5.417360306E0,8.740042686E0,1.448472857E0
1.592000000E0,-5.290381432E0,9.052554131E0,1.645601749E0
1.594000000E0,-5.109743595E0,9.353494644E0,1.815389037E0
1.596000000E0,-4.932984352E0,9.588816643E0,1.963006020E0
1.598000000E0,-4.721796989E0,9.738022804E0,2.170621634E0
1.600000000E0,-4.480164051E0,9.874147415E0,2.329941511E0
1.602000000E0,-4.217146873E0,1.005036068E1,2.432614326E0
1.604000000E0,-3.886679888E0,1.024805450E1,2.546923161E0
1.606000000E0,-3.544701815E0,1.040740299E1,2.628354788E0
1.608000000E0,-3.245225668E0,1.053911304E1,2.733029127E0
1.610000000E0,-3.019375801E0,1.058311844E1,2.929229259E0
1.612000000E0,-2.847711325E0,1.063939190E1,3.118735075E0
1.614000000E0,-2.794215441E0,1.063983250E1,3.203939915E0
1.616000000E0,-2.681936741E0,1.064431477E1,3.348118544E0
1.618000000E0,-2.578325510E0,1.060546112E1,3.489060640E0
1.620000000E0,-2.452007294E0,1.051899242E1,3.684935093E0
1.622000000E0,-2.192073822E0,1.032378769E1,4.081740379E0
1.624000000E0,-2.077563763E0,1.026319504E1,4.161026955E0
1.626000000E0,-1.849089861E0,1.016967773E1,4.310596943E0
1.628000000E0,-1.625203252E0,1.009402180E1,4.478277683E0
1.630000000E0,-1.437545776E0,1.003544044E1,4.662698269E0
1.632000000E0,-1.282928228E0,9.933935165E0,4.888050079E0
1.634000000E0,-1.156447291E0,9.772786140E0,5.038789272E0
1.636000000E0,-1.085827827E0,9.613486290E0,5.119559765E0
1.638000000E0,-9.839594364E-1,9.436870575E0,5.171801090E0
1.640000000E0,-8.624393344E-1,9.239559174E0,5.239058971E0
1.642000000E0,-8.008604646E-1,9.059419632E0,5.549472332E0
1.644000000E0,-8.144403696E-1,8.970001221E0,5.812662125E0
1.646000000E0,-7.360733747E-1,9.031416893E0,5.860086441E0
1.648000000E0,-6.066619754E-1,9.120213509E0,5.843375206E0
1.650000000E0,-4.194449782E-1,9.124876976E0,5.947714329E0
1.652000000E0,-5.024950579E-2,8.996136665E0,6.147199154E0
1.654000000E0,1.027112529E-1,8.762730598E0,6.639830112E0
1.656000000E0,6.895300932E-3,8.558993340E0,7.072012424E0
1.658000000E0,-1.141651124E-1,8.387405396E0,7.262542248E0
1.660000000E0,-1.278216392E-1,8.256002426E0,7.300495625E0
1.662000000E0,8.128793538E-2,8.087977409E0,7.468396187E0
1.664000000E0,2.009022534E-1,8.051968575E0,7.503102303E0
1.666000000E0,4.858984351E-1,7.974990368E0,7.696975708E0
1.668000000E0,7.879413366E-1,7.938339710E0,7.814760685E0
1.670000000E0,1.029669523E0,7.889325619E0,7.862510204E0
1.672000000E0,1.221023679E0,7.814702988E0,7.901555061E0
1.674000000E0,1.371963739E0,7.801755428E0,7.905184746E0
1.676000000E0,1.489423394E0,7.807999611E0,7.953202724E0
1.678000000E0,1.495830178E0,7.925755978E0,7.673349380E0
1.680000000E0,1.453740120E0,8.143666267E0,7.257534027E0
1.682000000E0,1.607361674E0,8.353244781E0,7.221650124E0
1.684000000E0,1.836640000E0,8.486506462E0,7.270242691E0
1.686000000E0,2.040386677E0,8.567689896E0,7.395123959E0
1.688000000E0,1.981450915E0,8.494043350E0,7.722804070E0
1.690000000E0,1.828394413E0,8.411088943E0,8.015002251E0
1.692000000E0,1.716010451E0,8.313079834E0,8.302545547E0
1.694000000E0,1.708732128E0,8.206576347E0,8.500613213E0
1.696000000E0,1.688946486E0,8.046758652E0,8.550019264E0
1.698000000E0,1.773385286E0,7.839899540E0,8.376450539E0
1.700000000E0,2.130217075E0,7.718456268E0,8.315282822E0
1.701998437E0,2.955699444E0,7.582982540E0,7.852148533E0
1.704000000E0,3.363815069E0,7.367389679E0,7.810364723E0
1.706000000E0,3.748821735E0,7.596898079E0,7.274906158E0
1.708000000E0,3.549806118E0,8.239903450E0,5.941719055E0
1.710000000E0,3.122948647E0,8.333631516E0,5.073380470E0
1.712000000E0,2.962633133E0,8.310101509E0,4.929795265E0
1.714000000E0,2.473708153E0,8.194375992E0,4.920956135E0
1.716000000E0,1.759134889E0,7.862654209E0,5.233389854E0
1.718000000E0,2.395063639E-1,8.281103134E0,4.798191071E0
1.720000000E0,-1.069834709E0,8.648660660E0,3.825876951E0
1.722000000E0,-2.017268181E0,8.620237350E0,3.459918499E0
1.724000000E0,-2.620147228E0,8.535942078E0,4.130802155E0
1.726000000E0,-3.266936064E0,8.605967522E0,4.182555676E0
1.728000000E0,-3.860401154E0,8.451675415E0,4.331637859E0
1.730000000E0,-4.353951454E0,8.365330696E0,4.221686363E0
1.732000000E0,-4.604710579E0,8.347882271E0,3.425824881E0
1.734000000E0,-4.148701668E0,8.375951767E0,3.709135532E0
1.736000000E0,-3.738775969E0,8.391313553E0,2.449086428E0
1.738000000E0,-2.798409939E0,8.421786308E0,2.571966410E0
1.740000000E0,-1.257156968E0,8.724968910E0,5.459421158E0
1.742000000E0,6.632896513E-2,8.979080200E0,7.890216351E0
1.744000000E0,9.220070839E-1,8.990074158E0,8.534754753E0
1.746000000E0,1.715119839E0,8.682888985E0,7.938090801E0
1.748000000E0,2.702450514E0,8.352182388E0,8.612680435E0
1.750000000E0,3.466469049E0,8.128037453E0,1.031892300E1
1.752000000E0,3.866559029E0,7.702980042E0,1.160611343E1
1.754000000E0,3.963198662E0,7.173248768E0,1.109289169E1
1.756000000E0,3.891822815E0,6.585634708E0,9.772365570E0
1.758000000E0,3.666202545E0,5.963994503E0,8.443429947E0
1.760000000E0,3.368479013E0,5.477109909E0,7.157264709E0
1.762000000E0,2.859088659E0,5.082047462E0,5.796726227E0
1.764000000E0,2.127573729E0,4.707000256E0,4.493830681E0
1.766000000E0,1.285782099E0,4.329597473E0,3.541206360E0
1.768000000E0,4.264934957E-1,3.909310102E0,3.196010351E0
1.770000000E0,-2.566488385E-1,3.513462067E0,3.350646973E0
1.772000000E0,-7.144680619E-1,3.143337965E0,4.041038990E0
1.774000000E0,-9.722182751E-1,2.904722214E0,4.819403172E0
1.776000000E0,-1.093048811E0,2.832407713E0,5.363644123E0
1.778000000E0,-9.872730374E-1,2.922525406E0,5.457994461E0
1.780000000E0,-5.514612198E-1,3.216772795E0,5.871444225E0
1.782000000E0,-1.578832418E-1,3.596368551E0,6.172328472E0
1.784000000E0,2.513432801E-1,4.016321182E0,6.741641045E0
1.786000000E0,6.717651486E-1,4.438879013E0,7.559232235E0
1.788000000E0,9.719405770E-1,4.762344837E0,8.127424240E0
1.790000000E0,1.301966906E0,4.933654785E0,8.334168434E0
1.792000000E0,1.650533915E0,5.002071857E0,8.221534729E0
1.794000000E0,1.851302147E0,5.043989182E0,7.820976257E0
1.796000000E0,1.837683797E0,5.123390675E0,7.312016487E0
1.798000000E0,1.635795116E0,5.203490734E0,6.687781334E0
1.800000000E0,1.583525062E0,5.220097065E0,6.119579792E0
1.802000000E0,1.622512221E0,5.206775665E0,5.696045399E0
1.804000000E0,1.634061813E0,5.155961514E0,5.568099022E0
1.806000000E0,1.544556975E0,5.171418190E0,5.635443211E0
1.808000000E0,1.443445086E0,5.254248142E0,5.685233116E0
1.810000000E0,1.389891624E0,5.379263878E0,5.797655106E0
1.812000000E0,1.387985706E0,5.522484779E0,5.938520432E0
1.814000000E0,1.398271203E0,5.702816010E0,6.104831219E0
1.816000000E0,1.343415260E0,5.896593094E0,6.203701973E0
1.818000000E0,9.960166812E-1,6.099468231E0,6.251011848E0
1.820000000E0,9.035238624E-1,6.218479156E0,6.353024006E0
1.822000000E0,1.178933620E0,6.287834644E0,6.748450279E0
1.824000000E0,1.573641777E0,6.392910957E0,7.131570339E0
1.826000000E0,2.050662518E0,6.536611557E0,7.505678654E0
1.828000000E0,2.383561850E0,6.744830132E0,7.879480362E0
1.830000000E0,2.561096668E0,6.975746155E0,8.041836739E0
1.832000000E0,2.581160069E0,7.131062508E0,8.002408981E0
1.834000000E0,2.602094889E0,7.139825821E0,7.791067600E0
1.836000000E0,2.742117405E0,7.079204082E0,7.560467720E0
1.838000000E0,2.871145725E0,7.001440525E0,7.197783947E0
1.840000000E0,2.992924452E0,6.915173054E0,6.838069916E0
1.842000000E0,3.004512548E0,6.856639385E0,6.544512272E0
1.844000000E0,2.955086470E0,6.854915619E0,6.326361656E0
1.846000000E0,2.833202600E0,6.765266895E0,6.281159878E0
1.848000000E0,2.657506466E0,6.545441151E0,6.356164932E0
1.850000000E0,2.477069855E0,6.239127159E0,6.567237854E0
1.852000000E0,2.233838081E0,5.986098289E0,6.694734097E0
1.854000000E0,1.968579769E0,5.801552773E0,6.615772724E0
1.856000000E0,1.752900362E0,5.679132938E0,6.558513165E0
1.858000000E0,1.654393435E0,5.588612556E0,6.568473339E0
1.860000000E0,1.607074380E0,5.529150486E0,6.645652771E0
1.862000000E0,1.563346624E0,5.559930325E0,6.602355957E0
1.864000000E0,1.548856974E0,5.600210190E0,6.455802441E0
1.866000000E0,1.603961945E0,5.580558777E0,6.409277916E0
1.868000000E0,1.856626868E0,5.626460075E0,6.901496887E0
1.870000000E0,2.224922180E0,5.666615486E0,7.326735973E0
1.872000000E0,2.558156729E0,5.637559414E0,7.338745117E0
1.874000000E0,2.951294184E0,5.670015812E0,8.008212090E0
1.876000000E0,3.149514914E0,5.581229210E0,7.825438499E0
1.878000000E0,3.228705645E0,5.481907845E0,7.577303886E0
1.880000000E0,3.207397223E0,5.392546654E0,7.570916176E0
1.882000000E0,3.045328856E0,5.232671261E0,7.310130119E0
1.884000000E0,2.767419338E0,5.035973549E0,6.979681969E0
1.886000000E0,2.327259779E0,4.771845341E0,6.489014626E0
1.888000000E0,1.785135984E0,4.421371937E0,5.848086357E0
1.890000000E0,1.320287347E0,4.031270981E0,5.411843777E0
1.892000000E0,8.736442327E-1,3.535929441E0,4.987217903E0
1.894000000E0,4.674918354E-1,2.959041834E0,5.321314335E0
1.896000000E0,3.146938682E-1,2.491865873E0,6.357754707E0
1.898000000E0,3.701818883E-1,2.126060724E0,7.603055477E0
1.900000000E0,7.378738523E-1,1.885328531E0,9.048952103E0
1.902000000E0,1.238252401E0,1.712400198E0,1.033921719E1
1.904000000E0,1.868463755E0,1.621439576E0,1.066102505E1
1.906000000E0,2.332699537E0,1.555464983E0,1.035490322E1
1.908000000E0,2.591694593E0,1.474646211E0,9.568005562E0
1.910000000E0,2.591819048E0,1.438953519E0,8.342988014E0
1.912000000E0,2.041688919E0,1.328312635E0,6.700814724E0
1.914000000E0,1.052759290E0,1.012517452E0,5.356748581E0
1.916000000E0,9.900502861E-2,6.541534066E-1,4.556683064E0
1.918000000E0,-7.144201994E-1,3.181893826E-1,4.050529480E0
1.920000000E0,-1.429280996E0,-3.192907199E-2,3.841688156E0
1.922000000E0,-1.882886410E0,-2.823338211E-1,3.950509548E0
1.924000000E0,-2.046802998E0,-2.978195548E-1,4.307158947E0
1.926000000E0,-2.009568453E0,-9.837296605E-2,4.678988457E0
1.928000000E0,-1.811290145E0,3.005202115E-1,4.925907135E0
1.930000000E0,-1.512503386E0,8.689515591E-1,5.047848701E0
1.932000000E0,-1.249763727E0,1.463182807E0,5.059656620E0
1.934000000E0,-1.050920367E0,2.076720953E0,4.989152431E0
1.936000000E0,-9.273318052E-1,2.699002743E0,4.778749943E0
1.938000000E0,-9.140200019E-1,3.223725557E0,4.515311241E0
1.940000000E0,-9.905961752E-1,3.679974079E0,4.264714718E0
1.942000000E0,-1.170898676E0,4.027727127E0,4.100175858E0
1.944000000E0,-1.402331829E0,4.253739834E0,3.997091055E0
1.946000000E0,-1.608664036E0,4.455101490E0,3.889562607E0
1.948000000E0,-1.781372309E0,4.698132515E0,3.751819372E0
1.950000000E0,-1.941324115E0,4.970199585E0,3.652383566E0
1.952000000E0,-2.116828680E0,5.170872688E0,3.667869091E0
1.954000000E0,-2.282449961E0,5.367694855E0,3.775311232E0
1.956000000E0,-2.415395260E0,5.550841808E0,3.915170908E0
1.958000000E0,-2.562935591E0,5.654012680E0,4.118898392E0
1.960000000E0,-2.705342531E0,5.677648544E0,4.357696056E0
1.962000000E0,-2.738583803E0,5.697414398E0,4.588640690E0
1.964000000E0,-2.608904123E0,5.764538765E0,4.782992840E0
1.966000000E0,-2.307933807E0,5.919347763E0,4.863638878E0
1.968000000E0,-1.922285438E0,6.153788090E0,4.914080143E0
1.970000000E0,-1.496443152E0,6.499932289E0,5.001707554E0
1.972000000E0,-9.883647561E-1,7.039968491E0,5.100875378E0
1.974000000E0,-4.773080349E-1,7.580607414E0,5.238475323E0
1.976000000E0,7.536946796E-3,8.047361374E0,5.407965183E0
1.978000000E0,4.578958750E-1,8.536239624E0,5.600200653E0
1.980000000E0,8.054477572E-1,8.958116531E0,5.955959797E0
1.982000000E0,9.933829904E-1,9.625754356E0,6.676987648E0
1.984000000E0,1.181232095E0,1.025240231E1,6.849686623E0
1.986000000E0,1.268840671E0,1.062184715E1,6.935207367E0
1.988000000E0,1.446356416E0,1.064575100E1,6.957454681E0
1.990000000E0,1.628095508E0,1.058563709E1,6.999659061E0
1.992000000E0,1.742863894E0,1.046827316E1,6.907817841E0
1.994000000E0,1.808637500E0,1.026192188E1,6.637828827E0
1.996000000E0,1.745976329E0,9.868142128E0,6.383391380E0
1.998000000E0,1.587451577E0,9.497347832E0,6.180823326E0
2.000000000E0,1.478678107E0,9.302344322E0,5.899217129E0
2.002000000E0,1.367539287E0,9.673589706E0,5.059235573E0
2.004000000E0,1.168044806E0,1.015619469E1,4.015411377E0
2.006000000E0,1.165775180E0,1.033725262E1,3.849617720E0
2.008000000E0,1.253546476E0,1.032289791E1,4.309792995E0
2.010000000E0,1.310068846E0,1.021685314E1,4.819719791E0
2.012000000E0,1.264674783E0,9.988552094E0,5.080227852E0
2.014000000E0,9.933447242E-1,9.684967041E0,5.453742504E0
2.016000000E0,7.357860804E-1,9.354586601E0,5.878262997E0
2.018000000E0,8.121994138E-1,8.923084259E0,6.186023235E0
2.020000000E0,1.165832520E0,8.481651306E0,6.413558483E0
2.022000000E0,1.424511671E0,7.977834702E0,6.565571308E0
2.024000000E0,1.578899384E0,7.598774910E0,6.605334282E0
2.026000000E0,1.772858500E0,7.395123959E0,6.709501266E0
2.028000000E0,1.797988057E0,7.089556694E0,6.727562904E0
2.030000000E0,1.690124393E0,6.642271996E0,6.754732609E0
2.032000000E0,1.794368029E0,6.183399200E0,6.753497124E0
2.034000000E0,2.080063343E0,5.790414810E0,6.608533382E0
2.036000000E0,2.184632301E0,5.562161446E0,6.563713551E0
2.038000000E0,2.179662228E0,5.322942257E0,6.520292282E0
2.040000000E0,2.029536009E0,5.156497478E0,6.449165344E0
2.042000000E0,1.694711804E0,5.083024502E0,6.322856903E0
2.044000000E0,1.299026847E0,5.191472054E0,6.243053436E0
2.046000000E0,1.096611500E0,5.308155537E0,6.196529388E0
2.048000000E0,1.168207645E0,5.428009987E0,6.214361191E0
2.050000000E0,1.399880171E0,5.449107647E0,6.275212288E0
2.052000000E0,1.641895652E0,5.428516865E0,6.478240490E0
2.054000000E0,1.868454099E0,5.416086197E0,6.661148071E0
2.056000000E0,2.104101181E0,5.563847065E0,6.971551418E0
2.058000000E0,2.430459499E0,5.735511303E0,7.243111134E0
2.060000000E0,2.786371708E0,6.039958000E0,7.562967300E0
2.062000000E0,3.092532873E0,6.239577293E0,7.753401756E0
2.064000000E0,3.306804419E0,6.435556412E0,7.906898975E0
2.066000000E0,3.538036346E0,6.641974926E0,8.018161774E0
2.068000000E0,3.688210249E0,6.647367001E0,8.038723946E0
2.070000000E0,3.777427673E0,6.540431976E0,8.044498444E0
2.072000000E0,3.822592020E0,6.540470600E0,8.085228920E0
2.074000000E0,3.798793793E0,6.466911316E0,8.053730011E0
2.076000000E0,3.704289913E0,6.377071381E0,7.973275661E0
2.078000000E0,3.587615490E0,6.518032074E0,7.935179234E0
2.080000000E0,3.480182886E0,6.776740074E0,7.791527271E0
2.082000000E0,3.272165060E0,6.919444084E0,7.619403362E0
2.084000000E0,2.918235064E0,7.006449223E0,7.467926979E0
2.086000000E0,2.602171659E0,7.213585854E0,7.385537624E0
2.088000000E0,2.374272346E0,7.514872551E0,7.313280582E0
2.090000000E0,2.121904373E0,7.818160057E0,7.271534920E0
2.092000000E0,1.844598413E0,7.907751560E0,7.211929321E0
2.094000000E0,1.521888614E0,7.811197758E0,7.139413357E0
2.096000000E0,1.235676289E0,7.715947151E0,7.041002274E0
2.098000000E0,1.037589550E0,7.685147762E0,6.940206528E0
2.100000000E0,9.053530097E-1,7.660392284E0,6.823398590E0
2.102000000E0,7.612699866E-1,7.607403278E0,6.671490669E0
2.104000000E0,5.680291057E-1,7.473471642E0,6.455007553E0
2.106000000E0,3.541311622E-1,7.239002705E0,6.299125671E0
2.108000000E0,2.199122161E-1,7.044277668E0,6.200743198E0
2.110000000E0,2.224404961E-1,6.993817329E0,6.119023800E0
2.112000000E0,2.920734584E-1,6.935082912E0,6.078198433E0
2.114000000E0,3.748075068E-1,6.761235237E0,5.975409985E0
2.116000000E0,4.438754320E-1,6.634601116E0,5.805440903E0
2.118000000E0,5.642271638E-1,6.668292522E0,5.617304802E0
2.120000000E0,7.413884997E-1,6.843787193E0,5.484311581E0
2.122000000E0,9.070577025E-1,6.966246128E0,5.372195721E0
2.124000000E0,1.059558749E0,6.972987652E0,5.292957306E0
2.126000000E0,1.210910678E0,6.971455574E0,5.251662254E0
2.128000000E0,1.355031967E0,6.924452782E0,5.284913063E0
2.130000000E0,1.470374942E0,6.816675186E0,5.351529121E0
2.132000000E0,1.572090387E0,6.713226795E0,5.482128143E0
2.134000000E0,1.727253675E0,6.699944019E0,5.629859924E0
2.136000000E0,1.883240700E0,6.652356625E0,5.782725334E0
2.138000000E0,2.050384760E0,6.697195530E0,5.858199596E0
2.140000000E0,2.149791956E0,6.699570179E0,5.931577206E0
2.142000000E0,2.144553423E0,6.599540710E0,5.993807316E0
2.144000000E0,2.112892628E0,6.562411308E0,6.172884464E0
2.146000000E0,2.066464186E0,6.520263672E0,6.306949615E0
2.148000000E0,2.005842924E0,6.491504192E0,6.510112286E0
2.150000000E0,1.914087653E0,6.510418415E0,6.664040089E0
2.152000000E0,1.833872318E0,6.520052910E0,6.768177986E0
2.154000000E0,1.770090818E0,6.504662991E0,6.858554840E0
2.156000000E0,1.644337773E0,6.423020363E0,6.782744408E0
2.158000000E0,1.457829475E0,6.386571407E0,6.561779022E0
2.160000000E0,1.275563598E0,6.352851391E0,6.381553173E0
2.162000000E0,1.150107384E0,6.276035786E0,6.176954269E0
2.164000000E0,1.050403357E0,6.254478455E0,5.954274178E0
2.166000000E0,8.960826397E-1,6.178141594E0,5.616442680E0
2.168000000E0,7.694101930E-1,6.055768967E0,5.372099876E0
2.170000000E0,6.473538280E-1,5.977431297E0,5.229310036E0
2.172000000E0,6.499395967E-1,5.886710167E0,5.339539051E0
2.174000000E0,7.153012753E-1,5.780129433E0,5.549137115E0
2.176000000E0,7.277415991E-1,5.679985046E0,5.543074608E0
2.178000000E0,6.831614971E-1,5.669220924E0,5.422081470E0
2.180000000E0,6.600909829E-1,5.598926544E0,5.477234364E0
2.182000000E0,6.179530621E-1,5.521192074E0,5.522360325E0
2.184000000E0,5.944994688E-1,5.504106998E0,5.426678181E0
2.186000000E0,6.451894641E-1,5.511538506E0,5.422895432E0
2.188000000E0,6.889171600E-1,5.600172043E0,5.542069435E0
2.190000000E0,7.018937469E-1,5.691314220E0,5.629821777E0
2.192000000E0,7.409288287E-1,5.706177711E0,5.694656849E0
2.194000000E0,8.049880862E-1,5.678318501E0,5.759644985E0
2.196000000E0,9.022501111E-1,5.659576893E0,5.748018742E0
2.198000000E0,1.025790930E0,5.535768032E0,5.709347725E0
2.200000000E0,1.140702963E0,5.401922226E0,5.668837547E0
2.202000000E0,1.203641891E0,5.389702320E0,5.803879738E0
2.204000000E0,1.213764548E0,5.421219826E0,6.000099182E0
2.206000000E0,1.228330851E0,5.399087429E0,6.075191021E0
2.208000000E0,1.258392453E0,5.376802444E0,6.060136318E0
2.210000000E0,1.205260277E0,5.209447861E0,5.970803738E0
2.212000000E0,1.229499102E0,4.994237900E0,6.022460938E0
2.214000000E0,1.369445086E0,4.825819969E0,6.119953156E0
2.216000000E0,1.484213471E0,4.621019840E0,6.003920555E0
2.218000000E0,1.613816381E0,4.362503529E0,5.900452614E0
2.220000000E0,1.779993176E0,4.117461681E0,5.718186855E0
2.222000000E0,1.977313757E0,4.028100491E0,5.699205399E0
2.224000000E0,2.229193449E0,4.187161922E0,5.740548611E0
2.226000000E0,2.434912682E0,4.400782108E0,5.681756973E0
2.228000000E0,2.602784634E0,4.642826080E0,5.600947857E0
2.230000000E0,2.723509789E0,4.927506447E0,5.441464901E0
2.232000000E0,2.720435619E0,5.281924725E0,5.268325806E0
2.234000000E0,2.681822062E0,5.741209507E0,5.102235317E0
2.236000000E0,2.602621794E0,6.262053490E0,5.017499924E0
2.238000000E0,2.454267263E0,6.748182297E0,5.012548447E0
2.240000000E0,2.271034479E0,7.215501308E0,5.096086979E0
2.242000000E0,2.044868469E0,7.602682114E0,5.173850536E0
2.244000000E0,1.786246777E0,7.966763496E0,5.254832268E0
2.246000000E0,1.486607671E0,8.290325165E0,5.357399940E0
2.248000000E0,1.165459156E0,8.481450081E0,5.611664295E0
2.250000000E0,7.761235833E-1,8.734124184E0,5.931855202E0
2.252000000E0,4.318469465E-1,9.292892456E0,6.226054668E0
2.254000000E0,3.034794331E-1,9.993790627E0,6.345486641E0
2.256000000E0,1.921203136E-1,1.032196903E1,6.447048664E0
2.258000000E0,4.040454701E-2,1.053985023E1,6.719441891E0
2.260000000E0,3.638229147E-2,1.060001183E1,7.210799217E0
2.262000000E0,2.373803109E-1,1.042868233E1,7.805164337E0
2.264000000E0,4.220690429E-1,1.017409325E1,8.285460472E0
2.266000000E0,5.311488509E-1,9.867989540E0,8.820622444E0
2.268000000E0,5.690921545E-1,9.566750526E0,9.345699310E0
2.270000000E0,4.818091393E-1,9.375051498E0,9.624556541E0
2.272000000E0,3.473603427E-1,9.277588844E0,9.791518211E0
2.274000000E0,1.328111589E-1,9.272273064E0,9.757550240E0
2.276000000E0,-6.936481595E-2,9.340211868E0,9.604780197E0
2.278000000E0,-1.256668568E-1,9.452691078E0,9.461635590E0
2.280000000E0,-9.760680795E-2,9.563763618E0,9.128314972E0
2.282000000E0,1.373601407E-1,9.596170425E0,8.814684868E0
2.284000000E0,3.817602396E-1,9.427390099E0,8.540816307E0
2.286000000E0,6.065087318E-1,9.206154823E0,8.395814896E0
2.288000000E0,7.469238639E-1,9.063710213E0,8.426900864E0
2.290000000E0,8.292557001E-1,8.833724022E0,8.526048660E0
2.292000000E0,8.760575652E-1,8.566261292E0,8.542080879E0
2.294000000E0,8.854427934E-1,8.260589600E0,8.616894722E0
2.296000000E0,8.806543946E-1,8.045427322E0,8.669280052E0
2.298000000E0,8.881530762E-1,7.842801094E0,8.689679146E0
2.300000000E0,8.867357373E-1,7.621768475E0,8.613696098E0
2.302000000E0,8.885552883E-1,7.458646774E0,8.462133408E0
2.304000000E0,9.251674414E-1,7.345775127E0,8.109621048E0
2.306000000E0,8.928169608E-1,7.314784050E0,7.711139679E0
2.308000000E0,8.894746900E-1,7.239654064E0,7.183524609E0
2.310000000E0,9.858844280E-1,7.120250702E0,6.560859680E0
2.312000000E0,9.926647544E-1,6.905653477E0,6.054476738E0
2.314000000E0,9.036483169E-1,6.758917332E0,5.773598194E0
2.316000000E0,7.821090817E-1,6.624957085E0,5.515685081E0
2.318000000E0,6.627246141E-1,6.370692730E0,5.256795406E0
2.320000000E0,5.069674253E-1,6.257974148E0,5.247123241E0
2.322000000E0,2.961723208E-1,6.290199757E0,5.355302334E0
2.324000000E0,1.113495305E-1,6.427655697E0,5.449969292E0
2.326000000E0,-1.942176372E-2,6.583834648E0,5.521747589E0
2.328000000E0,-1.321503669E-1,6.701657772E0,5.542596340E0
2.330000000E0,-2.297763228E-1,6.871301174E0,5.502794743E0
2.332000000E0,-2.255433798E-1,7.110884190E0,5.332672596E0
2.334000000E0,-9.223423153E-2,7.247076035E0,5.028254509E0
2.336000000E0,1.374080181E-1,7.336906910E0,4.772802830E0
2.338000000E0,3.927448392E-1,7.502604485E0,4.728500366E0
2.340000000E0,6.138733029E-1,7.617487907E0,4.718665123E0
2.342000000E0,7.612507939E-1,7.680704594E0,4.805813789E0
2.344000000E0,8.758276701E-1,7.765832424E0,5.035159111E0
2.346000000E0,1.041937351E0,7.858698845E0,5.371334076E0
2.348000000E0,1.055708885E0,7.960337639E0,5.206794739E0
2.350000000E0,9.556791186E-1,8.082192421E0,4.790280342E0
2.352000000E0,8.280777335E-1,8.187298775E0,4.297323704E0
2.354000000E0,8.042985201E-1,8.250217438E0,3.644176006E0
2.356000000E0,9.307411313E-1,8.272436142E0,3.052444220E0
2.358000000E0,1.117498398E0,8.203981400E0,2.571037292E0
2.360000000E0,1.315700054E0,8.035219193E0,2.429530621E0
2.362000000E0,1.520892739E0,8.005558968E0,2.620712519E0
2.364000000E0,1.458097577E0,7.782084465E0,2.761079550E0
2.366000000E0,1.237074494E0,7.502135277E0,3.036192656E0
2.368000000E0,1.021366477E0,7.316632271E0,3.485210657E0
2.370000000E0,7.765545249E-1,7.093195915E0,3.967402935E0
2.372000000E0,5.203653574E-1,6.951622009E0,4.386656284E0
2.374000000E0,2.663788795E-1,6.790195465E0,4.808456898E0
2.376000000E0,-6.589800864E-2,6.567352772E0,4.850202560E0
2.378000000E0,-4.155089259E-1,6.425807476E0,4.804051876E0
2.380000000E0,-4.696083069E-1,6.374811172E0,5.221754074E0
2.382000000E0,-4.483765364E-1,6.135850430E0,5.455226898E0
2.384000000E0,-3.965181112E-1,5.650794983E0,5.761723042E0
2.386000000E0,-2.865955234E-1,5.032611847E0,6.044957161E0
2.388000000E0,-1.937962621E-1,4.392000198E0,5.824345589E0
2.390000000E0,-8.523358265E-4,3.887321472E0,5.540077209E0
2.392000000E0,3.133626878E-1,3.484454155E0,5.607833385E0
2.394000000E0,5.854876637E-1,3.202895880E0,5.456490993E0
2.396000000E0,6.247813106E-1,3.181951523E0,5.370376587E0
2.398000000E0,5.830551982E-1,3.543083191E0,5.282403946E0
2.400000000E0,7.542693019E-1,4.128666878E0,5.534350395E0
2.402000000E0,1.064174771E0,4.848507404E0,5.931548119E0
2.404000000E0,1.831363201E0,5.371812820E0,6.768130302E0
2.406000000E0,2.916491985E0,5.538966179E0,7.229627609E0
2.408000000E0,3.624610662E0,6.025037289E0,7.236445904E0
2.410000000E0,3.404258013E0,7.244020939E0,7.255944252E0
2.412000000E0,2.483055353E0,8.535328865E0,7.453207493E0
2.414000000E0,1.387822986E0,9.296886444E0,7.675532818E0
2.416000000E0,4.878425300E-1,9.416979790E0,7.829547405E0
2.418000000E0,-9.865068644E-2,9.050322533E0,7.739754677E0
2.420000000E0,-4.118793011E-1,8.564279556E0,7.325922012E0
2.422000000E0,-7.152342796E-1,8.348265648E0,6.642339230E0
2.424000000E0,-1.186403513E0,8.629631996E0,5.939908981E0
2.426000000E0,-1.853322744E0,9.347078323E0,5.050740719E0
2.428000000E0,-2.539999008E0,9.929262161E0,4.361009598E0
2.430000000E0,-3.019519329E0,9.861295700E0,4.272462368E0
2.432000000E0,-3.172202349E0,9.238190651E0,4.371601582E0
2.434000000E0,-3.086116552E0,8.388075829E0,4.489625931E0
2.436000000E0,-2.826642275E0,7.539867878E0,4.616930485E0
2.438000000E0,-2.488159657E0,6.877756119E0,4.523690701E0
2.440000000E0,-2.218333244E0,6.419860363E0,4.370596409E0
2.442000000E0,-2.141536951E0,6.247487068E0,4.066580296E0
2.444000000E0,-2.168332815E0,6.304095745E0,3.844724178E0
2.446000000E0,-2.079948187E0,6.400160789E0,3.945854902E0
2.448000000E0,-1.770885587E0,6.684869766E0,4.065977097E0
2.450000000E0,-1.413326025E0,7.174742699E0,3.977985382E0
2.452000000E0,-1.308555841E0,7.749063492E0,3.728518963E0
2.454000000E0,-1.152999640E0,8.071055412E0,3.782551289E0
2.456000000E0,-7.751754522E-1,7.996289253E0,4.178350925E0
2.458000000E0,-2.958754599E-1,7.707643986E0,4.335554600E0
2.460000000E0,1.058045551E-1,7.609567642E0,4.197332382E0
2.462000000E0,2.986239791E-1,7.552442551E0,4.181942463E0
2.464000000E0,5.065364838E-1,7.502020359E0,4.227116108E0
2.466000000E0,7.063182592E-1,7.307927132E0,4.347640514E0
2.468000000E0,8.997888565E-1,7.097793102E0,4.482213974E0
2.470000000E0,1.092780590E0,7.164217949E0,4.416708469E0
2.472000000E0,1.314177394E0,7.410360813E0,4.356403351E0
2.474000000E0,1.508529067E0,7.416958809E0,4.428172112E0
2.476000000E0,1.656682253E0,7.161708355E0,4.356364727E0
2.478000000E0,1.590037227E0,6.839506149E0,4.309332848E0
2.480000000E0,1.428016901E0,6.574037075E0,4.433745384E0
2.482000000E0,1.188041091E0,6.368959427E0,4.585442066E0
2.484000000E0,9.013881683E-1,6.217301369E0,4.841612339E0
2.486000000E0,6.239864230E-1,6.284348488E0,4.999715805E0
2.488000000E0,4.115920067E-1,6.681153774E0,5.165126324E0
2.490000000E0,2.626152039E-1,7.153213978E0,5.217578411E0
2.492000000E0,1.767303944E-1,7.544397831E0,5.157541275E0
2.494000000E0,1.508442909E-1,7.802061558E0,5.056295395E0
2.496000000E0,2.572330236E-1,7.929988861E0,5.033148289E0
2.498000000E0,3.805440068E-1,7.975038052E0,5.021895409E0
2.500000000E0,4.422377944E-1,7.973879337E0,4.802883148E0
2.502000000E0,3.878798187E-1,7.965920925E0,4.475778103E0
2.504000000E0,2.637261152E-1,8.016812325E0,4.191471577E0
2.506000000E0,4.589205980E-2,8.103425026E0,3.963323355E0
2.508000000E0,-2.366524637E-1,8.220367432E0,3.816979885E0
2.510057812E0,-5.709021688E-1,8.308320045E0,3.749358177E0
2.512000000E0,-9.308655858E-1,8.348907471E0,3.721901417E0
2.514000000E0,-1.213084579E0,8.371459961E0,3.733163834E0
2.516000000E0,-1.505138755E0,8.396168709E0,3.931662321E0
2.518000000E0,-1.969096780E0,8.608983994E0,4.521976471E0
2.520000000E0,-2.285619974E0,8.623110771E0,4.703447819E0
2.522000000E0,-2.419857979E0,8.387731552E0,4.759443283E0
2.524000000E0,-2.416525126E0,8.011669159E0,4.714403152E0
2.526000000E0,-2.301306725E0,7.644542694E0,4.569831848E0
2.528000000E0,-2.156620264E0,7.412055492E0,4.326025486E0
2.530000000E0,-2.005958080E0,7.366412640E0,4.052033424E0
2.532000000E0,-1.886429787E0,7.478538036E0,3.812182188E0
2.534000000E0,-1.797509193E0,7.617526531E0,3.652910233E0
2.536025000E0,-1.725539446E0,7.572160721E0,3.541158438E0
2.538000000E0,-1.656299233E0,7.303004742E0,3.482318640E0
2.540000000E0,-1.530996203E0,7.025880814E0,3.367712975E0
2.542000000E0,-1.382488608E0,6.897627831E0,3.213985920E0
2.544000000E0,-1.242035270E0,6.952340126E0,2.989342690E0
2.546000000E0,-1.192532659E0,7.129894733E0,2.686016560E0
2.548000000E0,-1.271244526E0,7.395391941E0,2.286386013E0
2.550000000E0,-1.412923813E0,7.727324009E0,2.173092365E0
2.552000000E0,-1.545821190E0,8.048473358E0,2.385908127E0
2.554000000E0,-1.609353662E0,8.225414276E0,2.404640436E0
2.556000000E0,-1.656529069E0,8.348457336E0,2.365155220E0
2.558000000E0,-1.734599113E0,8.541037560E0,2.368382454E0
2.560000000E0,-1.777972579E0,8.705642700E0,2.345513105E0
2.562000000E0,-1.768204093E0,8.623272896E0,2.433045149E0
2.564000000E0,-1.807373285E0,8.346368790E0,2.517187119E0
2.566000000E0,-1.979937792E0,8.070413589E0,2.395571232E0
2.568000000E0,-2.299209356E0,7.894985199E0,2.222614050E0
2.570000000E0,-2.737903833E0,7.852206230E0,2.070888758E0
2.572000000E0,-3.258144617E0,7.878705025E0,2.015151739E0
2.574000000E0,-3.834984303E0,7.890675545E0,2.067383528E0
2.576000000E0,-4.332221508E0,7.975909710E0,2.224108219E0
2.578000000E0,-4.676843166E0,8.169283867E0,2.444393873E0
2.580000000E0,-4.932524681E0,8.487378120E0,2.711366415E0
2.582000000E0,-5.107176781E0,8.890628815E0,2.973186731E0
2.584000000E0,-5.220757961E0,9.373280525E0,3.113984823E0
2.586000000E0,-5.208346367E0,9.703757286E0,3.317060947E0
2.588000000E0,-5.089881420E0,9.744017601E0,3.393761635E0
2.590000000E0,-5.025486946E0,9.705471992E0,3.322768688E0
2.592000000E0,-5.016111374E0,9.629546165E0,3.240312576E0
2.594000000E0,-5.050663948E0,9.612988472E0,3.237324715E0
2.596000000E0,-5.123572350E0,9.634564400E0,3.263756514E0
2.598000000E0,-5.172720909E0,9.650768280E0,3.321667433E0
2.600000000E0,-5.152264595E0,9.661437035E0,3.418469906E0
2.602000000E0,-5.082947731E0,9.682027817E0,3.551367283E0
2.604000000E0,-4.970228672E0,9.719530106E0,3.682875872E0
2.606000000E0,-4.794647694E0,9.753479958E0,3.831182480E0
2.608000000E0,-4.594540119E0,9.829270363E0,3.913226843E0
2.610000000E0,-4.422751427E0,9.940945625E0,3.969873667E0
2.612000000E0,-4.283159733E0,1.009276676E1,4.018830299E0
2.614000000E0,-4.111466885E0,1.018733788E1,4.151785374E0
2.616000000E0,-3.922698498E0,1.023466587E1,4.340572834E0
2.618000000E0,-3.737569094E0,1.027763748E1,4.521564960E0
2.620000000E0,-3.581036091E0,1.031998634E1,4.684207439E0
2.622000000E0,-3.429751396E0,1.034737587E1,4.891411781E0
2.624000000E0,-3.279615641E0,1.029592991E1,5.131061554E0
2.626000000E0,-3.082170725E0,1.020069695E1,5.389807701E0
2.628000000E0,-2.808609486E0,1.006193924E1,5.587041855E0
2.630000000E0,-2.504248857E0,9.916256905E0,5.715802193E0
2.632000000E0,-2.172230482E0,9.813573837E0,5.801428318E0
2.634000000E0,-1.890270114E0,9.771780968E0,5.862605095E0
2.636000000E0,-1.653904915E0,9.739239693E0,5.911734104E0
2.638000000E0,-1.454812765E0,9.709503174E0,5.935398579E0
2.640000000E0,-1.258737206E0,9.661005974E0,5.931624889E0
2.642000000E0,-1.155575752E0,9.581346512E0,5.964253426E0
2.644000000E0,-1.077007651E0,9.448907852E0,5.974950790E0
2.646000000E0,-1.037627816E0,9.255954742E0,5.934852600E0
2.648000000E0,-1.006838441E0,9.036186218E0,5.826539040E0
2.650000000E0,-9.718735218E-1,8.842266083E0,5.622629166E0
2.652000000E0,-9.855875373E-1,8.676768303E0,5.435124874E0
2.654000000E0,-1.038374901E0,8.538269997E0,5.233868599E0
2.656000000E0,-1.104406953E0,8.441791534E0,5.021388054E0
2.658000000E0,-1.160412073E0,8.392500877E0,4.809213638E0
2.660000000E0,-1.175447583E0,8.367197990E0,4.618683338E0
2.662000000E0,-1.204589963E0,8.412650108E0,4.447871208E0
2.664000000E0,-1.222680569E0,8.510716438E0,4.298434734E0
2.666000000E0,-1.218284845E0,8.640884399E0,4.163296223E0
2.668000000E0,-1.238606691E0,8.784910202E0,4.066417694E0
2.670000000E0,-1.294458628E0,8.921236038E0,3.951256275E0
2.672000000E0,-1.385122299E0,9.046529770E0,3.859385967E0
2.674000000E0,-1.482346058E0,9.149720192E0,3.815141439E0
2.676000000E0,-1.607045650E0,9.217964172E0,3.792214394E0
2.678000000E0,-1.724007249E0,9.251023293E0,3.826422930E0
2.680000000E0,-1.816557527E0,9.284934998E0,3.889275312E0
2.682000000E0,-1.898477435E0,9.285394669E0,3.982898235E0
2.684000000E0,-1.955986261E0,9.253570557E0,4.119855881E0
2.686000000E0,-1.984390974E0,9.240593910E0,4.209743977E0
2.688000000E0,-2.033108234E0,9.239081383E0,4.226503372E0
2.690000000E0,-2.114980221E0,9.250554085E0,4.186970234E0
2.692000000E0,-2.209168196E0,9.288219452E0,4.075889111E0
2.694000000E0,-2.255079269E0,9.373597145E0,3.822419643E0
2.696000000E0,-2.261792660E0,9.465084076E0,3.555562019E0
2.698000000E0,-2.274050951E0,9.586738586E0,3.290648222E0
2.700000000E0,-2.289201736E0,9.679901123E0,3.098891735E0
2.702000000E0,-2.293137789E0,9.735896111E0,2.952089071E0
2.704000000E0,-2.258776188E0,9.769061089E0,2.909883976E0
2.706000000E0,-2.188951731E0,9.816198349E0,2.887531757E0
2.708000000E0,-2.107376337E0,9.854055405E0,2.895557165E0
2.710000000E0,-1.981766939E0,9.884930611E0,3.000020981E0
2.712000000E0,-1.893411398E0,9.880966187E0,3.201373339E0
2.714000000E0,-1.772983074E0,9.878658295E0,3.542096853E0
2.716000000E0,-1.623412371E0,9.893425941E0,3.911033869E0
2.718000000E0,-1.494240522E0,9.926321983E0,4.359678745E0
2.720000000E0,-1.348855019E0,9.981801033E0,4.845471859E0
2.722000000E0,-1.169069529E0,1.009877110E1,5.334424973E0
2.724000000E0,-9.193351269E-1,1.023635197E1,5.843422890E0
2.726000000E0,-6.807385683E-1,1.036650085E1,6.435461044E0
2.728000000E0,-4.825178087E-1,1.044691658E1,7.064762592E0
2.730000000E0,-2.872180045E-1,1.058615398E1,7.554989815E0
2.732000000E0,-1.255040467E-1,1.071803570E1,8.003068924E0
2.734000000E0,2.859634534E-2,1.086923504E1,8.346905708E0
2.736000000E0,1.622981429E-1,1.100743866E1,8.598506927E0
2.738000000E0,2.770186961E-1,1.120514202E1,8.730676651E0
2.740000000E0,3.053947985E-1,1.135971069E1,8.855654716E0
2.742000000E0,2.326972485E-1,1.136009502E1,9.116152763E0
2.744000000E0,1.949837804E-1,1.133983994E1,9.361625671E0
2.746000000E0,2.121454328E-1,1.135361099E1,9.428097725E0
2.748000000E0,2.509027421E-1,1.141836929E1,9.454865456E0
2.750000000E0,3.275651038E-1,1.158863544E1,9.347921371E0
2.752000000E0,4.042561650E-1,1.201552105E1,8.915499687E0
2.754000000E0,3.942771256E-1,1.216581059E1,8.837161064E0
2.756000000E0,2.529521883E-1,1.202463913E1,9.029167175E0
2.758000000E0,9.287586808E-2,1.179244900E1,9.060396194E0
2.760000000E0,-1.496854890E-2,1.151838970E1,8.857541084E0
2.762000000E0,-1.457015425E-1,1.126159668E1,8.556531906E0
2.764000000E0,-3.298060596E-1,1.117602825E1,8.195601463E0
2.766000000E0,-5.383985043E-1,1.113215733E1,7.832554340E0
2.768000000E0,-8.549215794E-1,1.088301659E1,7.688882828E0
2.770000000E0,-1.055852532E0,1.056582355E1,7.694591045E0
2.772000000E0,-9.984683394E-1,1.026658630E1,7.672075748E0
2.774000000E0,-8.830390573E-1,1.002487659E1,7.561233997E0
2.776000000E0,-8.109257221E-1,9.806036949E0,7.333468914E0
2.778000000E0,-6.585587263E-1,9.603833199E0,7.064369678E0
2.780000000E0,-4.191097915E-1,9.457135201E0,6.835360050E0
2.782000000E0,-2.241643220E-1,9.283757210E0,6.667066574E0
2.784000000E0,-1.495897174E-1,9.141004562E0,6.380106926E0
2.786000000E0,-1.398309618E-1,8.963699341E0,6.135113239E0
2.788000000E0,-1.748341769E-1,8.753258705E0,6.015518188E0
2.790000000E0,-1.617331058E-1,8.461664200E0,6.150972366E0
2.792000000E0,-8.105809242E-2,8.162293434E0,6.262159348E0
2.794000000E0,5.477933213E-3,7.964886665E0,6.198348522E0
2.796000000E0,1.450598836E-1,7.802712917E0,6.080764771E0
2.798000000E0,3.878032267E-1,7.605497360E0,6.018706799E0
2.800000000E0,7.597759366E-1,7.418692589E0,6.074090004E0
2.802000000E0,1.049311519E0,7.252391338E0,5.828109264E0
2.804000000E0,1.240809441E0,7.122328758E0,5.630731583E0
2.806000000E0,1.395043850E0,7.074760914E0,5.572217464E0
2.808000000E0,1.555034041E0,7.170433044E0,5.496139050E0
2.810000000E0,1.652679086E0,7.311250687E0,5.430604935E0
2.812000000E0,1.648723841E0,7.445143700E0,5.266066074E0
2.814000000E0,1.496577144E0,7.616702557E0,4.954053402E0
2.816000000E0,1.211676717E0,7.820238113E0,4.395543575E0
2.818000000E0,1.111417055E0,7.928772449E0,4.195857525E0
2.820000000E0,1.313976169E0,7.832123280E0,4.426687717E0
2.822000000E0,1.293951035E0,7.642827988E0,4.949274540E0
2.824000000E0,1.005057096E0,7.380662918E0,5.782561779E0
2.826000000E0,7.171017528E-1,7.159122467E0,6.459345818E0
2.828000000E0,5.959264040E-1,6.996604443E0,6.764548779E0
2.830000000E0,5.988568664E-1,6.890569687E0,6.809282303E0
2.832000000E0,6.036835909E-1,6.846162319E0,6.657863140E0
2.834000000E0,5.173965693E-1,6.773110390E0,6.445554733E0
2.836000000E0,3.899579942E-1,6.610908031E0,6.157944202E0
2.838000000E0,4.108067155E-1,6.410053730E0,5.859923363E0
2.840000000E0,4.517571330E-1,6.192573547E0,5.524179459E0
2.842000000E0,4.492192566E-1,5.970583439E0,5.309458733E0
2.844000000E0,5.122538209E-1,5.840214252E0,5.257455826E0
2.846000000E0,6.356030703E-1,5.801418781E0,5.590786457E0
2.848000000E0,7.717374563E-1,5.781365395E0,5.867517948E0
2.850000000E0,8.447510004E-1,5.821759701E0,5.737541676E0
2.852000000E0,9.674394727E-1,5.789831161E0,5.672591686E0
2.854000000E0,1.181739569E0,5.666223049E0,5.938481808E0
2.856000000E0,1.346949100E0,5.563961983E0,6.090867996E0
2.858000000E0,1.525882244E0,5.460043907E0,6.172386169E0
2.860000000E0,1.698906422E0,5.350217342E0,6.232356071E0
2.862000000E0,1.889082670E0,5.257437229E0,6.240687847E0
2.864000000E0,2.131921530E0,5.132450104E0,6.327530384E0
2.866000000E0,2.342410326E0,5.069923401E0,6.396971703E0
2.868000000E0,2.607477188E0,4.987505436E0,6.499711990E0
2.870000000E0,2.855689049E0,4.801016331E0,6.588699341E0
2.872000000E0,3.197695732E0,4.512878895E0,6.826529980E0
2.874000000E0,3.382662296E0,4.301403999E0,7.134605885E0
2.876000000E0,3.596981764E0,4.084498405E0,7.752310276E0
2.878000000E0,3.605734825E0,3.858332872E0,8.293715477E0
2.880000000E0,3.518911362E0,3.694655418E0,8.765766144E0
2.882000000E0,3.347467422E0,3.562955379E0,8.911046028E0
2.884000000E0,3.112577200E0,3.570243120E0,8.655268669E0
2.886000000E0,2.808398724E0,3.626880407E0,8.290613174E0
2.888000000E0,2.316294432E0,3.745412588E0,7.883177280E0
2.890000000E0,1.771584749E0,3.932246447E0,7.568665504E0
2.892000000E0,1.340197563E0,4.181109428E0,7.174311638E0
2.894000000E0,1.097329736E0,4.426888466E0,6.697089672E0
2.896000000E0,1.006828904E0,4.453330040E0,7.716406822E0
2.898000000E0,1.211226702E0,4.567083359E0,7.897609234E0
2.900000000E0,1.490237355E0,4.819700241E0,8.160099983E0
2.902000000E0,1.745382547E0,5.062817574E0,8.911975861E0
2.904000000E0,2.050595522E0,5.336398125E0,9.108013153E0
2.906000000E0,2.418249130E0,5.678184509E0,8.837802887E0
2.908000000E0,2.731209517E0,5.997704983E0,8.543574333E0
2.910000000E0,2.915668488E0,6.173420429E0,8.449185371E0
2.912000000E0,2.985186577E0,6.239806652E0,8.593364716E0
2.914000000E0,2.918704271E0,6.167837143E0,8.752176285E0
2.916000000E0,2.822840214E0,6.013851643E0,8.809599876E0
2.918000000E0,2.701176643E0,5.863419056E0,8.576691628E0
2.920000000E0,2.517034054E0,5.783548355E0,8.197124481E0
2.922000000E0,2.334720135E0,5.786919594E0,7.821646690E0
2.924000000E0,2.141172886E0,5.819452286E0,7.445890427E0
2.926000000E0,1.899157405E0,5.877908707E0,7.197803497E0
2.928000000E0,1.672752023E0,5.943414211E0,7.212896347E0
2.930000000E0,1.471227407E0,5.980007172E0,7.364229202E0
2.932000000E0,1.261782646E0,6.018506050E0,7.438545227E0
2.934000000E0,1.090788722E0,6.078255653E0,7.502901554E0
2.936000000E0,9.570294619E-1,6.141883850E0,7.517582417E0
2.938000000E0,8.587235212E-1,6.217540741E0,7.448888302E0
2.940000000E0,7.370693088E-1,6.294672489E0,7.211029530E0
2.942000000E0,5.668224692E-1,6.327520370E0,7.028007030E0
2.944000000E0,4.348348975E-1,6.370472431E0,6.949946404E0
2.946000000E0,3.735529184E-1,6.403398037E0,6.922671318E0
2.948000000E0,4.021780193E-1,6.346319675E0,6.682619095E0
2.950000000E0,3.385305405E-1,6.260540485E0,6.404767036E0
2.952000000E0,2.568116486E-1,6.223918915E0,6.231005669E0
2.954000000E0,3.072239645E-2,6.297641277E0,5.594205379E0
2.956000000E0,-2.743276358E-1,6.592626095E0,4.706665516E0
2.958000000E0,-1.686763018E-1,6.744543076E0,5.340611935E0
2.960000000E0,4.057693109E-2,6.712882042E0,6.010557175E0
2.962000000E0,6.610869616E-2,6.750576019E0,6.000013351E0
2.964000000E0,9.471462108E-3,7.087612629E0,5.271189690E0
2.966000000E0,1.354735047E-1,7.446417332E0,4.378209591E0
2.968000000E0,4.667160809E-1,7.680235386E0,5.458032608E0
2.970000000E0,8.140285611E-1,7.503351688E0,6.917049885E0
2.972000000E0,1.250290394E0,7.314132690E0,8.037842751E0
2.974000000E0,1.752967358E0,7.210722446E0,8.579421043E0
2.976000000E0,2.094035864E0,7.087181568E0,8.577179909E0
2.978000000E0,2.138606310E0,6.963161945E0,8.414738655E0
2.980000000E0,2.181807280E0,6.897168636E0,8.007858276E0
2.982000000E0,2.093643427E0,6.798230648E0,7.461548805E0
2.984000000E0,1.905075908E0,6.733069897E0,6.885312557E0
2.986000000E0,1.655312777E0,6.748201370E0,6.390890598E0
2.988000000E0,8.970211744E-1,7.042850494E0,5.294939995E0
2.990000000E0,1.529032886E-1,7.816637516E0,3.993164539E0
2.992000000E0,6.407841295E-2,8.236523628E0,5.087266445E0
2.994000000E0,4.404948056E-1,8.718523026E0,6.608188152E0
2.996000000E0,1.054473519E0,9.252028465E0,7.817193031E0
2.998000000E0,1.500733495E0,9.693998337E0,8.355112076E0
3.000000000E0,1.624130607E0,1.009893417E1,7.920641422E0
3.002000000E0,1.634109735E0,1.028116226E1,7.825716496E0
3.004000000E0,1.611144543E0,1.033828735E1,7.502815247E0
3.005998437E0,1.524857521E0,1.022354794E1,7.275940418E0
3.008000000E0,1.364216208E0,9.961737633E0,7.024214268E0
3.010000000E0,1.106054187E0,9.661561966E0,6.597548485E0
3.012000000E0,8.098722696E-1,9.386477470E0,6.237010479E0
3.014000000E0,5.416545868E-1,9.166268349E0,6.039028645E0
3.016000000E0,2.724601328E-1,9.093675613E0,6.215366840E0
3.018000000E0,3.876021206E-1,9.092679977E0,6.264132023E0
3.020000000E0,4.658924937E-1,8.959256172E0,6.021848202E0
3.022000000E0,4.305253625E-1,8.759215355E0,5.685118198E0
3.024000000E0,4.966340363E-1,8.621989250E0,5.577733517E0
3.026000000E0,5.977651477E-1,8.523913383E0,5.535011292E0
3.028000000E0,6.261220574E-1,8.429773331E0,5.377673626E0
3.030000000E0,6.486562490E-1,8.358732224E0,5.121714592E0
3.032000000E0,7.165558338E-1,8.304815292E0,5.266295433E0
3.034000000E0,8.232414722E-1,8.261000633E0,5.695049286E0
3.036000000E0,8.197650909E-1,8.196367264E0,5.584475517E0
3.038000000E0,7.807874680E-1,8.128094673E0,5.237421513E0
3.040000000E0,7.704541087E-1,8.036166191E0,4.980696201E0
3.042000000E0,7.916092277E-1,7.937784195E0,4.808649063E0
3.044000000E0,8.059840798E-1,7.847896576E0,4.771395206E0
3.046000000E0,8.679938912E-1,7.769366741E0,5.033607960E0
3.048000000E0,1.016233325E0,7.710488319E0,5.292842865E0
3.050000000E0,1.219951153E0,7.596735001E0,5.611606598E0
3.052000000E0,1.354524374E0,7.510524273E0,5.892360210E0
3.054000000E0,1.520662785E0,7.418903351E0,6.191271305E0
3.056000000E0,1.626093864E0,7.331495762E0,6.294969082E0
3.058000000E0,1.610148549E0,7.315444946E0,6.356059551E0
3.060000000E0,1.659009457E0,7.358483315E0,6.376027107E0
3.062000000E0,1.922860026E0,7.353962898E0,6.376410007E0
3.064000000E0,2.103622198E0,7.272560120E0,6.336340904E0
3.066000000E0,2.175189734E0,7.035524368E0,6.301060200E0
3.068000000E0,2.168763638E0,6.724527359E0,6.331351757E0
3.070000000E0,2.179633379E0,6.454078197E0,6.469094753E0
3.072000000E0,2.186222076E0,6.178017139E0,6.682102203E0
3.074000000E0,2.131126642E0,5.855087280E0,6.815200806E0
3.076000000E0,2.059434891E0,5.565101624E0,6.923906803E0
3.078000000E0,1.990357280E0,5.307246208E0,7.011592388E0
3.080000000E0,1.874688745E0,5.098385334E0,7.093320370E0
3.082000000E0,1.827388763E0,4.966905117E0,7.336044788E0
3.084000000E0,1.857134342E0,4.862087250E0,7.600421906E0
3.086000000E0,1.934218168E0,4.761032581E0,7.872709751E0
3.088000000E0,1.985760450E0,4.624764442E0,8.016611099E0
3.090000000E0,1.961511970E0,4.422387123E0,8.027882576E0
3.092000000E0,1.989447474E0,4.232278347E0,8.151328087E0
3.094000000E0,2.029564857E0,4.018571854E0,8.246233940E0
3.096000000E0,2.100931168E0,3.844522953E0,8.350047112E0
3.098000000E0,2.189545393E0,3.726230145E0,8.409891129E0
3.100000000E0,2.238559246E0,3.599672556E0,8.355831146E0
3.102000000E0,2.184373856E0,3.462188005E0,8.224618912E0
3.104000000E0,2.122593880E0,3.377318382E0,8.129579544E0
3.106000000E0,2.096353531E0,3.341759682E0,8.016926765E0
3.108000000E0,1.984467626E0,3.287468672E0,7.832717419E0
3.110000000E0,1.831775069E0,3.257330656E0,7.799523830E0
3.112000000E0,1.662859201E0,3.237219334E0,7.752855778E0
3.114000000E0,1.447850347E0,3.215412855E0,7.671395302E0
3.116000000E0,1.234325886E0,3.222164631E0,7.667756557E0
3.118000000E0,1.059070349E0,3.288359404E0,7.676059723E0
3.120000000E0,8.748604655E-1,3.420088291E0,7.685616970E0
3.122000000E0,6.767067313E-1,3.569007874E0,7.652404785E0
3.124000000E0,4.837053418E-1,3.675214529E0,7.579602242E0
3.126000000E0,3.637079895E-1,3.802729845E0,7.532733440E0
3.128000000E0,2.894302607E-1,3.941066742E0,7.389626980E0
3.130000000E0,2.285026163E-1,4.075056076E0,7.187603951E0
3.132000000E0,1.445235908E-1,4.223639965E0,6.986385822E0
3.134000000E0,3.466803953E-2,4.353376865E0,6.852205276E0
3.136000000E0,-5.476975814E-2,4.508741856E0,6.849399567E0
3.138000000E0,-1.923310161E-1,4.631669521E0,6.822909832E0
3.140000000E0,-3.697700799E-1,4.727447033E0,6.673195839E0
3.142000000E0,-5.054447055E-1,4.830282688E0,6.425797939E0
3.144000000E0,-6.224445701E-1,4.932218075E0,6.202418804E0
3.146000000E0,-7.329226136E-1,4.997848034E0,6.090322495E0
3.148000000E0,-7.999315262E-1,5.066590309E0,6.039144039E0
3.150000000E0,-7.958230376E-1,5.174492359E0,5.950366974E0
3.152000000E0,-6.961380839E-1,5.304210663E0,5.830321789E0
3.154000000E0,-4.975629747E-1,5.450151443E0,5.626029491E0
3.156000000E0,-2.573383749E-1,5.615906715E0,5.418183804E0
3.158000000E0,-3.227383643E-2,5.799081802E0,5.220681190E0
3.160000000E0,1.469082236E-1,5.963516235E0,5.053786278E0
3.162000000E0,2.405693829E-1,6.102149963E0,4.921099663E0
3.164000000E0,2.752470076E-1,6.192880154E0,4.850528240E0
3.166000000E0,2.597134113E-1,6.260550499E0,4.826624393E0
3.168000000E0,2.210518420E-1,6.316603184E0,4.879986286E0
3.170000000E0,1.981728673E-1,6.388802528E0,4.994237900E0
3.172000000E0,1.963341236E-1,6.486227512E0,5.128264904E0
3.174000000E0,2.118581235E-1,6.630138397E0,5.257800579E0
3.176000000E0,2.527127862E-1,6.807223320E0,5.313949585E0
3.178000000E0,3.065727651E-1,6.994947910E0,5.382002354E0
3.180000000E0,3.572436273E-1,7.166765213E0,5.426841259E0
3.182000000E0,3.985292315E-1,7.320453644E0,5.424456596E0
3.184000000E0,4.387135208E-1,7.446800232E0,5.441426754E0
3.186000000E0,5.051670074E-1,7.525310993E0,5.440708637E0
3.188000000E0,5.558474660E-1,7.556704044E0,5.413912773E0
3.190000000E0,5.845395327E-1,7.562823296E0,5.418901920E0
3.192000000E0,6.045168042E-1,7.542587757E0,5.435967922E0
3.194000000E0,5.945664644E-1,7.483699799E0,5.504642963E0
3.196000000E0,6.399892569E-1,7.474142075E0,5.692540169E0
3.198000000E0,8.626404405E-1,7.705719471E0,6.060615063E0
3.200000000E0,9.122483134E-1,7.814789295E0,6.242085934E0
3.202000000E0,9.071151018E-1,7.718092442E0,6.507603168E0
3.204000000E0,1.080168128E0,7.559519768E0,6.796075821E0
3.206000000E0,1.299189568E0,7.300562382E0,6.700977802E0
3.208000000E0,1.525039434E0,6.982468605E0,6.683433056E0
3.210000000E0,1.677195787E0,6.638834000E0,6.852071285E0
3.212000000E0,1.658990264E0,6.295639515E0,6.935705662E0
3.214000000E0,1.512867332E0,5.990742683E0,6.897627831E0
3.216000000E0,1.279097438E0,5.705775261E0,6.818178654E0
3.218000000E0,1.065707088E0,5.565082550E0,6.777017593E0
3.220000000E0,8.580435514E-1,5.421104431E0,6.827937603E0
3.222000000E0,6.608571410E-1,5.190686703E0,6.932832718E0
3.224000000E0,4.780645967E-1,4.994658947E0,7.093569279E0
3.226000000E0,3.457227051E-1,4.873378277E0,7.271439552E0
3.228000000E0,1.977131814E-1,4.694646358E0,7.419229031E0
3.230000000E0,9.456139058E-2,4.517810345E0,7.656427383E0
3.232000000E0,2.218946069E-2,4.347697735E0,7.835254669E0
3.234000000E0,-2.976471558E-2,4.195464611E0,7.963028908E0
3.236000000E0,-1.240579560E-1,4.097043991E0,8.018440247E0
3.238000000E0,-2.484798282E-1,3.980772257E0,7.910030842E0
3.240000000E0,-3.704021573E-1,3.893010139E0,7.798154354E0
3.242000000E0,-4.965095520E-1,3.854128361E0,7.768792152E0
3.244000000E0,-6.346071362E-1,3.814394236E0,7.678205013E0
3.246000000E0,-7.178774476E-1,3.779343367E0,7.566903114E0
3.248000000E0,-7.279617786E-1,3.729668140E0,7.497538567E0
3.250000000E0,-7.372608781E-1,3.629810810E0,7.401147842E0
3.252000000E0,-7.294175029E-1,3.484607458E0,7.320310116E0
3.254000000E0,-6.134614944E-1,3.417569637E0,7.344443321E0
3.256000000E0,-4.354382753E-1,3.389959812E0,7.368682384E0
3.258000000E0,-1.986708492E-1,3.434166193E0,7.413980961E0
3.260000000E0,9.619902819E-2,3.504756927E0,7.361336708E0
3.262000000E0,4.040454626E-1,3.569371700E0,7.298752308E0
3.264000000E0,6.134902239E-1,3.630663395E0,7.222032547E0
3.266000000E0,5.829306841E-1,3.702498674E0,7.245285034E0
3.268000000E0,3.870466650E-1,3.858217716E0,7.428297997E0
3.270000000E0,8.380663395E-2,4.103067875E0,7.612536430E0
3.272000000E0,-2.128924243E-2,4.341520786E0,7.568818569E0
3.274000000E0,1.859145463E-1,4.431744099E0,7.387146473E0
3.276000000E0,4.356010556E-1,4.428095341E0,7.198052406E0
3.278000000E0,5.331217051E-1,4.479321957E0,7.103615761E0
3.280000000E0,4.257082343E-1,4.622581005E0,7.066102982E0
3.282000000E0,4.298932850E-1,4.804032803E0,6.895865917E0
3.284000000E0,4.763216376E-1,4.882763863E0,6.755383968E0
3.286000000E0,2.972736657E-1,4.939582825E0,6.839056015E0
3.288000000E0,-3.362991214E-1,5.117855072E0,7.164083481E0
3.290000000E0,-8.536765575E-1,5.284932137E0,7.298187733E0
3.292000000E0,-9.493775368E-1,5.323747158E0,7.310340405E0
3.294000000E0,-7.612411976E-1,5.227165222E0,7.283659458E0
3.296000000E0,-3.465559185E-1,5.101622581E0,7.195428371E0
3.298000000E0,-1.764047891E-2,5.034996510E0,7.091347694E0
3.300000000E0,7.155790180E-2,4.939908504E0,6.870497227E0
3.302000000E0,-3.160346241E-4,4.739839554E0,6.539848328E0
3.304000000E0,-1.335964538E-2,4.514191151E0,6.365368366E0
3.306000000E0,3.037763014E-2,4.339423180E0,6.348465443E0
3.308000000E0,1.321982443E-1,4.277978420E0,6.321420193E0
3.310000000E0,1.479424983E-1,4.214828968E0,6.233026505E0
3.312000000E0,8.575072140E-2,4.151747227E0,6.331897259E0
3.314000000E0,-1.978568360E-2,4.146527290E0,6.256633282E0
3.316000000E0,-1.147109941E-1,4.171197414E0,6.121485233E0
3.318000000E0,-2.195482999E-1,4.185706139E0,6.086549282E0
3.320000000E0,-3.771633804E-1,4.201814651E0,6.180995464E0
3.322000000E0,-4.221360683E-1,4.238368988E0,6.376611233E0
3.324000000E0,-2.339422256E-1,4.274664879E0,6.589111328E0
3.326000000E0,2.871318460E-1,4.305282116E0,6.614173889E0
3.328000000E0,9.690771103E-1,4.255875587E0,6.530089378E0
3.330000000E0,1.716805458E0,4.123581409E0,6.408502579E0
3.332000000E0,2.489107847E0,3.990722418E0,6.317541599E0
3.334000000E0,3.132678986E0,3.894705296E0,6.237431526E0
3.336000000E0,3.420145750E0,3.876911640E0,6.266593456E0
3.338000000E0,3.453722239E0,3.978732109E0,6.387940884E0
3.340000000E0,3.244804144E0,4.230650425E0,6.628328323E0
3.342000000E0,2.330429792E0,4.558846951E0,7.107752800E0
3.344000000E0,1.878481030E0,5.034996510E0,7.277904034E0
3.346000000E0,2.100672722E0,5.511692047E0,7.042304516E0
3.348000000E0,1.800161958E0,5.747893810E0,6.762805462E0
3.350000000E0,1.697680593E0,6.022987843E0,6.490987301E0
3.352000000E0,2.625174999E0,6.395065784E0,6.046086788E0
3.354000000E0,3.391942024E0,6.625349998E0,5.867001057E0
3.356000000E0,3.474877119E0,6.729497433E0,6.069512367E0
3.358000000E0,3.009454012E0,6.805546761E0,6.508732796E0
3.360000000E0,2.378399849E0,6.945464134E0,6.845942020E0
3.362000000E0,2.277010202E0,7.239424229E0,6.871990681E0
3.364000000E0,3.391664505E0,7.622372150E0,6.387299538E0
3.366000000E0,4.843498707E0,7.950875282E0,5.842120171E0
3.368000000E0,5.667257309E0,8.129923820E0,5.520463943E0
3.370000000E0,5.831145287E0,8.210120201E0,5.466661453E0
3.372000000E0,5.520119190E0,8.282827377E0,5.576746941E0
3.374000000E0,4.896238327E0,8.477447510E0,5.848843098E0
3.376000000E0,4.389347553E0,8.749533653E0,6.050252914E0
3.378000000E0,4.046469212E0,8.995878220E0,6.273583889E0
3.380000000E0,3.721709967E0,9.254030228E0,6.423662186E0
3.382000000E0,3.330535650E0,9.485616684E0,6.471249580E0
3.384000000E0,2.830118895E0,9.650711060E0,6.482129097E0
3.386000000E0,2.276866674E0,9.745521545E0,6.421172142E0
3.388000000E0,1.755313754E0,9.819492340E0,6.309755802E0
3.390000000E0,1.205279469E0,9.899909019E0,6.230996132E0
3.392000000E0,6.495565176E-1,9.971888542E0,6.261345387E0
3.394000000E0,-2.087648213E-1,1.003714466E1,6.554960251E0
3.396000000E0,-9.420034289E-1,1.003492260E1,6.711588860E0
3.398000000E0,-7.068641186E-1,9.920747757E0,6.385594845E0
3.400000000E0,-2.332910150E-1,9.629182816E0,5.872699261E0
3.402000000E0,7.014053315E-2,9.224293709E0,5.444922447E0
3.404000000E0,1.476552188E-1,8.815087318E0,5.204017639E0
3.406000000E0,1.588983834E-1,8.458292961E0,5.192420006E0
3.408000000E0,1.851675510E-1,8.158156395E0,5.239739418E0
3.410000000E0,1.867668927E-1,7.915968418E0,5.326888084E0
3.412000000E0,1.729188263E-1,7.711599350E0,5.450572968E0
3.414000000E0,2.217413783E-1,7.494167328E0,5.542395115E0
3.416000000E0,2.453961074E-1,7.265817642E0,5.700096130E0
3.418000000E0,2.333580405E-1,7.022136211E0,5.878703594E0
3.420000000E0,2.548962831E-1,6.777448654E0,6.019875526E0
3.422000000E0,2.448310703E-1,6.551647186E0,6.200072765E0
3.424000000E0,2.353979200E-1,6.342221260E0,6.424016476E0
3.426000000E0,2.189736962E-1,6.163776398E0,6.617305279E0
3.428000000E0,2.087456584E-1,5.962721348E0,6.778129101E0
3.430000000E0,2.307340056E-1,5.747175694E0,6.902091026E0
3.432000000E0,2.476370633E-1,5.544616699E0,6.965834141E0
3.434000000E0,2.877926230E-1,5.358912945E0,6.986682415E0
3.436000000E0,3.240025342E-1,5.158767223E0,7.021695614E0
3.438000000E0,3.618979454E-1,4.934134007E0,7.039039135E0
3.440000000E0,4.101650715E-1,4.717477322E0,7.123104572E0
3.442000000E0,4.630481899E-1,4.501309872E0,7.258357525E0
3.444000000E0,5.239949822E-1,4.302313328E0,7.422810555E0
3.446000000E0,5.870487094E-1,4.144258022E0,7.526498318E0
3.448000000E0,5.856696367E-1,4.040301323E0,7.470445633E0
3.450000000E0,5.726739168E-1,3.971568823E0,7.367006302E0
3.452000000E0,5.395573378E-1,3.987964392E0,7.149746895E0
3.454000000E0,4.849694967E-1,4.093452930E0,6.902061939E0
3.456000000E0,4.640729129E-1,4.279912949E0,6.695260525E0
3.458000000E0,4.137084782E-1,4.491263866E0,6.498821259E0
3.460000000E0,3.168582022E-1,4.682627678E0,6.356902122E0
3.462000000E0,2.189258039E-1,4.877477169E0,6.225422382E0
3.464000000E0,1.416984349E-1,5.123380661E0,6.166860580E0
3.466000000E0,2.092532441E-2,5.378804207E0,6.132958412E0
3.468000000E0,-1.078635678E-1,5.553676128E0,6.148166656E0
3.470000000E0,-2.107855231E-1,5.678826332E0,6.198789597E0
3.472000000E0,-3.027611673E-1,5.788844585E0,6.262676239E0
3.474000000E0,-3.434530199E-1,5.883521080E0,6.370942116E0
3.476000000E0,-3.705266416E-1,6.004006863E0,6.475645065E0
3.478000000E0,-3.720206320E-1,6.161085606E0,6.540135384E0
3.480000000E0,-3.501663506E-1,6.394050598E0,6.563004971E0
3.482000000E0,-3.404650688E-1,6.661799431E0,6.580587864E0
3.484000000E0,-3.576937318E-1,6.892188549E0,6.613388538E0
3.486000000E0,-4.086902142E-1,7.152361393E0,6.689284801E0
3.488000000E0,-5.156439543E-1,7.397747993E0,6.834861755E0
3.490000000E0,-6.521134973E-1,7.632073402E0,7.037487984E0
3.492000000E0,-8.351742029E-1,7.885197639E0,7.287729263E0
3.494000000E0,-1.018751979E0,8.067416191E0,7.669327259E0
3.496000000E0,-1.299342871E0,8.204383850E0,7.942946434E0
3.498000000E0,-1.649078250E0,8.311653137E0,8.012722969E0
3.500000000E0,-1.921911836E0,8.354892731E0,8.133131981E0
3.502000000E0,-1.991592765E0,8.414813995E0,8.682927132E0
3.504000000E0,-1.797451615E0,8.237605095E0,9.738089561E0
3.506000000E0,-1.616287231E0,8.234837532E0,1.031807041E1
3.508000000E0,-1.482891917E0,8.427839279E0,1.051563072E1
3.510000000E0,-1.299965382E0,8.691671371E0,1.075262833E1
3.512000000E0,-1.193547845E0,8.849850655E0,1.087310410E1
3.514000000E0,-9.880391955E-1,9.215540886E0,1.102349758E1
3.516000000E0,-8.721981049E-1,9.618485451E0,1.097549915E1
3.518000000E0,-8.164419532E-1,1.003893566E1,1.086816216E1
3.520000000E0,-7.641525865E-1,1.043383503E1,1.076960754E1
3.522000000E0,-7.090284228E-1,1.082765198E1,1.068689251E1
3.524000000E0,-7.664797306E-1,1.128707123E1,1.045137024E1
3.526000000E0,-9.386132956E-1,1.184264088E1,1.004649258E1
3.528000000E0,-1.112441897E0,1.244711876E1,9.536805153E0
3.530000000E0,-1.238673806E0,1.297622871E1,9.100418091E0
3.532000000E0,-1.355922580E0,1.342450047E1,8.705317497E0
3.534000000E0,-1.421198130E0,1.388640785E1,8.338822365E0
3.536028125E0,-1.344162345E0,1.442913532E1,7.999162197E0
3.538000000E0,-9.380003810E-1,1.532496834E1,7.626327038E0
3.540000000E0,-7.384101152E-1,1.561166954E1,7.495948792E0
3.542000000E0,-1.108706892E-1,1.621273041E1,7.144173145E0
3.544000000E0,7.943961024E-2,1.630142975E1,7.025584221E0
3.546000000E0,4.165144861E-1,1.632624245E1,6.834660530E0
3.548000000E0,5.775580406E-1,1.616917419E1,6.597290039E0
3.550000000E0,5.366842747E-1,1.584573650E1,6.394127369E0
3.552000000E0,3.733230829E-1,1.535280895E1,6.171629429E0
3.554000000E0,2.204772532E-1,1.476068497E1,5.924787045E0
3.556000000E0,8.180508763E-2,1.413295269E1,5.745959282E0
3.558000000E0,-3.863283992E-2,1.356945419E1,5.602451324E0
3.560000000E0,-1.153526381E-1,1.303059578E1,5.673903942E0
3.562000000E0,-1.873127520E-1,1.247409725E1,5.743067265E0
3.564000000E0,-2.488341630E-1,1.196841335E1,5.618904114E0
3.566000000E0,-2.601060867E-1,1.157578278E1,5.356787205E0
3.568000000E0,-2.766260803E-1,1.124769115E1,5.059973240E0
3.570000000E0,-3.187161386E-1,1.104258537E1,4.686218739E0
3.572000000E0,-3.752097189E-1,1.082230854E1,4.431763172E0
3.574000000E0,-4.526381791E-1,1.057438469E1,4.362369537E0
3.576000000E0,-5.298846960E-1,1.038042545E1,4.373057365E0
3.578000000E0,-6.297420859E-1,1.029183006E1,4.239920616E0
3.580000000E0,-8.361797333E-1,1.020548630E1,4.126894951E0
3.582000000E0,-1.225486398E0,1.009498787E1,4.042753220E0
3.584000000E0,-1.315671206E0,1.006137371E1,4.062912464E0
3.586000000E0,-1.395723820E0,9.958567619E0,4.171724319E0
3.588000000E0,-1.340322018E0,9.804811478E0,4.370548248E0
3.590000000E0,-1.194304466E0,9.609023094E0,4.583737373E0
3.592000000E0,-9.460256696E-1,9.371996880E0,4.729678154E0
3.594000000E0,-7.003136277E-1,9.091492653E0,4.889314651E0
3.596000000E0,-4.865401089E-1,8.785331726E0,5.032631397E0
3.598000000E0,-2.315576226E-1,8.506032944E0,5.188483715E0
3.600000000E0,8.552088402E-3,8.193455696E0,5.427262783E0
3.602000000E0,1.812985241E-1,7.890513420E0,5.660093784E0
3.604000000E0,3.137361705E-1,7.588240147E0,5.784199715E0
3.606000000E0,4.248271585E-1,7.281619549E0,5.916484356E0
3.608000000E0,4.885224998E-1,7.014062881E0,6.044832706E0
3.610000000E0,5.139297247E-1,6.741583347E0,6.134941101E0
3.612000000E0,5.114876628E-1,6.465541363E0,6.259515762E0
3.614000000E0,5.242152810E-1,6.156268120E0,6.453388691E0
3.616000000E0,5.503121018E-1,5.827065468E0,6.611224174E0
3.618000000E0,6.305465102E-1,5.482147694E0,6.834038258E0
3.620000000E0,7.532925010E-1,5.166074276E0,6.997265339E0
3.621998437E0,8.828187585E-1,4.728596210E0,7.303933620E0
3.624000000E0,9.115204215E-1,4.602910042E0,7.400324345E0
3.626000000E0,9.415341616E-1,4.414055824E0,7.506712914E0
3.628000000E0,9.308655858E-1,4.309687614E0,7.533461094E0
3.630000000E0,9.471079111E-1,4.254563332E0,7.551369667E0
3.632000000E0,9.298504591E-1,4.242870331E0,7.493918419E0
3.634000000E0,8.726673722E-1,4.253710747E0,7.449031830E0
3.636000000E0,8.221592903E-1,4.302888393E0,7.447576046E0
3.638000000E0,8.236244917E-1,4.392258644E0,7.541112900E0
3.640000000E0,8.312380910E-1,4.460656166E0,7.697875500E0
3.642000000E0,8.541841507E-1,4.522091866E0,7.846431255E0
3.644000000E0,8.846383691E-1,4.585939884E0,7.912147045E0
3.646000000E0,9.179656506E-1,4.659710407E0,7.905644417E0
3.648000000E0,9.187796712E-1,4.701742649E0,7.866522789E0
3.650000000E0,8.933532834E-1,4.658426762E0,7.780360699E0
3.652000000E0,8.415044546E-1,4.534819126E0,7.626020908E0
3.654000000E0,7.992611527E-1,4.451127529E0,7.383181572E0
3.656000000E0,7.683184743E-1,4.353989601E0,7.154066563E0
3.658000000E0,7.679928541E-1,4.195101261E0,7.034710407E0
3.660000000E0,7.854896784E-1,4.039420605E0,6.999851227E0
3.662000000E0,8.535903692E-1,3.959272146E0,6.953987598E0
3.664000000E0,9.664434791E-1,3.991536379E0,6.824997425E0
3.666000000E0,1.069193006E0,4.102340221E0,6.619469643E0
3.668000000E0,1.168830037E0,4.289997578E0,6.440191746E0
3.670000000E0,1.235762477E0,4.554221630E0,6.353885651E0
3.672000000E0,1.263065934E0,4.935771465E0,6.184893608E0
3.674000000E0,1.270602822E0,5.130688190E0,6.134202957E0
3.676000000E0,1.239784718E0,5.134968758E0,6.234147072E0
3.678000000E0,1.172402263E0,5.111074924E0,6.295600891E0
3.680000000E0,1.093929887E0,5.061601162E0,6.419419765E0
3.682000000E0,1.043584585E0,5.010614395E0,6.579994202E0
3.684000000E0,1.024469376E0,5.021541119E0,6.621232033E0
3.686000000E0,1.028960824E0,5.146049500E0,6.605094910E0
3.688000000E0,1.035856247E0,5.294691086E0,6.604778767E0
3.690000000E0,1.076471448E0,5.473039627E0,6.658456802E0
3.692000000E0,1.116502404E0,5.697232723E0,6.745232582E0
3.694000000E0,1.179058075E0,5.878703594E0,6.886998177E0
3.696000000E0,1.249418974E0,6.037410736E0,7.042649269E0
3.698000000E0,1.288999915E0,6.159132004E0,7.225403786E0
3.700000000E0,1.276473403E0,6.276658058E0,7.368548393E0
3.702000000E0,1.201889277E0,6.434809685E0,7.458589554E0
3.704000000E0,1.088777542E0,6.598870277E0,7.473653793E0
3.706000000E0,9.583606720E-1,6.763438225E0,7.414143562E0
3.708000000E0,8.168154359E-1,6.900414944E0,7.358866215E0
3.710000000E0,6.407745481E-1,6.965766907E0,7.270625591E0
3.712000000E0,4.286770225E-1,7.037670135E0,7.115960121E0
3.714000000E0,2.158995420E-1,7.119532108E0,6.891029835E0
3.716000000E0,-8.370129392E-3,7.164093494E0,6.692856789E0
3.718000000E0,-2.292687595E-1,7.191616535E0,6.515983105E0
3.720000000E0,-4.688900411E-1,7.197027683E0,6.363501072E0
3.722000000E0,-6.718130112E-1,7.228295803E0,6.179951668E0
3.724000000E0,-8.219773769E-1,7.287087917E0,6.005414486E0
3.726000000E0,-9.374544621E-1,7.338247776E0,5.895626068E0
3.728000000E0,-1.026873112E0,7.339865685E0,5.787350655E0
3.730000000E0,-1.091420770E0,7.299422741E0,5.749110222E0
3.732000000E0,-1.084946871E0,7.300179482E0,5.715218067E0
3.734000000E0,-1.033710957E0,7.268566608E0,5.645298004E0
3.736000000E0,-9.433441758E-1,7.228171349E0,5.597930431E0
3.738000000E0,-8.580723405E-1,7.215798378E0,5.574458122E0
3.740000000E0,-7.692666054E-1,7.270424366E0,5.530979633E0
3.742000000E0,-7.310359478E-1,7.318327427E0,5.526306152E0
3.744000000E0,-7.101968527E-1,7.362476349E0,5.585126400E0
3.746000000E0,-7.199652195E-1,7.392480850E0,5.653217793E0
3.748000000E0,-7.270137072E-1,7.462028027E0,5.774565220E0
3.750000000E0,-7.365139127E-1,7.561118603E0,5.936806202E0
3.752000000E0,-7.122079730E-1,7.652127266E0,6.109744072E0
3.754000000E0,-6.620159149E-1,7.770343304E0,6.271046162E0
3.756000000E0,-6.037315130E-1,7.967826843E0,6.347660542E0
3.758000000E0,-5.374791026E-1,8.284168243E0,6.265989780E0
3.760000000E0,-4.794053733E-1,8.655488968E0,6.037688255E0
3.762000000E0,-4.129423201E-1,8.987669945E0,5.719211578E0
3.764000000E0,-3.632674217E-1,9.287232399E0,5.310885429E0
3.766000000E0,-3.736965656E-1,9.563792229E0,4.894859314E0
3.768000000E0,-4.266276062E-1,9.811074257E0,4.588017941E0
3.770000000E0,-5.543726087E-1,9.920604706E0,4.449844360E0
3.772000000E0,-7.110300064E-1,9.908585548E0,4.445371628E0
3.774000000E0,-8.941385746E-1,9.829433441E0,4.531467438E0
3.776000000E0,-1.092627406E0,9.667068481E0,4.622753620E0
3.778000000E0,-1.282554746E0,9.475455284E0,4.637894630E0
3.780000000E0,-1.454946756E0,9.354461670E0,4.566403389E0
3.782000000E0,-1.582749248E0,9.307813644E0,4.370155334E0
3.784000000E0,-1.705868602E0,9.271613121E0,4.099534035E0
3.786000000E0,-1.827906013E0,9.237078667E0,3.821088314E0
3.788000000E0,-1.950594425E0,9.174283981E0,3.576611757E0
3.790000000E0,-2.105403662E0,9.058365822E0,3.373411179E0
3.792000000E0,-2.290053844E0,8.888712883E0,3.226292133E0
3.794000000E0,-2.460281849E0,8.659635544E0,3.183320999E0
3.796000000E0,-2.606998205E0,8.419392586E0,3.239919901E0
3.798000000E0,-2.721000671E0,8.174943924E0,3.380143642E0
3.800000000E0,-2.780271530E0,7.872920513E0,3.579322100E0
3.802000000E0,-2.810831070E0,7.600336075E0,3.859721184E0
3.804000000E0,-2.802432060E0,7.350927353E0,4.189383984E0
3.806000000E0,-2.755276203E0,7.146653652E0,4.590221405E0
3.808000000E0,-2.673825264E0,6.968822479E0,5.078772068E0
3.810000000E0,-2.536953688E0,6.838759422E0,5.635203838E0
3.812000000E0,-2.395427465E0,6.784028053E0,6.193972111E0
3.814000000E0,-2.235858917E0,6.804225445E0,6.692904949E0
3.816000000E0,-2.050633907E0,6.859110355E0,7.067808151E0
3.818000000E0,-1.921337247E0,6.930783272E0,7.309028149E0
3.820000000E0,-1.812765002E0,7.004428864E0,7.433814526E0
3.822000000E0,-1.721517205E0,7.013555050E0,7.448620319E0
3.824000000E0,-1.641905308E0,6.977000713E0,7.383957386E0
3.826000000E0,-1.611968160E0,6.956822395E0,7.257438660E0
3.828000000E0,-1.655734181E0,6.954772949E0,7.086971283E0
3.830000000E0,-1.778594971E0,7.049525738E0,6.934298038E0
3.832000000E0,-1.941525102E0,7.162513256E0,6.903709412E0
3.834000000E0,-2.107452869E0,7.302104473E0,6.941911221E0
3.836000000E0,-2.248749256E0,7.458886147E0,6.993635654E0
3.838000000E0,-2.311965466E0,7.605469227E0,7.032076836E0
3.840000000E0,-2.319071531E0,7.743633747E0,7.078428745E0
3.842000000E0,-2.328983545E0,7.896316528E0,6.976703644E0
3.844000000E0,-2.349928141E0,8.011659622E0,6.750729561E0
3.846000000E0,-2.358259916E0,8.105397224E0,6.360407829E0
3.848000000E0,-2.366668463E0,8.155005455E0,5.949093342E0
3.850000000E0,-2.372586966E0,8.145668030E0,5.565159321E0
3.852000000E0,-2.365969181E0,8.158041000E0,5.216467381E0
3.854000000E0,-2.317232847E0,8.156039238E0,4.920639992E0
3.856000000E0,-2.202445269E0,8.113068581E0,4.679083824E0
3.858000000E0,-2.040597200E0,8.037278175E0,4.430202007E0
3.860000000E0,-1.877312779E0,7.977451324E0,4.194037914E0
3.862000000E0,-1.698676467E0,7.885810852E0,3.993202925E0
3.864000000E0,-1.562360287E0,7.692838192E0,3.864471436E0
3.866000000E0,-1.493426442E0,7.437731266E0,3.745709419E0
3.868000000E0,-1.431052566E0,7.155713558E0,3.565224886E0
3.870000000E0,-1.397792339E0,6.868658066E0,3.300464630E0
3.872000000E0,-1.487105727E0,6.548477173E0,3.013102770E0
3.874000000E0,-1.640143037E0,6.200025082E0,2.691379547E0
3.876000000E0,-1.752488613E0,5.850969315E0,2.479464054E0
3.878000000E0,-1.898573279E0,5.488448620E0,2.327633381E0
3.880000000E0,-2.073771238E0,5.155166626E0,2.214100361E0
3.882000000E0,-2.268678427E0,4.880197048E0,2.162816525E0
3.884000000E0,-2.471352577E0,4.697978973E0,2.226138353E0
3.886000000E0,-2.606050253E0,4.603427410E0,2.444537401E0
3.888000000E0,-2.677771091E0,4.627542019E0,2.778432846E0
3.890000000E0,-2.722475529E0,4.603685856E0,3.335620880E0
3.892000000E0,-2.755371809E0,4.598782539E0,3.932102680E0
3.894000000E0,-2.807900667E0,4.728519440E0,4.487203121E0
3.896000000E0,-2.920179129E0,4.955738544E0,5.047503948E0
3.898000000E0,-3.136097670E0,5.282959461E0,5.495583534E0
3.900000000E0,-3.348856211E0,5.723731995E0,6.267694473E0
3.902000000E0,-3.450466156E0,6.178170204E0,7.147257328E0
3.904000000E0,-3.484224319E0,6.526325703E0,7.892936230E0
3.906000000E0,-3.459937572E0,6.758141994E0,8.523215294E0
3.908000000E0,-3.413058996E0,6.933924198E0,9.063279152E0
3.910000000E0,-3.370959520E0,7.126647949E0,9.498267174E0
3.912000000E0,-3.379913568E0,7.350783348E0,9.710671425E0
3.914000000E0,-3.417320728E0,7.690290928E0,9.336563110E0
3.916000000E0,-3.484138250E0,8.130584717E0,9.267169952E0
3.918000000E0,-3.604374886E0,8.373615265E0,9.786461830E0
3.920000000E0,-3.707028627E0,8.476547241E0,1.001899719E1
3.922000000E0,-3.753361225E0,8.475953102E0,9.897562027E0
3.924000000E0,-3.740557194E0,8.448515892E0,9.687916756E0
3.926000000E0,-3.665111065E0,8.472907066E0,9.453562737E0
3.928000000E0,-3.592078447E0,8.482502937E0,9.203522682E0
3.930000000E0,-3.504785538E0,8.478500366E0,8.894334793E0
3.932000000E0,-3.372893810E0,8.548755646E0,8.533184052E0
3.934000000E0,-3.202608585E0,8.739056587E0,8.146568298E0
3.936000000E0,-3.046995163E0,8.853900909E0,7.904562473E0
3.938000000E0,-2.865370989E0,8.926062584E0,7.598305702E0
3.940000000E0,-2.642997503E0,9.069810867E0,7.290956974E0
3.942000000E0,-2.327978134E0,9.401560783E0,6.842724323E0
3.944000000E0,-2.073244572E0,9.630772591E0,6.521115780E0
3.946000000E0,-1.957633376E0,9.526662827E0,6.363567829E0
3.948000000E0,-1.921126604E0,9.180020332E0,6.382194996E0
3.950000000E0,-1.875445247E0,8.900464058E0,6.392891884E0
3.952000000E0,-1.854022026E0,8.570543289E0,6.389425278E0
3.954000000E0,-1.889475226E0,7.925745964E0,6.387691975E0
3.956000000E0,-2.002673149E0,7.206996918E0,6.232202530E0
3.958000000E0,-2.077918053E0,6.580654621E0,5.873646736E0
3.960000000E0,-2.152052164E0,6.025822639E0,5.314074039E0
3.962000000E0,-2.244229078E0,5.541830063E0,4.770628929E0
3.964000000E0,-2.379625797E0,5.161687851E0,4.384501457E0
3.966000000E0,-2.503654957E0,4.958573818E0,4.025754452E0
3.968000000E0,-2.627071381E0,4.943154812E0,3.659250021E0
3.970000000E0,-2.711031199E0,5.081501484E0,3.383916855E0
3.972000000E0,-2.877131462E0,5.311258793E0,3.151190996E0
3.974000000E0,-3.056887865E0,5.580089569E0,3.001878977E0
3.976000000E0,-3.037380219E0,6.096757889E0,3.251067400E0
3.978000000E0,-3.141068220E0,6.897733212E0,3.290418386E0
3.980000000E0,-3.583717823E0,7.169695854E0,2.586858511E0
3.982000000E0,-4.134441376E0,7.004256248E0,2.143892765E0
3.984000000E0,-4.598121643E0,6.613761902E0,1.746062636E0
3.986000000E0,-4.855651855E0,6.232882977E0,1.504803658E0
3.988000000E0,-4.930887222E0,5.969424725E0,1.290062904E0
3.990000000E0,-5.072384357E0,5.743077278E0,1.031738162E0
3.992000000E0,-5.318115711E0,5.493304253E0,8.883541822E-1
3.994000000E0,-5.530213356E0,5.235563278E0,8.960922360E-1
3.996000000E0,-5.545909882E0,5.096632957E0,1.010994792E0
3.998000000E0,-5.326830387E0,5.091700554E0,1.221636653E0
4.000000000E0,-4.915678978E0,5.191098690E0,1.619007111E0
4.002000000E0,-4.413136005E0,5.345840931E0,2.079929113E0
4.004000000E0,-3.855727673E0,5.647969723E0,2.495505095E0
4.006000000E0,-3.348377228E0,6.060739517E0,2.531121254E0
4.008000000E0,-3.129183292E0,6.157350540E0,3.319024324E0
4.010000000E0,-2.942799568E0,6.204727173E0,4.234452248E0
4.012000000E0,-2.732483149E0,6.281963825E0,4.765935898E0
4.014000000E0,-2.495715857E0,6.351941586E0,5.085705757E0
4.016000000E0,-2.307684898E0,6.422225475E0,5.408683777E0
4.018000000E0,-2.188319683E0,6.502431870E0,5.626546383E0
4.020000000E0,-2.116474390E0,6.626527786E0,5.717928410E0
4.022000000E0,-2.002864599E0,6.952752113E0,5.514478683E0
4.024000000E0,-2.083712101E0,7.092506409E0,5.314169884E0
4.026000000E0,-2.344871521E0,6.987985134E0,5.743287563E0
4.028000000E0,-2.573776484E0,6.806763172E0,5.835493088E0
4.030000000E0,-2.704911709E0,6.581478596E0,5.664326668E0
4.032000000E0,-2.744521141E0,6.318001270E0,5.516537666E0
4.034000000E0,-2.749520302E0,6.050348759E0,5.437337399E0
4.036000000E0,-2.736629963E0,5.799752235E0,5.339577198E0
4.038000000E0,-2.705428600E0,5.593525410E0,5.164053917E0
4.040000000E0,-2.680442810E0,5.479111195E0,4.954992294E0
4.042000000E0,-2.662840843E0,5.460158825E0,4.771452427E0
4.044000000E0,-2.646588802E0,5.547614098E0,4.570330143E0
4.046000000E0,-2.654767513E0,5.713599682E0,4.326265335E0
4.048000000E0,-2.755707026E0,5.886240959E0,4.286932945E0
4.050000000E0,-2.900939226E0,6.149660110E0,4.314648628E0
4.052000000E0,-3.056955099E0,6.431946278E0,4.232536793E0
4.054000000E0,-3.339250565E0,6.563733101E0,4.494596481E0
4.056000000E0,-3.659412861E0,6.612459660E0,4.937255859E0
4.058000000E0,-3.921951532E0,6.658772945E0,5.143099785E0
4.060000000E0,-4.118534565E0,6.692033291E0,5.141241550E0
4.062000000E0,-3.977372408E0,7.134261131E0,5.705986023E0
4.064000000E0,-3.996525764E0,7.764941692E0,5.338964462E0
4.066000000E0,-4.320480347E0,7.862482071E0,4.568203926E0
4.068000000E0,-4.555552959E0,7.638556480E0,4.141729355E0
4.070000000E0,-4.659356117E0,7.353024483E0,4.019404888E0
4.072000000E0,-4.687138081E0,7.143733025E0,4.048537731E0
4.074000000E0,-4.740624428E0,7.108585835E0,4.043040752E0
4.076000000E0,-4.913600922E0,7.250964165E0,3.797385693E0
4.078000000E0,-5.303559303E0,7.394855976E0,3.375230789E0
4.080000000E0,-5.744293690E0,7.522954941E0,2.857939482E0
4.082000000E0,-6.119397640E0,7.559730053E0,2.270220518E0
4.084000000E0,-6.464172363E0,7.407295704E0,1.911453962E0
4.086000000E0,-6.644579887E0,7.179684162E0,1.728584886E0
4.088000000E0,-6.678041458E0,6.934968472E0,1.557964444E0
4.090000000E0,-6.586879730E0,6.605525970E0,1.334786654E0
4.092000000E0,-6.142899036E0,6.168430805E0,1.469110847E0
4.094000000E0,-5.672179699E0,5.697108269E0,8.840254545E-1
4.096000000E0,-5.295667648E0,5.311469078E0,2.092340738E-1
4.098000000E0,-4.887408257E0,5.135898113E0,-2.365375459E-1
4.100000000E0,-4.442661762E0,5.089862347E0,-4.294527471E-1
4.102000000E0,-4.070583344E0,5.065192223E0,-6.303454041E-1
4.104000000E0,-3.782608986E0,4.993912220E0,-6.358712316E-1
4.106000000E0,-3.500284672E0,4.923790455E0,-4.921808243E-1
4.108000000E0,-3.159790754E0,4.874010086E0,-2.405502349E-1
4.110000000E0,-2.782273054E0,4.820639133E0,-3.844130412E-2
4.112000000E0,-2.330793619E0,4.721509457E0,1.815379560E-1
4.114000000E0,-1.861166239E0,4.582243443E0,3.534894884E-1
4.116000000E0,-1.372327685E0,4.429569721E0,4.457428753E-1
4.118000000E0,-8.554482460E-1,4.288953781E0,4.825752974E-1
4.120000000E0,-3.724707365E-1,4.131827354E0,5.272223353E-1
4.122000000E0,3.955221176E-2,3.994955301E0,6.037027836E-1
4.124000000E0,4.229788184E-1,3.857355595E0,7.483987212E-1
4.126000000E0,6.732974052E-1,3.689464808E0,9.319382310E-1
4.128000000E0,8.465418220E-1,3.528679848E0,1.142695069E0
4.130000000E0,9.508045316E-1,3.358298779E0,1.475297451E0
4.132000000E0,9.821781516E-1,3.215920448E0,1.882129908E0
4.134000000E0,9.078238606E-1,3.125055552E0,2.262970686E0
4.136000000E0,7.453054190E-1,3.066876650E0,2.520692110E0
4.138000000E0,4.917594492E-1,3.046592951E0,2.699462414E0
4.140000000E0,3.632195294E-1,3.106170177E0,2.833365202E0
4.142000000E0,4.001189768E-1,3.177392960E0,3.110269070E0
4.144000000E0,4.277289212E-1,3.195665598E0,3.315672398E0
4.146000000E0,4.506462216E-1,3.146814108E0,3.351767540E0
4.148000000E0,4.355819225E-1,3.026577473E0,3.348741293E0
4.150000000E0,3.455024660E-1,2.863340855E0,3.301680565E0
4.152000000E0,2.114463151E-1,2.637682438E0,3.285687447E0
4.154000000E0,1.907699928E-2,2.335888386E0,3.223131895E0
4.156000000E0,-1.846312582E-1,2.016952038E0,3.141997099E0
4.158000000E0,-3.816836178E-1,1.700180054E0,3.107893944E0
4.160000000E0,-5.559336543E-1,1.410845637E0,3.116944075E0
4.162000000E0,-7.660200000E-1,1.086421728E0,3.116407871E0
4.164000000E0,-9.685024619E-1,7.277320027E-1,3.064788818E0
4.166000000E0,-1.157127142E0,3.798927665E-1,2.957193375E0
4.168000000E0,-1.438407540E0,1.438244730E-1,2.877753973E0
4.170000000E0,-1.778527975E0,-2.183512086E-3,2.739589453E0
4.172000000E0,-2.090712547E0,-8.950483799E-2,2.543992519E0
4.174000000E0,-2.376235485E0,-1.355980039E-1,2.400187254E0
4.176000000E0,-2.638084650E0,-1.666747481E-1,2.423554659E0
4.178000000E0,-2.893641949E0,-1.289325505E-1,2.678766727E0
4.180000000E0,-3.085216284E0,-2.377921157E-2,3.197686195E0
4.182000000E0,-3.176234245E0,1.740010083E-1,3.974585533E0
4.184000000E0,-3.151219368E0,4.503397644E-1,4.897367954E0
