"Time (s)","Acceleration x (m/s^2)","Acceleration y (m/s^2)","Acceleration z (m/s^2)"
0.000000000E0,7.505730629E0,-1.270666218E1,4.473447800E0
2.477864000E-3,7.424284935E0,-1.304202938E1,4.298577785E0
4.974791000E-3,7.326070309E0,-1.327918243E1,3.829064131E0
7.441718000E-3,7.117663383E0,-1.341811943E1,3.280499458E0
9.908593000E-3,6.746364594E0,-1.349477577E1,2.854104280E0
1.237552100E-2,6.197800159E0,-1.337739658E1,2.382194996E0
1.487239600E-2,5.711517811E0,-1.321210861E1,2.044432402E0
1.736932300E-2,5.323450565E0,-1.297735119E1,1.538986683E0
1.986625000E-2,4.853936672E0,-1.272103596E1,1.100614071E0
2.236322900E-2,4.372445583E0,-1.232817745E1,9.233486652E-1
2.486015600E-2,4.137688637E0,-1.182273197E1,6.382867098E-1
2.735708300E-2,3.900536060E0,-1.136279964E1,5.544449687E-1
2.985401000E-2,3.634637833E0,-1.081902599E1,4.562303424E-1
3.235093700E-2,3.445395470E0,-1.038304901E1,4.634167552E-1
3.484791600E-2,3.229801893E0,-1.002133179E1,5.544449687E-1
3.734484300E-2,2.939949274E0,-9.733873367E0,7.484787107E-1
3.984177100E-2,2.702796698E0,-9.530258179E0,9.137667418E-1
4.233869800E-2,2.463248968E0,-9.381738663E0,1.023958802E0
4.457479100E-2,2.223701000E0,-9.364970207E0,1.309020638E0
4.707177100E-2,2.084763288E0,-9.372157097E0,1.503054500E0
4.956869800E-2,1.972175837E0,-9.408088684E0,1.632410288E0
5.206562500E-2,1.782932997E0,-9.489535332E0,1.795302868E0
5.456255200E-2,1.723046064E0,-9.578167915E0,2.013291359E0
5.705953100E-2,1.622436047E0,-9.697941780E0,2.097132921E0
5.955645800E-2,1.526616812E0,-9.911139488E0,2.238466263E0
6.205338500E-2,1.512243986E0,-1.005726337E1,2.307935238E0
6.455031200E-2,1.519430399E0,-1.031597519E1,2.377403975E0
6.704729100E-2,1.586503744E0,-1.064415550E1,2.461245775E0
6.954421800E-2,1.663158894E0,-1.093161392E1,2.542691946E0
7.204114600E-2,1.691904783E0,-1.123344326E1,2.509155512E0
7.426432300E-2,1.842819929E0,-1.155683327E1,2.559460402E0
7.676130200E-2,2.005712509E0,-1.182991791E1,2.535505772E0
7.925822900E-2,2.032062769E0,-1.221558952E1,2.650488853E0
8.175515600E-2,2.238074064E0,-1.249106979E1,2.557065010E0
8.425208300E-2,2.417734623E0,-1.290548801E1,2.451663971E0
8.674901000E-2,2.520740509E0,-1.328636837E1,2.398963451E0
8.924593700E-2,2.606977701E0,-1.365287685E1,2.281584978E0
9.174291600E-2,2.530322313E0,-1.415592766E1,2.197743177E0
9.423984300E-2,2.453666925E0,-1.470688725E1,1.927054167E0
9.673677100E-2,2.403362036E0,-1.516921425E1,1.632410288E0
9.923369800E-2,2.400966406E0,-1.559560966E1,1.361721277E0
1.017306250E-1,2.417734623E0,-1.594055843E1,1.148523688E0
1.039559890E-1,2.420130253E0,-1.618968964E1,9.904220104E-1
1.064529160E-1,2.300356388E0,-1.634300041E1,8.682526350E-1
1.089498960E-1,2.190164566E0,-1.637414169E1,7.197329998E-1
1.114468230E-1,1.986548662E0,-1.618968964E1,4.682077765E-1
1.139437500E-1,1.608062983E0,-1.576568890E1,1.879367381E-1
1.164406770E-1,1.131362915E0,-1.512130547E1,-2.046988904E-2
1.189376560E-1,6.977812052E-1,-1.435954285E1,-4.682014883E-2
1.214345830E-1,5.013519526E-1,-1.356424427E1,-8.754327893E-2
1.239315100E-1,4.606288671E-1,-1.271864033E1,-2.121081650E-1
1.264284370E-1,2.809680104E-1,-1.192813301E1,-2.168991268E-1
1.289253640E-1,1.506984234E-2,-1.115678883E1,-2.384584397E-1
1.314223430E-1,-1.142859459E-1,-1.045491219E1,-1.977352947E-1
1.336520830E-1,-3.202970922E-1,-9.827297211E0,-1.210799813E-1
1.361490100E-1,-4.640258253E-1,-9.271546364E0,-8.754327893E-2
1.386459890E-1,-6.388957500E-1,-8.718192101E0,-5.400659144E-2
1.411429160E-1,-9.598898888E-1,-8.275027275E0,5.618543923E-2
1.436398430E-1,-1.225787997E0,-7.930078983E0,1.304452568E-1
1.461367710E-1,-1.422217131E0,-7.558780193E0,7.534925640E-2
1.486336980E-1,-1.724047542E0,-7.340791702E0,1.472135931E-1
1.511306770E-1,-1.925267816E0,-7.149153233E0,1.591909975E-1
1.536276040E-1,-2.157629013E0,-6.974283218E0,2.190779597E-1
1.561245310E-1,-2.279798508E0,-6.818577290E0,6.694279313E-1
1.586214580E-1,-2.322916985E0,-6.782645226E0,1.023958802E0
1.611184370E-1,-2.349267483E0,-6.840136528E0,1.356930256E0
1.633372390E-1,-2.452272892E0,-7.012610912E0,1.613246560E0
1.658341660E-1,-2.509764671E0,-7.278509140E0,1.855189800E0
1.683311460E-1,-2.504973412E0,-7.585130215E0,1.922263384E0
1.708280730E-1,-2.572046757E0,-7.934870243E0,2.109110594E0
1.733250000E-1,-2.516950846E0,-8.243886948E0,2.157020092E0
1.758219270E-1,-2.457063913E0,-8.627162933E0,2.269607544E0
1.783188540E-1,-2.399572372E0,-8.957738876E0,2.236070871E0
1.808158330E-1,-2.464250326E0,-9.319457054E0,2.240861654E0
1.833127600E-1,-2.457063913E0,-9.570981979E0,2.204929829E0
1.858096870E-1,-2.540905476E0,-9.827297211E0,2.171392918E0
1.883066140E-1,-2.545696735E0,-1.010277748E1,2.188161373E0
1.908035930E-1,-2.514555454E0,-1.039981651E1,2.250443697E0
1.930307290E-1,-2.375617504E0,-1.062259674E1,2.106714964E0
1.955276560E-1,-2.200747728E0,-1.084298038E1,1.974963665E0
1.980246350E-1,-1.999527454E0,-1.107773781E1,1.785720825E0
2.005215620E-1,-1.748002291E0,-1.122865295E1,1.371303201E0
2.030184890E-1,-1.417426348E0,-1.117834759E1,1.246738315E0
2.055154160E-1,-1.175482988E0,-1.123583889E1,1.172478437E0
2.080123430E-1,-1.017381310E0,-1.126218987E1,1.117382407E0
2.105093230E-1,-8.688616753E-1,-1.137717247E1,1.095823169E0
2.130062500E-1,-7.083646059E-1,-1.139394093E1,1.095823169E0
2.155031770E-1,-7.754380107E-1,-1.142029095E1,1.527009249E0
2.180001040E-1,-1.082059264E0,-1.151850605E1,2.480409861E0
2.204970310E-1,-1.127573371E0,-1.161192989E1,3.072092772E0
2.227125520E-1,-1.161110044E0,-1.155204296E1,3.333199978E0
2.252094790E-1,-1.321607113E0,-1.161192989E1,3.476928711E0
2.277064580E-1,-1.218601584E0,-1.181794071E1,3.179889441E0
2.302033850E-1,-1.197042227E0,-1.180596256E1,3.184680223E0
2.327003120E-1,-1.352748394E0,-1.165983868E1,4.178803921E0
2.351972390E-1,-1.417426348E0,-1.169816685E1,5.127413273E0
2.376942180E-1,-1.376703143E0,-1.162390709E1,6.076022625E0
2.401911460E-1,-1.300047874E0,-1.139154530E1,7.055773258E0
2.426880730E-1,-1.271301985E0,-1.106575966E1,7.558823586E0
2.451850000E-1,-1.381494045E0,-1.087651730E1,7.712134838E0
2.476819270E-1,-1.307234287E0,-1.064894676E1,7.934914112E0
2.501789060E-1,-1.748002291E0,-1.061541080E1,9.475207329E0
2.524016140E-1,-2.045041561E0,-1.041898060E1,1.034476662E1
2.548985410E-1,-1.839030504E0,-9.836879730E0,9.714755058E0
2.573955210E-1,-1.635414839E0,-9.247591972E0,9.089535713E0
2.598924480E-1,-1.666556001E0,-8.926597595E0,8.912269592E0
2.623893750E-1,-1.652183056E0,-8.615185738E0,8.847592354E0
2.648863020E-1,-1.621042013E0,-8.378033638E0,8.648767471E0
2.673832810E-1,-1.553968430E0,-8.320541382E0,7.987615108E0
2.698802080E-1,-1.386285067E0,-8.054643631E0,7.391140461E0
2.723771350E-1,-1.355143785E0,-7.736045837E0,7.201897621E0
2.748740620E-1,-2.028273106E0,-7.465356827E0,7.664224625E0
2.773709890E-1,-2.732543945E0,-7.450983524E0,8.313400269E0
2.798679680E-1,-3.209244251E0,-7.700113297E0,8.718235970E0
2.820915100E-1,-3.405673504E0,-7.934870243E0,8.849987030E0
2.845884370E-1,-3.614079952E0,-8.035479546E0,8.718235970E0
2.870854160E-1,-3.920701265E0,-8.222327232E0,8.219976425E0
2.895823430E-1,-4.227322578E0,-8.471456528E0,7.640270233E0
2.920792710E-1,-4.466870308E0,-8.689445496E0,7.120451450E0
2.945761980E-1,-4.572271347E0,-8.979298592E0,6.569491386E0
2.970731770E-1,-4.512384415E0,-9.170936584E0,5.951457977E0
2.995701040E-1,-4.500407219E0,-9.297896385E0,5.292701244E0
3.020670310E-1,-4.531548500E0,-9.460789680E0,4.657899380E0
3.045639580E-1,-4.579458237E0,-9.515885353E0,4.059029579E0
3.070608850E-1,-4.507593155E0,-9.559004784E0,3.311640739E0
3.095578640E-1,-4.490825176E0,-9.513489723E0,2.676839113E0
3.118141660E-1,-4.406983376E0,-9.530258179E0,2.015686750E0
3.143110930E-1,-4.289605141E0,-9.547026634E0,1.146128178E0
3.168080730E-1,-4.081198215E0,-9.460789680E0,3.795750141E-1
3.193050000E-1,-3.877582788E0,-9.420066833E0,-2.743906081E-1
3.218019270E-1,-3.570961475E0,-9.376947403E0,-1.091248870E0
3.242988540E-1,-3.295481443E0,-9.247591972E0,-1.886547565E0
3.267958330E-1,-2.895436525E0,-8.993671417E0,-2.504580975E0
3.292927600E-1,-2.394781590E0,-8.766100883E0,-3.493913651E0
3.317896870E-1,-1.680928826E0,-8.612790108E0,-4.794658661E0
3.342866140E-1,-8.496978283E-1,-8.425942421E0,-5.714522839E0
3.367835410E-1,-1.574046016E-1,-8.184000015E0,-5.891787529E0
3.392805210E-1,4.079283476E-1,-8.021106720E0,-5.467788219E0
3.414696870E-1,8.870241642E-1,-7.827073574E0,-4.648534775E0
3.439666140E-1,1.210413575E0,-7.649807930E0,-3.556196213E0
3.464635930E-1,1.548176289E0,-7.561175823E0,-2.439903259E0
3.489605210E-1,1.799701452E0,-7.424633026E0,-1.457756996E0
3.514574480E-1,1.885938406E0,-7.333605289E0,-6.720400453E-1
3.539543750E-1,1.981757641E0,-7.338396072E0,2.983514965E-2
3.564513540E-1,1.972175837E0,-7.333605289E0,6.933826804E-1
3.589482810E-1,1.869170189E0,-7.405469418E0,1.004794836E0
3.614452080E-1,1.749396324E0,-7.453379154E0,1.215597034E0
3.639421350E-1,1.615249395E0,-7.589920998E0,1.443167567E0
3.664390620E-1,1.529012203E0,-7.707299709E0,1.651574135E0
3.689360410E-1,1.406842947E0,-7.886960506E0,1.776139021E0
3.711590620E-1,1.339769602E0,-8.080994606E0,1.778534412E0
3.736559890E-1,1.246345878E0,-8.289401054E0,1.768952608E0
3.761529680E-1,1.138549328E0,-8.394802094E0,1.725834012E0
3.786498960E-1,1.241554856E0,-8.579253197E0,1.510240912E0
3.811468230E-1,1.279882431E0,-8.785264969E0,1.495867968E0
3.836437500E-1,1.294255376E0,-8.945761681E0,1.270693064E0
3.861407290E-1,1.234368443E0,-9.094281197E0,1.071868300E0
3.886376560E-1,1.107408166E0,-9.257173538E0,1.126964450E0
3.911345830E-1,1.236763954E0,-9.439230919E0,1.141337276E0
3.936315100E-1,1.337373972E0,-9.559004784E0,1.076659322E0
3.961284370E-1,1.423611164E0,-9.678777695E0,9.592808485E-1
3.986254160E-1,1.507452965E0,-9.796156883E0,8.634616137E-1
4.008498960E-1,1.550571680E0,-9.868021011E0,8.658571243E-1
4.033468230E-1,1.663158894E0,-1.000456333E1,8.011792898E-1
4.058438020E-1,1.758978128E0,-1.011475563E1,7.460832596E-1
4.083407290E-1,1.852401972E0,-1.011715031E1,6.119364500E-1
4.108376560E-1,1.809283257E0,-1.014110565E1,6.023545265E-1
4.133345830E-1,1.708673239E0,-1.016506100E1,6.766144037E-1
4.158315620E-1,1.806887627E0,-1.014829159E1,6.622415185E-1
4.183284890E-1,1.725441456E0,-1.019620132E1,8.179476261E-1
4.208254160E-1,1.667949915E0,-1.016745567E1,8.634616137E-1
4.233223430E-1,1.586503744E0,-1.011236000E1,1.004794836E0
4.258192710E-1,1.481102705E0,-1.007642746E1,1.162896514E0
4.283162500E-1,1.447566032E0,-1.004049587E1,1.297043324E0
4.305371870E-1,1.421215773E0,-9.994981766E0,1.359325767E0
4.330341140E-1,1.392469883E0,-9.939886093E0,1.433585644E0
4.355310930E-1,1.284673452E0,-9.863229752E0,1.680319905E0
4.380280210E-1,1.320605755E0,-9.805738449E0,1.766557097E0
4.405249480E-1,1.315814734E0,-9.767410278E0,1.857585192E0
4.430218750E-1,1.299046397E0,-9.724292755E0,1.970172882E0
4.455188540E-1,1.323001146E0,-9.700337410E0,1.986941099E0
4.480157810E-1,1.330187559E0,-9.693150520E0,2.003709555E0
4.505127080E-1,1.325396657E0,-9.650032997E0,2.130669832E0
4.530096350E-1,1.387679100E0,-9.635659218E0,2.202534199E0
4.555065620E-1,1.416424751E0,-9.626077652E0,2.236070871E0
4.580035410E-1,1.385283709E0,-9.611704826E0,2.331890106E0
4.602619270E-1,1.433193207E0,-9.559004784E0,2.451663971E0
4.627588540E-1,1.421215773E0,-9.515885353E0,2.566647053E0
4.652558330E-1,1.382888079E0,-9.491930962E0,2.705584764E0
4.677527600E-1,1.382888079E0,-9.410484314E0,3.024183273E0
4.702496870E-1,1.313419223E0,-9.384134293E0,3.381109476E0
4.727466140E-1,1.296650887E0,-9.343410492E0,3.577538729E0
4.752435930E-1,1.349351406E0,-9.285919189E0,3.807504892E0
4.777405210E-1,1.330187559E0,-9.261964798E0,4.181199074E0
4.802374480E-1,1.344560385E0,-9.230823517E0,4.449492931E0
4.827343750E-1,1.320605755E0,-9.192495346E0,4.808815002E0
4.852313020E-1,1.277487159E0,-9.211659431E0,5.057944298E0
4.877282810E-1,1.346956015E0,-9.168541908E0,5.247187138E0
4.899510410E-1,1.346956015E0,-9.046371460E0,5.553808212E0
4.924479680E-1,1.332583070E0,-9.024812698E0,5.716700554E0
4.949449480E-1,1.337373972E0,-8.919411659E0,6.016135693E0
4.974418750E-1,1.435588837E0,-8.768496513E0,6.116745949E0
4.999388020E-1,1.495475531E0,-8.699028015E0,6.248497486E0
5.024357290E-1,1.466729879E0,-8.629558563E0,6.226937771E0
5.049327080E-1,1.469125271E0,-8.540925980E0,6.313175201E0
5.074296350E-1,1.574526548E0,-8.423547745E0,6.413785458E0
5.099265620E-1,1.735023499E0,-8.248677254E0,6.480858803E0
5.124234890E-1,1.802096844E0,-8.078598976E0,6.569491386E0
5.149204160E-1,1.864379168E0,-7.882169247E0,6.607818604E0
5.174173960E-1,1.998526096E0,-7.740836620E0,6.598236561E0
5.196034890E-1,2.082367659E0,-7.558780193E0,6.531163692E0
5.221004160E-1,2.175791502E0,-7.347978115E0,6.507208824E0
5.245973960E-1,2.245260477E0,-7.129989624E0,6.461694717E0
5.270943230E-1,2.297960997E0,-6.981469631E0,6.363480091E0
5.295912500E-1,2.400966406E0,-6.921582699E0,6.310779572E0
5.320881770E-1,2.453666925E0,-6.761085510E0,6.301198006E0
5.345851040E-1,2.527926683E0,-6.670057774E0,6.320361137E0
5.370820830E-1,2.705192327E0,-6.629334450E0,6.334734440E0
5.395790100E-1,2.944740057E0,-6.658080101E0,6.169446468E0
5.420759370E-1,3.210638285E0,-6.729944706E0,6.011344910E0
5.445728640E-1,3.397485256E0,-6.746712685E0,5.870011806E0
5.470698430E-1,3.392694473E0,-6.775458813E0,5.685559750E0
5.493289580E-1,3.239383936E0,-6.799413681E0,5.429243088E0
5.518258850E-1,2.935158253E0,-6.837740898E0,5.297492504E0
5.543228640E-1,2.645305157E0,-6.892837048E0,5.251978397E0
5.568197910E-1,2.487203836E0,-6.914396286E0,5.271142006E0
5.593167180E-1,2.326706648E0,-6.871277809E0,5.192091465E0
5.618136460E-1,2.168605089E0,-6.928769112E0,5.230418682E0
5.643106250E-1,2.056017399E0,-6.900023460E0,5.228023052E0
5.668075520E-1,1.991339684E0,-6.861695766E0,5.038780212E0
5.693044790E-1,1.890729427E0,-6.813786030E0,5.067526340E0
5.718014060E-1,1.878752232E0,-6.749108315E0,4.916611195E0
5.742983330E-1,1.854797602E0,-6.686826229E0,4.758509159E0
5.767953120E-1,1.770955801E0,-6.679639816E0,4.741741180E0
5.790183330E-1,1.679927588E0,-6.610170841E0,4.736950397E0
5.815152600E-1,1.610458374E0,-6.523932934E0,4.679458618E0
5.840122390E-1,1.648786306E0,-6.492792130E0,4.583639622E0
5.865091660E-1,1.629622459E0,-6.466441631E0,4.492611408E0
5.890060930E-1,1.596085787E0,-6.399368763E0,4.442306042E0
5.915030210E-1,1.593690157E0,-6.459255695E0,4.451888084E0
5.940000000E-1,1.598481178E0,-6.483210087E0,4.497402191E0
5.964969270E-1,1.667949915E0,-6.492792130E0,4.679458618E0
5.989938540E-1,1.766164780E0,-6.511956215E0,4.624362946E0
6.014907810E-1,1.794910431E0,-6.535910606E0,4.796837330E0
6.039877080E-1,1.857192993E0,-6.552679062E0,4.897447109E0
6.064846870E-1,1.953011990E0,-6.540701389E0,4.962125301E0
6.086735930E-1,2.003316879E0,-6.598193169E0,5.026803493E0
6.111705210E-1,2.084763288E0,-6.626939297E0,5.055548668E0
6.136675000E-1,2.206932783E0,-6.646102428E0,5.134599686E0
6.161644270E-1,2.211723804E0,-6.694012165E0,5.211254597E0
6.186613540E-1,2.281192541E0,-6.744317532E0,5.134599686E0
6.211582810E-1,2.338684082E0,-6.825763702E0,5.213650227E0
6.236552600E-1,2.396175385E0,-6.907210350E0,5.148972511E0
6.261521870E-1,2.398571014E0,-7.007820129E0,5.089085579E0
6.286491140E-1,2.489599228E0,-7.132385254E0,5.113040447E0
6.311460410E-1,2.542299747E0,-7.244972706E0,5.101062775E0
6.336429680E-1,2.535113335E0,-7.326418400E0,4.969311714E0
6.361399480E-1,2.542299747E0,-7.570757389E0,4.957334042E0
6.383634890E-1,2.518344879E0,-7.728858948E0,4.945356846E0
6.408604160E-1,2.494390249E0,-7.853424072E0,4.861515045E0
6.433573960E-1,2.434503317E0,-8.040270805E0,4.784859657E0
6.458543230E-1,2.408153057E0,-8.210350037E0,4.633944988E0
6.483512500E-1,2.345870495E0,-8.337309837E0,4.437515259E0
6.508481770E-1,2.381802797E0,-8.476247787E0,4.284204960E0
6.533451560E-1,2.403362036E0,-8.648722649E0,4.044656754E0
6.558420830E-1,2.518344879E0,-8.854733467E0,3.740431547E0
6.583390100E-1,2.595000267E0,-9.166145325E0,3.462555885E0
6.608359370E-1,2.652491808E0,-9.427252769E0,3.266126871E0
6.633328640E-1,2.676446438E0,-9.810529709E0,2.911595821E0
6.658298430E-1,2.633327961E0,-1.038304901E1,2.770262480E0
6.680521350E-1,2.556672573E0,-1.099389553E1,2.775053501E0
6.705490620E-1,2.393779993E0,-1.173649406E1,2.782239914E0
6.730460410E-1,2.238074064E0,-1.262042522E1,2.815776825E0
6.755429680E-1,2.010503531E0,-1.354028988E1,2.834940434E0
6.780398960E-1,1.727837086E0,-1.445536232E1,2.875663757E0
6.805368230E-1,1.387679100E0,-1.542073917E1,2.911595821E0
6.830337500E-1,9.828432798E-1,-1.639330482E1,3.081674814E0
6.855307290E-1,5.300977230E-1,-1.746887398E1,3.062510967E0
6.880276560E-1,-1.933367252E-1,-1.873368835E1,3.249358177E0
6.905245830E-1,-1.189855814E0,-2.037938118E1,3.452974081E0
6.930215100E-1,-2.394781590E0,-2.201070213E1,3.563165903E0
6.955184890E-1,-3.731458426E0,-2.351266670E1,3.738035917E0
6.977763020E-1,-5.017830372E0,-2.500026131E1,3.555979490E0
7.002732290E-1,-6.390439510E0,-2.637526512E1,3.426623821E0
7.027702080E-1,-7.607342720E0,-2.762330818E1,3.443392038E0
7.052671350E-1,-8.522415161E0,-2.838507080E1,3.366736650E0
7.077640620E-1,-9.195545197E0,-2.887614441E1,3.388296127E0
7.102609890E-1,-9.629126549E0,-2.902226830E1,3.366736650E0
7.127579680E-1,-9.957306862E0,-2.890728378E1,3.304454327E0
7.152548960E-1,-1.011780357E1,-2.850963593E1,3.112816095E0
7.177518230E-1,-9.942934036E0,-2.780296898E1,2.746307850E0
7.202487500E-1,-9.562052727E0,-2.684717178E1,2.559460402E0
7.227456770E-1,-9.027861595E0,-2.561110687E1,2.319912434E0
7.252426560E-1,-8.246934891E0,-2.424568367E1,2.018082380E0
7.274654160E-1,-7.363004208E0,-2.285151482E1,1.625223875E0
7.299623430E-1,-6.543750286E0,-2.142381096E1,1.095823169E0
7.324593230E-1,-5.695751190E0,-2.007036400E1,6.454731226E-1
7.349562500E-1,-4.965129852E0,-1.878878403E1,2.382417768E-1
7.374531770E-1,-4.421356201E0,-1.751199532E1,-2.767860889E-1
7.399501040E-1,-4.126712799E0,-1.640049171E1,-6.337123513E-1
7.424470830E-1,-3.872791767E0,-1.531294346E1,-1.045734644E0
7.449440100E-1,-3.558984041E0,-1.438349724E1,-1.429011226E0
7.474409370E-1,-3.173311949E0,-1.353070736E1,-1.821869731E0
7.499378640E-1,-2.813990355E0,-1.272343159E1,-2.145259380E0
7.524347910E-1,-2.389990568E0,-1.202874279E1,-2.593213797E0
7.549317710E-1,-2.030668736E0,-1.131728554E1,-2.883066654E0
7.571433330E-1,-1.836634994E0,-1.062738800E1,-2.883066654E0
7.596402600E-1,-1.496477127E0,-1.007642746E1,-2.794434071E0
7.621372390E-1,-1.175482988E0,-9.690755844E0,-2.598004818E0
7.646341660E-1,-9.143757820E-1,-9.235614777E0,-2.430321217E0
7.671310930E-1,-7.442967892E-1,-8.885874748E0,-2.030276299E0
7.696280210E-1,-7.442967892E-1,-8.579253197E0,-1.651790738E0
7.721249480E-1,-5.119353533E-1,-8.346891403E0,-1.539203286E0
7.746219270E-1,-2.675965726E-1,-8.102553368E0,-1.390683651E0
7.771188540E-1,1.986086369E-2,-7.889356136E0,-1.373915195E0
7.796157810E-1,3.648097515E-1,-7.793537140E0,-1.826660752E0
7.821127080E-1,7.576682568E-1,-7.635435581E0,-2.365643263E0
7.846096870E-1,9.708658457E-1,-7.537220478E0,-2.499790192E0
7.868168230E-1,1.277487159E0,-7.436610699E0,-2.334502220E0
7.893137500E-1,2.039249182E0,-7.132385254E0,-2.114118099E0
7.918107290E-1,2.767474651E0,-6.916791439E0,-2.226705551E0
7.943076560E-1,3.313643694E0,-6.892837048E0,-2.535722256E0
7.968045830E-1,4.046659946E0,-6.888046265E0,-2.760897160E0
7.993015100E-1,4.659902573E0,-6.950328827E0,-2.899834871E0
8.017984370E-1,5.455201626E0,-7.012610912E0,-2.856716394E0
8.042954160E-1,6.466093540E0,-7.216226578E0,-3.110637188E0
8.067923430E-1,7.484171867E0,-7.398283005E0,-3.398094416E0
8.092892710E-1,8.195629120E0,-7.537220478E0,-3.297484398E0
8.117861980E-1,8.765752792E0,-7.822282791E0,-3.053145647E0
8.142831250E-1,9.283176422E0,-8.109739304E0,-2.763292789E0
8.164999480E-1,9.711966515E0,-8.440315247E0,-2.583631992E0
8.189968750E-1,1.012638474E1,-8.737354279E0,-2.494999170E0
8.214938540E-1,1.022699451E1,-9.060744286E0,-2.265033245E0
8.239907810E-1,1.012398911E1,-9.403297424E0,-2.166818619E0
8.264877080E-1,9.817367554E0,-9.501512527E0,-2.006321669E0
8.289846350E-1,9.455651283E0,-9.597332001E0,-1.697304845E0
8.314816140E-1,9.077164650E0,-9.669197083E0,-1.330796599E0
8.339785410E-1,8.519019127E0,-9.599727631E0,-9.403336048E-1
8.364754680E-1,8.023155212E0,-9.405694008E0,-5.187294483E-1
8.389723960E-1,7.639878273E0,-9.135004997E0,-3.486504555E-1
8.414693230E-1,7.347629547E0,-8.830779076E0,-2.743906081E-1
8.439663020E-1,7.005075932E0,-8.457083702E0,-1.162890270E-1
8.462220830E-1,6.712828159E0,-7.973197460E0,1.232588142E-1
8.487190100E-1,6.396624565E0,-7.611480713E0,4.346710443E-1
8.512159890E-1,6.030116558E0,-7.175503731E0,7.580606341E-1
8.537129160E-1,5.771405220E0,-6.770667553E0,1.038331628E0
8.562098430E-1,5.299495697E0,-6.540701389E0,1.177269340E0
8.587067710E-1,4.770094872E0,-6.286781311E0,1.407235265E0
8.612037500E-1,4.437122822E0,-6.071187973E0,1.582105279E0
8.637006770E-1,4.077801704E0,-5.843617439E0,1.630014777E0
8.661976040E-1,3.634637833E0,-5.606465340E0,1.637201309E0
8.686945310E-1,3.320830345E0,-5.548973560E0,1.709065676E0
8.711914580E-1,2.999836206E0,-5.525018692E0,1.721042991E0
8.736884370E-1,2.681237459E0,-5.489086628E0,1.740206838E0
8.759119270E-1,2.333893061E0,-5.534600735E0,1.924658775E0
8.784089060E-1,1.993735313E0,-5.525018692E0,2.149833679E0
8.809058330E-1,1.596085787E0,-5.570533276E0,2.324703455E0
8.834027600E-1,1.325396657E0,-5.630419731E0,2.389381409E0
8.858996870E-1,9.948205948E-1,-5.704679489E0,2.473223209E0
8.883966140E-1,6.378942728E-1,-5.766962051E0,2.597788334E0
8.908935930E-1,3.001317978E-1,-5.800498486E0,2.600183487E0
8.933905210E-1,-5.200350285E-2,-5.834035397E0,2.600183487E0
8.958874480E-1,-3.466473520E-1,-5.867572308E0,2.636115789E0
8.983843750E-1,-7.275284529E-1,-5.886735916E0,2.612160921E0
9.008813020E-1,-1.175482988E0,-5.862781048E0,2.626533747E0
9.033782810E-1,-1.472522259E0,-5.903504848E0,2.525923729E0
9.056015620E-1,-1.793516397E0,-5.915481567E0,2.561856031E0
9.080985410E-1,-2.210329533E0,-5.965786457E0,2.621742964E0
9.105954680E-1,-2.509764671E0,-5.934645653E0,2.616951942E0
9.130923960E-1,-2.835549593E0,-5.977764130E0,2.688816309E0
9.155893230E-1,-3.118216038E0,-6.013696671E0,2.782239914E0
9.180862500E-1,-3.340995550E0,-6.042442322E0,2.815776825E0
9.205832290E-1,-3.570961475E0,-6.138261318E0,2.904409409E0
9.230801560E-1,-3.750622272E0,-6.231685162E0,2.911595821E0
9.255770830E-1,-3.956633568E0,-6.363436222E0,3.129584312E0
9.280740100E-1,-4.155458450E0,-6.466441631E0,3.390691519E0
9.305709370E-1,-4.378237724E0,-6.574238777E0,3.524838209E0
9.330679160E-1,-4.435729027E0,-6.720362663E0,3.577538729E0
9.352917180E-1,-4.574666977E0,-6.854509830E0,3.814691305E0
9.377886980E-1,-4.668090343E0,-7.062916279E0,3.915301085E0
9.402856250E-1,-4.737559319E0,-7.177899361E0,4.030284405E0
9.427825520E-1,-4.778282642E0,-7.331209660E0,4.154848576E0
9.452794790E-1,-4.799841881E0,-7.462961197E0,4.147662163E0
9.477764060E-1,-4.763909817E0,-7.477333546E0,4.197968006E0
9.502733850E-1,-4.658508778E0,-7.506079674E0,4.257854462E0
9.527703120E-1,-4.574666977E0,-7.640225887E0,4.238690853E0
9.552672390E-1,-4.531548500E0,-7.793537140E0,4.241086483E0
9.577641660E-1,-4.435729027E0,-7.884564877E0,4.279413700E0
9.602610930E-1,-4.330327988E0,-8.016316414E0,4.320136547E0
9.627580730E-1,-4.160249233E0,-8.114530563E0,4.305764198E0
9.649810930E-1,-3.968610764E0,-8.124113083E0,4.269831657E0
9.674780210E-1,-3.741040468E0,-8.203163147E0,4.205153942E0
9.699750000E-1,-3.525447369E0,-8.239095688E0,4.039865971E0
9.724719270E-1,-3.257153749E0,-8.330123901E0,3.874578238E0
9.749688540E-1,-2.960114479E0,-8.392405510E0,3.738035917E0
9.774657810E-1,-2.689425468E0,-8.452292442E0,3.579934359E0
9.799627600E-1,-2.560069561E0,-8.651117325E0,3.402668953E0
9.824596870E-1,-2.378013134E0,-8.811614990E0,3.349968433E0
9.849566140E-1,-2.085764885E0,-8.914620399E0,3.163120985E0
9.874535410E-1,-1.798307419E0,-8.873897552E0,2.902014017E0
9.899504680E-1,-1.611459970E0,-8.835569382E0,2.724748611E0
9.924474480E-1,-1.285674930E0,-8.890666008E0,2.547482967E0
9.946361460E-1,-1.005403996E0,-9.017625809E0,2.295957804E0
9.971331250E-1,-7.802289724E-1,-9.046371460E0,2.075573683E0
9.996300520E-1,-5.502630472E-1,-9.051162720E0,1.982150316E0
1.002126979E0,-2.220824659E-1,-9.115840912E0,1.773743629E0
1.004623906E0,1.060980558E-1,-9.111049652E0,1.594082594E0
1.007120833E0,3.672052622E-1,-9.163750648E0,1.510240912E0
1.009617812E0,6.378942728E-1,-9.214056015E0,1.366512179E0
1.012114739E0,9.517019987E-1,-9.245196342E0,1.354534745E0
1.014611666E0,1.143340230E0,-9.345807076E0,1.395257950E0
1.017108593E0,1.370910645E0,-9.357783318E0,1.285065889E0
1.019605521E0,1.579317331E0,-9.420066833E0,1.299438715E0
1.022102500E0,1.797306061E0,-9.475162506E0,1.359325767E0
1.024326510E0,2.022480965E0,-9.599727631E0,1.443167567E0
1.026805208E0,2.357847929E0,-9.628472328E0,1.373698592E0
1.029283958E0,2.623745918E0,-9.743455887E0,1.505449891E0
1.031762656E0,2.925576210E0,-9.827297211E0,1.529404759E0
1.034241406E0,3.205847263E0,-9.920722008E0,1.618037343E0
1.036720104E0,3.476536274E0,-1.010277748E1,1.682715416E0
1.039198854E0,3.852626324E0,-1.021776104E1,1.560545921E0
1.041677552E0,4.156852722E0,-1.035430241E1,1.550963998E0
1.044156354E0,4.487428665E0,-1.054354572E1,1.455144882E0
1.046635000E0,4.980896950E0,-1.065373802E1,1.256320119E0
1.049113802E0,5.481552124E0,-1.067050648E1,1.069472909E0
1.051592500E0,5.917529106E0,-1.061780548E1,9.305351973E-1
1.054035989E0,6.228940964E0,-1.062978268E1,8.658571243E-1
1.056514687E0,6.432557106E0,-1.055312729E1,7.987837791E-1
1.058993437E0,6.497234821E0,-1.052198696E1,6.454731226E-1
1.061472135E0,6.468489170E0,-1.050042725E1,6.622415185E-1
1.063950885E0,6.391833305E0,-1.040221310E1,6.694279313E-1
1.066429583E0,6.353506088E0,-1.027046204E1,7.293148637E-1
1.068908333E0,6.339132786E0,-1.006684589E1,7.772244215E-1
1.071387031E0,6.240918636E0,-9.839274406E0,9.616762400E-1
1.073865781E0,6.149890423E0,-9.549422264E0,1.160501003E0
1.076344479E0,6.082817078E0,-9.261964798E0,1.318602681E0
1.078823229E0,6.106771946E0,-8.950552940E0,1.550963998E0
1.081301927E0,6.137913227E0,-8.641535759E0,1.721042991E0
1.083739531E0,6.147494793E0,-8.394802094E0,1.960590839E0
1.086218229E0,6.113957882E0,-8.167231560E0,2.257630348E0
1.088696979E0,6.070839405E0,-8.023502350E0,2.303144217E0
1.091175677E0,5.919924259E0,-7.851028442E0,2.504364491E0
1.093654427E0,5.788173199E0,-7.659389973E0,2.681630135E0
1.096133125E0,5.634862423E0,-7.479729176E0,2.712770939E0
1.098611875E0,5.433642387E0,-7.367141724E0,2.822962999E0
1.101090573E0,5.378546715E0,-7.244972706E0,2.837336063E0
1.103569323E0,5.313868523E0,-7.139571190E0,2.794217348E0
1.106048021E0,5.124625683E0,-7.110825539E0,2.878058910E0
1.108526771E0,5.148580551E0,-7.103639126E0,2.818172216E0
1.111005468E0,5.246795177E0,-7.067707062E0,2.767867088E0
1.113410729E0,5.256377220E0,-7.118011951E0,2.813381195E0
1.115889427E0,5.328240871E0,-7.074893475E0,2.722352982E0
1.118368177E0,5.378546715E0,-7.118011951E0,2.724748611E0
1.120846875E0,5.404896259E0,-7.204248905E0,2.669652462E0
1.123325625E0,5.335427284E0,-7.352768898E0,2.691211700E0
1.125804323E0,5.287518024E0,-7.482124805E0,2.789426565E0
1.128283073E0,5.129416466E0,-7.649807930E0,2.899618626E0
1.130761771E0,5.000060558E0,-7.793537140E0,2.868477345E0
1.133240521E0,4.932987690E0,-7.913311481E0,2.997833014E0
1.135719218E0,4.782072067E0,-8.069016457E0,3.084070206E0
1.138197968E0,4.588038445E0,-8.229514122E0,3.306849718E0
1.140676666E0,4.506591797E0,-8.387615204E0,3.452974081E0
1.143117708E0,4.353281498E0,-8.481039047E0,3.599098206E0
1.145596406E0,4.228716373E0,-8.586440086E0,3.685335159E0
1.148075156E0,4.106546879E0,-8.701422691E0,3.869787455E0
1.150553854E0,3.970005035E0,-8.849942207E0,3.905719519E0
1.153032604E0,3.857417583E0,-8.996067047E0,3.915301085E0
1.155511302E0,3.668174267E0,-9.151772499E0,3.910510302E0
1.157990052E0,3.421440125E0,-9.297896385E0,3.826668501E0
1.160468750E0,3.191474438E0,-9.472766876E0,3.766781807E0
1.162947500E0,3.030977249E0,-9.671591759E0,3.673357964E0
1.165426198E0,2.927971840E0,-9.755434036E0,3.479324341E0
1.167904948E0,2.757892847E0,-9.760224342E0,3.412250757E0
1.170383646E0,2.652491808E0,-9.726687431E0,3.203844309E0
1.172761250E0,2.551881790E0,-9.678777695E0,2.990646601E0
1.175239948E0,2.501576424E0,-9.561399460E0,2.669652462E0
1.177718698E0,2.262028694E0,-9.508698463E0,2.494782448E0
1.180197343E0,2.163814306E0,-9.417670250E0,2.319912434E0
1.182676146E0,2.259633303E0,-9.317060471E0,2.264816523E0
1.185154843E0,2.374616146E0,-9.293106079E0,2.154624462E0
1.187633541E0,2.530322313E0,-9.379343987E0,1.946218014E0
1.190112291E0,2.707587719E0,-9.578167915E0,1.869562864E0
1.192591041E0,2.846525431E0,-9.683568954E0,1.804884672E0
1.195069739E0,3.081282377E0,-9.836879730E0,1.776139021E0
1.197548489E0,3.308852673E0,-1.002372646E1,1.754579782E0
1.200027187E0,3.531632423E0,-1.029441547E1,1.735415936E0
1.202458489E0,3.687338352E0,-1.062020111E1,1.677924395E0
1.204937187E0,3.680151939E0,-1.089328575E1,1.606060028E0
1.207415937E0,3.804717064E0,-1.133405399E1,1.424003601E0
1.209894687E0,4.087383270E0,-1.179877663E1,1.136546254E0
1.212373385E0,4.223925591E0,-1.235213184E1,9.137667418E-1
1.214852135E0,4.422750473E0,-1.302047062E1,6.095409393E-1
1.217330833E0,4.461078167E0,-1.377265072E1,3.532247543E-1
1.219809583E0,4.532942295E0,-1.463741875E1,1.663774401E-1
1.222288333E0,4.609597683E0,-1.559321499E1,-1.857579052E-1
1.224767031E0,4.662298203E0,-1.657056999E1,-4.827972651E-1
1.227245781E0,4.679066658E0,-1.754553032E1,-6.337123513E-1
1.229724479E0,4.691043854E0,-1.865224075E1,-7.415089011E-1
1.232125573E0,4.719789505E0,-1.971104240E1,-9.618929029E-1
1.234604323E0,4.547315121E0,-2.072433090E1,-1.261327744E0
1.237083021E0,4.173620701E0,-2.161544800E1,-1.450570583E0
1.239561771E0,3.569960117E0,-2.215203667E1,-1.666163564E0
1.242040468E0,2.774661303E0,-2.233648682E1,-1.824265242E0
1.244519218E0,1.766164780E0,-2.218078041E1,-1.912897825E0
1.246997916E0,7.001767159E-1,-2.149567413E1,-1.972784877E0
1.249476666E0,-3.298790157E-1,-2.046322250E1,-1.886547565E0
1.251955416E0,-1.182669401E0,-1.922955322E1,-1.867383838E0
1.254434114E0,-1.824657679E0,-1.801025200E1,-1.651790738E0
1.256912864E0,-2.243866444E0,-1.681490898E1,-1.395474434E0
1.259391562E0,-2.488204956E0,-1.558842373E1,-1.088853359E0
1.261867239E0,-2.675052404E0,-1.429965591E1,-8.493053913E-1
1.264345989E0,-2.720566750E0,-1.306119347E1,-8.061868548E-1
1.266824687E0,-2.869086266E0,-1.184668541E1,-7.630682588E-1
1.269303437E0,-3.156543732E0,-1.075434780E1,-5.929892659E-1
1.271782135E0,-3.362554789E0,-9.748246193E0,-4.181193113E-1
1.274260885E0,-3.484724283E0,-8.814010620E0,-2.504358292E-1
1.276739583E0,-3.661989450E0,-8.035479546E0,-3.701537848E-3
1.279218333E0,-3.755413294E0,-7.345582485E0,2.023096234E-1
1.281697083E0,-3.999752045E0,-6.765876770E0,5.520495176E-1
1.284175729E0,-4.282418251E0,-6.234080791E0,7.676425576E-1
1.286654479E0,-4.423751831E0,-5.831640244E0,8.538798094E-1
1.289133229E0,-4.584248543E0,-5.539391518E0,1.182060361E0
1.291516823E0,-4.589039803E0,-5.295053005E0,1.462331295E0
1.293995573E0,-4.581852913E0,-5.112996578E0,1.728229403E0
1.296474271E0,-4.478847504E0,-4.998013496E0,1.768952608E0
1.298953021E0,-4.383028984E0,-4.861471176E0,1.737811446E0
1.301431718E0,-4.184204102E0,-4.825539112E0,1.728229403E0
1.303910468E0,-3.932678699E0,-4.823143482E0,1.649178624E0
1.306389166E0,-3.726667404E0,-4.803979397E0,1.620432854E0
1.308867916E0,-3.673967123E0,-4.736906528E0,1.680319905E0
1.311346666E0,-3.733854055E0,-4.696183205E0,2.046828032E0
1.313825364E0,-3.846441507E0,-4.727324486E0,2.444477558E0
1.316304114E0,-3.832068443E0,-4.751279354E0,2.803799152E0
1.318782812E0,-3.700317144E0,-4.916567326E0,3.024183273E0
1.321215989E0,-3.412859678E0,-4.916567326E0,3.122397900E0
1.323694687E0,-3.199662209E0,-5.017177105E0,3.134375334E0
1.326173437E0,-3.149357319E0,-5.283075809E0,3.249358177E0
1.328652135E0,-3.134984255E0,-5.632815361E0,3.359550238E0
1.331130885E0,-3.010419607E0,-5.946623325E0,3.412250757E0
1.333609583E0,-2.909809351E0,-6.293967724E0,3.498487949E0
1.336088333E0,-2.699007273E0,-6.559865475E0,3.532024860E0
1.338567031E0,-2.564860344E0,-6.852114201E0,3.553584099E0
1.341045833E0,-2.440295696E0,-7.204248905E0,3.742826700E0
1.343524479E0,-2.394781590E0,-7.570757389E0,3.999142885E0
1.346003281E0,-2.298962355E0,-7.949243069E0,4.106939316E0
1.348481979E0,-2.306148767E0,-8.241491318E0,4.205153942E0
1.350906614E0,-2.227097988E0,-8.481039047E0,4.265040874E0
1.353385312E0,-2.176793098E0,-8.761309624E0,4.425537586E0
1.355864062E0,-2.059414387E0,-9.079908371E0,4.571662426E0
1.358342760E0,-1.977968216E0,-9.352993011E0,4.581244469E0
1.360821510E0,-1.913290262E0,-9.614100456E0,4.595616817E0
1.363300208E0,-1.759979606E0,-9.899161339E0,4.564476013E0
1.365778958E0,-1.640205741E0,-1.016506100E1,4.689040661E0
1.368257656E0,-1.690510869E0,-1.039023590E1,4.923797607E0
1.370736406E0,-1.640205741E0,-1.063457394E1,5.122622490E0
1.373215104E0,-1.515640974E0,-1.084058571E1,5.187300205E0
1.375693854E0,-1.441381097E0,-1.102264118E1,5.359774590E0
1.378172604E0,-1.417426348E0,-1.118313885E1,5.572972298E0
1.380632135E0,-1.331189036E0,-1.126937580E1,5.855638981E0
1.383110833E0,-1.434194565E0,-1.136519432E1,6.471276760E0
1.385589583E0,-1.668951511E0,-1.150652885E1,6.722801685E0
1.388068281E0,-1.855798841E0,-1.147299194E1,6.806643963E0
1.390547031E0,-1.836634994E0,-1.135800838E1,6.591050625E0
1.393025729E0,-1.817471147E0,-1.115678883E1,6.514395237E0
1.395504479E0,-1.697697282E0,-1.104659653E1,6.253288269E0
1.397983177E0,-1.690510869E0,-1.085735321E1,5.994576454E0
1.400461927E0,-1.577923298E0,-1.070883369E1,5.802938461E0
1.402940677E0,-1.486895084E0,-1.063457394E1,5.652022839E0
1.405419375E0,-1.539595723E0,-1.049324036E1,5.496316910E0
1.407898125E0,-1.513245344E0,-1.030878830E1,5.417266369E0
1.410288489E0,-1.470126748E0,-1.016745567E1,5.359774590E0
1.412767187E0,-1.474917769E0,-1.003330898E1,5.429243088E0
1.415245937E0,-1.541991115E0,-9.776992798E0,5.477153301E0
1.417724635E0,-1.532409191E0,-9.654823303E0,5.450802803E0
1.420203385E0,-1.474917769E0,-9.554213524E0,5.376542568E0
1.422682083E0,-1.398262501E0,-9.376947403E0,5.220836639E0
1.425160833E0,-1.158714533E0,-9.273942947E0,5.055548668E0
1.427639531E0,-1.103618622E0,-9.135004997E0,4.938170433E0
1.430118333E0,-1.055709004E0,-9.106258392E0,4.734554768E0
1.432596979E0,-1.041336179E0,-9.139795303E0,4.435119629E0
1.435075781E0,-9.958220720E-1,-9.135004997E0,4.159639835E0
1.437554479E0,-9.646807909E-1,-9.168541908E0,3.922487974E0
1.439978229E0,-9.287486076E-1,-9.238009453E0,3.702103853E0
1.442456927E0,-8.544887900E-1,-9.285919189E0,3.424228191E0
1.444935677E0,-7.706470490E-1,-9.278733253E0,3.177494049E0
1.447414375E0,-6.892008185E-1,-9.214056015E0,2.904409409E0
1.449893125E0,-4.927715659E-1,-9.278733253E0,2.640906811E0
1.452371823E0,-2.268734574E-1,-9.408088684E0,2.300748825E0
1.454850573E0,3.092467785E-3,-9.465580940E0,1.871958256E0
1.457329271E0,2.402448654E-1,-9.436834335E0,1.380885005E0
1.459808073E0,4.199057817E-1,-9.432044029E0,9.185577631E-1
1.462286718E0,5.085384846E-1,-9.410484314E0,7.269194126E-1
1.464765521E0,4.821882248E-1,-9.384134293E0,7.365013361E-1
1.467244218E0,5.420751572E-1,-9.285919189E0,6.478686333E-1
1.469662864E0,6.283123493E-1,-9.312269211E0,5.975635648E-1
1.472141562E0,7.840185165E-1,-9.398507118E0,6.023545265E-1
1.474620312E0,1.023566365E0,-9.405694008E0,6.143319607E-1
1.477099010E0,1.358933449E0,-9.281128883E0,4.873715639E-1
1.479577760E0,1.775746584E0,-9.194891930E0,2.310553342E-1
1.482056458E0,2.154232264E0,-9.048768044E0,1.208633333E-1
1.484535208E0,2.400966406E0,-8.945761681E0,9.930403531E-2
1.487013906E0,2.714774132E0,-8.794846535E0,-1.450347602E-1
1.489492656E0,2.753101826E0,-8.725378036E0,-1.426392943E-1
1.491971354E0,2.741124392E0,-8.663095474E0,-1.091025919E-1
1.494450156E0,2.733937979E0,-8.600812912E0,-1.282664239E-1
1.496928854E0,2.765079260E0,-8.651117325E0,-2.336674780E-1
1.499390416E0,2.652491808E0,-8.634349823E0,-2.911589742E-1
1.501869114E0,2.515949488E0,-8.682258606E0,-1.737805158E-1
1.504347812E0,2.360243320E0,-8.691840172E0,3.196880817E-1
1.506826562E0,2.259633303E0,-8.806823730E0,8.107610941E-1
1.509305312E0,2.051226854E0,-8.943367004E0,1.196433306E0
1.511784010E0,1.861983776E0,-9.031998634E0,1.531800270E0
1.514262760E0,1.706277847E0,-9.043976784E0,1.876749039E0
1.516741458E0,1.584108353E0,-9.099072456E0,2.195347786E0
1.519220208E0,1.543385267E0,-9.180519104E0,2.370217800E0
1.521698906E0,1.421215773E0,-9.278733253E0,2.516341686E0
1.524177656E0,1.342164993E0,-9.376947403E0,2.542691946E0
1.526656354E0,1.327792168E0,-9.412879944E0,2.492387056E0
1.529079583E0,1.208018184E0,-9.463184357E0,2.506760120E0
1.531558281E0,1.172086000E0,-9.463184357E0,2.506760120E0
1.534037031E0,1.176877022E0,-9.491930962E0,2.470827818E0
1.536515729E0,1.167295098E0,-9.506303787E0,2.391777039E0
1.538994479E0,1.097826242E0,-9.621286392E0,2.394172430E0
1.541473177E0,1.095430732E0,-9.616496086E0,2.394172430E0
1.543951927E0,1.102617145E0,-9.599727631E0,2.444477558E0
1.546430625E0,1.138549328E0,-9.585354805E0,2.382194996E0
1.548909375E0,1.196040750E0,-9.523071289E0,2.224093437E0
1.551388073E0,1.323001146E0,-9.477557182E0,2.125878811E0
1.553866823E0,1.421215773E0,-9.420066833E0,1.965381861E0
1.556345521E0,1.440379381E0,-9.417670250E0,2.044432402E0
1.558735156E0,1.399656534E0,-9.324247360E0,1.984545708E0
1.561213854E0,1.406842947E0,-9.190100670E0,1.939031601E0
1.563692604E0,1.452357054E0,-9.127818108E0,1.852794170E0
1.566171354E0,1.497870922E0,-9.031998634E0,1.761766195E0
1.568650052E0,1.529012203E0,-8.907433510E0,1.692297220E0
1.571128802E0,1.567339897E0,-8.794846535E0,1.706670165E0
1.573607500E0,1.548176289E0,-8.775682449E0,1.780930042E0
1.576086198E0,1.620040417E0,-8.732563972E0,1.871958256E0
1.578564948E0,1.675136566E0,-8.663095474E0,1.910285711E0
1.581043698E0,1.708673239E0,-8.655908585E0,1.991732121E0
1.583522396E0,1.790119410E0,-8.629558563E0,2.008500576E0
1.586001146E0,1.962594032E0,-8.612790108E0,2.003709555E0
1.588433646E0,2.003316879E0,-8.622371674E0,2.202534199E0
1.590912343E0,2.139859200E0,-8.562484741E0,2.142647266E0
1.593391093E0,2.178186893E0,-8.569671631E0,2.260025740E0
1.595869791E0,2.245260477E0,-8.596021652E0,2.382194996E0
1.598348541E0,2.281192541E0,-8.564880371E0,2.504364491E0
1.600827291E0,2.350661516E0,-8.555298805E0,2.703189373E0
1.603306041E0,2.326706648E0,-8.543321609E0,2.851708651E0
1.605784739E0,2.393779993E0,-8.504993439E0,2.981064796E0
1.608263489E0,2.412944078E0,-8.464270592E0,3.237380981E0
1.610742187E0,2.451271534E0,-8.428339005E0,3.460160494E0
1.613220885E0,2.535113335E0,-8.390010834E0,3.596702814E0
1.615699635E0,2.571045399E0,-8.370846748E0,3.718872070E0
1.618147604E0,2.599791288E0,-8.344496727E0,3.809900045E0
1.620626354E0,2.702796698E0,-8.270236969E0,4.037470341E0
1.623105104E0,2.779452085E0,-8.243886948E0,4.109334946E0
1.625583802E0,2.848921061E0,-8.181604385E0,4.243481636E0
1.628062552E0,2.927971840E0,-8.174417496E0,4.348882675E0
1.630541250E0,2.992649794E0,-8.100157738E0,4.485424995E0
1.633019948E0,3.059722900E0,-8.090575218E0,4.607594490E0
1.635498698E0,3.133982897E0,-8.042666435E0,4.708204269E0
1.637977448E0,3.186683416E0,-7.980384350E0,4.811210155E0
1.640456198E0,3.213033676E0,-7.915706158E0,4.950147629E0
1.642934896E0,3.234592915E0,-7.896543026E0,5.148972511E0
1.645413593E0,3.246570587E0,-7.886960506E0,5.347797394E0
1.647836562E0,3.215429306E0,-7.824677944E0,5.563390255E0
1.650315260E0,3.193870068E0,-7.760000229E0,5.721491814E0
1.652793958E0,3.122005463E0,-7.771977425E0,5.917921066E0
1.655272708E0,3.213033676E0,-7.774373055E0,6.150282860E0
1.657751458E0,3.148355722E0,-7.678554058E0,6.226937771E0
1.660230156E0,3.157937765E0,-7.642621517E0,6.284429073E0
1.662708906E0,3.054932356E0,-7.633039951E0,6.564700127E0
1.665187604E0,2.997440815E0,-7.621062756E0,6.696451664E0
1.667666354E0,2.959112883E0,-7.573153019E0,6.737174988E0
1.670145052E0,2.918389797E0,-7.501288414E0,6.876112938E0
1.672623802E0,2.767474651E0,-7.446192741E0,7.036609650E0
1.675102500E0,2.628536940E0,-7.386305809E0,6.998281956E0
1.677526979E0,2.604582310E0,-7.331209660E0,6.983909130E0
1.680005677E0,2.503972054E0,-7.216226578E0,6.991095066E0
1.682484427E0,2.456062555E0,-7.082079411E0,6.916835785E0
1.684963125E0,2.451271534E0,-6.902419090E0,6.868926048E0
1.687441875E0,2.525531530E0,-6.710780621E0,6.665310383E0
1.689920573E0,2.434503317E0,-6.535910606E0,6.401807785E0
1.692399323E0,2.360243320E0,-6.346668243E0,6.143096447E0
1.694878021E0,2.250051260E0,-6.222103119E0,5.807729244E0
1.697356771E0,2.125486374E0,-6.116702080E0,5.446011543E0
1.699835521E0,2.012898922E0,-6.056815147E0,5.213650227E0
1.702314218E0,1.907497883E0,-6.006510258E0,4.914215565E0
1.704792968E0,1.687114000E0,-5.953809738E0,4.701018333E0
1.707215208E0,1.564944506E0,-5.937041283E0,4.523752689E0
1.709693906E0,1.454752445E0,-5.949018478E0,4.224317551E0
1.712172604E0,1.334978580E0,-6.044837475E0,4.066216469E0
1.714651354E0,1.294255376E0,-6.042442322E0,3.879369497E0
1.717130052E0,1.150526762E0,-6.111911297E0,3.805109262E0
1.719608802E0,1.073871374E0,-6.214916706E0,3.697312832E0
1.722087500E0,9.636793137E-1,-6.325108528E0,3.627844095E0
1.724566250E0,8.319281340E-1,-6.543097019E0,3.532024860E0
1.727045000E0,7.744365931E-1,-6.785040855E0,3.544002295E0
1.729523698E0,7.121541500E-1,-7.094057083E0,3.467346668E0
1.732002448E0,6.546626091E-1,-7.362350464E0,3.596702814E0
1.734481146E0,6.187305450E-1,-7.685740471E0,3.867391825E0
1.736904114E0,5.971710682E-1,-8.040270805E0,4.159639835E0
1.739382812E0,6.163350344E-1,-8.310959816E0,4.497402191E0
1.741861510E0,5.923802853E-1,-8.512179375E0,4.830373764E0
1.744340260E0,5.923802853E-1,-8.737354279E0,5.196882248E0
1.746819010E0,6.307078600E-1,-8.897851944E0,5.532249451E0
1.749297708E0,6.690354347E-1,-9.041580200E0,5.817311287E0
1.751776458E0,7.049677372E-1,-9.146981239E0,6.054463387E0
1.754255208E0,7.313179970E-1,-9.283523560E0,6.243706226E0
1.756733906E0,7.792274952E-1,-9.396111488E0,6.317966461E0
1.759212604E0,8.343235254E-1,-9.458394051E0,6.332338810E0
1.761691354E0,9.157698154E-1,-9.448811531E0,6.401807785E0
1.764170052E0,9.493064880E-1,-9.470371246E0,6.385039330E0
1.766557343E0,9.948205948E-1,-9.520676613E0,6.305988789E0
1.769036041E0,1.040334702E0,-9.544631958E0,6.212564945E0
1.771514791E0,1.078662395E0,-9.549422264E0,6.004158497E0
1.773993489E0,1.148131251E0,-9.566190720E0,5.690351009E0
1.776472239E0,1.224786520E0,-9.654823303E0,5.388520241E0
1.778950937E0,1.327792168E0,-9.676383018E0,4.976498127E0
1.781429687E0,1.593690157E0,-9.745851517E0,4.641131401E0
1.783908385E0,1.780537605E0,-9.848856926E0,4.293787003E0
1.786387187E0,1.926661730E0,-9.930303574E0,3.944047213E0
1.788865885E0,2.067995071E0,-1.003330898E1,3.591911793E0
1.791344635E0,2.233283043E0,-1.011236000E1,3.273313046E0
1.793823333E0,2.341079473E0,-1.026806545E1,2.993041992E0
1.796283854E0,2.539904356E0,-1.040460777E1,2.751098871E0
1.798762604E0,2.618954897E0,-1.061541080E1,2.478014231E0
1.801241354E0,2.729146957E0,-1.084298038E1,2.312726259E0
1.803720052E0,2.875271320E0,-1.107534122E1,2.204929829E0
1.806198802E0,3.004626989E0,-1.135321808E1,2.097132921E0
1.808677500E0,3.033372641E0,-1.170535278E1,2.168997526E0
1.811156198E0,2.920785189E0,-1.211737537E1,2.109110594E0
1.813634948E0,2.815384150E0,-1.263000774E1,1.960590839E0
1.816113698E0,2.559067965E0,-1.315701294E1,1.833630562E0
1.818592396E0,2.341079473E0,-1.382535172E1,1.742602229E0
1.821071146E0,2.070390463E0,-1.449608612E1,1.641992211E0
1.823549843E0,1.689509392E0,-1.519796085E1,1.507845402E0
1.825938906E0,1.241554856E0,-1.601961136E1,1.505449891E0
1.828417604E0,8.654646873E-1,-1.695624352E1,1.359325767E0
1.830896354E0,3.145046830E-1,-1.811805153E1,1.299438715E0
1.833375052E0,-3.753930926E-1,-1.942358589E1,1.026354313E0
1.835853802E0,-1.201833248E0,-2.072912025E1,9.760491848E-1
1.838332500E0,-2.116906166E0,-2.178073692E1,8.969984055E-1
1.840811250E0,-3.137379646E0,-2.263352585E1,8.059701920E-1
1.843289948E0,-4.351887703E0,-2.336175346E1,7.844108343E-1
1.845768750E0,-5.310079098E0,-2.419298172E1,7.173374891E-1
1.848247396E0,-5.966440201E0,-2.484694862E1,3.795750141E-1
1.850726198E0,-6.215569496E0,-2.509128952E1,-1.138935536E-1
1.853204896E0,-6.126936913E0,-2.498348999E1,-6.097576022E-1
1.855629635E0,-5.793965340E0,-2.453074646E1,-8.636782765E-1
1.858108333E0,-5.369966030E0,-2.378575325E1,-9.642884135E-1
1.860587083E0,-4.948361397E0,-2.277006912E1,-1.081666946E0
1.863065781E0,-4.430938244E0,-2.181427193E1,-1.155926704E0
1.865544531E0,-3.951842546E0,-2.087045479E1,-1.285282493E0
1.868023229E0,-3.491910696E0,-2.002724648E1,-1.285282493E0
1.870502031E0,-3.036769867E0,-1.919122505E1,-1.402660966E0
1.872980729E0,-2.641515732E0,-1.833124733E1,-1.503271103E0
1.875459479E0,-2.342081070E0,-1.751199532E1,-1.258932352E0
1.877938125E0,-1.903708339E0,-1.669034386E1,-1.261327744E0
1.880416927E0,-1.371912241E0,-1.598846912E1,-1.405056477E0
1.882895625E0,-9.215621948E-1,-1.535606289E1,-1.491293788E0
1.885318437E0,-5.670313835E-1,-1.482905674E1,-1.735632539E0
1.887797135E0,-3.283971548E-2,-1.434517097E1,-2.051835775E0
1.890275885E0,4.630243778E-1,-1.387805176E1,-2.504580975E0
1.892754583E0,9.397245646E-1,-1.353070736E1,-2.883066654E0
1.895233333E0,1.229577541E0,-1.305161190E1,-3.091473341E0
1.897712031E0,1.457148075E0,-1.261563492E1,-2.954931021E0
1.900190781E0,2.331497431E0,-1.220840359E1,-3.125010014E0
1.902669531E0,2.563858986E0,-1.185866356E1,-3.426840305E0
1.905148281E0,2.257237673E0,-1.135561275E1,-3.462772369E0
1.907626927E0,2.082367659E0,-1.076872063E1,-3.101055145E0
1.910105729E0,2.187768936E0,-1.034951210E1,-2.708196640E0
1.912584427E0,2.295565605E0,-9.911139488E0,-2.427925825E0
1.915007239E0,2.434503317E0,-9.523071289E0,-2.219519138E0
1.917485937E0,2.559067965E0,-9.170936584E0,-2.073395014E0
1.919964687E0,2.592604637E0,-8.873897552E0,-1.879361272E0
1.922443437E0,2.580627441E0,-8.593626976E0,-1.872174740E0
1.924922135E0,2.520740509E0,-8.363660812E0,-1.639813304E0
1.927400885E0,2.415339231E0,-8.186394691E0,-1.201440811E0
1.929879583E0,2.285983562E0,-7.937265873E0,-6.935993433E-1
1.932358333E0,2.420130253E0,-7.628249168E0,-4.444695711E-1
1.934837083E0,2.578232050E0,-7.458169937E0,-3.941645324E-1
1.937315729E0,2.724355936E0,-7.345582485E0,-4.324921966E-1
1.939794531E0,2.745915413E0,-7.170712471E0,-4.875882268E-1
1.942273229E0,2.575836420E0,-6.933559895E0,-5.307068229E-1
1.944695885E0,3.555586815E0,-5.486690998E0,5.688178539E-1
1.947174583E0,4.504196644E0,-4.792002678E0,1.653969646E0
1.949653333E0,4.429936886E0,-5.846013069E0,1.836025953E0
1.952132031E0,4.367654324E0,-6.428113937E0,1.898308516E0
1.954610781E0,4.346095085E0,-6.408950806E0,1.716251969E0
1.957089479E0,4.037078381E0,-6.701198578E0,1.630014777E0
1.959568229E0,3.684943199E0,-7.038960934E0,1.150919199E0
1.962046927E0,3.589124203E0,-7.192271709E0,9.808400869E-1
1.964525729E0,3.656197071E0,-7.079684258E0,1.067077398E0
1.967004375E0,3.656197071E0,-6.993447304E0,1.289856911E0
1.969483177E0,3.617869377E0,-6.892837048E0,1.572523355E0
1.971961875E0,3.557982445E0,-6.844927788E0,1.974963665E0
1.974386302E0,3.589124203E0,-6.763481140E0,2.245652676E0
1.976865000E0,3.651406288E0,-6.543097019E0,2.377403975E0
1.979343750E0,3.665779114E0,-6.308340073E0,2.485200882E0
1.981822448E0,3.622660637E0,-6.255639553E0,2.602579117E0
1.984301198E0,3.486118317E0,-6.205334663E0,2.588206291E0
1.986779896E0,3.265734196E0,-6.250848770E0,2.513946533E0
1.989258646E0,3.086073160E0,-6.111911297E0,2.391777039E0
1.991737343E0,2.846525431E0,-5.872363091E0,2.343867540E0
1.994216146E0,2.259633303E0,-5.915481567E0,2.195347786E0
1.996694791E0,1.773351192E0,-5.992136955E0,2.092342377E0
1.999173593E0,2.230887413E0,-5.604069710E0,2.085155725E0
2.001652291E0,2.444084883E0,-5.450758934E0,1.797698259E0
2.004073333E0,2.226096392E0,-5.520227432E0,1.412026286E0
2.006552031E0,1.895520449E0,-5.570533276E0,1.043122649E0
2.009030781E0,1.543385267E0,-5.637606144E0,7.700380087E-1
2.011509479E0,1.265509605E0,-5.690306664E0,6.622415185E-1
2.013988229E0,1.088244200E0,-5.623233795E0,6.095409393E-1
2.016466927E0,7.983913422E-1,-5.606465340E0,5.664224029E-1
2.018945677E0,5.277022123E-1,-5.642396927E0,4.011343122E-1
2.021424375E0,2.713860869E-1,-5.644792557E0,2.837558985E-1
2.023903177E0,-4.481709003E-2,-5.680725098E0,3.196880817E-1
2.026381823E0,-3.131106794E-1,-5.764566422E0,3.963434100E-1
2.028860625E0,-5.502630472E-1,-5.848408699E0,3.843660355E-1
2.031339323E0,-7.802289724E-1,-5.951414108E0,4.658122659E-1
2.033765312E0,-9.646807909E-1,-5.987346172E0,4.753941894E-1
2.036240364E0,-1.211415052E0,-5.989741802E0,4.538348913E-1
2.038715416E0,-1.395866871E0,-6.078373909E0,4.634167552E-1
2.041190468E0,-1.573132396E0,-6.119097710E0,3.771795630E-1
2.043665468E0,-1.745606780E0,-6.198148251E0,4.250891209E-1
2.046140521E0,-1.874962687E0,-6.334690571E0,5.185127854E-1
2.048615521E0,-2.021086931E0,-6.495187759E0,5.185127854E-1
2.051090625E0,-2.176793098E0,-6.670057774E0,5.879816413E-1
2.053565625E0,-2.279798508E0,-6.792227268E0,7.245239615E-1
2.056040677E0,-2.418736219E0,-6.950328827E0,8.706481457E-1
2.058515677E0,-2.579233408E0,-7.127593994E0,1.105404973E0
2.060990729E0,-2.655888557E0,-7.266531467E0,1.186851263E0
2.063453906E0,-2.701402664E0,-7.462961197E0,1.330579996E0
2.065928958E0,-2.746916771E0,-7.609085083E0,1.515031934E0
2.068404010E0,-2.809199333E0,-7.738440990E0,1.761766195E0
2.070879062E0,-2.866690874E0,-7.848633289E0,1.958195210E0
2.073354062E0,-2.859504223E0,-7.992361546E0,2.111505985E0
2.075829114E0,-2.897831917E0,-8.095366478E0,2.286375999E0
2.078304114E0,-2.909809351E0,-8.172021866E0,2.552273989E0
2.080779218E0,-2.857108831E0,-8.260654449E0,2.719957590E0
2.083254218E0,-2.902622938E0,-8.368452072E0,2.772658110E0
2.085729271E0,-2.905018568E0,-8.461874962E0,2.928364277E0
2.088204271E0,-2.876272678E0,-8.560090065E0,2.985855818E0
2.090679323E0,-2.825967550E0,-8.643931389E0,3.028974295E0
2.093143489E0,-2.763685226E0,-8.713400841E0,3.091256857E0
2.095618541E0,-2.742125988E0,-8.787659645E0,3.098443270E0
2.098093593E0,-2.588815212E0,-8.845151901E0,3.105629444E0
2.100568646E0,-2.521741867E0,-8.866710663E0,3.098443270E0
2.103043646E0,-2.449877501E0,-8.928993225E0,3.088861227E0
2.105518698E0,-2.303753376E0,-8.996067047E0,3.160725594E0
2.107993698E0,-2.167211056E0,-9.055953979E0,3.165516615E0
2.110468802E0,-2.016295910E0,-9.063139915E0,3.182285070E0
2.112943802E0,-1.903708339E0,-9.127818108E0,3.282895088E0
2.115418854E0,-1.702488184E0,-9.202077866E0,3.273313046E0
2.117893906E0,-1.582714319E0,-9.264360428E0,3.268522024E0
2.120368906E0,-1.352748394E0,-9.259570122E0,3.220612526E0
2.122859843E0,-1.129968882E0,-9.317060471E0,3.234985590E0
2.125334896E0,-9.167712927E-1,-9.324247360E0,3.201448679E0
2.127809896E0,-6.963872313E-1,-9.271546364E0,3.160725594E0
2.130284948E0,-4.903760552E-1,-9.312269211E0,3.122397900E0
2.132759948E0,-2.843649089E-1,-9.290710449E0,3.098443270E0
2.135235052E0,-8.314478397E-2,-9.290710449E0,2.993041992E0
2.137710052E0,9.412068129E-2,-9.331433296E0,2.949923515E0
2.140185104E0,3.576233387E-1,-9.362574577E0,2.854104280E0
2.142660104E0,5.396797657E-1,-9.269151688E0,2.842127085E0
2.145135156E0,7.720410824E-1,-9.163750648E0,2.758285284E0
2.147610208E0,1.035543799E0,-9.012834549E0,2.751098871E0
2.150085260E0,1.294255376E0,-8.924202919E0,2.698398352E0
2.152556718E0,1.641599655E0,-8.873897552E0,2.566647053E0
2.155031718E0,1.945825577E0,-8.878688812E0,2.521132708E0
2.157506771E0,2.230887413E0,-8.905038834E0,2.439686537E0
2.159981823E0,2.475226164E0,-9.036789894E0,2.377403975E0
2.162456875E0,2.765079260E0,-9.084699631E0,2.355844736E0
2.164931875E0,3.117214441E0,-9.158959389E0,2.406149864E0
2.167406927E0,3.519655228E0,-9.300292969E0,2.370217800E0
2.169881979E0,3.888558388E0,-9.422461510E0,2.456454992E0
2.172356979E0,4.317349434E0,-9.511095047E0,2.406149864E0
2.174832031E0,4.638343334E0,-9.628472328E0,2.466036797E0
2.177307083E0,4.906637192E0,-9.729083061E0,2.499573469E0
2.179782135E0,5.189303398E0,-9.800947189E0,2.583415270E0
2.182211562E0,5.519879341E0,-9.891975403E0,2.624138594E0
2.184686614E0,5.766613960E0,-9.923116684E0,2.724748611E0
2.187161666E0,6.159472466E0,-9.966236115E0,2.588206291E0
2.189636718E0,6.521189690E0,-1.015787411E1,2.470827818E0
2.192111718E0,6.875720501E0,-1.030399799E1,2.358240366E0
2.194586771E0,7.208692074E0,-1.033993053E1,2.226489067E0
2.197061771E0,7.493754387E0,-1.032316208E1,2.070782661E0
2.199536875E0,7.608736992E0,-1.030399799E1,2.030059814E0
2.202011875E0,7.726115227E0,-1.016266441E1,1.917472363E0
2.204486927E0,7.642273903E0,-1.006684589E1,1.876749039E0
2.206961927E0,7.572804451E0,-9.851252556E0,1.713856459E0
2.209436979E0,7.390748024E0,-9.580563545E0,1.610851049E0
2.211902291E0,7.187132359E0,-9.305083275E0,1.606060028E0
2.214377343E0,6.961957455E0,-9.185309410E0,1.632410288E0
2.216852396E0,6.715223312E0,-8.988881111E0,1.658760548E0
2.219327448E0,6.485257626E0,-8.639141083E0,1.510240912E0
2.221802448E0,6.207382202E0,-8.404383659E0,1.529404759E0
2.224277500E0,5.943879128E0,-8.090575218E0,1.507845402E0
2.226752500E0,5.625280380E0,-7.834259987E0,1.512636423E0
2.229227604E0,5.251585960E0,-7.582734585E0,1.558150530E0
2.231702604E0,5.028806686E0,-7.453379154E0,1.651574135E0
2.234177656E0,4.832376957E0,-7.338396072E0,1.711461186E0
2.236652656E0,4.753326416E0,-7.324023247E0,1.778534412E0
2.239127708E0,4.798840523E0,-7.412656307E0,1.783325434E0
2.241624323E0,4.791654110E0,-7.551593781E0,1.869562864E0
2.244099375E0,4.722185135E0,-7.702508450E0,1.879144430E0
2.246574375E0,4.633552551E0,-7.846237659E0,1.740206838E0
2.249049427E0,4.480241776E0,-8.047456741E0,1.709065676E0
2.251524427E0,4.319745064E0,-8.188790321E0,1.598873615E0
2.253999531E0,4.161643028E0,-8.306168556E0,1.428794622E0
2.256474531E0,4.061032772E0,-8.356473923E0,1.361721277E0
2.258949583E0,3.895744801E0,-8.449897766E0,1.323393464E0
2.261424583E0,3.828671455E0,-8.600812912E0,1.237156391E0
2.263899635E0,3.807112694E0,-8.727772713E0,1.165292025E0
2.266374687E0,3.821485519E0,-8.823592186E0,1.076659322E0
2.268849739E0,3.831067085E0,-8.984089851E0,1.107800484E0
2.271280729E0,3.895744801E0,-9.144586563E0,1.033540606E0
2.273755781E0,3.902931690E0,-9.261964798E0,9.928175211E-1
2.276230833E0,3.862208366E0,-9.420066833E0,1.052704573E0
2.278705833E0,3.821485519E0,-9.645241737E0,1.069472909E0
2.281180885E0,3.804717064E0,-9.810529709E0,1.114986897E0
2.283655937E0,3.725666046E0,-9.975817680E0,1.141337276E0
2.286130937E0,3.756807327E0,-1.019141102E1,1.153314590E0
2.288606041E0,3.756807327E0,-1.037586308E1,1.184455752E0
2.291081041E0,3.680151939E0,-1.054833698E1,1.129359722E0
2.293556093E0,3.637033463E0,-1.068248367E1,1.222783566E0
2.296031093E0,3.577146530E0,-1.073278904E1,1.265902162E0
2.298506146E0,3.471745491E0,-1.085016632E1,1.282670379E0
2.300969583E0,3.474141121E0,-1.091724110E1,1.241947293E0
2.303444635E0,3.395090103E0,-1.096754551E1,1.232365370E0
2.305919687E0,3.318434715E0,-1.098910427E1,1.167687535E0
2.308394739E0,3.260943174E0,-1.102503681E1,1.103009462E0
2.310869739E0,3.193870068E0,-1.113283348E1,1.052704573E0
2.313344791E0,3.196265221E0,-1.120709324E1,8.850209713E-1
2.315819791E0,3.220220327E0,-1.133884430E1,7.484787107E-1
2.318294896E0,3.213033676E0,-1.139633656E1,7.365013361E-1
2.320769896E0,3.074095964E0,-1.146580505E1,7.892018557E-1
2.323244948E0,3.145960331E0,-1.157599640E1,6.885917783E-1
2.325719948E0,3.253756762E0,-1.185866356E1,5.448631048E-1
2.328195000E0,3.383112907E0,-1.219163418E1,4.777896404E-1
2.330684218E0,3.426231384E0,-1.256532955E1,4.490438700E-1
2.333159271E0,3.560378075E0,-1.293662834E1,3.675976396E-1
2.335634323E0,3.680151939E0,-1.330792809E1,2.981287837E-1
2.338109323E0,3.768784523E0,-1.369839096E1,2.023096234E-1
2.340584375E0,3.835857868E0,-1.410562229E1,1.687729210E-1
2.343059427E0,3.919700146E0,-1.451285362E1,1.088859290E-1
2.345534427E0,3.902931690E0,-1.492966652E1,1.591909975E-1
2.348009479E0,3.847835541E0,-1.532971191E1,2.166824788E-1
2.350484531E0,3.747225285E0,-1.572257042E1,3.148971200E-1
2.352959531E0,3.658592701E0,-1.609387016E1,3.556202650E-1
2.355434635E0,3.447790623E0,-1.641246986E1,4.969535470E-1
2.357909635E0,3.174705982E0,-1.660171127E1,5.233037472E-1
2.360349062E0,3.007022381E0,-1.669513702E1,5.113263130E-1
2.362824114E0,2.681237459E0,-1.671190453E1,4.873715639E-1
2.365299166E0,2.008107901E0,-1.654901123E1,5.616313815E-1
2.367774166E0,1.346956015E0,-1.620885277E1,5.688178539E-1
2.370249218E0,6.666400433E-1,-1.572496605E1,4.801851511E-1
2.372724271E0,4.860663414E-2,-1.520035553E1,5.783997774E-1
2.375199271E0,-4.041388631E-1,-1.451045895E1,4.969535470E-1
2.377674323E0,-7.778335214E-1,-1.379421043E1,6.095409393E-1
2.380149375E0,-1.141946197E0,-1.301328468E1,7.221284509E-1
2.382624375E0,-1.506058931E0,-1.224912643E1,8.610662222E-1
2.385099427E0,-1.733629346E0,-1.148736477E1,8.993939161E-1
2.387574479E0,-1.982759118E0,-1.081663036E1,1.103009462E0
2.390035781E0,-2.140860796E0,-1.019620132E1,1.368907690E0
2.392510833E0,-2.100137711E0,-9.666800499E0,1.603664517E0
2.394985885E0,-2.009109497E0,-9.192495346E0,1.656365156E0
2.397460937E0,-2.188770294E0,-8.821196556E0,1.625223875E0
2.399935937E0,-2.550487518E0,-8.411569595E0,1.697088242E0
2.402410989E0,-2.825967550E0,-7.992361546E0,1.886331081E0
2.404886041E0,-2.979278326E0,-7.621062756E0,2.109110594E0
2.407361041E0,-2.998441935E0,-7.302463531E0,2.281584978E0
2.409836093E0,-3.182893991E0,-7.067707062E0,2.494782448E0
2.412311093E0,-3.314645290E0,-6.900023460E0,2.595392704E0
2.414786198E0,-3.410464525E0,-6.808995247E0,2.810985804E0
2.417261198E0,-3.381718874E0,-6.665266514E0,2.868477345E0
2.419726354E0,-3.381718874E0,-6.583820343E0,2.940341473E0
2.422201354E0,-3.336204529E0,-6.511956215E0,3.131979704E0
2.424676458E0,-3.324227333E0,-6.538306236E0,3.376318693E0
2.427151458E0,-3.321831703E0,-6.576633930E0,3.584725380E0
2.429626510E0,-3.233199120E0,-6.610170841E0,3.773967981E0
2.432101510E0,-3.123007059E0,-6.600588799E0,3.886555433E0
2.434576562E0,-2.943346024E0,-6.636520386E0,3.769177198E0
2.437051614E0,-2.790035486E0,-6.667662144E0,3.697312832E0
2.439526614E0,-2.634329319E0,-6.653289318E0,3.570352554E0
2.442001666E0,-2.404363394E0,-6.653289318E0,3.294872522E0
2.444476718E0,-2.229493618E0,-6.631730080E0,2.942737103E0
2.446951771E0,-2.090555668E0,-6.698802948E0,2.636115789E0
2.449416666E0,-1.927663088E0,-6.820972443E0,2.346262932E0
2.451891718E0,-1.810284734E0,-6.969491959E0,2.006104946E0
2.454366771E0,-1.680928826E0,-7.165921688E0,1.706670165E0
2.456841771E0,-1.570736885E0,-7.290486813E0,1.462331295E0
2.459316823E0,-1.462940454E0,-7.415050983E0,1.476704121E0
2.461791875E0,-1.326398134E0,-7.556384563E0,1.615641952E0
2.464266875E0,-1.175482988E0,-7.709695339E0,1.589291692E0
2.466741979E0,-1.019776821E0,-7.822282791E0,1.606060028E0
2.469216979E0,-8.904209733E-1,-7.908520222E0,1.601269126E0
2.471692031E0,-7.514832616E-1,-8.057039261E0,1.596478105E0
2.474167083E0,-6.053590775E-1,-8.160044670E0,1.512636423E0
2.476642083E0,-5.143308640E-1,-8.310959816E0,1.342557430E0
2.479106041E0,-6.939917803E-1,-8.418756485E0,1.706670165E0
2.481581093E0,-7.490877509E-1,-8.545716286E0,1.982150316E0
2.484056146E0,-7.538787127E-1,-8.643931389E0,2.202534199E0
2.486531198E0,-7.538787127E-1,-8.780473709E0,2.391777039E0
2.489006198E0,-6.700369716E-1,-8.885874748E0,2.456454992E0
2.491481250E0,-6.484776735E-1,-8.964925766E0,2.549878597E0
2.493956250E0,-7.754380107E-1,-9.137399673E0,2.592997313E0
2.496431354E0,-8.041837811E-1,-9.362574577E0,2.530714750E0
2.498906354E0,-9.527034760E-1,-9.523071289E0,2.717561960E0
2.501381406E0,-1.110805035E0,-9.647636414E0,3.246962786E0
2.503856406E0,-1.261720181E0,-9.836879730E0,3.776363611E0
2.506331458E0,-1.381494045E0,-1.002612305E1,4.224317551E0
2.508795104E0,-1.513245344E0,-1.030160236E1,4.851933479E0
2.511270156E0,-1.721652031E0,-1.052198696E1,5.422057152E0
2.513745208E0,-1.977968216E0,-1.093400860E1,5.802938461E0
2.516220260E0,-2.150442600E0,-1.138675499E1,6.399412155E0
2.518695260E0,-2.471436739E0,-1.169816685E1,7.352812767E0
2.521170312E0,-2.670261621E0,-1.192094612E1,8.217580795E0
2.523645312E0,-2.837944984E0,-1.213653851E1,9.800992012E0
2.526120416E0,-3.309854269E0,-1.228984928E1,1.095082188E1
2.528595416E0,-3.463165045E0,-1.230901337E1,1.070408726E1
2.531070468E0,-3.022396803E0,-1.199760151E1,9.892020226E0
2.533545468E0,-2.471436739E0,-1.148975945E1,9.218891144E0
2.536020521E0,-2.121696949E0,-1.113762474E1,8.435568810E0
2.538483958E0,-1.898917437E0,-1.090286732E1,7.700157166E0
2.540959010E0,-1.740815878E0,-1.071841526E1,7.211479187E0
2.543434062E0,-1.580318809E0,-1.054594135E1,6.806643963E0
2.545909114E0,-1.216206074E0,-1.045251751E1,6.416180611E0
2.548384114E0,-6.221274137E-1,-1.019380569E1,5.941875935E0
2.550859166E0,-5.981726050E-1,-1.004768181E1,4.986079693E0
2.553334166E0,-3.346699774E-1,-9.733873367E0,4.899842739E0
2.555809218E0,-2.532236874E-1,-9.333829880E0,5.287910461E0
2.558284271E0,-9.431215525E-1,-8.955343246E0,5.331028938E0
2.560759323E0,-1.934849620E0,-8.936180115E0,4.533334732E0
2.563234323E0,-2.004318476E0,-8.902642250E0,3.929674387E0
2.565709375E0,-1.867776275E0,-8.833174706E0,2.894827604E0
2.568169427E0,-2.061810017E0,-8.756518364E0,2.312726259E0
2.570644479E0,-2.198352337E0,-8.713400841E0,2.010895967E0
2.573119531E0,-2.203143120E0,-8.715795517E0,1.663551569E0
2.575594583E0,-2.107324123E0,-8.660699844E0,1.416817307E0
2.578069583E0,-2.049832582E0,-8.591230392E0,1.246738315E0
2.580544635E0,-1.815075755E0,-8.576857567E0,1.071868300E0
2.583019635E0,-1.549177647E0,-8.536134720E0,9.520944357E-1
2.585494739E0,-1.352748394E0,-8.485829353E0,1.011981368E0
2.587969739E0,-1.022172332E0,-8.500202179E0,9.185577631E-1
2.590444791E0,-8.784435987E-1,-8.478643417E0,8.466933966E-1
2.592919791E0,-6.532686353E-1,-8.454689026E0,8.466933966E-1
2.595394843E0,-3.538337946E-1,-8.478643417E0,9.496989250E-1
2.597896198E0,-7.356280088E-2,-8.617580414E0,8.969984055E-1
2.600371250E0,1.180754900E-1,-8.684654236E0,8.898119926E-1
2.602846302E0,2.522222400E-1,-8.778079033E0,8.706481457E-1
2.605321302E0,4.606288671E-1,-8.912224770E0,7.820154428E-1
2.607796354E0,6.977812052E-1,-9.067930222E0,6.454731226E-1
2.610271406E0,8.151597977E-1,-9.154169083E0,5.879816413E-1
2.612746406E0,1.004402518E0,-9.317060471E0,2.837558985E-1
2.615221458E0,1.191249847E0,-9.496721268E0,-1.641986072E-1
2.617696510E0,1.519430399E0,-9.618890762E0,-5.714299083E-1
2.620171510E0,1.909893513E0,-9.824902534E0,-1.175090551E0
2.622646562E0,2.321915627E0,-1.010038280E1,-1.654186249E0
2.625121614E0,2.662073851E0,-1.021776104E1,-2.164423227E0
2.627556302E0,2.901621580E0,-1.024890137E1,-2.284197092E0
2.630031354E0,3.172310591E0,-1.029920673E1,-2.174005270E0
2.632506406E0,3.189079046E0,-1.023213387E1,-1.824265242E0
2.634981458E0,3.258547783E0,-1.003330898E1,-1.476920843E0
2.637456458E0,3.196265221E0,-9.800947189E0,-1.143949270E0
2.639931510E0,3.042954683E0,-9.511095047E0,-6.600626707E-1
2.642406562E0,2.836943388E0,-9.271546364E0,-2.432493865E-1
2.644881614E0,2.575836420E0,-9.132608414E0,1.807503253E-1
2.647356614E0,2.377011776E0,-9.005648613E0,5.855861902E-1
2.649831666E0,2.180582523E0,-8.840360641E0,8.275295496E-1
2.652306718E0,2.039249182E0,-8.711004257E0,1.095823169E0
2.654781718E0,1.861983776E0,-8.639141083E0,1.297043324E0
2.657241979E0,1.711068630E0,-8.564880371E0,1.582105279E0
2.659717031E0,1.624831438E0,-8.555298805E0,1.747393250E0
2.662192083E0,1.598481178E0,-8.481039047E0,1.761766195E0
2.664667135E0,1.564944506E0,-8.507389069E0,1.845607996E0
2.667142135E0,1.651181698E0,-8.447501183E0,1.915076733E0
2.669617187E0,1.703882217E0,-8.406778336E0,1.871958256E0
2.672092187E0,1.861983776E0,-8.418756485E0,2.037246227E0
2.674567291E0,1.948220968E0,-8.404383659E0,2.063596487E0
2.677042291E0,2.053622007E0,-8.378033638E0,2.003709555E0
2.679517343E0,2.084763288E0,-8.440315247E0,2.013291359E0
2.681992343E0,2.077576876E0,-8.488225937E0,2.001313925E0
2.684467396E0,2.223701000E0,-8.483434677E0,1.977359295E0
2.686940364E0,2.302752018E0,-8.481039047E0,1.951009035E0
2.689415364E0,2.333893061E0,-8.524157524E0,2.025268793E0
2.691890416E0,2.398571014E0,-8.514575958E0,2.034850836E0
2.694365468E0,2.458457947E0,-8.473853111E0,1.903099298E0
2.696840468E0,2.511158466E0,-8.536134720E0,1.761766195E0
2.699315573E0,2.549486160E0,-8.516970634E0,1.725834012E0
2.701790573E0,2.578232050E0,-8.514575958E0,1.778534412E0
2.704265625E0,2.547090769E0,-8.572066307E0,1.766557097E0
2.706740625E0,2.561463594E0,-8.643931389E0,1.752184272E0
2.709215677E0,2.566254377E0,-8.720586777E0,1.816862106E0
2.711690729E0,2.626141548E0,-8.787659645E0,1.814466715E0
2.714165781E0,2.695610285E0,-8.873897552E0,1.742602229E0
2.716620885E0,2.709983349E0,-9.020021439E0,1.692297220E0
2.719095937E0,2.772265673E0,-9.137399673E0,1.831234932E0
2.721570989E0,2.683633089E0,-9.297896385E0,1.879144430E0
2.724046041E0,2.683633089E0,-9.455998421E0,1.874353409E0
2.726521041E0,2.695610285E0,-9.621286392E0,2.058805466E0
2.728996093E0,2.733937979E0,-9.839274406E0,2.178579569E0
2.731471093E0,2.741124392E0,-9.927907944E0,2.283980608E0
2.733946198E0,2.741124392E0,-9.999773026E0,2.365426779E0
2.736421198E0,2.664469242E0,-1.013871002E1,2.612160921E0
2.738896198E0,2.590209246E0,-1.020338726E1,2.818172216E0
2.741371250E0,2.559067965E0,-1.020338726E1,2.935550451E0
2.743846302E0,2.501576424E0,-1.027525234E1,3.110420465E0
2.746329687E0,2.422525644E0,-1.035190773E1,3.287686110E0
2.748804687E0,2.297960997E0,-1.036148930E1,3.532024860E0
2.751279739E0,2.168605089E0,-1.029441547E1,3.790736437E0
2.753754791E0,2.044040203E0,-1.024650669E1,4.020702362E0
2.756229791E0,1.945825577E0,-1.025129795E1,4.197968006E0
2.758704843E0,1.823656321E0,-1.020099258E1,4.293787003E0
2.761179843E0,1.735023499E0,-1.018422318E1,4.511775494E0
2.763654948E0,1.663158894E0,-1.013871002E1,4.708204269E0
2.766129948E0,1.603272200E0,-1.007403183E1,4.966916084E0
2.768605000E0,1.521826029E0,-9.944676399E0,5.141786098E0
2.771080000E0,1.517035007E0,-9.858438492E0,5.251978397E0
2.773555052E0,1.545780659E0,-9.781784058E0,5.414870739E0
2.775998854E0,1.600876808E0,-9.731478691E0,5.469966888E0
2.778473906E0,1.596085787E0,-9.616496086E0,5.611299992E0
2.780948958E0,1.648786306E0,-9.525467873E0,5.673582077E0
2.783424010E0,1.749396324E0,-9.410484314E0,5.726282597E0
2.785899010E0,1.926661730E0,-9.317060471E0,5.755028725E0
2.788374062E0,1.938639164E0,-9.295501709E0,5.826892853E0
2.790849114E0,1.993735313E0,-9.252382278E0,5.841265678E0
2.793324166E0,2.113508940E0,-9.254778862E0,5.788565159E0
2.795799166E0,2.185373545E0,-9.288314819E0,5.893966198E0
2.798274218E0,2.341079473E0,-9.130213737E0,5.810124874E0
2.800749218E0,2.472830772E0,-9.020021439E0,5.759819984E0
2.803224271E0,2.532717705E0,-8.840360641E0,5.872407436E0
2.805701093E0,2.659678221E0,-8.634349823E0,5.872407436E0
2.808176093E0,2.762683630E0,-8.473853111E0,5.896361828E0
2.810651146E0,2.798615932E0,-8.346891403E0,5.798147202E0
2.813126198E0,2.856107473E0,-8.282213211E0,5.623277187E0
2.815601198E0,2.868084669E0,-8.260654449E0,5.460384846E0
2.818076250E0,2.824966192E0,-8.255863190E0,5.419661999E0
2.820551250E0,2.729146957E0,-8.219931602E0,5.208859444E0
2.823026354E0,2.683633089E0,-8.169626236E0,4.976498127E0
2.825501354E0,2.640514135E0,-8.167231560E0,4.887865067E0
2.827976406E0,2.578232050E0,-8.069016457E0,4.677063465E0
2.830451406E0,2.566254377E0,-7.934870243E0,4.559684753E0
2.832926458E0,2.556672573E0,-7.836655617E0,4.380023956E0
2.835378593E0,2.451271534E0,-7.736045837E0,4.162035465E0
2.837853646E0,2.312333822E0,-7.618667126E0,3.979978800E0
2.840328698E0,2.278796911E0,-7.482124805E0,3.836250544E0
2.842803750E0,2.178186893E0,-7.410260677E0,3.522442818E0
2.845278750E0,2.041644812E0,-7.314441204E0,3.385900497E0
2.847753802E0,1.883543253E0,-7.158735275E0,3.187075853E0
2.850228802E0,1.773351192E0,-7.072498322E0,2.988250971E0
2.852703906E0,1.713464260E0,-7.074893475E0,2.818172216E0
2.855178906E0,1.615249395E0,-7.048542976E0,2.710375547E0
2.857653958E0,1.572130919E0,-7.005424500E0,2.662466049E0
2.860129010E0,1.509848595E0,-7.036565781E0,2.691211700E0
2.862604010E0,1.433193207E0,-7.012610912E0,2.806194782E0
2.865076771E0,1.382888079E0,-7.031774521E0,2.854104280E0
2.867551771E0,1.246345878E0,-7.084475040E0,3.131979704E0
2.870026823E0,1.162504077E0,-7.165921688E0,3.405064583E0
2.872501875E0,1.025961876E0,-7.254554272E0,3.639821291E0
2.874976875E0,1.035543799E0,-7.379118919E0,3.982374430E0
2.877451927E0,9.205607176E-1,-7.477333546E0,4.401583195E0
2.879926927E0,8.726512194E-1,-7.611480713E0,4.729763985E0
2.882402031E0,7.888095379E-1,-7.762395859E0,5.175323009E0
2.884877031E0,7.624592781E-1,-7.822282791E0,5.398102283E0
2.887352083E0,6.426852942E-1,-7.858215332E0,5.644836903E0
2.889827083E0,5.732163191E-1,-7.903728962E0,5.896361828E0
2.892302135E0,5.061429739E-1,-7.925287724E0,5.956248760E0
2.894752916E0,4.438605309E-1,-7.906124592E0,6.133514404E0
2.897227968E0,4.103238583E-1,-7.831864834E0,6.195796967E0
2.899703021E0,4.079283476E-1,-7.793537140E0,6.231728554E0
2.902178073E0,3.504368067E-1,-7.752813816E0,6.226937771E0
2.904653073E0,3.815780878E-1,-7.690531731E0,6.032904148E0
2.907128125E0,4.079283476E-1,-7.580339432E0,5.870011806E0
2.909603125E0,4.414651394E-1,-7.477333546E0,5.618486404E0
2.912078229E0,5.205159187E-1,-7.319231987E0,5.381333828E0
2.914553229E0,5.995665789E-1,-7.232995033E0,5.103458405E0
2.917028281E0,7.241314650E-1,-7.089266300E0,4.655503750E0
2.919503281E0,7.552727461E-1,-7.036565781E0,4.363255978E0
2.921978333E0,8.343235254E-1,-6.928769112E0,4.109334946E0
2.924442031E0,9.253517389E-1,-6.811390400E0,3.651798725E0
2.926917083E0,9.828432798E-1,-6.763481140E0,3.342782021E0
2.929392135E0,1.069080472E0,-6.701198578E0,3.026578665E0
2.931867187E0,1.076266885E0,-6.725153446E0,2.849313259E0
2.934342187E0,1.203227282E0,-6.813786030E0,2.583415270E0
2.936817239E0,1.361328840E0,-6.902419090E0,2.300748825E0
2.939292239E0,1.471520662E0,-7.010215759E0,2.121088028E0
2.941767343E0,1.531407833E0,-7.163526058E0,1.979754686E0
2.944242343E0,1.629622459E0,-7.367141724E0,1.869562864E0
2.946717396E0,1.694300175E0,-7.680949688E0,1.840816975E0
2.949192396E0,1.701486826E0,-7.980384350E0,1.809675694E0
2.951667448E0,1.749396324E0,-8.253468513E0,1.761766195E0
2.954135260E0,1.742209911E0,-8.660699844E0,1.838421583E0
2.956610312E0,1.732628107E0,-9.108654976E0,1.828839540E0
2.959085364E0,1.651181698E0,-9.635659218E0,1.903099298E0
2.961560416E0,1.550571680E0,-1.026806545E1,1.876749039E0
2.964035416E0,1.552967072E0,-1.098910427E1,1.910285711E0
2.966510468E0,1.351746798E0,-1.177242661E1,1.979754686E0
2.968985468E0,1.069080472E0,-1.266114902E1,2.061201096E0
2.971460573E0,5.684254169E-1,-1.378702354E1,2.365426779E0
2.973935573E0,-2.565324306E-2,-1.520275211E1,2.511550903E0
2.976410625E0,-5.790087581E-1,-1.630227852E1,2.583415270E0
2.978885677E0,-1.086850166E0,-1.724609566E1,2.489991426E0
2.981360677E0,-1.982759118E0,-1.832885170E1,2.272002935E0
2.983825416E0,-3.151752710E0,-1.947868347E1,1.974963665E0
2.986300468E0,-4.287209511E0,-2.067642021E1,1.845607996E0
2.988775521E0,-5.046576023E0,-2.172803688E1,1.728229403E0
2.991250521E0,-5.525671959E0,-2.265987587E1,1.548568487E0
2.993725573E0,-5.846665859E0,-2.333779716E1,1.491077065E0
2.996200625E0,-5.956858158E0,-2.371388817E1,1.848003387E0
2.998675625E0,-5.978417397E0,-2.373305130E1,2.276793957E0
3.001150729E0,-5.916134834E0,-2.337372971E1,2.499573469E0
3.003625729E0,-5.736474037E0,-2.275809288E1,2.655279636E0
3.006100781E0,-5.583163738E0,-2.202268028E1,2.681630135E0
3.008575781E0,-5.355593204E0,-2.123696327E1,2.461245775E0
3.011050833E0,-5.022621632E0,-2.037698746E1,2.238466263E0
3.013513698E0,-4.615389824E0,-1.959366417E1,1.833630562E0
3.015988750E0,-4.306373596E0,-1.885106659E1,1.503054500E0
3.018463802E0,-4.009334087E0,-1.818751907E1,1.194037795E0
3.020938854E0,-3.724272013E0,-1.754792595E1,9.784446955E-1
3.023413854E0,-3.357763767E0,-1.682688713E1,7.868063450E-1
3.025888906E0,-2.909809351E0,-1.611782646E1,5.328856707E-1
3.028363906E0,-2.528928280E0,-1.552853680E1,1.687729210E-1
3.030839010E0,-2.277402878E0,-1.497757626E1,-2.839725316E-1
3.033314010E0,-1.903708339E0,-1.450327206E1,-7.582772374E-1
3.035789010E0,-1.625832796E0,-1.404573536E1,-1.311632752E0
3.038264062E0,-1.280884027E0,-1.354987144E1,-1.761982679E0
3.040739114E0,-8.784435987E-1,-1.309712601E1,-2.140468359E0
3.043201302E0,-4.688167572E-1,-1.268989468E1,-2.451880455E0
3.045675625E0,2.225631475E-2,-1.241681004E1,-2.916603565E0
3.048149896E0,4.965611696E-1,-1.210779381E1,-3.501100302E0
3.050624218E0,6.977812052E-1,-1.169097996E1,-3.795743942E0
3.053098489E0,5.804028511E-1,-1.132926273E1,-3.618478537E0
3.055572812E0,7.217359543E-1,-1.091244984E1,-3.364557981E0
3.058047083E0,1.157713056E0,-1.053635979E1,-3.398094416E0
3.060521406E0,1.148131251E0,-1.017703724E1,-3.364557981E0
3.062995677E0,1.030752778E0,-9.911139488E0,-3.189687967E0
3.065470000E0,1.078662395E0,-9.657218933E0,-3.079495907E0
3.067944218E0,1.073871374E0,-9.331433296E0,-2.952535391E0
3.070418593E0,1.037939191E0,-9.115840912E0,-2.753710985E0
3.072927239E0,9.469109774E-1,-8.883480072E0,-2.329711199E0
3.075401614E0,1.179272532E0,-8.708609581E0,-1.867383838E0
3.077875833E0,1.562548876E0,-8.562484741E0,-1.845824480E0
3.080350156E0,1.802096844E0,-8.459479332E0,-1.951225638E0
3.082824427E0,1.873961210E0,-8.358869553E0,-1.910502434E0
3.085298750E0,1.900311470E0,-8.303773880E0,-1.747609854E0
3.087773021E0,1.909893513E0,-8.222327232E0,-1.601485729E0
3.090247291E0,1.902707100E0,-8.172021866E0,-1.575135469E0
3.092721614E0,1.845215559E0,-8.136090279E0,-1.539203286E0
3.095195885E0,1.651181698E0,-8.150463104E0,-1.460152507E0
3.097670208E0,1.591294765E0,-7.944451809E0,-1.438593149E0
3.100144531E0,3.294480085E0,-6.629334450E0,-7.367179394E-1
3.102615260E0,4.355677128E0,-6.545492649E0,-2.695996463E-1
3.105089635E0,4.209552765E0,-7.518057346E0,-1.036152720E0
3.107563854E0,3.924490929E0,-7.843842030E0,-5.043565631E-1
3.110038177E0,3.783157349E0,-7.846237659E0,-3.963372111E-2
3.112512448E0,3.629847050E0,-7.944451809E0,1.735638827E-1
3.114986771E0,3.431022167E0,-8.069016457E0,1.352362186E-1
3.117461093E0,2.980672121E0,-8.399592400E0,-7.317042351E-2
3.119935364E0,3.320830345E0,-8.579253197E0,-4.109328985E-1
3.122409635E0,3.869394779E0,-8.572066307E0,-5.618480444E-1
3.124883958E0,4.276626110E0,-8.552903175E0,-6.888083816E-1
3.127358229E0,4.801236153E0,-8.401988029E0,-7.534862757E-1
3.129832552E0,5.071925163E0,-8.267841339E0,-4.444695711E-1
3.132271406E0,5.299495697E0,-8.116926193E0,-6.119303405E-2
3.134745729E0,5.421665192E0,-7.949243069E0,5.139447749E-2
3.137220000E0,5.428851604E0,-7.795932770E0,2.334508449E-1
3.139694271E0,5.469574451E0,-7.707299709E0,4.394620061E-1
3.142168593E0,5.555811405E0,-7.618667126E0,4.634167552E-1
3.144642916E0,5.486342907E0,-7.575548649E0,6.263093352E-1
3.147117187E0,5.486342907E0,-7.489311218E0,7.221284509E-1
3.149591510E0,5.366569042E0,-7.448587894E0,8.107610941E-1
3.152065781E0,5.177326202E0,-7.441401482E0,8.993939161E-1
3.154540052E0,4.973710537E0,-7.415050983E0,8.251340389E-1
3.157014323E0,4.731767178E0,-7.434215069E0,9.185577631E-1
3.159488698E0,4.475450993E0,-7.479729176E0,1.071868300E0
3.161961093E0,4.204761982E0,-7.594712257E0,1.119777918E0
3.164435416E0,3.859813213E0,-7.676158428E0,1.253924608E0
3.166909687E0,3.517259598E0,-7.795932770E0,1.428794622E0
3.169384010E0,3.148355722E0,-7.853424072E0,1.699483633E0
3.171858281E0,2.717169762E0,-7.879774570E0,1.915076733E0
3.174332604E0,2.283587933E0,-7.879774570E0,2.111505985E0
3.176806875E0,1.893125057E0,-7.870192051E0,2.283980608E0
3.179281198E0,1.526616812E0,-7.925287724E0,2.355844736E0
3.181755468E0,1.231972933E0,-7.930078983E0,2.413336277E0
3.184229791E0,9.612839222E-1,-7.939661503E0,2.461245775E0
3.186704010E0,6.331033707E-1,-7.951638699E0,2.576228857E0
3.189178385E0,3.576233387E-1,-8.009129524E0,2.588206291E0
3.191656354E0,1.084935665E-1,-8.119321823E0,2.585810661E0
3.194130677E0,-2.292689085E-1,-8.255863190E0,2.652884245E0
3.196604948E0,-4.113253057E-1,-8.315751076E0,2.581019878E0
3.199079271E0,-6.053590775E-1,-8.332519531E0,2.571437836E0
3.201553541E0,-8.233475685E-1,-8.373242378E0,2.482805252E0
3.204027864E0,-1.074872851E0,-8.478643417E0,2.571437836E0
3.206502083E0,-1.362330198E0,-8.478643417E0,2.497178078E0
3.208976458E0,-1.644996643E0,-8.512179375E0,2.585810661E0
3.211450729E0,-1.908499360E0,-8.540925980E0,2.631324768E0
3.213925000E0,-2.090555668E0,-8.538530350E0,2.566647053E0
3.216399271E0,-2.241470814E0,-8.555298805E0,2.592997313E0
3.218873593E0,-2.344476461E0,-8.545716286E0,2.501969099E0
3.221374010E0,-2.502578020E0,-8.536134720E0,2.542691946E0
3.223848385E0,-2.624747276E0,-8.528948784E0,2.578624249E0
3.226322656E0,-2.677448034E0,-8.531343460E0,2.573833227E0
3.228796927E0,-2.794826508E0,-8.579253197E0,2.607369900E0
3.231271250E0,-2.869086266E0,-8.569671631E0,2.602579117E0
3.233745521E0,-2.912204742E0,-8.596021652E0,2.525923729E0
3.236219791E0,-3.003232956E0,-8.607999802E0,2.518737316E0
3.238694114E0,-3.015210629E0,-8.636744499E0,2.382194996E0
3.241168385E0,-2.967300653E0,-8.651117325E0,2.343867540E0
3.243642708E0,-2.849922419E0,-8.639141083E0,2.212116003E0
3.246116979E0,-2.794826508E0,-8.584044456E0,2.101923943E0
3.248591302E0,-2.763685226E0,-8.509784698E0,1.915076733E0
3.251028593E0,-2.629538536E0,-8.449897766E0,1.754579782E0
3.253502916E0,-2.418736219E0,-8.339705467E0,1.560545921E0
3.255977187E0,-2.265425682E0,-8.267841339E0,1.390467048E0
3.258451510E0,-2.097742081E0,-8.205558777E0,1.253924608E0
3.260925833E0,-1.841426015E0,-8.121717453E0,1.134150743E0
3.263400104E0,-1.647392273E0,-8.009129524E0,1.050309062E0
3.265874375E0,-1.448567510E0,-7.886960506E0,1.019167781E0
3.268348646E0,-1.259324670E0,-7.829469204E0,1.047913551E0
3.270822968E0,-1.029358745E0,-7.736045837E0,8.898119926E-1
3.273297291E0,-8.760480881E-1,-7.668972015E0,9.449080229E-1
3.275771510E0,-7.682515979E-1,-7.582734585E0,8.969984055E-1
3.278245885E0,-6.365002394E-1,-7.537220478E0,8.658571243E-1
3.280718229E0,-4.328845739E-1,-7.419842243E0,8.299250603E-1
3.283192552E0,-2.723875344E-1,-7.290486813E0,8.490887880E-1
3.285666823E0,-1.166814566E-1,-7.194667339E0,9.065802097E-1
3.288141146E0,1.037026048E-1,-7.149153233E0,8.562753201E-1
3.290615416E0,3.336685300E-1,-7.106034756E0,7.987837791E-1
3.293089739E0,4.869791269E-1,-7.103639126E0,8.706481457E-1
3.295564010E0,6.402897835E-1,-7.115616798E0,7.772244215E-1
3.298038333E0,8.199505806E-1,-7.144361973E0,7.987837791E-1
3.300512604E0,1.081057906E0,-7.177899361E0,7.221284509E-1
3.302986927E0,1.255927682E0,-7.276113510E0,7.556651235E-1
3.305461146E0,1.505057573E0,-7.400678635E0,7.939928770E-1
3.307935521E0,1.744605541E0,-7.563570976E0,8.299250603E-1
3.310441562E0,2.027271748E0,-7.748023033E0,8.946028948E-1
3.312915937E0,2.403362036E0,-7.968407154E0,9.161622524E-1
3.315390156E0,2.793824911E0,-8.246282578E0,9.113712311E-1
3.317864479E0,3.296875477E0,-8.521761894E0,8.179476261E-1
3.320338802E0,3.732852459E0,-8.768496513E0,7.532697320E-1
3.322813073E0,4.338908672E0,-9.094281197E0,7.293148637E-1
3.325287343E0,4.887473106E0,-9.307478905E0,8.347159624E-1
3.327761666E0,5.428851604E0,-9.499117851E0,9.161622524E-1
3.330235937E0,5.795359612E0,-9.733873367E0,1.081450224E0
3.332710260E0,6.099585533E0,-1.000456333E1,1.268297553E0
3.335184531E0,6.377460957E0,-1.024411106E1,1.498263478E0
3.337658854E0,6.779901028E0,-1.045251751E1,1.812071085E0
3.340130937E0,7.124849796E0,-1.054594135E1,2.080364704E0
3.342605260E0,7.311697483E0,-1.068966961E1,2.339076519E0
3.345079479E0,7.424284935E0,-1.079027939E1,2.628929377E0
3.347553802E0,7.606341362E0,-1.093879986E1,2.832545042E0
3.350028073E0,7.637482643E0,-1.098910427E1,2.995437622E0
3.352502396E0,7.618318558E0,-1.097473145E1,3.100838423E0
3.354976666E0,7.627900124E0,-1.094598675E1,3.244567156E0
3.357450989E0,7.488963127E0,-1.087412167E1,3.366736650E0
3.359925260E0,7.287742615E0,-1.073039341E1,3.462555885E0
3.362399583E0,6.993099213E0,-1.045730877E1,3.553584099E0
3.364873854E0,6.710432529E0,-1.023931980E1,3.618262053E0
3.367348177E0,6.379856586E0,-9.980608940E0,3.699708223E0
3.369820312E0,6.061257362E0,-9.757828712E0,3.656589746E0
3.372294687E0,5.630071640E0,-9.563795090E0,3.627844095E0
3.374768958E0,5.419269562E0,-9.367365837E0,3.510465622E0
3.377243229E0,5.325846195E0,-9.067930222E0,3.443392038E0
3.379717500E0,5.433642387E0,-8.744542122E0,3.491301537E0
3.382191823E0,5.769009590E0,-8.411569595E0,3.536815882E0
3.384666146E0,6.051675797E0,-7.994757175E0,3.953629255E0
3.387140364E0,5.160558224E0,-7.961220264E0,4.466261387E0
3.389614687E0,4.439518452E0,-8.239095688E0,4.001538277E0
3.392089010E0,4.652716637E0,-8.088180542E0,3.623053074E0
3.394563281E0,5.215653896E0,-7.771977425E0,3.369132280E0
3.397037604E0,5.721099377E0,-7.549198151E0,3.076883793E0
3.399475364E0,5.783381939E0,-7.482124805E0,3.002624035E0
3.401949687E0,5.639653683E0,-7.534825325E0,3.021787882E0
3.404423958E0,5.486342907E0,-7.589920998E0,3.048137903E0
3.406898281E0,5.237213135E0,-7.654599190E0,3.227798939E0
3.409372604E0,5.002456188E0,-7.707299709E0,3.337990999E0
3.411846875E0,4.770094872E0,-7.937265873E0,3.405064583E0
3.414321146E0,4.602411270E0,-8.143276215E0,3.455369473E0
3.416795468E0,4.501801014E0,-8.337309837E0,3.479324341E0
3.419269739E0,4.290998936E0,-8.533740044E0,3.555979490E0
3.421744062E0,4.123315334E0,-8.751728058E0,3.474533319E0
3.424218333E0,3.998750687E0,-8.993671417E0,3.349968433E0
3.426692656E0,3.895744801E0,-9.223637581E0,3.326013565E0
3.429165260E0,3.740038872E0,-9.386529922E0,3.258940220E0
3.431639583E0,3.646615505E0,-9.599727631E0,3.148748159E0
3.434113854E0,3.536423683E0,-9.731478691E0,3.112816095E0
3.436588177E0,3.442999840E0,-9.791365623E0,3.148748159E0
3.439062448E0,3.320830345E0,-9.796156883E0,3.069697618E0
3.441536718E0,3.270525217E0,-9.875207901E0,3.050533533E0
3.444011041E0,3.093259811E0,-9.872811317E0,3.016996861E0
3.446485364E0,3.071700573E0,-9.868021011E0,2.909200191E0
3.448959635E0,2.992649794E0,-9.877602577E0,2.878058910E0
3.451433906E0,2.884853125E0,-9.769806862E0,2.727144003E0
3.453908177E0,2.853712082E0,-9.659614563E0,2.638511181E0
3.456382500E0,2.870480299E0,-9.489535332E0,2.590601683E0
3.458881146E0,2.848921061E0,-9.420066833E0,2.444477558E0
3.461355468E0,2.868084669E0,-9.338619232E0,2.245652676E0
3.463829739E0,2.882457733E0,-9.278733253E0,2.116297007E0
3.466304010E0,2.913599014E0,-9.293106079E0,1.903099298E0
3.468778333E0,2.894434929E0,-9.357783318E0,1.814466715E0
3.471252604E0,2.918389797E0,-9.487139702E0,1.768952608E0
3.473726927E0,3.004626989E0,-9.587749481E0,1.670737982E0
3.476201250E0,3.078886986E0,-9.865625381E0,1.577314258E0
3.478675521E0,3.172310591E0,-1.015787411E1,1.598873615E0
3.481149791E0,3.308852673E0,-1.051719570E1,1.483890653E0
3.483624114E0,3.454977036E0,-1.093640423E1,1.486286163E0
3.486098437E0,3.555586815E0,-1.139394093E1,1.522218227E0
3.488546198E0,3.768784523E0,-1.193531895E1,1.491077065E0
3.491020468E0,3.912513256E0,-1.247430134E1,1.407235265E0
3.493494791E0,3.979587078E0,-1.305879879E1,1.443167567E0
3.495969062E0,3.991563797E0,-1.362413120E1,1.467122316E0
3.498443385E0,3.953236580E0,-1.427330589E1,1.383280516E0
3.500917708E0,3.855021954E0,-1.502548599E1,1.340161920E0
3.503391979E0,3.704106808E0,-1.561237907E1,1.160501003E0
3.505866250E0,3.502886295E0,-1.617292213E1,9.736537933E-1
3.508340573E0,3.100446224E0,-1.672867203E1,8.442978859E-1
3.510814843E0,2.539904356E0,-1.714069366E1,7.317103744E-1
3.513289114E0,1.919475317E0,-1.745450211E1,6.814053059E-1
3.515763437E0,1.224786520E0,-1.755511284E1,5.304902196E-1
3.518235208E0,5.971710682E-1,-1.751438904E1,3.580157161E-1
3.520709479E0,5.487978458E-3,-1.727963257E1,7.534925640E-2
3.523183802E0,-6.293138266E-1,-1.681011772E1,-1.570121646E-1
3.525658125E0,-1.091641188E0,-1.618489838E1,-3.965600133E-1
3.528132396E0,-1.472522259E0,-1.535366631E1,-5.881983042E-1
3.530606666E0,-1.733629346E0,-1.443380260E1,-6.648536325E-1
3.533080937E0,-1.874962687E0,-1.353549862E1,-7.726501226E-1
3.535555260E0,-1.977968216E0,-1.267312622E1,-7.990004420E-1
3.538029531E0,-2.068996429E0,-1.188980484E1,-6.456897855E-1
3.540503854E0,-2.183979511E0,-1.116158009E1,-4.804017544E-1
3.542978125E0,-2.136069775E0,-1.046928596E1,-4.804017544E-1
3.545452448E0,-2.164815426E0,-9.762619972E0,-3.270911276E-1
3.547950781E0,-2.234284401E0,-9.185309410E0,-8.035685122E-2
3.550425104E0,-2.071392059E0,-8.670281410E0,7.774470747E-2
3.552899375E0,-2.073787212E0,-8.207954407E0,3.436428905E-1
3.555373646E0,-2.052227974E0,-7.764791012E0,5.688178539E-1
3.557847968E0,-2.071392059E0,-7.403074265E0,7.580606341E-1
3.560322291E0,-2.071392059E0,-7.062916279E0,1.031145096E0
3.562796562E0,-2.085764885E0,-6.715571404E0,1.234760880E0
3.565270885E0,-1.920476794E0,-6.452069283E0,1.361721277E0
3.567745156E0,-1.930058599E0,-6.178984642E0,1.586896300E0
3.570219479E0,-1.942036033E0,-5.934645653E0,1.824048758E0
3.572693698E0,-1.889335513E0,-5.711865902E0,2.188161373E0
3.575168073E0,-1.783934474E0,-5.534600735E0,2.358240366E0
3.577609375E0,-1.594691753E0,-5.340567112E0,2.367822170E0
3.580083698E0,-1.613855481E0,-5.223188400E0,2.614556551E0
3.582557968E0,-1.575527906E0,-5.122578621E0,2.832545042E0
3.585032291E0,-1.462940454E0,-5.101018906E0,2.940341473E0
3.587506562E0,-1.338375449E0,-5.019572735E0,3.122397900E0
3.589980885E0,-1.156319141E0,-4.945312977E0,3.167912006E0
3.592455156E0,-9.431215525E-1,-4.971662998E0,3.345177412E0
3.594929479E0,-7.826244831E-1,-5.033945560E0,3.520047188E0
3.597403750E0,-6.125454903E-1,-5.124974251E0,3.682940006E0
3.599878073E0,-3.729976416E-1,-5.256725311E0,3.857809782E0
3.602352291E0,-1.550090909E-1,-5.371707916E0,4.030284405E0
3.604826666E0,-6.489455700E-3,-5.527414322E0,4.085380077E0
3.607335312E0,6.970167160E-4,-5.764566422E0,4.339300632E0
3.609809687E0,-4.481709003E-2,-6.068792820E0,4.581244469E0
3.612283958E0,1.746535301E-2,-6.406555176E0,4.662690163E0
3.614758229E0,-4.002612829E-2,-6.811390400E0,4.849537849E0
3.617232500E0,-2.029186785E-1,-7.180294514E0,5.031594276E0
3.619706823E0,-2.987377942E-1,-7.479729176E0,5.139390945E0
3.622181093E0,-3.538337946E-1,-7.851028442E0,5.218441486E0
3.624655416E0,-4.376755357E-1,-8.229514122E0,5.323842049E0
3.627129687E0,-5.430766344E-1,-8.643931389E0,5.431638718E0
3.629604010E0,-6.293138266E-1,-9.029603958E0,5.486734867E0
3.632078281E0,-7.371103764E-1,-9.475162506E0,5.589740753E0
3.634552604E0,-7.898108959E-1,-9.911139488E0,5.752633095E0
3.636986771E0,-7.610651255E-1,-1.033753490E1,5.860429764E0
3.639461093E0,-5.742177963E-1,-1.076872063E1,6.068836212E0
3.641935364E0,-4.831896424E-1,-1.115439224E1,6.186214924E0
3.644409687E0,-4.807941616E-1,-1.161911583E1,6.202983379E0
3.646883958E0,-4.855851233E-1,-1.204551029E1,6.176632881E0
3.649358281E0,-5.334947109E-1,-1.245992851E1,5.917921066E0
3.651832552E0,-5.550540090E-1,-1.280966854E1,5.549017429E0
3.654306875E0,-7.179465294E-1,-1.302286530E1,5.441220760E0
3.656781146E0,-8.832345605E-1,-1.331271839E1,5.048362255E0
3.659255416E0,-7.419013381E-1,-1.363610840E1,4.265040874E0
3.661729687E0,-5.382856727E-1,-1.382056046E1,3.623053074E0
3.664204062E0,-6.844098568E-1,-1.406489944E1,3.127188921E0
3.666678281E0,-1.086850166E0,-1.430205154E1,2.880454540E0
3.669152604E0,-1.264115572E0,-1.442901134E1,2.614556551E0
3.671626875E0,-1.561154962E0,-1.451285362E1,2.188161373E0
3.674101198E0,-1.733629346E0,-1.453441238E1,1.630014777E0
3.676575468E0,-1.882149100E0,-1.440745258E1,1.273088574E0
3.679049791E0,-2.076182842E0,-1.420623302E1,1.301834226E0
3.681524062E0,-2.291775942E0,-1.405531788E1,1.467122316E0
3.683998385E0,-2.483414173E0,-1.383493328E1,1.541382194E0
3.686472656E0,-2.670261621E0,-1.348040295E1,1.562941432E0
3.688946979E0,-2.694216251E0,-1.301807499E1,1.378489494E0
3.691421198E0,-2.718171120E0,-1.263000774E1,1.239551783E0
3.693895573E0,-2.751707792E0,-1.221798611E1,1.170082927E0
3.696368385E0,-2.739730358E0,-1.171972561E1,1.069472909E0
3.698842708E0,-2.713380098E0,-1.129093456E1,1.126964450E0
3.701316979E0,-2.835549593E0,-1.091244984E1,1.459935904E0
3.703791302E0,-2.955323458E0,-1.057708263E1,2.233675480E0
3.706265573E0,-2.873877287E0,-1.023452854E1,2.825358629E0
3.708739843E0,-2.619956493E0,-1.001654053E1,3.076883793E0
3.711214166E0,-2.382804155E0,-9.731478691E0,3.165516615E0
3.713688489E0,-2.227097988E0,-9.369761467E0,3.091256857E0
3.716162760E0,-1.980363727E0,-9.017625809E0,2.937946081E0
3.718637083E0,-1.767166138E0,-8.734959602E0,2.978669167E0
3.721111302E0,-1.597087145E0,-8.493016243E0,3.005019426E0
3.723585677E0,-1.405448914E0,-8.267841339E0,3.019392252E0
3.726093021E0,-1.352748394E0,-8.100157738E0,3.141561747E0
3.728567396E0,-1.276093006E0,-7.954034328E0,3.529629230E0
3.731041666E0,-1.297652245E0,-7.958825588E0,4.298577785E0
3.733515937E0,-1.510849953E0,-8.023502350E0,5.457989216E0
3.735990260E0,-1.412635326E0,-7.966011524E0,5.814915657E0
3.738464531E0,-9.503079653E-1,-7.690531731E0,5.628068447E0
3.740938802E0,-5.718223453E-1,-7.429424286E0,5.170531750E0
3.743413125E0,-3.682066798E-1,-7.321627617E0,5.041175842E0
3.745887396E0,-2.819694579E-1,-7.302463531E0,5.120226860E0
3.748361718E0,-2.005231678E-1,-7.364746094E0,5.168136120E0
3.750835989E0,-1.454271674E-1,-7.563570976E0,5.180113792E0
3.753310312E0,-1.286588311E-1,-7.839051247E0,5.283119202E0
3.755770521E0,-1.166814566E-1,-8.095366478E0,5.074712753E0
3.758244843E0,-6.158542633E-2,-8.308564186E0,4.921402454E0
3.760719166E0,8.214330673E-2,-8.548112869E0,4.665085793E0
3.763193437E0,2.330584526E-1,-8.814010620E0,4.303368568E0
3.765667760E0,3.719961643E-1,-8.991275787E0,4.018306732E0
3.768142031E0,6.235214472E-1,-9.111049652E0,3.587120771E0
3.770616302E0,7.959958315E-1,-9.329038620E0,3.203844309E0
3.773090625E0,9.037923813E-1,-9.467975616E0,2.976273775E0
3.775564896E0,1.193645358E0,-9.582958221E0,2.672048092E0
3.778039218E0,1.351746798E0,-9.717105865E0,2.427709341E0
3.780513437E0,1.346956015E0,-9.776992798E0,2.197743177E0
3.782987812E0,1.342164993E0,-9.772201538E0,2.185765743E0
3.785433593E0,1.346956015E0,-9.803342819E0,2.013291359E0
3.787907916E0,1.339769602E0,-9.901557922E0,1.685110807E0
3.790382187E0,1.337373972E0,-9.803342819E0,1.364116788E0
3.792856510E0,1.272696137E0,-9.693150520E0,1.244342804E0
3.795330781E0,1.318210244E0,-9.647636414E0,9.425125122E-1
3.797805052E0,1.411633968E0,-9.556608200E0,5.688178539E-1
3.800279375E0,1.617645025E0,-9.422461510E0,8.275851607E-3
3.802753698E0,1.854797602E0,-9.352993011E0,-8.780511618E-1
3.805227968E0,2.206932783E0,-9.352993011E0,-2.039858341E0
3.807702291E0,2.535113335E0,-9.295501709E0,-3.290297985E0
3.810176562E0,2.508763075E0,-9.305083275E0,-4.035292149E0
3.812650885E0,2.436898708E0,-9.319457054E0,-4.131111145E0
3.815122864E0,2.288378954E0,-9.305083275E0,-3.714297771E0
3.817597187E0,2.156627655E0,-9.168541908E0,-3.115428209E0
3.820071458E0,2.053622007E0,-8.981693268E0,-2.554886341E0
3.822545781E0,1.859588146E0,-8.778079033E0,-1.893734097E0
3.825020052E0,1.684718609E0,-8.629558563E0,-1.112808108E0
3.827494375E0,1.500266552E0,-8.409174919E0,-4.372831583E-1
3.829968646E0,1.349351406E0,-8.210350037E0,4.181255400E-2
3.832442968E0,1.140944719E0,-8.023502350E0,6.454731226E-1
3.834917239E0,1.042730093E0,-7.855819702E0,8.323205709E-1
3.837391562E0,9.948205948E-1,-7.733650208E0,1.134150743E0
3.839865833E0,9.277472496E-1,-7.654599190E0,1.376094103E0
3.842340156E0,8.534873724E-1,-7.551593781E0,1.459935904E0
3.844850468E0,8.798376322E-1,-7.489311218E0,1.493472576E0
3.847324791E0,8.702557087E-1,-7.343187332E0,1.567732334E0
3.849799010E0,8.486963511E-1,-7.302463531E0,1.586896300E0
3.852273333E0,9.277472496E-1,-7.252158642E0,1.567732334E0
3.854747604E0,9.804477692E-1,-7.230599403E0,1.658760548E0
3.857221927E0,1.018775344E0,-7.273718357E0,1.553359509E0
3.859696198E0,1.133758307E0,-7.295277596E0,1.598873615E0
3.862170521E0,1.217600107E0,-7.297673225E0,1.646783113E0
3.864644843E0,1.231972933E0,-7.321627617E0,1.579709768E0
3.867119114E0,1.270300627E0,-7.352768898E0,1.622828364E0
3.869593385E0,1.315814734E0,-7.424633026E0,1.608455539E0
3.872067708E0,1.332583070E0,-7.458169937E0,1.543777585E0
3.874539479E0,1.354142427E0,-7.589920998E0,1.582105279E0
3.877013854E0,1.366119623E0,-7.645017147E0,1.527009249E0
3.879488073E0,1.277487159E0,-7.745627403E0,1.500658989E0
3.881962396E0,1.196040750E0,-7.889356136E0,1.481495142E0
3.884436666E0,1.227182031E0,-7.985174656E0,1.486286163E0
3.886910989E0,1.215204597E0,-8.126507759E0,1.476704121E0
3.889385260E0,1.121780992E0,-8.143276215E0,1.488681674E0
3.891859583E0,1.093035221E0,-8.310959816E0,1.594082594E0
3.894333854E0,9.852387905E-1,-8.401988029E0,1.646783113E0
3.896808177E0,8.343235254E-1,-8.459479332E0,1.780930042E0
3.899282448E0,7.385044098E-1,-8.562484741E0,1.979754686E0
3.901756771E0,6.139395237E-1,-8.641535759E0,2.118692636E0
3.904194635E0,4.917701483E-1,-8.699028015E0,2.298353195E0
3.906668958E0,3.767870665E-1,-8.761309624E0,2.470827818E0
3.909143281E0,3.384594917E-1,-8.778079033E0,2.588206291E0
3.911617500E0,2.522222400E-1,-8.840360641E0,2.760680676E0
3.914091823E0,2.067081928E-1,-8.943367004E0,2.961900711E0
3.916566146E0,2.330584526E-1,-8.993671417E0,3.026578665E0
3.919040416E0,2.857589722E-1,-9.113445282E0,3.146352768E0
3.921514739E0,2.905499339E-1,-9.170936584E0,3.189471245E0
3.923989010E0,3.696007729E-1,-9.285919189E0,3.246962786E0
3.926463333E0,5.109339952E-1,-9.446416855E0,3.299663305E0
3.928937552E0,5.851937532E-1,-9.609309196E0,3.282895088E0
3.931411927E0,6.690354347E-1,-9.729083061E0,3.318827152E0
3.933918437E0,8.175551891E-1,-9.824902534E0,3.314036369E0
3.936392812E0,9.612839222E-1,-9.997376442E0,3.304454327E0
3.938867031E0,1.128967404E0,-1.010756874E1,3.239776373E0
3.941341354E0,1.239159346E0,-1.020338726E1,3.165516615E0
3.943815625E0,1.303837419E0,-1.027525234E1,3.189471245E0
3.946289948E0,1.512243986E0,-1.038065338E1,3.115211487E0
3.948764218E0,1.677531958E0,-1.040939903E1,3.031369686E0
3.951238541E0,1.816469669E0,-1.049563694E1,3.088861227E0
3.953712812E0,2.010503531E0,-1.051959038E1,3.151143789E0
3.956187135E0,2.204537153E0,-1.051240444E1,3.246962786E0
3.958661406E0,2.362638712E0,-1.049803162E1,3.412250757E0
3.961135729E0,2.585418224E0,-1.046928596E1,3.488906384E0
3.963570937E0,2.796220541E0,-1.045491219E1,3.639821291E0
3.966045260E0,2.939949274E0,-1.041179466E1,3.752408743E0
3.968519583E0,3.064513922E0,-1.031118488E1,4.032679558E0
3.970993802E0,3.198660851E0,-1.022973728E1,4.209944725E0
3.973468177E0,3.275316238E0,-1.007882309E1,4.466261387E0
3.975942448E0,3.215429306E0,-9.889580727E0,4.796837330E0
3.978416718E0,3.236988544E0,-9.685964584E0,5.069921970E0
3.980891041E0,3.318434715E0,-9.465580940E0,5.256769180E0
3.983365312E0,3.337598324E0,-9.187705040E0,5.474757671E0
3.985839635E0,3.284898043E0,-8.770891190E0,5.680768967E0
3.988313854E0,3.301666498E0,-8.351682663E0,5.738260269E0
3.990788229E0,3.270525217E0,-7.937265873E0,5.790960789E0
3.993273125E0,3.246570587E0,-7.527638435E0,5.740655899E0
3.995747396E0,3.220220327E0,-7.137175560E0,5.673582077E0
3.998221718E0,3.150751352E0,-6.794622421E0,5.584949970E0
4.000696041E0,3.141169310E0,-6.452069283E0,5.378938198E0
4.003170312E0,3.112423420E0,-6.097537994E0,5.199277878E0
4.005644635E0,3.047745705E0,-5.747797966E0,4.933379173E0
4.008118854E0,2.899225950E0,-5.424408436E0,4.559684753E0
4.010593177E0,2.686028481E0,-5.165697098E0,4.298577785E0
4.013067448E0,2.515949488E0,-4.988431454E0,3.972792864E0
4.015541771E0,2.317124844E0,-4.878239632E0,3.651798725E0
4.018016093E0,2.151836634E0,-4.801584244E0,3.505674601E0
4.020490364E0,2.010503531E0,-4.851889133E0,3.304454327E0
4.022985937E0,1.809283257E0,-4.971662998E0,3.285290480E0
4.025460260E0,1.598481178E0,-5.182465553E0,3.357154846E0
4.027934583E0,1.394865513E0,-5.477108955E0,3.601493597E0
4.030408854E0,1.152922273E0,-5.690306664E0,3.805109262E0
4.032883125E0,1.049916625E0,-5.917877197E0,4.099752903E0
4.035357448E0,1.018775344E0,-6.171798229E0,4.396792412E0
4.037831718E0,9.421200752E-1,-6.449673653E0,4.566871166E0
4.040306041E0,9.109789133E-1,-6.672452927E0,4.847142220E0
4.042780312E0,9.493064880E-1,-6.880859852E0,4.962125301E0
4.045254635E0,8.031823635E-1,-7.079684258E0,5.177718163E0
4.047728906E0,7.289224863E-1,-7.266531467E0,5.438825130E0
4.050203229E0,7.241314650E-1,-7.455774784E0,5.649627686E0
4.052641406E0,7.456908226E-1,-7.510870457E0,5.690351009E0
4.055115521E0,7.313179970E-1,-7.565966606E0,5.858034134E0
4.057589687E0,7.241314650E-1,-7.690531731E0,5.917921066E0
4.060063854E0,7.600637674E-1,-7.776768684E0,5.925107956E0
4.062538021E0,7.361088991E-1,-7.865400791E0,5.884384155E0
4.065012135E0,8.343235254E-1,-7.927683353E0,5.831683636E0
4.067486302E0,8.678601980E-1,-7.954034328E0,5.747842312E0
4.069960468E0,8.247416019E-1,-7.994757175E0,5.635254860E0
4.072434635E0,8.486963511E-1,-7.968407154E0,5.390915871E0
4.074908750E0,7.361088991E-1,-7.939661503E0,5.127413273E0
4.077382916E0,6.786174774E-1,-7.906124592E0,4.827978134E0
4.079857083E0,5.492615700E-1,-7.846237659E0,4.550102711E0
4.082331250E0,4.390696287E-1,-7.800723553E0,4.245877266E0
4.084805364E0,2.019172311E-1,-7.867796421E0,4.032679558E0
4.087279531E0,6.970167160E-4,-7.891751766E0,3.752408743E0
4.089753698E0,-1.693819463E-1,-7.951638699E0,3.577538729E0
4.092227864E0,-3.729976416E-1,-8.052248001E0,3.366736650E0
4.094701979E0,-5.574494600E-1,-8.275027275E0,3.038556337E0
4.097176146E0,-7.922063470E-1,-8.428339005E0,2.851708651E0
4.099650312E0,-9.598898888E-1,-8.667886734E0,2.684025288E0
4.102124479E0,-1.139550686E0,-8.914620399E0,2.688816309E0
4.104598593E0,-1.249742746E0,-9.238009453E0,2.595392704E0
4.107072760E0,-1.427008152E0,-9.693150520E0,2.540296793E0
4.109546927E0,-1.609064579E0,-1.019859695E1,2.645697832E0
4.112054271E0,-1.776748061E0,-1.089089108E1,2.609765530E0
4.114528385E0,-1.910894871E0,-1.149215603E1,2.501969099E0
4.117002552E0,-2.004318476E0,-1.221079826E1,2.348658323E0
4.119476718E0,-2.191165924E0,-1.314264011E1,2.394172430E0
4.121950885E0,-2.344476461E0,-1.419665051E1,2.200138807E0
4.124425000E0,-2.461854935E0,-1.532731628E1,1.984545708E0
4.126899166E0,-2.514555454E0,-1.655140686E1,1.816862106E0
4.129373333E0,-2.516950846E0,-1.775872803E1,1.713856459E0
4.131847500E0,-2.754103184E0,-1.906905365E1,1.653969646E0
4.134321614E0,-3.185289621E0,-2.061892891E1,1.515031934E0
4.136795781E0,-3.661989450E0,-2.230055428E1,1.340161920E0
4.139269948E0,-4.275232315E0,-2.404685783E1,1.253924608E0
4.141743125E0,-4.754327774E0,-2.562308502E1,1.246738315E0
4.144217291E0,-4.924407005E0,-2.693101501E1,1.136546254E0
4.146691458E0,-5.178327560E0,-2.803772736E1,1.155709982E0
4.149165573E0,-5.381943226E0,-2.876834679E1,1.160501003E0
4.151639739E0,-5.417875290E0,-2.905580521E1,1.138941765E0
4.154113854E0,-5.427457333E0,-2.901747704E1,1.047913551E0
4.156588021E0,-5.372361660E0,-2.854796219E1,8.035748005E-1
4.159062187E0,-5.113649368E0,-2.775266457E1,2.837558985E-1
4.161536354E0,-4.727977276E0,-2.670344543E1,-1.091025919E-1
4.164010468E0,-4.057243347E0,-2.531885910E1,-5.905937552E-1
4.166484635E0,-3.156543732E0,-2.367795372E1,-1.189463377E0
4.168958802E0,-2.356453896E0,-2.204423904E1,-1.603881240E0
4.171432239E0,-1.726443052E0,-2.051113319E1,-1.953621030E0
4.173906354E0,-1.216206074E0,-1.907624054E1,-2.217123747E0
4.176380521E0,-7.251329422E-1,-1.779705620E1,-2.614773035E0
4.178854687E0,-2.675965726E-1,-1.656338501E1,-2.940558195E0
4.181328854E0,1.947308183E-1,-1.546625423E1,-3.220829248E0
4.183802968E0,5.516570807E-1,-1.444817543E1,-3.378930807E0
4.186277135E0,8.990014791E-1,-1.355945396E1,-3.457981586E0
4.188751302E0,1.219995618E0,-1.271864033E1,-3.539427757E0
4.191225468E0,1.464334488E0,-1.209581566E1,-3.640038013E0
4.193699635E0,1.617645025E0,-1.153527355E1,-3.630455971E0
4.196173750E0,1.670345545E0,-1.102743244E1,-3.750230074E0
4.198647916E0,1.600876808E0,-1.063696957E1,-3.659201622E0
4.201100364E0,1.658368349E0,-1.023931980E1,-3.656806231E0
4.203574531E0,1.790119410E0,-1.000216770E1,-3.675970078E0
4.206048646E0,2.046435833E0,-9.774598122E0,-3.692738533E0
4.208522812E0,2.209328175E0,-9.527862549E0,-3.843653440E0
4.210996979E0,2.106322765E0,-9.288314819E0,-3.891563177E0
4.213471093E0,1.850006580E0,-9.036789894E0,-3.822094202E0
4.215945260E0,1.600876808E0,-8.675072670E0,-3.750230074E0
4.218419427E0,1.380492687E0,-8.358869553E0,-3.513077497E0
4.220893593E0,1.234368443E0,-8.057039261E0,-3.251970530E0
4.223367708E0,1.143340230E0,-7.700113297E0,-2.904625893E0
4.225841875E0,1.162504077E0,-7.386305809E0,-2.621959448E0
4.228316041E0,1.162504077E0,-7.113221169E0,-2.377620697E0
4.230776875E0,1.186458826E0,-6.835345745E0,-2.011112452E0
4.233250989E0,1.172086000E0,-6.581424713E0,-1.551180601E0
4.235725156E0,1.390074730E0,-6.375413418E0,-1.302050829E0
4.238199323E0,1.833237886E0,-6.090351582E0,-1.002616048E0
4.240673489E0,2.218910217E0,-5.766962051E0,-7.151586413E-1
4.243147604E0,2.039249182E0,-5.704679489E0,-3.342775702E-1
4.245621771E0,2.221305609E0,-5.424408436E0,-2.121081650E-1
4.248095937E0,3.258547783E0,-5.103414536E0,-2.791815698E-1
4.250570052E0,3.644219875E0,-5.412431240E0,-9.858477116E-1
4.253044218E0,3.972400665E0,-5.534600735E0,-1.639813304E0
4.255518385E0,4.355677128E0,-5.656770229E0,-1.692513824E0
4.257992552E0,4.590434074E0,-5.810080528E0,-1.424220204E0
4.260441823E0,4.568874359E0,-6.001718998E0,-1.038548231E0
4.262915989E0,4.367654324E0,-6.387391090E0,-8.013958335E-1
4.265390104E0,4.283812523E0,-6.689220905E0,-8.876330853E-1
4.267864271E0,4.511383057E0,-6.744317532E0,-1.105621696E0
4.270338437E0,4.595224857E0,-6.662871361E0,-1.155926704E0
4.272812552E0,4.714998722E0,-6.593401909E0,-1.036152720E0
4.275286718E0,4.714998722E0,-6.543097019E0,-9.020059705E-1
4.277760885E0,4.719789505E0,-6.389786720E0,-8.301416039E-1
4.280235052E0,4.810818195E0,-6.186171055E0,-6.864129305E-1
4.282709166E0,5.047970295E0,-5.970577717E0,-6.217349768E-1
4.285183333E0,5.261168003E0,-5.675934315E0,-3.726052344E-1
4.287657500E0,5.390523434E0,-5.493877411E0,-1.114980727E-1
4.290190364E0,5.450410366E0,-5.395663261E0,1.089423895E-3
4.292664479E0,5.345009327E0,-5.381289959E0,2.478237003E-1
4.295138646E0,5.251585960E0,-5.393267632E0,4.849760532E-1
4.297612812E0,5.141394138E0,-5.374103546E0,6.478686333E-1
4.300086979E0,4.937777996E0,-5.477108955E0,8.514842987E-1
4.302561093E0,4.714998722E0,-5.714261532E0,1.081450224E0
4.305035260E0,4.532942295E0,-5.927459240E0,1.361721277E0
4.307509427E0,4.290998936E0,-6.207730293E0,1.709065676E0
4.309983593E0,4.113733292E0,-6.483210087E0,2.003709555E0
4.312457760E0,3.950840950E0,-6.758690357E0,2.185765743E0
4.314931875E0,3.835857868E0,-6.947933197E0,2.274398565E0
4.317406041E0,3.629847050E0,-7.199458122E0,2.403754234E0
4.319831614E0,3.387903690E0,-7.391096592E0,2.559460402E0
4.322305729E0,3.150751352E0,-7.553988934E0,2.755889654E0
4.324779896E0,2.872875690E0,-7.685740471E0,2.925968885E0
4.327254062E0,2.513554096E0,-7.853424072E0,3.163120985E0
4.329728177E0,2.079972506E0,-8.030688286E0,3.326013565E0
4.332202343E0,1.598481178E0,-8.258259773E0,3.651798725E0
4.334676510E0,1.145735741E0,-8.390010834E0,3.891346693E0
4.337150677E0,7.169451714E-1,-8.521761894E0,4.138080597E0
4.339624843E0,4.079283476E-1,-8.624767303E0,4.351278305E0
4.342098958E0,1.276573539E-1,-8.768496513E0,4.588430882E0
4.344573125E0,-2.268734574E-1,-8.940970421E0,4.873492241E0
4.347047291E0,-4.640258253E-1,-9.043976784E0,5.077108383E0
4.349534583E0,-7.419013381E-1,-9.173331261E0,5.343006134E0
4.352008698E0,-9.862401485E-1,-9.331433296E0,5.508294106E0
4.354482864E0,-1.201833248E0,-9.477557182E0,5.635254860E0
4.356957031E0,-1.412635326E0,-9.539840698E0,5.664000511E0
4.359431146E0,-1.585109711E0,-9.635659218E0,5.649627686E0
4.361905312E0,-1.716861129E0,-9.697941780E0,5.637650490E0
4.364379479E0,-1.879753590E0,-9.709919930E0,5.675977707E0
4.366853646E0,-2.035459757E0,-9.731478691E0,5.558599472E0
4.369327812E0,-2.047437191E0,-9.676383018E0,5.398102283E0
4.371801927E0,-2.030668736E0,-9.705128670E0,5.280723572E0
4.374276093E0,-2.104928493E0,-9.645241737E0,5.103458405E0
4.376750260E0,-2.128883362E0,-9.585354805E0,4.851933479E0
4.379236927E0,-2.126487732E0,-9.463184357E0,4.590826511E0
4.381711041E0,-2.057018995E0,-9.259570122E0,4.181199074E0
4.384185208E0,-1.949222565E0,-9.029603958E0,3.936860323E0
4.386659375E0,-1.925267816E0,-8.885874748E0,3.750013351E0
4.389133541E0,-1.915685773E0,-8.766100883E0,3.565561533E0
4.391607656E0,-1.815075755E0,-8.708609581E0,3.371527672E0
4.394081875E0,-1.810284734E0,-8.670281410E0,3.184680223E0
4.396555989E0,-1.824657679E0,-8.564880371E0,3.163120985E0
4.399030156E0,-1.704883695E0,-8.478643417E0,3.033765316E0
4.401504271E0,-1.556364059E0,-8.416360855E0,2.916386843E0
4.403978437E0,-1.417426348E0,-8.351682663E0,2.775053501E0
4.406452604E0,-1.324002504E0,-8.303773880E0,2.775053501E0
4.408909531E0,-1.170691967E0,-8.231908798E0,2.822962999E0
4.411383698E0,-9.814491272E-1,-8.172021866E0,2.803799152E0
4.413857864E0,-7.299239635E-1,-8.162440300E0,2.722352982E0
4.416332031E0,-3.897659779E-1,-8.104948997E0,2.569042444E0
4.418806198E0,-1.478226185E-1,-8.119321823E0,2.439686537E0
4.421280312E0,1.300528646E-1,-8.172021866E0,2.295957804E0
4.423754479E0,4.366741180E-1,-8.114530563E0,2.238466263E0
4.426228646E0,7.432953119E-1,-7.872587681E0,2.212116003E0
4.428702812E0,1.152922273E0,-7.726463795E0,2.180974722E0
4.431176927E0,1.538594246E0,-7.532429695E0,2.168997526E0
4.433651146E0,1.924266338E0,-7.510870457E0,1.979754686E0
4.436125260E0,2.233283043E0,-7.508475304E0,1.723438501E0
4.438595833E0,2.472830772E0,-7.537220478E0,1.582105279E0
4.441069948E0,2.719565153E0,-7.630644798E0,1.527009249E0
4.443544114E0,3.131587505E0,-7.556384563E0,1.397653341E0
4.446018281E0,3.507677555E0,-7.537220478E0,1.299438715E0
4.448492448E0,3.831067085E0,-7.530034065E0,1.306625247E0
4.450966562E0,4.101756096E0,-7.513266087E0,1.280274987E0
4.453440729E0,4.473055363E0,-7.558780193E0,1.167687535E0
4.455914896E0,4.774885654E0,-7.628249168E0,1.265902162E0
4.458389010E0,5.043179512E0,-7.728858948E0,1.328184485E0
4.460863177E0,5.292308807E0,-7.872587681E0,1.467122316E0
4.463337343E0,5.551020622E0,-7.973197460E0,1.524613738E0
4.465811510E0,5.807336807E0,-8.057039261E0,1.613246560E0
4.468292448E0,6.034907341E0,-8.057039261E0,1.653969646E0
4.470766562E0,6.204986572E0,-8.088180542E0,1.735415936E0
4.473240729E0,6.248105049E0,-8.037875175E0,1.876749039E0
4.475714896E0,6.305596352E0,-7.958825588E0,2.032455206E0
4.478189062E0,6.346319675E0,-7.966011524E0,2.176183939E0
4.480663177E0,6.391833305E0,-7.934870243E0,2.307935238E0
4.483137343E0,6.607427120E0,-7.920497417E0,2.410940886E0
4.485611510E0,6.741573334E0,-7.815095901E0,2.509155512E0
4.488085677E0,6.808647156E0,-7.743232250E0,2.564251423E0
4.490559791E0,6.825415611E0,-7.668972015E0,2.674443483E0
4.493033958E0,6.873324871E0,-7.618667126E0,2.736726046E0
4.495508125E0,6.863742828E0,-7.585130215E0,2.815776825E0
4.497981458E0,6.834997177E0,-7.494102001E0,2.966691732E0
4.500455573E0,6.743968964E0,-7.439006329E0,3.012206078E0
4.502929739E0,6.614613056E0,-7.374328136E0,3.057719946E0
4.505403906E0,6.521189690E0,-7.300068855E0,3.098443270E0
4.507878021E0,6.399020195E0,-7.235390663E0,3.093652248E0
4.510352187E0,6.303201199E0,-7.146757603E0,3.191866875E0
4.512826354E0,6.236127377E0,-7.125198841E0,3.215821505E0
4.515300521E0,6.121144295E0,-7.113221169E0,3.167912006E0
4.517774635E0,5.943879128E0,-7.118011951E0,3.347573042E0
4.520248802E0,5.879201412E0,-7.091661453E0,3.340386629E0
4.522722968E0,5.701935768E0,-7.290486813E0,3.371527672E0
4.525197135E0,5.476760864E0,-7.532429695E0,3.469742298E0
4.527705364E0,5.397709846E0,-7.791141510E0,3.570352554E0
4.530179479E0,5.579766273E0,-8.009129524E0,3.613471031E0
4.532653646E0,5.627676010E0,-8.227118492E0,3.793132067E0
4.535127812E0,5.596535206E0,-8.504993439E0,3.965606451E0
4.537601979E0,5.522274971E0,-8.722982407E0,3.977584124E0
4.540076093E0,5.328240871E0,-8.988881111E0,4.011120319E0
4.542550260E0,5.138998508E0,-9.185309410E0,4.003933907E0
4.545024427E0,4.935382843E0,-9.326642990E0,3.987165689E0
4.547498593E0,4.760512829E0,-9.484745026E0,3.970397711E0
4.549972708E0,4.578456402E0,-9.721896172E0,3.927278757E0
4.552446927E0,4.429936886E0,-9.832088470E0,3.908115149E0
4.554921041E0,4.334117413E0,-9.990190506E0,3.879369497E0
4.557394114E0,4.259858131E0,-1.012673283E1,3.824273348E0
4.559868229E0,4.207157612E0,-1.026087952E1,3.821877718E0
4.562342396E0,4.164038658E0,-1.037586308E1,3.855414152E0
4.564816562E0,4.044264793E0,-1.052438164E1,3.675753593E0
4.567290729E0,4.003541470E0,-1.061541080E1,3.534420252E0
4.569764896E0,4.027496338E0,-1.069206524E1,3.440996408E0
4.572239062E0,3.986773491E0,-1.075434780E1,3.462555885E0
4.574713177E0,4.013123512E0,-1.079267597E1,3.349968433E0
4.577187343E0,3.972400665E0,-1.080704880E1,3.158329964E0
4.579661510E0,3.886162758E0,-1.085495758E1,3.062510967E0
4.582135625E0,3.797530651E0,-1.083819008E1,2.937946081E0
4.584609791E0,3.780762196E0,-1.084058571E1,2.751098871E0
4.587049896E0,3.732852459E0,-1.084537601E1,2.696002722E0
4.589524010E0,3.622660637E0,-1.079267597E1,2.578624249E0
4.591998177E0,3.519655228E0,-1.074716187E1,2.492387056E0
4.594472343E0,3.517259598E0,-1.061301422E1,2.389381409E0
4.596946510E0,3.411858559E0,-1.051480007E1,2.145042658E0
4.599420625E0,3.304061890E0,-1.039023590E1,1.912681341E0
4.601894791E0,3.167519569E0,-1.022494793E1,1.723438501E0
4.604368958E0,3.026186466E0,-1.012433624E1,1.548568487E0
4.606843125E0,2.892039537E0,-9.994981766E0,1.325788975E0
4.609317239E0,2.793824911E0,-9.791365623E0,1.069472909E0
4.611791406E0,2.676446438E0,-9.681173325E0,8.442978859E-1
4.614265521E0,2.477621794E0,-9.594936371E0,6.358912587E-1
4.616744479E0,2.259633303E0,-9.441625595E0,5.161173344E-1
4.619218593E0,1.926661730E0,-9.364970207E0,3.675976396E-1
4.621692760E0,1.682322979E0,-9.278733253E0,1.927276999E-1
4.624166927E0,1.488289356E0,-9.199682236E0,-6.837946177E-2
4.626641041E0,1.346956015E0,-9.130213737E0,-1.426392943E-1
4.629115208E0,1.208018184E0,-9.051162720E0,-1.330573857E-1
4.631589375E0,1.150526762E0,-9.024812698E0,-1.522212029E-1
4.634063541E0,1.088244200E0,-8.955343246E0,-2.528313100E-1
4.636537656E0,1.152922273E0,-8.859524727E0,-3.103227913E-1
4.639011823E0,1.128967404E0,-8.837965012E0,-1.857579052E-1
4.641485989E0,1.167295098E0,-8.847546577E0,-2.695996463E-1
4.643960156E0,1.354142427E0,-8.835569382E0,-1.905488670E-1
4.646428854E0,1.521826029E0,-8.924202919E0,-1.138935536E-1
4.648902968E0,1.761373758E0,-8.993671417E0,-7.796137035E-2
4.651377135E0,1.902707100E0,-9.139795303E0,3.462614119E-2
4.653851302E0,2.307542801E0,-9.283523560E0,1.735638827E-1
4.656325416E0,2.678842068E0,-9.417670250E0,2.574056387E-1
4.658799583E0,2.551881790E0,-9.757828712E0,3.652021289E-1
4.661273750E0,2.460853577E0,-1.006684589E1,4.610213041E-1
4.663747916E0,2.592604637E0,-1.049803162E1,4.131117463E-1
4.666222083E0,2.812988758E0,-1.096754551E1,3.556202650E-1
4.668696198E0,2.801011562E0,-1.153287888E1,2.813604474E-1
4.671170364E0,2.769870281E0,-1.213653851E1,1.855412573E-1
4.673644531E0,2.841734409E0,-1.281206322E1,2.645920515E-1
4.676113906E0,2.767474651E0,-1.347082043E1,3.963434100E-1
4.678588021E0,2.721960545E0,-1.425414181E1,4.586258531E-1
4.681062187E0,2.633327961E0,-1.513328266E1,5.568404794E-1
4.683536354E0,2.424921274E0,-1.595972347E1,5.568404794E-1
4.686010521E0,2.048831224E0,-1.675502205E1,6.095409393E-1
4.688484635E0,1.538594246E0,-1.764134979E1,5.879816413E-1
4.690958802E0,1.009193540E0,-1.841987991E1,5.855861902E-1
4.693432968E0,2.594086528E-1,-1.901156235E1,5.903771520E-1
4.695907135E0,-6.724324226E-1,-1.940442276E1,5.712133050E-1
4.698381250E0,-1.616250992E0,-1.951700783E1,7.460832596E-1
4.700855416E0,-2.466645718E0,-1.926787949E1,9.496989250E-1
4.703329583E0,-3.237989902E0,-1.876243210E1,8.874164820E-1
4.705840885E0,-3.822486877E0,-1.794318008E1,8.011792898E-1
4.708315000E0,-4.373446465E0,-1.695145226E1,7.628515959E-1
4.710789166E0,-4.708813667E0,-1.599565411E1,8.299250603E-1
4.713263333E0,-5.029808044E0,-1.506620979E1,9.017894268E-1
4.715737500E0,-5.293310642E0,-1.410562229E1,9.952130318E-1
4.718211614E0,-5.393920422E0,-1.320013142E1,9.712582827E-1
4.720685781E0,-5.429852962E0,-1.240722752E1,9.856311083E-1
4.723159948E0,-5.563999653E0,-1.165025711E1,9.281396866E-1
4.725634114E0,-5.805943012E0,-1.084537601E1,1.148523688E0
4.728108281E0,-6.071841240E0,-1.016745567E1,1.462331295E0
4.730582396E0,-6.328156948E0,-9.590146065E0,1.713856459E0
4.733056562E0,-6.452722073E0,-8.945761681E0,1.862376213E0
4.735496458E0,-6.524586678E0,-8.454689026E0,1.859980822E0
4.737970573E0,-6.469490528E0,-8.095366478E0,1.797698259E0
4.740444739E0,-6.404812336E0,-7.752813816E0,1.740206838E0
4.742918906E0,-6.335343361E0,-7.419842243E0,1.783325434E0
4.745393073E0,-6.217965126E0,-7.153944016E0,1.824048758E0
4.747867187E0,-6.095796108E0,-6.931164742E0,1.883935452E0
4.750341354E0,-5.944880486E0,-6.684430599E0,1.850398779E0
4.752815521E0,-5.861039162E0,-6.430509567E0,1.881540060E0
4.755289687E0,-5.724496365E0,-6.198148251E0,1.931844950E0
4.757763802E0,-5.480157852E0,-5.963391781E0,2.027664185E0
4.760237968E0,-5.211863995E0,-5.745402813E0,2.075573683E0
4.762712135E0,-5.046576023E0,-5.630419731E0,2.231280088E0
4.765185781E0,-4.833378315E0,-5.433990479E0,2.269607544E0
4.767659896E0,-4.526757240E0,-5.251934052E0,2.348658323E0
4.770134062E0,-4.157854080E0,-5.141742229E0,2.442081928E0
4.772608229E0,-3.626057625E0,-5.000409126E0,2.482805252E0
4.775082396E0,-3.123007059E0,-5.007595539E0,2.569042444E0
4.777556510E0,-2.581628799E0,-5.105810165E0,2.437290907E0
4.780030677E0,-2.174397469E0,-5.251934052E0,2.343867540E0
4.782504843E0,-1.882149100E0,-5.525018692E0,2.581019878E0
4.784979010E0,-1.621042013E0,-5.829244614E0,3.012206078E0
4.787453177E0,-1.443776488E0,-6.143052101E0,3.421832800E0
4.789927291E0,-1.058104515E0,-6.315526485E0,3.776363611E0
4.792401458E0,-8.520933390E-1,-6.411345482E0,4.581244469E0
4.794885416E0,4.079283476E-1,-5.127369404E0,8.972156525E0
4.797359531E0,1.587986350E-1,-5.484295845E0,9.288360596E0
4.799833698E0,3.192957044E-1,-5.618442535E0,9.839320183E0
4.802307812E0,7.385044098E-1,-5.980159760E0,1.021061897E1
4.804781979E0,7.480863333E-1,-6.674848557E0,9.690800667E0
4.807256146E0,8.391145468E-1,-6.883255005E0,8.754168510E0
4.809730312E0,1.033148289E0,-7.024588108E0,7.649852276E0
4.812204427E0,9.373291731E-1,-7.563570976E0,6.562304974E0
4.814678593E0,2.905499339E-1,-8.404383659E0,5.625672817E0
4.817152760E0,-5.646359324E-1,-9.115840912E0,4.938170433E0
4.819626927E0,-8.856300116E-1,-9.379343987E0,4.715390682E0
4.822101041E0,-7.251329422E-1,-9.705128670E0,4.394396782E0
4.824564218E0,1.324483752E-1,-1.043575001E1,3.802713633E0
4.827038333E0,8.391145468E-1,-1.056270981E1,3.649403334E0
4.829512500E0,3.624143600E-1,-1.094119549E1,4.087775707E0
4.831986666E0,3.839735985E-1,-1.152329636E1,5.359774590E0
4.834460833E0,2.067081928E-1,-1.169337559E1,6.327547550E0
4.836934948E0,-6.365002394E-1,-1.159995174E1,6.131118774E0
4.839409114E0,-9.766582251E-1,-1.145622253E1,6.231728554E0
4.841883281E0,-3.873704970E-1,-1.135082150E1,5.939480305E0
4.844357448E0,1.552967072E0,-1.163109303E1,5.316655636E0
4.846831562E0,2.147045851E0,-1.132926273E1,4.372837067E0
4.849305729E0,1.459543467E0,-1.120230293E1,3.100838423E0
4.851779896E0,-9.191666842E-1,-1.191615486E1,1.665946960E0
4.854253541E0,-8.884906769E-3,-1.294621086E1,1.256320119E0
4.856727656E0,1.653577328E0,-1.286955547E1,1.114986897E0
4.859201823E0,1.361328840E0,-1.291986084E1,5.927726626E-1
4.861675989E0,1.157713056E0,-1.316659451E1,4.873715639E-1
4.864150156E0,9.253517389E-1,-1.341811943E1,4.993489385E-1
4.866624271E0,1.334978580E0,-1.364569092E1,6.526595950E-1
4.869098437E0,1.900311470E0,-1.381816483E1,8.538798094E-1
4.871572604E0,1.926661730E0,-1.383014297E1,1.028749824E0
4.874046771E0,1.768560171E0,-1.380379200E1,1.165292025E0
4.876520885E0,1.433193207E0,-1.368880844E1,1.481495142E0
4.878995052E0,7.888095379E-1,-1.324804020E1,1.668342471E0
4.881469218E0,1.707760096E-1,-1.276894569E1,1.713856459E0
4.883943125E0,-2.867604196E-1,-1.215809822E1,1.790511847E0
4.886417239E0,-5.837997198E-1,-1.160474300E1,2.027664185E0
4.888891406E0,-6.987826824E-1,-1.106815529E1,2.166602135E0
4.891365573E0,-7.083646059E-1,-1.059624672E1,2.190556765E0
4.893839739E0,-6.436867118E-1,-1.014110565E1,2.286375999E0
4.896313854E0,-3.873704970E-1,-9.669197083E0,2.276793957E0
4.898788021E0,-3.283971548E-2,-9.190100670E0,2.288771629E0
4.901262187E0,3.911600113E-1,-8.823592186E0,2.123483419E0
4.903736354E0,7.648546696E-1,-8.473853111E0,1.951009035E0
4.906210468E0,1.064289451E0,-8.172021866E0,1.778534412E0
4.908684635E0,1.354142427E0,-7.807909489E0,1.618037343E0
4.911158802E0,1.536198854E0,-7.518057346E0,1.258715630E0
4.913666718E0,1.665554523E0,-7.276113510E0,9.736537933E-1
4.916140833E0,1.751791716E0,-7.170712471E0,7.077555656E-1
4.918615000E0,1.828447342E0,-7.003029346E0,5.424675941E-1
4.921089166E0,1.905102491E0,-6.907210350E0,2.789649367E-1
4.923563333E0,2.046435833E0,-6.864090919E0,-2.526083589E-2
4.926037448E0,2.079972506E0,-6.916791439E0,-2.360629588E-1
4.928511614E0,2.060808420E0,-6.991051674E0,-2.288765162E-1
4.930985781E0,1.996130705E0,-7.101243496E0,-4.202920198E-2
4.933459948E0,2.044040203E0,-7.199458122E0,5.880370736E-3
4.935934062E0,2.010503531E0,-7.326418400E0,3.843660355E-1
4.938408229E0,2.012898922E0,-7.381514549E0,6.047500372E-1
4.940882396E0,1.957803011E0,-7.556384563E0,8.035748005E-1
4.943355781E0,1.945825577E0,-7.645017147E0,1.038331628E0
4.945829896E0,1.845215559E0,-7.740836620E0,1.352139235E0
4.948304062E0,1.742209911E0,-7.860610485E0,1.661156058E0
4.950778229E0,1.643995285E0,-7.968407154E0,1.910285711E0
4.953252396E0,1.615249395E0,-8.028293610E0,2.056410074E0
4.955726562E0,1.505057573E0,-8.143276215E0,2.202534199E0
4.958200729E0,1.440379381E0,-8.294191360E0,2.269607544E0
4.960674843E0,1.315814734E0,-8.404383659E0,2.456454992E0
4.963149010E0,1.260718703E0,-8.514575958E0,2.530714750E0
4.965623125E0,1.150526762E0,-8.627162933E0,2.437290907E0
4.968097291E0,1.069080472E0,-8.761309624E0,2.257630348E0
4.970571458E0,9.469109774E-1,-8.816405296E0,2.240861654E0
4.973009062E0,9.037923813E-1,-8.907433510E0,2.140251875E0
4.975483177E0,8.582783937E-1,-9.020021439E0,2.018082380E0
4.977957343E0,8.367190361E-1,-9.135004997E0,1.915076733E0
4.980431510E0,8.319281340E-1,-9.230823517E0,1.852794170E0
4.982905677E0,8.199505806E-1,-9.223637581E0,1.812071085E0
4.985379791E0,8.199505806E-1,-9.269151688E0,1.759370685E0
4.987853958E0,8.271371126E-1,-9.453602791E0,1.766557097E0
4.990328125E0,7.936003208E-1,-9.535049438E0,1.711461186E0
4.992802291E0,8.079732656E-1,-9.654823303E0,1.737811446E0
4.995276458E0,8.415099382E-1,-9.683568954E0,1.740206838E0
4.997750573E0,8.678601980E-1,-9.753037453E0,1.848003387E0
5.000224739E0,8.630692959E-1,-9.848856926E0,1.790511847E0
5.002733906E0,9.205607176E-1,-9.879998207E0,1.812071085E0
5.005208021E0,9.253517389E-1,-9.891975403E0,1.768952608E0
5.007682187E0,9.373291731E-1,-9.932698250E0,1.871958256E0
5.010156354E0,9.636793137E-1,-9.923116684E0,1.900703907E0
5.012630521E0,9.876340628E-1,-9.865625381E0,1.802489281E0
5.015104635E0,9.373291731E-1,-9.750642776E0,1.831234932E0
5.017578854E0,9.852387905E-1,-9.700337410E0,1.828839540E0
5.020052968E0,1.047521114E0,-9.709919930E0,1.838421583E0
5.022527135E0,1.047521114E0,-9.592540741E0,1.852794170E0
5.025001250E0,1.181667924E0,-9.477557182E0,1.780930042E0
5.027475416E0,1.188854337E0,-9.477557182E0,1.852794170E0
5.029949583E0,1.186458826E0,-9.362574577E0,1.845607996E0
5.032389062E0,1.279882431E0,-9.343410492E0,1.833630562E0
5.034863177E0,1.303837419E0,-9.300292969E0,1.917472363E0
5.037337343E0,1.402051926E0,-9.261964798E0,1.943822622E0
5.039811510E0,1.375701666E0,-9.242800713E0,1.979754686E0
5.042285677E0,1.440379381E0,-9.182913780E0,2.063596487E0
5.044759791E0,1.552967072E0,-9.144586563E0,2.123483419E0
5.047233958E0,1.567339897E0,-9.094281197E0,2.295957804E0
5.049708125E0,1.612854004E0,-9.082304001E0,2.367822170E0
5.052182291E0,1.672740936E0,-9.031998634E0,2.509155512E0
5.054656406E0,1.742209911E0,-9.008043289E0,2.640906811E0
5.057130573E0,1.799701452E0,-8.919411659E0,2.741516829E0
5.059604739E0,1.859588146E0,-8.893060684E0,2.947528124E0
5.062112083E0,1.974571228E0,-8.849942207E0,3.115211487E0
5.064586250E0,2.056017399E0,-8.818801880E0,3.297267675E0
5.067060468E0,2.075181484E0,-8.792450905E0,3.464951277E0
5.069534635E0,2.163814306E0,-8.722982407E0,3.594307184E0
5.072008802E0,2.274006128E0,-8.691840172E0,3.836250544E0
5.074482968E0,2.362638712E0,-8.682258606E0,4.080589294E0
5.076957187E0,2.468039989E0,-8.643931389E0,4.231504440E0
5.079431406E0,2.563858986E0,-8.591230392E0,4.461470127E0
5.081905573E0,2.623745918E0,-8.531343460E0,4.677063465E0
5.084379739E0,2.817779779E0,-8.476247787E0,4.844746590E0
5.086853958E0,2.824966192E0,-8.358869553E0,5.139390945E0
5.089328125E0,2.918389797E0,-8.339705467E0,5.343006134E0
5.091767187E0,2.951926470E0,-8.248677254E0,5.652022839E0
5.094241354E0,3.033372641E0,-8.174417496E0,6.011344910E0
5.096715573E0,3.167519569E0,-8.109739304E0,6.085604668E0
5.099189739E0,3.280107021E0,-7.994757175E0,6.131118774E0
5.101663906E0,3.483722687E0,-7.975593090E0,6.329943180E0
5.104138073E0,3.550796032E0,-7.942056179E0,6.418576241E0
5.106612291E0,3.622660637E0,-7.910915852E0,6.574282169E0
5.109086458E0,3.692129612E0,-7.908520222E0,6.729988098E0
