"Time (s)","Acceleration x (m/s^2)","Acceleration y (m/s^2)","Acceleration z (m/s^2)"
0.000000000E0,2.942186594E-1,-1.016578007E1,6.125708818E-1
1.962500000E-3,2.868062258E-1,-9.923822403E0,4.058842063E-1
3.962500000E-3,2.796523571E-1,-9.679728508E0,2.847376168E-1
5.962500000E-3,2.710810900E-1,-9.414221764E0,2.188779116E-1
7.962500000E-3,2.527702451E-1,-9.217312813E0,1.879544109E-1
9.962500000E-3,2.148460895E-1,-9.112858772E0,3.410204947E-1
1.196250000E-2,1.602870226E-1,-8.993454933E0,4.407821000E-1
1.396250000E-2,9.520303458E-2,-8.894545555E0,4.761492610E-1
1.614531200E-2,-4.845864139E-3,-8.831645966E0,4.533756077E-1
1.781093700E-2,-1.558529437E-1,-8.737735748E0,3.616681099E-1
2.014375000E-2,-2.779572308E-1,-8.683540344E0,2.802844048E-1
2.231562500E-2,-9.196990132E-1,-8.203493118E0,1.103631184E-1
2.396250000E-2,-1.834839582E0,-7.429102421E0,2.978386916E-2
2.596250000E-2,-1.554756284E0,-7.860096931E0,-1.802738011E-1
2.796250000E-2,-1.026901841E0,-8.317963600E0,-6.051201224E-1
2.996250000E-2,-5.758342147E-1,-8.744707108E0,-8.394454122E-1
3.196250000E-2,-3.530489802E-1,-9.060378075E0,-8.958145380E-1
3.396250000E-2,-3.231693506E-1,-9.139586449E0,-1.004760265E0
3.596250000E-2,-4.109407663E-1,-9.121850967E0,-1.050470352E0
3.796250000E-2,-5.938194394E-1,-9.050944328E0,-1.012862206E0
3.996250000E-2,-7.809598446E-1,-8.928150177E0,-9.415820837E-1
4.196250000E-2,-8.973851204E-1,-8.865355492E0,-8.724470735E-1
4.396250000E-2,-9.864494205E-1,-8.884518623E0,-8.455937505E-1
4.596250000E-2,-1.064193964E0,-8.961104393E0,-8.370224833E-1
4.796250000E-2,-1.126079202E0,-9.077951431E0,-8.119312525E-1
4.996250000E-2,-1.200960279E0,-9.169869423E0,-8.104085922E-1
5.196250000E-2,-1.250548959E0,-9.241685867E0,-8.279820085E-1
5.396250000E-2,-1.291470647E0,-9.299777985E0,-9.212600589E-1
5.596250000E-2,-1.282430172E0,-9.339426994E0,-1.073847294E0
5.796250000E-2,-1.227306128E0,-9.046644211E0,-1.225381136E0
6.014218700E-2,-1.089371324E0,-8.563532829E0,-1.310892463E0
6.196250000E-2,-9.600365758E-1,-8.352583885E0,-1.299591780E0
6.396250000E-2,-9.097679257E-1,-8.368088722E0,-1.142110825E0
6.596250000E-2,-9.269869924E-1,-8.482369423E0,-9.489753246E-1
6.796250000E-2,-9.101414084E-1,-8.647099495E0,-8.577467203E-1
6.996250000E-2,-8.714990020E-1,-8.860835075E0,-8.161067367E-1
7.196250000E-2,-8.357295990E-1,-9.101375580E0,-8.364191055E-1
7.396250000E-2,-8.175624609E-1,-9.277905464E0,-8.730503917E-1
7.596406200E-2,-7.805097699E-1,-9.453391075E0,-8.916102648E-1
7.796250000E-2,-7.760661244E-1,-9.675496101E0,-8.683961034E-1
7.996250000E-2,-8.122951388E-1,-9.907713890E0,-8.281543851E-1
8.196250000E-2,-8.303091526E-1,-1.011083794E1,-7.962348461E-1
8.396250000E-2,-8.068268299E-1,-1.031183624E1,-7.368873954E-1
8.596250000E-2,-7.867347002E-1,-1.051787186E1,-7.163547277E-1
8.796250000E-2,-7.653592825E-1,-1.073824310E1,-7.079079747E-1
8.996250000E-2,-7.820898890E-1,-1.099550629E1,-6.336494088E-1
9.196250000E-2,-8.588001728E-1,-1.121560955E1,-5.341081023E-1
9.396250000E-2,-9.426929951E-1,-1.143661308E1,-4.563348293E-1
9.596250000E-2,-1.013676286E0,-1.164369202E1,-4.006552994E-1
9.796250000E-2,-1.064720750E0,-1.183832264E1,-3.524456620E-1
1.001437500E-1,-1.105556130E0,-1.204818726E1,-2.820273638E-1
1.023140620E-1,-1.122373104E0,-1.229135227E1,-1.794310510E-1
1.039625000E-1,-1.110593557E0,-1.253003502E1,-5.893566832E-2
1.059625000E-1,-1.040807366E0,-1.278393555E1,3.853707016E-2
1.079625000E-1,-9.123536348E-1,-1.302268600E1,5.175306275E-2
1.099625000E-1,-7.530817986E-1,-1.321283340E1,-9.490615688E-3
1.119625000E-1,-6.052063107E-1,-1.330888844E1,-8.564538509E-2
1.139625000E-1,-5.045253038E-1,-1.334726238E1,-1.429434270E-1
1.159625000E-1,-4.364916980E-1,-1.336273956E1,-1.635048240E-1
1.179625000E-1,-3.784179389E-1,-1.336496925E1,-1.701128185E-1
1.199625000E-1,-3.176243603E-1,-1.340631390E1,-1.640698612E-1
1.219625000E-1,-2.554709017E-1,-1.344670773E1,-1.447246969E-1
1.239625000E-1,-1.988240778E-1,-1.348334026E1,-1.098459810E-1
1.259625000E-1,-1.101237014E-1,-1.363606071E1,-9.176496416E-2
1.279625000E-1,5.851428956E-3,-1.382093143E1,-1.334049255E-1
1.299625000E-1,1.013513505E-1,-1.397578812E1,-1.836831570E-1
1.319625000E-1,1.357991248E-1,-1.410208797E1,-1.966501474E-1
1.339625000E-1,8.566453308E-2,-1.417191219E1,-1.306084841E-1
1.359625000E-1,-1.955583878E-2,-1.420670414E1,-1.227650866E-1
1.379625000E-1,-1.539854705E-1,-1.418874836E1,-1.838555336E-1
1.401421870E-1,-2.803227305E-1,-1.408236885E1,-1.455483139E-1
1.419625000E-1,-3.758417964E-1,-1.388168621E1,-6.228755042E-2
1.439625000E-1,-4.870476723E-1,-1.364073467E1,5.187756196E-2
1.459625000E-1,-6.357467771E-1,-1.330768204E1,1.504324824E-1
1.479625000E-1,-7.860164046E-1,-1.286148834E1,1.018589139E-1
1.499625000E-1,-9.600365758E-1,-1.232103157E1,-2.340858877E-1
1.519625000E-1,-1.200213313E0,-1.173381042E1,-4.937993288E-1
1.539625000E-1,-1.475718856E0,-1.121288013E1,-6.764385700E-1
1.559640620E-1,-1.802795529E0,-1.079067707E1,-1.062575459E0
1.579625000E-1,-2.162098169E0,-1.034699345E1,-1.466304898E0
1.599625000E-1,-2.408270121E0,-1.006410313E1,-1.632740259E0
1.619625000E-1,-2.435018063E0,-1.006982136E1,-1.661489725E0
1.639625000E-1,-2.278015852E0,-1.018477154E1,-1.670999527E0
1.659625000E-1,-2.006589890E0,-1.037041759E1,-1.791561961E0
1.679625000E-1,-1.747757673E0,-1.060843945E1,-1.927361131E0
1.699625000E-1,-1.529559731E0,-1.084343529E1,-2.050748825E0
1.719625000E-1,-1.434548259E0,-1.101599979E1,-2.284394026E0
1.739625000E-1,-1.494182944E0,-1.109292126E1,-2.493742943E0
1.759625000E-1,-1.626974940E0,-1.106338596E1,-2.626027346E0
1.779625000E-1,-1.599048972E0,-1.102032852E1,-2.255117655E0
1.801437500E-1,-7.072376013E-1,-1.183858013E1,-1.981489301E0
1.823156250E-1,-4.036624134E-1,-1.209424305E1,-1.354256272E0
1.839625000E-1,-4.460493326E-1,-1.152362823E1,-7.097275853E-1
1.859625000E-1,-6.081176996E-1,-1.063762951E1,-4.736688435E-1
1.879625000E-1,-6.161429882E-1,-1.000057125E1,1.720952243E-2
1.899625000E-1,-5.743402839E-1,-9.273356438E0,6.273957491E-1
1.919625000E-1,-5.673779249E-1,-8.495211601E0,8.533605337E-1
1.939625000E-1,-4.380431473E-1,-7.884451389E0,6.369726062E-1
1.959625000E-1,-2.075102478E-1,-7.345314980E0,4.468442500E-1
1.979625000E-1,4.821922258E-2,-6.841766834E0,1.056034490E-1
1.999625000E-1,3.744914532E-1,-6.442768097E0,-4.385890067E-1
2.019625000E-1,6.741976142E-1,-6.127231598E0,-9.899832606E-1
2.039625000E-1,9.108884335E-1,-5.855700016E0,-1.527280450E0
2.059625000E-1,1.135416627E0,-5.662727356E0,-1.980234623E0
2.079625000E-1,1.304945350E0,-5.532511711E0,-2.282430887E0
2.099625000E-1,1.418660283E0,-5.455188274E0,-2.485707998E0
2.119625000E-1,1.471074104E0,-5.458071232E0,-2.614085197E0
2.139625000E-1,1.437009454E0,-5.534599781E0,-2.637586594E0
2.159625000E-1,1.309886932E0,-5.655286312E0,-2.539405346E0
2.179734370E-1,1.104904890E0,-5.817689896E0,-2.326426744E0
2.201484370E-1,8.585894704E-1,-6.024568081E0,-2.044571638E0
2.220171870E-1,6.027929783E-1,-6.259659767E0,-1.727713346E0
2.239671870E-1,3.591015339E-1,-6.525779724E0,-1.379481554E0
2.259671870E-1,1.497429460E-1,-6.796784401E0,-1.024909854E0
2.279671870E-1,-6.655880716E-3,-7.052446842E0,-6.986472011E-1
2.301500000E-1,-9.553822130E-2,-7.282606125E0,-4.271734655E-1
2.321906250E-1,-1.328686178E-1,-7.480127811E0,-2.076826394E-1
2.339703120E-1,-1.133606657E-1,-7.652998447E0,-5.492299050E-2
2.359671870E-1,-3.994486108E-2,-7.808679104E0,4.699338973E-2
2.379671870E-1,5.544013530E-2,-7.946661949E0,1.051341891E-1
2.399671870E-1,1.497046500E-1,-8.057723999E0,1.183405966E-1
2.419671870E-1,2.084775120E-1,-8.159669876E0,9.899545461E-2
2.439687500E-1,2.457791716E-1,-8.260034561E0,5.543055758E-2
2.459671870E-1,2.540248036E-1,-8.369660378E0,-1.199016161E-2
2.479671870E-1,2.448597997E-1,-8.484389305E0,-8.621041477E-2
2.499671870E-1,2.188683450E-1,-8.593872070E0,-1.675270796E-1
2.519671870E-1,1.825722456E-1,-8.696295738E0,-2.463058978E-1
2.539687500E-1,1.466496438E-1,-8.786212921E0,-3.202579916E-1
2.559671870E-1,1.080359593E-1,-8.864225388E0,-3.886843026E-1
2.579671870E-1,7.729440928E-2,-8.930535316E0,-4.441244304E-1
2.601484370E-1,5.747041851E-2,-8.991204262E0,-4.789552689E-1
2.622453120E-1,3.132573515E-2,-9.043675423E0,-4.992293715E-1
2.641312500E-1,-1.984314434E-2,-9.093350410E0,-5.049371123E-1
2.659671870E-1,-5.677130818E-2,-9.140027046E0,-4.960211217E-1
2.679671870E-1,-8.706275374E-2,-9.201971054E0,-4.779209495E-1
2.699671870E-1,-1.037359685E-1,-9.269726753E0,-4.506270885E-1
2.719671870E-1,-1.126040965E-1,-9.350315094E0,-4.140819609E-1
2.739687500E-1,-1.165018529E-1,-9.438144684E0,-3.851121068E-1
2.759671870E-1,-1.311639398E-1,-9.540721893E0,-3.602699041E-1
2.779671870E-1,-1.497716755E-1,-9.649456024E0,-3.435488045E-1
2.799671870E-1,-1.775827259E-1,-9.758986473E0,-3.203441799E-1
2.819671870E-1,-2.120400816E-1,-9.877873421E0,-2.948315740E-1
2.839687500E-1,-2.647029459E-1,-9.993990898E0,-2.813761532E-1
2.859671870E-1,-3.142246008E-1,-1.010158730E1,-3.003956974E-1
2.879671870E-1,-3.484521210E-1,-1.020903873E1,-3.249027431E-1
2.899671870E-1,-3.791170716E-1,-1.030233574E1,-3.126348555E-1
2.919671870E-1,-4.022641778E-1,-1.037115574E1,-2.783403099E-1
2.939687500E-1,-4.259093404E-1,-1.042434502E1,-2.452237159E-1
2.959671870E-1,-4.568040967E-1,-1.047115612E1,-2.118868530E-1
2.979671870E-1,-5.062874556E-1,-1.051179981E1,-1.807143390E-1
3.001484370E-1,-5.692932606E-1,-1.055366039E1,-1.496184468E-1
3.020187500E-1,-6.432932615E-1,-1.060994339E1,-1.308191866E-1
3.039671870E-1,-7.087124586E-1,-1.066664791E1,-1.309149414E-1
3.059671870E-1,-7.614614964E-1,-1.074374008E1,-1.384423226E-1
3.079671870E-1,-7.995005250E-1,-1.083874226E1,-1.494652182E-1
3.099671870E-1,-8.319755197E-1,-1.094002724E1,-1.470135599E-1
3.119687500E-1,-8.306635022E-1,-1.104247952E1,-1.672493517E-1
3.139671870E-1,-8.104276657E-1,-1.114068031E1,-1.814421862E-1
3.159671870E-1,-7.657327056E-1,-1.120608997E1,-2.025111616E-1
3.179671870E-1,-7.261613607E-1,-1.124568081E1,-2.168476433E-1
3.199671870E-1,-6.974979639E-1,-1.126615524E1,-2.173552066E-1
3.219687500E-1,-6.802310348E-1,-1.126727676E1,-2.211476266E-1
3.239671870E-1,-6.588268280E-1,-1.125921154E1,-2.328887880E-1
3.259671870E-1,-6.503992081E-1,-1.124032688E1,-2.450609058E-1
3.279671870E-1,-6.693134904E-1,-1.122223663E1,-2.597613335E-1
3.299671870E-1,-6.948931217E-1,-1.120146370E1,-2.714067101E-1
3.319687500E-1,-7.294270396E-1,-1.119075680E1,-2.672120631E-1
3.339671870E-1,-7.781251073E-1,-1.118507767E1,-2.596559823E-1
3.359671870E-1,-8.203205466E-1,-1.119334316E1,-2.561508417E-1
3.379671870E-1,-8.359978199E-1,-1.119787312E1,-2.606423497E-1
3.401484370E-1,-8.544618487E-1,-1.120168495E1,-2.761759758E-1
3.422468750E-1,-8.909782171E-1,-1.121016026E1,-2.812708020E-1
3.441359370E-1,-8.700911999E-1,-1.122895908E1,-2.659287751E-1
3.459671870E-1,-8.583308458E-1,-1.124021149E1,-2.636303306E-1
3.479671870E-1,-8.486583233E-1,-1.124005890E1,-2.949081957E-1
3.499671870E-1,-8.500948548E-1,-1.124844837E1,-3.273544014E-1
3.519671870E-1,-8.518570065E-1,-1.125367641E1,-3.535469770E-1
3.539687500E-1,-8.515409827E-1,-1.125625324E1,-3.907624483E-1
3.559671870E-1,-8.222071528E-1,-1.124259663E1,-4.523604810E-1
3.579671870E-1,-7.679258585E-1,-1.120131016E1,-5.330546498E-1
3.599671870E-1,-6.979863644E-1,-1.109052658E1,-6.012223363E-1
3.619671870E-1,-6.370204687E-1,-1.088980675E1,-7.010031343E-1
3.639687500E-1,-5.515953302E-1,-1.065430260E1,-7.886883616E-1
3.659671870E-1,-5.877860785E-1,-1.039710808E1,-6.043635011E-1
3.679671870E-1,-7.922030687E-1,-1.013632202E1,-4.890779555E-1
3.699671870E-1,-1.082715511E0,-9.923955917E0,-5.075324178E-1
3.719671870E-1,-1.097080708E0,-9.796029091E0,-6.910049319E-1
3.739687500E-1,-8.683769703E-1,-9.675103188E0,-6.513569355E-1
3.759671870E-1,-7.364277244E-1,-9.508476257E0,-5.037592053E-1
3.779671870E-1,-7.686249614E-1,-9.301904678E0,-3.448033333E-1
3.801468750E-1,-9.557844996E-1,-9.170156479E0,-2.361640632E-1
3.820187500E-1,-1.240656137E0,-9.158980370E0,-2.084870934E-1
3.839671870E-1,-1.536541104E0,-9.269075394E0,-2.435765117E-1
3.859671870E-1,-1.733449936E0,-9.444005013E0,-3.063237369E-1
3.879671870E-1,-1.790709615E0,-9.661446571E0,-3.553857207E-1
3.899671870E-1,-1.744396210E0,-9.867357254E0,-3.845470846E-1
3.919671870E-1,-1.665320516E0,-1.003186798E1,-3.937791586E-1
3.939671870E-1,-1.590745926E0,-1.015370369E1,-3.990846872E-1
3.959687500E-1,-1.548876047E0,-1.022049332E1,-3.953976035E-1
3.979671870E-1,-1.550398827E0,-1.025412560E1,-3.994677663E-1
3.999671870E-1,-1.570261121E0,-1.026160526E1,-4.166868627E-1
4.019671870E-1,-1.595333219E0,-1.024669552E1,-4.428507090E-1
4.039671870E-1,-1.604565263E0,-1.021525383E1,-4.726441205E-1
4.059671870E-1,-1.586895943E0,-1.017688942E1,-5.026961565E-1
4.079671870E-1,-1.541454077E0,-1.013624477E1,-5.340889096E-1
4.099671870E-1,-1.485515952E0,-1.010758209E1,-5.794638395E-1
4.119671870E-1,-1.426178098E0,-1.008924198E1,-6.306423545E-1
4.139671870E-1,-1.359580874E0,-1.007455158E1,-6.815621853E-1
4.159671870E-1,-1.292715669E0,-1.007170677E1,-7.321947813E-1
4.179671870E-1,-1.232477546E0,-1.008532524E1,-7.896077037E-1
4.201484370E-1,-1.188912749E0,-1.010405731E1,-8.514930606E-1
4.222468750E-1,-1.159847021E0,-1.013027000E1,-8.941577077E-1
4.243156250E-1,-1.131834984E0,-1.015928745E1,-9.194979072E-1
4.258140620E-1,-1.094514012E0,-1.020255566E1,-9.152075052E-1
4.279671870E-1,-1.076404333E0,-1.020959473E1,-9.039164782E-1
4.299671870E-1,-1.038307905E0,-1.021869278E1,-8.665765524E-1
4.319671870E-1,-9.977309108E-1,-1.021905708E1,-8.114045262E-1
4.339671870E-1,-9.487072229E-1,-1.020538998E1,-7.514154315E-1
4.359671870E-1,-9.026331902E-1,-1.018441677E1,-6.919434071E-1
4.379687500E-1,-8.545384407E-1,-1.015464211E1,-6.414737105E-1
4.399687500E-1,-8.031397462E-1,-1.011465931E1,-5.998911858E-1
4.419671870E-1,-7.614040375E-1,-1.006511784E1,-5.793489218E-1
4.439671870E-1,-7.131082416E-1,-1.002206135E1,-5.799714327E-1
4.459671870E-1,-6.623702645E-1,-9.983619690E0,-5.850088596E-1
4.479671870E-1,-6.245036125E-1,-9.947840691E0,-6.011744738E-1
4.499671870E-1,-5.880734324E-1,-9.919953346E0,-6.163920164E-1
4.519921870E-1,-5.604921579E-1,-9.906287193E0,-6.286503077E-1
4.539671870E-1,-5.413672924E-1,-9.887669563E0,-6.291866302E-1
4.559671870E-1,-5.423728824E-1,-9.866486549E0,-6.204047203E-1
4.579671870E-1,-5.523136258E-1,-9.851248741E0,-6.131550074E-1
4.601484370E-1,-5.607507825E-1,-9.832508087E0,-6.084337234E-1
4.620187500E-1,-5.643708110E-1,-9.810969353E0,-5.983205438E-1
4.639671870E-1,-5.601570010E-1,-9.790129662E0,-5.780081749E-1
4.659671870E-1,-5.530222654E-1,-9.786079407E0,-5.625991225E-1
4.679671870E-1,-5.502929091E-1,-9.776962280E0,-5.469889045E-1
4.699671870E-1,-5.369428396E-1,-9.767683029E0,-5.387719870E-1
4.719671870E-1,-5.053681135E-1,-9.763104439E0,-5.349795818E-1
4.739671870E-1,-4.691869318E-1,-9.762912750E0,-5.419132113E-1
4.759671870E-1,-4.465090334E-1,-9.773744583E0,-5.447574854E-1
4.779671870E-1,-4.287249148E-1,-9.784795761E0,-5.519880056E-1
4.801187500E-1,-4.151928723E-1,-9.798710823E0,-5.598888397E-1
4.823578120E-1,-4.123294055E-1,-9.809734344E0,-5.603677034E-1
4.843718750E-1,-4.257848263E-1,-9.818382263E0,-5.621873140E-1
4.860593750E-1,-4.470644891E-1,-9.821666718E0,-5.742636919E-1
4.878140620E-1,-4.699147642E-1,-9.816533089E0,-5.874125957E-1
4.899671870E-1,-4.794532359E-1,-9.815518379E0,-5.904771686E-1
4.919671870E-1,-4.956189096E-1,-9.827000618E0,-5.952273011E-1
4.939671870E-1,-5.126943588E-1,-9.837507248E0,-5.886863470E-1
4.961765620E-1,-5.467207432E-1,-9.839097023E0,-5.797224045E-1
4.978140620E-1,-5.975640416E-1,-9.835887909E0,-5.444031358E-1
5.001484370E-1,-6.187670827E-1,-9.835696220E0,-5.347880125E-1
5.023921870E-1,-6.591045260E-1,-9.841787338E0,-5.104629397E-1
5.040375000E-1,-7.059255838E-1,-9.849555016E0,-4.568423927E-1
5.059671870E-1,-7.235851884E-1,-9.853145599E0,-4.414620697E-1
5.079671870E-1,-7.598621845E-1,-9.867290497E0,-4.171944261E-1
5.099671870E-1,-7.896364927E-1,-9.882105827E0,-3.933481872E-1
5.119671870E-1,-8.235766888E-1,-9.900417328E0,-3.679600954E-1
5.139687500E-1,-8.565687537E-1,-9.911793709E0,-3.329951465E-1
5.159671870E-1,-8.678597808E-1,-9.928869247E0,-3.016119301E-1
5.179671870E-1,-8.820335269E-1,-9.949948311E0,-2.792309523E-1
5.199671870E-1,-8.950292468E-1,-9.957015991E0,-2.526265979E-1
5.219671870E-1,-9.036675096E-1,-9.964331627E0,-2.237525135E-1
5.239687500E-1,-9.003347754E-1,-9.962723732E0,-2.029133737E-1
5.259671870E-1,-8.961975574E-1,-9.960195541E0,-1.808867306E-1
5.279671870E-1,-8.922327757E-1,-9.962943077E0,-1.698734015E-1
5.299671870E-1,-8.838913441E-1,-9.965730667E0,-1.620491445E-1
5.319671870E-1,-8.678023815E-1,-9.965491295E0,-1.497716755E-1
5.341156250E-1,-8.491371274E-1,-9.969264984E0,-1.462569833E-1
5.359671870E-1,-7.678396702E-1,-9.950024605E0,-1.382986605E-1
5.379671870E-1,-6.990015507E-1,-9.929769516E0,-1.387679279E-1
5.401484370E-1,-6.278554797E-1,-9.901058197E0,-1.397926509E-1
5.420187500E-1,-5.738230944E-1,-9.869598389E0,-1.406545490E-1
5.439687500E-1,-5.265807509E-1,-9.843970299E0,-1.380592436E-1
5.459687500E-1,-4.955614209E-1,-9.823189735E0,-1.280035973E-1
5.479671870E-1,-4.808418751E-1,-9.799180984E0,-1.162241250E-1
5.499671870E-1,-4.675014019E-1,-9.780045509E0,-1.004990116E-1
5.519671870E-1,-4.587673545E-1,-9.762424469E0,-9.066362679E-2
5.539687500E-1,-4.473518133E-1,-9.749697685E0,-1.114836037E-1
5.559671870E-1,-4.320576489E-1,-9.725754738E0,-1.479329318E-1
5.579671870E-1,-4.612573385E-1,-9.692551613E0,-1.370057911E-1
5.599671870E-1,-5.077431202E-1,-9.653182030E0,-1.016865298E-1
5.619671870E-1,-5.590652227E-1,-9.625331879E0,-5.977842584E-2
5.639687500E-1,-6.167846918E-1,-9.607509613E0,-1.714248396E-2
5.659671870E-1,-6.821176410E-1,-9.591765404E0,2.887407318E-2
5.679671870E-1,-7.477954030E-1,-9.570917130E0,6.485413015E-2
5.699671870E-1,-8.103128076E-1,-9.567507744E0,8.604760468E-2
5.719671870E-1,-8.819472790E-1,-9.554128647E0,9.535626322E-2
5.739687500E-1,-9.436889887E-1,-9.521136284E0,9.511684626E-2
5.759671870E-1,-9.848213792E-1,-9.485301018E0,7.185478508E-2
5.779671870E-1,-1.005057096E0,-9.460487366E0,3.281971812E-2
5.801500000E-1,-1.002145767E0,-9.430129051E0,-2.571372688E-2
5.821906250E-1,-9.772461057E-1,-9.418348312E0,-9.466673434E-2
5.841750000E-1,-9.250812531E-1,-9.423108101E0,-1.675366461E-1
5.861921870E-1,-8.583308458E-1,-9.433873177E0,-2.415845394E-1
5.879781250E-1,-7.893204093E-1,-9.454951286E0,-3.062854409E-1
5.899671870E-1,-7.197161913E-1,-9.482581139E0,-3.693199754E-1
5.919671870E-1,-6.515101790E-1,-9.517967224E0,-4.221839607E-1
5.939671870E-1,-5.984354615E-1,-9.566214561E0,-4.793479145E-1
5.959671870E-1,-5.529265404E-1,-9.606792450E0,-5.372492671E-1
5.979687500E-1,-5.032037497E-1,-9.657788277E0,-5.908985734E-1
5.999671870E-1,-4.533373117E-1,-9.721655846E0,-6.432262659E-1
6.019671870E-1,-3.904368281E-1,-9.806429863E0,-6.922116280E-1
6.039671870E-1,-3.290303648E-1,-9.898588181E0,-7.404978871E-1
6.059671870E-1,-2.534884810E-1,-9.999852180E0,-7.953634262E-1
6.079687500E-1,-1.879352629E-1,-1.009121609E1,-8.395411968E-1
6.099671870E-1,-1.225448251E-1,-1.018238640E1,-8.809992075E-1
6.119671870E-1,-5.502833053E-2,-1.027420902E1,-9.120376110E-1
6.139671870E-1,-3.878606716E-3,-1.035230732E1,-9.368990064E-1
6.159671870E-1,4.413950443E-2,-1.042129898E1,-9.644610882E-1
6.179687500E-1,8.969637007E-2,-1.049121952E1,-9.855779409E-1
6.201484370E-1,1.338454634E-1,-1.055156231E1,-1.004702806E0
6.220187500E-1,1.523095369E-1,-1.059523296E1,-1.012766480E0
6.239671870E-1,1.666938961E-1,-1.062689495E1,-1.023636222E0
6.259671870E-1,1.747384220E-1,-1.064591408E1,-1.039753914E0
6.279687500E-1,1.773433089E-1,-1.065288544E1,-1.058964968E0
6.299671870E-1,1.820167899E-1,-1.064528084E1,-1.067536235E0
6.319671870E-1,1.828308254E-1,-1.063906670E1,-1.074661374E0
6.339671870E-1,1.836927384E-1,-1.062033367E1,-1.082169533E0
6.359671870E-1,1.849185675E-1,-1.058256340E1,-1.086689830E0
6.379687500E-1,1.826009899E-1,-1.054171753E1,-1.082657933E0
6.399671870E-1,1.782435328E-1,-1.049565315E1,-1.073339701E0
6.419671870E-1,1.574331224E-1,-1.043836498E1,-1.061138868E0
6.439671870E-1,1.393329650E-1,-1.038887215E1,-1.054234028E0
6.459671870E-1,1.099130064E-1,-1.034054756E1,-1.042895198E0
6.479984370E-1,8.697656542E-2,-1.029096889E1,-1.024967313E0
6.499671870E-1,7.118440419E-2,-1.023490620E1,-1.002691627E0
6.519671870E-1,4.048116133E-2,-1.017801952E1,-9.790656567E-1
6.539671870E-1,3.812526539E-2,-1.012967587E1,-9.461406469E-1
6.559671870E-1,3.255156800E-2,-1.007667732E1,-9.181763530E-1
6.579687500E-1,1.866519824E-2,-1.002925396E1,-8.783943057E-1
6.601484370E-1,8.848969825E-3,-9.985678673E0,-8.381812572E-1
6.622453120E-1,-7.278373232E-4,-9.936195374E0,-7.909101844E-1
6.641328120E-1,-1.493024174E-2,-9.877566338E0,-7.442806959E-1
6.659671870E-1,-3.340390325E-2,-9.836883545E0,-6.979193687E-1
6.679671870E-1,-3.846045583E-2,-9.800885201E0,-6.495851874E-1
6.699687500E-1,-2.965936996E-2,-9.768936157E0,-5.967020988E-1
6.719671870E-1,-3.007117286E-2,-9.748978615E0,-5.434646606E-1
6.739687500E-1,-2.697786503E-2,-9.727737427E0,-4.880053401E-1
6.759671870E-1,-1.786074415E-2,-9.699227333E0,-4.362139702E-1
6.779671870E-1,-1.415451989E-2,-9.677411079E0,-3.837234676E-1
6.799671870E-1,-5.746084265E-3,-9.656237602E0,-3.271724582E-1
6.819671870E-1,9.662997909E-3,-9.639658928E0,-2.643677294E-1
6.839687500E-1,2.104982175E-2,-9.631825447E0,-2.049245089E-1
6.859671870E-1,2.919968404E-2,-9.618609428E0,-1.479137838E-1
6.879671870E-1,4.464707151E-2,-9.611609459E0,-9.368032217E-2
6.899671870E-1,6.928820163E-2,-9.605614662E0,-3.601837158E-2
6.919671870E-1,7.985141873E-2,-9.593873024E0,2.507208101E-2
6.939687500E-1,1.003362015E-1,-9.577103615E0,7.726567984E-2
6.959671870E-1,1.213381439E-1,-9.566290855E0,1.178904921E-1
6.979671870E-1,1.268831044E-1,-9.571912766E0,1.513901651E-1
7.001484370E-1,1.341040134E-1,-9.573024750E0,1.718366444E-1
7.020187500E-1,1.444086730E-1,-9.565094948E0,1.863933802E-1
7.039687500E-1,1.512943804E-1,-9.564069748E0,1.917659789E-1
7.059671870E-1,1.378772855E-1,-9.570218086E0,1.915648580E-1
7.079671870E-1,1.171722338E-1,-9.575609207E0,1.936430335E-1
7.099671870E-1,9.146808088E-2,-9.584190369E0,1.821700186E-1
7.119671870E-1,6.539043784E-2,-9.593077660E0,1.760983318E-1
7.139687500E-1,4.000232369E-2,-9.604426384E0,1.658319831E-1
7.159671870E-1,9.979032911E-3,-9.617527008E0,1.455578953E-1
7.179671870E-1,-1.046745013E-2,-9.625945091E0,1.252167523E-1
7.199671870E-1,-2.891238034E-2,-9.625207901E0,1.172967330E-1
7.219671870E-1,-5.160941184E-2,-9.627439499E0,9.253110737E-2
7.239687500E-1,-7.653784007E-2,-9.636891365E0,5.624458566E-2
7.259671870E-1,-1.068867445E-1,-9.652502060E0,2.104024589E-2
7.279671870E-1,-1.393999904E-1,-9.674901962E0,-2.939121984E-2
7.299671870E-1,-1.608712077E-1,-9.693212509E0,-6.223966554E-2
7.319671870E-1,-1.917276829E-1,-9.709196091E0,-1.054310650E-1
7.339687500E-1,-2.216264606E-1,-9.723407745E0,-1.581992656E-1
7.359671870E-1,-2.579704523E-1,-9.735407829E0,-2.075868696E-1
7.379671870E-1,-2.773730457E-1,-9.760183334E0,-2.586407959E-1
7.401484370E-1,-2.947166562E-1,-9.784805298E0,-3.052702844E-1
7.422437500E-1,-3.166379631E-1,-9.796114922E0,-3.438743949E-1
7.441328120E-1,-3.193482161E-1,-9.810585976E0,-3.772591650E-1
7.459671870E-1,-3.306392431E-1,-9.823237419E0,-4.026376903E-1
7.479671870E-1,-3.446213901E-1,-9.834911346E0,-4.242429435E-1
7.499671870E-1,-3.493906558E-1,-9.846000671E0,-4.343273342E-1
7.519671870E-1,-3.604614139E-1,-9.855616570E0,-4.321534038E-1
7.539687500E-1,-3.629514277E-1,-9.862454414E0,-4.402170777E-1
7.559671870E-1,-3.647614121E-1,-9.847150803E0,-4.485776424E-1
7.579671870E-1,-3.719152808E-1,-9.833101273E0,-4.674918354E-1
7.599671870E-1,-3.782455623E-1,-9.820200920E0,-4.803151488E-1
7.619671870E-1,-3.884352744E-1,-9.801842690E0,-4.959349334E-1
7.639687500E-1,-3.982419372E-1,-9.780390739E0,-5.107502937E-1
7.659671870E-1,-3.909156919E-1,-9.763889313E0,-5.252974033E-1
7.679671870E-1,-3.865295053E-1,-9.737850189E0,-5.343858004E-1
7.699671870E-1,-3.861176968E-1,-9.708133698E0,-5.414343476E-1
7.719671870E-1,-3.849014342E-1,-9.689429283E0,-5.373067856E-1
7.739687500E-1,-3.764259517E-1,-9.677028656E0,-5.246940851E-1
7.759671870E-1,-3.780157268E-1,-9.658496857E0,-5.138627291E-1
7.779671870E-1,-3.819422126E-1,-9.638959885E0,-4.985685647E-1
7.801484370E-1,-3.798640370E-1,-9.618475914E0,-4.842991233E-1
7.820187500E-1,-3.826221526E-1,-9.607443810E0,-4.755075872E-1
7.839687500E-1,-3.865486383E-1,-9.603056908E0,-4.726058245E-1
7.859671870E-1,-3.883969784E-1,-9.585425377E0,-4.663809240E-1
7.879671870E-1,-3.977248073E-1,-9.560075760E0,-4.588918388E-1
7.899671870E-1,-4.148002267E-1,-9.542110443E0,-4.548791945E-1
7.919671870E-1,-4.237066507E-1,-9.532648087E0,-4.531553388E-1
7.939687500E-1,-4.223850667E-1,-9.532973289E0,-4.461163878E-1
7.959671870E-1,-4.148768485E-1,-9.537628174E0,-4.429943562E-1
7.979671870E-1,-4.081252217E-1,-9.541918755E0,-4.266276062E-1
7.999671870E-1,-4.040742218E-1,-9.553563118E0,-4.124347568E-1
8.019671870E-1,-3.980695605E-1,-9.565879822E0,-4.110269845E-1
8.039687500E-1,-3.844130337E-1,-9.587571144E0,-3.963361382E-1
8.059671870E-1,-3.809366524E-1,-9.613696098E0,-3.727101684E-1
8.079671870E-1,-3.749894500E-1,-9.638663292E0,-3.522445261E-1
8.099671870E-1,-3.609881699E-1,-9.666733742E0,-3.302561939E-1
8.119671870E-1,-3.515645862E-1,-9.694955826E0,-3.089765310E-1
8.139687500E-1,-3.407236338E-1,-9.723188400E0,-2.741935551E-1
8.159671870E-1,-3.300359249E-1,-9.745550156E0,-2.479435205E-1
8.179671870E-1,-3.298731148E-1,-9.764540672E0,-2.257540673E-1
8.201484370E-1,-3.318746686E-1,-9.789430618E0,-2.082093507E-1
8.222437500E-1,-3.276512921E-1,-9.813143730E0,-1.898027360E-1
8.241312500E-1,-3.255922794E-1,-9.833063126E0,-1.625471413E-1
8.259671870E-1,-3.274980485E-1,-9.855463028E0,-1.303499192E-1
8.279671870E-1,-3.468432128E-1,-9.865844727E0,-9.958921373E-2
8.299671870E-1,-3.587088585E-1,-9.883284569E0,-9.345047921E-2
8.319671870E-1,-3.607104123E-1,-9.904103279E0,-8.916006982E-2
8.339687500E-1,-3.623959422E-1,-9.925622940E0,-9.302909672E-2
8.359671870E-1,-3.636313379E-1,-9.948406219E0,-8.806831390E-2
8.379671870E-1,-3.658244312E-1,-9.969848633E0,-8.474516124E-2
8.399671870E-1,-3.693774343E-1,-9.983743668E0,-8.621999621E-2
8.419671870E-1,-3.628843725E-1,-9.997707367E0,-8.370129764E-2
8.439687500E-1,-3.549260199E-1,-1.001374912E1,-8.053137362E-2
8.459671870E-1,-3.529819250E-1,-1.002275085E1,-6.750690937E-2
8.479671870E-1,-3.524264693E-1,-1.001752186E1,-6.004657596E-2
8.499671870E-1,-3.448608220E-1,-1.002434063E1,-4.782657325E-2
8.519671870E-1,-3.322768807E-1,-1.002756882E1,-3.797203675E-2
8.539687500E-1,-3.174328208E-1,-1.002181244E1,-3.294421360E-2
8.559671870E-1,-3.077602684E-1,-1.002175522E1,-1.937388070E-2
8.579671870E-1,-3.005872369E-1,-1.000983238E1,-7.671022322E-3
8.601484370E-1,-2.900910676E-1,-9.994336128E0,3.754108213E-3
8.620187500E-1,-2.767601311E-1,-9.984003067E0,1.381933223E-2
8.639671870E-1,-2.746149302E-1,-9.973343849E0,1.425986551E-2
8.659671870E-1,-2.622991502E-1,-9.953337669E0,1.551442686E-2
8.679671870E-1,-2.353787571E-1,-9.929674149E0,1.427901909E-2
8.699671870E-1,-2.193088681E-1,-9.906756401E0,9.988609701E-3
8.719687500E-1,-1.926183105E-1,-9.886165619E0,2.738966607E-3
8.739671870E-1,-1.637825519E-1,-9.862137794E0,-2.815581160E-3
8.759671870E-1,-1.377910972E-1,-9.846385002E0,-1.060152519E-2
8.779671870E-1,-1.080263853E-1,-9.838483810E0,-3.389231861E-2
8.799671870E-1,-8.086655289E-2,-9.820124626E0,-5.604347214E-2
8.819671870E-1,-4.735730961E-2,-9.800061226E0,-7.912357897E-2
8.839671870E-1,-2.055182680E-2,-9.792695999E0,-1.055364087E-1
8.859671870E-1,7.565676933E-4,-9.784230232E0,-1.398980021E-1
8.879671870E-1,3.675578162E-2,-9.769817352E0,-1.746522188E-1
8.899671870E-1,5.929001421E-2,-9.745751381E0,-2.173168957E-1
8.919671870E-1,6.337931007E-2,-9.733148575E0,-2.587366104E-1
8.939687500E-1,7.439263165E-2,-9.731663704E0,-2.962776721E-1
8.959671870E-1,8.524315804E-2,-9.721530914E0,-3.363661766E-1
8.979671870E-1,9.430281818E-2,-9.715555191E0,-3.800076842E-1
9.001484370E-1,1.007958874E-1,-9.708669662E0,-4.291846156E-1
9.022453120E-1,1.033912078E-1,-9.706514359E0,-4.687942863E-1
9.041312500E-1,1.024814099E-1,-9.702722549E0,-5.147725344E-1
9.059671870E-1,9.558610618E-2,-9.701889992E0,-5.573988557E-1
9.079671870E-1,7.368395478E-2,-9.700798035E0,-5.814366341E-1
9.099671870E-1,5.453991145E-2,-9.711523056E0,-5.939056873E-1
9.119671870E-1,3.631525114E-2,-9.720162392E0,-6.126666069E-1
9.139687500E-1,-1.877054106E-3,-9.730534554E0,-6.333813071E-1
9.159671870E-1,-2.269703336E-2,-9.743500710E0,-6.554941535E-1
9.179671870E-1,-3.077028133E-2,-9.763401031E0,-6.683174372E-1
9.199671870E-1,-4.278917238E-2,-9.788425446E0,-6.760842204E-1
9.219671870E-1,-6.325481087E-2,-9.804447174E0,-6.726078391E-1
9.239687500E-1,-8.486008644E-2,-9.828044891E0,-6.635194421E-1
9.259671870E-1,-1.042722687E-1,-9.841423988E0,-6.568157077E-1
9.279671870E-1,-1.190205514E-1,-9.853451729E0,-6.417705417E-1
9.301500000E-1,-1.439298242E-1,-9.866477013E0,-6.184510589E-1
9.321906250E-1,-1.635814309E-1,-9.898674011E0,-5.850950480E-1
9.339703120E-1,-1.903773546E-1,-9.928466797E0,-5.700690150E-1
9.359671870E-1,-2.153345048E-1,-9.952686310E0,-5.475347638E-1
9.379671870E-1,-2.312032580E-1,-9.965538979E0,-5.065364838E-1
9.401484370E-1,-2.351201773E-1,-9.985507011E0,-4.581544399E-1
9.420187500E-1,-2.330707461E-1,-1.002970314E1,-4.062385559E-1
9.439687500E-1,-2.417664975E-1,-1.007165909E1,-3.599538505E-1
9.459671870E-1,-2.498780340E-1,-1.010802269E1,-3.175573349E-1
9.479671870E-1,-2.508836091E-1,-1.014291096E1,-2.761376202E-1
9.499671870E-1,-2.592058480E-1,-1.017379570E1,-2.435669303E-1
9.519671870E-1,-2.689167559E-1,-1.019046021E1,-2.178244740E-1
9.539687500E-1,-2.762046754E-1,-1.019628239E1,-1.940931380E-1
9.559671870E-1,-2.704298794E-1,-1.020605087E1,-1.774007678E-1
9.579671870E-1,-2.632281184E-1,-1.021420956E1,-1.596836746E-1
9.599671870E-1,-2.692232132E-1,-1.022261906E1,-1.375612468E-1
9.619671870E-1,-2.772293985E-1,-1.022148800E1,-1.282525957E-1
9.639687500E-1,-2.750650346E-1,-1.021243858E1,-1.195951626E-1
9.659671870E-1,-2.667236328E-1,-1.020369530E1,-1.114069894E-1
9.679671870E-1,-2.477711439E-1,-1.019482708E1,-9.486784786E-2
9.699671870E-1,-2.161006480E-1,-1.018684006E1,-6.946057826E-2
9.719671870E-1,-1.983931214E-1,-1.016428566E1,-6.246950850E-2
9.739687500E-1,-2.050777376E-1,-1.013012600E1,-6.327396631E-2
9.759671870E-1,-2.187055349E-1,-1.010278416E1,-5.497087166E-2
9.779671870E-1,-2.131797224E-1,-1.007364178E1,-4.397669435E-2
9.801500000E-1,-2.020418942E-1,-1.004323578E1,-3.326982632E-2
9.822468750E-1,-1.982494742E-1,-1.001446724E1,-2.870169096E-2
9.843125000E-1,-2.018312067E-1,-9.992516518E0,-2.580949478E-2
9.862328120E-1,-2.169912905E-1,-9.982614517E0,-3.251326084E-2
9.884171870E-1,-2.302072793E-1,-9.983131409E0,-3.265691176E-2
9.900203120E-1,-2.379740775E-1,-9.984290123E0,-3.005201928E-2
9.919671870E-1,-2.493896335E-1,-9.987173080E0,-3.053086065E-2
9.939671870E-1,-2.596080899E-1,-9.981484413E0,-4.338293523E-2
9.959671870E-1,-2.726037800E-1,-9.970958710E0,-5.224148184E-2
9.979671870E-1,-2.922649980E-1,-9.979022980E0,-6.041049585E-2
9.999687500E-1,-3.103556037E-1,-9.990447998E0,-6.456683576E-2
1.001967187E0,-3.246920407E-1,-9.998090744E0,-7.082048804E-2
1.003967187E0,-3.318076134E-1,-9.992842674E0,-7.831912488E-2
1.005967187E0,-3.295762241E-1,-9.979224205E0,-8.395028859E-2
1.007967187E0,-3.323247731E-1,-9.954965591E0,-1.045404226E-1
1.009968750E0,-3.391434550E-1,-9.934720993E0,-1.262031645E-1
1.011967187E0,-3.541407585E-1,-9.911956787E0,-1.479520947E-1
1.013967187E0,-3.637175560E-1,-9.893808365E0,-1.632175148E-1
1.015967187E0,-3.866731524E-1,-9.868496895E0,-1.675366461E-1
1.017967187E0,-4.001477063E-1,-9.842850685E0,-1.763185859E-1
1.020148437E0,-4.029824436E-1,-9.820785522E0,-1.973396689E-1
1.022018750E0,-4.187075794E-1,-9.802839279E0,-2.181309313E-1
1.023967187E0,-4.336761236E-1,-9.794813156E0,-2.222202271E-1
1.025967187E0,-4.497364163E-1,-9.787985802E0,-2.306956947E-1
1.027967187E0,-4.531745017E-1,-9.785513878E0,-2.409907728E-1
1.029968750E0,-4.626938403E-1,-9.788013458E0,-2.410386503E-1
1.031967187E0,-4.711597264E-1,-9.780113220E0,-2.482595742E-1
1.033967187E0,-4.789552689E-1,-9.774070740E0,-2.593973875E-1
1.035967187E0,-4.778922498E-1,-9.764033318E0,-2.758216262E-1
1.037967187E0,-4.706521630E-1,-9.760394096E0,-2.991985977E-1
1.039968750E0,-4.699913561E-1,-9.764349937E0,-3.121368587E-1
1.041967187E0,-4.725962579E-1,-9.777277946E0,-3.150865138E-1
1.043967187E0,-4.754501581E-1,-9.788799286E0,-3.076070249E-1
1.045967187E0,-4.656434953E-1,-9.808642387E0,-3.106811941E-1
1.047967187E0,-4.632014036E-1,-9.822432518E0,-3.061800897E-1
1.049968750E0,-4.580395222E-1,-9.832123756E0,-2.988155186E-1
1.051967187E0,-4.410215020E-1,-9.850790024E0,-2.923320234E-1
1.053967187E0,-4.291846156E-1,-9.864532471E0,-2.897654474E-1
1.055967187E0,-4.322300255E-1,-9.878495216E0,-2.840097845E-1
1.057967187E0,-4.258710444E-1,-9.905128479E0,-2.779285014E-1
1.060150000E0,-4.185926616E-1,-9.929740906E0,-2.651626170E-1
1.062260937E0,-4.035283327E-1,-9.946902275E0,-2.527894080E-1
1.064165625E0,-3.866635859E-1,-9.961737633E0,-2.282153070E-1
1.065967187E0,-3.676248789E-1,-9.982106209E0,-2.092628032E-1
1.067967187E0,-3.511048853E-1,-1.000559902E1,-1.924650818E-1
1.069967187E0,-3.408576846E-1,-1.003205013E1,-1.750640273E-1
1.071967187E0,-3.372951448E-1,-1.006391239E1,-1.549718976E-1
1.073968750E0,-3.343933821E-1,-1.009258461E1,-1.475402862E-1
1.075967187E0,-3.252092004E-1,-1.012886238E1,-1.302062720E-1
1.077967187E0,-3.284940422E-1,-1.016012955E1,-1.131020859E-1
1.079967187E0,-3.339336812E-1,-1.018182087E1,-9.063490480E-2
1.081967187E0,-3.381091654E-1,-1.018697357E1,-6.246950850E-2
1.083968750E0,-3.326790929E-1,-1.019196415E1,-3.910209984E-2
1.085967187E0,-3.263584375E-1,-1.019457817E1,-2.594356984E-2
1.087967187E0,-3.217711151E-1,-1.019440556E1,-1.921107434E-2
1.089967187E0,-3.200377226E-1,-1.019357204E1,-1.072602347E-2
1.091967187E0,-3.229107559E-1,-1.018447495E1,-9.289502166E-3
1.093968750E0,-3.094649315E-1,-1.017263794E1,-3.581725759E-3
1.095967187E0,-2.956551909E-1,-1.017147827E1,3.543418716E-4
1.097967187E0,-2.851302922E-1,-1.016916084E1,7.852981798E-4
1.100148437E0,-2.759652734E-1,-1.017121124E1,-2.413355280E-3
1.102021875E0,-2.712726295E-1,-1.016906548E1,-1.493024174E-2
1.103968750E0,-2.668673098E-1,-1.015465260E1,-2.683421411E-2
1.105967187E0,-2.650094032E-1,-1.013623619E1,-4.495352879E-2
1.107967187E0,-2.646071911E-1,-1.012953186E1,-6.107129529E-2
1.109967187E0,-2.608913481E-1,-1.011929512E1,-8.189127594E-2
1.111967187E0,-2.631132007E-1,-1.010623169E1,-1.085531116E-1
1.113968750E0,-2.690699697E-1,-1.008943462E1,-1.252263188E-1
1.115967187E0,-2.692710757E-1,-1.007147789E1,-1.331559122E-1
1.117967187E0,-2.799971104E-1,-1.005643272E1,-1.473966390E-1
1.119967187E0,-2.951667607E-1,-1.003465462E1,-1.623077244E-1
1.121985937E0,-3.220201433E-1,-1.001250362E1,-1.739818454E-1
1.123967187E0,-3.438839614E-1,-9.998186111E0,-1.805228144E-1
1.125967187E0,-3.643783629E-1,-9.975202560E0,-1.844301522E-1
1.127967187E0,-3.903698027E-1,-9.952571869E0,-1.907316893E-1
1.129967187E0,-4.033367932E-1,-9.930880547E0,-1.896207780E-1
1.131968750E0,-4.184968770E-1,-9.915759087E0,-1.913733333E-1
1.133967187E0,-4.361756444E-1,-9.898951530E0,-1.966980249E-1
1.135967187E0,-4.461451173E-1,-9.886827469E0,-2.017641664E-1
1.137967187E0,-4.536437690E-1,-9.875047684E0,-2.007681727E-1
1.140148437E0,-4.596292675E-1,-9.851527214E0,-2.085924298E-1
1.142315625E0,-4.665341377E-1,-9.831031799E0,-2.116570175E-1
1.144179687E0,-4.715236425E-1,-9.813546181E0,-2.148748189E-1
1.145967187E0,-4.604241252E-1,-9.794353485E0,-2.104024440E-1
1.147967187E0,-4.583747089E-1,-9.777938843E0,-2.003276497E-1
1.149967187E0,-4.581448734E-1,-9.760508537E0,-1.935664266E-1
1.151967187E0,-4.518816173E-1,-9.751784325E0,-1.783584505E-1
1.153968750E0,-4.523030221E-1,-9.741738319E0,-1.718941033E-1
1.155967187E0,-4.462504685E-1,-9.720420837E0,-1.594251096E-1
1.157967187E0,-4.412800968E-1,-9.708353043E0,-1.539184451E-1
1.159967187E0,-4.421803355E-1,-9.695242882E0,-1.509496272E-1
1.161967187E0,-4.508568943E-1,-9.694869995E0,-1.484692395E-1
1.163968750E0,-4.506653845E-1,-9.692811012E0,-1.536502838E-1
1.165967187E0,-4.482998848E-1,-9.688366890E0,-1.567340195E-1
1.167967187E0,-4.440382421E-1,-9.688549042E0,-1.546271145E-1
1.169967187E0,-4.447564781E-1,-9.689908981E0,-1.628152877E-1
1.171967187E0,-4.437988102E-1,-9.703594208E0,-1.730529070E-1
1.173968750E0,-4.375451207E-1,-9.725822449E0,-1.757631451E-1
1.175967187E0,-4.336282313E-1,-9.740617752E0,-1.752555668E-1
1.177967187E0,-4.256124496E-1,-9.757501602E0,-1.814996451E-1
1.180148437E0,-4.254304767E-1,-9.771819115E0,-1.828403920E-1
1.182021875E0,-4.247313738E-1,-9.795042992E0,-1.877628714E-1
1.183968750E0,-4.250091016E-1,-9.819664955E0,-1.923884749E-1
1.185967187E0,-4.425538182E-1,-9.842391014E0,-2.047808468E-1
1.187967187E0,-4.469112456E-1,-9.863095284E0,-2.116186917E-1
1.189967187E0,-4.416344464E-1,-9.887689590E0,-2.051543593E-1
1.191967187E0,-4.372003675E-1,-9.911793709E0,-1.998200715E-1
1.193968750E0,-4.411939085E-1,-9.938666344E0,-2.026643902E-1
1.195968750E0,-4.447181821E-1,-9.968555450E0,-1.992837638E-1
1.197967187E0,-4.564880729E-1,-9.995227814E0,-1.848323643E-1
1.199967187E0,-4.662755728E-1,-1.001822090E1,-1.727273017E-1
1.201967187E0,-4.769345820E-1,-1.004577351E1,-1.628823280E-1
1.203968750E0,-4.711214304E-1,-1.006824970E1,-1.567723304E-1
1.205967187E0,-4.626268148E-1,-1.008569908E1,-1.495226920E-1
1.207967187E0,-4.621479809E-1,-1.011386395E1,-1.441405118E-1
1.209967187E0,-4.572159052E-1,-1.013057613E1,-1.427231431E-1
1.211967187E0,-4.511537850E-1,-1.014701939E1,-1.480191201E-1
1.213968750E0,-4.532990158E-1,-1.015143490E1,-1.571075171E-1
1.215967187E0,-4.493820667E-1,-1.015221977E1,-1.611680686E-1
1.217967187E0,-4.310329258E-1,-1.016323376E1,-1.751214862E-1
1.220148437E0,-4.171944261E-1,-1.016556931E1,-1.880597472E-1
1.222260937E0,-4.118314087E-1,-1.015353107E1,-1.894005090E-1
1.224321875E0,-3.980408311E-1,-1.015392494E1,-1.847461909E-1
1.225814062E0,-3.821911812E-1,-1.013329601E1,-1.863263547E-1
1.227970312E0,-3.733230829E-1,-1.012614155E1,-1.894005090E-1
1.229967187E0,-3.493810594E-1,-1.011970615E1,-1.959989369E-1
1.231967187E0,-3.385018110E-1,-1.010765934E1,-2.022908926E-1
1.233967187E0,-3.306105435E-1,-1.010314846E1,-2.075677067E-1
1.235967187E0,-3.214359581E-1,-1.010192204E1,-2.022142857E-1
1.237967187E0,-3.102789521E-1,-1.009374428E1,-2.011799812E-1
1.239967187E0,-3.016981483E-1,-1.008606339E1,-1.924267709E-1
1.241967187E0,-2.908188701E-1,-1.008021164E1,-1.922639757E-1
1.243967187E0,-2.743659317E-1,-1.006835556E1,-1.976078302E-1
1.245967187E0,-2.700467706E-1,-1.006188202E1,-2.056810707E-1
1.247967187E0,-2.630078495E-1,-1.006092358E1,-2.147407383E-1
1.249967187E0,-2.623566389E-1,-1.004260349E1,-2.209560871E-1
1.251967187E0,-2.593782246E-1,-1.002888966E1,-2.348903418E-1
1.253967187E0,-2.574054301E-1,-1.001959038E1,-2.574628592E-1
1.255967187E0,-2.500504255E-1,-9.998348236E0,-2.749980092E-1
1.257968750E0,-2.496577799E-1,-9.973879814E0,-2.928204238E-1
1.260148437E0,-2.453577816E-1,-9.964236259E0,-3.104896545E-1
1.262021875E0,-2.298146337E-1,-9.958921432E0,-3.283982873E-1
1.263967187E0,-2.168189138E-1,-9.949315071E0,-3.484233618E-1
1.265967187E0,-2.035454512E-1,-9.942698479E0,-3.641389012E-1
1.267967187E0,-1.967076063E-1,-9.933935165E0,-3.828615844E-1
1.269967187E0,-1.876479536E-1,-9.927490234E0,-3.950336874E-1
1.271967187E0,-1.736945510E-1,-9.925201416E0,-3.989027441E-1
1.273967187E0,-1.684081405E-1,-9.923151970E0,-4.071291983E-1
1.275967187E0,-1.684655994E-1,-9.920785904E0,-4.150109291E-1
1.277967187E0,-1.771038771E-1,-9.917970657E0,-4.203739464E-1
1.280150000E0,-1.833000779E-1,-9.911429405E0,-4.104715288E-1
1.282190625E0,-1.868626624E-1,-9.904611588E0,-4.031931460E-1
1.283970312E0,-1.827350408E-1,-9.907187462E0,-4.005307853E-1
1.285967187E0,-1.820838302E-1,-9.914360046E0,-3.987686336E-1
1.287967187E0,-1.816528738E-1,-9.913057327E0,-3.953593075E-1
1.289967187E0,-1.889503896E-1,-9.907187462E0,-3.813771605E-1
1.291967187E0,-1.980387866E-1,-9.913048744E0,-3.750373125E-1
1.293968750E0,-1.943229884E-1,-9.903499603E0,-3.717907965E-1
1.295967187E0,-1.952519417E-1,-9.896749496E0,-3.722409010E-1
1.297967187E0,-1.919670850E-1,-9.890859604E0,-3.752384484E-1
1.300148437E0,-1.949646324E-1,-9.884777069E0,-3.790979087E-1
1.302409375E0,-1.905592978E-1,-9.877460480E0,-3.750564754E-1
1.304056250E0,-1.919383556E-1,-9.860960007E0,-3.758800924E-1
1.305967187E0,-1.888546348E-1,-9.856488228E0,-3.756598234E-1
1.307967187E0,-1.869296879E-1,-9.847379684E0,-3.795480132E-1
1.309967187E0,-1.810591072E-1,-9.837094307E0,-3.827275038E-1
1.311967187E0,-1.838842630E-1,-9.824789047E0,-3.769335449E-1
1.313968750E0,-1.828116626E-1,-9.817644119E0,-3.729304075E-1
1.315967187E0,-1.782052219E-1,-9.814895630E0,-3.688698709E-1
1.317967187E0,-1.749969870E-1,-9.810806274E0,-3.704212904E-1
1.319967187E0,-1.693275124E-1,-9.799726486E0,-3.737253249E-1
1.321967187E0,-1.670003533E-1,-9.789525986E0,-3.728442490E-1
1.323968750E0,-1.666651666E-1,-9.783665657E0,-3.688603044E-1
1.325967187E0,-1.605551541E-1,-9.782152176E0,-3.688411117E-1
1.327967187E0,-1.551059633E-1,-9.775669098E0,-3.683239818E-1
1.329967187E0,-1.502505243E-1,-9.772958755E0,-3.701148331E-1
1.331967187E0,-1.472146809E-1,-9.761237144E0,-3.673663139E-1
1.333968750E0,-1.439777017E-1,-9.753469467E0,-3.734954596E-1
1.335967187E0,-1.383944452E-1,-9.752435684E0,-3.744339943E-1
1.337967187E0,-1.405779421E-1,-9.745244026E0,-3.677876890E-1
1.340148437E0,-1.343051493E-1,-9.740465164E0,-3.571191430E-1
1.342021875E0,-1.347935498E-1,-9.742313385E0,-3.490362763E-1
1.343968750E0,-1.392276138E-1,-9.738520622E0,-3.416142762E-1
1.345968750E0,-1.423592418E-1,-9.740608215E0,-3.216370642E-1
1.347967187E0,-1.499153227E-1,-9.734987259E0,-2.999072969E-1
1.349967187E0,-1.588217616E-1,-9.731807709E0,-2.843737006E-1
1.351967187E0,-1.611201912E-1,-9.729623795E0,-2.758407593E-1
1.353968750E0,-1.544547379E-1,-9.722939491E0,-2.661011517E-1
1.355967187E0,-1.557476074E-1,-9.722517967E0,-2.565243542E-1
1.357967187E0,-1.685039252E-1,-9.719712257E0,-2.377633750E-1
1.359967187E0,-1.748246104E-1,-9.719596863E0,-2.298529297E-1
1.361967187E0,-1.763856262E-1,-9.722029686E0,-2.213104218E-1
1.363968750E0,-1.758014411E-1,-9.730869293E0,-2.148652375E-1
1.365967187E0,-1.757918745E-1,-9.741335869E0,-2.165603340E-1
1.367967187E0,-1.771613508E-1,-9.757089615E0,-2.275545001E-1
1.369967187E0,-1.750831753E-1,-9.767404556E0,-2.371121496E-1
1.371968750E0,-1.786265969E-1,-9.775602341E0,-2.434232831E-1
1.373968750E0,-1.830798239E-1,-9.780438423E0,-2.489107847E-1
1.375967187E0,-1.801876277E-1,-9.789086342E0,-2.556145489E-1
1.377967187E0,-1.836065352E-1,-9.796402931E0,-2.648944557E-1
1.380148437E0,-1.908274591E-1,-9.796613693E0,-2.648274601E-1
1.382409375E0,-1.977897882E-1,-9.799870491E0,-2.611882687E-1
1.384206250E0,-2.033922225E-1,-9.812492371E0,-2.728719413E-1
1.385814062E0,-2.053554654E-1,-9.825133324E0,-2.742414176E-1
1.387967187E0,-2.153249234E-1,-9.831167221E0,-2.770091295E-1
1.389967187E0,-2.310787588E-1,-9.830495834E0,-2.828222513E-1
1.391967187E0,-2.531437278E-1,-9.830438614E0,-2.975035012E-1
1.393967187E0,-2.670013607E-1,-9.840121269E0,-3.018322289E-1
1.396115625E0,-2.891142368E-1,-9.842495918E0,-3.057586849E-1
1.397967187E0,-3.046573699E-1,-9.837075233E0,-3.132382035E-1
1.399967187E0,-3.190704584E-1,-9.836692810E0,-3.299784660E-1
1.401967187E0,-3.280056417E-1,-9.836730003E0,-3.407044709E-1
1.403967187E0,-3.312521577E-1,-9.844659805E0,-3.508941829E-1
1.405967187E0,-3.451768458E-1,-9.847026825E0,-3.564870656E-1
1.407967187E0,-3.503291607E-1,-9.848625183E0,-3.555485308E-1
1.409967187E0,-3.552229404E-1,-9.866514206E0,-3.581151068E-1
1.411967187E0,-3.653839231E-1,-9.877078056E0,-3.582012951E-1
1.413967187E0,-3.688698709E-1,-9.895370483E0,-3.572244644E-1
1.415967187E0,-3.656616509E-1,-9.897783279E0,-3.514305055E-1
1.417967187E0,-3.555676937E-1,-9.899717331E0,-3.470826447E-1
1.420148437E0,-3.537289500E-1,-9.900790215E0,-3.436158001E-1
1.422021875E0,-3.492948711E-1,-9.903548241E0,-3.497258425E-1
1.423967187E0,-3.402064741E-1,-9.900148392E0,-3.514592350E-1
1.425967187E0,-3.381091654E-1,-9.895350456E0,-3.519667983E-1
1.427967187E0,-3.401202857E-1,-9.896759033E0,-3.564391732E-1
1.429967187E0,-3.240504265E-1,-9.899018288E0,-3.622139990E-1
1.431968750E0,-3.033549190E-1,-9.914782524E0,-3.668491542E-1
1.433967187E0,-2.781966627E-1,-9.928831100E0,-3.651253283E-1
1.435967187E0,-2.578746676E-1,-9.940600395E0,-3.536044359E-1
1.437967187E0,-2.346796542E-1,-9.959094048E0,-3.389902413E-1
1.439967187E0,-2.190886140E-1,-9.978764534E0,-3.348243237E-1
1.441968750E0,-2.067824155E-1,-9.999383926E0,-3.389806449E-1
1.443967187E0,-1.933269948E-1,-1.001170921E1,-3.427347839E-1
1.445967187E0,-1.843631119E-1,-1.001939869E1,-3.398329914E-1
1.447967187E0,-1.781286001E-1,-1.002497292E1,-3.419398665E-1
1.449967187E0,-1.682740748E-1,-1.002729988E1,-3.428209424E-1
1.451995312E0,-1.528266817E-1,-1.002340221E1,-3.455120325E-1
1.453967187E0,-1.414015442E-1,-1.001567364E1,-3.530202508E-1
1.455967187E0,-1.364024729E-1,-1.000174904E1,-3.642442524E-1
1.457967187E0,-1.396106929E-1,-9.991195679E0,-3.678259850E-1
1.460148437E0,-1.352245212E-1,-9.987996101E0,-3.772878647E-1
1.462260937E0,-1.243261024E-1,-9.979770660E0,-3.861272633E-1
1.464165625E0,-1.207443774E-1,-9.973545074E0,-3.881479800E-1
1.465967187E0,-1.139544249E-1,-9.969877243E0,-3.942196667E-1
1.467967187E0,-1.192120910E-1,-9.973401070E0,-3.965085447E-1
1.469967187E0,-1.201123148E-1,-9.976179123E0,-3.935492933E-1
1.471967187E0,-1.223245561E-1,-9.976140976E0,-3.844704926E-1
1.473967187E0,-1.250635237E-1,-9.983562469E0,-3.689847887E-1
1.475967187E0,-1.328781843E-1,-9.980794907E0,-3.599730134E-1
1.477967187E0,-1.442458630E-1,-9.981570244E0,-3.442574739E-1
1.480118750E0,-1.468507499E-1,-9.987967491E0,-3.367492557E-1
1.482370312E0,-1.487661153E-1,-9.999268532E0,-3.257263601E-1
1.484251562E0,-1.547899395E-1,-1.000250626E1,-3.136978745E-1
1.485981250E0,-1.606892347E-1,-9.997726440E0,-2.928300202E-1
1.487967187E0,-1.676228493E-1,-9.998147964E0,-2.711864412E-1
1.489967187E0,-1.729858518E-1,-9.997621536E0,-2.594357133E-1
1.491967187E0,-1.755428612E-1,-9.991042137E0,-2.592250109E-1
1.493967187E0,-1.767112464E-1,-9.984127998E0,-2.628929019E-1
1.495968750E0,-1.773624569E-1,-9.977644920E0,-2.683325410E-1
1.497967187E0,-1.858379394E-1,-9.973421097E0,-2.734273970E-1
1.500148437E0,-1.897069663E-1,-9.970442772E0,-2.845365107E-1
1.502021875E0,-1.874468327E-1,-9.963393211E0,-2.983462512E-1
1.503967187E0,-1.894388050E-1,-9.954736710E0,-3.087275028E-1
1.505968750E0,-1.965447962E-1,-9.947812080E0,-3.120219409E-1
1.507967187E0,-1.971002668E-1,-9.941329002E0,-3.198844790E-1
1.509967187E0,-1.932791173E-1,-9.937880516E0,-3.376494646E-1
1.511967187E0,-1.930971593E-1,-9.948348999E0,-3.509708345E-1
1.513967187E0,-1.942655295E-1,-9.966573715E0,-3.610934913E-1
1.515968750E0,-1.925895810E-1,-9.972644806E0,-3.696647286E-1
1.517967187E0,-1.979047060E-1,-9.969819069E0,-3.821624815E-1
1.519967187E0,-1.964873523E-1,-9.969733238E0,-3.918829262E-1
1.521967187E0,-1.833192259E-1,-9.966879845E0,-4.059225321E-1
1.523967187E0,-1.762994379E-1,-9.961717606E0,-4.153939784E-1
1.525968750E0,-1.724974364E-1,-9.948195457E0,-4.258422852E-1
1.527967187E0,-1.809729189E-1,-9.937603951E0,-4.280545413E-1
1.529967187E0,-1.820551008E-1,-9.916027069E0,-4.326035082E-1
1.531967187E0,-1.886822581E-1,-9.898195267E0,-4.358500540E-1
1.533967187E0,-1.936143041E-1,-9.891587257E0,-4.391061664E-1
1.535968750E0,-1.965639591E-1,-9.891452789E0,-4.347583055E-1
1.537967187E0,-1.989198625E-1,-9.887718201E0,-4.290888309E-1
1.540148437E0,-1.987762004E-1,-9.893310547E0,-4.157004356E-1
1.542254687E0,-1.924938262E-1,-9.891040802E0,-3.993145525E-1
1.544159375E0,-1.971194148E-1,-9.889489174E0,-3.887512982E-1
1.545967187E0,-1.936334521E-1,-9.894757271E0,-3.789542615E-1
1.547967187E0,-2.020418942E-1,-9.903079033E0,-3.685251176E-1
1.549967187E0,-2.045510113E-1,-9.907311440E0,-3.561518490E-1
1.551967187E0,-2.039476782E-1,-9.914523125E0,-3.331866860E-1
1.553968750E0,-2.131988704E-1,-9.923401833E0,-3.066876531E-1
1.555967187E0,-2.267979383E-1,-9.929558754E0,-2.803035676E-1
1.557967187E0,-2.294507176E-1,-9.945054054E0,-2.505579889E-1
1.559967187E0,-2.400809675E-1,-9.963250160E0,-2.348041534E-1
1.561967187E0,-2.552506328E-1,-9.965787888E0,-2.117240429E-1
1.563968750E0,-2.701521218E-1,-9.970902443E0,-1.908466071E-1
1.565967187E0,-2.737530172E-1,-9.976380348E0,-1.694711745E-1
1.567967187E0,-2.815485597E-1,-9.974445343E0,-1.513039768E-1
1.569967187E0,-2.892387211E-1,-9.973670006E0,-1.356363147E-1
1.571967187E0,-3.109301627E-1,-9.967539787E0,-1.182161048E-1
1.573968750E0,-3.315394819E-1,-9.964427948E0,-1.107461900E-1
1.575967187E0,-3.485957682E-1,-9.962445259E0,-1.092713624E-1
1.577967187E0,-3.593122363E-1,-9.965721130E0,-1.106408462E-1
1.580148437E0,-3.621948361E-1,-9.965941429E0,-1.087350622E-1
1.582021875E0,-3.722121716E-1,-9.974264145E0,-1.058428660E-1
1.583968750E0,-3.805918992E-1,-9.991013527E0,-1.082179174E-1
1.585967187E0,-3.918829262E-1,-9.999680519E0,-1.160900518E-1
1.587967187E0,-4.031069577E-1,-1.000467968E1,-1.213285699E-1
1.589967187E0,-4.115441144E-1,-1.000425816E1,-1.322078258E-1
1.591967187E0,-4.194545448E-1,-9.995255470E0,-1.425890774E-1
1.593968750E0,-4.358979464E-1,-9.991817474E0,-1.503367126E-1
1.595967187E0,-4.433295429E-1,-1.000379753E1,-1.621161848E-1
1.597967187E0,-4.500811696E-1,-1.001448631E1,-1.764622331E-1
1.599967187E0,-4.636132121E-1,-1.000918102E1,-1.909327954E-1
1.601967187E0,-4.869614840E-1,-1.000362587E1,-2.025398910E-1
1.603968750E0,-4.984536469E-1,-1.000990868E1,-2.106227130E-1
1.605967187E0,-5.076473951E-1,-1.001389217E1,-2.134765983E-1
1.607967187E0,-5.175785422E-1,-1.000641346E1,-2.213678956E-1
1.609967187E0,-5.212751627E-1,-1.000742817E1,-2.440170497E-1
1.611967187E0,-5.209782720E-1,-1.001552010E1,-2.621938288E-1
1.613968750E0,-5.184787512E-1,-1.002291393E1,-2.711864412E-1
1.615967187E0,-5.240524411E-1,-1.002628422E1,-2.738870978E-1
1.617967187E0,-5.311297178E-1,-1.003505707E1,-2.605657578E-1
1.620148437E0,-5.319054723E-1,-1.003934765E1,-2.513241470E-1
1.622260937E0,-5.257858038E-1,-1.004248810E1,-2.479626834E-1
1.624165625E0,-5.279980898E-1,-1.003970242E1,-2.412206084E-1
1.625967187E0,-5.310722589E-1,-1.003327560E1,-2.321609557E-1
1.627967187E0,-5.280938745E-1,-1.003097725E1,-2.321801037E-1
1.630150000E0,-5.192161798E-1,-1.002235794E1,-2.276215553E-1
1.632190625E0,-5.081357956E-1,-1.001338482E1,-2.277939320E-1
1.633968750E0,-5.059810281E-1,-1.000969696E1,-2.257636487E-1
1.635967187E0,-5.028781295E-1,-9.997122765E0,-2.276311219E-1
1.637967187E0,-4.958583415E-1,-9.980871201E0,-2.309830040E-1
1.639967187E0,-4.838873148E-1,-9.969541550E0,-2.428773940E-1
1.641967187E0,-4.743105173E-1,-9.961536407E0,-2.458079010E-1
1.643968750E0,-4.713799953E-1,-9.947093964E0,-2.474934161E-1
1.645967187E0,-4.684207737E-1,-9.938599586E0,-2.434232831E-1
1.648000000E0,-4.547546804E-1,-9.921073914E0,-2.507207990E-1
1.649967187E0,-4.369513988E-1,-9.908317566E0,-2.519945204E-1
1.651967187E0,-4.163612723E-1,-9.901517868E0,-2.578076422E-1
1.653968750E0,-3.957423866E-1,-9.900608063E0,-2.643390298E-1
1.655967187E0,-3.772687316E-1,-9.897726059E0,-2.638218701E-1
1.657968750E0,-3.629992902E-1,-9.885964394E0,-2.612648606E-1
1.660146875E0,-3.599442840E-1,-9.880620956E0,-2.622512877E-1
1.662021875E0,-3.500993252E-1,-9.882039070E0,-2.619256675E-1
1.663968750E0,-3.368258774E-1,-9.874626160E0,-2.582673430E-1
1.665967187E0,-3.146555722E-1,-9.855319023E0,-2.520711422E-1
1.667967187E0,-2.906752229E-1,-9.835735321E0,-2.500408590E-1
1.669967187E0,-2.663118243E-1,-9.824635506E0,-2.563040853E-1
1.671967187E0,-2.471869588E-1,-9.810317993E0,-2.573288083E-1
1.673968750E0,-2.291346788E-1,-9.791978836E0,-2.598570883E-1
1.675967187E0,-2.125572264E-1,-9.772853851E0,-2.631227672E-1
1.677967187E0,-1.923405975E-1,-9.755021095E0,-2.574341297E-1
1.679967187E0,-1.809346229E-1,-9.748834610E0,-2.515731454E-1
1.681967187E0,-1.770655811E-1,-9.739660263E0,-2.456450909E-1
1.683968750E0,-1.566191018E-1,-9.738625526E0,-2.375526875E-1
1.685967187E0,-1.305606067E-1,-9.738061905E0,-2.255721092E-1
1.687967187E0,-1.158314794E-1,-9.745971680E0,-2.129881829E-1
1.689967187E0,-1.002308577E-1,-9.754734039E0,-2.074049115E-1
1.691967187E0,-9.552864730E-2,-9.759350777E0,-1.995806545E-1
1.693968750E0,-8.142201602E-2,-9.771014214E0,-1.926853508E-1
1.695967187E0,-7.251557708E-2,-9.789229393E0,-1.901762187E-1
1.697967187E0,-7.111737132E-2,-9.798864365E0,-1.905210018E-1
1.700148437E0,-7.702626288E-2,-9.809465408E0,-1.887971610E-1
1.702315625E0,-7.944919169E-2,-9.816361427E0,-1.773145795E-1
1.704179687E0,-8.920795470E-2,-9.833733559E0,-1.727273017E-1
1.705967187E0,-9.137231112E-2,-9.855980873E0,-1.758110225E-1
1.707967187E0,-9.166919440E-2,-9.875881195E0,-1.743553430E-1
1.709967187E0,-9.506896138E-2,-9.892592430E0,-1.783392876E-1
1.711967187E0,-9.584467858E-2,-9.911439896E0,-1.769602299E-1
1.713968750E0,-1.021079198E-1,-9.936491966E0,-1.824285835E-1
1.715967187E0,-1.127956286E-1,-9.955569267E0,-1.944474727E-1
1.717967187E0,-1.237227693E-1,-9.970547676E0,-2.070313990E-1
1.719967187E0,-1.309341043E-1,-9.986578941E0,-2.101151496E-1
1.721967187E0,-1.379347593E-1,-9.996500969E0,-2.102396339E-1
1.723968750E0,-1.449545473E-1,-1.000509071E1,-2.158133388E-1
1.725967187E0,-1.406258196E-1,-1.002317142E1,-2.175946236E-1
1.727967187E0,-1.352532357E-1,-1.003105354E1,-2.220382690E-1
1.729967187E0,-1.402140409E-1,-1.003585148E1,-2.227852643E-1
1.731967187E0,-1.460846066E-1,-1.004189491E1,-2.277364582E-1
1.733968750E0,-1.419091225E-1,-1.005199814E1,-2.291442603E-1
1.735967187E0,-1.410472095E-1,-1.005998516E1,-2.338752002E-1
1.737967187E0,-1.385476738E-1,-1.005254364E1,-2.397266179E-1
1.740148437E0,-1.375133693E-1,-1.003743172E1,-2.323524952E-1
1.742021875E0,-1.412100196E-1,-1.003203011E1,-2.241068631E-1
1.743968750E0,-1.493886113E-1,-1.003313160E1,-2.270660847E-1
1.745968750E0,-1.620874554E-1,-1.002857304E1,-2.325344384E-1
1.747967187E0,-1.708598137E-1,-1.001401615E1,-2.339230776E-1
1.749967187E0,-1.778796017E-1,-9.995792389E0,-2.163304836E-1
1.751967187E0,-1.807717979E-1,-9.976792336E0,-1.989868879E-1
1.753968750E0,-1.812506467E-1,-9.948951721E0,-1.990060359E-1
1.755967187E0,-1.860486269E-1,-9.922635078E0,-1.943421513E-1
1.757967187E0,-1.964490414E-1,-9.899669647E0,-1.863072067E-1
1.759967187E0,-2.145779282E-1,-9.882545471E0,-1.805611104E-1
1.761967187E0,-2.218850404E-1,-9.865892410E0,-1.712141633E-1
1.763968750E0,-2.309255302E-1,-9.850378036E0,-1.627865583E-1
1.765967187E0,-2.393339872E-1,-9.838109970E0,-1.622598469E-1
1.767967187E0,-2.416994423E-1,-9.826072693E0,-1.533917040E-1
1.769967187E0,-2.448597997E-1,-9.822930336E0,-1.497908384E-1
1.771967187E0,-2.497248054E-1,-9.824530602E0,-1.498770267E-1
1.773968750E0,-2.484798282E-1,-9.821972847E0,-1.476647854E-1
1.775967187E0,-2.636016011E-1,-9.820795059E0,-1.507676691E-1
1.777967187E0,-2.747969031E-1,-9.816954613E0,-1.543398201E-1
1.780148437E0,-2.865476310E-1,-9.813372612E0,-1.552017331E-1
1.782262500E0,-3.025217652E-1,-9.807712555E0,-1.593389064E-1
1.784167187E0,-3.069845140E-1,-9.801966667E0,-1.682836413E-1
1.785967187E0,-3.086988032E-1,-9.803652763E0,-1.723537892E-1
1.787967187E0,-3.027324378E-1,-9.807301521E0,-1.677090526E-1
1.789967187E0,-2.953008413E-1,-9.818649292E0,-1.668854356E-1
1.791967187E0,-3.004340231E-1,-9.826416969E0,-1.741446555E-1
1.793968750E0,-3.122422099E-1,-9.834710121E0,-1.729379743E-1
1.795967187E0,-3.052702844E-1,-9.844325066E0,-1.807430685E-1
1.797967187E0,-2.944963872E-1,-9.867339134E0,-1.757248193E-1
1.799967187E0,-2.915754616E-1,-9.889327049E0,-1.681399941E-1
1.801967187E0,-2.839427590E-1,-9.896585464E0,-1.672110409E-1
1.803968750E0,-2.777178288E-1,-9.907024384E0,-1.647019237E-1
1.805967187E0,-2.776220441E-1,-9.922309875E0,-1.551730037E-1
1.807967187E0,-2.786659300E-1,-9.940256119E0,-1.422730386E-1
1.809967187E0,-2.713588178E-1,-9.957475662E0,-1.336922348E-1
1.811967187E0,-2.692519128E-1,-9.976705551E0,-1.314703971E-1
1.813968750E0,-2.543120980E-1,-9.990468025E0,-1.209646463E-1
1.815967187E0,-2.473880798E-1,-1.000621223E1,-1.080072224E-1
1.817967187E0,-2.418335229E-1,-1.002478123E1,-1.014088094E-1
1.820148437E0,-2.394776344E-1,-1.004381943E1,-9.217676520E-2
1.822021875E0,-2.396404445E-1,-1.006355762E1,-9.342174977E-2
1.823968750E0,-2.413259596E-1,-1.007615089E1,-8.830773830E-2
1.825967187E0,-2.444096804E-1,-1.008930016E1,-8.165185899E-2
1.827967187E0,-2.477519959E-1,-1.009227848E1,-8.373960108E-2
1.829967187E0,-2.456355095E-1,-1.010367489E1,-8.055052161E-2
1.831967187E0,-2.420154810E-1,-1.012427425E1,-7.787859440E-2
1.833968750E0,-2.483170182E-1,-1.013718319E1,-7.568550110E-2
1.835967187E0,-2.487671375E-1,-1.014930820E1,-7.945876569E-2
1.837967187E0,-2.465644628E-1,-1.014948082E1,-8.886318654E-2
1.839967187E0,-2.474359572E-1,-1.014693356E1,-8.953356743E-2
1.841967187E0,-2.549154460E-1,-1.015043831E1,-8.925583959E-2
1.843968750E0,-2.611020505E-1,-1.014307404E1,-8.933245391E-2
1.845967187E0,-2.619543970E-1,-1.013562298E1,-9.242576361E-2
1.847967187E0,-2.692232132E-1,-1.013189793E1,-9.325893968E-2
1.849967187E0,-2.646933496E-1,-1.012069225E1,-8.698613942E-2
1.851967187E0,-2.677962482E-1,-1.011736965E1,-8.254249394E-2
1.853968750E0,-2.769995630E-1,-1.011372089E1,-8.206366003E-2
1.855967187E0,-2.900240123E-1,-1.010725689E1,-8.329906315E-2
1.857967187E0,-3.048584759E-1,-1.009879971E1,-8.054094762E-2
1.860148437E0,-3.130179346E-1,-1.009713364E1,-6.798575073E-2
1.862260937E0,-3.253815770E-1,-1.009203911E1,-5.846640468E-2
1.864167187E0,-3.389136195E-1,-1.008075809E1,-5.393657833E-2
1.865967187E0,-3.451768458E-1,-1.007731915E1,-5.520071462E-2
1.867967187E0,-3.507792652E-1,-1.006904507E1,-5.372588709E-2
1.869967187E0,-3.680845499E-1,-1.006238937E1,-5.926128104E-2
1.871967187E0,-3.837234676E-1,-1.005359745E1,-6.627149880E-2
1.873968750E0,-3.791074753E-1,-1.004726791E1,-7.368395478E-2
1.875967187E0,-3.747500181E-1,-1.003529644E1,-8.953356743E-2
1.877967187E0,-3.724133074E-1,-1.002343082E1,-1.029698253E-1
1.879967187E0,-3.702010512E-1,-1.001620007E1,-1.168753505E-1
1.881967187E0,-3.689943552E-1,-1.000398064E1,-1.321790963E-1
1.883967187E0,-3.698562980E-1,-9.983361244E0,-1.385572404E-1
1.885967187E0,-3.725569546E-1,-9.969273567E0,-1.502601057E-1
1.887967187E0,-3.684771955E-1,-9.957800865E0,-1.699979007E-1
1.889967187E0,-3.638803363E-1,-9.936827660E0,-1.830893904E-1
1.891967187E0,-3.550696969E-1,-9.916553497E0,-1.967363507E-1
1.893968750E0,-3.443340659E-1,-9.903806686E0,-2.142619044E-1
1.895967187E0,-3.331291974E-1,-9.886502266E0,-2.264148742E-1
1.897967187E0,-3.387891352E-1,-9.869435310E0,-2.379453480E-1
1.900148437E0,-3.389423490E-1,-9.854505539E0,-2.426092476E-1
1.902021875E0,-3.265595436E-1,-9.839834213E0,-2.524158955E-1
1.903968750E0,-3.120315373E-1,-9.820910454E0,-2.615904808E-1
1.905967187E0,-3.027228713E-1,-9.808842659E0,-2.702383399E-1
1.907967187E0,-3.021769822E-1,-9.803642273E0,-2.782636881E-1
1.909967187E0,-2.873520851E-1,-9.795407295E0,-2.804472148E-1
1.911967187E0,-2.791638970E-1,-9.785859108E0,-2.807632387E-1
1.913968750E0,-2.748160362E-1,-9.785743713E0,-2.837128937E-1
1.915967187E0,-2.660915852E-1,-9.793797493E0,-2.840193510E-1
1.917967187E0,-2.529617846E-1,-9.787572861E0,-2.803227305E-1
1.919967187E0,-2.387593687E-1,-9.782315254E0,-2.787233889E-1
1.921967187E0,-2.403203845E-1,-9.781998634E0,-2.753619254E-1
1.923968750E0,-2.323237658E-1,-9.785025597E0,-2.757162750E-1
1.925967187E0,-2.210901678E-1,-9.781741142E0,-2.707267404E-1
1.927967187E0,-2.086211592E-1,-9.783952713E0,-2.588227987E-1
1.929967187E0,-2.011608332E-1,-9.785064697E0,-2.430402040E-1
1.931967187E0,-1.956541538E-1,-9.793376923E0,-2.253039479E-1
1.933968750E0,-1.833862811E-1,-9.796556473E0,-2.166369408E-1
1.935967187E0,-1.689061373E-1,-9.805003166E0,-1.996476948E-1
1.937967187E0,-1.632079482E-1,-9.820910454E0,-1.849185675E-1
1.940148437E0,-1.585631818E-1,-9.831846237E0,-1.753130257E-1
1.942260937E0,-1.513039768E-1,-9.857024193E0,-1.688391119E-1
1.944167187E0,-1.381741613E-1,-9.873381615E0,-1.606317759E-1
1.945967187E0,-1.331750751E-1,-9.899343491E0,-1.476839483E-1
1.947967187E0,-1.280898005E-1,-9.918574333E0,-1.285782009E-1
1.949967187E0,-1.169136614E-1,-9.927930832E0,-1.139161140E-1
1.951967187E0,-1.090894118E-1,-9.946308136E0,-9.979990125E-2
1.953968750E0,-9.498277307E-2,-9.955320358E0,-8.587522805E-2
1.955967187E0,-8.577945828E-2,-9.964342117E0,-7.826166600E-2
1.957967187E0,-6.801448017E-2,-9.972299576E0,-7.941088080E-2
1.959967187E0,-5.910805240E-2,-9.982289314E0,-8.731174469E-2
1.961967187E0,-5.616797134E-2,-9.989950180E0,-9.020394087E-2
1.963968750E0,-5.760449171E-2,-9.998300552E0,-9.428366274E-2
1.965967187E0,-4.831499234E-2,-1.000867271E1,-1.165305898E-1
1.967967187E0,-4.297113046E-2,-1.001219749E1,-1.378006786E-1
1.969967187E0,-4.243483022E-2,-1.001152611E1,-1.520413756E-1
1.971967187E0,-5.922297388E-2,-1.001544380E1,-1.486416161E-1
1.973968750E0,-6.341761351E-2,-1.002229118E1,-1.353011280E-1
1.975967187E0,-5.958689004E-2,-1.002902317E1,-1.280993670E-1
1.977967187E0,-6.006573141E-2,-1.004540920E1,-1.318630576E-1
1.980151562E0,-6.370491534E-2,-1.005640316E1,-1.371686161E-1
1.982192187E0,-7.043741643E-2,-1.005745697E1,-1.384231746E-1
1.984182812E0,-7.419151813E-2,-1.005850124E1,-1.378772855E-1
1.986450000E0,-7.835742831E-2,-1.006008148E1,-1.315757483E-1
1.988315625E0,-7.509174198E-2,-1.006208324E1,-1.298614889E-1
1.990223437E0,-6.136817858E-2,-1.006048298E1,-1.510262489E-1
1.992032812E0,-5.691496283E-2,-1.004836941E1,-1.757344007E-1
1.993967187E0,-6.046795473E-2,-1.003217506E1,-1.935664266E-1
1.995967187E0,-7.101202756E-2,-1.001481152E1,-2.064855397E-1
1.997967187E0,-8.161354810E-2,-1.000513840E1,-2.194716781E-1
1.999967187E0,-9.239703417E-2,-9.990850449E0,-2.279184312E-1
2.001968750E0,-1.010831967E-1,-9.971035957E0,-2.294028252E-1
2.003967187E0,-1.048181504E-1,-9.949584007E0,-2.360204011E-1
2.005967187E0,-1.073081195E-1,-9.936914444E0,-2.469379604E-1
2.007967187E0,-1.261265427E-1,-9.923305511E0,-2.545994222E-1
2.009967187E0,-1.348893344E-1,-9.911851883E0,-2.605561912E-1
2.011968750E0,-1.432211399E-1,-9.902858734E0,-2.699701786E-1
2.013967187E0,-1.565999389E-1,-9.885418892E0,-2.826307416E-1
2.015967187E0,-1.706778556E-1,-9.870738029E0,-2.943718731E-1
2.017967187E0,-1.837214679E-1,-9.865337372E0,-3.006734252E-1
2.020148437E0,-1.969661862E-1,-9.858862877E0,-3.075591326E-1
2.022262500E0,-2.138309479E-1,-9.840743065E0,-3.130945563E-1
2.024164062E0,-2.227469534E-1,-9.816829681E0,-3.225277066E-1
2.025967187E0,-2.317778766E-1,-9.797925949E0,-3.374196589E-1
2.027967187E0,-2.436243892E-1,-9.789986610E0,-3.523115516E-1
2.029967187E0,-2.504143417E-1,-9.782698631E0,-3.638803363E-1
2.031967187E0,-2.606519461E-1,-9.779183388E0,-3.601453900E-1
2.033968750E0,-2.707746327E-1,-9.783330917E0,-3.533267081E-1
2.035967187E0,-2.817496657E-1,-9.787323952E0,-3.469006717E-1
2.037967187E0,-2.851781547E-1,-9.795022964E0,-3.441042602E-1
2.039967187E0,-2.899569571E-1,-9.802389145E0,-3.413844407E-1
2.041967187E0,-2.870073318E-1,-9.812827110E0,-3.260328174E-1
2.043968750E0,-2.878979743E-1,-9.821351051E0,-3.102693856E-1
2.045967187E0,-2.828797400E-1,-9.837908745E0,-3.004052639E-1
2.047967187E0,-2.807728350E-1,-9.846461296E0,-2.969959378E-1
2.049967187E0,-2.815102339E-1,-9.857349396E0,-2.901964188E-1
2.051967187E0,-2.836841643E-1,-9.869933128E0,-2.720100284E-1
2.053968750E0,-2.803705931E-1,-9.878188133E0,-2.583726943E-1
2.055967187E0,-2.790106833E-1,-9.883083344E0,-2.463442087E-1
2.057967187E0,-2.763004601E-1,-9.889959335E0,-2.345168442E-1
2.060146875E0,-2.727570534E-1,-9.894737244E0,-2.211476266E-1
2.062018750E0,-2.806004286E-1,-9.904256821E0,-2.095596939E-1
2.063968750E0,-2.775071263E-1,-9.913776398E0,-1.884332597E-1
2.065967187E0,-2.844503224E-1,-9.919167519E0,-1.737519950E-1
2.067967187E0,-2.847950757E-1,-9.924282074E0,-1.544260085E-1
2.069967187E0,-2.778519094E-1,-9.936128616E0,-1.398596764E-1
2.071967187E0,-2.754002512E-1,-9.947936058E0,-1.267203093E-1
2.073968750E0,-2.703724205E-1,-9.960329056E0,-1.087542176E-1
2.075967187E0,-2.644635439E-1,-9.975862503E0,-1.052682549E-1
2.077967187E0,-2.598379254E-1,-9.990141869E0,-9.923487157E-2
2.079967187E0,-2.545706928E-1,-9.997841835E0,-8.704359084E-2
2.081967187E0,-2.509027421E-1,-1.000638390E1,-7.488104701E-2
2.083968750E0,-2.510176897E-1,-1.001021481E1,-6.087018549E-2
2.085967187E0,-2.541588843E-1,-1.001295376E1,-4.462791979E-2
2.087967187E0,-2.493704706E-1,-1.002194595E1,-2.689167485E-2
2.089967187E0,-2.439404279E-1,-1.002590179E1,-1.510262396E-2
2.091967187E0,-2.400043458E-1,-1.002806664E1,-1.653914526E-2
2.093968750E0,-2.355798632E-1,-1.001953316E1,-1.357991248E-2
2.095967187E0,-2.324961424E-1,-1.001078033E1,-4.146757070E-3
2.097967187E0,-2.372270823E-1,-1.000673866E1,1.187524060E-3
2.100178125E0,-2.321992666E-1,-9.999977112E0,-1.829170156E-3
2.102307812E0,-2.250262350E-1,-9.995217323E0,-4.060565960E-3
2.104321875E0,-2.247197777E-1,-9.993311882E0,-7.326257415E-3
2.105814062E0,-2.202474028E-1,-9.977002144E0,-1.270842273E-2
2.107967187E0,-2.202474028E-1,-9.972108841E0,-1.086009853E-2
2.109967187E0,-2.149131149E-1,-9.966036797E0,-5.631162319E-3
2.111967187E0,-2.137255967E-1,-9.951442719E0,9.289502632E-4
2.113967187E0,-2.225745767E-1,-9.932269096E0,3.169923089E-3
2.115967187E0,-2.226607502E-1,-9.913039207E0,-4.194641486E-3
2.117967187E0,-2.234364748E-1,-9.901747704E0,-6.119579542E-3
2.119967187E0,-2.216551900E-1,-9.887794495E0,-1.106121205E-2
2.121967187E0,-2.206113338E-1,-9.871752739E0,-1.739148051E-2
2.123967187E0,-2.136106789E-1,-9.864169121E0,-1.571553946E-2
2.125967187E0,-2.192322612E-1,-9.856469154E0,-1.713290811E-2
2.127967187E0,-2.234939486E-1,-9.843520164E0,-1.585919224E-2
2.129967187E0,-2.226511836E-1,-9.835227966E0,-1.883758046E-2
2.131967187E0,-2.191269249E-1,-9.832698822E0,-3.263775632E-2
2.133967187E0,-2.212146670E-1,-9.823917389E0,-4.171657190E-2
2.135967187E0,-2.252177596E-1,-9.815020561E0,-4.199429601E-2
2.137967187E0,-2.242792398E-1,-9.803624153E0,-4.879382998E-2
2.140148437E0,-2.206400484E-1,-9.791653633E0,-6.125325710E-2
2.142018750E0,-2.158229202E-1,-9.784738541E0,-6.794743985E-2
2.143967187E0,-2.112643570E-1,-9.785676956E0,-7.581958175E-2
2.145968750E0,-2.049628198E-1,-9.785112381E0,-7.744763792E-2
2.147967187E0,-1.907029599E-1,-9.780783653E0,-7.382760942E-2
2.149967187E0,-1.834724545E-1,-9.790360451E0,-7.100244612E-2
2.151967187E0,-1.726889759E-1,-9.804734230E0,-6.657795608E-2
2.153967187E0,-1.647689641E-1,-9.815383911E0,-7.121313363E-2
2.155967187E0,-1.459984183E-1,-9.820833206E0,-7.176858932E-2
2.157967187E0,-1.241632998E-1,-9.826665878E0,-7.383718342E-2
2.159967187E0,-1.097310483E-1,-9.844201088E0,-7.706456631E-2
2.161967187E0,-1.056513265E-1,-9.863392830E0,-7.935342193E-2
2.163967187E0,-1.003362015E-1,-9.878801346E0,-7.318595797E-2
2.165967187E0,-8.713936806E-2,-9.895906448E0,-7.720821351E-2
2.167967187E0,-6.861782074E-2,-9.913172722E0,-7.904696465E-2
2.169967187E0,-5.232767016E-2,-9.930832863E0,-7.399041206E-2
2.171967187E0,-3.980121017E-2,-9.950503349E0,-7.418194413E-2
2.173967187E0,-2.015917748E-2,-9.969896317E0,-7.264965773E-2
2.175967187E0,-1.484405063E-2,-9.980335236E0,-7.103117555E-2
2.177967187E0,-1.674025878E-2,-9.991003990E0,-6.470090151E-2
2.180148437E0,-9.088389575E-3,-1.000906563E1,-5.625416338E-2
2.182400000E0,2.298433683E-4,-1.003182030E1,-4.864060134E-2
2.184037500E0,-1.206677640E-3,-1.005013084E1,-3.227383643E-2
2.185967187E0,4.979939549E-4,-1.005596256E1,-2.756205015E-2
2.187967187E0,3.485957626E-3,-1.006657410E1,-2.489012107E-2
2.189967187E0,-1.366610359E-2,-1.007573891E1,-2.229480632E-2
2.191967187E0,-2.440170199E-2,-1.008238602E1,-1.813847199E-2
2.193968750E0,-3.893929720E-2,-1.008574677E1,-1.430774946E-2
2.195967187E0,-5.483679473E-2,-1.007868004E1,-1.348414458E-2
2.197967187E0,-6.403053552E-2,-1.007545185E1,-9.356540628E-3
2.199967187E0,-7.339664549E-2,-1.007296181E1,-8.034940809E-3
2.201967187E0,-8.127836138E-2,-1.007451344E1,-2.987963613E-3
2.203968750E0,-8.985918015E-2,-1.006761837E1,-1.723825117E-4
2.205967187E0,-1.026250646E-1,-1.006552029E1,-3.064578166E-3
2.207967187E0,-1.173446104E-1,-1.005438328E1,-1.561019570E-3
2.209967187E0,-1.300530434E-1,-1.004327297E1,1.599326730E-3
2.211967187E0,-1.387296319E-1,-1.002472401E1,-3.074155189E-3
2.213968750E0,-1.500972956E-1,-1.000940990E1,-7.517793216E-3
2.215967187E0,-1.614362299E-1,-9.995811462E0,-1.989102736E-2
2.217967187E0,-1.672685146E-1,-9.974885941E0,-3.123954311E-2
2.220148437E0,-1.755811721E-1,-9.952342033E0,-3.993528336E-2
2.222167187E0,-1.768165827E-1,-9.934864044E0,-3.753150627E-2
2.223815625E0,-1.947635263E-1,-9.912560463E0,-2.838565409E-2
2.225967187E0,-2.010554820E-1,-9.899046898E0,-3.252283484E-2
2.227967187E0,-2.151142210E-1,-9.879501343E0,-4.595909640E-2
2.229967187E0,-2.276023924E-1,-9.856986046E0,-5.340985209E-2
2.231967187E0,-2.384624928E-1,-9.843243599E0,-5.736507475E-2
2.233967187E0,-2.489586622E-1,-9.826253891E0,-6.766971946E-2
2.235967187E0,-2.559018433E-1,-9.801976204E0,-7.705498487E-2
2.237967187E0,-2.584301531E-1,-9.783819199E0,-8.181466162E-2
2.239967187E0,-2.678058147E-1,-9.771866798E0,-8.793424070E-2
2.241967187E0,-2.768654823E-1,-9.766781807E0,-9.286629409E-2
2.243967187E0,-2.870264947E-1,-9.758986473E0,-9.900502861E-2
2.245967187E0,-2.853792608E-1,-9.745329857E0,-1.074421927E-1
2.247967187E0,-2.799971104E-1,-9.738319397E0,-1.148450673E-1
2.249967187E0,-2.827073336E-1,-9.730313301E0,-1.112346128E-1
2.251967187E0,-2.785414159E-1,-9.727842331E0,-1.060248241E-1
2.253967187E0,-2.721728384E-1,-9.724911690E0,-1.018301845E-1
2.255967187E0,-2.534214556E-1,-9.735178947E0,-9.845915437E-2
2.258115625E0,-2.399373204E-1,-9.737956047E0,-9.710881859E-2
2.260148437E0,-2.327068299E-1,-9.761639595E0,-8.605717868E-2
2.262267187E0,-2.309159636E-1,-9.787171364E0,-7.408617437E-2
2.264162500E0,-2.212146670E-1,-9.809742928E0,-6.513186544E-2
2.265967187E0,-2.066196203E-1,-9.828858376E0,-4.574840516E-2
2.267967187E0,-1.945719868E-1,-9.851105690E0,-2.469858527E-2
2.269967187E0,-1.911339164E-1,-9.872213364E0,-5.631162319E-3
2.271967187E0,-1.758684814E-1,-9.902246475E0,1.874181256E-2
2.273968750E0,-1.628248692E-1,-9.929338455E0,3.823061287E-2
2.275967187E0,-1.561306715E-1,-9.949603081E0,4.860229418E-2
2.277967187E0,-1.507006437E-1,-9.970002174E0,6.618531048E-2
2.279967187E0,-1.454812735E-1,-9.995275497E0,8.088570833E-2
2.281967187E0,-1.459217966E-1,-1.001904488E1,9.613198787E-2
2.283968750E0,-1.454142332E-1,-1.004866600E1,1.148259118E-1
2.285967187E0,-1.430679113E-1,-1.007440853E1,1.362492442E-1
2.287967187E0,-1.429625750E-1,-1.009172249E1,1.523382664E-1
2.289967187E0,-1.528745741E-1,-1.011160469E1,1.675366461E-1
2.291967187E0,-1.580268890E-1,-1.013457870E1,1.842960715E-1
2.293968750E0,-1.640219688E-1,-1.015650082E1,1.940644085E-1
2.295967187E0,-1.639357805E-1,-1.016193104E1,2.011608332E-1
2.297967187E0,-1.637538075E-1,-1.016467857E1,2.054799646E-1
2.300148437E0,-1.767016649E-1,-1.017574978E1,2.110441029E-1
2.302020312E0,-1.809250265E-1,-1.018357468E1,2.100289464E-1
2.303968750E0,-1.833000779E-1,-1.017895794E1,2.085349709E-1
2.305967187E0,-1.849377155E-1,-1.017132473E1,2.034209669E-1
2.307967187E0,-1.847749203E-1,-1.015870285E1,1.912871450E-1
2.309967187E0,-1.796130091E-1,-1.014003849E1,1.812410802E-1
2.311967187E0,-1.765484363E-1,-1.011919880E1,1.774582416E-1
2.313968750E0,-1.766058952E-1,-1.010268879E1,1.865849346E-1
2.315967187E0,-1.791341752E-1,-1.007796097E1,1.853686720E-1
2.317967187E0,-1.793065518E-1,-1.005330086E1,1.835395098E-1
2.319967187E0,-1.822562069E-1,-1.003011513E1,1.763856262E-1
2.321967187E0,-1.783871800E-1,-1.000779152E1,1.597507149E-1
2.323968750E0,-1.856368184E-1,-9.984931946E0,1.418516636E-1
2.325967187E0,-1.749107987E-1,-9.965548515E0,1.148067638E-1
2.327967187E0,-1.710800827E-1,-9.946892738E0,8.934203535E-2
2.330148437E0,-1.687912196E-1,-9.920910835E0,5.937620252E-2
2.332190625E0,-1.648168415E-1,-9.896623611E0,2.947741188E-2
2.333967187E0,-1.677090526E-1,-9.870470047E0,1.484405017E-3
2.335967187E0,-1.651711911E-1,-9.850837708E0,-2.142331749E-2
2.337967187E0,-1.701702774E-1,-9.831703186E0,-3.652593866E-2
2.340148437E0,-1.716546714E-1,-9.816370964E0,-5.916551128E-2
2.342250000E0,-1.787989736E-1,-9.797054291E0,-7.871177793E-2
2.344145312E0,-1.797375083E-1,-9.780352592E0,-9.473377466E-2
2.345967187E0,-1.832617819E-1,-9.767979622E0,-1.045883074E-1
2.347967187E0,-1.906933784E-1,-9.758420944E0,-1.175265759E-1
2.349967187E0,-1.859241277E-1,-9.756342888E0,-1.223820150E-1
2.351967187E0,-1.897835881E-1,-9.757521629E0,-1.293730736E-1
2.353968750E0,-1.840374917E-1,-9.754168510E0,-1.394670457E-1
2.355967187E0,-1.799194664E-1,-9.758382797E0,-1.485458463E-1
2.357967187E0,-1.712811887E-1,-9.755864143E0,-1.487469673E-1
2.359967187E0,-1.590324491E-1,-9.761734962E0,-1.522712260E-1
2.361967187E0,-1.545313597E-1,-9.760920525E0,-1.554507315E-1
2.363968750E0,-1.523382664E-1,-9.767615318E0,-1.556231081E-1
2.365967187E0,-1.640123874E-1,-9.771685600E0,-1.574139744E-1
2.367967187E0,-1.659086049E-1,-9.780352592E0,-1.517253518E-1
2.369967187E0,-1.626429111E-1,-9.794190407E0,-1.427614540E-1
2.371967187E0,-1.651711911E-1,-9.807550430E0,-1.292869002E-1
2.373968750E0,-1.692413390E-1,-9.825305939E0,-1.219606325E-1
2.375967187E0,-1.656691730E-1,-9.846000671E0,-1.131308228E-1
2.377967187E0,-1.598273367E-1,-9.858574867E0,-1.125370562E-1
2.380146875E0,-1.608903557E-1,-9.881473541E0,-1.127190143E-1
2.382018750E0,-1.654393375E-1,-9.895418167E0,-1.189726740E-1
2.383967187E0,-1.661001444E-1,-9.917414665E0,-1.129775941E-1
2.385967187E0,-1.604306698E-1,-9.934242249E0,-1.057566777E-1
2.387967187E0,-1.568968147E-1,-9.944575310E0,-9.935937077E-2
2.389967187E0,-1.531810313E-1,-9.962943077E0,-9.821973741E-2
2.391967187E0,-1.453184634E-1,-9.977883339E0,-9.991482645E-2
2.393967187E0,-1.291815490E-1,-9.991127968E0,-9.629479051E-2
2.395967187E0,-1.150461808E-1,-1.000327110E1,-8.727343380E-2
2.397967187E0,-1.045883074E-1,-1.001426601E1,-8.376832306E-2
2.399967187E0,-9.994355589E-2,-1.002991390E1,-7.791689783E-2
2.401967187E0,-9.297163785E-2,-1.003729820E1,-6.636726856E-2
2.403967187E0,-8.319371939E-2,-1.003859043E1,-5.716396123E-2
2.405967187E0,-8.414182067E-2,-1.003931808E1,-4.929182306E-2
2.407967187E0,-8.274361491E-2,-1.003850460E1,-3.659297898E-2
2.409967187E0,-7.952580601E-2,-1.004124355E1,-2.710236423E-2
2.411967187E0,-7.807970792E-2,-1.004067898E1,-2.668098360E-2
2.413967187E0,-7.947792113E-2,-1.003570843E1,-2.941037342E-2
2.415967187E0,-8.111555129E-2,-1.003272057E1,-2.651817910E-2
2.417967187E0,-8.419928700E-2,-1.001823044E1,-2.539769188E-2
2.420148437E0,-7.369352877E-2,-1.001096153E1,-3.124912083E-2
2.422251562E0,-7.936299592E-2,-1.000085831E1,-3.347093984E-2
2.424145312E0,-8.911219239E-2,-9.993359566E0,-3.174711391E-2
2.425967187E0,-9.323979169E-2,-9.977931976E0,-3.791457787E-2
2.427967187E0,-9.855491668E-2,-9.961708069E0,-3.916914016E-2
2.429967187E0,-1.062355191E-1,-9.947171211E0,-4.236779362E-2
2.431967187E0,-1.140118837E-1,-9.935112953E0,-4.250187054E-2
2.433968750E0,-1.305414587E-1,-9.914590836E0,-5.161898956E-2
2.435967187E0,-1.478275955E-1,-9.891088486E0,-5.431006849E-2
2.437967187E0,-1.591665298E-1,-9.871915817E0,-6.694187969E-2
2.439967187E0,-1.646923572E-1,-9.860577583E0,-7.994718105E-2
2.441967187E0,-1.710800827E-1,-9.849899292E0,-9.086474776E-2
2.443968750E0,-1.843343824E-1,-9.844621658E0,-1.058332920E-1
2.445987500E0,-1.960659623E-1,-9.836970329E0,-1.201027408E-1
2.447967187E0,-2.023387700E-1,-9.828772545E0,-1.305989027E-1
2.449967187E0,-2.158995420E-1,-9.819195747E0,-1.382220387E-1
2.451992187E0,-2.236759067E-1,-9.813498497E0,-1.424933076E-1
2.453968750E0,-2.303892374E-1,-9.809168816E0,-1.554890275E-1
2.455967187E0,-2.340954542E-1,-9.805347443E0,-1.629876643E-1
2.457970312E0,-2.437201589E-1,-9.797054291E0,-1.722101420E-1
2.460146875E0,-2.586120963E-1,-9.785925865E0,-1.825339347E-1
2.462018750E0,-2.660341263E-1,-9.779882431E0,-1.878394932E-1
2.463968750E0,-2.767026722E-1,-9.778552055E0,-1.984505951E-1
2.465967187E0,-2.858868539E-1,-9.775142670E0,-2.087552398E-1
2.467967187E0,-2.929641008E-1,-9.765527725E0,-2.142140269E-1
2.469967187E0,-2.924756706E-1,-9.769808769E0,-2.154398561E-1
2.471967187E0,-2.967469394E-1,-9.767778397E0,-2.212816924E-1
2.473968750E0,-2.971300185E-1,-9.769386292E0,-2.260892540E-1
2.475967187E0,-2.999359965E-1,-9.766054153E0,-2.265297920E-1
2.477967187E0,-2.978195548E-1,-9.766715050E0,-2.249304652E-1
2.480118750E0,-2.969959378E-1,-9.774242401E0,-2.148269415E-1
2.482364062E0,-2.901964188E-1,-9.778599739E0,-2.049724013E-1
2.484242187E0,-2.742031217E-1,-9.780056000E0,-1.972151846E-1
2.485967187E0,-2.675664127E-1,-9.785887718E0,-1.992646158E-1
2.487967187E0,-2.555570900E-1,-9.790273666E0,-1.928098500E-1
2.490029687E0,-2.490352839E-1,-9.808565140E0,-1.828595400E-1
2.491967187E0,-2.433658093E-1,-9.817414284E0,-1.683698446E-1
2.493967187E0,-2.376580387E-1,-9.831789017E0,-1.593005955E-1
2.495968750E0,-2.297092825E-1,-9.847399712E0,-1.482872814E-1
2.497967187E0,-2.234747857E-1,-9.858556747E0,-1.452418566E-1
2.500148437E0,-2.156026512E-1,-9.864992142E0,-1.383082420E-1
2.502251562E0,-2.163496464E-1,-9.876618385E0,-1.312213987E-1
2.504146875E0,-2.157367319E-1,-9.884174347E0,-1.308191866E-1
2.505967187E0,-2.129690200E-1,-9.892449379E0,-1.237706542E-1
2.507967187E0,-2.031144947E-1,-9.892812729E0,-1.166167781E-1
2.509967187E0,-1.922735423E-1,-9.899162292E0,-1.128530875E-1
2.511967187E0,-1.769219339E-1,-9.909543037E0,-1.076241508E-1
2.513968750E0,-1.714344174E-1,-9.922309875E0,-1.031805202E-1
2.515967187E0,-1.631983668E-1,-9.931877136E0,-1.015811935E-1
2.517967187E0,-1.520413756E-1,-9.933016777E0,-1.016673818E-1
2.519967187E0,-1.438532174E-1,-9.939164162E0,-9.902418405E-2
2.521967187E0,-1.380113661E-1,-9.946021080E0,-9.621817619E-2
2.523968750E0,-1.375612468E-1,-9.942075729E0,-9.510727227E-2
2.525967187E0,-1.386338472E-1,-9.944163322E0,-9.578722715E-2
2.527967187E0,-1.294401288E-1,-9.950054169E0,-9.808565676E-2
2.529967187E0,-1.168657765E-1,-9.959295273E0,-1.013896540E-1
2.531967187E0,-1.076816171E-1,-9.966122627E0,-9.906249493E-2
2.533968750E0,-1.066664755E-1,-9.966142654E0,-9.938810021E-2
2.535967187E0,-1.140406206E-1,-9.966812134E0,-1.009012386E-1
2.537967187E0,-1.256189793E-1,-9.969791412E0,-1.089744866E-1
2.540148437E0,-1.290474683E-1,-9.976830482E0,-1.125466302E-1
2.542018750E0,-1.261265427E-1,-9.986339569E0,-1.245559454E-1
2.543967187E0,-1.280514896E-1,-9.982988358E0,-1.352053583E-1
2.545967187E0,-1.318343133E-1,-9.983935356E0,-1.460654587E-1
2.547967187E0,-1.304169595E-1,-9.984376907E0,-1.533629894E-1
2.549967187E0,-1.298998147E-1,-9.976963997E0,-1.577683091E-1
2.551968750E0,-1.336251795E-1,-9.971428871E0,-1.689444482E-1
2.553967187E0,-1.391605884E-1,-9.970940590E0,-1.816911846E-1
2.555967187E0,-1.400224864E-1,-9.966160774E0,-1.926566213E-1
2.557967187E0,-1.396011263E-1,-9.964676857E0,-2.010459006E-1
2.559967187E0,-1.384327412E-1,-9.968182564E0,-1.996093839E-1
2.561968750E0,-1.389977783E-1,-9.958978653E0,-2.053554654E-1
2.563967187E0,-1.453855038E-1,-9.950742722E0,-2.140416205E-1
2.565967187E0,-1.423496604E-1,-9.943291664E0,-2.236280143E-1
2.567967187E0,-1.425316185E-1,-9.929942131E0,-2.314139605E-1
2.569967187E0,-1.481340528E-1,-9.923955917E0,-2.386731654E-1
2.571968750E0,-1.538322419E-1,-9.923899651E0,-2.377250791E-1
2.573967187E0,-1.547707617E-1,-9.913029671E0,-2.320939153E-1
2.575967187E0,-1.545409262E-1,-9.900493622E0,-2.339135110E-1
2.577967187E0,-1.524053067E-1,-9.889365196E0,-2.401958853E-1
2.580148437E0,-1.516295820E-1,-9.889891624E0,-2.410961092E-1
2.582251562E0,-1.484979689E-1,-9.884653091E0,-2.370259762E-1
2.584146875E0,-1.514284611E-1,-9.878371239E0,-2.335591614E-1
2.585967187E0,-1.548186690E-1,-9.868927956E0,-2.252273411E-1
2.587967187E0,-1.579311192E-1,-9.855492592E0,-2.117431909E-1
2.589967187E0,-1.590707600E-1,-9.851201057E0,-1.940452605E-1
2.591967187E0,-1.522520781E-1,-9.847341537E0,-1.778029948E-1
2.593968750E0,-1.624130756E-1,-9.845934868E0,-1.614745259E-1
2.595967187E0,-1.660330892E-1,-9.850156784E0,-1.456632316E-1
2.597967187E0,-1.780041009E-1,-9.852868080E0,-1.309532672E-1
2.599967187E0,-1.852729023E-1,-9.858450890E0,-1.091660261E-1
2.601967187E0,-1.850430667E-1,-9.861717224E0,-8.466854692E-2
2.603968750E0,-1.863359362E-1,-9.863277435E0,-6.928820163E-2
2.605967187E0,-1.845737845E-1,-9.866084099E0,-5.637866259E-2
2.607967187E0,-1.847653389E-1,-9.879520416E0,-3.371993452E-2
2.609967187E0,-1.914882511E-1,-9.889259338E0,-9.911995381E-3
2.611967187E0,-1.912679970E-1,-9.896203041E0,3.936067689E-3
2.613968750E0,-1.858379394E-1,-9.910127640E0,1.499727927E-2
2.615967187E0,-1.843343824E-1,-9.918956757E0,2.635537088E-2
2.617967187E0,-1.888833642E-1,-9.932383537E0,3.443819657E-2
2.620148437E0,-1.914882511E-1,-9.944556236E0,4.560475424E-2
2.622018750E0,-1.940931380E-1,-9.954142570E0,5.456864461E-2
2.623968750E0,-1.938824505E-1,-9.962091446E0,6.160759553E-2
2.625967187E0,-1.923310161E-1,-9.970796585E0,7.275500149E-2
2.627967187E0,-1.862593144E-1,-9.979051590E0,8.897811174E-2
2.629967187E0,-1.801205724E-1,-9.990601540E0,1.003457829E-1
2.631967187E0,-1.726506799E-1,-1.000039864E1,1.041190401E-1
2.633968750E0,-1.704001129E-1,-1.001371956E1,1.078444198E-1
2.635967187E0,-1.711471081E-1,-1.002504921E1,1.078444198E-1
2.637967187E0,-1.586110741E-1,-1.003280640E1,1.098747030E-1
2.639967187E0,-1.497142166E-1,-1.004738235E1,1.127860546E-1
2.641967187E0,-1.350904405E-1,-1.005392265E1,1.095778197E-1
2.643968750E0,-1.197675467E-1,-1.005165291E1,1.074326187E-1
2.645967187E0,-1.105450839E-1,-1.005075264E1,1.068005487E-1
2.647996875E0,-1.021174937E-1,-1.006072235E1,1.066569015E-1
2.649967187E0,-9.870814532E-2,-1.006103897E1,9.833465517E-2
2.651967187E0,-1.040807366E-1,-1.006599998E1,9.326852113E-2
2.653968750E0,-1.006809697E-1,-1.007481098E1,8.314583451E-2
2.655967187E0,-8.703401685E-2,-1.007686901E1,7.209420204E-2
2.657967187E0,-8.380663395E-2,-1.006901646E1,6.479667872E-2
2.660148437E0,-8.061756194E-2,-1.005888367E1,6.251739711E-2
2.662251562E0,-7.573339343E-2,-1.004122448E1,6.166505814E-2
2.664146875E0,-7.394252717E-2,-1.002592087E1,4.981854931E-2
2.665967187E0,-7.112694532E-2,-1.000895023E1,3.076070361E-2
2.667967187E0,-5.887820944E-2,-9.990869522E0,1.233492792E-2
2.669967187E0,-6.319735199E-2,-9.975039482E0,-1.963245450E-3
2.671967187E0,-6.970957667E-2,-9.961737633E0,-8.590395562E-3
2.673968750E0,-7.459375262E-2,-9.954985619E0,-1.574427076E-2
2.675967187E0,-7.812758535E-2,-9.956258774E0,-1.797566563E-2
2.677967187E0,-8.550173044E-2,-9.954315186E0,-2.313756570E-2
2.680150000E0,-9.000282735E-2,-9.950436592E0,-2.627875656E-2
2.682190625E0,-8.565495908E-2,-9.952495575E0,-3.975332528E-2
2.683970312E0,-8.124962449E-2,-9.963768005E0,-4.768292233E-2
2.685967187E0,-8.518569916E-2,-9.961133957E0,-5.425260961E-2
2.687967187E0,-8.973468095E-2,-9.952638626E0,-6.630022824E-2
2.689967187E0,-9.000282735E-2,-9.956459999E0,-7.894162089E-2
2.691967187E0,-9.471461922E-2,-9.963805199E0,-8.799169958E-2
2.693968750E0,-9.226295352E-2,-9.971112251E0,-9.158299863E-2
2.695967187E0,-1.021557972E-1,-9.974866867E0,-9.271306545E-2
2.697967187E0,-1.074134707E-1,-9.981101990E0,-9.284714609E-2
2.700148437E0,-1.133223549E-1,-9.993426323E0,-9.438900650E-2
2.702018750E0,-1.213381439E-1,-1.000101185E1,-8.992621303E-2
2.703968750E0,-1.260212064E-1,-1.000827026E1,-8.706275374E-2
2.705967187E0,-1.297561526E-1,-1.002098846E1,-7.751467079E-2
2.707967187E0,-1.439394057E-1,-1.004101372E1,-6.453809887E-2
2.709967187E0,-1.506814659E-1,-1.006025410E1,-5.404191837E-2
2.711967187E0,-1.604785472E-1,-1.007957077E1,-4.737646505E-2
2.713968750E0,-1.662725210E-1,-1.010301399E1,-3.634398431E-2
2.715967187E0,-1.835586578E-1,-1.012513638E1,-2.383667231E-2
2.717967187E0,-1.973971426E-1,-1.013453102E1,-9.758765809E-3
2.719967187E0,-2.079507858E-1,-1.014354324E1,-1.704671653E-3
2.721967187E0,-2.158133388E-1,-1.015231514E1,1.484405063E-2
2.723968750E0,-2.259551883E-1,-1.016305065E1,3.096181713E-2
2.725967187E0,-2.310691923E-1,-1.017120075E1,4.826710373E-2
2.727967187E0,-2.324674129E-1,-1.017688942E1,6.334099919E-2
2.729967187E0,-2.263861448E-1,-1.018412971E1,7.656657696E-2
2.731967187E0,-2.350244075E-1,-1.018815136E1,8.603803068E-2
2.733968750E0,-2.320843339E-1,-1.019363976E1,1.022419855E-1
2.735967187E0,-2.271043956E-1,-1.019046021E1,1.217978299E-1
2.737967187E0,-2.266255468E-1,-1.017963791E1,1.301392168E-1
2.740148437E0,-2.107950896E-1,-1.017158413E1,1.502888352E-1
2.742251562E0,-2.035167217E-1,-1.016625881E1,1.727368683E-1
2.744145312E0,-2.071463317E-1,-1.015734291E1,1.968033761E-1
2.745967187E0,-1.995231956E-1,-1.014843655E1,2.171062231E-1
2.747967187E0,-2.054895461E-1,-1.014100456E1,2.366333157E-1
2.749967187E0,-1.992741972E-1,-1.013246250E1,2.503377199E-1
2.751967187E0,-2.008831054E-1,-1.012137318E1,2.606232166E-1
2.753968750E0,-1.992358863E-1,-1.009532452E1,2.849099934E-1
2.755967187E0,-2.075485587E-1,-1.006031990E1,3.064386547E-1
2.757967187E0,-2.189066410E-1,-1.002948380E1,3.205069900E-1
2.759967187E0,-2.234556228E-1,-9.996759415E0,3.296911716E-1
2.761967187E0,-2.132084519E-1,-9.965357780E0,3.335697651E-1
2.763968750E0,-1.959127337E-1,-9.937767029E0,3.355138600E-1
2.765967187E0,-1.799194664E-1,-9.908987999E0,3.395648599E-1
2.767967187E0,-1.753992140E-1,-9.881330490E0,3.419973552E-1
2.769967187E0,-1.697201729E-1,-9.853960037E0,3.456078172E-1
2.771967187E0,-1.705820709E-1,-9.825104713E0,3.539204597E-1
2.773968750E0,-1.606988162E-1,-9.802311897E0,3.576075435E-1
2.775967187E0,-1.506144404E-1,-9.787447929E0,3.549547791E-1
2.777967187E0,-1.399554610E-1,-9.770257950E0,3.535757065E-1
2.780148437E0,-1.324089319E-1,-9.761313438E0,3.462398648E-1
2.782020312E0,-1.199973896E-1,-9.750022888E0,3.387699723E-1
2.783968750E0,-1.112729162E-1,-9.736384392E0,3.316735625E-1
2.785967187E0,-9.441774338E-2,-9.721473694E0,3.217807114E-1
2.787967187E0,-7.662402838E-2,-9.709062576E0,3.159675896E-1
2.789967187E0,-7.036080211E-2,-9.700941086E0,3.113132715E-1
2.791967187E0,-7.456501573E-2,-9.689582825E0,3.017077446E-1
2.793968750E0,-7.519709319E-2,-9.684594154E0,2.887502909E-1
2.795967187E0,-7.696879655E-2,-9.674404144E0,2.765494287E-1
2.797967187E0,-8.298303187E-2,-9.663678169E0,2.720866799E-1
2.799967187E0,-8.162312210E-2,-9.658238411E0,2.548483908E-1
2.801967187E0,-7.727525383E-2,-9.656092644E0,2.303126156E-1
2.803968750E0,-7.166324556E-2,-9.654129982E0,2.071942091E-1
2.805967187E0,-6.776548922E-2,-9.660594940E0,1.840566546E-1
2.807967187E0,-6.650134176E-2,-9.671808243E0,1.624418050E-1
2.809967187E0,-6.441360712E-2,-9.676319122E0,1.369579136E-1
2.811967187E0,-5.360138789E-2,-9.676750183E0,1.114548817E-1
2.813968750E0,-4.973235726E-2,-9.686738968E0,8.794381469E-2
2.815967187E0,-5.006754771E-2,-9.698040009E0,6.291004270E-2
2.817967187E0,-3.899675608E-2,-9.706955910E0,3.441904485E-2
2.820148437E0,-2.802173607E-2,-9.725112915E0,6.569689140E-3
2.822307812E0,-9.825803339E-3,-9.744515419E0,-2.155739255E-2
2.824162500E0,1.273715287E-3,-9.756276131E0,-5.372588709E-2
2.825967187E0,2.949656453E-3,-9.770450592E0,-8.029194921E-2
2.827967187E0,4.481945653E-3,-9.782640457E0,-1.025005654E-1
2.829967187E0,9.557653219E-3,-9.787219048E0,-1.261648536E-1
2.831967187E0,1.578257792E-2,-9.795311928E0,-1.552975029E-1
2.833968750E0,2.254380286E-2,-9.814789772E0,-1.765771657E-1
2.835967187E0,2.813665755E-2,-9.827690125E0,-1.923501641E-1
2.837967187E0,2.768654749E-2,-9.839162827E0,-2.001648396E-1
2.839967187E0,2.290772274E-2,-9.851440430E0,-2.122699320E-1
2.841967187E0,2.765781805E-2,-9.861946106E0,-2.216935009E-1
2.843968750E0,2.151908539E-2,-9.871360779E0,-2.269703150E-1
2.845967187E0,1.106121205E-2,-9.877317429E0,-2.219808102E-1
2.847967187E0,5.018246826E-3,-9.883666992E0,-2.087169290E-1
2.849967187E0,2.738966607E-3,-9.884413719E0,-1.935281008E-1
2.851967187E0,-4.989516456E-3,-9.887680054E0,-1.804461926E-1
2.853968750E0,-6.330269389E-3,-9.897179604E0,-1.727655977E-1
2.855967187E0,-7.814674638E-3,-9.903538704E0,-1.582375765E-1
2.857970312E0,-1.483447384E-2,-9.904908180E0,-1.325525790E-1
2.860148437E0,-2.784935385E-2,-9.903576851E0,-1.028740630E-1
2.862018750E0,-3.239833936E-2,-9.894594193E0,-7.134721428E-2
2.863968750E0,-3.318363428E-2,-9.881866455E0,-3.863283992E-2
2.865967187E0,-4.532702640E-2,-9.870221138E0,-1.327345427E-2
2.867967187E0,-4.914817587E-2,-9.857924461E0,1.234450471E-2
2.869967187E0,-6.211517006E-2,-9.840437889E0,4.270298034E-2
2.871967187E0,-7.241981477E-2,-9.832958221E0,7.877881825E-2
2.873968750E0,-8.038771898E-2,-9.833800316E0,1.122210249E-1
2.875967187E0,-8.321287483E-2,-9.834193230E0,1.472338289E-1
2.877967187E0,-8.967721462E-2,-9.830276489E0,1.782243848E-1
2.879967187E0,-8.955271542E-2,-9.825928688E0,2.047808468E-1
2.881967187E0,-9.960836917E-2,-9.821915627E0,2.306765467E-1
2.883967187E0,-1.017918810E-1,-9.820661545E0,2.629695535E-1
2.885967187E0,-9.951259941E-2,-9.819990158E0,2.849674821E-1
2.887967187E0,-8.959102631E-2,-9.817931175E0,3.038337827E-1
2.889967187E0,-8.574114740E-2,-9.820029259E0,3.175669312E-1
2.891967187E0,-8.582733572E-2,-9.822422981E0,3.281492889E-1
2.893967187E0,-8.346186578E-2,-9.815317154E0,3.364427984E-1
2.895967187E0,-7.400956005E-2,-9.818181038E0,3.374387920E-1
2.897967187E0,-6.838797778E-2,-9.823830605E0,3.325737715E-1
2.900148437E0,-5.181052536E-2,-9.823007584E0,3.295091987E-1
2.902251562E0,-3.954263777E-2,-9.824596405E0,3.237343729E-1
2.904145312E0,-3.343263268E-2,-9.835179329E0,3.164464533E-1
2.905967187E0,-2.702574991E-2,-9.852083206E0,3.026462495E-1
2.907967187E0,-1.990060508E-2,-9.855291367E0,2.946783304E-1
2.909967187E0,-1.336922310E-2,-9.862655640E0,2.799971104E-1
2.911967187E0,-8.178592660E-3,-9.873477936E0,2.687156498E-1
2.913968750E0,1.532289083E-3,-9.893589020E0,2.533831596E-1
2.915967187E0,9.615113959E-3,-9.915031433E0,2.391807586E-1
2.917967187E0,1.363737322E-2,-9.924703598E0,2.185714543E-1
2.919967187E0,2.325248718E-2,-9.931196213E0,1.940452605E-1
2.921967187E0,3.488830477E-2,-9.938054085E0,1.784254909E-1
2.923968750E0,3.608540818E-2,-9.950407028E0,1.603731960E-1
2.925967187E0,3.080858849E-2,-9.964610100E0,1.351957917E-1
2.927967187E0,3.682282194E-2,-9.995026588E0,1.123742536E-1
2.929967187E0,3.832638264E-2,-1.001017666E1,9.151596576E-2
2.931967187E0,2.968810126E-2,-1.001807690E1,7.206546515E-2
2.933968750E0,1.836831495E-2,-1.001935101E1,5.813121796E-2
2.935967187E0,1.479616668E-2,-1.002029037E1,4.525041208E-2
2.937967187E0,9.768342599E-3,-1.002009773E1,2.902730182E-2
2.940148437E0,9.864111198E-4,-1.001954269E1,1.005564723E-2
2.942018750E0,-4.855440930E-3,-1.001569271E1,-7.680599112E-3
2.943968750E0,-1.252646372E-2,-1.000949574E1,-2.579991706E-2
2.945967187E0,-3.351882473E-2,-1.000853920E1,-3.789542243E-2
2.947967187E0,-4.831499234E-2,-1.000785828E1,-4.146757349E-2
2.949967187E0,-5.677130818E-2,-1.001046371E1,-4.381389171E-2
2.951967187E0,-6.672161072E-2,-1.000773430E1,-4.129519314E-2
2.953968750E0,-7.956410944E-2,-1.001318359E1,-3.490746021E-2
2.955967187E0,-8.956229687E-2,-1.001986790E1,-3.072239645E-2
2.957967187E0,-1.010353118E-1,-1.002354622E1,-2.178723551E-2
2.959967187E0,-1.158218980E-1,-1.004128265E1,-1.390552334E-2
2.961967187E0,-1.253987104E-1,-1.005445004E1,-8.714894066E-4
2.963968750E0,-1.455961913E-1,-1.006633472E1,1.328303106E-2
2.965967187E0,-1.602199674E-1,-1.007778931E1,2.782062255E-2
2.967967187E0,-1.686763018E-1,-1.008872604E1,3.983951733E-2
2.969967187E0,-1.784829497E-1,-1.010108852E1,5.217444152E-2
2.971967187E0,-1.897165328E-1,-1.010545635E1,6.556282192E-2
2.973968750E0,-1.967938095E-1,-1.011589432E1,8.026321232E-2
2.975967187E0,-2.025494725E-1,-1.012791443E1,9.399636090E-2
2.977967187E0,-2.128445208E-1,-1.014230728E1,1.116081104E-1
2.980150000E0,-2.152578831E-1,-1.015147305E1,1.239047274E-1
2.982251562E0,-2.271331400E-1,-1.014659786E1,1.348797381E-1
2.984431250E0,-2.205155492E-1,-1.014159870E1,1.499345005E-1
2.986326562E0,-2.114558816E-1,-1.014122581E1,1.716546714E-1
2.988315625E0,-2.030474544E-1,-1.013762474E1,1.835203618E-1
2.990028125E0,-2.009788603E-1,-1.013784504E1,1.909615397E-1
2.991967187E0,-1.964298785E-1,-1.013546944E1,2.085732669E-1
2.993967187E0,-1.916223317E-1,-1.012562466E1,2.235226780E-1
2.995967187E0,-1.780903041E-1,-1.011296368E1,2.336740941E-1
2.997967187E0,-1.614075005E-1,-1.010265064E1,2.422836274E-1
2.999968750E0,-1.415452063E-1,-1.008585262E1,2.507016361E-1
3.001967187E0,-1.257147491E-1,-1.006613350E1,2.707459033E-1
3.003967187E0,-1.174403876E-1,-1.004167461E1,2.916616499E-1
3.005967187E0,-1.022419855E-1,-1.001896763E1,3.074059188E-1
3.007967187E0,-7.497682422E-2,-1.000123119E1,3.209283650E-1
3.009968750E0,-5.686707795E-2,-9.981590271E0,3.354851007E-1
3.011967187E0,-3.587471694E-2,-9.968824387E0,3.507888615E-1
3.013967187E0,-2.072421089E-2,-9.959571838E0,3.697413504E-1
3.015967187E0,-8.676586673E-3,-9.948894501E0,3.833691478E-1
3.017967187E0,4.501099233E-3,-9.949928284E0,4.008276761E-1
3.020148437E0,2.026452310E-2,-9.942746162E0,4.138233960E-1
3.022018750E0,3.667916730E-2,-9.932134628E0,4.235917330E-1
3.023967187E0,4.436934739E-2,-9.922270775E0,4.174338579E-1
3.025967187E0,4.787445813E-2,-9.911075592E0,4.131913185E-1
3.027967187E0,5.729803443E-2,-9.899880409E0,4.134211838E-1
3.030150000E0,6.781336665E-2,-9.907302856E0,4.100501537E-1
3.032190625E0,8.176677674E-2,-9.910923004E0,4.065833390E-1
3.033967187E0,8.881530911E-2,-9.906583786E0,3.968915939E-1
3.035967187E0,9.432196617E-2,-9.893846512E0,3.812718093E-1
3.037967187E0,9.067320824E-2,-9.886769295E0,3.667438030E-1
3.039967187E0,8.355764300E-2,-9.886549950E0,3.598197997E-1
3.041967187E0,7.638461143E-2,-9.887209892E0,3.441329598E-1
3.043968750E0,6.545747072E-2,-9.891366005E0,3.338762224E-1
3.045967187E0,5.602432042E-2,-9.901670456E0,3.252092004E-1
3.047967187E0,4.137180746E-2,-9.914456367E0,3.157760501E-1
3.049967187E0,2.846227027E-2,-9.919119835E0,3.035464883E-1
3.051967187E0,1.878011972E-2,-9.932297707E0,2.884534299E-1
3.053968750E0,1.284249779E-2,-9.937880516E0,2.742127180E-1
3.055967187E0,2.039859770E-3,-9.948799133E0,2.592345774E-1
3.057967187E0,-8.714893833E-3,-9.953433990E0,2.390658259E-1
3.060148437E0,-1.969949156E-2,-9.953865051E0,2.214540839E-1
3.062398437E0,-2.946783416E-2,-9.962187767E0,2.040434480E-1
3.064045312E0,-5.381207541E-2,-9.971533775E0,1.711183786E-1
3.065967187E0,-6.176082790E-2,-9.969341278E0,1.672685146E-1
3.067967187E0,-6.776548922E-2,-9.971179962E0,1.501739025E-1
3.069967187E0,-6.638642401E-2,-9.981866837E0,1.336826533E-1
3.071967187E0,-7.226658612E-2,-9.982029915E0,1.222766712E-1
3.073968750E0,-8.905472606E-2,-9.985363007E0,1.124891713E-1
3.075967187E0,-1.009012386E-1,-9.981904984E0,1.017822996E-1
3.077967187E0,-1.184459478E-1,-9.975365639E0,1.021653712E-1
3.079967187E0,-1.386051178E-1,-9.969570160E0,9.860280901E-2
3.081967187E0,-1.469752491E-1,-9.961075783E0,1.045691520E-1
3.083968750E0,-1.466113329E-1,-9.959121704E0,1.135138944E-1
3.085967187E0,-1.566382498E-1,-9.954027176E0,1.143853813E-1
3.087967187E0,-1.696244031E-1,-9.952389717E0,1.153526381E-1
3.089967187E0,-1.851771325E-1,-9.957331657E0,1.298040450E-1
3.091967187E0,-1.856176704E-1,-9.959697723E0,1.482872814E-1
3.093968750E0,-1.665023714E-1,-9.954237938E0,1.631217450E-1
3.095967187E0,-1.445044428E-1,-9.944154739E0,1.691359878E-1
3.097967187E0,-1.241537258E-1,-9.931253433E0,1.678910106E-1
3.100148437E0,-1.206581891E-1,-9.905242920E0,1.670003533E-1
3.102168750E0,-1.293156296E-1,-9.876589775E0,1.731103659E-1
3.103814062E0,-1.362779588E-1,-9.835476875E0,1.863072067E-1
3.105967187E0,-1.423209161E-1,-9.822260857E0,1.936813295E-1
3.107967187E0,-1.422251612E-1,-9.808192253E0,2.138596773E-1
3.109967187E0,-1.391318440E-1,-9.799687386E0,2.370930016E-1
3.111967187E0,-1.323610544E-1,-9.797916412E0,2.643198669E-1
3.113967187E0,-1.307425648E-1,-9.793654442E0,2.879745662E-1
3.115967187E0,-1.199495122E-1,-9.787985802E0,3.124050200E-1
3.118115625E0,-1.124604419E-1,-9.785754204E0,3.422655165E-1
3.119967187E0,-9.489657730E-2,-9.785552979E0,3.836947680E-1
3.121967187E0,-8.812578022E-2,-9.785964012E0,4.064588249E-1
3.123967187E0,-7.310934365E-2,-9.791518211E0,4.277672470E-1
3.125967187E0,-6.275681406E-2,-9.789487839E0,4.493054748E-1
3.127967187E0,-5.532521382E-2,-9.796316147E0,4.699338973E-1
3.129967187E0,-3.836468980E-2,-9.804198265E0,4.968447387E-1
3.131967187E0,-1.834916137E-2,-9.806774139E0,5.217540264E-1
3.133967187E0,-7.412448525E-3,-9.808786392E0,5.286014676E-1
3.135967187E0,5.238513462E-3,-9.809839249E0,5.340697765E-1
3.137967187E0,1.689348742E-2,-9.817605972E0,5.388199091E-1
3.140148437E0,2.616383508E-2,-9.829844475E0,5.295112133E-1
3.142262500E0,3.374866769E-2,-9.848012924E0,5.232671499E-1
3.144165625E0,4.203260317E-2,-9.857829094E0,5.139201880E-1
3.145967187E0,4.741477221E-2,-9.865098000E0,4.958295822E-1
3.147967187E0,4.790318757E-2,-9.862607002E0,4.791755378E-1
3.149967187E0,4.556644708E-2,-9.843990326E0,4.607114494E-1
3.151967187E0,4.684973881E-2,-9.817060471E0,4.444404542E-1
3.153968750E0,4.785530642E-2,-9.800597191E0,4.244824052E-1
3.155967187E0,4.182191566E-2,-9.800358772E0,3.999944627E-1
3.157967187E0,4.221456498E-2,-9.800980568E0,3.787914515E-1
3.159967187E0,4.550898820E-2,-9.804275513E0,3.685059547E-1
3.161967187E0,3.961925209E-2,-9.822077751E0,3.577607870E-1
3.163968750E0,3.098097071E-2,-9.834450722E0,3.398904502E-1
3.165967187E0,2.489969879E-2,-9.845675468E0,3.238109946E-1
3.167967187E0,7.211335469E-3,-9.862999916E0,3.042647541E-1
3.169967187E0,9.097966831E-4,-9.879903793E0,2.924086452E-1
3.171967187E0,-1.108036563E-2,-9.893952370E0,2.795853019E-1
3.173968750E0,-1.077390742E-2,-9.909783363E0,2.517550886E-1
3.175967187E0,-5.908889696E-3,-9.926484108E0,2.154302746E-1
3.177967187E0,-2.097320743E-3,-9.933858871E0,1.742691547E-1
3.180148437E0,-5.592855159E-3,-9.947390556E0,1.413057894E-1
3.182021875E0,-1.174116507E-2,-9.955492973E0,1.099321693E-1
3.183968750E0,-1.462378446E-2,-9.963614464E0,7.580042630E-2
3.185967187E0,-1.183693297E-2,-9.971879005E0,5.017289147E-2
3.187967187E0,-2.184469625E-2,-9.974522591E0,2.014960162E-2
3.189968750E0,-2.710236423E-2,-9.978180885E0,1.867477316E-3
3.191967187E0,-1.747767255E-2,-9.980498314E0,-1.650083810E-2
3.193968750E0,-1.772666909E-2,-9.974722862E0,-3.404554725E-2
3.195968750E0,-8.111555129E-3,-9.968173027E0,-3.775177523E-2
3.197967187E0,-3.485957626E-3,-9.965337753E0,-3.333686292E-2
3.199968750E0,-5.975927226E-3,-9.968374252E0,-2.681506053E-2
3.201967187E0,-4.893748090E-3,-9.965749741E0,-1.403002162E-2
3.203968750E0,9.481038433E-4,-9.958079338E0,5.248090252E-3
3.205967187E0,-2.403778490E-3,-9.957742691E0,2.898899466E-2
3.207967187E0,3.141192719E-3,-9.961497307E0,5.684792250E-2
3.209967187E0,3.131615929E-3,-9.961593628E0,7.760086656E-2
3.211967187E0,-9.662997909E-3,-9.960042000E0,9.446562082E-2
3.213968750E0,-1.475785952E-2,-9.967894554E0,1.132553145E-1
3.215967187E0,-7.105990313E-3,-9.974416733E0,1.300530434E-1
3.217967187E0,-1.452801563E-2,-9.968258858E0,1.500972956E-1
3.220148437E0,-1.427901909E-2,-9.969034195E0,1.764430851E-1
3.222259375E0,-1.264138520E-2,-9.972309113E0,1.988528073E-1
3.224159375E0,-1.882800274E-2,-9.966995239E0,2.214827985E-1
3.225967187E0,-2.140416391E-2,-9.968527794E0,2.476179153E-1
3.227967187E0,-1.174116507E-2,-9.974646568E0,2.704394460E-1
3.229967187E0,-5.535394419E-3,-9.979625702E0,2.858580947E-1
3.231967187E0,-6.856993772E-3,-9.981733322E0,3.116292953E-1
3.233968750E0,-8.801085874E-3,-9.982135773E0,3.407044709E-1
3.235967187E0,8.619125583E-5,-9.983514786E0,3.598293662E-1
3.237968750E0,3.811569186E-3,-9.974684715E0,3.832159042E-1
3.239968750E0,1.235408010E-3,-9.964819908E0,4.065641761E-1
3.241968750E0,-9.548076428E-3,-9.958662987E0,4.194832742E-1
3.243968750E0,-1.586876810E-2,-9.949507713E0,4.469017088E-1
3.245967187E0,-1.940261014E-2,-9.934768677E0,4.645900428E-1
3.247968750E0,-3.846045583E-2,-9.923870087E0,4.736497104E-1
3.249967187E0,-5.447287858E-2,-9.914025307E0,4.814069271E-1
3.251967187E0,-6.937438995E-2,-9.903059959E0,4.895759225E-1
3.253968750E0,-8.184339106E-2,-9.884519577E0,4.814931154E-1
3.255967187E0,-9.212888032E-2,-9.885410309E0,4.691773355E-1
3.257968750E0,-1.034678221E-1,-9.881052971E0,4.740423560E-1
3.260148437E0,-1.177181080E-1,-9.868468285E0,4.708915949E-1
3.262021875E0,-1.269980371E-1,-9.859457016E0,4.652316868E-1
3.263968750E0,-1.364216208E-1,-9.852121353E0,4.562199116E-1
3.265967187E0,-1.430391818E-1,-9.860107422E0,4.503876269E-1
3.267967187E0,-1.505952924E-1,-9.860260963E0,4.391732216E-1
3.269967187E0,-1.633707434E-1,-9.870278358E0,4.284280539E-1
3.271967187E0,-1.714918762E-1,-9.884375572E0,4.102991223E-1
3.273968750E0,-1.678526849E-1,-9.904372215E0,3.891056478E-1
3.275967187E0,-1.663778722E-1,-9.912953377E0,3.716567159E-1
3.277967187E0,-1.623939127E-1,-9.918612480E0,3.508846164E-1
3.279967187E0,-1.570500433E-1,-9.921628952E0,3.250655532E-1
3.281967187E0,-1.516774595E-1,-9.922903061E0,2.905411720E-1
3.283968750E0,-1.522520781E-1,-9.933159828E0,2.573766708E-1
3.285967187E0,-1.520413756E-1,-9.931302071E0,2.318066061E-1
3.287967187E0,-1.509783566E-1,-9.925134659E0,2.154685855E-1
3.289967187E0,-1.411621273E-1,-9.916754723E0,1.984122843E-1
3.291967187E0,-1.399937570E-1,-9.915759087E0,1.782243848E-1
3.293968750E0,-1.432786137E-1,-9.912023544E0,1.629685163E-1
3.295967187E0,-1.487182379E-1,-9.918181419E0,1.560636461E-1
3.297967187E0,-1.565903574E-1,-9.918153763E0,1.539854705E-1
3.300148437E0,-1.553262323E-1,-9.913498878E0,1.489863843E-1
3.302262500E0,-1.634856761E-1,-9.912722588E0,1.504995078E-1
3.304165625E0,-1.609956920E-1,-9.914437294E0,1.482202411E-1
3.305967187E0,-1.578640938E-1,-9.907504082E0,1.446959674E-1
3.307967187E0,-1.547707617E-1,-9.892497063E0,1.417654753E-1
3.309967187E0,-1.481053233E-1,-9.882920265E0,1.478850543E-1
3.311967187E0,-1.463910639E-1,-9.877307892E0,1.537652165E-1
3.313968750E0,-1.508442909E-1,-9.878149986E0,1.614649594E-1
3.315967187E0,-1.447055489E-1,-9.879826546E0,1.685230732E-1
3.317967187E0,-1.388253868E-1,-9.888024330E0,1.803217083E-1
3.319967187E0,-1.341327578E-1,-9.893109322E0,2.028176188E-1
3.321967187E0,-1.204475015E-1,-9.891979218E0,2.166177928E-1
3.323968750E0,-1.101237014E-1,-9.898970604E0,2.297284454E-1
3.325967187E0,-1.098842844E-1,-9.902667046E0,2.412397563E-1
3.327967187E0,-1.143374965E-1,-9.875085831E0,2.593207657E-1
3.329967187E0,-1.046074629E-1,-9.849706650E0,2.704107165E-1
3.331967187E0,-8.873869479E-2,-9.838129044E0,2.736285031E-1
3.333968750E0,-7.426813245E-2,-9.831990242E0,2.781679332E-1
3.335967187E0,-6.963296235E-2,-9.818190575E0,2.830712497E-1
3.337967187E0,-6.152140722E-2,-9.805970192E0,2.864614427E-1
3.340148437E0,-5.254793912E-2,-9.809274673E0,2.917861640E-1
3.342021875E0,-4.266467318E-2,-9.816658020E0,3.044849932E-1
3.343968750E0,-3.923618048E-2,-9.819272041E0,3.202675879E-1
3.345967187E0,-4.465664923E-2,-9.816284180E0,3.334165215E-1
3.347967187E0,-4.860229418E-2,-9.815786362E0,3.436062634E-1
3.349967187E0,-4.150588065E-2,-9.822958946E0,3.471783996E-1
3.351967187E0,-2.813665755E-2,-9.836347580E0,3.501568139E-1
3.353968750E0,-9.768342599E-3,-9.846461296E0,3.569084406E-1
3.355967187E0,6.483498029E-3,-9.855750084E0,3.503579199E-1
3.357967187E0,1.287122816E-2,-9.868268013E0,3.415472507E-1
3.359967187E0,1.450886205E-2,-9.884720802E0,3.296911716E-1
3.361967187E0,2.186384983E-2,-9.906574249E0,3.218477368E-1
3.363968750E0,3.082774207E-2,-9.926388741E0,3.186299503E-1
3.365967187E0,3.748362511E-2,-9.937229156E0,3.141479790E-1
3.367967187E0,4.195598885E-2,-9.940466881E0,3.102789521E-1
3.369967187E0,5.048892647E-2,-9.936444283E0,2.950997353E-1
3.371967187E0,5.455906689E-2,-9.928697586E0,2.812899649E-1
3.373968750E0,6.851247698E-2,-9.916515350E0,2.706980407E-1
3.375967187E0,7.506301254E-2,-9.908921242E0,2.615809143E-1
3.377967187E0,8.071332425E-2,-9.903289795E0,2.541588843E-1
3.380150000E0,8.638279885E-2,-9.903079033E0,2.517263591E-1
3.382190625E0,9.278967977E-2,-9.903912544E0,2.462963164E-1
3.384178125E0,9.527964890E-2,-9.901508331E0,2.333772033E-1
3.386250000E0,9.387185425E-2,-9.900627136E0,2.258689851E-1
3.388028125E0,9.632352740E-2,-9.884681702E0,2.140895277E-1
3.389967187E0,8.898768574E-2,-9.873084068E0,2.059587985E-1
3.391967187E0,8.274361491E-2,-9.877537727E0,2.043115944E-1
3.393967187E0,8.085697889E-2,-9.871820450E0,2.006053776E-1
3.395967187E0,7.714118063E-2,-9.863182068E0,1.941601932E-1
3.397968750E0,7.157705724E-2,-9.852465630E0,1.864029765E-1
3.399967187E0,6.624277681E-2,-9.843673706E0,1.813176870E-1
3.401967187E0,6.651092321E-2,-9.830506325E0,1.677856594E-1
3.403967187E0,5.668511987E-2,-9.821053505E0,1.572798938E-1
3.405967187E0,4.669651017E-2,-9.817558289E0,1.447438449E-1
3.407968750E0,3.815399855E-2,-9.813765526E0,1.411717087E-1
3.409967187E0,3.272394836E-2,-9.801976204E0,1.421964318E-1
3.411967187E0,3.343263268E-2,-9.794210434E0,1.405779421E-1
3.413967187E0,3.488830477E-2,-9.804265976E0,1.193844751E-1
3.415967187E0,2.416228317E-2,-9.809915543E0,1.020791829E-1
3.417968750E0,7.967903279E-3,-9.792399406E0,9.163089097E-2
3.420148437E0,-2.327163937E-3,-9.768179893E0,8.127836138E-2
3.422021875E0,-1.262223162E-2,-9.747780800E0,6.708553433E-2
3.423967187E0,-2.438254841E-2,-9.720975876E0,4.696466029E-2
3.425967187E0,-2.992752008E-2,-9.687122345E0,1.475785952E-2
3.427968750E0,-3.646847978E-2,-9.660210609E0,-1.446097810E-2
3.429967187E0,-4.117069393E-2,-9.641181946E0,-3.332728520E-2
3.431967187E0,-4.113238677E-2,-9.636518478E0,-4.106534645E-2
3.433967187E0,-5.149449036E-2,-9.630235672E0,-4.878425226E-2
3.435967187E0,-5.995080993E-2,-9.621856689E0,-4.934928566E-2
3.437968750E0,-5.190629140E-2,-9.618149757E0,-5.473145097E-2
3.439967187E0,-4.279874638E-2,-9.611159325E0,-5.915593728E-2
3.441967187E0,-2.380794100E-2,-9.614749908E0,-7.064810395E-2
3.443967187E0,-2.625960298E-2,-9.622498512E0,-8.513780683E-2
3.446876562E0,-2.972640842E-2,-9.624939919E0,-9.138189256E-2
3.447882812E0,-3.309744224E-2,-9.645357132E0,-1.030081362E-1
3.449967187E0,-3.424666077E-2,-9.652721405E0,-1.077199280E-1
3.451995312E0,-3.826892003E-2,-9.675122261E0,-1.199399233E-1
3.453967187E0,-4.058650509E-2,-9.693987846E0,-1.260116249E-1
3.455967187E0,-4.457045719E-2,-9.701026917E0,-1.400320679E-1
3.457967187E0,-4.472368583E-2,-9.703794479E0,-1.576055139E-1
3.460148437E0,-4.970362782E-2,-9.712108612E0,-1.689923406E-1
3.462262500E0,-4.955997318E-2,-9.706179619E0,-1.759929806E-1
3.464167187E0,-4.031835496E-2,-9.700826645E0,-1.878203303E-1
3.465967187E0,-3.566402942E-2,-9.702310562E0,-1.962766498E-1
3.467967187E0,-4.086423665E-2,-9.705030441E0,-2.024058104E-1
3.469967187E0,-4.942589998E-2,-9.711762428E0,-2.097990960E-1
3.471967187E0,-5.951027572E-2,-9.722862244E0,-2.085828483E-1
3.473968750E0,-6.544789672E-2,-9.747178078E0,-1.986038238E-1
3.475967187E0,-7.412447780E-2,-9.768563271E0,-1.791341752E-1
3.477967187E0,-9.085516632E-2,-9.789670944E0,-1.704288423E-1
3.480118750E0,-1.073081195E-1,-9.802991867E0,-1.631121635E-1
3.482368750E0,-1.161570922E-1,-9.817347527E0,-1.450503021E-1
3.484250000E0,-1.291528195E-1,-9.832259178E0,-1.247857884E-1
3.485982812E0,-1.353968978E-1,-9.835074425E0,-1.124125570E-1
3.487967187E0,-1.323993504E-1,-9.834231377E0,-1.028740630E-1
3.489967187E0,-1.273906827E-1,-9.826359749E0,-1.037455425E-1
3.491967187E0,-1.202559695E-1,-9.818382263E0,-1.082945317E-1
3.493967187E0,-1.189152077E-1,-9.814426422E0,-1.116847247E-1
3.495968750E0,-1.183693334E-1,-9.811687469E0,-1.189247891E-1
3.497967187E0,-1.045691520E-1,-9.809274673E0,-1.236748844E-1
3.500148437E0,-8.580818772E-2,-9.807904243E0,-1.224203184E-1
3.502021875E0,-7.537904382E-2,-9.807866096E0,-1.308287531E-1
3.503967187E0,-6.201940030E-2,-9.808162689E0,-1.447246969E-1
3.505968750E0,-5.947196856E-2,-9.806697845E0,-1.619725376E-1
3.507967187E0,-5.521986634E-2,-9.792955399E0,-1.836544126E-1
3.509967187E0,-5.450160429E-2,-9.787985802E0,-2.115420848E-1
3.511967187E0,-4.363192990E-2,-9.782114029E0,-2.386348695E-1
3.513967187E0,-3.387316689E-2,-9.782833099E0,-2.671354413E-1
3.515968750E0,-2.728432231E-2,-9.783532143E0,-2.867295742E-1
3.517967187E0,-2.933375910E-2,-9.785035133E0,-3.120985627E-1
3.519967187E0,-3.505111486E-2,-9.783454895E0,-3.335793316E-1
3.521967187E0,-4.786488041E-2,-9.783034325E0,-3.462494612E-1
3.523967187E0,-4.700296745E-2,-9.785207748E0,-3.608445227E-1
3.525968750E0,-5.539225042E-2,-9.790149689E0,-3.811473250E-1
3.527967187E0,-6.988196075E-2,-9.789402008E0,-3.937408328E-1
3.529967187E0,-7.259219140E-2,-9.775334358E0,-4.088338912E-1
3.531967187E0,-7.235277444E-2,-9.776770592E0,-4.217912853E-1
3.533967187E0,-8.352890611E-2,-9.776913643E0,-4.311861694E-1
3.535968750E0,-9.328767657E-2,-9.764780045E0,-4.335611761E-1
3.537967187E0,-1.068101302E-1,-9.743721008E0,-4.399106205E-1
3.540148437E0,-1.260978132E-1,-9.739459038E0,-4.464324415E-1
3.542254687E0,-1.524627656E-1,-9.727852821E0,-4.560666680E-1
3.544159375E0,-1.670290828E-1,-9.714138985E0,-4.610562027E-1
3.545967187E0,-1.803983152E-1,-9.690118790E0,-4.637185633E-1
3.547967187E0,-1.901283413E-1,-9.670401573E0,-4.792712927E-1
3.549967187E0,-1.941601932E-1,-9.648517609E0,-4.883692563E-1
3.551967187E0,-2.169529945E-1,-9.627122879E0,-5.054447055E-1
3.553968750E0,-2.316533774E-1,-9.602903366E0,-5.208824873E-1
3.555967187E0,-2.363555878E-1,-9.582044601E0,-5.422005057E-1
3.557967187E0,-2.412206084E-1,-9.560430527E0,-5.586726069E-1
3.559967187E0,-2.467943132E-1,-9.545472145E0,-5.800192952E-1
3.561967187E0,-2.641570866E-1,-9.518761635E0,-6.053978205E-1
3.563968750E0,-2.766356468E-1,-9.477293968E0,-6.256815195E-1
3.565967187E0,-2.873808146E-1,-9.428931236E0,-6.434656382E-1
3.567967187E0,-3.007500172E-1,-9.390662193E0,-6.536266208E-1
3.569967187E0,-3.070803285E-1,-9.359250069E0,-6.704722047E-1
3.571967187E0,-3.134967685E-1,-9.323739052E0,-6.834967136E-1
3.573968750E0,-3.186778128E-1,-9.289455414E0,-6.941556931E-1
3.575967187E0,-3.264158964E-1,-9.253992081E0,-6.912634969E-1
3.577967187E0,-3.437116146E-1,-9.220530510E0,-6.792541742E-1
3.580148437E0,-3.571191430E-1,-9.198695183E0,-6.621786952E-1
3.582023437E0,-3.624821603E-1,-9.193370819E0,-6.414545178E-1
3.583968750E0,-3.582491875E-1,-9.191397667E0,-6.176082492E-1
3.585967187E0,-3.617925942E-1,-9.207324028E0,-5.889832377E-1
3.587967187E0,-3.594271243E-1,-9.225835800E0,-5.572360754E-1
3.589967187E0,-3.651253283E-1,-9.253263474E0,-5.260636210E-1
3.591967187E0,-3.626736701E-1,-9.293237686E0,-4.943068922E-1
3.593968750E0,-3.617064357E-1,-9.330050468E0,-4.657201171E-1
3.595967187E0,-3.542748094E-1,-9.368376732E0,-4.389816523E-1
3.597967187E0,-3.317022622E-1,-9.413263321E0,-4.120804071E-1
3.599967187E0,-3.076453507E-1,-9.467919350E0,-3.846907616E-1
3.601967187E0,-2.880320549E-1,-9.523751259E0,-3.573393822E-1
3.603968750E0,-2.493704706E-1,-9.574431419E0,-3.403309882E-1
3.605967187E0,-2.184086591E-1,-9.629192352E0,-3.323918283E-1
3.607967187E0,-2.025303096E-1,-9.669596672E0,-3.229395151E-1
3.609967187E0,-1.927619576E-1,-9.710441589E0,-3.070228696E-1
3.611967187E0,-1.773911864E-1,-9.749783516E0,-2.969576120E-1
3.613968750E0,-1.558242142E-1,-9.786749840E0,-2.824104726E-1
3.615967187E0,-1.398501098E-1,-9.818314552E0,-2.688209414E-1
3.617967187E0,-1.167795807E-1,-9.840350151E0,-2.535268068E-1
3.620148437E0,-1.056513265E-1,-9.856095314E0,-2.483840585E-1
3.622260937E0,-9.880391508E-2,-9.866016388E0,-2.439308465E-1
3.624165625E0,-9.310571104E-2,-9.867875099E0,-2.426667064E-1
3.625967187E0,-8.560708165E-2,-9.863047600E0,-2.413451076E-1
3.627967187E0,-9.173622727E-2,-9.864465714E0,-2.360395491E-1
3.629967187E0,-9.318232536E-2,-9.860471725E0,-2.225458324E-1
3.631967187E0,-1.022228375E-1,-9.868066788E0,-2.045605928E-1
3.633968750E0,-1.207443774E-1,-9.871025085E0,-1.899846941E-1
3.635967187E0,-1.422921866E-1,-9.867865562E0,-1.776306182E-1
3.637967187E0,-1.689253002E-1,-9.867529869E0,-1.670195162E-1
3.639967187E0,-1.946007013E-1,-9.862587929E0,-1.531139761E-1
3.641967187E0,-2.180543244E-1,-9.853988647E0,-1.371494383E-1
3.643968750E0,-2.281961590E-1,-9.843377113E0,-1.232056171E-1
3.645967187E0,-2.365375459E-1,-9.831990242E0,-1.106887385E-1
3.648000000E0,-2.636303306E-1,-9.819569588E0,-1.076816171E-1
3.649967187E0,-2.962106466E-1,-9.808680534E0,-1.149216816E-1
3.651967187E0,-3.319225609E-1,-9.799151421E0,-1.297465861E-1
3.653968750E0,-3.721355498E-1,-9.782995224E0,-1.429625750E-1
3.655967187E0,-4.155950844E-1,-9.749026299E0,-1.648264229E-1
3.657967187E0,-4.719833434E-1,-9.710192680E0,-1.984697431E-1
3.660148437E0,-5.379579663E-1,-9.674365997E0,-2.467751652E-1
3.662021875E0,-6.590949893E-1,-9.647608757E0,-3.301987350E-1
3.663967187E0,-8.128410578E-1,-9.628770828E0,-4.375451207E-1
3.665967187E0,-9.607644081E-1,-9.614213943E0,-5.332844853E-1
3.667967187E0,-1.065266490E0,-9.573225021E0,-5.755181909E-1
3.669967187E0,-1.126500607E0,-9.515199661E0,-5.880351067E-1
3.671968750E0,-1.146276712E0,-9.440758705E0,-5.957157016E-1
3.673967187E0,-1.149618983E0,-9.371671677E0,-6.177614927E-1
3.675967187E0,-1.156945348E0,-9.304250717E0,-6.492308974E-1
3.677967187E0,-1.176204205E0,-9.237165451E0,-6.754617095E-1
3.679967187E0,-1.193988442E0,-9.172407150E0,-7.130123973E-1
3.681968750E0,-1.200251579E0,-9.121458054E0,-7.808257937E-1
3.683967187E0,-1.216350198E0,-9.082509995E0,-8.486869931E-1
3.685967187E0,-1.239937901E0,-9.054008484E0,-9.209631681E-1
3.687967187E0,-1.268323660E0,-9.051423073E0,-9.910271168E-1
3.689967187E0,-1.317787766E0,-9.059841156E0,-1.048373103E0
3.691968750E0,-1.369071484E0,-9.105503082E0,-1.089543700E0
3.693967187E0,-1.425249100E0,-9.174168587E0,-1.130925179E0
3.695967187E0,-1.478342891E0,-9.248246193E0,-1.176654458E0
3.697967187E0,-1.512972713E0,-9.345009804E0,-1.214434862E0
3.700148437E0,-1.533534050E0,-9.466750145E0,-1.247206688E0
3.702262500E0,-1.553827286E0,-9.619433403E0,-1.258622289E0
3.704167187E0,-1.577424526E0,-9.796776772E0,-1.255864143E0
3.705967187E0,-1.607658625E0,-9.987651825E0,-1.249792457E0
3.707967187E0,-1.632673264E0,-1.018422604E1,-1.229365110E0
3.709967187E0,-1.638505459E0,-1.040075684E1,-1.201697707E0
3.711967187E0,-1.660522580E0,-1.064598083E1,-1.172833204E0
3.713968750E0,-1.677952290E0,-1.089486217E1,-1.141909719E0
3.715967187E0,-1.676716924E0,-1.112161255E1,-1.123321176E0
3.717967187E0,-1.683679223E0,-1.134250164E1,-1.141574621E0
3.719967187E0,-1.670424938E0,-1.154524326E1,-1.125830173E0
3.721967187E0,-1.647297025E0,-1.174287033E1,-1.090807915E0
3.723968750E0,-1.621114016E0,-1.190717888E1,-1.055871725E0
3.725967187E0,-1.605666637E0,-1.204203033E1,-9.979511499E-1
3.727967187E0,-1.582299232E0,-1.214772987E1,-9.404616356E-1
3.730150000E0,-1.530910015E0,-1.222638416E1,-8.956804276E-1
3.732190625E0,-1.481417060E0,-1.227616405E1,-8.579765558E-1
3.733970312E0,-1.463268995E0,-1.230819798E1,-8.233755231E-1
3.735967187E0,-1.448195219E0,-1.231066895E1,-7.818505168E-1
3.737967187E0,-1.454123139E0,-1.229171658E1,-7.384196520E-1
3.740148437E0,-1.453194261E0,-1.225183868E1,-6.938109398E-1
3.742021875E0,-1.436578512E0,-1.216942120E1,-6.533871889E-1
3.743968750E0,-1.418258071E0,-1.205776501E1,-6.383420229E-1
3.745970312E0,-1.404754758E0,-1.190605831E1,-6.233064532E-1
3.747967187E0,-1.403069258E0,-1.173900127E1,-5.926702619E-1
3.749967187E0,-1.434011817E0,-1.155401516E1,-5.953804851E-1
3.751967187E0,-1.441309452E0,-1.135298824E1,-5.946047902E-1
3.753968750E0,-1.427461267E0,-1.116216087E1,-5.960413218E-1
3.755968750E0,-1.421313167E0,-1.097709846E1,-5.976406336E-1
3.757967187E0,-1.412914157E0,-1.078812027E1,-6.011457443E-1
3.759967187E0,-1.399104476E0,-1.061582279E1,-6.349422336E-1
3.761967187E0,-1.384566903E0,-1.045688629E1,-6.748297215E-1
3.763968750E0,-1.395541906E0,-1.030164623E1,-7.331715822E-1
3.765967187E0,-1.366102815E0,-1.015318680E1,-7.773686051E-1
3.767967187E0,-1.308009863E0,-1.002816200E1,-8.262773156E-1
3.769967187E0,-1.263439298E0,-9.922136307E0,-8.422418237E-1
3.771967187E0,-1.217777252E0,-9.847572327E0,-8.464556336E-1
3.773968750E0,-1.183358192E0,-9.782793999E0,-8.423950672E-1
3.775967187E0,-1.148603916E0,-9.731060982E0,-8.440806270E-1
3.777967187E0,-1.117220759E0,-9.697847366E0,-8.645941019E-1
3.780148437E0,-1.089151144E0,-9.689257622E0,-9.005645514E-1
3.782262500E0,-1.068838596E0,-9.685082436E0,-9.468780756E-1
3.784167187E0,-1.042301416E0,-9.686643600E0,-1.002471447E0
3.785967187E0,-1.019814968E0,-9.692657471E0,-1.050767183E0
3.787967187E0,-1.010429740E0,-9.699179649E0,-1.105785966E0
3.789967187E0,-1.004444242E0,-9.740311623E0,-1.150605440E0
3.791967187E0,-1.004846454E0,-9.791902542E0,-1.185790658E0
3.793968750E0,-1.012642026E0,-9.834461212E0,-1.230303645E0
3.795967187E0,-1.017746449E0,-9.866217613E0,-1.286385417E0
3.797967187E0,-1.008591056E0,-9.906574249E0,-1.311955452E0
3.799967187E0,-9.875411391E-1,-9.948808670E0,-1.334911108E0
3.801967187E0,-9.678512812E-1,-9.988753319E0,-1.353011250E0
3.803968750E0,-9.357306361E-1,-1.003754711E1,-1.380238175E0
3.805967187E0,-8.964178562E-1,-1.008287430E1,-1.400110006E0
3.807967187E0,-8.755308390E-1,-1.012214851E1,-1.423362374E0
3.809967187E0,-8.693825006E-1,-1.013394737E1,-1.431857109E0
3.811967187E0,-8.796296716E-1,-1.015703678E1,-1.434462070E0
3.813968750E0,-8.910835385E-1,-1.019507599E1,-1.430114150E0
3.815967187E0,-8.795147538E-1,-1.021938229E1,-1.408336401E0
3.817967187E0,-8.485721350E-1,-1.020817661E1,-1.383944392E0
3.820148437E0,-8.135880828E-1,-1.019664669E1,-1.344660282E0
3.822021875E0,-7.866005898E-1,-1.017783833E1,-1.311151028E0
3.823968750E0,-7.431985140E-1,-1.015111828E1,-1.282918572E0
3.825967187E0,-6.914454103E-1,-1.011098099E1,-1.272221327E0
3.827967187E0,-6.499108076E-1,-1.005105972E1,-1.279528499E0
3.829967187E0,-6.290237904E-1,-9.986463547E0,-1.277172446E0
3.831967187E0,-6.158748865E-1,-9.910414696E0,-1.275879622E0
3.833968750E0,-6.220423579E-1,-9.832785606E0,-1.276090384E0
3.835967187E0,-6.160280704E-1,-9.747484207E0,-1.280974507E0
3.837967187E0,-6.048998237E-1,-9.668054581E0,-1.296594262E0
3.839967187E0,-5.678471923E-1,-9.599972725E0,-1.309599638E0
3.841967187E0,-5.325087905E-1,-9.520389557E0,-1.337554336E0
3.843968750E0,-5.058469176E-1,-9.449214935E0,-1.372509599E0
3.845967187E0,-5.015852451E-1,-9.381430626E0,-1.425795078E0
3.847967187E0,-5.068333149E-1,-9.292442322E0,-1.471648812E0
3.849967187E0,-4.827476740E-1,-9.201156616E0,-1.528946757E0
3.851967187E0,-4.553771615E-1,-9.122473717E0,-1.603760719E0
3.853968750E0,-4.260912836E-1,-9.045523643E0,-1.696828246E0
3.855967187E0,-4.157004356E-1,-8.988245010E0,-1.800545096E0
3.857967187E0,-4.463557899E-1,-8.929931641E0,-1.897941113E0
3.860148437E0,-5.039603114E-1,-8.898673058E0,-1.985817909E0
3.862262500E0,-5.585864186E-1,-8.892620087E0,-2.059952021E0
3.864321875E0,-6.098414660E-1,-8.898999214E0,-2.107117653E0
3.865814062E0,-6.571317911E-1,-8.913938522E0,-2.163209200E0
3.867970312E0,-6.590662599E-1,-8.925593376E0,-2.184642076E0
3.869967187E0,-6.600622535E-1,-8.941845894E0,-2.224816561E0
3.871967187E0,-6.653007865E-1,-8.936491966E0,-2.252216101E0
3.873967187E0,-6.745998263E-1,-8.925967216E0,-2.270402431E0
3.875967187E0,-6.822325587E-1,-8.919416428E0,-2.291777849E0
3.877967187E0,-6.877871156E-1,-8.934691429E0,-2.317922354E0
3.879967187E0,-6.893960238E-1,-8.943147659E0,-2.338186979E0
3.881967187E0,-7.014244795E-1,-8.938752174E0,-2.357934237E0
3.883967187E0,-6.921254396E-1,-8.925805092E0,-2.370470524E0
3.885967187E0,-6.589130163E-1,-8.930275917E0,-2.381789923E0
3.887967187E0,-6.206249595E-1,-8.934681892E0,-2.400704384E0
3.889967187E0,-5.898834467E-1,-8.920412064E0,-2.440687418E0
3.891967187E0,-5.689772367E-1,-8.900186539E0,-2.507083416E0
3.893967187E0,-5.687665343E-1,-8.879107475E0,-2.556768179E0
3.895967187E0,-5.658552051E-1,-8.865796089E0,-2.597028732E0
3.897967187E0,-5.734208822E-1,-8.865489006E0,-2.621459246E0
3.900148437E0,-5.913391113E-1,-8.870172501E0,-2.634541273E0
3.902021875E0,-6.135764122E-1,-8.885437965E0,-2.633152485E0
3.903967187E0,-6.298187375E-1,-8.907742500E0,-2.611643076E0
3.905967187E0,-6.480146646E-1,-8.929836273E0,-2.594069481E0
3.907967187E0,-6.541438103E-1,-8.951844215E0,-2.575749159E0
3.909967187E0,-6.698018909E-1,-8.975929260E0,-2.561393499E0
3.911967187E0,-6.815047264E-1,-9.008997917E0,-2.555494308E0
3.913967187E0,-7.030621171E-1,-9.044873238E0,-2.547028303E0
3.915967187E0,-7.128017545E-1,-9.061938286E0,-2.550974131E0
3.917967187E0,-7.258166075E-1,-9.076628685E0,-2.572569847E0
3.919967187E0,-7.453916073E-1,-9.095361710E0,-2.582548857E0
3.921967187E0,-7.696017623E-1,-9.114026070E0,-2.582155943E0
3.923967187E0,-7.938407063E-1,-9.136282921E0,-2.567359924E0
3.925967187E0,-8.102648854E-1,-9.161039352E0,-2.553339481E0
3.927967187E0,-8.323202729E-1,-9.188936234E0,-2.552429676E0
3.929967187E0,-8.630043864E-1,-9.218414307E0,-2.554680109E0
3.931967187E0,-9.167972803E-1,-9.228967667E0,-2.564726353E0
3.933967187E0,-1.038346052E0,-9.244644165E0,-2.592192650E0
3.935967187E0,-1.185771465E0,-9.272245407E0,-2.646339893E0
3.937967187E0,-1.259139419E0,-9.338056564E0,-2.602458954E0
3.940148437E0,-1.230054736E0,-9.380118370E0,-2.480948448E0
3.942426562E0,-1.220113873E0,-9.428663254E0,-2.387143612E0
