"Time (s)","Gyroscope x (rad/s)","Gyroscope y (rad/s)","Gyroscope z (rad/s)"
8.277703100E-2,-3.285841644E-1,-1.334395856E-1,2.679596245E-1
8.517713500E-2,-3.371362686E-1,-1.456568837E-1,2.752900124E-1
8.757651000E-2,-3.444666266E-1,-1.652045399E-1,2.789551914E-1
8.997505200E-2,-3.517970145E-1,-1.835304946E-1,2.850638628E-1
9.237437500E-2,-3.603491187E-1,-2.006347030E-1,2.899507582E-1
9.477447900E-2,-3.676795065E-1,-2.226258367E-1,2.923942208E-1
9.717385400E-2,-3.713446856E-1,-2.482821494E-1,2.911725044E-1
9.957234400E-2,-3.725664020E-1,-2.751602232E-1,2.875072956E-1
1.019717190E-1,-3.725664020E-1,-3.008165359E-1,2.826204002E-1
1.043718230E-1,-3.676795065E-1,-3.289163113E-1,2.740682960E-1
1.067711980E-1,-3.603491187E-1,-3.545726240E-1,2.642944455E-1
1.091696870E-1,-3.481318355E-1,-3.790072203E-1,2.545205951E-1
1.115690620E-1,-3.334710598E-1,-4.071069956E-1,2.410815805E-1
1.139691670E-1,-3.163668513E-1,-4.327633083E-1,2.276425511E-1
1.163685420E-1,-2.968191803E-1,-4.559761584E-1,2.154252529E-1
1.187670310E-1,-2.760497928E-1,-4.694151878E-1,2.105383426E-1
1.211664060E-1,-2.552803755E-1,-4.510892630E-1,2.251990885E-1
1.235665100E-1,-2.345109582E-1,-4.119939208E-1,2.532988787E-1
1.259658330E-1,-2.161850184E-1,-3.961114287E-1,2.765117288E-1
1.283643750E-1,-2.015242577E-1,-3.924462497E-1,2.887290418E-1
1.307637500E-1,-1.905286908E-1,-3.961114287E-1,2.936159670E-1
1.331638540E-1,-1.807548553E-1,-4.034417868E-1,2.887290418E-1
1.355631770E-1,-1.722027510E-1,-4.168808162E-1,2.740682960E-1
1.379617190E-1,-1.636506468E-1,-4.278763831E-1,2.508554161E-1
1.403610940E-1,-1.563202739E-1,-4.376502335E-1,2.215339094E-1
1.427611980E-1,-1.441029757E-1,-4.462023377E-1,1.909906715E-1
1.451605210E-1,-1.331074089E-1,-4.547544420E-1,1.641126126E-1
1.475590620E-1,-1.184466779E-1,-4.571979046E-1,1.384562999E-1
1.499584370E-1,-1.025641859E-1,-4.523109794E-1,1.176868975E-1
1.523585420E-1,-8.668170869E-2,-4.242112041E-1,1.030261517E-1
1.547578650E-1,-6.713403761E-2,-3.496856987E-1,9.691751003E-2
1.571563540E-1,-4.269944504E-2,-2.653863728E-1,9.691751003E-2
1.595557810E-1,-1.215620805E-2,-1.908608675E-1,1.054696143E-1
1.619558850E-1,1.960875839E-2,-1.041180715E-1,9.936095774E-2
1.643552080E-1,5.503891036E-2,9.502764791E-3,9.203058481E-2
1.667536980E-1,9.657770395E-2,1.133497655E-1,1.127999872E-1
1.691531250E-1,1.430034339E-1,1.878752559E-1,1.470084041E-1
1.715532290E-1,1.833205074E-1,2.343009859E-1,1.824385673E-1
1.739525520E-1,2.163072079E-1,2.538486421E-1,2.117600739E-1
1.763510420E-1,2.431852520E-1,2.562921047E-1,2.300860137E-1
1.787504690E-1,2.688415349E-1,2.465182692E-1,2.361946553E-1
1.811505730E-1,2.908326685E-1,2.318575233E-1,2.276425511E-1
1.835498960E-1,3.067151606E-1,2.184184939E-1,2.105383426E-1
1.859483850E-1,3.213759065E-1,2.098663896E-1,1.946558505E-1
1.883478120E-1,3.372583985E-1,2.025360167E-1,1.787733734E-1
1.907479170E-1,3.506974280E-1,2.037577480E-1,1.702212691E-1
1.931472400E-1,3.629147112E-1,2.233054191E-1,1.665560752E-1
1.955457290E-1,3.763537407E-1,2.575138211E-1,1.665560752E-1
1.979451040E-1,3.897927701E-1,3.222654760E-1,1.665560752E-1
2.003452600E-1,4.007883370E-1,5.763852596E-1,1.702212691E-1
2.027445830E-1,4.093404412E-1,9.135826230E-1,1.812168360E-1
2.051430730E-1,4.166707993E-1,1.198245525E0,2.007645071E-1
2.075424480E-1,4.288881123E-1,1.504899621E0,2.423032969E-1
2.099426040E-1,4.447705746E-1,1.843318701E0,2.997246087E-1
2.123419270E-1,4.484357834E-1,2.129203320E0,3.449285924E-1
2.147404170E-1,4.411053956E-1,2.346671104E0,3.791370094E-1
2.171397920E-1,4.313315749E-1,2.483504772E0,4.011281431E-1
2.195399480E-1,4.215577245E-1,2.537260771E0,4.145671725E-1
2.219392710E-1,4.117838740E-1,2.526265383E0,4.194540977E-1
2.243377600E-1,3.983448744E-1,2.462735415E0,4.182323515E-1
2.267371350E-1,3.849058449E-1,2.362553596E0,4.096802473E-1
2.291372400E-1,3.739102781E-1,2.248932600E0,3.974629641E-1
2.315366150E-1,3.641364276E-1,2.130424976E0,3.779152930E-1
2.339351040E-1,3.531408906E-1,2.000921726E0,3.608110845E-1
2.363344790E-1,3.409235775E-1,1.862866282E0,3.449285924E-1
2.387345830E-1,3.335931897E-1,1.739471674E0,3.314895630E-1
2.411339580E-1,3.262628317E-1,1.646620154E0,3.217157423E-1
2.435324480E-1,3.250410855E-1,1.597751021E0,3.168288171E-1
2.459318230E-1,3.274845481E-1,1.596529245E0,3.143853545E-1
2.483319270E-1,3.397018611E-1,1.653950572E0,3.180505335E-1
2.507312500E-1,3.555843234E-1,1.763906240E0,3.229374588E-1
2.531297920E-1,3.763537407E-1,1.932504892E0,3.278243840E-1
2.555291670E-1,4.032317698E-1,2.174407244E0,3.339330256E-1
2.579292710E-1,4.313315749E-1,2.459070206E0,3.424851298E-1
2.603285940E-1,4.472140372E-1,2.749841690E0,3.534806967E-1
2.627271350E-1,4.533226788E-1,3.029617786E0,3.669197261E-1
2.651265100E-1,4.508792162E-1,3.287402630E0,3.840239346E-1
2.675266150E-1,4.313315749E-1,3.480436087E0,3.999064267E-1
2.699259370E-1,4.068969786E-1,3.600165367E0,4.292279184E-1
2.723244790E-1,3.543626070E-1,3.614826202E0,4.561059773E-1
2.747238540E-1,2.627328932E-1,3.515866041E0,4.475538731E-1
2.771239580E-1,1.662162989E-1,3.344824076E0,4.243409932E-1
2.795232810E-1,8.436042070E-2,3.124912739E0,4.096802473E-1
2.819218230E-1,4.526507482E-2,2.829254150E0,3.889108598E-1
2.843211980E-1,8.069522679E-2,2.426083565E0,3.730283678E-1
2.867213020E-1,1.405599862E-1,1.954496026E0,3.437068760E-1
2.891206250E-1,1.918726265E-1,1.511008263E0,2.960594296E-1
2.915191150E-1,2.456287146E-1,1.176254392E0,2.532988787E-1
2.939185420E-1,2.993847728E-1,9.453475475E-1,2.166469842E-1
2.963186460E-1,3.482539654E-1,7.743054628E-1,1.848820150E-1
2.987179690E-1,3.995665908E-1,6.264761686E-1,1.580039710E-1
3.011164580E-1,4.459923208E-1,5.116336346E-1,1.323476583E-1
3.035158850E-1,4.887528419E-1,4.261125028E-1,1.091347933E-1
3.059159900E-1,5.217395425E-1,3.589173555E-1,8.592194319E-2
3.083153120E-1,5.522827506E-1,3.076047301E-1,7.003945112E-2
3.107138020E-1,5.730521679E-1,2.379661649E-1,6.881772727E-2
3.131132290E-1,5.706087351E-1,1.109063029E-1,7.370464504E-2
3.155133330E-1,5.559479594E-1,-4.914025217E-2,8.103501797E-2
3.179126560E-1,5.400654674E-1,-1.823087633E-1,9.080885351E-2
3.203111460E-1,5.327351093E-1,-2.580559850E-1,1.005826890E-1
3.227105730E-1,5.278481841E-1,-2.922644317E-1,1.018044204E-1
3.251106770E-1,5.266264677E-1,-2.959296107E-1,1.030261517E-1
3.275100000E-1,5.229612589E-1,-2.788254023E-1,1.005826890E-1
3.299084900E-1,5.205178261E-1,-2.458386868E-1,1.005826890E-1
3.323078650E-1,5.131874084E-1,-2.177389115E-1,9.813922644E-2
3.347080210E-1,4.997484088E-1,-2.104085386E-1,9.936095774E-2
3.371073440E-1,4.850876629E-1,-2.165171802E-1,9.936095774E-2
3.395058330E-1,4.655399919E-1,-2.275127470E-1,1.030261517E-1
3.419052080E-1,4.459923208E-1,-2.446169555E-1,1.091347933E-1
3.443053650E-1,4.227794409E-1,-2.714950144E-1,1.127999872E-1
3.467046870E-1,3.983448744E-1,-3.020382524E-1,1.140217185E-1
3.491031770E-1,3.678016365E-1,-3.386901319E-1,1.091347933E-1
3.515025520E-1,3.348149359E-1,-3.704551160E-1,9.936095774E-2
3.539026560E-1,2.969413102E-1,-3.948896825E-1,9.080885351E-2
3.563020310E-1,2.554025054E-1,-4.022200704E-1,7.981328666E-2
3.587005210E-1,2.089768350E-1,-3.973331451E-1,7.003945112E-2
3.610998960E-1,1.637728363E-1,-3.802289367E-1,6.637427211E-2
3.635000000E-1,1.149036586E-1,-3.570160866E-1,6.637427211E-2
3.658993750E-1,7.214312255E-2,-3.325814903E-1,6.515254080E-2
3.682978650E-1,3.182605281E-2,-3.118121028E-1,6.759600341E-2
3.706972400E-1,-9.712749161E-3,-2.947078943E-1,7.126118243E-2
3.730973440E-1,-4.880809411E-2,-2.751602232E-1,7.981328666E-2
3.754966670E-1,-8.545997739E-2,-2.604994476E-1,8.836539090E-2
3.778952080E-1,-1.196683943E-1,-2.495038807E-1,9.813922644E-2
3.802945830E-1,-1.489899009E-1,-2.409517765E-1,1.054696143E-1
3.826946870E-1,-1.746462137E-1,-2.336213887E-1,1.152434498E-1
3.850940100E-1,-1.990807950E-1,-2.201823741E-1,1.250172853E-1
3.874925520E-1,-2.174067497E-1,-2.042998821E-1,1.408997625E-1
3.898919270E-1,-2.357326895E-1,-1.859739423E-1,1.616691649E-1
3.922920310E-1,-2.491717041E-1,-1.688697338E-1,1.848820150E-1
3.946913540E-1,-2.626107633E-1,-1.517655253E-1,2.068731487E-1
3.970898960E-1,-2.736063302E-1,-1.371047646E-1,2.264208198E-1
3.994892710E-1,-2.833801508E-1,-1.273309290E-1,2.398598492E-1
4.018893750E-1,-2.894888222E-1,-1.187788248E-1,2.520771623E-1
4.042886980E-1,-2.931540012E-1,-1.114484519E-1,2.581858039E-1
4.066871870E-1,-2.968191803E-1,-1.016746163E-1,2.618509829E-1
4.090866150E-1,-2.968191803E-1,-9.067904949E-2,2.679596245E-1
4.114867190E-1,-2.968191803E-1,-8.334867656E-2,2.740682960E-1
4.138860420E-1,-2.968191803E-1,-8.212694526E-2,2.887290418E-1
4.162845310E-1,-2.943757176E-1,-8.090521395E-2,3.021680713E-1
4.186839580E-1,-2.943757176E-1,-7.479656488E-2,3.119418919E-1
4.210840620E-1,-2.968191803E-1,-6.135754287E-2,3.204939961E-1
4.234833850E-1,-3.053712845E-1,-3.814468533E-2,3.278243840E-1
4.258818750E-1,-3.127016723E-1,-6.379718427E-3,3.388199508E-1
4.282813020E-1,-3.273624182E-1,3.515908122E-2,3.461503088E-1
4.306814060E-1,-3.444666266E-1,8.891517669E-2,3.547024131E-1
4.330807290E-1,-3.627925813E-1,1.463364661E-1,3.632545471E-1
4.354792190E-1,-3.847837150E-1,2.000925541E-1,3.718066514E-1
4.378785940E-1,-4.067748487E-1,2.489617169E-1,3.803587556E-1
4.402787500E-1,-4.287659526E-1,2.892788053E-1,3.889108598E-1
4.426780730E-1,-4.507570863E-1,3.271524012E-1,4.011281431E-1
4.450765620E-1,-4.751916826E-1,3.662477434E-1,4.170106351E-1
4.474759370E-1,-5.045132041E-1,3.955692649E-1,4.328930974E-1
4.498760420E-1,-5.436085463E-1,4.151169360E-1,4.499973357E-1
4.522754170E-1,-5.863690376E-1,4.248907566E-1,4.658797979E-1
4.546739060E-1,-6.364599466E-1,4.358863235E-1,4.817622900E-1
4.570732810E-1,-6.902160645E-1,4.358863235E-1,4.927578568E-1
4.594733850E-1,-7.427504063E-1,4.248907566E-1,4.964230359E-1
4.618727600E-1,-7.928413153E-1,4.102300107E-1,4.939795732E-1
4.642712500E-1,-8.404887915E-1,3.870171607E-1,4.805405736E-1
4.666706250E-1,-8.771407008E-1,3.479218185E-1,4.622146189E-1
4.690707290E-1,-9.125708342E-1,3.014960885E-1,4.402234852E-1
4.714701040E-1,-9.528878927E-1,2.550703585E-1,4.133454561E-1
4.738685940E-1,-9.883180261E-1,1.903187186E-1,3.828022182E-1
4.762679690E-1,-1.018861175E0,1.157932281E-1,3.559241593E-1
4.786680730E-1,-1.048182726E0,4.615464807E-2,3.363764882E-1
4.810674480E-1,-1.068952084E0,-8.823176846E-3,3.229374588E-1
4.834659370E-1,-1.090943217E0,-3.814468533E-2,3.119418919E-1
4.858653120E-1,-1.110490918E0,-5.524889380E-2,2.972811460E-1
4.882654170E-1,-1.120264769E0,-9.923115373E-2,2.826204002E-1
4.906647400E-1,-1.123929858E0,-2.030781657E-1,2.691813707E-1
4.930632810E-1,-1.120264769E0,-3.900027871E-1,2.520771623E-1
4.954626560E-1,-1.105603933E0,-6.367920637E-1,2.349729240E-1
4.978627600E-1,-1.088499784E0,-8.542599082E-1,2.190904468E-1
5.002620830E-1,-1.072617292E0,-9.568851590E-1,2.007645071E-1
5.026605730E-1,-1.044517517E0,-9.483330846E-1,1.824385673E-1
5.050600000E-1,-1.001757026E0,-8.615902662E-1,1.726647317E-1
5.074601040E-1,-9.504444599E-1,-7.418608069E-1,1.641126126E-1
5.098594270E-1,-9.015752673E-1,-6.172444224E-1,1.543387920E-1
5.122579170E-1,-8.527060747E-1,-5.024018288E-1,1.421214938E-1
5.146573440E-1,-8.062803745E-1,-4.009983540E-1,1.274607331E-1
5.170574480E-1,-7.622981071E-1,-3.069251776E-1,1.152434498E-1
5.194567710E-1,-7.146506310E-1,-2.336213887E-1,1.079130620E-1
5.218552600E-1,-6.596728563E-1,-1.774218380E-1,1.152434498E-1
5.242546870E-1,-6.181340218E-1,-1.151136383E-1,1.250172853E-1
5.266547920E-1,-5.851473212E-1,-7.479656488E-2,1.311259270E-1
5.290541150E-1,-5.546041131E-1,-6.380100548E-2,1.372345686E-1
5.314526040E-1,-5.252826214E-1,-6.746619195E-2,1.457866728E-1
5.338519790E-1,-5.008479953E-1,-7.479656488E-2,1.592257023E-1
5.362521350E-1,-4.825220704E-1,-7.479656488E-2,1.714430004E-1
5.386514580E-1,-4.617526531E-1,-7.113137841E-2,1.836602837E-1
5.410499480E-1,-4.483136535E-1,-6.135754287E-2,1.897689402E-1
5.434493230E-1,-4.336528778E-1,-5.524889380E-2,1.946558505E-1
5.458494790E-1,-4.214355946E-1,-5.036197975E-2,1.970993131E-1
5.482488020E-1,-4.067748487E-1,-5.036197975E-2,1.970993131E-1
5.506472920E-1,-4.018879235E-1,-5.036197975E-2,1.983210444E-1
5.530466670E-1,-3.933358192E-1,-6.257927418E-2,2.044296861E-1
5.554467710E-1,-3.835619688E-1,-7.846175879E-2,2.129818052E-1
5.578461460E-1,-3.847837150E-1,-7.846175879E-2,2.203121781E-1
5.602446350E-1,-3.933358192E-1,-6.380100548E-2,2.203121781E-1
5.626440100E-1,-4.079965651E-1,-3.814468533E-2,2.154252529E-1
5.650441150E-1,-4.299876988E-1,-3.936259542E-3,2.068731487E-1
5.674434370E-1,-4.519788325E-1,3.027216531E-2,1.983210444E-1
5.698419790E-1,-4.764134288E-1,7.425442338E-2,1.861037463E-1
5.722413540E-1,-4.984045327E-1,1.243453324E-1,1.775516421E-1
5.746414580E-1,-5.203956962E-1,1.793231517E-1,1.714430004E-1
5.770407810E-1,-5.509389043E-1,2.343009859E-1,1.689995378E-1
5.794393230E-1,-5.875908136E-1,2.758397758E-1,1.714430004E-1
5.818386980E-1,-6.352382302E-1,3.039395511E-1,1.836602837E-1
5.842388020E-1,-6.877726316E-1,3.283741474E-1,2.019862384E-1
5.866381250E-1,-7.451938987E-1,3.662477434E-1,2.300860137E-1
5.890366150E-1,-8.062803745E-1,4.077865481E-1,2.728465497E-1
5.914360420E-1,-8.918014169E-1,3.967909813E-1,3.082767129E-1
5.938361460E-1,-9.797659516E-1,3.980126977E-1,3.314895630E-1
5.962354690E-1,-1.068952084E0,4.102300107E-1,3.473720551E-1
5.986339580E-1,-1.138590693E0,4.236690402E-1,3.730283678E-1
6.010333850E-1,-1.182572961E0,4.371080399E-1,4.157888889E-1
6.034334900E-1,-1.208229184E0,4.578774571E-1,4.707667232E-1
6.058328120E-1,-1.199677110E0,4.554339945E-1,5.440704823E-1
6.082313020E-1,-1.158138275E0,4.517688155E-1,6.222611666E-1
6.106307290E-1,-1.090943217E0,4.407732487E-1,6.980084181E-1
6.130308330E-1,-9.993135929E-1,3.857954144E-1,7.737556100E-1
6.154301560E-1,-8.881362677E-1,2.917222381E-1,8.421725035E-1
6.178286460E-1,-7.537459731E-1,1.609972119E-1,9.020372033E-1
6.202280210E-1,-5.961428881E-1,-7.601447869E-3,9.460194707E-1
6.226281770E-1,-4.214355946E-1,-1.896391362E-1,9.716758132E-1
6.250275000E-1,-2.430630624E-1,-3.802289367E-1,9.765627384E-1
6.274259900E-1,-6.469057500E-2,-5.427188873E-1,9.643453956E-1
6.298253650E-1,9.535598755E-2,-6.856612563E-1,9.399108291E-1
6.322254690E-1,2.273027748E-1,-8.078342080E-1,9.105893373E-1
6.346248440E-1,3.323714733E-1,-9.080160260E-1,8.837112784E-1
6.370233330E-1,4.056752324E-1,-9.874284267E-1,8.604984283E-1
6.394227080E-1,4.472140372E-1,-1.046071529E0,8.507245779E-1
6.418228120E-1,4.533226788E-1,-1.082723379E0,8.568332195E-1
6.442221870E-1,4.203360081E-1,-1.109601378E0,8.776026368E-1
6.466206770E-1,3.629147112E-1,-1.109601378E0,9.057024121E-1
6.490200520E-1,2.957195938E-1,-1.077836394E0,9.399108291E-1
6.514201560E-1,2.211941183E-1,-1.015528202E0,9.790061712E-1
6.538195310E-1,1.478903592E-1,-9.287853837E-1,1.018101573E0
6.562180210E-1,7.825176418E-2,-8.273818493E-1,1.052309990E0
6.586173960E-1,9.834921919E-3,-7.198696733E-1,1.080409765E0
6.610175000E-1,-5.613846704E-2,-6.135792136E-1,1.099957347E0
6.634168230E-1,-1.221118569E-1,-5.207277536E-1,1.102400899E0
6.658153650E-1,-1.893069744E-1,-4.437588751E-1,1.090183496E0
6.682147400E-1,-2.577238381E-1,-3.790072203E-1,1.058418632E0
6.706148440E-1,-3.298058808E-1,-3.130338192E-1,1.010771155E0
6.730141670E-1,-4.031096399E-1,-2.385083139E-1,9.460194707E-1
6.754127080E-1,-4.788568616E-1,-1.566524357E-1,8.641635776E-1
6.778120830E-1,-5.558258295E-1,-7.113137841E-2,7.725338936E-1
6.802121870E-1,-6.352382302E-1,1.194622368E-2,6.674651504E-1
6.826115100E-1,-7.195375562E-1,8.524999022E-2,5.538443327E-1
6.850100000E-1,-8.013934493E-1,1.634406745E-1,4.390017688E-1
6.874094270E-1,-8.881362677E-1,2.489617169E-1,3.253809214E-1
6.898095310E-1,-9.675486684E-1,3.503652513E-1,2.178687155E-1
6.922088540E-1,-1.049404383E0,4.615426362E-1,1.225738227E-1
6.946073440E-1,-1.128816843E0,5.824939013E-1,3.705276176E-2
6.970067710E-1,-1.203342319E0,7.107754946E-1,-3.502927348E-2
6.994068750E-1,-1.276646137E0,8.463875055E-1,-9.489402175E-2
7.018061980E-1,-1.346284628E0,9.893298745E-1,-1.474283934E-1
7.042046870E-1,-1.414701462E0,1.137158990E0,-1.926323771E-1
7.066040620E-1,-1.481896639E0,1.272771001E0,-2.366146296E-1
7.090042190E-1,-1.549091697E0,1.397387385E0,-2.818185985E-1
7.114035420E-1,-1.621173739E0,1.513451695E0,-3.319095075E-1
7.138020310E-1,-1.695699334E0,1.628294230E0,-3.844438791E-1
7.162014060E-1,-1.765337825E0,1.746801972E0,-4.381999671E-1
7.186015620E-1,-1.834976435E0,1.857979417E0,-5.017299056E-1
7.210008850E-1,-1.903393269E0,1.966713309E0,-5.664815903E-1
7.233993750E-1,-1.968144894E0,2.066895008E0,-6.410070658E-1
7.257987500E-1,-2.031675100E0,2.160968065E0,-7.228629589E-1
7.281988540E-1,-2.092761517E0,2.245267630E0,-8.108274341E-1
7.305982290E-1,-2.152626276E0,2.317349434E0,-9.049006104E-1
7.329967190E-1,-2.213712692E0,2.372327328E0,-1.002638936E0
7.353960940E-1,-2.274799109E0,2.408979177E0,-1.102820754E0
7.377961980E-1,-2.337107420E0,2.435857296E0,-1.203002572E0
7.401955730E-1,-2.401859045E0,2.454183340E0,-1.303184390E0
7.425940620E-1,-2.461723804E0,2.466400623E0,-1.398479342E0
7.449934370E-1,-2.513036489E0,2.487169981E0,-1.490109086E0
7.473935420E-1,-2.566792488E0,2.542147875E0,-1.582960486E0
7.497928650E-1,-2.619326830E0,2.610564709E0,-1.668481469E0
7.521914060E-1,-2.664530754E0,2.682646751E0,-1.744228721E0
7.545907810E-1,-2.707291365E0,2.757172108E0,-1.810202122E0
7.569908850E-1,-2.748830080E0,2.842693090E0,-1.866401672E0
7.593902080E-1,-2.783038616E0,2.924549103E0,-1.910383940E0
7.617887500E-1,-2.817246914E0,3.007626772E0,-1.947035789E0
7.641881250E-1,-2.847790241E0,3.080930471E0,-1.971470475E0
7.665882290E-1,-2.878333569E0,3.160342932E0,-1.992239833E0
7.689875520E-1,-2.905211449E0,3.242198706E0,-2.003235340E0
7.713860420E-1,-2.927202702E0,3.324054718E0,-2.010565758E0
7.737854690E-1,-2.943085194E0,3.403466940E0,-2.011787415E0
7.761855730E-1,-2.955302477E0,3.477992535E0,-2.013009071E0
7.785848960E-1,-2.963854551E0,3.545187712E0,-2.013009071E0
7.809833850E-1,-2.968741417E0,3.609939337E0,-2.014230728E0
7.833827600E-1,-2.974850178E0,3.673469305E0,-2.020339489E0
7.857829170E-1,-2.983402252E0,3.729668856E0,-2.031335115E0
7.881822400E-1,-2.995619535E0,3.777316332E0,-2.050882816E0
7.905807290E-1,-3.009058475E0,3.816411495E0,-2.077760696E0
7.929801040E-1,-3.023719311E0,3.845733166E0,-2.110747576E0
7.953802600E-1,-3.037158251E0,3.867724180E0,-2.152286291E0
7.977795830E-1,-3.048153877E0,3.879941463E0,-2.201155424E0
8.001780730E-1,-3.056705952E0,3.881163120E0,-2.254911661E0
8.025774480E-1,-3.061592817E0,3.871389389E0,-2.308667660E0
8.049775520E-1,-3.064036369E0,3.854285240E0,-2.364867210E0
8.073769270E-1,-3.065258026E0,3.834737539E0,-2.418623209E0
8.097754170E-1,-3.066479921E0,3.822520256E0,-2.462605476E0
8.121747920E-1,-3.066479921E0,3.828628778E0,-2.501700878E0
8.145748960E-1,-3.070145130E0,3.840846062E0,-2.531022310E0
8.169742710E-1,-3.075031996E0,3.861615658E0,-2.553013563E0
8.193727600E-1,-3.083584070E0,3.879941463E0,-2.566452503E0
8.217721350E-1,-3.098244905E0,3.898267508E0,-2.575004578E0
8.241722400E-1,-3.116570711E0,3.914150000E0,-2.576226473E0
8.265715620E-1,-3.133674860E0,3.928810596E0,-2.576226473E0
8.289701040E-1,-3.152000904E0,3.943471432E0,-2.573782921E0
8.313694790E-1,-3.164218187E0,3.953245163E0,-2.568896055E0
8.337695830E-1,-3.170326948E0,3.966684341E0,-2.561565638E0
8.361689060E-1,-3.169105053E0,3.985010386E0,-2.554235220E0
8.385674480E-1,-3.158109426E0,4.003336430E0,-2.550570011E0
8.409668230E-1,-3.141005278E0,4.016775608E0,-2.546904802E0
8.433669270E-1,-3.110462189E0,4.025327682E0,-2.548126698E0
8.457662500E-1,-3.072588444E0,4.028992653E0,-2.554235220E0
8.481647400E-1,-3.023719311E0,4.027770996E0,-2.565230846E0
8.505641670E-1,-2.963854551E0,4.016775608E0,-2.581113338E0
8.529642710E-1,-2.899102926E0,3.997227430E0,-2.603104353E0
8.553635940E-1,-2.825799227E0,3.972792864E0,-2.632426023E0
8.577620830E-1,-2.747608423E0,3.945914984E0,-2.662969112E0
8.601615100E-1,-2.663309097E0,3.919036865E0,-2.695955753E0
8.625616150E-1,-2.579009771E0,3.899489164E0,-2.727720737E0
8.649609370E-1,-2.494710445E0,3.886050224E0,-2.757042408E0
8.673594270E-1,-2.411632776E0,3.876276255E0,-2.780255318E0
8.697588020E-1,-2.335885525E0,3.872611046E0,-2.802246332E0
8.721589580E-1,-2.267468691E0,3.865280867E0,-2.818128824E0
8.745582810E-1,-2.203938961E0,3.859172106E0,-2.831567764E0
8.769567710E-1,-2.152626276E0,3.859172106E0,-2.840119839E0
8.793561460E-1,-2.109865665E0,3.865280867E0,-2.849893808E0
8.817562500E-1,-2.076879025E0,3.879941463E0,-2.857224226E0
8.841556250E-1,-2.047557592E0,3.909262896E0,-2.863332748E0
8.865541150E-1,-2.029231548E0,3.955688715E0,-2.866997957E0
8.889534900E-1,-2.015792608E0,4.017997265E0,-2.871884823E0
8.913535940E-1,-2.006018639E0,4.101074696E0,-2.877993584E0
8.937529690E-1,-2.002353430E0,4.200034618E0,-2.885324001E0
8.961514580E-1,-2.002353430E0,4.323429585E0,-2.893876076E0
8.985508330E-1,-2.003575087E0,4.456597805E0,-2.906093359E0
9.009509370E-1,-2.008462191E0,4.592209816E0,-2.925641060E0
9.033502600E-1,-2.013349056E0,4.727821827E0,-2.962292910E0
9.057488020E-1,-2.014570713E0,4.860990524E0,-3.008718491E0
9.081481770E-1,-2.015792608E0,4.975832939E0,-3.073470354E0
9.105482810E-1,-2.012127399E0,5.071127892E0,-3.156547785E0
9.129476040E-1,-2.007240295E0,5.135879517E0,-3.249399424E0
9.153460940E-1,-1.996244669E0,5.181083679E0,-3.350802898E0
9.177455210E-1,-1.982805729E0,5.206739902E0,-3.457093239E0
9.201456250E-1,-1.965701461E0,5.221400738E0,-3.559718609E0
9.225449480E-1,-1.943710327E0,5.232396126E0,-3.662343740E0
9.249434370E-1,-1.914388895E0,5.237283230E0,-3.760082245E0
9.273428650E-1,-1.885067344E0,5.232396126E0,-3.852933645E0
9.297429690E-1,-1.852080703E0,5.233617783E0,-3.937232971E0
9.321422920E-1,-1.821537375E0,5.242169857E0,-4.008093357E0
9.345407810E-1,-1.787328959E0,5.264161110E0,-4.069180012E0
9.369401560E-1,-1.751898885E0,5.297147751E0,-4.114384174E0
9.393403120E-1,-1.718912125E0,5.333799839E0,-4.146149158E0
9.417396350E-1,-1.687147141E0,5.365564823E0,-4.168139935E0
9.441381250E-1,-1.656603932E0,5.389999390E0,-4.186466217E0
9.465375000E-1,-1.628504157E0,5.402216434E0,-4.199904919E0
9.489376040E-1,-1.601626158E0,5.409546852E0,-4.212122440E0
9.513369790E-1,-1.571082830E0,5.407103539E0,-4.224339485E0
9.537354690E-1,-1.540539622E0,5.398551464E0,-4.234113693E0
9.561348440E-1,-1.507552981E0,5.400994778E0,-4.241443634E0
9.585349480E-1,-1.470901012E0,5.399773121E0,-4.243887424E0
9.609343230E-1,-1.439136147E0,5.388777733E0,-4.243887424E0
9.633328120E-1,-1.407371163E0,5.365564823E0,-4.241443634E0
9.657321870E-1,-1.382936597E0,5.336243153E0,-4.239000320E0
9.681322920E-1,-1.359723687E0,5.295926094E0,-4.235335350E0
9.705316150E-1,-1.337732553E0,5.248278618E0,-4.232891560E0
9.729301560E-1,-1.321850061E0,5.190857410E0,-4.228004932E0
9.753295310E-1,-1.309632778E0,5.132214546E0,-4.221896172E0
9.777296350E-1,-1.299858928E0,5.079679966E0,-4.209678650E0
9.801289580E-1,-1.287641644E0,5.067462921E0,-4.190131187E0
9.825275000E-1,-1.270537376E0,5.098005772E0,-4.160809517E0
9.849268750E-1,-1.258320093E0,5.133436203E0,-4.119270802E0
9.873269790E-1,-1.249768019E0,5.163979530E0,-4.066736698E0
9.897263020E-1,-1.249768019E0,5.183526993E0,-4.011758804E0
9.921247920E-1,-1.249768019E0,5.200631142E0,-3.951893806E0
9.945242190E-1,-1.255876660E0,5.221400738E0,-3.893250704E0
9.969243230E-1,-1.260763645E0,5.247056961E0,-3.838272810E0
9.993236460E-1,-1.261985302E0,5.273934841E0,-3.783295155E0
1.001722135E0,-1.266872287E0,5.293482780E0,-3.731982470E0
1.004121510E0,-1.272980928E0,5.302034855E0,-3.685556650E0
1.006521667E0,-1.282754779E0,5.298369408E0,-3.637909174E0
1.008920990E0,-1.293750286E0,5.286152363E0,-3.591483593E0
1.011319479E0,-1.304745913E0,5.266604424E0,-3.542614460E0
1.013718854E0,-1.314519644E0,5.247056961E0,-3.490080118E0
1.016119010E0,-1.320628285E0,5.227509499E0,-3.437545538E0
1.018518333E0,-1.324293494E0,5.203074932E0,-3.385011196E0
1.020916823E0,-1.330402136E0,5.172531605E0,-3.330033541E0
1.023316198E0,-1.336510777E0,5.134657860E0,-3.273833990E0
1.025716302E0,-1.347506404E0,5.085788727E0,-3.213969231E0
1.028115677E0,-1.354836822E0,5.028367519E0,-3.147995710E0
1.030514167E0,-1.367054105E0,4.967280865E0,-3.068583250E0
1.032913542E0,-1.376827836E0,4.904972553E0,-2.979397058E0
1.035313646E0,-1.384158254E0,4.836555958E0,-2.879215240E0
1.037713021E0,-1.387823462E0,4.763252258E0,-2.772924900E0
1.040111510E0,-1.391488671E0,4.688726425E0,-2.664191008E0
1.042510885E0,-1.390266895E0,4.616644382E0,-2.553013563E0
1.044910990E0,-1.390266895E0,4.544562340E0,-2.444279671E0
1.047310312E0,-1.387823462E0,4.474924088E0,-2.340432644E0
1.049708854E0,-1.384158254E0,4.408950806E0,-2.240250826E0
1.052108229E0,-1.381714821E0,4.355194569E0,-2.140069008E0
1.054508333E0,-1.379271388E0,4.312434196E0,-2.036221981E0
1.056907656E0,-1.375606179E0,4.280669212E0,-1.927488208E0
1.059306146E0,-1.373162746E0,4.251347542E0,-1.818754196E0
1.061705573E0,-1.368275762E0,4.218360901E0,-1.706355095E0
1.064105677E0,-1.367054105E0,4.182930470E0,-1.595177770E0
1.066505000E0,-1.367054105E0,4.141391754E0,-1.486443877E0
1.068903490E0,-1.365832329E0,4.096188068E0,-1.381375074E0
1.071302917E0,-1.365832329E0,4.049762249E0,-1.277528167E0
1.073703021E0,-1.364610553E0,4.000893116E0,-1.178568006E0
1.076102344E0,-1.362167120E0,3.942249775E0,-1.085716605E0
1.078500833E0,-1.358501911E0,3.872611046E0,-9.965302944E-1
1.080900208E0,-1.353615046E0,3.787090063E0,-9.146744609E-1
1.083300312E0,-1.347506404E0,3.704012394E0,-8.377054930E-1
1.085699687E0,-1.338954329E0,3.630708694E0,-7.631800175E-1
1.088098177E0,-1.332845688E0,3.573287487E0,-6.886545420E-1
1.090497552E0,-1.324293494E0,3.531748533E0,-6.165724993E-1
1.092897656E0,-1.318184853E0,3.501205444E0,-5.469338894E-1
1.095297031E0,-1.312076211E0,3.479214191E0,-4.834039807E-1
1.097695521E0,-1.308411002E0,3.463331699E0,-4.259826839E-1
1.100094896E0,-1.305967569E0,3.459666491E0,-3.758917749E-1
1.102495000E0,-1.307189345E0,3.464553595E0,-3.306877911E-1
1.104894323E0,-1.309632778E0,3.479214191E0,-2.915924489E-1
1.107292865E0,-1.316963196E0,3.496318579E0,-2.561622858E-1
1.109692240E0,-1.327958703E0,3.524418354E0,-2.231756151E-1
1.112092344E0,-1.340175986E0,3.563513517E0,-1.901889145E-1
1.114491667E0,-1.357280254E0,3.607495785E0,-1.608674079E-1
1.116890208E0,-1.376827836E0,3.656364918E0,-1.291024536E-1
1.119289583E0,-1.398818970E0,3.705234289E0,-9.611575305E-2
1.121689687E0,-1.420810103E0,3.751659870E0,-6.068559363E-2
1.124089010E0,-1.446466446E0,3.790755272E0,-2.647716738E-2
1.126487500E0,-1.469679356E0,3.824963570E0,1.139644533E-2
1.128886927E0,-1.488005280E0,3.844511271E0,4.682659730E-2
1.131287031E0,-1.501444340E0,3.854285240E0,8.347848058E-2
1.133686354E0,-1.512439847E0,3.857950449E0,1.152434498E-1
1.136084844E0,-1.516105056E0,3.861615658E0,1.482301354E-1
1.138484271E0,-1.517326832E0,3.873832941E0,1.836602837E-1
1.140884375E0,-1.511218190E0,3.893380642E0,2.203121781E-1
1.143283698E0,-1.500222564E0,3.912928104E0,2.594075203E-1
1.145682187E0,-1.488005280E0,3.925145388E0,2.960594296E-1
1.148081562E0,-1.469679356E0,3.925145388E0,3.339330256E-1
1.150481667E0,-1.450131655E0,3.909262896E0,3.656979799E-1
1.152881042E0,-1.431805730E0,3.881163120E0,3.925760388E-1
1.155279531E0,-1.413479805E0,3.848176479E0,4.121237099E-1
1.157678906E0,-1.396375537E0,3.810302973E0,4.267844558E-1
1.160079010E0,-1.380493045E0,3.768764019E0,4.377800226E-1
1.162478385E0,-1.364610553E0,3.721116781E0,4.438886642E-1
1.164876875E0,-1.346284628E0,3.662473679E0,4.463321269E-1
1.167276250E0,-1.330402136E0,3.592835188E0,4.438886642E-1
1.169676354E0,-1.314519644E0,3.517087936E0,4.414452314E-1
1.172075677E0,-1.298637271E0,3.438897133E0,4.353365600E-1
1.174474219E0,-1.283976436E0,3.361928225E0,4.267844558E-1
1.176873594E0,-1.270537376E0,3.288624525E0,4.170106351E-1
1.179273698E0,-1.261985302E0,3.218985796E0,4.072367847E-1
1.181673021E0,-1.255876660E0,3.166451454E0,4.011281431E-1
1.184071562E0,-1.252211452E0,3.133464813E0,4.035716057E-1
1.186470937E0,-1.257098436E0,3.115138769E0,4.145671725E-1
1.188871042E0,-1.266872287E0,3.104143381E0,4.328930974E-1
1.191270365E0,-1.283976436E0,3.102921486E0,4.585494399E-1
1.193668854E0,-1.302302361E0,3.115138769E0,4.903143942E-1
1.196068229E0,-1.327958703E0,3.126134396E0,5.257445574E-1
1.198468385E0,-1.358501911E0,3.129799604E0,5.648398995E-1
1.200867708E0,-1.390266895E0,3.123691082E0,6.002700329E-1
1.203266198E0,-1.425697088E0,3.101699829E0,6.308133006E-1
1.205665573E0,-1.462348938E0,3.068713188E0,6.576913595E-1
1.208065729E0,-1.500222564E0,3.019844055E0,6.821259260E-1
1.210465052E0,-1.538096189E0,2.958757401E0,7.041170597E-1
1.212863542E0,-1.572304606E0,2.887897253E0,7.273299098E-1
1.215262917E0,-1.606513023E0,2.807263136E0,7.456558347E-1
1.217663021E0,-1.635834575E0,2.724185467E0,7.627600431E-1
1.220062396E0,-1.663934350E0,2.633777380E0,7.798642516E-1
1.222460885E0,-1.688368917E0,2.536039114E0,7.994119525E-1
1.224860260E0,-1.710360050E0,2.441966057E0,8.165161610E-1
1.227260365E0,-1.728685975E0,2.356444836E0,8.348420858E-1
1.229659687E0,-1.742125034E0,2.283141136E0,8.556115031E-1
1.232058229E0,-1.742125034E0,2.225719929E0,8.776026368E-1
1.234457604E0,-1.723799109E0,2.165855169E0,9.008154869E-1
1.236857708E0,-1.666377783E0,2.080333948E0,9.191414118E-1
1.239257031E0,-1.527100563E0,1.965491533E0,9.362456203E-1
1.241655521E0,-1.279089570E0,1.829879642E0,9.509063959E-1
1.244054948E0,-9.492226839E-1,1.701598048E0,9.692323208E-1
1.246455052E0,-5.839256048E-1,1.595307589E0,9.863365293E-1
1.248854375E0,-2.137415558E-1,1.493903995E0,1.005884290E0
1.251252865E0,1.405599862E-1,1.390056968E0,1.030318856E0
1.253652292E0,4.777572751E-1,1.266662359E0,1.057196856E0
1.256052396E0,7.831896544E-1,1.131050348E0,1.079187989E0
1.258451719E0,1.055635452E0,1.035755515E0,1.093848705E0
1.260850208E0,1.281655431E0,9.868863225E-1,1.097513914E0
1.263249583E0,1.463693023E0,9.441258311E-1,1.088961840E0
1.265649740E0,1.610300541E0,8.940349221E-1,1.070635915E0
1.268049062E0,1.726364851E0,8.451657295E-1,1.044979572E0
1.270447552E0,1.806999087E0,7.975183129E-1,1.010771155E0
1.272846927E0,1.860755086E0,7.523143291E-1,9.704540968E-1
1.275247031E0,1.893741846E0,7.010017037E-1,9.252500534E-1
1.277646406E0,1.902293921E0,6.509107947E-1,8.776026368E-1
1.280044896E0,1.896185279E0,5.995981097E-1,8.287334442E-1
1.282444271E0,1.870528936E0,5.177422762E-1,7.761991024E-1
1.284844375E0,1.843650937E0,4.200038314E-1,7.163343430E-1
1.287243698E0,1.816772819E0,3.051612675E-1,6.479175091E-1
1.289642240E0,1.776455760E0,2.233054191E-1,5.733919740E-1
1.292041615E0,1.704373717E0,2.000925541E-1,4.988664687E-1
1.294441719E0,1.593196392E0,1.878752559E-1,4.353365600E-1
1.296841042E0,1.451475739E0,1.561103016E-1,3.889108598E-1
1.299239531E0,1.288985729E0,1.072411239E-1,3.595893383E-1
1.301638958E0,1.130160928E0,1.194622368E-2,3.400416672E-1
1.304039062E0,9.847750068E-1,-1.077832580E-1,3.314895630E-1
1.306438385E0,8.577151299E-1,-1.969695091E-1,3.241592050E-1
1.308836875E0,7.526463866E-1,-2.275127470E-1,3.168288171E-1
1.311236250E0,6.597949862E-1,-2.189606428E-1,3.033897877E-1
1.313636406E0,5.767173767E-1,-1.933043152E-1,2.862855792E-1
1.316035729E0,4.789790213E-1,-9.067904949E-2,2.740682960E-1
1.318434219E0,3.751319945E-1,-5.158370733E-2,2.655161917E-1
1.320833594E0,2.859457433E-1,-8.212694526E-2,2.606292665E-1
1.323233698E0,2.028681785E-1,-8.701386303E-2,2.557423413E-1
1.325633073E0,1.332296133E-1,-6.868792325E-2,2.471902221E-1
1.328031562E0,8.069522679E-2,-5.769235641E-2,2.410815805E-1
1.330430937E0,4.159988835E-2,-7.601829618E-2,2.313077450E-1
1.332831042E0,1.716529950E-2,-1.114484519E-1,2.203121781E-1
1.335230417E0,1.282815821E-3,-1.639828235E-1,2.093166113E-1
1.337628906E0,-6.047560833E-3,-2.262910157E-1,1.983210444E-1
1.340028281E0,-8.491019718E-3,-2.947078943E-1,1.885472089E-1
1.342428385E0,-4.825831391E-3,-3.606812656E-1,1.775516421E-1
1.344827708E0,2.504545264E-3,-4.254329205E-1,1.653343439E-1
1.347226250E0,7.391463034E-3,-4.852976799E-1,1.506735981E-1
1.349625625E0,1.350010931E-2,-5.488275290E-1,1.323476583E-1
1.352025729E0,1.350010931E-2,-6.099140048E-1,1.079130620E-1
1.354425052E0,1.472184062E-2,-6.661135554E-1,7.981328666E-2
1.356823542E0,1.472184062E-2,-7.125393152E-1,5.049178377E-2
1.359222969E0,1.105665136E-2,-7.528563738E-1,2.239201032E-2
1.361623073E0,1.350010931E-2,-7.711822987E-1,-2.042578766E-3
1.364022396E0,1.350010931E-2,-7.724040151E-1,-2.281198092E-2
1.366420885E0,1.472184062E-2,-7.491911650E-1,-4.235965386E-2
1.368820260E0,1.472184062E-2,-7.076523900E-1,-6.557251513E-2
1.371220417E0,9.834921919E-3,-6.624484062E-1,-9.000709653E-2
1.373619740E0,8.613192476E-3,-6.160226464E-1,-1.168851554E-1
1.376018229E0,1.282815821E-3,-5.720403790E-1,-1.474283934E-1
1.378417604E0,-4.825831391E-3,-5.378319621E-1,-1.791933477E-1
1.380817708E0,-8.491019718E-3,-5.133973956E-1,-2.146235108E-1
1.383217083E0,-8.491019718E-3,-5.048453212E-1,-2.488319427E-1
1.385615573E0,-4.825831391E-3,-4.999584258E-1,-2.757099569E-1
1.388014948E0,-2.382372506E-3,-5.085104704E-1,-2.952576280E-1
1.390415052E0,1.282815821E-3,-5.256146789E-1,-3.086966574E-1
1.392814427E0,6.108637899E-5,-5.512710214E-1,-3.148052990E-1
1.395212917E0,-3.604101948E-3,-5.805925131E-1,-3.086966574E-1
1.397612292E0,-7.269290276E-3,-6.099140048E-1,-2.989228368E-1
1.400012396E0,-1.337793749E-2,-6.343486309E-1,-2.818185985E-1
1.402411719E0,-2.070831507E-2,-6.551179886E-1,-2.659361362E-1
1.404810208E0,-2.681696042E-2,-6.673353314E-1,-2.463884801E-1
1.407209635E0,-3.536906838E-2,-6.710004807E-1,-2.329494506E-1
1.409609740E0,-4.636463150E-2,-6.661135554E-1,-2.231756151E-1
1.412009062E0,-5.491673946E-2,-6.551179886E-1,-2.182886899E-1
1.414407552E0,-6.346884370E-2,-6.380137801E-1,-2.170669585E-1
1.416806979E0,-6.957748532E-2,-6.172444224E-1,-2.219538838E-1
1.419207083E0,-7.568614185E-2,-5.976967216E-1,-2.317277193E-1
1.421606406E0,-8.668170869E-2,-5.781490803E-1,-2.476101965E-1
1.424004896E0,-9.401208162E-2,-5.573796630E-1,-2.671578526E-1
1.426404271E0,-1.037859172E-1,-5.305016041E-1,-2.867055237E-1
1.428804427E0,-1.160032153E-1,-4.987367094E-1,-3.050314784E-1
1.431203750E0,-1.343291402E-1,-4.681934714E-1,-3.209139407E-1
1.433602240E0,-1.550985426E-1,-4.376502335E-1,-3.343529701E-1
1.436001615E0,-1.770896763E-1,-4.083287120E-1,-3.429050744E-1
1.438401719E0,-2.039677203E-1,-3.826723993E-1,-3.465702832E-1
1.440801042E0,-2.332892269E-1,-3.606812656E-1,-3.502354622E-1
1.443199583E0,-2.613890469E-1,-3.399118781E-1,-3.526789248E-1
1.445598958E0,-2.894888222E-1,-3.276945651E-1,-3.551223874E-1
1.447999062E0,-3.200320601E-1,-3.228076696E-1,-3.563441038E-1
1.450398385E0,-3.481318355E-1,-3.203642070E-1,-3.539006412E-1
1.452796927E0,-3.701229692E-1,-3.166989982E-1,-3.502354622E-1
1.455196302E0,-3.872271776E-1,-3.069251776E-1,-3.465702832E-1
1.457596406E0,-3.982227445E-1,-3.020382524E-1,-3.429050744E-1
1.459995729E0,-4.031096399E-1,-2.910426855E-1,-3.355747163E-1
1.462394219E0,-3.982227445E-1,-2.776036561E-1,-3.270226121E-1
1.464793646E0,-3.884488940E-1,-2.604994476E-1,-3.172487617E-1
1.467193750E0,-3.725664020E-1,-2.495038807E-1,-3.074749410E-1
1.469593073E0,-3.469100893E-1,-2.323996574E-1,-2.952576280E-1
1.471991562E0,-3.175885975E-1,-2.250692844E-1,-2.830403447E-1
1.474390937E0,-2.833801508E-1,-2.262910157E-1,-2.647143900E-1
1.476791094E0,-2.467282563E-1,-2.360648513E-1,-2.476101965E-1
1.479190417E0,-2.112980932E-1,-2.446169555E-1,-2.341711819E-1
1.481588906E0,-1.770896763E-1,-2.519473433E-1,-2.182886899E-1
1.483988281E0,-1.416595131E-1,-2.641646266E-1,-2.036279440E-1
1.486388385E0,-1.025641859E-1,-2.824905813E-1,-1.901889145E-1
1.488787760E0,-5.980365723E-2,-2.861557603E-1,-1.767499000E-1
1.491186250E0,-1.826485619E-2,-2.507255971E-1,-1.657543331E-1
1.493585625E0,2.327394485E-2,-2.079650760E-1,-1.633108705E-1
1.495985729E0,6.236929074E-2,-1.676480025E-1,-1.681977957E-1
1.498385104E0,1.026863605E-1,-1.273309290E-1,-1.767499000E-1
1.500783594E0,1.381165236E-1,-7.113137841E-2,-1.840802729E-1
1.503182969E0,1.759901345E-1,-8.823176846E-3,-1.938541085E-1
1.505583073E0,2.224158496E-1,4.737637937E-2,-2.060714066E-1
1.507982396E0,2.700632811E-1,1.231236011E-1,-2.243973464E-1
1.510380885E0,3.201541901E-1,1.805448830E-1,-2.402798384E-1
1.512780312E0,3.714668155E-1,2.000925541E-1,-2.512753606E-1
1.515180417E0,4.276663661E-1,2.074229270E-1,-2.634926736E-1
1.517579740E0,5.070787668E-1,1.524451077E-1,-2.854838073E-1
1.519978229E0,6.072605848E-1,1.035759300E-1,-3.111401200E-1
1.522377604E0,7.159945369E-1,9.746728837E-2,-3.429050744E-1
1.524777760E0,8.271719217E-1,9.258036315E-2,-3.771135211E-1
1.527177083E0,9.407927394E-1,6.570231915E-2,-4.149871171E-1
1.529575573E0,1.065409303E0,1.561141014E-2,-4.565259218E-1
1.531974948E0,1.190025687E0,-3.936641663E-2,-4.992864728E-1
1.534375104E0,1.314642072E0,-6.990964711E-2,-5.444904566E-1
1.536774427E0,1.441701889E0,-8.945731819E-2,-5.970247984E-1
1.539172917E0,1.561431408E0,-1.383264959E-1,-6.471157074E-1
1.541572292E0,1.673830509E0,-2.262910157E-1,-7.033152580E-1
1.543972396E0,1.782564402E0,-2.922644317E-1,-7.619583011E-1
1.546371719E0,1.885189772E0,-3.301380277E-1,-8.279316425E-1
1.548770260E0,1.987815022E0,-3.362466693E-1,-8.975702524E-1
1.551169635E0,2.063562155E0,-2.947078943E-1,-9.647653699E-1
1.553569740E0,2.128313780E0,-2.128519863E-1,-1.027073622E0
1.555969062E0,2.172296047E0,-1.334395856E-1,-1.089381814E0
1.558367604E0,2.201617479E0,-6.502272934E-2,-1.143137813E0
1.560766979E0,2.227273941E0,5.837575998E-3,-1.188341856E0
1.563167083E0,2.227273941E0,1.512233764E-1,-1.221328497E0
1.565566406E0,2.210169554E0,3.845736980E-1,-1.246984839E0
1.567964896E0,2.152748346E0,5.995981097E-1,-1.265310764E0
1.570364271E0,2.058675289E0,8.305050135E-1,-1.266532540E0
1.572764427E0,1.940167546E0,9.856646657E-1,-1.251871824E0
1.575163750E0,1.825325012E0,1.065076947E0,-1.229880691E0
1.577562240E0,1.716591001E0,1.142045975E0,-1.198115706E0
1.579961615E0,1.626183033E0,1.225123525E0,-1.161463857E0
1.582361771E0,1.558987975E0,1.293540359E0,-1.134585738E0
1.584761094E0,1.502788424E0,1.321640134E0,-1.119925022E0
1.587159583E0,1.456362724E0,1.325305343E0,-1.122368455E0
1.589558958E0,1.409936905E0,1.315531492E0,-1.137029171E0
1.591959062E0,1.364732981E0,1.303314209E0,-1.163907290E0
1.594358437E0,1.320750713E0,1.293540359E0,-1.190785289E0
1.596756927E0,1.279211879E0,1.288653493E0,-1.211554766E0
1.599156302E0,1.232786179E0,1.282544851E0,-1.228658915E0
1.601556406E0,1.179030061E0,1.277657866E0,-1.243319631E0
1.603955729E0,1.124052286E0,1.277657866E0,-1.255537033E0
1.606354271E0,1.059300661E0,1.272771001E0,-1.270197749E0
1.608753646E0,9.835532904E-1,1.258110285E0,-1.284858465E0
1.611153750E0,9.016973972E-1,1.234897375E0,-1.299519181E0
1.613553073E0,8.198415041E-1,1.197023749E0,-1.315401673E0
1.615951562E0,7.355421782E-1,1.132272124E0,-1.333727717E0
1.618350990E0,6.536863446E-1,1.039420724E0,-1.354497075E0
1.620751094E0,5.791608095E-1,9.209129810E-1,-1.369157791E0
1.623150417E0,5.119656920E-1,7.816358209E-1,-1.383818626E0
1.625548906E0,4.521009624E-1,6.301413774E-1,-1.398479342E0
1.627948281E0,3.995665908E-1,4.688730240E-1,-1.410696626E0
1.630348385E0,3.568060696E-1,2.892788053E-1,-1.424135685E0
1.632747760E0,3.213759065E-1,9.502382576E-2,-1.446126819E0
1.635146250E0,2.932761312E-1,-1.077832580E-1,-1.475448251E0
1.637545625E0,2.676198184E-1,-3.289163113E-1,-1.509656668E0
1.639945729E0,2.529590726E-1,-5.537144542E-1,-1.549973726E0
1.642345104E0,2.407417893E-1,-7.736257911E-1,-1.587847352E0
1.644743594E0,2.358548790E-1,-9.397809505E-1,-1.613503695E0
1.647142969E0,2.358548790E-1,-1.028967261E0,-1.614725471E0
1.649543073E0,2.407417893E-1,-1.060732245E0,-1.585403919E0
1.651942396E0,2.468504161E-1,-1.058288813E0,-1.530426145E0
1.654340937E0,2.578459680E-1,-1.038741112E0,-1.466896176E0
1.656740312E0,2.663980722E-1,-1.024080396E0,-1.402144551E0
1.659140417E0,2.798371017E-1,-1.008197904E0,-1.336171150E0
1.661539740E0,2.908326685E-1,-9.935370684E-1,-1.275084615E0
1.663938229E0,3.079368770E-1,-1.005754352E0,-1.217663407E0
1.666337656E0,3.335931897E-1,-1.039962888E0,-1.167572498E0
1.668737760E0,3.665798903E-1,-1.093718886E0,-1.115038037E0
1.671137083E0,4.056752324E-1,-1.159692287E0,-1.062503695E0
1.673535573E0,4.582096040E-1,-1.223222256E0,-1.001417279E0
1.675934948E0,5.144091845E-1,-1.269647956E0,-9.366655946E-1
1.678335052E0,5.730521679E-1,-1.284308672E0,-8.731356859E-1
1.680734427E0,6.182561517E-1,-1.267204523E0,-8.132709265E-1
1.683132917E0,6.634601355E-1,-1.217113614E0,-7.595148087E-1
1.685532292E0,7.013337612E-1,-1.143809795E0,-7.179760337E-1
1.687932396E0,7.330987453E-1,-1.044849753E0,-6.886545420E-1
1.690331771E0,7.636419535E-1,-9.177898169E-1,-6.739937663E-1
1.692730260E0,7.868548036E-1,-7.931734324E-1,-6.764371991E-1
1.695129635E0,8.125111461E-1,-6.600049138E-1,-6.935414076E-1
1.697529740E0,8.247284293E-1,-5.195060372E-1,-7.301933169E-1
1.699929062E0,8.393892050E-1,-3.765637577E-1,-7.815059423E-1
1.702327604E0,8.467195630E-1,-2.336213887E-1,-8.413707018E-1
1.704726979E0,8.430543542E-1,-8.701386303E-2,-9.061223269E-1
1.707127083E0,8.357239962E-1,5.837194622E-2,-9.745392203E-1
1.709526406E0,8.235067129E-1,2.257488817E-1,-1.047842979E0
1.711924896E0,8.051807880E-1,4.126734734E-1,-1.129698873E0
1.714324323E0,7.795244455E-1,5.971546769E-1,-1.216441631E0
1.716724427E0,7.563115954E-1,7.791923881E-1,-1.303184390E0
1.719123750E0,7.355421782E-1,9.942167401E-1,-1.393592358E0
1.721522240E0,7.257683277E-1,1.205575824E0,-1.490109086E0
1.723921615E0,7.184379697E-1,1.383948326E0,-1.585403919E0
1.726321719E0,7.098858953E-1,1.513451695E0,-1.673368454E0
1.728721094E0,7.025554776E-1,1.601416230E0,-1.754002571E0
1.731119583E0,7.062206864E-1,1.656394005E0,-1.833415031E0
1.733518958E0,7.147728205E-1,1.673498273E0,-1.912827373E0
1.735919062E0,7.257683277E-1,1.646620154E0,-1.991018176E0
1.738318385E0,7.355421782E-1,1.590420604E0,-2.070430279E0
1.740716927E0,7.526463866E-1,1.522003770E0,-2.151064634E0
1.743116302E0,7.648636699E-1,1.451143503E0,-2.231698751E0
1.745516406E0,7.819679379E-1,1.390056968E0,-2.303780794E0
1.747915729E0,7.990721464E-1,1.333857417E0,-2.364867210E0
1.750314271E0,8.161763549E-1,1.294762135E0,-2.421066761E0
1.752713646E0,8.283936381E-1,1.273992777E0,-2.474822760E0
1.755113750E0,8.381674886E-1,1.256888509E0,-2.523692131E0
1.757513073E0,8.540499210E-1,1.252001643E0,-2.575004578E0
1.759911562E0,8.674889803E-1,1.253223300E0,-2.626317263E0
1.762310990E0,8.748193383E-1,1.256888509E0,-2.671521187E0
1.764711094E0,8.748193383E-1,1.267884135E0,-2.705729723E0
1.767110417E0,8.674889803E-1,1.283766508E0,-2.724055529E0
1.769508906E0,8.564934134E-1,1.332635760E0,-2.733829498E0
1.771908281E0,8.369457126E-1,1.437704444E0,-2.736273050E0
1.774308385E0,8.161763549E-1,1.522003770E0,-2.747268438E0
1.776707760E0,7.905200124E-1,1.578203321E0,-2.760707617E0
1.779106250E0,7.611985207E-1,1.619742155E0,-2.777811766E0
1.781505625E0,7.282118201E-1,1.664946198E0,-2.792472601E0
1.783905729E0,6.940034032E-1,1.717480540E0,-2.804689884E0
1.786305104E0,6.597949862E-1,1.773680091E0,-2.818128824E0
1.788703594E0,6.231430769E-1,1.824992657E0,-2.830346107E0
1.791102969E0,5.889346600E-1,1.864088058E0,-2.842563391E0
1.793503073E0,5.632783175E-1,1.850648999E0,-2.853559017E0
1.795902396E0,5.412871838E-1,1.790784240E0,-2.875550032E0
1.798300885E0,5.266264677E-1,1.689380765E0,-2.904871702E0
1.800700312E0,5.083005428E-1,1.548881888E0,-2.948853970E0
1.803100417E0,4.997484088E-1,1.366844177E0,-3.002609968E0
1.805499740E0,4.973049760E-1,1.159150124E0,-3.066139936E0
1.807898229E0,4.973049760E-1,9.441258311E-1,-3.137000084E0
1.810297604E0,5.107439756E-1,7.462056875E-1,-3.201751947E0
1.812697760E0,5.364003181E-1,5.959329605E-1,-3.249399424E0
1.815097083E0,5.754956603E-1,5.006380677E-1,-3.270168781E0
1.817495573E0,6.255865693E-1,4.554339945E-1,-3.260394812E0
1.819894948E0,6.842295527E-1,4.432167113E-1,-3.223742962E0
1.822295052E0,7.526463866E-1,4.505470693E-1,-3.165099859E0
1.824694427E0,8.247284293E-1,4.603209198E-1,-3.085687637E0
1.827092917E0,9.065843225E-1,4.627643824E-1,-2.989171028E0
1.829492292E0,9.896619320E-1,4.419949651E-1,-2.881658792E0
1.831892396E0,1.078848243E0,3.980126977E-1,-2.771703005E0
1.834291719E0,1.176586628E0,3.393697143E-1,-2.659303904E0
1.836690260E0,1.277990222E0,2.733963132E-1,-2.545683146E0
1.839089635E0,1.383058906E0,2.110881209E-1,-2.433284044E0
1.841489740E0,1.488127589E0,1.548885703E-1,-2.326993465E0
1.843889062E0,1.594418168E0,1.060193926E-1,-2.229255199E0
1.846287552E0,1.700708628E0,6.081540138E-2,-2.138847351E0
1.848686979E0,1.809442520E0,1.561141014E-2,-2.052104473E0
1.851087083E0,1.916954637E0,-2.470565960E-2,-1.973913908E0
1.853486406E0,2.022023201E0,-5.647062510E-2,-1.903053641E0
1.855884896E0,2.127092123E0,-9.678769857E-2,-1.844410539E0
1.858284323E0,2.234604120E0,-1.529872566E-1,-1.795541406E0
1.860684427E0,2.337229490E0,-2.214041054E-1,-1.752780914E0
1.863083750E0,2.433746099E0,-2.922644317E-1,-1.713685513E0
1.865482240E0,2.510715008E0,-2.922644317E-1,-1.635494828E0
1.867881615E0,2.571801662E0,-2.140737176E-1,-1.542643428E0
1.870281719E0,2.628001213E0,-1.371047646E-1,-1.460787535E0
1.872681094E0,2.681757212E0,-8.823558688E-2,-1.387483716E0
1.875079583E0,2.736735106E0,-5.891408771E-2,-1.317845225E0
1.877478958E0,2.784382582E0,-1.126663573E-2,-1.250650048E0
1.879879062E0,2.832029819E0,8.158480376E-2,-1.173681140E0
1.882278385E0,2.874790430E0,2.171967775E-1,-1.084494829E0
1.884676927E0,2.910220623E0,3.857954144E-1,-9.843130112E-1
1.887076302E0,2.941985607E0,5.812721848E-1,-8.694704771E-1
1.889476406E0,2.965198517E0,8.036269546E-1,-7.448540926E-1
1.891875729E0,2.977415800E0,1.065076947E0,-6.055769324E-1
1.894274219E0,2.977415800E0,1.343631268E0,-4.614128470E-1
1.896673646E0,2.973750591E0,1.590420604E0,-3.184705079E-1
1.899073750E0,2.961533308E0,1.777345300E0,-1.840802729E-1
1.901473073E0,2.955424547E0,1.917844176E0,-5.213348940E-2
1.903871562E0,2.935876846E0,2.018025875E0,7.736983895E-2
1.906270937E0,2.915107489E0,2.054677725E0,2.007645071E-1
1.908671094E0,2.891894579E0,2.053456068E0,3.204939961E-1
1.911070417E0,2.865016699E0,2.036351681E0,4.402234852E-1
1.913468906E0,2.833251715E0,1.981374145E0,5.587312579E-1
1.915868281E0,2.797821522E0,1.894631267E0,6.809042096E-1
1.918268385E0,2.758726120E0,1.801779866E0,8.079640269E-1
1.920667708E0,2.717187405E0,1.718702197E0,9.362456203E-1
1.923066250E0,2.675648451E0,1.638068080E0,1.071857572E0
1.925465625E0,2.626779318E0,1.569651246E0,1.212356448E0
1.927865729E0,2.574244976E0,1.514673471E0,1.363850951E0
1.930265052E0,2.521710634E0,1.471912861E0,1.520232320E0
1.932663594E0,2.465511084E0,1.441369653E0,1.683944106E0
1.935062969E0,2.406867981E0,1.414491653E0,1.851320982E0
1.937463073E0,2.342116356E0,1.388835311E0,2.022363186E0
1.939862396E0,2.271256208E0,1.359513760E0,2.192183733E0
1.942260885E0,2.199174166E0,1.320418477E0,2.363225698E0
1.944660312E0,2.120983362E0,1.258110285E0,2.522050619E0
1.947060417E0,2.037905693E0,1.155484915E0,2.647888660E0
1.949459740E0,1.947497964E0,9.905515313E-1,2.718749046E0
1.951858229E0,1.855868220E0,7.242145538E-1,2.713862181E0
1.954257604E0,1.756908178E0,3.014960885E-1,2.606349945E0
1.956657708E0,1.662835002E0,-1.554307044E-1,2.484176874E0
1.959057083E0,1.583422542E0,-5.744838715E-1,2.375442982E0
1.961455573E0,1.504010081E0,-9.336723089E-1,2.269152641E0
1.963854948E0,1.430706382E0,-1.245213389E0,2.164083958E0
1.966255052E0,1.363511205E0,-1.522545934E0,2.041910887E0
1.968654375E0,1.296316147E0,-1.753452778E0,1.896525025E0
1.971052917E0,1.242560029E0,-1.928160191E0,1.735256672E0
1.973452292E0,1.194912553E0,-2.046668053E0,1.570323229E0
1.975852396E0,1.152152061E0,-2.118750095E0,1.407833219E0
1.978251719E0,1.106948018E0,-2.149293184E0,1.257560492E0
1.980650260E0,1.071517944E0,-2.141963005E0,1.123170257E0
1.983049635E0,1.027535677E0,-2.108976126E0,9.997756481E-1
1.985449740E0,9.884401560E-1,-2.047889709E0,8.873764873E-1
1.987849062E0,9.554535151E-1,-1.973364115E0,7.749773264E-1
1.990247552E0,9.212450385E-1,-1.882956147E0,6.662434340E-1
1.992646927E0,8.919235468E-1,-1.788882971E0,5.599529743E-1
1.995047083E0,8.650454879E-1,-1.688701153E0,4.487755895E-1
1.997446406E0,8.406109214E-1,-1.584854126E0,3.290461004E-1
1.999844896E0,8.235067129E-1,-1.471233368E0,2.007645071E-1
2.002244271E0,8.186197877E-1,-1.347838640E0,6.270907819E-2
2.004644375E0,8.064025044E-1,-1.230552673E0,-7.534635067E-2
2.007043750E0,7.880765796E-1,-1.120597005E0,-2.036279440E-1
2.009442240E0,7.611985207E-1,-1.011862993E0,-3.221356869E-1
2.011841615E0,7.184379697E-1,-9.238984585E-1,-4.284261465E-1
2.014241719E0,6.646819115E-1,-8.628119826E-1,-5.249427557E-1
2.016641042E0,6.023736596E-1,-8.249384165E-1,-6.165724993E-1
2.019039583E0,5.315133929E-1,-8.041689992E-1,-7.045369744E-1
2.021438958E0,4.545444250E-1,-8.053907156E-1,-7.827276587E-1
2.023839062E0,3.702450991E-1,-8.298253417E-1,-8.511445522E-1
2.026238385E0,2.810588479E-1,-8.676989079E-1,-9.024571776E-1
2.028636875E0,1.857639700E-1,-9.190115929E-1,-9.439959526E-1
2.031036302E0,8.313868940E-2,-9.788762927E-1,-9.769826531E-1
2.033436406E0,-2.070831507E-2,-1.037519336E0,-1.000195503E0
2.035835729E0,-1.331074089E-1,-1.094940662E0,-1.017299771E0
2.038234219E0,-2.613890469E-1,-1.135257721E0,-1.025851846E0
2.040633594E0,-3.921140730E-1,-1.169466138E0,-1.030738711E0
2.043033698E0,-5.203956962E-1,-1.200009346E0,-1.029517055E0
2.045433073E0,-6.608945727E-1,-1.212226748E0,-1.019743204E0
2.047831562E0,-8.038368821E-1,-1.208561540E0,-1.003860712E0
2.050230937E0,-9.565531015E-1,-1.181683421E0,-9.782043695E-1
2.052631042E0,-1.105603933E0,-1.132814288E0,-9.464394450E-1
2.055030417E0,-1.264428735E0,-1.071727753E0,-9.110092521E-1
2.057428906E0,-1.419588447E0,-9.984239936E-1,-8.731356859E-1
2.059828281E0,-1.568639398E0,-9.067942500E-1,-8.291534185E-1
2.062228385E0,-1.711581707E0,-8.151645660E-1,-7.827276587E-1
2.064627708E0,-1.850858927E0,-7.308652401E-1,-7.387454510E-1
2.067026250E0,-1.982805729E0,-6.612266302E-1,-6.898762584E-1
2.069425625E0,-2.106200457E0,-6.111357212E-1,-6.361201406E-1
2.071825729E0,-2.223486423E0,-5.769273043E-1,-5.762553811E-1
2.074225052E0,-2.333442211E0,-5.573796630E-1,-5.102820396E-1
2.076623542E0,-2.436067343E0,-5.561579466E-1,-4.381999671E-1
2.079022969E0,-2.532583952E0,-5.598230958E-1,-3.697831333E-1
2.081423073E0,-2.630322456E0,-5.500492454E-1,-3.013662696E-1
2.083822396E0,-2.737834692E0,-5.256146789E-1,-2.439450175E-1
2.086220885E0,-2.852677107E0,-4.767455757E-1,-1.962975711E-1
2.088620260E0,-2.963854551E0,-4.156590998E-1,-1.486501247E-1
2.091020365E0,-3.077475309E0,-3.594595492E-1,-1.010026634E-1
2.093419740E0,-3.183765888E0,-3.191424608E-1,-4.846829921E-2
2.095818229E0,-3.293721437E0,-2.959296107E-1,6.509527564E-3
2.098217604E0,-3.396346807E0,-2.800471187E-1,6.637427211E-2
2.100617708E0,-3.496528625E0,-2.788254023E-1,1.335693896E-1
2.103017031E0,-3.584493160E0,-2.849340439E-1,2.032079548E-1
2.105415573E0,-3.660240412E0,-3.069251776E-1,2.777334750E-1
2.107814948E0,-3.727435350E0,-3.496856987E-1,3.559241593E-1
2.110215052E0,-3.782413244E0,-4.119939208E-1,4.353365600E-1
2.112614375E0,-3.828839064E0,-4.926280379E-1,5.184141994E-1
2.115012865E0,-3.860604048E0,-6.025836468E-1,6.051569581E-1
2.117412292E0,-3.877708197E0,-7.369738817E-1,6.931214929E-1
2.119812396E0,-3.876486540E0,-8.823596835E-1,7.737556100E-1
2.122211719E0,-3.853273630E0,-1.019193411E0,8.409507275E-1
2.124610208E0,-3.799517393E0,-1.137701154E0,8.934851289E-1
2.127009583E0,-3.723770380E0,-1.245213389E0,9.301369786E-1
2.129409740E0,-3.618701458E0,-1.328290939E0,9.472411871E-1
2.131809062E0,-3.472094059E0,-1.388155699E0,9.423542619E-1
2.134207552E0,-3.265621662E0,-1.406481624E0,9.032589197E-1
2.136606927E0,-3.010280371E0,-1.353947282E0,8.409507275E-1
2.139007031E0,-2.713400126E0,-1.222000480E0,7.713121772E-1
2.141406354E0,-2.385976553E0,-1.076614738E0,6.980084181E-1
2.143804896E0,-1.976697087E0,-9.177898169E-1,5.721702576E-1
2.146204271E0,-1.520991921E0,-7.552998066E-1,3.901325762E-1
2.148604375E0,-1.031078458E0,-6.209095716E-1,1.946558505E-1
2.151003698E0,-5.326129794E-1,-5.024018288E-1,2.239201032E-2
2.153402187E0,-3.414733708E-2,-4.266546667E-1,-1.193286031E-1
2.155801615E0,4.178925455E-1,-4.327633083E-1,-2.280625254E-1
2.158201719E0,8.149545789E-1,-5.121756792E-1,-3.123618364E-1
2.160601042E0,1.144821644E0,-6.184661388E-1,-3.746700585E-1
2.162999531E0,1.422154307E0,-7.088741064E-1,-4.162088633E-1
2.165398906E0,1.661613226E0,-7.369738817E-1,-4.345347881E-1
2.167799062E0,1.844872594E0,-6.734439731E-1,-4.284261465E-1
2.170198385E0,1.975597739E0,-5.060670376E-1,-3.942177296E-1
2.172596875E0,2.055010080E0,-2.287344784E-1,-3.392398953E-1
2.174996250E0,2.096548796E0,1.267887950E-1,-2.671578526E-1
2.177396354E0,2.111209631E0,5.177422762E-1,-1.853020042E-1
2.179795729E0,2.086775064E0,9.062522054E-1,-9.367229044E-2
2.182194219E0,2.022023201E0,1.241006017E0,-1.181641407E-2
2.184593594E0,1.915732980E0,1.500012636E0,4.560486600E-2
2.186993698E0,1.803333879E0,1.722367406E0,8.592194319E-2
2.189393021E0,1.692156434E0,1.906848550E0,1.152434498E-1
2.191791562E0,1.588309407E0,2.059564590E0,1.237955540E-1
2.194190937E0,1.491792798E0,2.193954945E0,1.140217185E-1
2.196591042E0,1.411158681E0,2.306354046E0,8.714367449E-2
2.198990365E0,1.341520071E0,2.406535864E0,4.804832861E-2
2.201388854E0,1.284098864E0,2.485948324E0,-8.208493236E-4
2.203788281E0,1.240116596E0,2.549478054E0,-5.091175810E-2
2.206188385E0,1.209573388E0,2.595903873E0,-9.978093207E-2
2.208587708E0,1.186360478E0,2.624003649E0,-1.449849308E-1
2.210986198E0,1.172921419E0,2.637442589E0,-1.865237355E-1
2.213385573E0,1.164369345E0,2.638664484E0,-2.219538838E-1
2.215785729E0,1.163147569E0,2.620338440E0,-2.512753606E-1
2.218185052E0,1.159482479E0,2.592238665E0,-2.744882405E-1
2.220583542E0,1.160704136E0,2.556808472E0,-2.940359116E-1
2.222982917E0,1.161925912E0,2.517713070E0,-3.111401200E-1
2.225383021E0,1.159482479E0,2.471287489E0,-3.233574033E-1
2.227782344E0,1.159482479E0,2.418753147E0,-3.331312537E-1
2.230180885E0,1.160704136E0,2.358888388E0,-3.429050744E-1
2.232580260E0,1.155817270E0,2.299023628E0,-3.539006412E-1
2.234980365E0,1.150930285E0,2.239158869E0,-3.697831333E-1
2.237379687E0,1.143599987E0,2.181737661E0,-3.856656253E-1
2.239778177E0,1.135047793E0,2.127981424E0,-4.015480876E-1
2.242177604E0,1.124052286E0,2.074225426E0,-4.186522961E-1
2.244577708E0,1.111835003E0,2.021691084E0,-4.381999671E-1
2.246977031E0,1.097174168E0,1.975265384E0,-4.565259218E-1
2.249375521E0,1.076404810E0,1.922731042E0,-4.785170555E-1
2.251774896E0,1.053192019E0,1.872640133E0,-4.980646968E-1
2.254175052E0,1.034865975E0,1.822549224E0,-5.200558305E-1
2.256574375E0,1.011653185E0,1.773680091E0,-5.432687402E-1
2.258972865E0,9.859967232E-1,1.722367406E0,-5.664815903E-1
2.261372240E0,9.554535151E-1,1.671054840E0,-5.884727240E-1
2.263772344E0,9.236885309E-1,1.619742155E0,-6.092420816E-1
2.266171667E0,8.919235468E-1,1.574538112E0,-6.312332153E-1
2.268570208E0,8.564934134E-1,1.523225546E0,-6.507809162E-1
2.270969583E0,8.271719217E-1,1.469469428E0,-6.739937663E-1
2.273369687E0,8.064025044E-1,1.403496027E0,-6.972066164E-1
2.275769010E0,7.941852212E-1,1.315531492E0,-7.216411829E-1
2.278167500E0,7.868548036E-1,1.208019376E0,-7.448540926E-1
2.280566927E0,7.746375203E-1,1.095620275E0,-7.595148087E-1
2.282967031E0,7.514246702E-1,9.734473228E-1,-7.644017339E-1
2.285366354E0,7.098858953E-1,8.390570879E-1,-7.644017339E-1
2.287764844E0,6.378038526E-1,6.997799277E-1,-7.595148087E-1
2.290164219E0,5.339568257E-1,5.629462600E-1,-7.436323166E-1
2.292564375E0,4.142273366E-1,4.468818903E-1,-7.143108249E-1
2.294963698E0,2.871674895E-1,3.515869975E-1,-6.629981995E-1
2.297362187E0,1.601076573E-1,2.685093880E-1,-5.958030820E-1
2.299761562E0,4.404334351E-2,2.000925541E-1,-5.176123977E-1
2.302161667E0,-6.102538481E-2,1.426712722E-1,-4.333130717E-1
2.304560990E0,-1.502116323E-1,9.991074353E-2,-3.502354622E-1
2.306959531E0,-2.235153913E-1,6.081540138E-2,-2.769317031E-1
2.309358906E0,-2.870453596E-1,2.172005922E-2,-2.170669585E-1
2.311759010E0,-3.371362686E-1,-2.592738904E-2,-1.669760644E-1
2.314158333E0,-3.750098646E-1,-7.846175879E-2,-1.254372597E-1
2.316556823E0,-3.994444609E-1,-1.358830482E-1,-8.512018621E-2
2.318956250E0,-4.128834903E-1,-2.055216134E-1,-4.969002679E-2
2.321356354E0,-4.189921319E-1,-2.788254023E-1,-1.792506129E-2
2.323755677E0,-4.153269529E-1,-3.606812656E-1,1.139644533E-2
2.326154167E0,-4.055531025E-1,-4.474240541E-1,4.071795195E-2
2.328553542E0,-3.908923566E-1,-5.341668129E-1,6.637427211E-2
2.330953698E0,-3.689012229E-1,-6.196878552E-1,9.080885351E-2
2.333353021E0,-3.456883729E-1,-7.052088976E-1,1.140217185E-1
2.335751510E0,-3.175885975E-1,-7.858430743E-1,1.384562999E-1
2.338150885E0,-2.882670760E-1,-8.640337586E-1,1.604474336E-1
2.340550990E0,-2.589455843E-1,-9.361158013E-1,1.812168360E-1
2.342950312E0,-2.222936600E-1,-1.005754352E0,2.019862384E-1
2.345348854E0,-1.880852431E-1,-1.069284320E0,2.190904468E-1
2.347748229E0,-1.538768113E-1,-1.125483871E0,2.361946553E-1
2.350148333E0,-1.184466779E-1,-1.175574780E0,2.520771623E-1
2.352547656E0,-8.545997739E-2,-1.218335390E0,2.667379081E-1
2.354946198E0,-5.369501188E-2,-1.251322031E0,2.813986540E-1
2.357345573E0,-2.559523284E-2,-1.275756598E0,2.936159670E-1
2.359745677E0,6.108637899E-5,-1.287973881E0,3.046115339E-1
2.362145000E0,1.960875839E-2,-1.287973881E0,3.156070709E-1
2.364543490E0,3.793469816E-2,-1.272091389E0,3.253809214E-1
2.366942865E0,5.015199259E-2,-1.245213389E0,3.327113092E-1
2.369343021E0,5.503891036E-2,-1.204896331E0,3.388199508E-1
2.371742344E0,5.870409682E-2,-1.149918437E0,3.461503088E-1
2.374140833E0,5.503891036E-2,-1.079058170E0,3.498155177E-1
2.376540208E0,5.015199259E-2,-9.947587848E-1,3.510372341E-1
2.378940312E0,4.037815705E-2,-8.982421756E-1,3.473720551E-1
2.381339687E0,2.816086262E-2,-7.882865071E-1,3.400416672E-1
2.383738177E0,1.350010931E-2,-6.710004807E-1,3.290461004E-1
2.386137552E0,-2.382372506E-3,-5.439406037E-1,3.119418919E-1
2.388537656E0,-1.948658377E-2,-4.083287120E-1,2.899507582E-1
2.390936979E0,-3.292560950E-2,-2.690515518E-1,2.594075203E-1
2.393335521E0,-4.758636281E-2,-1.285526603E-1,2.203121781E-1
2.395734896E0,-6.102538481E-2,9.502764791E-3,1.714430004E-1
2.398135000E0,-7.079921663E-2,1.451147348E-1,1.127999872E-1
2.400534323E0,-7.690787315E-2,2.770614922E-1,4.927005619E-2
2.402932812E0,-8.545997739E-2,4.077865481E-1,-1.914679073E-2
2.405332187E0,-8.790344000E-2,5.421768427E-1,-8.756364882E-2
2.407732344E0,-9.034688771E-2,6.704584360E-1,-1.523153037E-1
2.410131667E0,-8.912517130E-2,7.950748205E-1,-2.109583169E-1
2.412530156E0,-8.668170869E-2,9.148043394E-1,-2.634926736E-1
2.414929531E0,-8.179478347E-2,1.029646873E0,-3.111401200E-1
2.417329635E0,-7.446441054E-2,1.137158990E0,-3.514571786E-1
2.419729010E0,-6.713403761E-2,1.233675599E0,-3.856656253E-1
2.422127500E0,-5.858192965E-2,1.322861910E0,-4.113219380E-1
2.424526875E0,-5.125154927E-2,1.402274370E0,-4.308696091E-1
2.426926979E0,-4.758636281E-2,1.468247652E0,-4.455303550E-1
2.429326302E0,-4.269944504E-2,1.523225546E0,-4.516389966E-1
2.431724844E0,-3.903425485E-2,1.563542604E0,-4.516389966E-1
2.434124219E0,-3.781252727E-2,1.592864156E0,-4.479738176E-1
2.436524323E0,-3.903425485E-2,1.605081439E0,-4.357565343E-1
2.438923646E0,-4.392117634E-2,1.605081439E0,-4.223175049E-1
2.441322135E0,-5.002982169E-2,1.594085813E0,-4.027698338E-1
2.443721510E0,-5.736019835E-2,1.572094679E0,-3.844438791E-1
2.446121667E0,-6.469057500E-2,1.540329695E0,-3.612310290E-1
2.448520990E0,-7.446441054E-2,1.501234412E0,-3.392398953E-1
2.450919479E0,-8.301651478E-2,1.454808712E0,-3.135835826E-1
2.453318854E0,-9.156861901E-2,1.403496027E0,-2.879272699E-1
2.455718958E0,-1.001207232E-1,1.346074700E0,-2.622709274E-1
2.458118333E0,-1.062293798E-1,1.283766508E0,-2.353929132E-1
2.460516823E0,-1.111162901E-1,1.221458316E0,-2.134017795E-1
2.462916198E0,-1.160032153E-1,1.155484915E0,-1.938541085E-1
2.465316302E0,-1.160032153E-1,1.085846424E0,-1.730847061E-1
2.467715625E0,-1.160032153E-1,1.016207814E0,-1.559804976E-1
2.470114167E0,-1.098945588E-1,9.465692639E-1,-1.425414681E-1
2.472513542E0,-1.037859172E-1,8.769307137E-1,-1.303241700E-1
2.474913646E0,-9.401208162E-2,8.121790290E-1,-1.193286031E-1
2.477312969E0,-8.179478347E-2,7.498708367E-1,-1.095547676E-1
2.479711458E0,-6.713403761E-2,6.900061369E-1,-1.022243947E-1
2.482110833E0,-4.758636281E-2,6.386934519E-1,-9.489402175E-2
2.484510990E0,-2.681696042E-2,5.910460353E-1,-9.245055914E-2
2.486910312E0,-3.604101948E-3,5.531724095E-1,-8.634191751E-2
2.489308802E0,1.960875839E-2,5.201857090E-1,-8.145499229E-2
2.491708177E0,4.404334351E-2,4.920858741E-1,-8.023326099E-2
2.494108281E0,7.092139125E-2,4.713164866E-1,-7.901152968E-2
2.496507656E0,9.657770395E-2,4.578774571E-1,-8.023326099E-2
2.498906146E0,1.210123152E-1,4.481036067E-1,-8.267672360E-2
2.501305521E0,1.466686279E-1,4.468818903E-1,-8.267672360E-2
2.503705625E0,1.674380302E-1,4.505470693E-1,-8.512018621E-2
2.506104948E0,1.894291639E-1,4.590991735E-1,-8.634191751E-2
2.508503437E0,2.077551037E-1,4.737599492E-1,-8.634191751E-2
2.510902865E0,2.236375809E-1,4.920858741E-1,-8.634191751E-2
2.513302969E0,2.358548790E-1,5.140770674E-1,-8.634191751E-2
2.515702292E0,2.492938787E-1,5.433985591E-1,-8.389845490E-2
2.518100781E0,2.578459680E-1,5.739418268E-1,-8.267672360E-2
2.520500156E0,2.663980722E-1,6.093719602E-1,-8.023326099E-2
2.522900312E0,2.712849975E-1,6.423586607E-1,-7.656808197E-2
2.525299635E0,2.786153853E-1,6.802322865E-1,-7.534635067E-2
2.527698125E0,2.822805643E-1,7.181059122E-1,-7.412461936E-2
2.530097500E0,2.871674895E-1,7.559794784E-1,-7.290288806E-2
2.532497604E0,2.932761312E-1,7.938531041E-1,-7.168115675E-2
2.534896927E0,2.993847728E-1,8.317267299E-1,-7.412461936E-2
2.537295469E0,3.054934144E-1,8.696003556E-1,-7.778981328E-2
2.539694844E0,3.152672648E-1,9.062522054E-1,-8.267672360E-2
2.542094948E0,3.238193691E-1,9.380171895E-1,-8.756364882E-2
2.544494271E0,3.348149359E-1,9.722256064E-1,-9.489402175E-2
2.546892760E0,3.470322192E-1,1.007655740E0,-1.010026634E-1
2.549292187E0,3.592495322E-1,1.044307590E0,-1.095547676E-1
2.551692292E0,3.714668155E-1,1.080959439E0,-1.156634241E-1
2.554091615E0,3.824623823E-1,1.116389632E0,-1.205503345E-1
2.556490104E0,3.959014118E-1,1.149376273E0,-1.278807223E-1
2.558889479E0,4.068969786E-1,1.182363033E0,-1.352110952E-1
2.561289635E0,4.178925455E-1,1.212906241E0,-1.413197368E-1
2.563688958E0,4.301098287E-1,1.239784241E0,-1.474283934E-1
2.566087448E0,4.398836792E-1,1.261775374E0,-1.547587663E-1
2.568486823E0,4.484357834E-1,1.278879642E0,-1.608674079E-1
2.570886927E0,4.569878876E-1,1.291096926E0,-1.681977957E-1
2.573286250E0,4.643182456E-1,1.300870776E0,-1.779716164E-1
2.575684792E0,4.692051709E-1,1.306979418E0,-1.853020042E-1
2.578084167E0,4.728703499E-1,1.309422851E0,-1.914106458E-1
2.580484271E0,4.728703499E-1,1.308201194E0,-1.975192875E-1
2.582883594E0,4.740920961E-1,1.302092552E0,-2.048496753E-1
2.585282083E0,4.740920961E-1,1.293540359E0,-2.060714066E-1
2.587681510E0,4.704269171E-1,1.283766508E0,-2.097365856E-1
2.590081615E0,4.606530666E-1,1.266662359E0,-2.121800482E-1
2.592480937E0,4.508792162E-1,1.247114658E0,-2.109583169E-1
2.594879427E0,4.386619329E-1,1.228788733E0,-2.072931379E-1
2.597278802E0,4.215577245E-1,1.205575824E0,-2.036279440E-1
2.599678906E0,4.020100534E-1,1.179919600E0,-1.987410188E-1
2.602078281E0,3.812406659E-1,1.153041482E0,-1.914106458E-1
2.604476771E0,3.568060696E-1,1.123720050E0,-1.853020042E-1
2.606876146E0,3.348149359E-1,1.093176723E0,-1.779716164E-1
2.609276250E0,3.128238022E-1,1.062633514E0,-1.694195122E-1
2.611675573E0,2.932761312E-1,1.034533739E0,-1.596456766E-1
2.614074115E0,2.798371017E-1,1.006433964E0,-1.498718411E-1
2.616473490E0,2.712849975E-1,9.819994569E-1,-1.400980055E-1
2.618873594E0,2.712849975E-1,9.624517560E-1,-1.303241700E-1
2.621272917E0,2.761719227E-1,9.441258311E-1,-1.205503345E-1
2.623671406E0,2.883892059E-1,9.319085479E-1,-1.156634241E-1
2.626070833E0,3.054934144E-1,9.172477722E-1,-1.132199615E-1
2.628470937E0,3.274845481E-1,9.062522054E-1,-1.132199615E-1
2.630870260E0,3.519191444E-1,8.940349221E-1,-1.132199615E-1
2.633268750E0,3.775754571E-1,8.842610717E-1,-1.132199615E-1
2.635668125E0,4.032317698E-1,8.744872808E-1,-1.107764989E-1
2.638068229E0,4.313315749E-1,8.622699380E-1,-1.071113199E-1
2.640467604E0,4.569878876E-1,8.500526547E-1,-1.083330363E-1
2.642866094E0,4.802007377E-1,8.402788043E-1,-1.071113199E-1
2.645265469E0,4.997484088E-1,8.317267299E-1,-1.071113199E-1
2.647665573E0,5.156309009E-1,8.231745958E-1,-1.046678573E-1
2.650064896E0,5.290699005E-1,8.182876706E-1,-1.022243947E-1
2.652463437E0,5.400654674E-1,8.134008050E-1,-9.978093207E-2
2.654862812E0,5.486176014E-1,8.060703874E-1,-9.978093207E-2
2.657262917E0,5.559479594E-1,7.962965965E-1,-1.022243947E-1
2.659662240E0,5.608348846E-1,7.865227461E-1,-1.046678573E-1
2.662060729E0,5.645000935E-1,7.791923881E-1,-1.046678573E-1
2.664460104E0,5.632783175E-1,7.755271792E-1,-1.034461260E-1
2.666860260E0,5.620566010E-1,7.730836868E-1,-1.034461260E-1
2.669259583E0,5.571696758E-1,7.718619704E-1,-1.034461260E-1
2.671658073E0,5.510610342E-1,7.706402540E-1,-1.022243947E-1
2.674057448E0,5.437306762E-1,7.718619704E-1,-1.022243947E-1
2.676457552E0,5.327351093E-1,7.730836868E-1,-1.034461260E-1
2.678856927E0,5.229612589E-1,7.767488956E-1,-1.034461260E-1
2.681255417E0,5.107439756E-1,7.804141045E-1,-1.058895886E-1
2.683654792E0,4.960832000E-1,7.853010297E-1,-1.071113199E-1
2.686054896E0,4.814224541E-1,7.950748205E-1,-1.083330363E-1
2.688454219E0,4.630965292E-1,8.024052382E-1,-1.095547676E-1
2.690852708E0,4.459923208E-1,8.072921634E-1,-1.119982302E-1
2.693252135E0,4.264446497E-1,8.109573126E-1,-1.144416928E-1
2.695652240E0,4.056752324E-1,8.158442378E-1,-1.144416928E-1
2.698051562E0,3.849058449E-1,8.158442378E-1,-1.144416928E-1
2.700450052E0,3.641364276E-1,8.146225214E-1,-1.132199615E-1
2.702849427E0,3.421453238E-1,8.072921634E-1,-1.095547676E-1
2.705249583E0,3.201541901E-1,7.999617457E-1,-1.046678573E-1
2.707648906E0,2.957195938E-1,7.889661789E-1,-9.367229044E-2
2.710047396E0,2.712849975E-1,7.730836868E-1,-8.267672360E-2
2.712446771E0,2.456287146E-1,7.535360456E-1,-6.801597774E-2
2.714846875E0,2.211941183E-1,7.315449119E-1,-4.846829921E-2
2.717246198E0,1.943160743E-1,7.095537782E-1,-2.525543608E-2
2.719644740E0,1.698814929E-1,6.851192117E-1,2.844339004E-3
2.722044115E0,1.430034339E-1,6.594628692E-1,3.338757157E-2
2.724444219E0,1.161253750E-1,6.374717355E-1,6.759600341E-2
2.726843542E0,8.924733102E-2,6.228110194E-1,1.066913456E-1
2.729242031E0,6.114755943E-2,6.191458106E-1,1.518953294E-1
2.731641458E0,3.426950797E-2,6.179240942E-1,1.970993131E-1
2.734041562E0,3.726274706E-3,6.142588854E-1,2.423032969E-1
2.736440885E0,-2.193004265E-2,6.081502438E-1,2.850638628E-1
2.738839375E0,-4.636463150E-2,6.032633185E-1,3.278243840E-1
2.741238750E0,-6.957748532E-2,6.008198857E-1,3.693631887E-1
2.743638854E0,-9.279035032E-2,5.947111845E-1,4.109019935E-1
2.746038229E0,-1.123380214E-1,5.873808265E-1,4.499973357E-1
2.748436719E0,-1.355508715E-1,5.776069760E-1,4.890926778E-1
2.750836094E0,-1.575420052E-1,5.641679764E-1,5.257445574E-1
2.753236198E0,-1.783114076E-1,5.446203351E-1,5.599529743E-1
2.755635521E0,-2.015242577E-1,5.189639926E-1,5.953831077E-1
2.758034062E0,-2.247371227E-1,4.884206653E-1,6.283698082E-1
2.760433437E0,-2.479499876E-1,4.578774571E-1,6.638000011E-1
2.762833542E0,-2.748280466E-1,4.236690402E-1,7.004518509E-1
2.765232865E0,-3.041495681E-1,3.870171607E-1,7.383254766E-1
2.767631354E0,-3.334710598E-1,3.442566097E-1,7.774208188E-1
2.770030729E0,-3.676795065E-1,2.978309095E-1,8.165161610E-1
2.772430885E0,-4.006661773E-1,2.428530902E-1,8.543897867E-1
2.774830208E0,-4.336528778E-1,1.817666143E-1,8.910416365E-1
2.777228698E0,-4.678612947E-1,1.133497655E-1,9.215849042E-1
2.779628073E0,-4.996262789E-1,4.248946160E-2,9.533498287E-1
2.782028229E0,-5.313912630E-1,-3.570122644E-2,9.851148129E-1
2.784427552E0,-5.594910383E-1,-1.163353696E-1,1.010771155E0
2.786826042E0,-5.875908136E-1,-1.969695091E-1,1.037649155E0
2.789225417E0,-6.169123054E-1,-2.849340439E-1,1.062083721E0
2.791625521E0,-6.437903643E-1,-3.728985786E-1,1.085296631E0
2.794024844E0,-6.731118560E-1,-4.633065462E-1,1.109731197E0
2.796423385E0,-6.999899149E-1,-5.524927378E-1,1.134165764E0
2.798822760E0,-7.268679738E-1,-6.465659142E-1,1.158600450E0
2.801222865E0,-7.549677491E-1,-7.394173145E-1,1.184256673E0
2.803622187E0,-7.830675244E-1,-8.298253417E-1,1.211134791E0
2.806020677E0,-8.087238073E-1,-9.190115929E-1,1.238012791E0
2.808420052E0,-8.331584334E-1,-1.004532695E0,1.263669133E0
2.810820208E0,-8.575929999E-1,-1.090053797E0,1.291768909E0
2.813219531E0,-8.832493424E-1,-1.176796556E0,1.318646908E0
2.815618021E0,-9.076839089E-1,-1.254987240E0,1.344303250E0
2.818017396E0,-9.345619678E-1,-1.328290939E0,1.371181369E0
2.820417500E0,-9.651051760E-1,-1.386934042E0,1.401724577E0
2.822816875E0,-9.980918765E-1,-1.432137966E0,1.433489561E0
2.825215365E0,-1.031078458E0,-1.460237741E0,1.470141411E0
2.827614740E0,-1.065286875E0,-1.473676801E0,1.510458469E0
2.830014844E0,-1.097051859E0,-1.471233368E0,1.551997304E0
2.832414167E0,-1.128816843E0,-1.456572533E0,1.597201228E0
2.834812656E0,-1.163025260E0,-1.435803175E0,1.642405272E0
2.837212083E0,-1.196011901E0,-1.412590265E0,1.683944106E0
2.839612187E0,-1.231442094E0,-1.383268833E0,1.719374180E0
2.842011510E0,-1.269315720E0,-1.351503849E0,1.749917507E0
2.844410000E0,-1.305967569E0,-1.312408566E0,1.769465089E0
2.846809375E0,-1.342619419E0,-1.263539314E0,1.780460715E0
2.849209479E0,-1.376827836E0,-1.198787689E0,1.781682372E0
2.851608854E0,-1.412258029E0,-1.112044930E0,1.771908641E0
2.854007344E0,-1.446466446E0,-1.006976128E0,1.749917507E0
2.856406719E0,-1.477009654E0,-8.835813999E-1,1.719374180E0
2.858806823E0,-1.505109429E0,-7.443042397E-1,1.680278897E0
2.861206146E0,-1.531987548E0,-5.879228711E-1,1.635074854E0
2.863604687E0,-1.551535249E0,-4.181025624E-1,1.583762288E0
2.866004062E0,-1.572304606E0,-2.336213887E-1,1.530006170E0
2.868404167E0,-1.589408875E0,-3.814468533E-2,1.472584844E0
2.870803490E0,-1.610178232E0,1.707710475E-1,1.413941860E0
2.873201979E0,-1.630947590E0,3.870171607E-1,1.349190235E0
2.875601354E0,-1.651717067E0,6.020416021E-1,1.281995058E0
2.878001510E0,-1.678595066E0,8.024052382E-1,1.216021657E0
2.880400833E0,-1.709138274E0,9.856646657E-1,1.152491808E0
2.882799323E0,-1.745790243E0,1.146932840E0,1.093848705E0
2.885198698E0,-1.792215943E0,1.283766508E0,1.035205722E0
2.887598802E0,-1.854524136E0,1.391278744E0,9.851148129E-1
2.889998177E0,-1.927827835E0,1.457252145E0,9.386891127E-1
2.892396667E0,-2.006018639E0,1.473134637E0,9.057024121E-1
2.894796042E0,-2.095204830E0,1.437704444E0,8.861547112E-1
2.897196146E0,-2.188056469E0,1.354626894E0,8.714939952E-1
2.899595469E0,-2.289459944E0,1.230010509E0,8.592767119E-1
2.901993958E0,-2.395750284E0,1.076072574E0,8.458376527E-1
2.904393385E0,-2.503262520E0,8.928132057E-1,8.250682354E-1
2.906793490E0,-2.608331203E0,6.863409281E-1,7.981902361E-1
2.909192812E0,-2.710956573E0,4.627643824E-1,7.664252520E-1
2.911591302E0,-2.811138391E0,2.330792397E-1,7.224429846E-1
2.913990677E0,-2.910098553E0,4.615846556E-3,6.686868668E-1
2.916390781E0,-3.005393267E0,-2.165171802E-1,6.039352417E-1
2.918790156E0,-3.099466562E0,-4.168808162E-1,5.269662738E-1
2.921188646E0,-3.184987545E0,-5.964750051E-1,4.390017688E-1
2.923588021E0,-3.264400005E0,-7.479694486E-1,3.424851298E-1
2.925988125E0,-3.331595182E0,-8.567033410E-1,2.374163866E-1
2.928387448E0,-3.391459942E0,-9.177898169E-1,1.286824644E-1
2.930785990E0,-3.440329075E0,-9.177898169E-1,2.727892809E-2
2.933185365E0,-3.479424477E0,-8.554816246E-1,-6.923769414E-2
2.935585469E0,-3.498971939E0,-7.210913897E-1,-1.572022289E-1
2.937984792E0,-3.491641760E0,-5.256146789E-1,-2.378363758E-1
2.940383281E0,-3.453768015E0,-2.714950144E-1,-3.086966574E-1
2.942782656E0,-3.380464315E0,1.683314145E-2,-3.697831333E-1
2.945182812E0,-3.280282497E0,3.039395511E-1,-4.210957587E-1
2.947582135E0,-3.164218187E0,5.470637679E-1,-4.626345634E-1
2.949980625E0,-3.042045355E0,7.156624198E-1,-4.943995476E-1
2.952380000E0,-2.917428732E0,7.975183129E-1,-5.163906813E-1
2.954780104E0,-2.786703825E0,8.060703874E-1,-5.322731733E-1
2.957179479E0,-2.647426605E0,7.388752699E-1,-5.420469642E-1
2.959577969E0,-2.500819206E0,6.069285274E-1,-5.493773818E-1
2.961977344E0,-2.349324703E0,4.200038314E-1,-5.530425310E-1
2.964377448E0,-2.191721439E0,1.793231517E-1,-5.542643070E-1
2.966776771E0,-2.029231548E0,-9.800942242E-2,-5.505990982E-1
2.969175312E0,-1.866741419E0,-4.046635330E-1,-5.420469642E-1
2.971574687E0,-1.707916617E0,-7.235348821E-1,-5.273862481E-1
2.973974792E0,-1.545426607E0,-1.033854246E0,-5.029516220E-1
2.976374115E0,-1.390266895E0,-1.330734491E0,-4.675214887E-1
2.978772604E0,-1.239994168E0,-1.600736618E0,-4.284261465E-1
2.981171979E0,-1.099495292E0,-1.845082521E0,-3.881090879E-1
2.983572135E0,-9.626617432E-1,-2.064993858E0,-3.465702832E-1
2.985971458E0,-8.307149410E-1,-2.255583763E0,-3.025880158E-1
2.988369948E0,-7.048768401E-1,-2.421738863E0,-2.610492110E-1
2.990769323E0,-5.827038884E-1,-2.563459635E0,-2.158452421E-1
2.993169427E0,-4.690830410E-1,-2.679523945E0,-1.706412435E-1
2.995568802E0,-3.627925813E-1,-2.774818659E0,-1.205503345E-1
2.997967292E0,-2.674976885E-1,-2.851787806E0,-6.923769414E-2
3.000366667E0,-1.807548553E-1,-2.909209013E0,-1.548160240E-2
3.002766771E0,-9.523381293E-2,-2.943417549E0,4.193967953E-2
3.005166094E0,-2.070831507E-2,-2.959299803E0,1.018044204E-1
3.007564635E0,4.893026128E-2,-2.955634832E0,1.665560752E-1
3.009964010E0,1.112384647E-1,-2.934865236E0,2.288642824E-1
3.012364115E0,1.637728363E-1,-2.896991730E0,2.875072956E-1
3.014763437E0,2.101985663E-1,-2.843235731E0,3.449285924E-1
3.017161927E0,2.541807890E-1,-2.768710136E0,4.023498893E-1
3.019561302E0,2.896109521E-1,-2.680745602E0,4.573276937E-1
3.021961406E0,3.213759065E-1,-2.576898575E0,5.110837817E-1
3.024360781E0,3.519191444E-1,-2.455947399E0,5.611746907E-1
3.026759271E0,3.775754571E-1,-2.325222254E0,6.076004505E-1
3.029158646E0,3.959014118E-1,-2.194497347E0,6.466957927E-1
3.031558750E0,4.032317698E-1,-2.058885336E0,6.772390008E-1
3.033958073E0,3.971231282E-1,-1.912277699E0,6.955649257E-1
3.036356615E0,3.787972033E-1,-1.746122479E0,7.065604925E-1
3.038755990E0,3.494756818E-1,-1.570193410E0,7.114474177E-1
3.041156094E0,3.152672648E-1,-1.383268833E0,7.126691341E-1
3.043555417E0,2.749502063E-1,-1.200009346E0,7.126691341E-1
3.045953906E0,2.297462374E-1,-1.020415187E0,7.065604925E-1
3.048353281E0,1.820987761E-1,-8.444860578E-1,6.992301345E-1
3.050753437E0,1.295644194E-1,-6.807743311E-1,6.870128512E-1
3.053152760E0,7.092139125E-2,-5.317233205E-1,6.723520756E-1
3.055551250E0,1.472184062E-2,-3.997766078E-1,6.552478671E-1
3.057950625E0,-4.392117634E-2,-2.812688649E-1,6.369219422E-1
3.060350729E0,-1.001207232E-1,-1.810870320E-1,6.185959578E-1
3.062750052E0,-1.587637365E-1,-1.028963476E-1,5.978266001E-1
3.065148594E0,-2.137415558E-1,-3.936641663E-2,5.807223916E-1
3.067547969E0,-2.662759423E-1,9.506582282E-4,5.599529743E-1
3.069948073E0,-3.127016723E-1,2.172005922E-2,5.404052734E-1
3.072347396E0,-3.566839397E-1,2.538524568E-2,5.220793486E-1
3.074745885E0,-3.945575356E-1,1.561141014E-2,5.025317073E-1
3.077145312E0,-4.251007736E-1,-1.004490629E-2,4.842057526E-1
3.079545417E0,-4.519788325E-1,-4.791852087E-2,4.646580815E-1
3.081944740E0,-4.727482200E-1,-9.312251210E-2,4.438886642E-1
3.084343229E0,-4.874089956E-1,-1.456568837E-1,4.231192768E-1
3.086742604E0,-4.984045327E-1,-2.030781657E-1,4.011281431E-1
3.089142708E0,-5.057349205E-1,-2.629429102E-1,3.766935468E-1
3.091542031E0,-5.069566369E-1,-3.154772818E-1,3.498155177E-1
3.093940573E0,-5.045132041E-1,-3.619030118E-1,3.192722797E-1
3.096339948E0,-4.996262789E-1,-4.034417868E-1,2.899507582E-1
3.098740052E0,-4.886307120E-1,-4.376502335E-1,2.594075203E-1
3.101139375E0,-4.739699662E-1,-4.608630836E-1,2.288642824E-1
3.103537865E0,-4.544222951E-1,-4.755238295E-1,1.983210444E-1
3.105937292E0,-4.312094152E-1,-4.804107547E-1,1.689995378E-1
3.108337396E0,-4.043313861E-1,-4.767455757E-1,1.408997625E-1
3.110736719E0,-3.725664020E-1,-4.620848298E-1,1.152434498E-1
3.113135208E0,-3.408014476E-1,-4.425371289E-1,9.447404742E-2
3.115534583E0,-3.078147471E-1,-4.181025624E-1,7.736983895E-2
3.117934740E0,-2.723845840E-1,-3.887810409E-1,7.003945112E-2
3.120334062E0,-2.369544208E-1,-3.631247282E-1,6.637427211E-2
3.122732552E0,-2.003025264E-1,-3.447988033E-1,6.270907819E-2
3.125131927E0,-1.660941094E-1,-3.362466693E-1,6.026561558E-2
3.127532031E0,-1.343291402E-1,-3.313597739E-1,6.026561558E-2
3.129931354E0,-1.050076485E-1,-3.350249529E-1,5.904389173E-2
3.132329896E0,-7.568614185E-2,-3.411335945E-1,5.782216415E-2
3.134729271E0,-5.125154927E-2,-3.521291614E-1,5.415697396E-2
3.137129375E0,-2.559523284E-2,-3.667899072E-1,4.682659730E-2
3.139528698E0,-7.269290276E-3,-3.838941455E-1,3.949622065E-2
3.141927187E0,1.350010931E-2,-3.985548913E-1,2.727892809E-2
3.144326562E0,2.938259020E-2,-4.095504582E-1,1.139644533E-2
3.146726719E0,4.282161593E-2,-4.144373536E-1,-8.151225746E-3
3.149126042E0,5.748236552E-2,-4.156590998E-1,-3.258581832E-2
3.151524531E0,6.847792864E-2,-4.083287120E-1,-5.946386233E-2
3.153923906E0,7.458658516E-2,-3.924462497E-1,-8.756364882E-2
3.156324010E0,8.069522679E-2,-3.777854741E-1,-1.193286031E-1
3.158723333E0,8.069522679E-2,-3.582378030E-1,-1.535370350E-1
3.161121875E0,8.313868940E-2,-3.374684155E-1,-1.889671832E-1
3.163521250E0,7.947349548E-2,-3.215859234E-1,-2.256190777E-1
3.165921354E0,7.580831647E-2,-3.044817150E-1,-2.598274946E-1
3.168320677E0,6.847792864E-2,-2.837123275E-1,-2.891489863E-1
3.170719167E0,6.114755943E-2,-2.690515518E-1,-3.172487617E-1
3.173118594E0,5.137372389E-2,-2.556125224E-1,-3.404616117E-1
3.175518698E0,4.159988835E-2,-2.446169555E-1,-3.600092828E-1
3.177918021E0,3.182605281E-2,-2.385083139E-1,-3.820004165E-1
3.180316510E0,2.571740374E-2,-2.323996574E-1,-4.027698338E-1
3.182715885E0,1.838702708E-2,-2.323996574E-1,-4.235392213E-1
3.185116042E0,1.227838174E-2,-2.360648513E-1,-4.443086386E-1
3.187515365E0,1.350010931E-2,-2.385083139E-1,-4.687432051E-1
3.189913854E0,1.472184062E-2,-2.421735078E-1,-4.980646968E-1
3.192313229E0,1.960875839E-2,-2.446169555E-1,-5.310513973E-1
3.194713333E0,2.693913504E-2,-2.458386868E-1,-5.677033067E-1
3.197112656E0,3.549123928E-2,-2.409517765E-1,-6.067986488E-1
3.199511198E0,4.404334351E-2,-2.323996574E-1,-6.446722746E-1
3.201910573E0,5.381717905E-2,-2.189606428E-1,-6.837676167E-1
3.204310677E0,6.481274962E-2,-1.981912404E-1,-7.216411829E-1
3.206710000E0,7.458658516E-2,-1.749783754E-1,-7.570713758E-1
3.209108490E0,8.313868940E-2,-1.529872566E-1,-7.937232256E-1
3.211507865E0,9.291252494E-2,-1.285526603E-1,-8.279316425E-1
3.213907969E0,9.779943526E-2,-1.114484519E-1,-8.596966267E-1
3.216307344E0,1.014646292E-1,-1.004528850E-1,-8.890181184E-1
3.218705833E0,1.039080918E-1,-9.312251210E-2,-9.195613861E-1
3.221105208E0,1.014646292E-1,-9.312251210E-2,-9.464394450E-1
3.223505312E0,9.902116656E-2,-9.678769857E-2,-9.769826531E-1
3.225904687E0,9.291252494E-2,-1.016746163E-1,-1.003860712E0
3.228303177E0,8.558215201E-2,-1.102267206E-1,-1.030738711E0
3.230702552E0,7.580831647E-2,-1.212222874E-1,-1.057616830E0
3.233102656E0,6.725619733E-2,-1.297743917E-1,-1.079607964E0
3.235501979E0,5.626064166E-2,-1.371047646E-1,-1.101599097E0
3.237900469E0,4.526507482E-2,-1.444351524E-1,-1.122368455E0
3.240299844E0,3.182605281E-2,-1.505437940E-1,-1.141916156E0
3.242700000E0,1.594356820E-2,-1.529872566E-1,-1.160242081E0
3.245099323E0,-3.604101948E-3,-1.554307044E-1,-1.178568006E0
3.247497812E0,-1.826485619E-2,-1.566524357E-1,-1.192007065E0
3.249897187E0,-3.292560950E-2,-1.517655253E-1,-1.204224348E0
3.252297292E0,-4.269944504E-2,-1.419916898E-1,-1.212776423E0
3.254696667E0,-4.758636281E-2,-1.248874739E-1,-1.217663407E0
3.257095156E0,-4.392117634E-2,-1.090049893E-1,-1.218885064E0
3.259494531E0,-3.292560950E-2,-8.823558688E-2,-1.218885064E0
3.261894635E0,-1.459966693E-2,-6.868792325E-2,-1.220106840E0
3.264293958E0,1.350010931E-2,-5.036197975E-2,-1.218885064E0
3.266692448E0,4.893026128E-2,-3.081430681E-2,-1.216441631E0
3.269091875E0,9.291252494E-2,-1.371009462E-2,-1.215219855E0
3.271491979E0,1.454468966E-1,2.172387671E-3,-1.211554766E0
3.273891302E0,2.053116411E-1,8.281035349E-3,-1.201780915E0
3.276289792E0,2.761719227E-1,1.194622368E-2,-1.185898423E0
3.278689167E0,3.555843234E-1,5.837575998E-3,-1.163907290E0
3.281089271E0,4.435488582E-1,-1.126663573E-2,-1.134585738E0
3.283488646E0,5.388437510E-1,-3.936641663E-2,-1.096712112E0
3.285887135E0,6.378038526E-1,-8.212694526E-2,-1.057616830E0
3.288286510E0,7.318770289E-1,-1.456568837E-1,-1.016077995E0
3.290686615E0,8.283936381E-1,-2.250692844E-1,-9.720957279E-1
3.293085937E0,9.200233221E-1,-3.338032365E-1,-9.268917441E-1
3.295484479E0,1.010431409E0,-4.645282626E-1,-8.804660439E-1
3.297883854E0,1.095952511E0,-6.062488556E-1,-8.291534185E-1
3.300283958E0,1.182695270E0,-7.565215230E-1,-7.741755843E-1
3.302683281E0,1.264551163E0,-9.019073844E-1,-7.179760337E-1
3.305081771E0,1.339076638E0,-1.038741112E0,-6.593329906E-1
3.307481146E0,1.397719622E0,-1.162135839E0,-6.019117236E-1
3.309881250E0,1.444145441E0,-1.274534941E0,-5.444904566E-1
3.312280625E0,1.475910306E0,-1.377160192E0,-4.834039807E-1
3.314679115E0,1.493014574E0,-1.468789935E0,-4.235392213E-1
3.317078490E0,1.496679783E0,-1.548202276E0,-3.648962080E-1
3.319478594E0,1.486905932E0,-1.615397453E0,-3.123618364E-1
3.321877917E0,1.467358232E0,-1.666710019E0,-2.598274946E-1
3.324276458E0,1.434371591E0,-1.704583645E0,-2.146235108E-1
3.326675833E0,1.395276189E0,-1.727796555E0,-1.718629748E-1
3.329075937E0,1.347628713E0,-1.741235495E0,-1.339893639E-1
3.331475260E0,1.293872714E0,-1.741235495E0,-9.733748436E-2
3.333873750E0,1.231564522E0,-1.727796555E0,-6.557251513E-2
3.336273125E0,1.170477986E0,-1.694809794E0,-3.747273609E-2
3.338673281E0,1.104504585E0,-1.639832020E0,-1.303814352E-2
3.341072604E0,1.040974617E0,-1.565306544E0,1.383990422E-2
3.343471094E0,9.786663651E-1,-1.473676801E0,3.705276176E-2
3.345870469E0,9.188016057E-1,-1.362499356E0,6.148734689E-2
3.348270573E0,8.589368463E-1,-1.240326524E0,8.103501797E-2
3.350669896E0,8.027372956E-1,-1.104714513E0,1.005826890E-1
3.353068437E0,7.502029538E-1,-9.617720842E-1,1.176868975E-1
3.355467812E0,7.037772536E-1,-8.176079988E-1,1.299041957E-1
3.357867917E0,6.610167027E-1,-6.783308387E-1,1.396780312E-1
3.360267240E0,6.231430769E-1,-5.476058125E-1,1.433432251E-1
3.362665729E0,5.877129436E-1,-4.278763831E-1,1.421214938E-1
3.365065104E0,5.547262430E-1,-3.252511024E-1,1.335693896E-1
3.367465260E0,5.241829753E-1,-2.372865826E-1,1.176868975E-1
3.369864583E0,4.948614836E-1,-1.676480025E-1,9.325231612E-2
3.372263073E0,4.692051709E-1,-1.151136383E-1,6.270907819E-2
3.374662448E0,4.459923208E-1,-7.846175879E-2,2.972238697E-2
3.377062552E0,4.227794409E-1,-5.158370733E-2,-6.929496303E-3
3.379461927E0,3.983448744E-1,-3.814468533E-2,-4.846829921E-2
3.381860417E0,3.812406659E-1,-3.203603625E-2,-8.512018621E-2
3.384259792E0,3.629147112E-1,-3.325776756E-2,-1.217720658E-1
3.386659896E0,3.458105028E-1,-4.058814421E-2,-1.535370350E-1
3.389059219E0,3.287062943E-1,-5.647062510E-2,-1.877454668E-1
3.391457708E0,3.152672648E-1,-7.479656488E-2,-2.195104212E-1
3.393857135E0,3.030499816E-1,-9.556596726E-2,-2.500536442E-1
3.396257240E0,2.932761312E-1,-1.187788248E-1,-2.805968821E-1
3.398656562E0,2.871674895E-1,-1.432134211E-1,-3.086966574E-1
3.401055052E0,2.835023105E-1,-1.652045399E-1,-3.392398953E-1
3.403454427E0,2.798371017E-1,-1.908608675E-1,-3.685613871E-1
3.405854531E0,2.773936391E-1,-2.165171802E-1,-3.966611922E-1
3.408253906E0,2.737284601E-1,-2.409517765E-1,-4.235392213E-1
3.410652396E0,2.700632811E-1,-2.666080892E-1,-4.504172802E-1
3.413051771E0,2.627328932E-1,-2.959296107E-1,-4.760735929E-1
3.415451875E0,2.541807890E-1,-3.301380277E-1,-5.041733980E-1
3.417851198E0,2.395200729E-1,-3.704551160E-1,-5.286079645E-1
3.420249687E0,2.211941183E-1,-4.181025624E-1,-5.530425310E-1
3.422649115E0,2.016464472E-1,-4.718586504E-1,-5.762553811E-1
3.425049219E0,1.759901345E-1,-5.317233205E-1,-6.006900072E-1
3.427448542E0,1.515555531E-1,-6.062488556E-1,-6.251245737E-1
3.429847031E0,1.258992255E-1,-6.856612563E-1,-6.458939910E-1
3.432246406E0,1.014646292E-1,-7.711822987E-1,-6.629981995E-1
3.434646510E0,8.313868940E-2,-8.615902662E-1,-6.788806915E-1
3.437045885E0,7.092139125E-2,-9.519982338E-1,-6.874327660E-1
3.439444375E0,6.725619733E-2,-1.038741112E0,-6.874327660E-1
3.441843750E0,7.092139125E-2,-1.113266587E0,-6.752154827E-1
3.444243854E0,8.191695809E-2,-1.174353123E0,-6.507809162E-1
3.446643177E0,9.291252494E-2,-1.223222256E0,-6.141290069E-1
3.449041719E0,9.657770395E-2,-1.252543807E0,-5.603729486E-1
3.451441094E0,9.291252494E-2,-1.257430673E0,-4.858474135E-1
3.453841198E0,7.092139125E-2,-1.241548181E0,-3.966611922E-1
3.456240521E0,3.060432151E-2,-1.196344256E0,-2.842620611E-1
3.458639010E0,-3.536906838E-2,-1.125483871E0,-1.523153037E-1
3.461038385E0,-1.147814840E-1,-1.025302052E0,4.066068679E-3
3.463438542E0,-2.015242577E-1,-9.080160260E-1,1.751081795E-1
3.465837865E0,-2.858236134E-1,-7.833995819E-1,3.595893383E-1
3.468236354E0,-3.615708351E-1,-6.600049138E-1,5.526226163E-1
3.470635729E0,-4.214355946E-1,-5.500492454E-1,7.444341183E-1
3.473035833E0,-4.605309367E-1,-4.633065462E-1,9.301369786E-1
3.475435156E0,-4.825220704E-1,-4.034417868E-1,1.101179123E0
3.477833698E0,-4.861872494E-1,-3.728985786E-1,1.241677999E0
3.480233073E0,-4.715265036E-1,-3.728985786E-1,1.339416385E0
3.482633177E0,-4.446484447E-1,-3.900027871E-1,1.393172503E0
3.485032500E0,-4.141052067E-1,-4.058852494E-1,1.402946234E0
3.487430990E0,-3.798967898E-1,-4.205460250E-1,1.378511667E0
3.489830365E0,-3.444666266E-1,-4.290981293E-1,1.322312117E0
3.492230521E0,-3.090364933E-1,-4.315415919E-1,1.244121432E0
3.494629844E0,-2.784932554E-1,-4.303198457E-1,1.150048256E0
3.497028333E0,-2.491717041E-1,-4.278763831E-1,1.048644781E0
3.499427708E0,-2.235153913E-1,-4.181025624E-1,9.435760379E-1
3.501827812E0,-2.051894516E-1,-4.071069956E-1,8.397290111E-1
3.504227135E0,-1.868635118E-1,-3.912245035E-1,7.371037602E-1
3.506625677E0,-1.685375720E-1,-3.741202950E-1,6.344784498E-1
3.509025052E0,-1.465464383E-1,-3.533509076E-1,5.306314826E-1
3.511425156E0,-1.160032153E-1,-3.264728487E-1,4.243409932E-1
3.513824479E0,-7.812960446E-2,-2.812688649E-1,3.107201755E-1
3.516222969E0,-2.437350154E-2,-2.250692844E-1,1.946558505E-1
3.518622344E0,3.915642574E-2,-1.615393609E-1,7.736983895E-2
3.521022500E0,1.112384647E-1,-9.923115373E-2,-4.235965386E-2
3.523421823E0,1.906508952E-1,-4.180987179E-2,-1.559804976E-1
3.525820312E0,2.688415349E-1,5.837575998E-3,-2.696013153E-1
3.528219687E0,3.470322192E-1,4.248946160E-2,-3.783352375E-1
3.530619792E0,4.227794409E-1,6.814578176E-2,-4.846256971E-1
3.533019115E0,4.911963046E-1,8.036307245E-2,-5.835857987E-1
3.535417656E0,5.547262430E-1,8.158480376E-2,-6.739937663E-1
3.537817031E0,6.121475101E-1,7.669788599E-2,-7.558496594E-1
3.540217135E0,6.634601355E-1,6.936750561E-2,-8.254882097E-1
3.542616458E0,7.098858953E-1,5.959367007E-2,-8.841312528E-1
3.545014948E0,7.526463866E-1,5.592848361E-2,-9.330003858E-1
3.547414375E0,7.856330872E-1,6.203713268E-2,-9.708740115E-1
3.549814479E0,8.186197877E-1,8.280652761E-2,-1.000195503E0
3.552213802E0,8.442761302E-1,1.170149595E-1,-1.023408413E0
3.554612292E0,8.699324131E-1,1.622189432E-1,-1.039290905E0
3.557011667E0,8.931452632E-1,2.196402252E-1,-1.047842979E0
3.559411771E0,9.053626060E-1,2.868353426E-1,-1.049064755E0
3.561811094E0,9.200233221E-1,3.674694896E-1,-1.040512562E0
3.564209635E0,9.297971725E-1,4.578774571E-1,-1.027073622E0
3.566609010E0,9.395710230E-1,5.556158423E-1,-1.002638936E0
3.569009115E0,9.444579482E-1,6.570194364E-1,-9.696522951E-1
3.571408437E0,9.432361722E-1,7.681968212E-1,-9.281134605E-1
3.573806927E0,9.383493066E-1,8.818176389E-1,-8.780225515E-1
3.576206354E0,9.261319637E-1,1.000325322E0,-8.193795681E-1
3.578606458E0,9.078060389E-1,1.116389632E0,-7.521844506E-1
3.581005781E0,8.870366216E-1,1.233675599E0,-6.776589751E-1
3.583404271E0,8.601586223E-1,1.349739909E0,-5.970247984E-1
3.585803646E0,8.320587873E-1,1.469469428E0,-5.090602636E-1
3.588203750E0,7.978503704E-1,1.595307589E0,-4.174305797E-1
3.590603125E0,7.636419535E-1,1.726032615E0,-3.209139407E-1
3.593001615E0,7.257683277E-1,1.860422850E0,-2.231756151E-1
3.595400990E0,6.891164780E-1,1.987482667E0,-1.217720658E-1
3.597801094E0,6.536863446E-1,2.103546858E0,-2.281198092E-2
3.600200417E0,6.158127189E-1,2.202507019E0,7.492637634E-2
3.602598906E0,5.816043019E-1,2.280697584E0,1.677778065E-1
3.604998333E0,5.510610342E-1,2.333231926E0,2.532988787E-1
3.607398437E0,5.217395425E-1,2.351557970E0,3.314895630E-1
3.609797760E0,4.973049760E-1,2.340562344E0,4.011281431E-1
3.612196250E0,4.765355587E-1,2.300245285E0,4.634363353E-1
3.614595625E0,4.655399919E-1,2.233050108E0,5.171924233E-1
3.616995729E0,4.569878876E-1,2.140198708E0,5.660616159E-1
3.619395104E0,4.521009624E-1,2.021691084E0,6.063786745E-1
3.621793594E0,4.521009624E-1,1.886079192E0,6.393653750E-1
3.624192969E0,4.545444250E-1,1.738249898E0,6.613565087E-1
3.626593073E0,4.582096040E-1,1.584311962E0,6.796824336E-1
3.628992396E0,4.582096040E-1,1.435261011E0,6.918997765E-1
3.631390885E0,4.569878876E-1,1.294762135E0,6.992301345E-1
3.633790312E0,4.545444250E-1,1.167702317E0,7.004518509E-1
3.636190417E0,4.472140372E-1,1.060190082E0,6.992301345E-1
3.638589740E0,4.337750077E-1,9.746690392E-1,6.931214929E-1
3.640988229E0,4.154490829E-1,9.221346974E-1,6.809042096E-1
3.643387604E0,3.897927701E-1,9.062522054E-1,6.552478671E-1
3.645787708E0,3.568060696E-1,9.209129810E-1,6.173742414E-1
3.648187083E0,3.152672648E-1,9.624517560E-1,5.685051084E-1
3.650585573E0,2.639546394E-1,1.001547098E0,5.098620653E-1
3.652984948E0,2.101985663E-1,1.030868530E0,4.414452314E-1
3.655385052E0,1.515555531E-1,1.043085814E0,3.632545471E-1
3.657784375E0,9.291252494E-2,1.040642381E0,2.765117288E-1
3.660182865E0,2.938259020E-2,1.029646873E0,1.836602837E-1
3.662582292E0,-3.781252727E-2,1.016207814E0,8.836539090E-2
3.664982396E0,-1.074511111E-1,1.006433964E0,-5.707766861E-3
3.667381719E0,-1.807548553E-1,1.008877397E0,-1.010026634E-1
3.669780208E0,-2.552803755E-1,1.027203321E0,-1.938541085E-1
3.672179583E0,-3.200320601E-1,1.060190082E0,-2.830403447E-1
3.674579687E0,-3.517970145E-1,1.128606915E0,-3.624527454E-1
3.676979062E0,-3.334710598E-1,1.253223300E0,-4.125436544E-1
3.679377552E0,-2.699411511E-1,1.441369653E0,-4.357565343E-1
3.681776927E0,-1.783114076E-1,1.680828571E0,-4.430868924E-1
3.684177031E0,-6.591230631E-2,1.958161235E0,-4.381999671E-1
3.686576354E0,5.015199259E-2,2.261149883E0,-4.284261465E-1
3.688974844E0,1.613293886E-1,2.571469307E0,-4.162088633E-1
3.691374271E0,2.566242516E-1,2.869571209E0,-4.076567292E-1
3.693774375E0,3.262628317E-1,3.135908365E0,-4.076567292E-1
3.696173698E0,3.665798903E-1,3.353376150E0,-4.198740423E-1
3.698572187E0,3.702450991E-1,3.498761892E0,-4.491955340E-1
3.700971562E0,3.372583985E-1,3.559848309E0,-4.968429804E-1
3.703371667E0,2.822805643E-1,3.548852921E0,-5.591511726E-1
3.705771042E0,2.175289392E-1,3.473105669E0,-6.287897825E-1
3.708169531E0,1.564424634E-1,3.342380524E0,-6.996501088E-1
3.710568906E0,9.657770395E-2,3.165229797E0,-7.656234503E-1
3.712969010E0,5.137372389E-2,2.950205326E0,-8.206012845E-1
3.715368333E0,1.105665136E-2,2.707081318E0,-8.645835519E-1
3.717766823E0,-2.070831507E-2,2.438300848E0,-8.963485360E-1
3.720166250E0,-4.392117634E-2,2.157303095E0,-9.183396697E-1
3.722566354E0,-5.736019835E-2,1.872640133E0,-9.330003858E-1
3.724965677E0,-6.224711612E-2,1.601416230E0,-9.378873110E-1
3.727364167E0,-5.858192965E-2,1.346074700E0,-9.330003858E-1
3.729763542E0,-4.758636281E-2,1.109059215E0,-9.134527445E-1
3.732163646E0,-2.681696042E-2,8.891479969E-1,-8.804660439E-1
3.734563021E0,6.108637899E-5,6.961147785E-1,-8.389272094E-1
3.736961510E0,3.793469816E-2,5.360682011E-1,-7.876145840E-1
3.739360885E0,8.436042070E-2,4.187821150E-1,-7.326367497E-1
3.741760990E0,1.368947923E-1,3.479218185E-1,-6.752154827E-1
3.744160312E0,1.930943429E-1,3.186002970E-1,-6.190159321E-1
3.746558854E0,2.541807890E-1,3.308175802E-1,-5.701467395E-1
3.748958229E0,3.152672648E-1,3.760215938E-1,-5.249427557E-1
3.751358333E0,3.751319945E-1,4.529905319E-1,-4.858474135E-1
3.753757656E0,4.325532913E-1,5.482854843E-1,-4.553042054E-1
3.756156146E0,4.850876629E-1,6.557976604E-1,-4.320913255E-1
3.758555521E0,5.339568257E-1,7.645316124E-1,-4.162088633E-1
3.760955625E0,5.730521679E-1,8.683785796E-1,-4.052132964E-1
3.763355000E0,6.060388684E-1,9.624517560E-1,-3.978829086E-1
3.765753490E0,6.341386437E-1,1.038198948E0,-3.942177296E-1
3.768152865E0,6.573514938E-1,1.093176723E0,-3.929959834E-1
3.770552969E0,6.732339859E-1,1.124941707E0,-3.917742670E-1
3.772952292E0,6.854512691E-1,1.134715557E0,-3.868873417E-1
3.775350781E0,6.952251196E-1,1.123720050E0,-3.807787001E-1
3.777750208E0,7.037772536E-1,1.099285364E0,-3.746700585E-1
3.780150312E0,7.086641192E-1,1.065076947E0,-3.636744916E-1
3.782549635E0,7.098858953E-1,1.030868530E0,-3.490137458E-1
3.784948125E0,7.086641192E-1,9.966601729E-1,-3.355747163E-1
3.787347500E0,7.111076117E-1,9.526779652E-1,-3.258008659E-1
3.789747604E0,7.159945369E-1,9.062522054E-1,-3.172487617E-1
3.792146979E0,7.221031785E-1,8.586047888E-1,-3.111401200E-1
3.794545469E0,7.318770289E-1,8.170659542E-1,-3.086966574E-1
3.796944844E0,7.392073870E-1,7.840792537E-1,-3.062531948E-1
3.799344948E0,7.489812374E-1,7.559794784E-1,-3.038097322E-1
3.801744271E0,7.563115954E-1,7.315449119E-1,-3.050314784E-1
3.804142760E0,7.673071623E-1,7.095537782E-1,-3.086966574E-1
3.806542187E0,7.783027291E-1,6.851192117E-1,-3.160270452E-1
3.808942292E0,7.892982960E-1,6.643497944E-1,-3.233574033E-1
3.811341615E0,8.015155792E-1,6.472455859E-1,-3.343529701E-1
3.813740104E0,8.149545789E-1,6.313630939E-1,-3.465702832E-1
3.816139479E0,8.271719217E-1,6.130371690E-1,-3.587875664E-1
3.818539583E0,8.393892050E-1,5.922677517E-1,-3.746700585E-1
3.820938906E0,8.528282046E-1,5.678331852E-1,-3.917742670E-1
3.823337448E0,8.650454879E-1,5.372899175E-1,-4.137654006E-1
3.825736823E0,8.809279799E-1,5.018597841E-1,-4.345347881E-1
3.828136927E0,8.943670392E-1,4.590991735E-1,-4.589693844E-1
3.830536250E0,9.090277553E-1,4.126734734E-1,-4.821822345E-1
3.832934740E0,9.236885309E-1,3.613608181E-1,-5.066168308E-1
3.835334167E0,9.371275306E-1,3.100481927E-1,-5.298296809E-1
3.837734271E0,9.505665898E-1,2.587355673E-1,-5.542643070E-1
3.840133594E0,9.627838731E-1,2.110881209E-1,-5.750336647E-1
3.842532083E0,9.762228727E-1,1.671058685E-1,-5.933595896E-1
3.844931458E0,9.872184396E-1,1.316757053E-1,-6.116855741E-1
3.847331562E0,1.000657558E0,9.868901223E-2,-6.300114989E-1
3.849730937E0,1.011653185E0,7.547615469E-2,-6.471157074E-1
3.852129427E0,1.025092244E0,5.592848361E-2,-6.654416323E-1
3.854528802E0,1.039752960E0,4.126773030E-2,-6.837676167E-1
3.856928906E0,1.055635452E0,3.393734992E-2,-6.972066164E-1
3.859328229E0,1.072739601E0,3.149389476E-2,-7.143108249E-1
3.861726719E0,1.088622093E0,3.638081253E-2,-7.277498841E-1
3.864126146E0,1.105726361E0,4.737637937E-2,-7.436323166E-1
3.866526250E0,1.127717495E0,6.570231915E-2,-7.558496594E-1
3.868925573E0,1.149708629E0,8.402825892E-2,-7.692886591E-1
3.871324062E0,1.169256210E0,1.133497655E-1,-7.815059423E-1
3.873723437E0,1.188803911E0,1.451147348E-1,-7.912797928E-1
3.876123542E0,1.207129836E0,1.829883456E-1,-7.986101508E-1
3.878522917E0,1.225455761E0,2.306358069E-1,-8.047187924E-1
3.880921406E0,1.243781805E0,2.831701338E-1,-8.071622849E-1
3.883320781E0,1.258442521E0,3.405914307E-1,-8.108274341E-1
3.885720885E0,1.269438028E0,3.992344439E-1,-8.169361353E-1
3.888120208E0,1.275546670E0,4.639860988E-1,-8.181578517E-1
3.890518698E0,1.280433655E0,5.287378430E-1,-8.169361353E-1
3.892918125E0,1.276768446E0,5.959329605E-1,-8.169361353E-1
3.895318229E0,1.269438028E0,6.619063020E-1,-8.181578517E-1
3.897717552E0,1.255999088E0,7.278797030E-1,-8.157143593E-1
3.900116042E0,1.236451387E0,7.901878953E-1,-8.120492101E-1
3.902515417E0,1.213238478E0,8.524961472E-1,-8.083840013E-1
3.904915521E0,1.185138702E0,9.135826230E-1,-8.022753596E-1
3.907314896E0,1.152152061E0,9.734473228E-1,-7.949450016E-1
3.909713385E0,1.117943645E0,1.032090306E0,-7.863928676E-1
3.912112760E0,1.078848243E0,1.090733290E0,-7.729538679E-1
3.914512865E0,1.037309527E0,1.151819825E0,-7.570713758E-1
3.916912187E0,9.957705736E-1,1.209241033E0,-7.375236750E-1
3.919310677E0,9.554535151E-1,1.262997150E0,-7.106456757E-1
3.921710104E0,9.151363969E-1,1.315531492E0,-6.801024079E-1
3.924110208E0,8.735976219E-1,1.359513760E0,-6.422287822E-1
3.926509531E0,8.369457126E-1,1.399830818E0,-5.970247984E-1
3.928908021E0,8.002938628E-1,1.426708937E0,-5.481556058E-1
3.931307396E0,7.636419535E-1,1.445034862E0,-4.992864728E-1
3.933707500E0,7.221031785E-1,1.448700070E0,-4.479738176E-1
3.936106823E0,6.756774187E-1,1.432817578E0,-3.978829086E-1
3.938505365E0,6.231430769E-1,1.401052594E0,-3.502354622E-1
3.940904740E0,5.645000935E-1,1.348518252E0,-3.074749410E-1
3.943304844E0,4.985266924E-1,1.281323075E0,-2.696013153E-1
3.945704167E0,4.313315749E-1,1.201910734E0,-2.390580922E-1
3.948102656E0,3.653581738E-1,1.113946199E0,-2.134017795E-1
3.950502031E0,3.054934144E-1,1.019873023E0,-1.889671832E-1
3.952902187E0,2.505156100E-1,9.196912646E-1,-1.669760644E-1
3.955301510E0,2.004247308E-1,8.207311630E-1,-1.462066621E-1
3.957700000E0,1.576641947E-1,7.181059122E-1,-1.242155284E-1
3.960099375E0,1.222340465E-1,6.179240942E-1,-9.855920076E-2
3.962499479E0,9.535598755E-2,5.165205002E-1,-7.045942545E-2
3.964898802E0,7.214312255E-2,4.187821150E-1,-3.991619125E-2
3.967297344E0,5.503891036E-2,3.271524012E-1,-9.372955188E-3
3.969696719E0,3.793469816E-2,2.489617169E-1,2.117028087E-2
3.972096823E0,2.083048597E-2,1.829883456E-1,5.171351507E-2
3.974496146E0,2.504545264E-3,1.280105263E-1,7.614810765E-2
3.976894635E0,-1.459966693E-2,8.647172153E-2,9.813922644E-2
3.979294010E0,-3.414733708E-2,5.837194622E-2,1.164651811E-1
3.981694167E0,-5.491673946E-2,4.004599899E-2,1.335693896E-1
3.984093490E0,-7.812960446E-2,3.638081253E-2,1.482301354E-1
3.986491979E0,-1.001207232E-1,4.248946160E-2,1.616691649E-1
3.988891354E0,-1.257770509E-1,6.203713268E-2,1.726647317E-1
3.991291458E0,-1.477681696E-1,9.380209446E-2,1.836602837E-1
3.993690781E0,-1.709810197E-1,1.316757053E-1,1.922124028E-1
3.996089323E0,-1.929721534E-1,1.793231517E-1,2.019862384E-1
3.998488698E0,-2.174067497E-1,2.355227023E-1,2.117600739E-1
4.000888802E0,-2.430630624E-1,2.953874469E-1,2.203121781E-1
4.003288125E0,-2.662759423E-1,3.589173555E-1,2.313077450E-1
4.005686615E0,-2.919322848E-1,4.224472940E-1,2.423032969E-1
4.008085990E0,-3.212537766E-1,4.835337996E-1,2.545205951E-1
4.010486146E0,-3.493535519E-1,5.409551263E-1,2.667379081E-1
4.012885469E0,-3.786750734E-1,5.898243189E-1,2.801769376E-1
4.015283958E0,-4.079965651E-1,6.338065267E-1,2.997246087E-1
4.017683333E0,-4.397615194E-1,6.680150032E-1,3.180505335E-1
4.020083437E0,-4.727482200E-1,6.912278533E-1,3.351547718E-1
4.022482760E0,-5.081783533E-1,7.010017037E-1,3.571458757E-1
4.024881302E0,-5.436085463E-1,6.985582113E-1,3.791370094E-1
4.027280677E0,-5.827038884E-1,6.838974357E-1,3.999064267E-1
4.029680781E0,-6.279078722E-1,6.521325111E-1,4.231192768E-1
4.032080104E0,-6.804422140E-1,6.057067513E-1,4.463321269E-1
4.034478594E0,-7.366417646E-1,5.458420515E-1,4.744319022E-1
4.036877969E0,-8.001717329E-1,4.725382030E-1,5.037534237E-1
4.039278073E0,-8.685885668E-1,3.931258023E-1,5.379618406E-1
4.041677448E0,-9.431140423E-1,3.039395511E-1,5.746137500E-1
4.044075937E0,-1.023748040E0,2.086446583E-1,6.112655997E-1
4.046475312E0,-1.109269142E0,1.084628552E-1,6.479175091E-1
4.048875417E0,-1.202120543E0,4.615846556E-3,6.857911348E-1
4.051274740E0,-1.301080704E0,-1.053398028E-1,7.199995518E-1
4.053673229E0,-1.404927731E0,-2.201823741E-1,7.529862523E-1
4.056072656E0,-1.511218190E0,-3.472422361E-1,7.835294604E-1
4.058472760E0,-1.619952083E0,-4.852976799E-1,8.128509521E-1
4.060872083E0,-1.727464199E0,-6.355703473E-1,8.409507275E-1
4.063270573E0,-1.833754659E0,-7.919517159E-1,8.727157116E-1
4.065669948E0,-1.938823462E0,-9.495548010E-1,9.093676209E-1
4.068070052E0,-2.047557592E0,-1.109601378E0,9.545716047E-1
4.070469427E0,-2.152626276E0,-1.281865239E0,1.007105947E0
4.072867917E0,-2.250364542E0,-1.465124726E0,1.065748930E0
4.075267292E0,-2.338329077E0,-1.656936169E0,1.135387540E0
4.077667396E0,-2.418963194E0,-1.851191163E0,1.217243433E0
4.080066719E0,-2.486158371E0,-2.036894083E0,1.311316609E0
4.082465208E0,-2.543579578E0,-2.216488361E0,1.411498427E0
4.084864583E0,-2.588783741E0,-2.380200148E0,1.519010544E0
4.087264740E0,-2.620548487E0,-2.528029442E0,1.633853197E0
4.089664062E0,-2.638874531E0,-2.657532692E0,1.758469582E0
4.092062552E0,-2.643761396E0,-2.766266584E0,1.883085966E0
4.094461927E0,-2.638874531E0,-2.854231119E0,2.007702351E0
4.096862031E0,-2.621770382E0,-2.918982744E0,2.127431870E0
4.099261406E0,-2.591227055E0,-2.954412937E0,2.242274523E0
4.101659896E0,-2.550909996E0,-2.964186907E0,2.343677998E0
4.104059271E0,-2.503262520E0,-2.945860863E0,2.436529398E0
4.106459375E0,-2.450728178E0,-2.907987356E0,2.518385410E0
4.108858698E0,-2.390863419E0,-2.844457388E0,2.594132662E0
4.111257187E0,-2.323668242E0,-2.752827644E0,2.666214705E0
4.113656562E0,-2.257694960E0,-2.633098125E0,2.723635912E0
4.116056719E0,-2.194164991E0,-2.487712383E0,2.771283388E0
4.118456042E0,-2.140408993E0,-2.315448523E0,2.810378790E0
4.120854531E0,-2.095204830E0,-2.116306543E0,2.839700222E0
4.123253906E0,-2.058552980E0,-1.892729998E0,2.860469580E0
4.125654010E0,-2.024344683E0,-1.645940661E0,2.876352072E0
4.128053333E0,-1.991357803E0,-1.390599132E0,2.882460833E0
4.130451875E0,-1.958371162E0,-1.129149079E0,2.877573729E0
4.132851250E0,-1.921719193E0,-8.713641167E-1,2.870243549E0
4.135251354E0,-1.882623911E0,-6.148009300E-1,2.860469580E0
4.137650677E0,-1.837419868E0,-3.692333698E-1,2.850695848E0
4.140049167E0,-1.788550735E0,-1.261091977E-1,2.838478565E0
4.142448542E0,-1.736016393E0,1.170149595E-1,2.828704596E0
4.144848698E0,-1.681038499E0,3.552521765E-1,2.814043999E0
4.147248021E0,-1.627282381E0,5.861591101E-1,2.792052746E0
4.149646510E0,-1.571082830E0,8.085138798E-1,2.760287762E0
4.152045885E0,-1.516105056E0,1.016207814E0,2.708975077E0
4.154445990E0,-1.462348938E0,1.212906241E0,2.638114929E0
4.156845312E0,-1.413479805E0,1.397387385E0,2.542819977E0
4.159243854E0,-1.371940970E0,1.554990530E0,2.425534010E0
4.161643229E0,-1.346284628E0,1.695489407E0,2.282591581E0
4.164043333E0,-1.336510777E0,1.815218806E0,2.117658138E0
4.166442656E0,-1.347506404E0,1.908070326E0,1.930733442E0
4.168841146E0,-1.385380030E0,1.966713309E0,1.721817732E0
4.171240521E0,-1.456240296E0,1.978930593E0,1.495797753E0
4.173640677E0,-1.557643890E0,1.939835310E0,1.256338716E0
4.176040000E0,-1.677373290E0,1.851870775E0,1.007105947E0
4.178438490E0,-1.806876659E0,1.719923973E0,7.517644763E-1
4.180837865E0,-1.931493044E0,1.546438336E0,4.939795732E-1
4.183237969E0,-2.036561966E0,1.330192327E0,2.532988787E-1
4.185637292E0,-2.114752531E0,1.082181215E0,3.705276176E-2
4.188035781E0,-2.159956694E0,8.048486710E-1,-1.547587663E-1
4.190435156E0,-2.170952082E0,5.067467093E-1,-3.196922243E-1
4.192835312E0,-2.152626276E0,1.842100769E-1,-4.662997723E-1
4.195234635E0,-2.104978800E0,-1.529872566E-1,-5.994682908E-1
4.197633125E0,-2.036561966E0,-4.950715005E-1,-7.118673921E-1
4.200032500E0,-1.958371162E0,-8.237167001E-1,-8.071622849E-1
4.202432604E0,-1.878958702E0,-1.135257721E0,-8.853529692E-1
4.204831927E0,-1.801989794E0,-1.419920683E0,-9.574350119E-1
4.207230469E0,-1.727464199E0,-1.677705646E0,-1.024630070E0
4.209629844E0,-1.657825708E0,-1.909834146E0,-1.084494829E0
4.212029948E0,-1.588187099E0,-2.116306543E0,-1.135807514E0
4.214429271E0,-1.528322339E0,-2.297122478E0,-1.181011438E0
4.216827760E0,-1.467235923E0,-2.446173429E0,-1.217663407E0
4.219227187E0,-1.413479805E0,-2.573233366E0,-1.246984839E0
4.221627292E0,-1.364610553E0,-2.674636841E0,-1.261645675E0
4.224026615E0,-1.326737046E0,-2.767488480E0,-1.266532540E0
4.226425104E0,-1.296193719E0,-2.864005089E0,-1.251871824E0
4.228824479E0,-1.274202585E0,-2.967852116E0,-1.217663407E0
4.231224583E0,-1.259541869E0,-3.081472874E0,-1.165128946E0
4.233623906E0,-1.257098436E0,-3.193871975E0,-1.104042530E0
4.236022448E0,-1.263207078E0,-3.316044807E0,-1.030738711E0
4.238421823E0,-1.275424361E0,-3.444326401E0,-9.464394450E-1
4.240821927E0,-1.290085077E0,-3.576273203E0,-8.560314775E-1
4.243221250E0,-1.298637271E0,-3.702111483E0,-7.582930923E-1
4.245619740E0,-1.294972062E0,-3.807180166E0,-6.568895578E-1
4.248019115E0,-1.281533003E0,-3.882927418E0,-5.542643070E-1
4.250419219E0,-1.263207078E0,-3.919579268E0,-4.504172802E-1
4.252818594E0,-1.243659377E0,-3.913470507E0,-3.441268206E-1
4.255217083E0,-1.224111676E0,-3.864601374E0,-2.402798384E-1
4.257616458E0,-1.204564095E0,-3.772971630E0,-1.413197368E-1
4.260016562E0,-1.182572961E0,-3.669124603E0,-4.480310902E-2
4.262415885E0,-1.160581827E0,-3.588490486E0,4.804832861E-2
4.264814375E0,-1.138590693E0,-3.535956144E0,1.372345686E-1
4.267213802E0,-1.117821217E0,-3.494417429E0,2.215339094E-1
4.269613906E0,-1.099495292E0,-3.451656818E0,3.009463251E-1
4.272013229E0,-1.078725934E0,-3.371022701E0,3.754718304E-1
4.274411719E0,-1.056734800E0,-3.232967377E0,4.438886642E-1
4.276811094E0,-1.035965323E0,-3.020386457E0,5.074186325E-1
4.279211198E0,-1.026191592E0,-2.740610361E0,5.623964071E-1
4.281610573E0,-1.024969816E0,-2.396082640E0,6.063786745E-1
4.284009062E0,-1.026191592E0,-2.000242233E0,6.418088675E-1
4.286408437E0,-1.027413249E0,-1.562862992E0,6.735737920E-1
4.288808542E0,-1.026191592E0,-1.099827528E0,6.943432093E-1
4.291207865E0,-1.021304607E0,-6.233530641E-1,7.053387761E-1
4.293606406E0,-1.015195966E0,-1.517655253E-1,6.980084181E-1
4.296005781E0,-9.956484437E-1,2.978309095E-1,6.723520756E-1
4.298405885E0,-9.699921012E-1,7.083320618E-1,6.357002258E-1
4.300805208E0,-9.406706095E-1,1.066298723E0,5.966048837E-1
4.303203698E0,-9.064621925E-1,1.364400744E0,5.623964071E-1
4.305603073E0,-8.661451340E-1,1.596529245E0,5.306314826E-1
4.308003177E0,-8.221628666E-1,1.768793106E0,5.037534237E-1
4.310402552E0,-7.745153904E-1,1.882413983E0,4.805405736E-1
4.312801042E0,-7.256461978E-1,1.941056967E0,4.646580815E-1
4.315200417E0,-6.755552888E-1,1.955717802E0,4.475538731E-1
4.317600521E0,-6.242426634E-1,1.926396251E0,4.304496646E-1
4.319999844E0,-5.717083216E-1,1.861644626E0,4.145671725E-1
4.322398333E0,-5.216174126E-1,1.762684464E0,3.974629641E-1
4.324797708E0,-4.739699662E-1,1.636846423E0,3.779152930E-1
4.327197865E0,-4.275442362E-1,1.486573696E0,3.534806967E-1
4.329597187E0,-3.811185062E-1,1.317974925E0,3.278243840E-1
4.331995677E0,-3.383579850E-1,1.128606915E0,2.985028625E-1
4.334395052E0,-2.931540012E-1,9.209129810E-1,2.655161917E-1
4.336795156E0,-2.503934503E-1,6.961147785E-1,2.325294763E-1
4.339194479E0,-2.051894516E-1,4.603209198E-1,1.946558505E-1
4.341593021E0,-1.612071842E-1,2.147533149E-1,1.592257023E-1
4.343992396E0,-1.147814840E-1,-3.081430681E-2,1.237955540E-1
4.346392500E0,-6.957748532E-2,-2.653863728E-1,9.203058481E-2
4.348791823E0,-2.070831507E-2,-4.877411425E-1,6.270907819E-2
4.351190312E0,2.327394485E-2,-6.942133307E-1,3.460930288E-2
4.353589687E0,6.969965994E-2,-8.811379671E-1,7.731257007E-3
4.355989792E0,1.149036586E-1,-1.046071529E0,-1.670333184E-2
4.358389167E0,1.588859260E-1,-1.187792063E0,-3.991619125E-2
4.360787656E0,2.016464472E-1,-1.300191164E0,-6.312904507E-2
4.363187031E0,2.468504161E-1,-1.386934042E0,-8.634191751E-2
4.365587135E0,2.871674895E-1,-1.454129100E0,-1.119982302E-1
4.367986458E0,3.225976527E-1,-1.496889710E0,-1.413197368E-1
4.370384948E0,3.555843234E-1,-1.523767710E0,-1.755281687E-1
4.372784375E0,3.812406659E-1,-1.535984993E0,-2.134017795E-1
4.375184479E0,4.007883370E-1,-1.529876351E0,-2.537188232E-1
4.377583802E0,4.178925455E-1,-1.505441785E0,-2.940359116E-1
4.379982292E0,4.313315749E-1,-1.468789935E0,-3.343529701E-1
4.382381667E0,4.386619329E-1,-1.421142459E0,-3.710048497E-1
4.384781771E0,4.398836792E-1,-1.366164565E0,-4.052132964E-1
4.387181146E0,4.362184703E-1,-1.302634716E0,-4.369782507E-1
4.389579635E0,4.252229035E-1,-1.228109121E0,-4.662997723E-1
4.391979010E0,4.093404412E-1,-1.148696780E0,-4.919560552E-1
4.394379115E0,3.849058449E-1,-1.060732245E0,-5.139471889E-1
4.396778437E0,3.543626070E-1,-9.666590095E-1,-5.347166061E-1
4.399176927E0,3.213759065E-1,-8.676989079E-1,-5.518208146E-1
4.401576302E0,2.859457433E-1,-7.662953734E-1,-5.652598143E-1
4.403976458E0,2.480721623E-1,-6.673353314E-1,-5.786988735E-1
4.406375781E0,2.126420140E-1,-5.683752298E-1,-5.945813656E-1
4.408774271E0,1.784335971E-1,-4.718586504E-1,-6.092420816E-1
4.411173646E0,1.442251652E-1,-3.753420115E-1,-6.226811409E-1
4.413573750E0,1.112384647E-1,-2.800471187E-1,-6.361201406E-1
4.415973073E0,7.825176418E-2,-1.859739423E-1,-6.532243490E-1
4.418371562E0,5.137372389E-2,-9.556596726E-2,-6.727720499E-1
4.420770990E0,2.571740374E-2,-5.157988984E-3,-6.959849000E-1
4.423171094E0,1.282815821E-3,8.036307245E-2,-7.216411829E-1
4.425570417E0,-1.826485619E-2,1.634406745E-1,-7.497409582E-1
4.427968906E0,-3.659079596E-2,2.428530902E-1,-7.790625095E-1
4.430368281E0,-4.880809411E-2,3.173785806E-1,-8.108274341E-1
4.432768437E0,-5.736019835E-2,3.833519518E-1,-8.377054930E-1
4.435167760E0,-6.346884370E-2,4.395515025E-1,-8.633618355E-1
4.437566250E0,-6.591230631E-2,4.871989489E-1,-8.853529692E-1
4.439965625E0,-6.102538481E-2,5.238509178E-1,-9.061223269E-1
4.442365729E0,-5.491673946E-2,5.519506931E-1,-9.256700277E-1
4.444765052E0,-4.147771373E-2,5.739418268E-1,-9.427742362E-1
4.447163542E0,-2.926041931E-2,5.861591101E-1,-9.623219371E-1
4.449562917E0,-9.712749161E-3,5.959329605E-1,-9.806478620E-1
4.451963073E0,9.834921919E-3,5.959329605E-1,-1.002638936E0
4.454362396E0,3.426950797E-2,5.910460353E-1,-1.024630070E0
4.456760885E0,6.236929074E-2,5.824939013E-1,-1.044177771E0
4.459160260E0,9.046906233E-2,5.702766180E-1,-1.064947128E0
4.461560365E0,1.173471063E-1,5.470637679E-1,-1.085716605E0
4.463959687E0,1.478903592E-1,5.238509178E-1,-1.106485963E0
4.466358229E0,1.808770597E-1,5.030815005E-1,-1.126033664E0
4.468757604E0,2.150854766E-1,4.823120236E-1,-1.144359589E0
4.471157708E0,2.468504161E-1,4.615426362E-1,-1.161463857E0
4.473557031E0,2.773936391E-1,4.456601739E-1,-1.178568006E0
4.475955521E0,3.079368770E-1,4.334428608E-1,-1.195672274E0
4.478354896E0,3.372583985E-1,4.297776818E-1,-1.212776423E0
4.480755052E0,3.604712486E-1,4.334428608E-1,-1.228658915E0
4.483154375E0,3.824623823E-1,4.432167113E-1,-1.246984839E0
4.485552865E0,3.995665908E-1,4.603209198E-1,-1.265310764E0
4.487952240E0,4.130056202E-1,4.859772325E-1,-1.284858465E0
4.490352344E0,4.276663661E-1,5.189639926E-1,-1.305627942E0
4.492751667E0,4.484357834E-1,5.580593348E-1,-1.322732091E0
4.495150156E0,4.777572751E-1,5.959329605E-1,-1.337392807E0
4.497549583E0,5.180743337E-1,6.215892434E-1,-1.352053642E0
4.499949687E0,5.693869591E-1,6.386934519E-1,-1.365492582E0
4.502349010E0,6.365821362E-1,6.362500191E-1,-1.381375074E0
4.504747500E0,7.098858953E-1,6.191458106E-1,-1.397257566E0
4.507146875E0,7.929635048E-1,5.776069760E-1,-1.418027043E0
4.509546979E0,8.858149052E-1,5.104118586E-1,-1.442461610E0
4.511946354E0,9.823315144E-1,4.138951898E-1,-1.463230968E0
4.514344844E0,1.086178660E0,2.905005217E-1,-1.482778668E0
4.516744219E0,1.196134329E0,1.426712722E-1,-1.494995952E0
4.519144323E0,1.307311654E0,-2.348393016E-2,-1.499882817E0
4.521543646E0,1.423375964E0,-1.994129717E-1,-1.493774176E0
4.523942135E0,1.539440274E0,-3.838941455E-1,-1.481556892E0
4.526341562E0,1.656726360E0,-5.757055879E-1,-1.465674400E0
4.528741667E0,1.775234103E0,-7.760692239E-1,-1.443683267E0
4.531140990E0,1.894963503E0,-9.849849343E-1,-1.418027043E0
4.533539479E0,2.015914679E0,-1.208561540E0,-1.386262059E0
4.535938854E0,2.130757332E0,-1.446798801E0,-1.350831866E0
4.538338958E0,2.237047672E0,-1.703361869E0,-1.312958241E0
4.540738281E0,2.333564281E0,-1.978251100E0,-1.265310764E0
4.543136823E0,2.420307159E0,-2.262914181E0,-1.207889557E0
4.545536198E0,2.493610859E0,-2.548798800E0,-1.139472723E0
4.547936302E0,2.553475618E0,-2.828574896E0,-1.061282039E0
4.550335625E0,2.598679543E0,-3.085138083E0,-9.696522951E-1
4.552734115E0,2.624336004E0,-3.312379837E0,-8.670270443E-1
4.555133490E0,2.626779318E0,-3.504191160E0,-7.582930923E-1
4.557533594E0,2.603566408E0,-3.643468380E0,-6.446722746E-1
4.559932969E0,2.549810410E0,-3.720437288E0,-5.273862481E-1
4.562331458E0,2.466732740E0,-3.731432915E0,-4.039915502E-1
4.564730833E0,2.349446774E0,-3.667902946E0,-2.720447779E-1
4.567130937E0,2.206504345E0,-3.534734488E0,-1.339893639E-1
4.569530260E0,2.040349245E0,-3.341701269E0,1.622609561E-3
4.571928750E0,1.860755086E0,-3.101020575E0,1.323476583E-1
4.574328177E0,1.677495718E0,-2.838348627E0,2.569640577E-1
4.576728281E0,1.495458007E0,-2.557350874E0,3.742501140E-1
4.579127604E0,1.319528937E0,-2.267801046E0,4.768753648E-1
4.581526094E0,1.147265077E0,-1.972142458E0,5.672833323E-1
4.583925469E0,9.859967232E-1,-1.680149078E0,6.405870914E-1
4.586325573E0,8.369457126E-1,-1.391820908E0,6.955649257E-1
4.588724896E0,6.988903284E-1,-1.109601378E0,7.309951186E-1
4.591123437E0,5.718304515E-1,-8.273818493E-1,7.444341183E-1
4.593522812E0,4.569878876E-1,-5.512710214E-1,7.371037602E-1
4.595922917E0,3.580277860E-1,-2.812688649E-1,7.114474177E-1
4.598322240E0,2.737284601E-1,-2.104047127E-2,6.674651504E-1
4.600720729E0,2.077551037E-1,2.208619565E-1,6.063786745E-1
4.603120104E0,1.564424634E-1,4.273342192E-1,5.306314826E-1
4.605520260E0,1.222340465E-1,6.069285274E-1,4.475538731E-1
4.607919583E0,9.413425624E-2,7.584229708E-1,3.583676219E-1
4.610318073E0,8.191695809E-2,8.842610717E-1,2.655161917E-1
4.612717448E0,7.458658516E-2,9.893298745E-1,1.751081795E-1
4.615117552E0,7.580831647E-2,1.078516006E0,9.080885351E-2
4.617516875E0,8.558215201E-2,1.157928467E0,1.750509255E-2
4.619915365E0,1.026863605E-1,1.230010509E0,-4.846829921E-2
4.622314792E0,1.258992255E-1,1.289875150E0,-1.058895886E-1
4.624714896E0,1.539990008E-1,1.337522626E0,-1.559804976E-1
4.627114219E0,1.857639700E-1,1.372952819E0,-1.999627501E-1
4.629512708E0,2.224158496E-1,1.397387385E0,-2.366146296E-1
4.631912083E0,2.615111768E-1,1.409604669E0,-2.708230615E-1
4.634312187E0,3.006065190E-1,1.410826445E0,-2.964793742E-1
4.636711510E0,3.421453238E-1,1.397387385E0,-3.148052990E-1
4.639110052E0,3.787972033E-1,1.371731043E0,-3.245791495E-1
4.641509427E0,4.154490829E-1,1.335079193E0,-3.258008659E-1
4.643909531E0,4.472140372E-1,1.286210060E0,-3.172487617E-1
4.646308854E0,4.740920961E-1,1.221458316E0,-2.977010906E-1
4.648707344E0,4.936397672E-1,1.142045975E0,-2.647143900E-1
4.651106719E0,5.046353340E-1,1.046751022E0,-2.219538838E-1
4.653506875E0,5.034136176E-1,9.367954731E-1,-1.694195122E-1
4.655906198E0,4.875311255E-1,8.097355962E-1,-1.083330363E-1
4.658304687E0,4.447705746E-1,6.667932272E-1,-3.991619125E-2
4.660704062E0,3.836840987E-1,5.189639926E-1,3.460930288E-2
4.663104167E0,3.030499816E-1,3.674694896E-1,1.176868975E-1
4.665503490E0,2.089768350E-1,2.159750462E-1,2.068731487E-1
4.667901979E0,9.902116656E-2,7.181096822E-2,3.021680713E-1
4.670301406E0,-2.437350154E-2,-6.257927418E-2,4.084585309E-1
4.672701510E0,-1.612071842E-1,-1.871956736E-1,5.220793486E-1
4.675100833E0,-3.090364933E-1,-2.995947897E-1,6.405870914E-1
4.677499323E0,-4.629743993E-1,-4.022200704E-1,7.676469684E-1
4.679898698E0,-6.230209470E-1,-4.926280379E-1,9.020372033E-1
4.682298802E0,-7.806240320E-1,-5.671535134E-1,1.036427498E0
4.684698125E0,-9.296750426E-1,-6.294617057E-1,1.173261166E0
4.687096667E0,-1.062843442E0,-6.807743311E-1,1.306429625E0
4.689496042E0,-1.183794618E0,-7.186479568E-1,1.429824352E0
4.691896146E0,-1.283976436E0,-7.443042397E-1,1.538558245E0
4.694295469E0,-1.360945463E0,-7.577432990E-1,1.625301003E0
4.696693958E0,-1.415923238E0,-7.601867318E-1,1.687609196E0
4.699093333E0,-1.448909879E0,-7.577432990E-1,1.718152523E0
4.701493490E0,-1.463570714E0,-7.552998066E-1,1.721817732E0
4.703892812E0,-1.461127281E0,-7.528563738E-1,1.699826598E0
4.706291302E0,-1.448909879E0,-7.430825233E-1,1.654622555E0
4.708690677E0,-1.425697088E0,-7.272000313E-1,1.591092587E0
4.711090781E0,-1.395153880E0,-7.064306140E-1,1.509236693E0
4.713490104E0,-1.356058478E0,-6.710004807E-1,1.412720084E0
4.715888594E0,-1.291306853E0,-5.976967216E-1,1.296655774E0
4.718288021E0,-1.185016394E0,-4.718586504E-1,1.146383166E0
4.720688125E0,-1.035965323E0,-2.995947897E-1,9.716758132E-1
4.723087448E0,-8.429322243E-1,-7.113137841E-2,7.713121772E-1
4.725485937E0,-6.132470965E-1,1.988708228E-1,5.404052734E-1
4.727885312E0,-3.591274023E-1,4.896424413E-1,2.911725044E-1
4.730285417E0,-1.037859172E-1,7.584229708E-1,3.949622065E-2
4.732684740E0,1.381165236E-1,9.844428897E-1,-2.072931379E-1
4.735083281E0,3.506974280E-1,1.146932840E0,-4.381999671E-1
4.737482656E0,5.388437510E-1,1.238562584E0,-6.446722746E-1
4.739882760E0,6.940034032E-1,1.250779867E0,-8.230447769E-1
4.742282083E0,8.235067129E-1,1.192136884E0,-9.769826531E-1
4.744680573E0,9.249102473E-1,1.073629141E0,-1.101599097E0
4.747079948E0,1.010431409E0,9.099174142E-1,-1.206667781E0
4.749480104E0,1.081291795E0,7.168841362E-1,-1.282415032E0
4.751879427E0,1.138713002E0,5.030815005E-1,-1.336171150E0
4.754277917E0,1.182695270E0,2.819484174E-1,-1.370379567E0
4.756677292E0,1.221790671E0,5.470675230E-2,-1.383818626E0
4.759077396E0,1.252333879E0,-1.688697338E-1,-1.382596850E0
4.761476719E0,1.271881580E0,-3.716768324E-1,-1.374044776E0
4.763875208E0,1.281655431E0,-5.463840961E-1,-1.353275299E0
4.766274635E0,1.282877088E0,-6.856612563E-1,-1.326397300E0
4.768674740E0,1.279211879E0,-7.809561491E-1,-1.298297524E0
4.771074062E0,1.277990222E0,-8.347122073E-1,-1.272641182E0
4.773472552E0,1.277990222E0,-8.567033410E-1,-1.249428272E0
4.775871927E0,1.281655431E0,-8.518164754E-1,-1.229880691E0
4.778272031E0,1.286542296E0,-8.188297749E-1,-1.207889557E0
4.780671354E0,1.290207505E0,-7.638519406E-1,-1.183454990E0
4.783069896E0,1.291429162E0,-6.832177639E-1,-1.156576872E0
4.785469271E0,1.285320520E0,-5.769273043E-1,-1.128477097E0
4.787869375E0,1.273103237E0,-4.449805915E-1,-1.094268680E0
4.790268698E0,1.254777312E0,-2.959296107E-1,-1.055173397E0
4.792667187E0,1.230342746E0,-1.285526603E-1,-1.012412786E0
4.795066562E0,1.203464627E0,5.715021491E-2,-9.635436535E-1
4.797466667E0,1.165591121E0,2.611790299E-1,-9.134527445E-1
4.799866042E0,1.117943645E0,4.896424413E-1,-8.609183431E-1
4.802264531E0,1.059300661E0,7.315449119E-1,-8.047187924E-1
4.804663906E0,9.957705736E-1,9.807776809E-1,-7.411888838E-1
4.807064010E0,9.285754561E-1,1.238562584E0,-6.703285575E-1
4.809463333E0,8.613803387E-1,1.512229919E0,-5.933595896E-1
4.811861823E0,7.892982960E-1,1.795671225E0,-5.151689053E-1
4.814261250E0,7.159945369E-1,2.094994783E0,-4.272044301E-1
4.816661354E0,6.426907778E-1,2.408979177E0,-3.343529701E-1
4.819060677E0,5.620566010E-1,2.726629019E0,-2.402798384E-1
4.821459167E0,4.802007377E-1,3.036948204E0,-1.462066621E-1
4.823858542E0,4.007883370E-1,3.319167614E0,-5.213348940E-2
4.826258646E0,3.287062943E-1,3.554961443E0,4.193967953E-2
4.828657969E0,2.627328932E-1,3.733334064E0,1.286824644E-1
4.831056510E0,2.004247308E-1,3.851841688E0,2.056514174E-1
4.833455885E0,1.430034339E-1,3.898267508E0,2.691813707E-1
4.835855990E0,9.779943526E-2,3.881163120E0,3.217157423E-1
4.838255312E0,6.114755943E-2,3.801750898E0,3.632545471E-1
4.840653802E0,3.426950797E-2,3.672247410E0,3.889108598E-1
4.843053177E0,1.350010931E-2,3.495096684E0,4.023498893E-1
4.845453333E0,1.282815821E-3,3.278850555E0,4.060150683E-1
4.847852656E0,-3.604101948E-3,3.036948204E0,4.023498893E-1
4.850251146E0,-4.825831391E-3,2.773054600E0,3.901325762E-1
4.852650521E0,1.282815821E-3,2.498165607E0,3.718066514E-1
4.855050625E0,7.391463034E-3,2.219611168E0,3.473720551E-1
4.857449948E0,1.594356820E-2,1.936170101E0,3.168288171E-1
4.859848437E0,2.693913504E-2,1.661280990E0,2.838421166E-1
4.862247865E0,3.793469816E-2,1.391278744E0,2.496336997E-1
4.864647969E0,4.648680612E-2,1.133493781E0,2.068731487E-1
4.867047292E0,5.259545147E-2,8.915914893E-1,1.616691649E-1
4.869445781E0,5.503891036E-2,6.680150032E-1,1.127999872E-1
4.871845156E0,5.381717905E-2,4.652078450E-1,6.148734689E-2
4.874245260E0,4.404334351E-2,2.856135964E-1,4.066068679E-3
4.876644583E0,2.938259020E-2,1.280105263E-1,-5.946386233E-2
4.879043125E0,9.834921919E-3,-1.126663573E-2,-1.254372597E-1
4.881442500E0,-3.604101948E-3,-1.212222874E-1,-1.877454668E-1
4.883842604E0,2.083048597E-2,-1.676480025E-1,-2.305059880E-1
4.886241927E0,9.535598755E-2,-1.175570935E-1,-2.366146296E-1
4.888640417E0,2.163072079E-1,2.172005922E-2,-2.158452421E-1
4.891039792E0,3.678016365E-1,2.379661649E-1,-1.718629748E-1
4.893439896E0,5.400654674E-1,5.201857090E-1,-1.119982302E-1
4.895839271E0,7.159945369E-1,8.451657295E-1,-5.213348940E-2
4.898237760E0,8.760410547E-1,1.203132391E0,2.844339004E-3
4.900637135E0,1.004322767E0,1.575759888E0,4.927005619E-2
4.903037240E0,1.089843869E0,1.941056967E0,8.103501797E-2
4.905436562E0,1.109391570E0,2.278254271E0,8.836539090E-2
4.907835052E0,1.038531184E0,2.547034740E0,6.148734689E-2
