"Time (s)","Gyroscope x (rad/s)","Gyroscope y (rad/s)","Gyroscope z (rad/s)"
0.000000000E0,-9.447023273E-2,-1.299137354E0,4.093518853E-1
2.391510000E-3,-9.447023273E-2,-1.299137354E0,4.093518853E-1
4.759062000E-3,-9.447023273E-2,-1.299137354E0,4.093518853E-1
7.126614000E-3,-9.447023273E-2,-1.299137354E0,4.093518853E-1
9.494167000E-3,-9.447023273E-2,-1.299137354E0,4.093518853E-1
1.186171900E-2,-9.447023273E-2,-1.299137354E0,4.093518853E-1
1.422927100E-2,-9.447023273E-2,-1.299137354E0,4.093518853E-1
1.674067700E-2,-9.447023273E-2,-1.299137354E0,4.093518853E-1
1.921005200E-2,-9.447023273E-2,-1.299137354E0,4.093518853E-1
2.166432300E-2,-9.447023273E-2,-1.299137354E0,4.093518853E-1
2.411151000E-2,-9.447023273E-2,-1.299137354E0,4.093518853E-1
2.655604200E-2,-9.447023273E-2,-1.299137354E0,4.093518853E-1
2.899906200E-2,-9.447023273E-2,-1.299137354E0,4.093518853E-1
3.144135400E-2,-9.447023273E-2,-1.299137354E0,4.093518853E-1
3.388328100E-2,-9.447023273E-2,-1.299137354E0,4.093518853E-1
3.632484400E-2,-9.447023273E-2,-1.299137354E0,4.093518853E-1
3.876604200E-2,-9.447023273E-2,-1.299137354E0,4.093518853E-1
4.120697900E-2,-9.447023273E-2,-1.299137354E0,4.093518853E-1
4.364786400E-2,-9.447023273E-2,-1.299137354E0,4.093518853E-1
4.608864600E-2,-9.447023273E-2,-1.299137354E0,4.093518853E-1
4.852927100E-2,-9.447023273E-2,-1.299137354E0,4.093518853E-1
5.096979200E-2,-9.447023273E-2,-1.299137354E0,4.093518853E-1
5.341031200E-2,-9.447023273E-2,-1.299137354E0,4.093518853E-1
5.585078100E-2,-9.447023273E-2,-1.299137354E0,4.093518853E-1
5.829114600E-2,-9.447023273E-2,-1.299137354E0,4.093518853E-1
6.073145800E-2,-9.447023273E-2,-1.299137354E0,4.093518853E-1
6.317177100E-2,-9.447023273E-2,-1.299137354E0,4.093518853E-1
6.561203100E-2,-9.447023273E-2,-1.299137354E0,4.093518853E-1
6.805223900E-2,-9.447023273E-2,-1.299137354E0,4.093518853E-1
7.049244800E-2,-9.447023273E-2,-1.299137354E0,4.093518853E-1
7.293265600E-2,-9.447023273E-2,-1.299137354E0,4.093518853E-1
7.537286400E-2,-9.447023273E-2,-1.299137354E0,4.093518853E-1
7.781302100E-2,-9.447023273E-2,-1.299137354E0,4.093518853E-1
8.025317700E-2,-9.447023273E-2,-1.299137354E0,4.093518853E-1
8.269333300E-2,-9.447023273E-2,-1.299137354E0,4.093518853E-1
8.513348900E-2,-9.447023273E-2,-1.299137354E0,4.093518853E-1
8.757359400E-2,-9.447023273E-2,-1.299137354E0,4.093518853E-1
9.001369800E-2,-9.447023273E-2,-1.299137354E0,4.093518853E-1
9.245380200E-2,-9.447023273E-2,-1.299137354E0,4.093518853E-1
9.489390600E-2,-9.447023273E-2,-1.299137354E0,4.093518853E-1
9.733395800E-2,-9.447023273E-2,-1.299137354E0,4.093518853E-1
9.977401000E-2,1.001421094E0,-6.015299559E-1,5.156423450E-1
1.022140620E-1,1.003864646E0,-5.941995978E-1,5.241944790E-1
1.046541140E-1,1.007529736E0,-5.941995978E-1,5.315248370E-1
1.070941140E-1,1.003864646E0,-6.003082395E-1,5.425204039E-1
1.095341140E-1,9.989776611E-1,-6.076385975E-1,5.510725379E-1
1.119741140E-1,9.940907359E-1,-6.113038063E-1,5.608463287E-1
1.144141140E-1,9.818734527E-1,-6.247428060E-1,5.730636120E-1
1.168540620E-1,9.684344530E-1,-6.381818056E-1,5.803940296E-1
1.192940100E-1,9.525519609E-1,-6.565077901E-1,5.913895965E-1
1.217339580E-1,9.317825437E-1,-6.772771478E-1,6.023851633E-1
1.241739060E-1,9.097914100E-1,-7.017117739E-1,6.121590137E-1
1.266138020E-1,8.804699183E-1,-7.310332656E-1,6.182676554E-1
1.290536980E-1,8.474832177E-1,-7.603547573E-1,6.255980134E-1
1.314935940E-1,8.120530844E-1,-7.970066667E-1,6.243762970E-1
1.339196350E-1,7.754011750E-1,-8.263281584E-1,6.194893718E-1
1.363102080E-1,7.375275493E-1,-8.458758593E-1,6.133807302E-1
1.387016140E-1,7.020974159E-1,-8.642017841E-1,6.048285961E-1
1.410938540E-1,6.666672826E-1,-8.776407838E-1,5.901678801E-1
1.434852080E-1,6.312370896E-1,-8.898580670E-1,5.730636120E-1
1.458758330E-1,5.933635235E-1,-8.996319175E-1,5.547376871E-1
1.482672390E-1,5.542681813E-1,-9.106274843E-1,5.290814042E-1
1.506594790E-1,5.163945556E-1,-9.277316928E-1,4.985381365E-1
1.530508330E-1,4.785208702E-1,-9.411707520E-1,4.655514359E-1
1.554414580E-1,4.467559159E-1,-9.497228265E-1,4.325647652E-1
1.578328640E-1,4.137692153E-1,-9.582749009E-1,3.971346021E-1
1.602251040E-1,3.832259774E-1,-9.594966769E-1,3.665913641E-1
1.626164580E-1,3.575696647E-1,-9.558314681E-1,3.348264098E-1
1.650070830E-1,3.392437100E-1,-9.387272596E-1,2.981745303E-1
1.673984890E-1,3.221395016E-1,-9.216230512E-1,2.627443671E-1
1.697907290E-1,3.025918305E-1,-9.008536339E-1,2.309793830E-1
1.721820830E-1,2.781572342E-1,-8.776407838E-1,1.992144287E-1
1.745727080E-1,2.512792349E-1,-8.532062173E-1,1.674494743E-1
1.769641140E-1,2.182925195E-1,-8.312150836E-1,1.381279528E-1
1.793563540E-1,1.840840876E-1,-8.043370247E-1,1.136933714E-1
1.817477080E-1,1.498756558E-1,-7.811241746E-1,8.925879002E-2
1.841383330E-1,1.120020449E-1,-7.615764737E-1,6.482420117E-2
1.865297390E-1,7.779362053E-2,-7.346984744E-1,3.916788101E-2
1.889219790E-1,4.236346856E-2,-7.139290571E-1,1.962020993E-2
1.913133330E-1,6.933315191E-3,-6.956031322E-1,-2.370918170E-3
1.937039580E-1,-3.094029985E-2,-6.870509982E-1,-1.703167148E-2
1.960953640E-1,-6.881391257E-2,-6.760554314E-1,-3.169242665E-2
1.984876040E-1,-1.054657996E-1,-6.699467897E-1,-4.635317996E-2
2.008789580E-1,-1.384524852E-1,-6.711685061E-1,-6.345738471E-2
2.032695830E-1,-1.714391857E-1,-6.711685061E-1,-7.811814547E-2
2.056609890E-1,-1.995389611E-1,-6.638381481E-1,-9.400062263E-2
2.080532290E-1,-2.239735425E-1,-6.589512229E-1,-1.123265773E-1
2.104445830E-1,-2.447429448E-1,-6.516208649E-1,-1.379828900E-1
2.128352080E-1,-2.606254518E-1,-6.296297312E-1,-1.636392176E-1
2.152266140E-1,-2.618471682E-1,-5.856474638E-1,-1.929607242E-1
2.176188540E-1,-2.655123472E-1,-5.538824797E-1,-2.186170369E-1
2.200102080E-1,-2.691775560E-1,-5.221175551E-1,-2.381647080E-1
2.224008330E-1,-2.740644813E-1,-4.952394962E-1,-2.540471852E-1
2.247922390E-1,-2.655123472E-1,-4.524789453E-1,-2.760383189E-1
2.271844790E-1,-2.642906308E-1,-4.231574535E-1,-2.955859900E-1
2.295758330E-1,-2.655123472E-1,-4.194922447E-1,-3.139119446E-1
2.319664580E-1,-2.630689144E-1,-4.072749615E-1,-3.273509443E-1
2.343578640E-1,-2.594037056E-1,-3.938359320E-1,-3.407899737E-1
2.367501040E-1,-2.618471682E-1,-3.840621114E-1,-3.517855406E-1
2.391414580E-1,-2.594037056E-1,-3.742882609E-1,-3.603376448E-1
2.415320830E-1,-2.557385266E-1,-3.645144403E-1,-3.701114953E-1
2.439234890E-1,-2.569602430E-1,-3.706230819E-1,-3.762201369E-1
2.463157290E-1,-2.581819892E-1,-3.779534698E-1,-3.811070621E-1
2.487070830E-1,-2.545168102E-1,-3.767317235E-1,-3.908808827E-1
2.510977080E-1,-2.508516014E-1,-3.706230819E-1,-4.055416286E-1
2.534891140E-1,-2.508516014E-1,-3.779534698E-1,-4.263110459E-1
2.558813540E-1,-2.484081388E-1,-3.865055740E-1,-4.507456422E-1
2.582727080E-1,-2.447429448E-1,-3.938359320E-1,-4.776236713E-1
2.606633330E-1,-2.398560345E-1,-3.999445736E-1,-5.069451928E-1
2.630547390E-1,-2.337473780E-1,-4.023880363E-1,-5.362666845E-1
2.654469790E-1,-2.264170051E-1,-4.036097825E-1,-5.631447434E-1
2.678383330E-1,-2.190866321E-1,-4.011663198E-1,-5.839141607E-1
2.702289580E-1,-2.141997069E-1,-4.023880363E-1,-6.034618020E-1
2.726203640E-1,-2.117562443E-1,-4.060532451E-1,-6.181225777E-1
2.750126040E-1,-2.141997069E-1,-4.097184241E-1,-6.340050697E-1
2.774039580E-1,-2.215300947E-1,-4.084966779E-1,-6.425571442E-1
2.797945830E-1,-2.325256467E-1,-4.072749615E-1,-6.523309946E-1
2.821859890E-1,-2.435212135E-1,-4.011663198E-1,-6.608830690E-1
2.845782290E-1,-2.594037056E-1,-3.865055740E-1,-6.694352031E-1
2.869695830E-1,-2.728427351E-1,-3.620709777E-1,-6.731004119E-1
2.893602080E-1,-2.887252271E-1,-3.339712024E-1,-6.755438447E-1
2.917516140E-1,-3.070511520E-1,-3.009845018E-1,-6.792090535E-1
2.941438540E-1,-3.253771067E-1,-2.594456971E-1,-6.816524863E-1
2.965352080E-1,-3.473682404E-1,-2.203503549E-1,-6.840959787E-1
2.989258330E-1,-3.681376278E-1,-1.775898337E-1,-6.889828444E-1
3.013172390E-1,-3.913505077E-1,-1.323858351E-1,-6.938697696E-1
3.037094790E-1,-4.182285368E-1,-8.596011996E-2,-7.012001872E-1
3.061008330E-1,-4.463283122E-1,-3.709094226E-2,-7.073088288E-1
3.084914580E-1,-4.780932963E-1,1.055650413E-2,-7.170826197E-1
3.108828640E-1,-5.086364746E-1,6.309087574E-2,-7.195261121E-1
3.132751040E-1,-5.416231751E-1,1.229556203E-1,-7.268564701E-1
3.156664580E-1,-5.819402337E-1,1.803769022E-1,-7.329651117E-1
3.180570830E-1,-6.198138595E-1,2.439068258E-1,-7.390737534E-1
3.204484890E-1,-6.625743508E-1,3.123236895E-1,-7.476258874E-1
3.228407290E-1,-7.053349018E-1,3.819622695E-1,-7.525128126E-1
3.252320830E-1,-7.480954528E-1,4.491573870E-1,-7.598431706E-1
3.276227080E-1,-7.932994366E-1,5.126873255E-1,-7.659518123E-1
3.300141140E-1,-8.470554948E-1,5.627782345E-1,-7.671735287E-1
3.324063540E-1,-9.044768214E-1,6.043170094E-1,-7.635083795E-1
3.347977080E-1,-9.643415213E-1,6.446340680E-1,-7.610648870E-1
3.371883330E-1,-1.020541072E0,6.837294102E-1,-7.586214542E-1
3.395797390E-1,-1.073075414E0,7.203813195E-1,-7.549562454E-1
3.419719790E-1,-1.121944666E0,7.582549453E-1,-7.500693202E-1
3.443633330E-1,-1.164705157E0,7.961285114E-1,-7.464041710E-1
3.467539580E-1,-1.200135350E0,8.376673460E-1,-7.341868877E-1
3.491453640E-1,-1.227013350E0,8.840930462E-1,-7.146391869E-1
3.515376040E-1,-1.251447916E0,9.329622388E-1,-6.865394115E-1
3.539289580E-1,-1.270995617E0,9.842748642E-1,-6.535527110E-1
3.563195830E-1,-1.283212900E0,1.033144116E0,-6.120139360E-1
3.587109890E-1,-1.294208527E0,1.080791593E0,-5.631447434E-1
3.611032290E-1,-1.301538825E0,1.127217293E0,-5.179407597E-1
3.634945830E-1,-1.306425810E0,1.166312575E0,-4.739584923E-1
3.658852080E-1,-1.305204034E0,1.201742768E0,-4.409717917E-1
3.682766140E-1,-1.303982377E0,1.235951185E0,-4.165371954E-1
3.706688540E-1,-1.295430183E0,1.261607528E0,-3.957678080E-1
3.730602080E-1,-1.285656333E0,1.275046587E0,-3.786635995E-1
3.754508330E-1,-1.270995617E0,1.283598661E0,-3.640028536E-1
3.778422390E-1,-1.250226259E0,1.297037721E0,-3.591159284E-1
3.802344790E-1,-1.219683051E0,1.317807078E0,-3.578941822E-1
3.826258330E-1,-1.186696291E0,1.347128630E0,-3.591159284E-1
3.850164580E-1,-1.150044441E0,1.382558703E0,-3.640028536E-1
3.874078640E-1,-1.115836024E0,1.415545464E0,-3.676680326E-1
3.898001040E-1,-1.087736249E0,1.448532104E0,-3.652245700E-1
3.921914580E-1,-1.068188548E0,1.477853656E0,-3.530072868E-1
3.945820830E-1,-1.063301682E0,1.498623013E0,-3.297944069E-1
3.969734890E-1,-1.070631981E0,1.509618640E0,-3.004729152E-1
3.993657290E-1,-1.103618741E0,1.502288222E0,-2.687079310E-1
4.017570830E-1,-1.162261724E0,1.474188447E0,-2.454950809E-1
4.041477080E-1,-1.216017842E0,1.424097538E0,-2.259474099E-1
4.065391140E-1,-1.251447916E0,1.363011003E0,-2.161735743E-1
4.089313540E-1,-1.278326035E0,1.304368019E0,-2.137301266E-1
4.113227080E-1,-1.302760601E0,1.265272737E0,-2.125083953E-1
4.137133330E-1,-1.323529959E0,1.243281603E0,-2.112866640E-1
4.161047390E-1,-1.347964644E0,1.226177335E0,-2.027345598E-1
4.184969790E-1,-1.373620868E0,1.205407977E0,-1.917389929E-1
4.208883330E-1,-1.395612001E0,1.200520992E0,-1.734130532E-1
4.232789580E-1,-1.407829285E0,1.195634127E0,-1.538653672E-1
4.256703640E-1,-1.416381478E0,1.190747261E0,-1.306525171E-1
4.280626040E-1,-1.422490120E0,1.185860276E0,-1.049961895E-1
4.304539580E-1,-1.423711777E0,1.182195067E0,-7.933987677E-2
4.328445830E-1,-1.422490120E0,1.171199560E0,-5.246182531E-2
4.352359890E-1,-1.423711777E0,1.157760501E0,-2.558377758E-2
4.376282290E-1,-1.426155329E0,1.154095292E0,1.294270158E-3
4.400195830E-1,-1.429820418E0,1.157760501E0,2.572885901E-2
4.424102080E-1,-1.431042194E0,1.169977784E0,4.038961232E-2
4.448016140E-1,-1.428598762E0,1.205407977E0,5.382863432E-2
4.471938540E-1,-1.424933553E0,1.248168468E0,5.993728340E-2
4.495852080E-1,-1.428598762E0,1.287263870E0,6.726766378E-2
4.519758330E-1,-1.435929060E0,1.331246138E0,6.726766378E-2
4.543672390E-1,-1.442037702E0,1.376450062E0,6.360246986E-2
4.567594790E-1,-1.444481254E0,1.439980030E0,5.993728340E-2
4.591508330E-1,-1.443259478E0,1.512062073E0,5.505036563E-2
4.615414580E-1,-1.435929060E0,1.602470040E0,5.016344786E-2
4.639328640E-1,-1.420046568E0,1.706317067E0,4.283306748E-2
4.663251040E-1,-1.395612001E0,1.824824810E0,3.794615716E-2
4.687164580E-1,-1.357738376E0,1.949441195E0,3.183750808E-2
4.711070830E-1,-1.324751735E0,2.067948818E0,2.328540012E-2
4.734984890E-1,-1.307647467E0,2.182791471E0,1.717675477E-2
4.758907290E-1,-1.297873735E0,2.303742647E0,1.294270158E-3
4.782820830E-1,-1.283212900E0,2.400259256E0,-2.314031869E-2
4.806727080E-1,-1.274660826E0,2.479671717E0,-4.635317996E-2
4.830641140E-1,-1.268552184E0,2.539536476E0,-6.345738471E-2
4.854563540E-1,-1.263665199E0,2.577409983E0,-8.300507069E-2
4.878477080E-1,-1.260000110E0,2.595736027E0,-1.049961895E-1
4.902383330E-1,-1.260000110E0,2.590848923E0,-1.257655919E-1
4.926297390E-1,-1.264886975E0,2.562749147E0,-1.355394274E-1
4.950219790E-1,-1.274660826E0,2.518766880E0,-1.392046213E-1
4.974133330E-1,-1.285656333E0,2.473562956E0,-1.392046213E-1
4.998039580E-1,-1.300317168E0,2.418585062E0,-1.343176961E-1
5.021953640E-1,-1.310091019E0,2.356276989E0,-1.330959797E-1
5.045876040E-1,-1.312534451E0,2.290303469E0,-1.330959797E-1
5.069789580E-1,-1.300317168E0,2.221886635E0,-1.294307858E-1
5.093695830E-1,-1.270995617E0,2.163243771E0,-1.282090545E-1
5.117609890E-1,-1.225791693E0,2.113152742E0,-1.196569502E-1
5.141532290E-1,-1.169592142E0,2.078944445E0,-1.111048460E-1
5.165445830E-1,-1.108505607E0,2.048401117E0,-1.111048460E-1
5.189352080E-1,-1.037645340E0,2.022744894E0,-1.233221442E-1
5.213266140E-1,-9.570111632E-1,2.001975536E0,-1.489784569E-1
5.237188540E-1,-8.580510616E-1,1.988536477E0,-1.856303364E-1
5.261102080E-1,-7.554258108E-1,1.972654104E0,-2.332777977E-1
5.285008330E-1,-6.528005600E-1,1.940889120E0,-2.845904231E-1
5.308921870E-1,-5.587273836E-1,1.887133002E0,-3.334596157E-1
5.332844790E-1,-4.695411921E-1,1.830933452E0,-3.798853159E-1
5.356758330E-1,-3.730245531E-1,1.779620767E0,-4.165371954E-1
5.380664580E-1,-2.740644813E-1,1.729529858E0,-4.495238960E-1
5.404578640E-1,-1.824347526E-1,1.681882501E0,-4.800671339E-1
5.428500520E-1,-9.691368788E-2,1.622017741E0,-5.130538344E-1
5.452414060E-1,-2.360992134E-2,1.552379131E0,-5.460405350E-1
5.476320310E-1,4.114173725E-2,1.476631880E0,-5.741403103E-1
5.500234890E-1,9.489782900E-2,1.391110778E0,-5.973531604E-1
5.524156770E-1,1.462104768E-1,1.308033228E0,-6.083487272E-1
5.548070310E-1,1.865275502E-1,1.220068693E0,-6.132356524E-1
5.571976560E-1,2.256228924E-1,1.134547710E0,-6.046835184E-1
5.595890620E-1,2.622747421E-1,1.060022116E0,-5.826923847E-1
5.619813020E-1,3.001483679E-1,9.964921474E-1,-5.497057438E-1
5.643726560E-1,3.343567848E-1,9.268535972E-1,-5.277145505E-1
5.667632810E-1,3.661217690E-1,8.608801961E-1,-5.106103420E-1
5.691546870E-1,3.966650069E-1,7.936850786E-1,-5.057234168E-1
5.715469270E-1,4.235430360E-1,7.264899611E-1,-5.142755508E-1
5.739382810E-1,4.455341697E-1,6.605165601E-1,-5.252711177E-1
5.763289060E-1,4.589731991E-1,6.018735766E-1,-5.338232517E-1
5.787203120E-1,4.772991538E-1,5.542261004E-1,-5.374884009E-1
5.811125520E-1,4.944033623E-1,5.114656091E-1,-5.411536098E-1
5.835039060E-1,5.066207051E-1,4.735919535E-1,-5.460405350E-1
5.858945310E-1,5.151728392E-1,4.406052828E-1,-5.460405350E-1
5.882859370E-1,5.200597048E-1,4.100620449E-1,-5.497057438E-1
5.906781770E-1,5.212814808E-1,3.782970607E-1,-5.594795346E-1
5.930695310E-1,5.212814808E-1,3.465321064E-1,-5.631447434E-1
5.954601560E-1,5.127293468E-1,3.159888685E-1,-5.692533851E-1
5.978515620E-1,4.992902875E-1,2.842239141E-1,-5.729185939E-1
6.002438020E-1,4.821860492E-1,2.585676014E-1,-5.778055191E-1
6.026351560E-1,4.589731991E-1,2.292460799E-1,-5.765837431E-1
6.050257810E-1,4.369820654E-1,2.096984088E-1,-5.704751015E-1
6.074171870E-1,4.149909317E-1,1.950376481E-1,-5.594795346E-1
6.098094270E-1,3.917780817E-1,1.803769022E-1,-5.472622514E-1
6.122007810E-1,3.722304106E-1,1.693813354E-1,-5.289363265E-1
6.145914060E-1,3.551262021E-1,1.657161415E-1,-5.081669092E-1
6.169828120E-1,3.441306353E-1,1.706030667E-1,-4.886192381E-1
6.193750520E-1,3.331350684E-1,1.730465293E-1,-4.678498507E-1
6.217664060E-1,3.245829642E-1,1.864855438E-1,-4.446369708E-1
6.241570310E-1,3.196960390E-1,1.999245733E-1,-4.250892997E-1
6.265484370E-1,3.135873973E-1,2.158070505E-1,-4.018764496E-1
6.289406770E-1,3.087004721E-1,2.341329902E-1,-3.786635995E-1
6.313320310E-1,3.050352931E-1,2.512372136E-1,-3.554507494E-1
6.337226560E-1,3.013700843E-1,2.720066011E-1,-3.334596157E-1
6.361140620E-1,2.964831889E-1,2.793369889E-1,-3.053598404E-1
6.385063020E-1,2.891528010E-1,2.903325558E-1,-2.772600353E-1
6.408976560E-1,2.842658758E-1,3.013281226E-1,-2.467167974E-1
6.432882810E-1,2.781572342E-1,3.049933016E-1,-2.161735743E-1
6.456796870E-1,2.708268762E-1,3.098802269E-1,-1.892955303E-1
6.480719270E-1,2.622747421E-1,3.111019433E-1,-1.563088298E-1
6.504632810E-1,2.573878467E-1,3.111019433E-1,-1.233221442E-1
6.528539060E-1,2.512792349E-1,3.123236895E-1,-9.155717492E-2
6.552453120E-1,2.463922948E-1,3.172105849E-1,-5.490528420E-2
6.576375520E-1,2.415053695E-1,3.196540475E-1,-1.947513036E-2
6.600289060E-1,2.402836382E-1,3.208757937E-1,1.595502347E-2
6.624195310E-1,2.378401905E-1,3.257626891E-1,5.382863432E-2
6.648109370E-1,2.390619069E-1,3.269844353E-1,9.170223773E-2
6.672031770E-1,2.402836382E-1,3.294278979E-1,1.320193112E-1
6.695944790E-1,2.402836382E-1,3.257626891E-1,1.760015786E-1
6.719851560E-1,2.415053695E-1,3.245409727E-1,2.224272788E-1
6.743765100E-1,2.390619069E-1,3.208757937E-1,2.737399340E-1
6.767687500E-1,2.353967279E-1,3.196540475E-1,3.250525594E-1
6.791601040E-1,2.329532653E-1,3.208757937E-1,3.788086474E-1
6.815507290E-1,2.292880714E-1,3.208757937E-1,4.325647652E-1
6.839421350E-1,2.244011611E-1,3.220975101E-1,4.863208532E-1
6.863343750E-1,2.182925195E-1,3.245409727E-1,5.412986875E-1
6.887257290E-1,2.146273255E-1,3.282061517E-1,5.889461040E-1
6.911163540E-1,2.109621316E-1,3.392017186E-1,6.378152966E-1
6.935077600E-1,2.109621316E-1,3.514190316E-1,6.866844893E-1
6.959000000E-1,2.146273255E-1,3.685232401E-1,7.331101894E-1
6.982913540E-1,2.207359672E-1,3.856274486E-1,7.795358896E-1
7.006819790E-1,2.280663401E-1,4.063968360E-1,8.210747242E-1
7.030733850E-1,2.439488322E-1,4.271662533E-1,8.613917828E-1
7.054656250E-1,2.610530257E-1,4.516008496E-1,8.968219161E-1
7.078569790E-1,2.818224430E-1,4.748136997E-1,9.346955419E-1
7.102476040E-1,3.050352931E-1,4.992482960E-1,9.664605260E-1
7.126390100E-1,3.319133222E-1,5.236828923E-1,9.957820177E-1
7.150312500E-1,3.636783063E-1,5.517826676E-1,1.027547121E0
7.174226040E-1,3.978867233E-1,5.847693682E-1,1.054425120E0
7.198132290E-1,4.382038116E-1,6.177560687E-1,1.080081463E0
7.222046350E-1,4.797425866E-1,6.507427096E-1,1.102072597E0
7.245968750E-1,5.212814808E-1,6.800642610E-1,1.120398521E0
7.269882290E-1,5.628202558E-1,7.154943943E-1,1.130172372E0
7.293788540E-1,6.006938815E-1,7.448158860E-1,1.136281013E0
7.317702600E-1,6.324588656E-1,7.692505121E-1,1.133837581E0
7.341625000E-1,6.544499397E-1,7.887981534E-1,1.122841954E0
7.365538540E-1,6.666672826E-1,7.949067950E-1,1.095963955E0
7.389444790E-1,6.642237902E-1,7.912416458E-1,1.069085956E0
7.413358850E-1,6.507847905E-1,7.729156613E-1,1.036099195E0
7.437281250E-1,6.275719404E-1,7.460376024E-1,1.001890659E0
7.461194790E-1,5.958069563E-1,7.142726779E-1,9.652388096E-1
7.485101040E-1,5.506029725E-1,6.800642610E-1,9.200348258E-1
7.509015100E-1,5.005120039E-1,6.421906352E-1,8.711656332E-1
7.532937500E-1,4.406472445E-1,6.006518006E-1,8.149660826E-1
7.556850520E-1,3.783390522E-1,5.603347421E-1,7.514361143E-1
7.580757290E-1,3.196960390E-1,5.114656091E-1,6.793541312E-1
7.604671350E-1,2.696051300E-1,4.516008496E-1,6.036068797E-1
7.628593230E-1,2.256228924E-1,3.892926276E-1,5.156423450E-1
7.652506770E-1,1.914144605E-1,3.135454059E-1,4.179039896E-1
7.676413020E-1,1.596495062E-1,2.206939757E-1,3.116135299E-1
7.700327080E-1,1.315497160E-1,1.168469638E-1,2.004361600E-1
7.724249480E-1,1.071151271E-1,2.155207098E-2,8.681532741E-2
7.748163020E-1,8.390226215E-2,-6.885591149E-2,-2.558377758E-2
7.772069270E-1,4.602865502E-2,-1.470465958E-1,-1.392046213E-1
7.795983330E-1,-1.618791139E-3,-2.240155339E-1,-2.503820062E-1
7.819905730E-1,-6.148353592E-2,-2.912106514E-1,-3.468986154E-1
7.843819270E-1,-1.286786497E-1,-3.413015604E-1,-4.324196875E-1
7.867725520E-1,-1.983172297E-1,-3.547405899E-1,-4.922844172E-1
7.891639580E-1,-2.667340934E-1,-3.315277398E-1,-5.411536098E-1
7.915561980E-1,-3.278205693E-1,-2.838802934E-1,-5.863575935E-1
7.939475520E-1,-3.754680157E-1,-2.166851759E-1,-6.266746521E-1
7.963381770E-1,-4.231154621E-1,-1.262771934E-1,-6.669917703E-1
7.987295830E-1,-4.719846249E-1,-1.509980857E-2,-7.036436200E-1
8.011218230E-1,-5.245189667E-1,1.180686951E-1,-7.378520370E-1
8.035131770E-1,-5.819402337E-1,2.622327805E-1,-7.720604539E-1
8.059038020E-1,-6.528005600E-1,4.137272239E-1,-8.050471544E-1
8.082952080E-1,-7.224391103E-1,5.664433837E-1,-8.331469297E-1
8.106874480E-1,-7.847473025E-1,7.203813195E-1,-8.575815558E-1
8.130788020E-1,-8.348382115E-1,8.767626882E-1,-8.746857643E-1
8.154694270E-1,-8.666031957E-1,1.022148490E0,-8.832378387E-1
8.178608330E-1,-8.824856877E-1,1.151651859E0,-8.869030476E-1
8.202530730E-1,-8.812639713E-1,1.254277110E0,-8.783509135E-1
8.226444270E-1,-8.604945540E-1,1.319028854E0,-8.563597798E-1
8.250350520E-1,-8.250643611E-1,1.347128630E0,-8.245948553E-1
8.274264580E-1,-7.713083029E-1,1.334911227E0,-7.842777967E-1
8.298186460E-1,-7.041131854E-1,1.289707303E0,-7.415172458E-1
8.322100520E-1,-6.283659339E-1,1.209073186E0,-7.036436200E-1
8.346006770E-1,-5.416231751E-1,1.104004383E0,-6.584396362E-1
8.369920830E-1,-4.451065958E-1,9.867183566E-1,-6.083487272E-1
8.393842710E-1,-3.412595987E-1,8.621019125E-1,-5.545926094E-1
8.417756250E-1,-2.325256467E-1,7.313768864E-1,-4.996147752E-1
8.441662500E-1,-1.360090226E-1,5.872128010E-1,-4.495238960E-1
8.465576560E-1,-5.170970038E-2,4.442704618E-1,-4.006547332E-1
8.489498960E-1,2.037233859E-2,3.220975101E-1,-3.530072868E-1
8.513412500E-1,8.268053830E-2,2.329112589E-1,-3.078032732E-1
8.537318750E-1,1.449887455E-1,1.791551709E-1,-2.589341104E-1
8.561232810E-1,1.963013858E-1,1.412815601E-1,-2.149518430E-1
8.585155210E-1,2.305098027E-1,1.241773516E-1,-1.673043966E-1
8.609068750E-1,2.549443841E-1,1.253990829E-1,-1.172134876E-1
8.632975000E-1,2.659399509E-1,1.400598288E-1,-6.223566458E-2
8.656889060E-1,2.757137716E-1,1.718247980E-1,-8.479565382E-3
8.680811460E-1,2.757137716E-1,2.158070505E-1,4.649826139E-2
8.704725000E-1,2.647182047E-1,2.658979595E-1,9.414570034E-2
8.728631250E-1,2.512792349E-1,3.257626891E-1,1.344627738E-1
8.752545310E-1,2.341749966E-1,3.905143738E-1,1.698929220E-1
8.776467710E-1,2.182925195E-1,4.577094913E-1,2.004361600E-1
8.800381250E-1,2.036317587E-1,5.273481011E-1,2.346445918E-1
8.824287500E-1,1.975231171E-1,5.884345174E-1,2.664095461E-1
8.848201560E-1,2.036317587E-1,6.397471428E-1,2.957310677E-1
8.872123960E-1,2.256228924E-1,6.715121269E-1,3.238308430E-1
8.896037500E-1,2.610530257E-1,6.825076938E-1,3.543740809E-1
8.919943750E-1,3.099222183E-1,6.788424850E-1,3.788086474E-1
8.943857810E-1,3.734521270E-1,6.568513513E-1,4.093518853E-1
8.967780210E-1,4.528645575E-1,6.201995015E-1,4.386734068E-1
8.991693750E-1,5.383856893E-1,5.762172341E-1,4.667731822E-1
9.015600000E-1,6.312370896E-1,5.273481011E-1,4.912077785E-1
9.039514060E-1,7.265319824E-1,4.772571623E-1,5.168640614E-1
9.063435940E-1,8.254920840E-1,4.320531487E-1,5.339683294E-1
9.087349480E-1,9.232304692E-1,3.929578066E-1,5.449638367E-1
9.111255730E-1,1.014860153E0,3.599711359E-1,5.437421203E-1
9.135169790E-1,1.101602912E0,3.355365396E-1,5.290814042E-1
9.159092190E-1,1.177350163E0,3.172105849E-1,4.973164201E-1
9.183005730E-1,1.243323565E0,3.037715852E-1,4.521124363E-1
9.206911980E-1,1.299523115E0,2.952194810E-1,3.983563185E-1
9.230826040E-1,1.343505383E0,2.878890932E-1,3.397133052E-1
9.254748440E-1,1.374048591E0,2.830021679E-1,2.761833966E-1
9.278661980E-1,1.394818068E0,2.842239141E-1,2.077665329E-1
9.302568230E-1,1.408257008E0,3.001063764E-1,1.369062364E-1
9.326482290E-1,1.408257008E0,3.220975101E-1,6.726766378E-2
9.350404690E-1,1.385044217E0,3.233192563E-1,4.959456623E-3
9.374318230E-1,1.333731532E0,3.074367642E-1,-5.368355289E-2
9.398224480E-1,1.271423340E0,2.952194810E-1,-1.062179208E-1
9.422138540E-1,1.211558580E0,3.049933016E-1,-1.428698152E-1
9.446060940E-1,1.151693821E0,3.379800022E-1,-1.599740237E-1
9.469974480E-1,1.091829062E0,3.636363149E-1,-1.636392176E-1
9.493880730E-1,1.024634004E0,3.587493896E-1,-1.563088298E-1
9.517794790E-1,9.586606026E-1,3.367582560E-1,-1.367611587E-1
9.541717190E-1,8.987958431E-1,3.184323311E-1,-1.074396521E-1
9.565630730E-1,8.438180089E-1,3.159888685E-1,-7.445295155E-2
9.589536980E-1,7.925053835E-1,3.318713605E-1,-3.657934442E-2
9.613451040E-1,7.473013997E-1,3.660797775E-1,1.294270158E-3
9.637372920E-1,7.033191323E-1,4.076185822E-1,3.794615716E-2
9.661286460E-1,6.617803574E-1,4.552660286E-1,7.215456665E-2
9.685192710E-1,6.226850152E-1,4.992482960E-1,1.063629985E-1
9.709106770E-1,5.835896730E-1,5.346784592E-1,1.442366093E-1
9.733029170E-1,5.518246889E-1,5.615564585E-1,1.857754141E-1
9.756942710E-1,5.212814808E-1,5.737738013E-1,2.322011292E-1
9.780848960E-1,4.846295118E-1,5.566695929E-1,2.896224260E-1
9.804763020E-1,4.357603490E-1,4.931396246E-1,3.568175435E-1
9.828685420E-1,3.832259774E-1,3.905143738E-1,4.276778400E-1
9.852598960E-1,3.306916058E-1,2.634544969E-1,4.912077785E-1
9.876505210E-1,2.744920552E-1,1.217338890E-1,5.559594035E-1
9.900419270E-1,2.256228924E-1,-3.586921096E-2,6.182676554E-1
9.924341670E-1,1.816406250E-1,-1.934723109E-1,6.781323552E-1
9.948255210E-1,1.401018351E-1,-3.474102318E-1,7.404405475E-1
9.972161460E-1,1.071151271E-1,-4.879090786E-1,8.003053069E-1
9.996075520E-1,7.901535183E-2,-6.174124479E-1,8.577265739E-1
1.001999792E0,5.335903540E-2,-7.346984744E-1,9.188130498E-1
1.004391146E0,3.136790171E-2,-8.348802924E-1,9.811213017E-1
1.006781771E0,2.403752692E-2,-8.984102011E-1,1.038542628E0
1.009173177E0,3.503309190E-2,-9.167361259E-1,1.092298746E0
1.011565417E0,5.213730410E-2,-8.996319175E-1,1.149720073E0
1.013956719E0,6.679805368E-2,-8.751973510E-1,1.207141399E0
1.016347396E0,7.290670276E-2,-8.727538586E-1,1.252345324E0
1.018738802E0,6.801978499E-2,-8.690887094E-1,1.287775517E0
1.021130989E0,6.924151629E-2,-8.642017841E-1,1.313431859E0
1.023522344E0,8.268053830E-2,-8.324368000E-1,1.324427366E0
1.025912969E0,9.734129161E-2,-7.823458910E-1,1.323205590E0
1.028304375E0,1.181106940E-1,-7.224811316E-1,1.310988307E0
1.030696614E0,1.486539394E-1,-6.491773725E-1,1.279223323E0
1.033087969E0,1.828623563E-1,-5.685432553E-1,1.231575966E0
1.035478594E0,2.195142359E-1,-4.989046454E-1,1.172932863E0
1.037870000E0,2.622747421E-1,-4.341530204E-1,1.105737805E0
1.040262239E0,3.087004721E-1,-3.767317235E-1,1.037320971E0
1.042653594E0,3.563479185E-1,-3.303059936E-1,9.701256752E-1
1.045044219E0,4.015519023E-1,-2.985410392E-1,9.004871249E-1
1.047435625E0,4.491993487E-1,-2.899889350E-1,8.381789327E-1
1.049827864E0,4.931816161E-1,-2.948758602E-1,7.783141732E-1
1.052219219E0,5.396074057E-1,-3.132017851E-1,7.257798314E-1
1.054609844E0,5.811461806E-1,-3.522971272E-1,6.830192804E-1
1.057001250E0,6.153545976E-1,-4.097184241E-1,6.488108635E-1
1.059393489E0,6.458978653E-1,-4.818004370E-1,6.280414462E-1
1.061784844E0,6.691107154E-1,-5.685432553E-1,6.121590137E-1
1.064175469E0,6.862149239E-1,-6.650598645E-1,6.072720885E-1
1.066566875E0,6.959887743E-1,-7.664633989E-1,6.060503125E-1
1.068959062E0,7.020974159E-1,-8.739756346E-1,6.097155213E-1
1.071350417E0,7.020974159E-1,-9.741573930E-1,6.146024466E-1
1.073741042E0,6.996539831E-1,-1.060900211E0,6.207110882E-1
1.076132448E0,6.898801327E-1,-1.136647344E0,6.292632222E-1
1.078524687E0,6.739976406E-1,-1.197733879E0,6.353718638E-1
1.080916042E0,6.495630741E-1,-1.241716146E0,6.402587891E-1
1.083306667E0,6.202415228E-1,-1.269815922E0,6.439239383E-1
1.085698073E0,5.811461806E-1,-1.277146220E0,6.463674307E-1
1.088090312E0,5.396074057E-1,-1.260042071E0,6.488108635E-1
1.090481667E0,4.882946908E-1,-1.231942296E0,6.475891471E-1
1.092872292E0,4.272082448E-1,-1.201399088E0,6.451456547E-1
1.095263698E0,3.587913811E-1,-1.173299313E0,6.353718638E-1
1.097655937E0,2.781572342E-1,-1.159860253E0,6.219328046E-1
1.100047292E0,1.877492815E-1,-1.161081910E0,6.072720885E-1
1.102437917E0,8.878918737E-2,-1.173299313E0,5.913895965E-1
1.104829323E0,-2.360992134E-2,-1.190403461E0,5.816157460E-1
1.107221562E0,-1.408959478E-1,-1.214838028E0,5.742853880E-1
1.109612917E0,-2.606254518E-1,-1.247824788E0,5.693984628E-1
1.112003542E0,-3.779114783E-1,-1.277146220E0,5.669549704E-1
1.114394948E0,-4.890888631E-1,-1.299137354E0,5.608463287E-1
1.116787135E0,-5.917140841E-1,-1.318685055E0,5.584028959E-1
1.119178489E0,-6.845654845E-1,-1.333345771E0,5.596246123E-1
1.121569114E0,-7.676430941E-1,-1.333345771E0,5.596246123E-1
1.123960521E0,-8.385034204E-1,-1.332124114E0,5.645115376E-1
1.126352760E0,-8.983681798E-1,-1.330902338E0,5.718418956E-1
1.128744114E0,-9.423503876E-1,-1.330902338E0,5.803940296E-1
1.131134739E0,-9.667850137E-1,-1.332124114E0,5.828374624E-1
1.133526146E0,-9.704501629E-1,-1.327237129E0,5.791723132E-1
1.135918385E0,-9.545677304E-1,-1.312576413E0,5.755071044E-1
1.138309739E0,-9.203592539E-1,-1.302802563E0,5.693984628E-1
1.140700364E0,-8.702684045E-1,-1.304024339E0,5.645115376E-1
1.143091771E0,-8.067384362E-1,-1.304024339E0,5.620681047E-1
1.145484010E0,-7.248826027E-1,-1.301580906E0,5.620681047E-1
1.147875364E0,-6.393615007E-1,-1.312576413E0,5.620681047E-1
1.150265989E0,-5.489535332E-1,-1.340676188E0,5.645115376E-1
1.152657396E0,-4.561021626E-1,-1.374884605E0,5.657332540E-1
1.155049635E0,-3.620289862E-1,-1.413980007E0,5.657332540E-1
1.157440989E0,-2.716210186E-1,-1.456740499E0,5.693984628E-1
1.159831614E0,-1.812130213E-1,-1.484840274E0,5.767288208E-1
1.162223021E0,-8.958331496E-2,-1.490948915E0,5.877243876E-1
1.164615208E0,-7.727438118E-3,-1.508053184E0,6.011634469E-1
1.167006562E0,5.824595317E-2,-1.544705033E0,6.121590137E-1
1.169397187E0,1.120020449E-1,-1.591130733E0,6.084938049E-1
1.171788594E0,1.510973871E-1,-1.635113001E0,5.974982381E-1
1.174180833E0,1.767537147E-1,-1.677873492E0,5.901678801E-1
1.176572187E0,1.914144605E-1,-1.715747118E0,5.828374624E-1
1.178962812E0,2.024100274E-1,-1.742625237E0,5.779505372E-1
1.181354219E0,2.085186690E-1,-1.767059803E0,5.767288208E-1
1.183746458E0,2.182925195E-1,-1.786607385E0,5.791723132E-1
1.186137812E0,2.292880714E-1,-1.804933429E0,5.816157460E-1
1.188528437E0,2.463922948E-1,-1.814707279E0,5.816157460E-1
1.190919844E0,2.598313093E-1,-1.823259354E0,5.791723132E-1
1.193312083E0,2.720485926E-1,-1.826924562E0,5.730636120E-1
1.195703437E0,2.854876220E-1,-1.824481010E0,5.632898211E-1
1.198094062E0,3.160308599E-1,-1.791494370E0,5.486290455E-1
1.200485469E0,3.441306353E-1,-1.759729385E0,5.339683294E-1
1.202877656E0,3.600131273E-1,-1.745068669E0,5.193075538E-1
1.205269010E0,3.746738732E-1,-1.730407834E0,5.058684945E-1
1.207659635E0,3.893346190E-1,-1.721855760E0,4.936512113E-1
1.210051042E0,4.052171111E-1,-1.707195044E0,4.826556444E-1
1.212443281E0,4.223213196E-1,-1.687647343E0,4.777687192E-1
1.214834635E0,4.430907071E-1,-1.658325911E0,4.741035700E-1
1.217225260E0,4.699687660E-1,-1.620452285E0,4.716600776E-1
1.219616667E0,5.005120039E-1,-1.576470017E0,4.704383612E-1
1.222008906E0,5.334987640E-1,-1.527600765E0,4.741035700E-1
1.224400260E0,5.677071810E-1,-1.481175065E0,4.765470028E-1
1.226790885E0,6.043590307E-1,-1.424975514E0,4.777687192E-1
1.229182292E0,6.422326565E-1,-1.367554188E0,4.826556444E-1
1.231574531E0,6.849932075E-1,-1.304024339E0,4.863208532E-1
1.233965885E0,7.204233408E-1,-1.246603012E0,4.863208532E-1
1.236356510E0,7.558535337E-1,-1.187960029E0,4.850991368E-1
1.238747917E0,7.900619507E-1,-1.131760478E0,4.838774204E-1
1.241140156E0,8.254920840E-1,-1.078004360E0,4.802122116E-1
1.243531458E0,8.548135757E-1,-1.036465526E0,4.777687192E-1
1.245922135E0,8.841351271E-1,-9.937050343E-1,4.765470028E-1
1.248313542E0,9.122349024E-1,-9.521662593E-1,4.741035700E-1
1.250705729E0,9.366694689E-1,-9.106274843E-1,4.753252864E-1
1.253097083E0,9.586606026E-1,-8.800842762E-1,4.789904952E-1
1.255487708E0,9.794300199E-1,-8.470975757E-1,4.826556444E-1
1.257879114E0,1.005086303E0,-8.104456663E-1,4.826556444E-1
1.260271354E0,1.024634004E0,-7.811241746E-1,4.863208532E-1
1.262662708E0,1.042959929E0,-7.530243993E-1,4.887642860E-1
1.265053333E0,1.062507629E0,-7.285898328E-1,4.912077785E-1
1.267444739E0,1.078390121E0,-7.090421319E-1,4.960947037E-1
1.269836979E0,1.095494270E0,-6.931596398E-1,5.022033453E-1
1.272228333E0,1.108933330E0,-6.894944906E-1,5.070902705E-1
1.274618958E0,1.122372389E0,-6.833857894E-1,5.168640614E-1
1.277010364E0,1.135811329E0,-6.760554314E-1,5.254161954E-1
1.279402604E0,1.145585179E0,-6.650598645E-1,5.376334786E-1
1.281793906E0,1.156580806E0,-6.589512229E-1,5.486290455E-1
1.284184583E0,1.167576313E0,-6.552860141E-1,5.571811795E-1
1.286575937E0,1.176128387E0,-6.577295065E-1,5.681767464E-1
1.288968177E0,1.179793596E0,-6.577295065E-1,5.816157460E-1
1.291359531E0,1.188345790E0,-6.565077901E-1,5.926113129E-1
1.293750156E0,1.194454432E0,-6.491773725E-1,6.023851633E-1
1.296141562E0,1.199341297E0,-6.394035816E-1,6.133807302E-1
1.298533802E0,1.201784730E0,-6.345166564E-1,6.268197298E-1
1.300925156E0,1.203006506E0,-6.235210896E-1,6.378152966E-1
1.303315781E0,1.203006506E0,-6.137472391E-1,6.463674307E-1
1.305707187E0,1.194454432E0,-6.015299559E-1,6.573629975E-1
1.308099427E0,1.181015372E0,-5.990864635E-1,6.683585644E-1
1.310490781E0,1.160246015E0,-6.051951051E-1,6.769106388E-1
1.312881406E0,1.132146239E0,-6.174124479E-1,6.891279221E-1
1.315272812E0,1.099159479E0,-6.296297312E-1,6.964583397E-1
1.317665000E0,1.060064197E0,-6.442904472E-1,6.915714145E-1
1.320056354E0,1.013638377E0,-6.687250733E-1,6.830192804E-1
1.322447031E0,9.635475278E-1,-6.882727146E-1,6.732454300E-1
1.324838385E0,9.097914100E-1,-7.041552067E-1,6.622498631E-1
1.327230625E0,8.535918593E-1,-7.102638483E-1,6.475891471E-1
1.329621979E0,7.949488759E-1,-7.053769231E-1,6.317066550E-1
1.332012604E0,7.314189076E-1,-6.894944906E-1,6.109372377E-1
1.334404010E0,6.630020738E-1,-6.723902822E-1,5.913895965E-1
1.336796250E0,5.909200311E-1,-6.479556561E-1,5.681767464E-1
1.339187604E0,5.163945556E-1,-6.247428060E-1,5.412986875E-1
1.341578229E0,4.406472445E-1,-6.076385975E-1,5.168640614E-1
1.343969635E0,3.649000227E-1,-5.941995978E-1,4.899860620E-1
1.346361875E0,2.977049053E-1,-5.819822550E-1,4.606645405E-1
1.348753229E0,2.317315340E-1,-5.746518970E-1,4.301213026E-1
1.351143854E0,1.682016104E-1,-5.770953298E-1,4.007997811E-1
1.353535260E0,1.120020449E-1,-5.844257474E-1,3.702565432E-1
1.355927500E0,6.191113964E-2,-5.917561054E-1,3.372698724E-1
1.358318802E0,1.548542082E-2,-6.088603139E-1,3.067266345E-1
1.360709427E0,-2.238819189E-2,-6.235210896E-1,2.786268592E-1
1.363100833E0,-5.781834573E-2,-6.552860141E-1,2.456401587E-1
1.365493073E0,-9.813541919E-2,-6.919379234E-1,2.150969207E-1
1.367884427E0,-1.347872913E-1,-7.346984744E-1,1.869971454E-1
1.370275052E0,-1.677739918E-1,-7.713503242E-1,1.625625491E-1
1.372666458E0,-1.958737671E-1,-8.092239499E-1,1.369062364E-1
1.375058698E0,-2.251952738E-1,-8.348802924E-1,1.149151027E-1
1.377450052E0,-2.410777658E-1,-8.373237252E-1,9.048052132E-2
1.379840677E0,-2.606254518E-1,-8.458758593E-1,6.482420117E-2
1.382232083E0,-2.838383019E-1,-8.556496501E-1,3.916788101E-2
1.384624323E0,-3.021642566E-1,-8.629800677E-1,1.473329216E-2
1.387015677E0,-3.204901814E-1,-8.666452169E-1,-1.336648315E-2
1.389406302E0,-3.412595987E-1,-8.617582917E-1,-3.535761312E-2
1.391797708E0,-3.571420610E-1,-8.532062173E-1,-6.101393327E-2
1.394189896E0,-3.705810905E-1,-8.373237252E-1,-8.178333938E-2
1.396581250E0,-3.644724488E-1,-7.982283831E-1,-1.037744731E-1
1.398971875E0,-3.608072698E-1,-7.701286077E-1,-1.294307858E-1
1.401363281E0,-3.608072698E-1,-7.603547573E-1,-1.477567255E-1
1.403755521E0,-3.571420610E-1,-7.456940413E-1,-1.636392176E-1
1.406146875E0,-3.461464942E-1,-7.249246240E-1,-1.795216948E-1
1.408537500E0,-3.375943899E-1,-7.078204155E-1,-1.966259032E-1
1.410928906E0,-3.302640319E-1,-7.078204155E-1,-2.137301266E-1
1.413321146E0,-3.241553903E-1,-6.992682815E-1,-2.308343351E-1
1.415712500E0,-3.131598234E-1,-6.931596398E-1,-2.479385436E-1
1.418103125E0,-3.070511520E-1,-6.894944906E-1,-2.638210058E-1
1.420494531E0,-3.021642566E-1,-6.894944906E-1,-2.833687067E-1
1.422886771E0,-2.960555851E-1,-6.956031322E-1,-3.029163778E-1
1.425278073E0,-2.911686897E-1,-7.065986991E-1,-3.236857653E-1
1.427668750E0,-2.887252271E-1,-7.237029076E-1,-3.456768990E-1
1.430060104E0,-2.862817645E-1,-7.444722652E-1,-3.713332117E-1
1.432452344E0,-2.850600481E-1,-7.737938166E-1,-4.018764496E-1
1.434843698E0,-2.850600481E-1,-8.031153083E-1,-4.360848665E-1
1.437234323E0,-2.862817645E-1,-8.299933672E-1,-4.727367759E-1
1.439625729E0,-2.862817645E-1,-8.556496501E-1,-5.069451928E-1
1.442017969E0,-2.875034809E-1,-8.739756346E-1,-5.460405350E-1
1.444409323E0,-2.862817645E-1,-8.751973510E-1,-5.790272355E-1
1.446799948E0,-2.801731229E-1,-8.703104258E-1,-6.107921600E-1
1.449191354E0,-2.691775560E-1,-8.544279337E-1,-6.401137114E-1
1.451583594E0,-2.496298850E-1,-8.299933672E-1,-6.596613526E-1
1.453974948E0,-2.276387364E-1,-8.055587411E-1,-6.694352031E-1
1.456365573E0,-2.007606924E-1,-7.884545326E-1,-6.669917703E-1
1.458756927E0,-1.763260961E-1,-7.811241746E-1,-6.596613526E-1
1.461149167E0,-1.555566937E-1,-7.921197414E-1,-6.535527110E-1
1.463540521E0,-1.396742165E-1,-8.128891587E-1,-6.425571442E-1
1.465931146E0,-1.299003810E-1,-8.397671580E-1,-6.388919353E-1
1.468322552E0,-1.262351871E-1,-8.617582917E-1,-6.401137114E-1
1.470714792E0,-1.299003810E-1,-8.739756346E-1,-6.462223530E-1
1.473106146E0,-1.384524852E-1,-8.825277090E-1,-6.547744274E-1
1.475496771E0,-1.580001563E-1,-8.739756346E-1,-6.633265615E-1
1.477888177E0,-1.848782003E-1,-8.556496501E-1,-6.718786359E-1
1.480280417E0,-2.178649008E-1,-8.251064420E-1,-6.792090535E-1
1.482671771E0,-2.569602430E-1,-7.835676074E-1,-6.889828444E-1
1.485062396E0,-3.009425104E-1,-7.334766984E-1,-6.999784112E-1
1.487453802E0,-3.498117030E-1,-6.760554314E-1,-7.183043957E-1
1.489845989E0,-4.011243284E-1,-6.100820303E-1,-7.378520370E-1
1.492237344E0,-4.548804164E-1,-5.343348384E-1,-7.573997378E-1
1.494627969E0,-5.098581910E-1,-4.488137662E-1,-7.757256627E-1
1.497019375E0,-5.648360252E-1,-3.510754108E-1,-7.940515876E-1
1.499411614E0,-6.185920835E-1,-2.460066676E-1,-8.148210049E-1
1.501802969E0,-6.723482013E-1,-1.336075664E-1,-8.355904222E-1
1.504193594E0,-7.248826027E-1,-1.632153988E-2,-8.600249887E-1
1.506585000E0,-7.749734521E-1,1.034079492E-1,-8.844595551E-1
1.508977239E0,-8.238426447E-1,2.280243486E-1,-9.064506888E-1
1.511368594E0,-8.727118373E-1,3.416451812E-1,-9.357722402E-1
1.513759219E0,-9.166941047E-1,4.503791034E-1,-9.650937319E-1
1.516150625E0,-9.631198049E-1,5.554478168E-1,-9.968586564E-1
1.518542864E0,-1.010767221E0,6.434123516E-1,-1.029845238E0
1.520934167E0,-1.059636474E0,7.154943943E-1,-1.062831998E0
1.523324792E0,-1.113392591E0,7.729156613E-1,-1.093375206E0
1.525716198E0,-1.163483500E0,8.193414211E-1,-1.117809772E0
1.528108437E0,-1.214796066E0,8.657671213E-1,-1.139800906E0
1.530499792E0,-1.267330408E0,9.011972547E-1,-1.149574757E0
1.532890417E0,-1.319864869E0,9.329622388E-1,-1.143466115E0
1.535281823E0,-1.367512226E0,9.671706557E-1,-1.127583623E0
1.537674062E0,-1.413937926E0,1.005044222E0,-1.100705624E0
1.540065417E0,-1.451811552E0,1.050248265E0,-1.050614715E0
1.542456042E0,-1.494572163E0,1.091787100E0,-9.797545075E-1
1.544847448E0,-1.549549937E0,1.119886875E0,-9.088941813E-1
1.547239687E0,-1.610636473E0,1.121108651E0,-8.429207802E-1
1.549630989E0,-1.644844890E0,1.132104158E0,-7.806125879E-1
1.552021614E0,-1.658283830E0,1.161425710E0,-7.305216789E-1
1.554413021E0,-1.659505606E0,1.221290469E0,-6.828742027E-1
1.556805260E0,-1.650953531E0,1.288485527E0,-6.352267861E-1
1.559196614E0,-1.637514472E0,1.354458928E0,-5.851358771E-1
1.561587239E0,-1.613079906E0,1.416767120E0,-5.338232517E-1
1.563978646E0,-1.586201787E0,1.475410223E0,-4.812888801E-1
1.566370885E0,-1.551993370E0,1.534053206E0,-4.324196875E-1
1.568762239E0,-1.516563296E0,1.576813698E0,-3.896591663E-1
1.571152864E0,-1.477467895E0,1.612243891E0,-3.578941822E-1
1.573544271E0,-1.443259478E0,1.623239398E0,-3.297944069E-1
1.575936510E0,-1.417603135E0,1.611022115E0,-3.065815568E-1
1.578327812E0,-1.407829285E0,1.565818191E0,-2.833687067E-1
1.580718437E0,-1.416381478E0,1.507175088E0,-2.625992894E-1
1.583109844E0,-1.428598762E0,1.437536597E0,-2.577123642E-1
1.585502083E0,-1.437150836E0,1.376450062E0,-2.625992894E-1
1.587893437E0,-1.435929060E0,1.331246138E0,-2.809252441E-1
1.590284062E0,-1.427376986E0,1.287263870E0,-3.065815568E-1
1.592675469E0,-1.421268344E0,1.245725036E0,-3.285726905E-1
1.595067708E0,-1.422490120E0,1.199299335E0,-3.481203616E-1
1.597459062E0,-1.431042194E0,1.144321442E0,-3.591159284E-1
1.599849687E0,-1.451811552E0,1.080791593E0,-3.603376448E-1
1.602241094E0,-1.481133103E0,1.006265998E0,-3.554507494E-1
1.604633333E0,-1.511676311E0,9.256318808E-1,-3.383465111E-1
1.607024635E0,-1.540997863E0,8.254500628E-1,-3.102467358E-1
1.609415312E0,-1.577649713E0,7.057205439E-1,-2.760383189E-1
1.611806667E0,-1.625297189E0,5.713303089E-1,-2.344995141E-1
1.614198906E0,-1.672944665E0,4.467139244E-1,-1.905172616E-1
1.616590260E0,-1.713261724E0,3.660797775E-1,-1.453132629E-1
1.618980885E0,-1.729144216E0,3.514190316E-1,-1.025527418E-1
1.621372292E0,-1.729144216E0,3.746318817E-1,-6.345738471E-2
1.623764531E0,-1.718148589E0,4.320531487E-1,-3.291415423E-2
1.626155885E0,-1.694935799E0,5.163525343E-1,-1.214475371E-2
1.628546510E0,-1.669279456E0,6.238647103E-1,4.959456623E-3
1.630937917E0,-1.630184054E0,7.631418705E-1,1.595502347E-2
1.633330156E0,-1.577649713E0,9.268535972E-1,2.206367254E-2
1.635721458E0,-1.528780580E0,1.086900234E0,2.817231789E-2
1.638112083E0,-1.493350387E0,1.235951185E0,3.428096324E-2
1.640503489E0,-1.464028835E0,1.386223912E0,4.038961232E-2
1.642895729E0,-1.438372612E0,1.541383505E0,4.283306748E-2
1.645287083E0,-1.428598762E0,1.690434575E0,5.749382824E-2
1.647677708E0,-1.450589895E0,1.838263869E0,5.871555209E-2
1.650069114E0,-1.457920194E0,2.011749268E0,2.695059031E-2
1.652461354E0,-1.449368119E0,2.177904367E0,-2.370918170E-3
1.654852708E0,-1.451811552E0,2.306185961E0,-1.336648315E-2
1.657243333E0,-1.461585402E0,2.428359032E0,-2.191858925E-2
1.659634739E0,-1.467694044E0,2.556640625E0,-2.680550888E-2
1.662026979E0,-1.468915820E0,2.697139502E0,-2.558377758E-2
1.664418281E0,-1.464028835E0,2.836416721E0,-3.413588181E-2
1.666808906E0,-1.461585402E0,2.965919971E0,-4.146626219E-2
1.669200312E0,-1.456698537E0,3.067323446E0,-4.146626219E-2
1.671592552E0,-1.448146462E0,3.152844667E0,-3.169242665E-2
1.673983906E0,-1.427376986E0,3.224926710E0,-1.458821259E-2
1.676374531E0,-1.385838151E0,3.305560827E0,-3.592647612E-3
1.678765937E0,-1.330860376E0,3.386194944E0,-1.214475371E-2
1.681158177E0,-1.269773960E0,3.455833435E0,-4.024453089E-2
1.683549531E0,-1.223348141E0,3.491263628E0,-8.422678709E-2
1.685940156E0,-1.176922441E0,3.498594046E0,-1.392046213E-1
1.688331562E0,-1.109727383E0,3.498594046E0,-2.039562762E-1
1.690723750E0,-1.022984505E0,3.482711554E0,-2.748165727E-1
1.693115104E0,-9.228027463E-1,3.425290346E0,-3.566724658E-1
1.695505729E0,-8.360599279E-1,3.320221424E0,-4.421935380E-1
1.697897135E0,-7.651996613E-1,3.190718174E0,-5.081669092E-1
1.700289375E0,-7.065566182E-1,3.036780357E0,-5.423753262E-1
1.702680729E0,-6.576874256E-1,2.853520870E0,-5.570361018E-1
1.705071354E0,-6.234790087E-1,2.653157234E0,-5.680316687E-1
1.707462760E0,-5.990444422E-1,2.429580688E0,-5.778055191E-1
1.709855000E0,-5.819402337E-1,2.216999769E0,-5.875793099E-1
1.712246354E0,-5.660577416E-1,2.032518625E0,-5.949097276E-1
1.714636979E0,-5.428448915E-1,1.881024361E0,-6.010183692E-1
1.717028385E0,-5.159668326E-1,1.756407976E0,-5.985748768E-1
1.719420573E0,-4.744280875E-1,1.651339173E0,-5.778055191E-1
1.721811927E0,-4.170068204E-1,1.562152982E0,-5.582578182E-1
1.724202552E0,-3.424813151E-1,1.477853656E0,-5.497057438E-1
1.726593958E0,-2.545168102E-1,1.399662971E0,-5.472622514E-1
1.728986198E0,-1.567784250E-1,1.322693944E0,-5.509274602E-1
1.731377552E0,-4.560105130E-2,1.248168468E0,-5.521491766E-1
1.733768177E0,6.801978499E-2,1.178529859E0,-5.509274602E-1
1.736159583E0,1.804188937E-1,1.111334801E0,-5.484839678E-1
1.738551823E0,2.928179801E-1,1.039252758E0,-5.435970426E-1
1.740943177E0,3.978867233E-1,9.549533725E-1,-5.411536098E-1
1.743333802E0,4.846295118E-1,8.596584797E-1,-5.448188186E-1
1.745725208E0,5.591550469E-1,7.509245276E-1,-5.472622514E-1
1.748117396E0,6.202415228E-1,6.421906352E-1,-5.448188186E-1
1.750508750E0,6.727759242E-1,5.322349668E-1,-5.387101769E-1
1.752899375E0,7.179799080E-1,4.344966114E-1,-5.252711177E-1
1.755290781E0,7.570752501E-1,3.453103602E-1,-5.069451928E-1
1.757683021E0,7.839533091E-1,2.683414221E-1,-4.861757755E-1
1.760074375E0,8.059444427E-1,2.011463046E-1,-4.678498507E-1
1.762465000E0,8.206051588E-1,1.400598288E-1,-4.470804334E-1
1.764856406E0,8.316007257E-1,9.119065106E-2,-4.287545085E-1
1.767248594E0,8.364876509E-1,5.209530517E-2,-4.116503000E-1
1.769639948E0,8.413745761E-1,1.788688451E-2,-3.969895244E-1
1.772030573E0,8.425962925E-1,-6.547704339E-3,-3.847722411E-1
1.774421979E0,8.413745761E-1,-2.609537542E-2,-3.737766743E-1
1.776814219E0,8.413745761E-1,-3.709094226E-2,-3.652245700E-1
1.779205573E0,8.425962925E-1,-4.075612873E-2,-3.554507494E-1
1.781596198E0,8.413745761E-1,-3.586921096E-2,-3.493420780E-1
1.783987604E0,8.401528597E-1,-1.509980857E-2,-3.383465111E-1
1.786379844E0,8.364876509E-1,1.055650413E-2,-3.285726905E-1
1.788771198E0,8.328224421E-1,4.598665982E-2,-3.187988400E-1
1.791161823E0,8.303790092E-1,8.508200943E-2,-3.053598404E-1
1.793553177E0,8.242703676E-1,1.278425306E-1,-2.882556021E-1
1.795945417E0,8.181617260E-1,1.718247980E-1,-2.711513937E-1
1.798336771E0,8.071661592E-1,2.170287818E-1,-2.503820062E-1
1.800727396E0,7.949488759E-1,2.671197057E-1,-2.271691412E-1
1.803118802E0,7.778446674E-1,3.086584806E-1,-2.039562762E-1
1.805511042E0,7.582969666E-1,3.538624644E-1,-1.795216948E-1
1.807902396E0,7.387493253E-1,3.990664780E-1,-1.502001882E-1
1.810293021E0,7.167581916E-1,4.369400740E-1,-1.221004128E-1
1.812684427E0,6.923235655E-1,4.723702371E-1,-9.033544362E-2
1.815076667E0,6.691107154E-1,5.126873255E-1,-5.857047066E-2
1.817467969E0,6.422326565E-1,5.468957424E-1,-2.191858925E-2
1.819858646E0,6.190198064E-1,5.811041594E-1,1.228983700E-2
1.822250000E0,5.921417475E-1,6.092039347E-1,5.138517916E-2
1.824642239E0,5.664854646E-1,6.385254264E-1,9.170223773E-2
1.827033594E0,5.420508385E-1,6.654034853E-1,1.332410425E-1
1.829424219E0,5.176162720E-1,6.898380518E-1,1.735581160E-1
1.831815625E0,4.944033623E-1,7.118291855E-1,2.187620997E-1
1.834207864E0,4.675253034E-1,7.264899611E-1,2.627443671E-1
1.836599219E0,4.406472445E-1,7.387072444E-1,3.067266345E-1
1.838989844E0,4.149909317E-1,7.484810948E-1,3.531523347E-1
1.841381250E0,3.893346190E-1,7.570331693E-1,3.971346021E-1
1.843773437E0,3.636783063E-1,7.631418705E-1,4.447820485E-1
1.846164792E0,3.380219936E-1,7.643635869E-1,4.936512113E-1
1.848555417E0,3.135873973E-1,7.643635869E-1,5.425204039E-1
1.850946823E0,2.879310846E-1,7.655853033E-1,5.926113129E-1
1.853339062E0,2.622747421E-1,7.619200945E-1,6.439239383E-1
1.855730417E0,2.390619069E-1,7.558114529E-1,6.952365637E-1
1.858121042E0,2.170707881E-1,7.497028112E-1,7.428840399E-1
1.860512448E0,1.987448484E-1,7.399289608E-1,7.917532325E-1
1.862904687E0,1.816406250E-1,7.264899611E-1,8.357354999E-1
1.865296042E0,1.657581478E-1,7.081640363E-1,8.760525584E-1
1.867686667E0,1.572060436E-1,6.873946190E-1,9.127044082E-1
1.870078021E0,1.498756558E-1,6.629600525E-1,9.481346011E-1
1.872470260E0,1.474322081E-1,6.434123516E-1,9.811213017E-1
1.874861614E0,1.486539394E-1,6.250864267E-1,1.015329838E0
1.877252239E0,1.559843123E-1,6.067605019E-1,1.045873046E0
1.879643646E0,1.657581478E-1,5.945431590E-1,1.076416254E0
1.882035885E0,1.840840876E-1,5.811041594E-1,1.102072597E0
1.884427239E0,2.072969526E-1,5.688868761E-1,1.127728939E0
1.886817864E0,2.329532653E-1,5.591130257E-1,1.147276640E0
1.889209271E0,2.598313093E-1,5.432305336E-1,1.164380789E0
1.891601458E0,2.915962636E-1,5.297915339E-1,1.177819848E0
1.893992812E0,3.270264268E-1,5.175742507E-1,1.191258907E0
1.896383437E0,3.624565601E-1,5.029134750E-1,1.196145773E0
1.898774844E0,3.917780817E-1,4.821440578E-1,1.197367549E0
1.901167083E0,4.137692153E-1,4.479356408E-1,1.188815355E0
1.903558437E0,4.162126780E-1,4.015099406E-1,1.171711206E0
1.905949062E0,4.027736485E-1,3.428669274E-1,1.143611431E0
1.908340469E0,3.710086644E-1,2.707848847E-1,1.110624671E0
1.910732708E0,3.270264268E-1,1.913724691E-1,1.069085956E0
1.913124062E0,2.708268762E-1,9.974275529E-2,1.022660136E0
1.915514635E0,1.999665648E-1,-6.547704339E-3,9.725692272E-1
1.917906042E0,1.217758805E-1,-1.091729850E-1,9.224782586E-1
1.920298281E0,4.969384521E-2,-2.020244300E-1,8.723873496E-1
1.922689635E0,-6.505708676E-3,-2.777716517E-1,8.149660826E-1
1.925080260E0,-5.170970038E-2,-3.510754108E-1,7.465492487E-1
1.927471667E0,-8.591812849E-2,-4.243791699E-1,6.683585644E-1
1.929863906E0,-1.115744486E-1,-5.037915707E-1,5.816157460E-1
1.932255260E0,-1.237917393E-1,-5.905343890E-1,4.802122116E-1
1.934645885E0,-1.335655600E-1,-6.858292818E-1,3.665913641E-1
1.937037292E0,-1.421176791E-1,-7.896762490E-1,2.419749498E-1
1.939429479E0,-1.518915147E-1,-8.947449923E-1,1.222454756E-1
1.941820833E0,-1.641087979E-1,-9.827095866E-1,1.106810570E-2
1.944211458E0,-1.787695587E-1,-1.035243869E0,-9.766581655E-2
1.946602864E0,-1.983172297E-1,-1.035243869E0,-2.015128285E-1
1.948995104E0,-2.264170051E-1,-9.766008258E-1,-3.016946316E-1
1.951386458E0,-2.679558098E-1,-8.666452169E-1,-3.908808827E-1
1.953777083E0,-3.253771067E-1,-7.114855647E-1,-4.666281044E-1
1.956168489E0,-3.876852989E-1,-5.208957791E-1,-5.313797593E-1
1.958560677E0,-4.451065958E-1,-3.083148897E-1,-5.949097276E-1
1.960952031E0,-4.939757586E-1,-8.107319474E-2,-6.547744274E-1
1.963342656E0,-5.404013991E-1,1.412815601E-1,-7.134174705E-1
1.965734062E0,-5.880488753E-1,3.563059270E-1,-7.683953047E-1
1.968126302E0,-6.369180679E-1,5.627782345E-1,-8.160427213E-1
1.970517656E0,-6.931176186E-1,7.448158860E-1,-8.490294218E-1
1.972908281E0,-7.493171692E-1,9.073058963E-1,-8.783509135E-1
1.975299687E0,-8.079601526E-1,1.046583056E0,-9.052289724E-1
1.977691927E0,-8.556076288E-1,1.168756127E0,-9.272201061E-1
1.980083281E0,-8.934812546E-1,1.279933453E0,-9.369939566E-1
1.982473854E0,-9.093637466E-1,1.388667345E0,-9.308853149E-1
1.984865260E0,-8.983681798E-1,1.488849163E0,-9.198897481E-1
1.987257500E0,-8.666031957E-1,1.558487773E0,-9.064506888E-1
1.989648854E0,-8.201774955E-1,1.589030981E0,-8.832378387E-1
1.992039479E0,-7.578692436E-1,1.589030981E0,-8.563597798E-1
1.994430885E0,-6.870089769E-1,1.568261623E0,-8.221513629E-1
1.996823125E0,-6.027096510E-1,1.527944565E0,-7.891646624E-1
1.999214479E0,-5.123016238E-1,1.465636373E0,-7.525128126E-1
2.001605104E0,-4.206719995E-1,1.388667345E0,-7.121957541E-1
2.003996458E0,-3.302640319E-1,1.303146362E0,-6.645482779E-1
2.006388698E0,-2.410777658E-1,1.212738395E0,-6.071270108E-1
2.008780052E0,-1.555566937E-1,1.099117517E0,-5.411536098E-1
2.011170677E0,-7.125737518E-2,9.830531478E-1,-4.715150297E-1
2.013562083E0,9.376773611E-3,8.633236289E-1,-4.104285538E-1
2.015954323E0,8.145880699E-2,7.350420356E-1,-3.640028536E-1
2.018345677E0,1.462104768E-1,6.092039347E-1,-3.285726905E-1
2.020736302E0,1.963013858E-1,4.906961918E-1,-3.029163778E-1
2.023127708E0,2.415053695E-1,3.905143738E-1,-2.662644684E-1
2.025519896E0,2.781572342E-1,3.098802269E-1,-2.186170369E-1
2.027911250E0,3.050352931E-1,2.512372136E-1,-1.636392176E-1
2.030301875E0,3.221395016E-1,2.121418715E-1,-1.062179208E-1
2.032693281E0,3.343567848E-1,1.925942004E-1,-4.268798977E-2
2.035085521E0,3.429088891E-1,1.901507378E-1,1.839848235E-2
2.037476875E0,3.465740979E-1,2.084766775E-1,6.238073856E-2
2.039867500E0,3.465740979E-1,2.451285571E-1,9.292396903E-2
2.042258906E0,3.380219936E-1,3.013281226E-1,1.149151027E-1
2.044651146E0,3.245829642E-1,3.721884191E-1,1.295758486E-1
2.047042448E0,3.074787557E-1,4.577094913E-1,1.417931467E-1
2.049433073E0,2.867093384E-1,5.444523096E-1,1.503452510E-1
2.051824479E0,2.671616673E-1,6.238647103E-1,1.650060117E-1
2.054216719E0,2.561661005E-1,6.861729026E-1,1.821102202E-1
2.056608073E0,2.549443841E-1,7.167161107E-1,2.089882642E-1
2.058998698E0,2.720485926E-1,7.313768864E-1,2.370880544E-1
2.061390104E0,3.001483679E-1,7.154943943E-1,2.712964714E-1
2.063782344E0,3.465740979E-1,6.776207685E-1,3.079483509E-1
2.066173646E0,4.052171111E-1,6.238647103E-1,3.470436931E-1
2.068564271E0,4.760774076E-1,5.591130257E-1,3.812521100E-1
2.070955677E0,5.530464053E-1,4.968048334E-1,4.117953479E-1
2.073347917E0,6.349022985E-1,4.393835366E-1,4.325647652E-1
2.075739271E0,7.155364156E-1,3.966230154E-1,4.398951232E-1
2.078129896E0,7.961705923E-1,3.734101653E-1,4.288995564E-1
2.080521302E0,8.743612766E-1,3.624145985E-1,3.959128857E-1
2.082913542E0,9.452216029E-1,3.624145985E-1,3.446002305E-1
2.085304896E0,1.009973288E0,3.624145985E-1,2.712964714E-1
2.087695521E0,1.067394495E0,3.526407480E-1,1.857754141E-1
2.090086875E0,1.121150613E0,3.257626891E-1,9.048052132E-2
2.092479114E0,1.167576313E0,2.830021679E-1,-3.592647612E-3
2.094870469E0,1.203006506E0,2.280243486E-1,-8.056160808E-2
2.097261094E0,1.229884505E0,1.999245733E-1,-1.184352189E-1
2.099652500E0,1.240880132E0,1.901507378E-1,-1.184352189E-1
2.102044739E0,1.238436699E0,1.889290065E-1,-1.025527418E-1
2.104436094E0,1.224997640E0,1.999245733E-1,-8.422678709E-2
2.106826719E0,1.203006506E0,2.280243486E-1,-7.689641416E-2
2.109218073E0,1.174906731E0,2.695631683E-1,-8.056160808E-2
2.111610312E0,1.150472164E0,3.257626891E-1,-8.911371231E-2
2.114001667E0,1.123594046E0,3.966230154E-1,-1.013310105E-1
2.116392292E0,1.096716046E0,4.748136997E-1,-1.159917563E-1
2.118783698E0,1.063729286E0,5.383436680E-1,-1.282090545E-1
2.121175937E0,1.025855660E0,5.774389505E-1,-1.294307858E-1
2.123567292E0,9.818734527E-1,6.006518006E-1,-1.184352189E-1
2.125957917E0,9.391129017E-1,6.043170094E-1,-9.644408524E-2
2.128349271E0,8.914654851E-1,5.957649350E-1,-6.712257862E-2
2.130741510E0,8.389310837E-1,5.786606669E-1,-3.413588181E-2
2.133132864E0,7.778446674E-1,5.554478168E-1,3.737729043E-3
2.135523489E0,7.143146992E-1,5.432305336E-1,4.405479878E-2
2.137914896E0,6.520065069E-1,5.322349668E-1,8.803705871E-2
2.140307135E0,5.872548223E-1,5.249046087E-1,1.393496841E-1
2.142698489E0,5.249466300E-1,5.187959671E-1,1.918840557E-1
2.145089114E0,4.663035870E-1,5.053569078E-1,2.480836213E-1
2.147480521E0,4.125474691E-1,4.723702371E-1,3.079483509E-1
2.149872708E0,3.636783063E-1,4.259445071E-1,3.665913641E-1
2.152264062E0,3.221395016E-1,3.636363149E-1,4.301213026E-1
2.154654687E0,2.879310846E-1,2.866673768E-1,4.924294949E-1
2.157046094E0,2.586095631E-1,1.913724691E-1,5.547376871E-1
2.159438333E0,2.353967279E-1,7.897335291E-2,6.207110882E-1
2.161829687E0,2.170707881E-1,-5.052996427E-2,6.927931309E-1
2.164220312E0,2.011882961E-1,-1.885854006E-1,7.612099648E-1
2.166611719E0,1.889709979E-1,-3.351929188E-1,8.345137239E-1
2.169003906E0,1.755319834E-1,-4.781352878E-1,9.065957665E-1
2.171395260E0,1.608712226E-1,-6.137472391E-1,9.737908840E-1
2.173785885E0,1.437670141E-1,-7.432505488E-1,1.036099195E0
2.176177292E0,1.278845370E-1,-8.544279337E-1,1.087411880E0
2.178569531E0,1.120020449E-1,-9.485011101E-1,1.130172372E0
2.180960885E0,9.734129161E-2,-1.025470018E0,1.161937356E0
2.183351510E0,8.634572476E-2,-1.076782584E0,1.185150266E0
2.185742917E0,8.023707569E-2,-1.101217270E0,1.199810982E0
2.188135104E0,8.390226215E-2,-1.088999987E0,1.198589206E0
2.190526458E0,1.034499332E-1,-1.035243869E0,1.183928490E0
2.192917083E0,1.291062683E-1,-9.497228265E-1,1.169267774E0
2.195308489E0,1.474322081E-1,-8.593148589E-1,1.160715580E0
2.197700729E0,1.572060436E-1,-7.627982497E-1,1.141167998E0
2.200092083E0,1.669798791E-1,-6.662815809E-1,1.099629164E0
2.202482708E0,1.853058189E-1,-5.624346137E-1,1.043429613E0
2.204874114E0,2.072969526E-1,-4.683614373E-1,9.823429585E-1
2.207266302E0,2.353967279E-1,-3.852838278E-1,9.212565422E-1
2.209657656E0,2.683834136E-1,-3.156452477E-1,8.565048575E-1
2.212048281E0,3.050352931E-1,-2.655543387E-1,7.880880237E-1
2.214439687E0,3.404654264E-1,-2.533370554E-1,7.245581150E-1
2.216831927E0,3.758955896E-1,-2.716630101E-1,6.659150720E-1
2.219223281E0,4.088822901E-1,-3.180887103E-1,6.194893718E-1
2.221613906E0,4.418689907E-1,-3.791751862E-1,5.889461040E-1
2.224005312E0,4.760774076E-1,-4.439268410E-1,5.816157460E-1
2.226397500E0,5.066207051E-1,-5.123437047E-1,5.877243876E-1
2.228788854E0,5.322770476E-1,-5.880908966E-1,6.060503125E-1
2.231179479E0,5.518246889E-1,-6.760554314E-1,6.292632222E-1
2.233570885E0,5.664854646E-1,-7.774589658E-1,6.536977887E-1
2.235963125E0,5.689288974E-1,-8.910798430E-1,6.781323552E-1
2.238354479E0,5.628202558E-1,-1.015696168E0,6.989017725E-1
2.240745104E0,5.542681813E-1,-1.135425687E0,7.111190557E-1
2.243136510E0,5.420508385E-1,-1.242937803E0,7.160059810E-1
2.245528698E0,5.298335552E-1,-1.333345771E0,7.147842646E-1
2.247920052E0,5.163945556E-1,-1.407871366E0,7.123407722E-1
2.250310677E0,4.956250787E-1,-1.462849140E0,7.074539065E-1
2.252702083E0,4.687470198E-1,-1.505609632E0,7.001234889E-1
2.255094323E0,4.382038116E-1,-1.537374616E0,6.891279221E-1
2.257485677E0,4.027736485E-1,-1.554478884E0,6.744672060E-1
2.259876302E0,3.587913811E-1,-1.563030958E0,6.573629975E-1
2.262267708E0,3.062570095E-1,-1.570361376E0,6.378152966E-1
2.264659896E0,2.390619069E-1,-1.580135226E0,6.158241630E-1
2.267051250E0,1.596495062E-1,-1.591130733E0,5.987199545E-1
2.269441875E0,7.901535183E-2,-1.599682808E0,5.828374624E-1
2.271833281E0,-2.840520348E-3,-1.611900091E0,5.693984628E-1
2.274225521E0,-8.591812849E-2,-1.621673942E0,5.559594035E-1
2.276616875E0,-1.738826334E-1,-1.643665075E0,5.400769711E-1
2.279007500E0,-2.642906308E-1,-1.674208283E0,5.278596282E-1
2.281398906E0,-3.583638072E-1,-1.701086402E0,5.229727626E-1
2.283791094E0,-4.487717748E-1,-1.730407834E0,5.193075538E-1
2.286182448E0,-5.330710411E-1,-1.757285953E0,5.180858374E-1
2.288573073E0,-6.161486506E-1,-1.780498743E0,5.180858374E-1
2.290964479E0,-6.894524097E-1,-1.800046444E0,5.168640614E-1
2.293356719E0,-7.529823780E-1,-1.819594145E0,5.156423450E-1
2.295748073E0,-8.042950034E-1,-1.834254861E0,5.193075538E-1
2.298138698E0,-8.409468532E-1,-1.845250487E0,5.217509866E-1
2.300530104E0,-8.666031957E-1,-1.863576412E0,5.278596282E-1
2.302922292E0,-8.775987625E-1,-1.881902337E0,5.278596282E-1
2.305313646E0,-8.824856877E-1,-1.914888978E0,5.241944790E-1
2.307704271E0,-8.763770461E-1,-1.950319171E0,5.217509866E-1
2.310095677E0,-8.556076288E-1,-1.986971021E0,5.144206285E-1
2.312487917E0,-8.287295699E-1,-2.024844885E0,5.095337033E-1
2.314879271E0,-7.871907949E-1,-2.059053183E0,5.058684945E-1
2.317269896E0,-7.395433187E-1,-2.092039824E0,5.009816289E-1
2.319661302E0,-6.821220517E-1,-2.111587524E0,4.924294949E-1
2.322053489E0,-6.247007847E-1,-2.149461269E0,4.826556444E-1
2.324444844E0,-5.623925328E-1,-2.187334776E0,4.765470028E-1
2.326835469E0,-4.951975048E-1,-2.206882477E0,4.728818536E-1
2.329226875E0,-4.243371785E-1,-2.226430178E0,4.765470028E-1
2.331619114E0,-3.559203446E-1,-2.230095387E0,4.838774204E-1
2.334010469E0,-2.838383019E-1,-2.230095387E0,4.997598529E-1
2.336401094E0,-2.141997069E-1,-2.220321417E0,5.266379118E-1
2.338792448E0,-1.457828581E-1,-2.205660820E0,5.584028959E-1
2.341184687E0,-8.225294203E-2,-2.195886850E0,5.877243876E-1
2.343576042E0,-2.360992134E-2,-2.187334776E0,6.109372377E-1
2.345966667E0,3.992000967E-2,-2.170230627E0,6.317066550E-1
2.348358073E0,1.022282094E-1,-2.151904583E0,6.512542963E-1
2.350750312E0,1.498756558E-1,-2.143352509E0,6.695802808E-1
2.353141667E0,1.816406250E-1,-2.134800434E0,6.842409968E-1
2.355532292E0,2.036317587E-1,-2.131135225E0,6.964583397E-1
2.357923646E0,2.195142359E-1,-2.121361494E0,7.086756229E-1
2.360315885E0,2.317315340E-1,-2.103035450E0,7.160059810E-1
2.362707239E0,2.402836382E-1,-2.088374853E0,7.196711898E-1
2.365097864E0,2.451705635E-1,-2.077379227E0,7.208929062E-1
2.367489271E0,2.500574887E-1,-2.066383600E0,7.135625482E-1
2.369881510E0,2.549443841E-1,-2.052944660E0,7.050104141E-1
2.372272864E0,2.659399509E-1,-2.039505482E0,6.976800561E-1
2.374663437E0,2.793789804E-1,-2.021179676E0,6.866844893E-1
2.377054844E0,2.928179801E-1,-2.000410318E0,6.769106388E-1
2.379447083E0,3.099222183E-1,-1.977197289E0,6.671367884E-1
2.381838437E0,3.319133222E-1,-1.940545321E0,6.646933556E-1
2.384229062E0,3.612348437E-1,-1.895341396E0,6.622498631E-1
2.386620469E0,3.893346190E-1,-1.855024338E0,6.561412215E-1
2.389012708E0,4.174343944E-1,-1.817150712E0,6.463674307E-1
2.391404010E0,4.406472445E-1,-1.780498743E0,6.402587891E-1
2.393794635E0,4.675253034E-1,-1.741403461E0,6.304849386E-1
2.396186042E0,4.882946908E-1,-1.704751611E0,6.219328046E-1
2.398578281E0,5.102859139E-1,-1.670543194E0,6.097155213E-1
2.400969635E0,5.408291221E-1,-1.624117374E0,6.023851633E-1
2.403360260E0,5.713723898E-1,-1.570361376E0,5.974982381E-1
2.405751667E0,6.006938815E-1,-1.531265974E0,5.950547457E-1
2.408143906E0,6.275719404E-1,-1.492170691E0,5.962765217E-1
2.410535208E0,6.617803574E-1,-1.449410081E0,6.023851633E-1
2.412925833E0,6.947670579E-1,-1.396875739E0,6.097155213E-1
2.415317239E0,7.363058329E-1,-1.340676188E0,6.194893718E-1
2.417709479E0,7.754011750E-1,-1.278367996E0,6.280414462E-1
2.420100833E0,8.169400096E-1,-1.225833654E0,6.378152966E-1
2.422491458E0,8.584787846E-1,-1.175742745E0,6.451456547E-1
2.424882864E0,8.963524103E-1,-1.125651836E0,6.500325799E-1
2.427275052E0,9.366694689E-1,-1.078004360E0,6.549195051E-1
2.429666406E0,9.733213782E-1,-1.032800436E0,6.585847139E-1
2.432057031E0,1.006308079E0,-9.949268103E-1,6.561412215E-1
2.434448437E0,1.038073063E0,-9.619401097E-1,6.524760723E-1
2.436840677E0,1.067394495E0,-9.240665436E-1,6.512542963E-1
2.439232031E0,1.095494270E0,-8.861929178E-1,6.524760723E-1
2.441622656E0,1.124815822E0,-8.470975757E-1,6.500325799E-1
2.444014010E0,1.151693821E0,-8.055587411E-1,6.488108635E-1
2.446406250E0,1.179793596E0,-7.652416825E-1,6.463674307E-1
2.448797604E0,1.204228163E0,-7.298115492E-1,6.439239383E-1
2.451188229E0,1.226219296E0,-7.004900575E-1,6.378152966E-1
2.453579635E0,1.243323565E0,-6.784989238E-1,6.292632222E-1
2.455971875E0,1.255540848E0,-6.638381481E-1,6.182676554E-1
2.458363229E0,1.262871265E0,-6.601729393E-1,6.084938049E-1
2.460753854E0,1.270201564E0,-6.540642977E-1,6.011634469E-1
2.463145208E0,1.272645116E0,-6.516208649E-1,5.926113129E-1
2.465537448E0,1.272645116E0,-6.467339396E-1,5.852809548E-1
2.467928802E0,1.271423340E0,-6.418470144E-1,5.803940296E-1
2.470319427E0,1.270201564E0,-6.357383728E-1,5.742853880E-1
2.472710833E0,1.267758131E0,-6.308514476E-1,5.657332540E-1
2.475103073E0,1.262871265E0,-6.332948804E-1,5.559594035E-1
2.477494375E0,1.254319072E0,-6.369600892E-1,5.461856127E-1
2.479885000E0,1.242101789E0,-6.418470144E-1,5.339683294E-1
2.482276406E0,1.221332431E0,-6.467339396E-1,5.168640614E-1
2.484668646E0,1.200563073E0,-6.565077901E-1,5.022033453E-1
2.487060000E0,1.176128387E0,-6.687250733E-1,4.814339280E-1
2.489450625E0,1.146806955E0,-6.797206402E-1,4.606645405E-1
2.491842031E0,1.112598538E0,-6.931596398E-1,4.362299442E-1
2.494234219E0,1.073503137E0,-7.065986991E-1,4.044649899E-1
2.496625573E0,1.031964421E0,-7.163724899E-1,3.702565432E-1
2.499016198E0,9.904255867E-1,-7.200376987E-1,3.336046636E-1
2.501407604E0,9.415563941E-1,-7.237029076E-1,2.969527841E-1
2.503799844E0,8.890219927E-1,-7.298115492E-1,2.639660835E-1
2.506191198E0,8.340442181E-1,-7.395853996E-1,2.370880544E-1
2.508581823E0,7.802881002E-1,-7.420288324E-1,2.102099955E-1
2.510973177E0,7.277537584E-1,-7.420288324E-1,1.821102202E-1
2.513365417E0,6.752193570E-1,-7.322549820E-1,1.527887136E-1
2.515756771E0,6.263501644E-1,-7.237029076E-1,1.271324009E-1
2.518147396E0,5.787027478E-1,-7.163724899E-1,9.658916295E-2
2.520538802E0,5.298335552E-1,-7.090421319E-1,6.848938763E-2
2.522931042E0,4.809643328E-1,-7.065986991E-1,4.649826139E-2
2.525322396E0,4.296516776E-1,-7.151507735E-1,2.328540012E-2
2.527713021E0,3.783390522E-1,-7.298115492E-1,1.294270158E-3
2.530104375E0,3.270264268E-1,-7.493591905E-1,-1.458821259E-2
2.532496614E0,2.744920552E-1,-7.860110998E-1,-2.802723646E-2
2.534887969E0,2.268446237E-1,-8.299933672E-1,-3.902279958E-2
2.537278594E0,1.816406250E-1,-8.727538586E-1,-5.124009773E-2
2.539670000E0,1.401018351E-1,-9.179578424E-1,-6.223566458E-2
2.542062239E0,9.734129161E-2,-9.570532441E-1,-7.933987677E-2
2.544453542E0,6.068940833E-2,-9.912616611E-1,-1.001092792E-1
2.546844167E0,3.014617413E-2,-1.013252735E0,-1.245438606E-1
2.549235573E0,4.489855841E-3,-1.026691675E0,-1.453132629E-1
2.551627812E0,-1.750127412E-2,-1.032800436E0,-1.709695905E-1
2.554019167E0,-2.727510966E-2,-1.008365750E0,-1.954041719E-1
2.556409792E0,-2.483165078E-2,-9.717139602E-1,-2.198387682E-1
2.558801198E0,-3.216202557E-2,-9.497228265E-1,-2.406081706E-1
2.561193385E0,-4.193586484E-2,-9.228447676E-1,-2.601558268E-1
2.563584739E0,-5.048796907E-2,-8.923015594E-1,-2.772600353E-1
2.565975364E0,-5.415315554E-2,-8.434323668E-1,-2.906990647E-1
2.568366771E0,-6.270526350E-2,-8.116673827E-1,-3.004729152E-1
2.570759010E0,-7.247910649E-2,-7.823458910E-1,-3.078032732E-1
2.573150364E0,-8.591812849E-2,-7.469157577E-1,-3.090250194E-1
2.575540989E0,-1.030223370E-1,-7.151507735E-1,-3.078032732E-1
2.577932344E0,-1.250134706E-1,-6.907162070E-1,-3.053598404E-1
2.580324583E0,-1.543349624E-1,-6.699467897E-1,-3.041380942E-1
2.582715937E0,-1.885433942E-1,-6.540642977E-1,-3.029163778E-1
2.585106562E0,-2.349691093E-1,-6.662815809E-1,-3.065815568E-1
2.587497969E0,-2.826165855E-1,-6.687250733E-1,-3.090250194E-1
2.589890208E0,-3.265988231E-1,-6.430687308E-1,-3.102467358E-1
2.592281510E0,-3.669159114E-1,-6.088603139E-1,-3.102467358E-1
2.594672135E0,-4.072329700E-1,-5.746518970E-1,-3.102467358E-1
2.597063542E0,-4.463283122E-1,-5.453304052E-1,-3.114684820E-1
2.599455781E0,-4.878671169E-1,-5.135654211E-1,-3.200205863E-1
2.601847135E0,-5.208537579E-1,-4.793570042E-1,-3.273509443E-1
2.604237760E0,-5.477318168E-1,-4.365964830E-1,-3.310161531E-1
2.606629167E0,-5.685012341E-1,-3.999445736E-1,-3.383465111E-1
2.609021354E0,-5.880488753E-1,-3.694013357E-1,-3.481203616E-1
2.611412708E0,-5.978227258E-1,-3.364146650E-1,-3.517855406E-1
2.613803333E0,-6.014878750E-1,-3.046496809E-1,-3.530072868E-1
2.616194739E0,-6.014878750E-1,-2.826585472E-1,-3.566724658E-1
2.618586979E0,-6.039313674E-1,-2.753281891E-1,-3.603376448E-1
2.620978333E0,-6.075965166E-1,-2.777716517E-1,-3.591159284E-1
2.623368958E0,-6.149269342E-1,-2.863237560E-1,-3.627811074E-1
2.625760312E0,-6.247007847E-1,-2.948758602E-1,-3.652245700E-1
2.628152552E0,-6.381397843E-1,-2.948758602E-1,-3.676680326E-1
2.630543906E0,-6.528005600E-1,-2.912106514E-1,-3.737766743E-1
2.632934531E0,-6.711264849E-1,-2.814368308E-1,-3.786635995E-1
2.635325937E0,-6.906741261E-1,-2.643326223E-1,-3.884374201E-1
2.637718177E0,-7.138870358E-1,-2.472284138E-1,-3.994329870E-1
2.640109479E0,-7.432085276E-1,-2.276807427E-1,-4.128720164E-1
2.642500104E0,-7.737517357E-1,-2.044678628E-1,-4.348631501E-1
2.644891510E0,-8.116253614E-1,-1.751463711E-1,-4.629629254E-1
2.647283750E0,-8.543859124E-1,-1.384944916E-1,-4.947278500E-1
2.649675104E0,-9.032550454E-1,-9.206876159E-2,-5.313797593E-1
2.652065729E0,-9.570111632E-1,-4.319959134E-2,-5.692533851E-1
2.654457135E0,-1.014432430E0,1.177823544E-2,-6.156790853E-1
2.656849323E0,-1.077962399E0,6.797778606E-2,-6.706569195E-1
2.659240677E0,-1.139048815E0,1.327294558E-1,-7.207478285E-1
2.661631302E0,-1.203800559E0,2.035897523E-1,-7.696170211E-1
2.664022708E0,-1.264886975E0,2.744500637E-1,-8.184862137E-1
2.666414948E0,-1.321086526E0,3.538624644E-1,-8.612467051E-1
2.668806302E0,-1.373620868E0,4.308314323E-1,-9.027855396E-1
2.671196875E0,-1.416381478E0,5.053569078E-1,-9.455460310E-1
2.673588281E0,-1.454255104E0,5.725520253E-1,-9.956368804E-1
2.675980521E0,-1.484798312E0,6.336385012E-1,-1.056723356E0
2.678371875E0,-1.510454655E0,6.910598278E-1,-1.125140190E0
2.680762500E0,-1.530002236E0,7.448158860E-1,-1.198443890E0
2.683153906E0,-1.543441296E0,7.949067950E-1,-1.272969484E0
2.685546094E0,-1.553215146E0,8.449977040E-1,-1.341386318E0
2.687937448E0,-1.559323788E0,8.926451802E-1,-1.404916167E0
2.690328073E0,-1.559323788E0,9.329622388E-1,-1.463559270E0
2.692719479E0,-1.555658579E0,9.696140885E-1,-1.516093612E0
2.695111719E0,-1.550771713E0,1.001379013E0,-1.557632327E0
2.697503073E0,-1.540997863E0,1.033144116E0,-1.584510446E0
2.699893698E0,-1.528780580E0,1.067352533E0,-1.595505953E0
2.702285104E0,-1.509232879E0,1.100339174E0,-1.586953878E0
2.704677292E0,-1.488463521E0,1.134547710E0,-1.561297536E0
2.707068646E0,-1.449368119E0,1.193190694E0,-1.512428403E0
2.709459271E0,-1.399277210E0,1.267716169E0,-1.431794286E0
2.711850677E0,-1.345521092E0,1.330024362E0,-1.323060393E0
2.714242917E0,-1.289321542E0,1.386223912E0,-1.186226606E0
2.716634219E0,-1.235565424E0,1.441201687E0,-1.034732223E0
2.719024844E0,-1.186696291E0,1.494957805E0,-8.856813312E-1
2.721416250E0,-1.153709650E0,1.534053206E0,-7.512910962E-1
2.723808489E0,-1.132940173E0,1.547492146E0,-6.303398609E-1
2.726199844E0,-1.121944666E0,1.534053206E0,-5.289363265E-1
2.728590469E0,-1.118279457E0,1.497401357E0,-4.507456422E-1
2.730981875E0,-1.121944666E0,1.449753881E0,-3.908808827E-1
2.733374062E0,-1.124388099E0,1.403328180E0,-3.481203616E-1
2.735765417E0,-1.128053308E0,1.364232779E0,-3.249075115E-1
2.738156042E0,-1.130496740E0,1.338576436E0,-3.249075115E-1
2.740547448E0,-1.135383725E0,1.317807078E0,-3.481203616E-1
2.742939687E0,-1.143935800E0,1.287263870E0,-3.896591663E-1
2.745331042E0,-1.158596516E0,1.237172961E0,-4.299762249E-1
2.747721614E0,-1.179365873E0,1.154095292E0,-4.617412090E-1
2.750113021E0,-1.219683051E0,1.031922340E0,-4.751802087E-1
2.752505260E0,-1.288099885E0,8.645454049E-1,-4.629629254E-1
2.754896614E0,-1.368734002E0,6.910598278E-1,-4.311979711E-1
2.757287239E0,-1.450589895E0,5.273481011E-1,-3.896591663E-1
2.759678646E0,-1.525115371E0,3.819622695E-1,-3.383465111E-1
2.762070833E0,-1.589866996E0,2.732283473E-1,-2.797034979E-1
2.764462187E0,-1.641179681E0,1.962593794E-1,-2.137301266E-1
2.766852812E0,-1.697379231E0,1.351729184E-1,-1.465349942E-1
2.769244219E0,-1.752357006E0,1.095165908E-1,-8.300507069E-2
2.771636458E0,-1.782900214E0,1.412815601E-1,-3.047069535E-2
2.774027812E0,-1.787787199E0,2.084766775E-1,4.959456623E-3
2.776418385E0,-1.770682931E0,3.111019433E-1,1.839848235E-2
2.778809792E0,-1.734031081E0,4.332748950E-1,1.839848235E-2
2.781202031E0,-1.682718396E0,5.774389505E-1,1.106810570E-2
2.783593385E0,-1.619188547E0,7.448158860E-1,6.181187928E-3
2.785984010E0,-1.547106504E0,9.292970300E-1,3.737729043E-3
2.788375417E0,-1.483576536E0,1.115000010E0,3.737729043E-3
2.790767604E0,-1.440816045E0,1.294594169E0,1.473329216E-2
2.793158958E0,-1.406607628E0,1.458305955E0,2.084194124E-2
2.795549583E0,-1.401720643E0,1.597583055E0,2.084194124E-2
2.797940989E0,-1.422490120E0,1.735638499E0,2.084194124E-2
2.800333229E0,-1.451811552E0,1.901793718E0,1.839848235E-2
2.802724583E0,-1.495793819E0,2.083831310E0,7.402919233E-3
2.805115156E0,-1.556880355E0,2.252429962E0,-3.047069535E-2
2.807506562E0,-1.602084279E0,2.418585062E0,-7.567468286E-2
2.809898802E0,-1.622853756E0,2.592070818E0,-1.098831147E-1
2.812290156E0,-1.622853756E0,2.775330067E0,-1.318742484E-1
2.814680781E0,-1.610636473E0,2.952481031E0,-1.404263526E-1
2.817072187E0,-1.589866996E0,3.114970922E0,-1.465349942E-1
2.819464375E0,-1.559323788E0,3.267687082E0,-1.514219195E-1
2.821855729E0,-1.528780580E0,3.387416601E0,-1.489784569E-1
2.824246354E0,-1.495793819E0,3.487598419E0,-1.416480839E-1
2.826637760E0,-1.456698537E0,3.580449820E0,-1.379828900E-1
2.829030000E0,-1.413937926E0,3.663527489E0,-1.318742484E-1
2.831421354E0,-1.352851510E0,3.761265755E0,-1.318742484E-1
2.833811979E0,-1.241674185E0,3.861447573E0,-1.563088298E-1
2.836203333E0,-1.137827158E0,3.889547348E0,-1.905172616E-1
2.838595573E0,-1.051084280E0,3.869999647E0,-2.589341104E-1
2.840986927E0,-9.838892221E-1,3.786922216E0,-3.554507494E-1
2.843377552E0,-9.215810299E-1,3.659862280E0,-4.324196875E-1
2.845768958E0,-8.446120620E-1,3.520585060E0,-4.825105965E-1
2.848161198E0,-7.664213777E-1,3.366647243E0,-5.338232517E-1
2.850552500E0,-7.041131854E-1,3.169948816E0,-5.949097276E-1
2.852943125E0,-6.686829925E-1,2.937820196E0,-6.572179198E-1
2.855334531E0,-6.418049932E-1,2.695917845E0,-7.097522616E-1
2.857726771E0,-6.137052178E-1,2.471119642E0,-7.402955294E-1
2.860118125E0,-5.807185173E-1,2.271977663E0,-7.512910962E-1
2.862508750E0,-5.477318168E-1,2.093605042E0,-7.537345290E-1
2.864900104E0,-5.135233998E-1,1.933558702E0,-7.439606786E-1
2.867292344E0,-4.817584753E-1,1.783285975E0,-7.317433953E-1
2.869683698E0,-4.365544915E-1,1.644008875E0,-7.146391869E-1
2.872074323E0,-3.754680157E-1,1.520614147E0,-6.950915456E-1
2.874465729E0,-2.997207940E-1,1.410658479E0,-6.816524863E-1
2.876857917E0,-2.141997069E-1,1.301924586E0,-6.755438447E-1
2.879249271E0,-1.201265529E-1,1.205407977E0,-6.743221283E-1
2.881639896E0,-1.994473301E-2,1.113778234E0,-6.743221283E-1
2.884031302E0,8.268053830E-2,1.024591923E0,-6.743221283E-1
2.886423542E0,1.840840876E-1,9.329622388E-1,-6.755438447E-1
2.888814896E0,2.830441594E-1,8.425542712E-1,-6.816524863E-1
2.891205521E0,3.807825148E-1,7.509245276E-1,-6.828742027E-1
2.893596875E0,4.736339450E-1,6.605165601E-1,-6.804307699E-1
2.895989114E0,5.567116141E-1,5.676651597E-1,-6.792090535E-1
2.898380469E0,6.312370896E-1,4.723702371E-1,-6.755438447E-1
2.900771094E0,6.923235655E-1,3.782970607E-1,-6.718786359E-1
2.903162500E0,7.436361909E-1,2.903325558E-1,-6.645482779E-1
2.905554739E0,7.802881002E-1,2.023680210E-1,-6.559962034E-1
2.907946042E0,8.022792339E-1,1.241773516E-1,-6.425571442E-1
2.910336667E0,8.144965172E-1,5.209530517E-2,-6.278964281E-1
2.912728073E0,8.169400096E-1,-1.387808472E-2,-6.095704436E-1
2.915120312E0,8.096095920E-1,-7.252109051E-2,-5.888010859E-1
2.917511667E0,7.986140251E-1,-1.238337308E-1,-5.692533851E-1
2.919902292E0,7.827315331E-1,-1.678159982E-1,-5.533708930E-1
2.922293646E0,7.668491006E-1,-2.020244300E-1,-5.338232517E-1
2.924685885E0,7.485231161E-1,-2.203503549E-1,-5.167189837E-1
2.927077239E0,7.338624001E-1,-2.337893844E-1,-5.032799840E-1
2.929467864E0,7.155364156E-1,-2.374545634E-1,-4.886192381E-1
2.931859271E0,7.020974159E-1,-2.301242054E-1,-4.764019549E-1
2.934251458E0,6.898801327E-1,-2.166851759E-1,-4.678498507E-1
2.936642812E0,6.813279986E-1,-1.922505796E-1,-4.544108212E-1
2.939033437E0,6.739976406E-1,-1.568204314E-1,-4.421935380E-1
2.941424844E0,6.703324318E-1,-1.189468205E-1,-4.336414337E-1
2.943817083E0,6.654455066E-1,-7.374282181E-2,-4.189806581E-1
2.946208437E0,6.630020738E-1,-2.487364411E-2,-4.067633748E-1
2.948599010E0,6.630020738E-1,2.521725930E-2,-3.957678080E-1
2.950990417E0,6.568934321E-1,7.042124867E-2,-3.835505247E-1
2.953382656E0,6.532282233E-1,1.192904264E-1,-3.640028536E-1
2.955774010E0,6.507847905E-1,1.669378728E-1,-3.432334363E-1
2.958164635E0,6.434544325E-1,2.109201401E-1,-3.163554072E-1
2.960556042E0,6.349022985E-1,2.536806464E-1,-2.870338857E-1
2.962948229E0,6.275719404E-1,2.891108394E-1,-2.540471852E-1
2.965339583E0,6.141328812E-1,3.257626891E-1,-2.186170369E-1
2.967730208E0,6.006938815E-1,3.587493896E-1,-1.819651574E-1
2.970121614E0,5.835896730E-1,3.868491650E-1,-1.404263526E-1
2.972513854E0,5.615985394E-1,4.125055075E-1,-1.001092792E-1
2.974905208E0,5.371639132E-1,4.283879697E-1,-5.857047066E-2
2.977295781E0,5.090641379E-1,4.454921782E-1,-1.703167148E-2
2.979687187E0,4.785208702E-1,4.577094913E-1,2.450712770E-2
2.982079427E0,4.455341697E-1,4.674833119E-1,6.726766378E-2
2.984470781E0,4.113257527E-1,4.821440578E-1,1.088064611E-1
2.986861406E0,3.697869480E-1,4.894744456E-1,1.491235197E-1
2.989252812E0,3.319133222E-1,4.931396246E-1,1.955492496E-1
2.991645000E0,2.879310846E-1,4.955830872E-1,2.407532334E-1
2.994036354E0,2.488357574E-1,4.955830872E-1,2.884006798E-1
2.996426979E0,2.085186690E-1,4.943613708E-1,3.397133052E-1
2.998818385E0,1.706450582E-1,4.894744456E-1,3.910259604E-1
3.001210625E0,1.388801038E-1,4.797006249E-1,4.460037947E-1
3.003601927E0,1.107803136E-1,4.699267745E-1,4.997598529E-1
3.005992552E0,8.756745607E-2,4.613746703E-1,5.547376871E-1
3.008383958E0,6.924151629E-2,4.516008496E-1,6.097155213E-1
3.010776198E0,5.946768075E-2,4.454921782E-1,6.598064303E-1
3.013167552E0,5.458076298E-2,4.357183576E-1,7.111190557E-1
3.015558177E0,5.580249056E-2,4.357183576E-1,7.612099648E-1
3.017949531E0,6.557632238E-2,4.296097159E-1,8.076356649E-1
3.020341771E0,7.779362053E-2,4.247227907E-1,8.528397083E-1
3.022733125E0,9.611956030E-2,4.186141491E-1,8.956001997E-1
3.025123750E0,1.193324178E-1,4.076185822E-1,9.334738255E-1
3.027515156E0,1.462104768E-1,3.978447318E-1,9.713474512E-1
3.029907344E0,1.779754460E-1,3.856274486E-1,1.007999420E0
3.032298698E0,2.097404003E-1,3.734101653E-1,1.042207837E0
3.034689323E0,2.439488322E-1,3.599711359E-1,1.075194597E0
3.037080729E0,2.830441594E-1,3.453103602E-1,1.105737805E0
3.039472969E0,3.233612180E-1,3.367582560E-1,1.136281013E0
3.041864271E0,3.636783063E-1,3.245409727E-1,1.163159132E0
3.044254896E0,4.027736485E-1,3.111019433E-1,1.185150266E0
3.046646302E0,4.430907071E-1,3.025498390E-1,1.209584832E0
3.049038542E0,4.760774076E-1,2.915542722E-1,1.227910757E0
3.051429896E0,5.017337799E-1,2.768935263E-1,1.242571473E0
3.053820521E0,5.200597048E-1,2.634544969E-1,1.246236682E0
3.056211927E0,5.286118388E-1,2.451285571E-1,1.240128040E0
3.058604114E0,5.249466300E-1,2.280243486E-1,1.227910757E0
3.060995469E0,5.188379884E-1,2.023680210E-1,1.207141399E0
3.063386094E0,5.078424215E-1,1.754899770E-1,1.171711206E0
3.065777500E0,4.870729744E-1,1.559423059E-1,1.122841954E0
3.068169687E0,4.553080201E-1,1.412815601E-1,1.059312105E0
3.070561042E0,4.162126780E-1,1.131817847E-1,9.847865105E-1
3.072951667E0,3.624565601E-1,6.919951737E-2,8.956001997E-1
3.075343073E0,2.940397263E-1,1.422169432E-2,7.990835905E-1
3.077735312E0,2.207359672E-1,-4.808650911E-2,7.001234889E-1
3.080126667E0,1.401018351E-1,-1.238337308E-1,5.987199545E-1
3.082517292E0,5.335903540E-2,-2.179068923E-1,5.034250617E-1
3.084908646E0,-3.338375688E-2,-3.144235313E-1,4.105736315E-1
3.087300885E0,-1.140179038E-1,-3.962793946E-1,3.165004551E-1
3.089692239E0,-1.812130213E-1,-4.524789453E-1,2.102099955E-1
3.092082864E0,-2.337473780E-1,-4.879090786E-1,8.681532741E-2
3.094474271E0,-2.777296603E-1,-5.074567795E-1,-3.902279958E-2
3.096866458E0,-3.131598234E-1,-5.025698543E-1,-1.709695905E-1
3.099257812E0,-3.424813151E-1,-4.842439294E-1,-2.931425273E-1
3.101648437E0,-3.595855236E-1,-4.427051246E-1,-4.006547332E-1
3.104039844E0,-3.669159114E-1,-3.718447983E-1,-4.861757755E-1
3.106432083E0,-3.681376278E-1,-2.814368308E-1,-5.582578182E-1
3.108823437E0,-3.681376278E-1,-1.922505796E-1,-6.266746521E-1
3.111214010E0,-3.693593740E-1,-1.042860597E-1,-6.914263368E-1
3.113605417E0,-3.815766573E-1,-1.265635341E-2,-7.598431706E-1
3.115997656E0,-4.072329700E-1,7.775162160E-2,-8.184862137E-1
3.118389010E0,-4.536587000E-1,1.596074998E-1,-8.685771227E-1
3.120779635E0,-5.257406831E-1,2.280243486E-1,-9.125593901E-1
3.123170989E0,-6.100400090E-1,3.037715852E-1,-9.492112398E-1
3.125563229E0,-6.931176186E-1,4.039533734E-1,-9.748675823E-1
3.127954583E0,-7.651996613E-1,5.432305336E-1,-9.748675823E-1
3.130345208E0,-8.165122867E-1,7.228247523E-1,-9.540981650E-1
3.132736614E0,-8.348382115E-1,9.476230145E-1,-9.308853149E-1
3.135128802E0,-8.140687943E-1,1.188303709E0,-9.162245393E-1
3.137520156E0,-7.676430941E-1,1.409436822E0,-9.137811065E-1
3.139910781E0,-7.053349018E-1,1.570705056E0,-9.186680317E-1
3.142302187E0,-6.344745755E-1,1.664778233E0,-9.150028229E-1
3.144694427E0,-5.685012341E-1,1.685547590E0,-9.064506888E-1
3.147085729E0,-5.000843406E-1,1.653782725E0,-8.820161223E-1
3.149476354E0,-4.231154621E-1,1.590252757E0,-8.490294218E-1
3.151867760E0,-3.388161361E-1,1.504731655E0,-8.087123632E-1
3.154260000E0,-2.410777658E-1,1.404549837E0,-7.610648870E-1
3.156651354E0,-1.311221123E-1,1.295815945E0,-7.048653364E-1
3.159041979E0,-1.139262691E-2,1.174864769E0,-6.450006366E-1
3.161433333E0,1.022282094E-1,1.027035475E0,-5.741403103E-1
3.163825573E0,2.109621316E-1,8.559932709E-1,-4.947278500E-1
3.166216927E0,3.074787557E-1,6.629600525E-1,-4.165371954E-1
3.168607552E0,3.844476938E-1,4.613746703E-1,-3.493420780E-1
3.170998958E0,4.369820654E-1,2.634544969E-1,-2.906990647E-1
3.173391146E0,4.699687660E-1,8.874718845E-2,-2.418299019E-1
3.175782500E0,4.809643328E-1,-4.686477780E-2,-1.905172616E-1
3.178173125E0,4.809643328E-1,-1.360510290E-1,-1.428698152E-1
3.180564531E0,4.663035870E-1,-1.812550128E-1,-9.766581655E-2
3.182956771E0,4.430907071E-1,-1.898071170E-1,-5.490528420E-2
3.185348125E0,4.174343944E-1,-1.653725356E-1,-1.092302427E-2
3.187738750E0,3.905563354E-1,-1.091729850E-1,3.061577678E-2
3.190130104E0,3.661217690E-1,-2.976056933E-2,7.093285024E-2
3.192522344E0,3.416871727E-1,7.408644259E-2,1.051412672E-1
3.194913698E0,3.160308599E-1,2.023680210E-1,1.307975799E-1
3.197304323E0,2.867093384E-1,3.514190316E-1,1.442366093E-1
3.199695677E0,2.525009215E-1,5.114656091E-1,1.515669823E-1
3.202087917E0,2.134055942E-1,6.800642610E-1,1.552321762E-1
3.204479271E0,1.718667895E-1,8.340021372E-1,1.601190865E-1
3.206869896E0,1.376583725E-1,9.622837305E-1,1.674494743E-1
3.209261302E0,1.156672314E-1,1.042917967E0,1.882188618E-1
3.211653489E0,1.120020449E-1,1.075904608E0,2.175403833E-1
3.214044844E0,1.278845370E-1,1.057578683E0,2.554139793E-1
3.216435469E0,1.682016104E-1,9.879400730E-1,2.993962467E-1
3.218826875E0,2.292880714E-1,8.828713298E-1,3.531523347E-1
3.221219114E0,3.099222183E-1,7.582549453E-1,4.081301689E-1
3.223610417E0,4.076605737E-1,6.201995015E-1,4.606645405E-1
3.226001042E0,5.163945556E-1,4.870309830E-1,5.046467781E-1
3.228392448E0,6.287936568E-1,3.721884191E-1,5.339683294E-1
3.230784687E0,7.460796833E-1,2.830021679E-1,5.400769711E-1
3.233176042E0,8.609222174E-1,2.170287818E-1,5.229727626E-1
3.235566667E0,9.672126770E-1,1.657161415E-1,4.741035700E-1
3.237958021E0,1.062507629E0,1.205121577E-1,3.959128857E-1
3.240350260E0,1.141919971E0,7.286471128E-2,2.908441424E-1
3.242741614E0,1.206671715E0,2.033034153E-2,1.625625491E-1
3.245132239E0,1.253097415E0,-2.120845765E-2,1.473329216E-2
3.247523646E0,1.288527608E0,-2.365192026E-2,-1.306525171E-1
3.249915833E0,1.314183831E0,3.010417707E-2,-2.308343351E-1
3.252307187E0,1.326401114E0,1.180686951E-1,-2.723731399E-1
3.254697812E0,1.330066323E0,2.268026173E-1,-2.735948563E-1
3.257089219E0,1.332509756E0,3.514190316E-1,-2.577123642E-1
3.259481458E0,1.327622890E0,4.748136997E-1,-2.357212454E-1
3.261872760E0,1.311740398E0,5.823258758E-1,-2.149518430E-1
3.264263385E0,1.288527608E0,6.812859774E-1,-2.063997388E-1
3.266654792E0,1.264092922E0,7.668070197E-1,-2.100649327E-1
3.269047031E0,1.222554207E0,8.168979287E-1,-2.125083953E-1
3.271438385E0,1.167576313E0,8.278934956E-1,-1.990693659E-1
3.273828958E0,1.095494270E0,7.985720038E-1,-1.734130532E-1
3.276220364E0,1.017303586E0,7.411507368E-1,-1.330959797E-1
3.278612604E0,9.354477525E-1,6.751773357E-1,-8.300507069E-2
3.281003958E0,8.572570682E-1,6.128691435E-1,-3.047069535E-2
3.283394583E0,7.839533091E-1,5.615564585E-1,2.572885901E-2
3.285785989E0,7.204233408E-1,5.285698175E-1,8.559359610E-2
3.288178177E0,6.691107154E-1,5.163525343E-1,1.442366093E-1
3.290569531E0,6.324588656E-1,5.151307583E-1,2.004361600E-1
3.292960156E0,6.031373143E-1,5.212393999E-1,2.615226209E-1
3.295351562E0,5.835896730E-1,5.322349668E-1,3.262743056E-1
3.297743750E0,5.713723898E-1,5.371218920E-1,3.910259604E-1
3.300135104E0,5.493812561E-1,5.053569078E-1,4.692166448E-1
3.302525729E0,5.163945556E-1,4.467139244E-1,5.486290455E-1
3.304917135E0,4.907381535E-1,3.856274486E-1,6.219328046E-1
3.307309375E0,4.663035870E-1,3.074367642E-1,6.915714145E-1
3.309700677E0,4.345386028E-1,2.072549462E-1,7.526578903E-1
3.312091302E0,4.027736485E-1,9.119065106E-2,8.027487993E-1
3.314482708E0,3.697869480E-1,-2.365192026E-2,8.455092907E-1
3.316874948E0,3.355785310E-1,-1.543769687E-1,8.797177076E-1
3.319266302E0,3.013700843E-1,-2.924323976E-1,9.127044082E-1
3.321656927E0,2.683834136E-1,-4.243791699E-1,9.432476759E-1
3.324048281E0,2.439488322E-1,-5.477738380E-1,9.676822424E-1
3.326440521E0,2.207359672E-1,-6.516208649E-1,9.860081673E-1
3.328831875E0,2.072969526E-1,-7.408071160E-1,1.001890659E0
3.331222500E0,2.011882961E-1,-8.092239499E-1,1.017773271E0
3.333613906E0,2.011882961E-1,-8.593148589E-1,1.027547121E0
3.336006094E0,2.024100274E-1,-8.800842762E-1,1.028768897E0
3.338397448E0,2.072969526E-1,-8.800842762E-1,1.022660136E0
3.340788073E0,2.048534900E-1,-8.544279337E-1,1.006777763E0
3.343179479E0,1.999665648E-1,-8.165543079E-1,9.823429585E-1
3.345571719E0,1.901927292E-1,-7.664633989E-1,9.554649591E-1
3.347963021E0,1.816406250E-1,-7.065986991E-1,9.224782586E-1
3.350353646E0,1.718667895E-1,-6.455122232E-1,8.858263493E-1
3.352745052E0,1.669798791E-1,-5.832040310E-1,8.479527831E-1
3.355137292E0,1.596495062E-1,-5.392217636E-1,8.003053069E-1
3.357528594E0,1.474322081E-1,-5.135654211E-1,7.441057563E-1
3.359919219E0,1.339931786E-1,-5.099002123E-1,6.891279221E-1
3.362310625E0,1.291062683E-1,-5.257827044E-1,6.512542963E-1
3.364702864E0,1.364366412E-1,-5.489955544E-1,6.317066550E-1
3.367094219E0,1.486539394E-1,-5.758736134E-1,6.304849386E-1
3.369484792E0,1.682016104E-1,-6.113038063E-1,6.427022219E-1
3.371876198E0,1.950796545E-1,-6.589512229E-1,6.671367884E-1
3.374268437E0,2.256228924E-1,-7.175942659E-1,6.927931309E-1
3.376659792E0,2.634964883E-1,-7.872328162E-1,7.172276974E-1
3.379050417E0,3.074787557E-1,-8.642017841E-1,7.318884730E-1
3.381441823E0,3.539044559E-1,-9.411707520E-1,7.428840399E-1
3.383834010E0,4.027736485E-1,-1.024248242E0,7.441057563E-1
3.386225364E0,4.528645575E-1,-1.102438927E0,7.416623235E-1
3.388615989E0,4.968467951E-1,-1.175742745E0,7.392188311E-1
3.391007396E0,5.371639132E-1,-1.247824788E0,7.379971147E-1
3.393399583E0,5.762592554E-1,-1.311354637E0,7.367753983E-1
3.395790937E0,6.141328812E-1,-1.361445546E0,7.392188311E-1
3.398181562E0,6.410109401E-1,-1.407871366E0,7.392188311E-1
3.400572969E0,6.544499397E-1,-1.457962275E0,7.404405475E-1
3.402965208E0,6.544499397E-1,-1.506831408E0,7.392188311E-1
3.405356510E0,6.324588656E-1,-1.554478884E0,7.331101894E-1
3.407747135E0,5.945852399E-1,-1.602126241E0,7.233363390E-1
3.410138542E0,5.396074057E-1,-1.642443419E0,7.098973393E-1
3.412530781E0,4.650818408E-1,-1.676651835E0,6.952365637E-1
3.414922135E0,3.783390522E-1,-1.710860252E0,6.744672060E-1
3.417312708E0,2.744920552E-1,-1.742625237E0,6.500325799E-1
3.419704114E0,1.657581478E-1,-1.773168445E0,6.280414462E-1
3.422096354E0,5.091557279E-2,-1.807376862E0,6.097155213E-1
3.424487708E0,-6.881391257E-2,-1.842807055E0,5.962765217E-1
3.426878333E0,-1.909868568E-1,-1.873350263E0,5.901678801E-1
3.429269739E0,-3.094946146E-1,-1.899006605E0,5.877243876E-1
3.431661927E0,-4.206719995E-1,-1.912445545E0,5.913895965E-1
3.434053281E0,-5.159668326E-1,-1.913667321E0,5.974982381E-1
3.436443906E0,-5.966010094E-1,-1.914888978E0,5.950547457E-1
3.438835312E0,-6.650178432E-1,-1.920997739E0,5.816157460E-1
3.441227500E0,-7.175521851E-1,-1.923441172E0,5.669549704E-1
3.443618854E0,-7.554258108E-1,-1.917332530E0,5.535159707E-1
3.446009479E0,-7.749734521E-1,-1.906336904E0,5.425204039E-1
3.448400885E0,-7.810821533E-1,-1.890454412E0,5.351900458E-1
3.450793125E0,-7.749734521E-1,-1.869685054E0,5.351900458E-1
3.453184427E0,-7.542040944E-1,-1.844028711E0,5.376334786E-1
3.455575052E0,-7.163304687E-1,-1.824481010E0,5.376334786E-1
3.457966458E0,-6.699047685E-1,-1.813485503E0,5.388551950E-1
3.460358698E0,-6.185920835E-1,-1.803711653E0,5.400769711E-1
3.462750052E0,-5.611708164E-1,-1.808598518E0,5.376334786E-1
3.465140625E0,-5.049712658E-1,-1.824481010E0,5.351900458E-1
3.467532031E0,-4.426631331E-1,-1.844028711E0,5.278596282E-1
3.469924271E0,-3.803549409E-1,-1.855024338E0,5.254161954E-1
3.472315625E0,-3.143815398E-1,-1.867241621E0,5.278596282E-1
3.474706250E0,-2.484081388E-1,-1.873350263E0,5.315248370E-1
3.477097604E0,-1.922085732E-1,-1.883124113E0,5.425204039E-1
3.479489844E0,-1.433394104E-1,-1.892897964E0,5.535159707E-1
3.481881198E0,-1.005788818E-1,-1.908780336E0,5.632898211E-1
3.484271823E0,-6.392699480E-2,-1.923441172E0,5.767288208E-1
3.486663229E0,-3.338375688E-2,-1.929549813E0,5.877243876E-1
3.489055417E0,-7.727438118E-3,-1.940545321E0,5.962765217E-1
3.491446771E0,2.037233859E-2,-1.935658455E0,6.084938049E-1
3.493837396E0,5.213730410E-2,-1.911223888E0,6.219328046E-1
3.496228802E0,9.489782900E-2,-1.880680561E0,6.402587891E-1
3.498620989E0,1.339931786E-1,-1.858689427E0,6.610281467E-1
3.501012344E0,1.694233268E-1,-1.836698294E0,6.854627728E-1
3.503402969E0,2.060752213E-1,-1.823259354E0,7.037886977E-1
3.505794375E0,2.402836382E-1,-1.806155086E0,7.184494734E-1
3.508186614E0,2.720485926E-1,-1.782942295E0,7.318884730E-1
3.510577917E0,2.989266515E-1,-1.763394594E0,7.392188311E-1
3.512968542E0,3.258046806E-1,-1.746290326E0,7.404405475E-1
3.515359948E0,3.465740979E-1,-1.743846893E0,7.367753983E-1
3.517752187E0,3.722304106E-1,-1.738960028E0,7.306667566E-1
3.520143542E0,3.942215443E-1,-1.731629610E0,7.233363390E-1
3.522534114E0,4.113257527E-1,-1.721855760E0,7.135625482E-1
3.524925521E0,4.284299612E-1,-1.721855760E0,7.025669813E-1
3.527317760E0,4.430907071E-1,-1.715747118E0,6.915714145E-1
3.529709114E0,4.601949155E-1,-1.705973268E0,6.842409968E-1
3.532099739E0,4.821860492E-1,-1.682760477E0,6.769106388E-1
3.534491094E0,5.053989887E-1,-1.654660702E0,6.744672060E-1
3.536883333E0,5.286118388E-1,-1.629004359E0,6.695802808E-1
3.539274687E0,5.493812561E-1,-1.603348017E0,6.659150720E-1
3.541665312E0,5.725941062E-1,-1.576470017E0,6.622498631E-1
3.544056719E0,5.982503891E-1,-1.548370242E0,6.573629975E-1
3.546448906E0,6.251284480E-1,-1.512940049E0,6.512542963E-1
3.548840260E0,6.520065069E-1,-1.478731632E0,6.475891471E-1
3.551230885E0,6.825497150E-1,-1.443301439E0,6.427022219E-1
3.553622292E0,7.118712664E-1,-1.404206157E0,6.390370131E-1
3.556014479E0,7.424144745E-1,-1.360223889E0,6.378152966E-1
3.558405833E0,7.754011750E-1,-1.313798189E0,6.390370131E-1
3.560796458E0,8.108313084E-1,-1.266150713E0,6.414805055E-1
3.563187864E0,8.487049341E-1,-1.220946670E0,6.439239383E-1
3.565580104E0,8.865785599E-1,-1.172077537E0,6.488108635E-1
3.567971406E0,9.256739020E-1,-1.126873493E0,6.536977887E-1
3.570362031E0,9.647692442E-1,-1.082891345E0,6.536977887E-1
3.572753437E0,1.008751512E0,-1.040130734E0,6.573629975E-1
3.575145677E0,1.050290346E0,-9.998136759E-1,6.585847139E-1
3.577536979E0,1.089385629E0,-9.619401097E-1,6.610281467E-1
3.579927604E0,1.128481030E0,-9.301751852E-1,6.695802808E-1
3.582319010E0,1.166354656E0,-8.971884847E-1,6.732454300E-1
3.584711250E0,1.196897864E0,-8.703104258E-1,6.781323552E-1
3.587102604E0,1.227441072E0,-8.483192921E-1,6.817975640E-1
3.589493177E0,1.253097415E0,-8.226629496E-1,6.854627728E-1
3.591884583E0,1.275088549E0,-8.031153083E-1,6.842409968E-1
3.594276823E0,1.293414474E0,-7.847893834E-1,6.842409968E-1
3.596668177E0,1.308075190E0,-7.725720406E-1,6.842409968E-1
3.599058802E0,1.314183831E0,-7.640199661E-1,6.817975640E-1
3.601450156E0,1.316627383E0,-7.579113245E-1,6.805758476E-1
3.603842396E0,1.315405607E0,-7.518026829E-1,6.805758476E-1
3.606233750E0,1.309296966E0,-7.456940413E-1,6.744672060E-1
3.608624375E0,1.294636250E0,-7.505809665E-1,6.671367884E-1
3.611015781E0,1.277531981E0,-7.603547573E-1,6.610281467E-1
3.613407969E0,1.254319072E0,-7.725720406E-1,6.512542963E-1
3.615799323E0,1.227441072E0,-7.835676074E-1,6.414805055E-1
3.618189948E0,1.198119521E0,-8.018935919E-1,6.317066550E-1
3.620581354E0,1.170019746E0,-8.128891587E-1,6.231545210E-1
3.622973542E0,1.140698314E0,-8.275498748E-1,6.097155213E-1
3.625364896E0,1.110155106E0,-8.336585164E-1,5.987199545E-1
3.627755521E0,1.079611778E0,-8.422106504E-1,5.865026712E-1
3.630146927E0,1.051512003E0,-8.544279337E-1,5.681767464E-1
3.632539167E0,1.020968795E0,-8.580931425E-1,5.486290455E-1
3.634930469E0,9.904255867E-1,-8.629800677E-1,5.290814042E-1
3.637321094E0,9.525519609E-1,-8.678669333E-1,5.034250617E-1
3.639712500E0,9.110131264E-1,-8.813059926E-1,4.741035700E-1
3.642104739E0,8.658091426E-1,-8.996319175E-1,4.411168694E-1
3.644496042E0,8.157182336E-1,-9.179578424E-1,4.044649899E-1
3.646886667E0,7.631838918E-1,-9.326186180E-1,3.592609763E-1
3.649278073E0,7.118712664E-1,-9.436141849E-1,3.140569925E-1
3.651670312E0,6.605586410E-1,-9.472793937E-1,2.664095461E-1
3.654061667E0,6.129111648E-1,-9.485011101E-1,2.187620997E-1
3.656452239E0,5.677071810E-1,-9.387272596E-1,1.711146533E-1
3.658843646E0,5.273901224E-1,-9.252882600E-1,1.222454756E-1
3.661235885E0,4.858512580E-1,-9.191796184E-1,7.459802926E-2
3.663627239E0,4.504210949E-1,-9.167361259E-1,2.572885901E-2
3.666017864E0,4.149909317E-1,-9.045188427E-1,-1.336648315E-2
3.668409219E0,3.795607686E-1,-8.959667683E-1,-4.390971735E-2
3.670801458E0,3.465740979E-1,-8.898580670E-1,-6.834430993E-2
3.673192812E0,3.111439347E-1,-8.935232759E-1,-8.911371231E-2
3.675583437E0,2.769355178E-1,-9.069623351E-1,-1.074396521E-1
3.677974792E0,2.402836382E-1,-9.265099764E-1,-1.208786815E-1
3.680367031E0,1.987448484E-1,-9.485011101E-1,-1.343176961E-1
3.682758385E0,1.584277749E-1,-9.717139602E-1,-1.440915316E-1
3.685149010E0,1.168889627E-1,-9.888182282E-1,-1.550870985E-1
3.687540417E0,8.023707569E-2,-9.949268103E-1,-1.611957550E-1
3.689932604E0,4.725038633E-2,-9.900398850E-1,-1.734130532E-1
3.692323958E0,2.525925636E-2,-9.631618857E-1,-1.856303364E-1
3.694714583E0,8.155044168E-3,-9.228447676E-1,-1.990693659E-1
3.697105989E0,-1.383608580E-2,-8.910798430E-1,-2.161735743E-1
3.699498177E0,-3.460548446E-2,-8.544279337E-1,-2.320560664E-1
3.701889531E0,-5.659661815E-2,-8.177760839E-1,-2.479385436E-1
3.704280156E0,-7.736601681E-2,-7.860110998E-1,-2.613775730E-1
3.706671562E0,-1.005788818E-1,-7.579113245E-1,-2.735948563E-1
3.709063750E0,-1.225700080E-1,-7.383636236E-1,-2.809252441E-1
3.711455104E0,-1.433394104E-1,-7.151507735E-1,-2.882556021E-1
3.713845729E0,-1.665522605E-1,-7.041552067E-1,-2.968077064E-1
3.716237135E0,-1.897651255E-1,-6.882727146E-1,-3.053598404E-1
3.718629375E0,-2.141997069E-1,-6.736119986E-1,-3.151336610E-1
3.721020677E0,-2.484081388E-1,-6.846075654E-1,-3.273509443E-1
3.723411302E0,-2.826165855E-1,-6.968248487E-1,-3.383465111E-1
3.725802708E0,-3.192684650E-1,-7.004900575E-1,-3.468986154E-1
3.728194948E0,-3.522551656E-1,-6.956031322E-1,-3.566724658E-1
3.730586250E0,-3.803549409E-1,-6.748337150E-1,-3.652245700E-1
3.732976875E0,-4.133416116E-1,-6.626164317E-1,-3.725549579E-1
3.735368281E0,-4.463283122E-1,-6.491773725E-1,-3.859939575E-1
3.737760521E0,-4.793150127E-1,-6.381818056E-1,-4.018764496E-1
3.740151875E0,-5.123016238E-1,-6.271862388E-1,-4.140937328E-1
3.742542448E0,-5.404013991E-1,-6.113038063E-1,-4.311979711E-1
3.744933854E0,-5.660577416E-1,-5.832040310E-1,-4.483021796E-1
3.747326094E0,-5.819402337E-1,-5.379999876E-1,-4.629629254E-1
3.749717448E0,-5.917140841E-1,-4.927960038E-1,-4.727367759E-1
3.752108021E0,-5.953792334E-1,-4.524789453E-1,-4.825105965E-1
3.754499427E0,-5.966010094E-1,-4.170488119E-1,-4.898409843E-1
3.756891667E0,-5.966010094E-1,-3.889490366E-1,-4.971713424E-1
3.759283021E0,-6.002661586E-1,-3.718447983E-1,-5.020582676E-1
3.761673646E0,-6.014878750E-1,-3.645144403E-1,-5.106103420E-1
3.764065000E0,-6.075965166E-1,-3.669579029E-1,-5.191624761E-1
3.766457239E0,-6.149269342E-1,-3.718447983E-1,-5.289363265E-1
3.768848594E0,-6.210355759E-1,-3.755100071E-1,-5.399318933E-1
3.771239219E0,-6.320311427E-1,-3.803969026E-1,-5.533708930E-1
3.773630625E0,-6.466919184E-1,-3.865055740E-1,-5.753620267E-1
3.776022812E0,-6.674612761E-1,-3.999445736E-1,-6.034618020E-1
3.778414167E0,-6.918959022E-1,-3.987228572E-1,-6.266746521E-1
3.780804792E0,-7.163304687E-1,-3.950576782E-1,-6.486657858E-1
3.783196198E0,-7.456519604E-1,-3.779534698E-1,-6.682134867E-1
3.785588385E0,-7.737517357E-1,-3.584057987E-1,-6.865394115E-1
3.787979739E0,-8.067384362E-1,-3.266408145E-1,-7.073088288E-1
3.790370364E0,-8.433903456E-1,-2.838802934E-1,-7.268564701E-1
3.792761771E0,-8.824856877E-1,-2.301242054E-1,-7.500693202E-1
3.795153958E0,-9.240244627E-1,-1.617073417E-1,-7.732822299E-1
3.797545312E0,-9.667850137E-1,-8.229492605E-2,-7.940515876E-1
3.799935937E0,-1.008323789E0,6.891317666E-3,-8.135992885E-1
3.802327344E0,-1.047419190E0,1.034079492E-1,-8.270382881E-1
3.804719531E0,-1.082849264E0,2.048114836E-1,-8.429207802E-1
3.807110885E0,-1.114614248E0,3.147671223E-1,-8.612467051E-1
3.809501510E0,-1.146379232E0,4.235010445E-1,-8.807944059E-1
3.811892917E0,-1.176922441E0,5.285698175E-1,-9.076724648E-1
3.814285156E0,-1.208687425E0,6.275298595E-1,-9.369939566E-1
3.816676458E0,-1.239230633E0,7.154943943E-1,-9.736458063E-1
3.819067083E0,-1.273439050E0,7.900198698E-1,-1.013962865E0
3.821458489E0,-1.307647467E0,8.547715545E-1,-1.053058147E0
3.823850729E0,-1.344299436E0,9.097493887E-1,-1.094596982E0
3.826242031E0,-1.380951285E0,9.488447309E-1,-1.136135697E0
3.828632656E0,-1.415159702E0,9.757227898E-1,-1.175231099E0
3.831024062E0,-1.449368119E0,9.989356399E-1,-1.205774307E0
3.833416302E0,-1.484798312E0,1.020926833E0,-1.227765441E0
3.835807604E0,-1.522671938E0,1.038030982E0,-1.230208874E0
3.838198229E0,-1.554436922E0,1.060022116E0,-1.221656799E0
3.840589635E0,-1.583758354E0,1.088121891E0,-1.203330874E0
3.842981875E0,-1.611858130E0,1.123552084E0,-1.171565890E0
3.845373229E0,-1.638736248E0,1.172421217E0,-1.126361847E0
3.847763802E0,-1.663170815E0,1.242059827E0,-1.056723356E0
3.850155208E0,-1.694935799E0,1.305589795E0,-9.736458063E-1
3.852547448E0,-1.720592022E0,1.356902361E0,-8.942334056E-1
3.854938802E0,-1.715705156E0,1.414323688E0,-8.233731389E-1
3.857329375E0,-1.685161948E0,1.479075313E0,-7.537345290E-1
3.859720781E0,-1.641179681E0,1.549935699E0,-6.902046204E-1
3.862113021E0,-1.594753981E0,1.611022115E0,-6.352267861E-1
3.864504375E0,-1.547106504E0,1.656226158E0,-5.888010859E-1
3.866895000E0,-1.504346013E0,1.685547590E0,-5.460405350E-1
3.869286354E0,-1.466472387E0,1.708760500E0,-5.167189837E-1
3.871678594E0,-1.431042194E0,1.724642992E0,-4.873975217E-1
3.874069948E0,-1.396833777E0,1.730751634E0,-4.605194628E-1
3.876460573E0,-1.358960152E0,1.745412350E0,-4.385283291E-1
3.878851979E0,-1.322308302E0,1.760073185E0,-4.177589417E-1
3.881244167E0,-1.292986751E0,1.769846916E0,-3.921026289E-1
3.883635521E0,-1.272217393E0,1.769846916E0,-3.701114953E-1
3.886026146E0,-1.262443542E0,1.762516618E0,-3.481203616E-1
3.888417500E0,-1.251447916E0,1.756407976E0,-3.297944069E-1
3.890809739E0,-1.239230633E0,1.746634126E0,-3.126901984E-1
3.893201094E0,-1.219683051E0,1.734416842E0,-2.943642735E-1
3.895591719E0,-1.192804933E0,1.713647366E0,-2.699296772E-1
3.897983125E0,-1.162261724E0,1.675773740E0,-2.344995141E-1
3.900375312E0,-1.131718516E0,1.608578682E0,-1.892955303E-1
3.902766667E0,-1.113392591E0,1.514505506E0,-1.343176961E-1
3.905157292E0,-1.113392591E0,1.383780479E0,-7.567468286E-2
3.907548698E0,-1.136605382E0,1.220068693E0,-1.458821259E-2
3.909940885E0,-1.174479008E0,1.049026608E0,5.016344786E-2
3.912332239E0,-1.219683051E0,8.926451802E-1,1.063629985E-1
3.914722864E0,-1.266108751E0,7.570331693E-1,1.479018033E-1
3.917114271E0,-1.308869243E0,6.568513513E-1,1.674494743E-1
3.919506458E0,-1.345521092E0,6.079822183E-1,1.698929220E-1
3.921897812E0,-1.368734002E0,5.982083678E-1,1.588973552E-1
3.924288437E0,-1.383394718E0,6.385254264E-1,1.417931467E-1
3.926679844E0,-1.396833777E0,7.325986028E-1,1.369062364E-1
3.929072031E0,-1.418824911E0,8.559932709E-1,1.112499088E-1
3.931463385E0,-1.433485627E0,9.671706557E-1,7.826322317E-2
3.933854010E0,-1.449368119E0,1.090565443E0,6.360246986E-2
3.936245417E0,-1.461585402E0,1.231064320E0,6.848938763E-2
3.938637604E0,-1.476246238E0,1.395997763E0,8.437186480E-2
3.941028958E0,-1.497015595E0,1.573148489E0,1.100281775E-1
3.943419583E0,-1.522671938E0,1.774733901E0,1.283541322E-1
3.945810989E0,-1.547106504E0,1.993423462E0,1.417931467E-1
3.948203229E0,-1.567875862E0,2.224330187E0,1.466800719E-1
3.950594531E0,-1.588645339E0,2.455237150E0,1.491235197E-1
3.952985156E0,-1.619188547E0,2.675148249E0,1.503452510E-1
3.955376562E0,-1.650953531E0,2.871846914E0,1.527887136E-1
3.957768802E0,-1.672944665E0,3.061214924E0,1.503452510E-1
3.960160104E0,-1.685161948E0,3.264021873E0,1.466800719E-1
3.962550729E0,-1.683940172E0,3.481489897E0,1.405714154E-1
3.964942135E0,-1.675388098E0,3.684296846E0,1.283541322E-1
3.967334375E0,-1.655840397E0,3.849230289E0,1.075847298E-1
3.969725677E0,-1.593532205E0,3.972625017E0,6.482420117E-2
3.972116302E0,-1.538554430E0,4.015385628E0,2.516001463E-3
3.974507708E0,-1.490906954E0,4.011720657E0,-8.056160808E-2
3.976899948E0,-1.410272837E0,3.995837927E0,-1.746347845E-1
3.979291250E0,-1.305204034E0,3.972625017E0,-2.638210058E-1
3.981681875E0,-1.191583276E0,3.921312332E0,-3.603376448E-1
3.984073281E0,-1.077962399E0,3.848008633E0,-4.592977464E-1
3.986465521E0,-9.802240133E-1,3.731944323E0,-5.411536098E-1
3.988856823E0,-9.056985378E-1,3.590223789E0,-5.936879516E-1
3.991247448E0,-8.299512863E-1,3.447281361E0,-6.217877269E-1
3.993638854E0,-7.517606020E-1,3.298230410E0,-6.388919353E-1
3.996031094E0,-6.967827678E-1,3.121079683E0,-6.462223530E-1
3.998422448E0,-6.552439928E-1,2.936598539E0,-6.340050697E-1
4.000813021E0,-6.149269342E-1,2.755782604E0,-6.046835184E-1
4.003204427E0,-5.733880997E-1,2.581075191E0,-5.680316687E-1
4.005596667E0,-5.269623995E-1,2.405146122E0,-5.362666845E-1
4.007987969E0,-4.854236543E-1,2.216999769E0,-5.130538344E-1
4.010378594E0,-4.512152374E-1,2.019079685E0,-4.971713424E-1
4.012770000E0,-4.353327453E-1,1.812607527E0,-4.849540591E-1
4.015162239E0,-4.280023873E-1,1.608578682E0,-4.739584923E-1
4.017553594E0,-4.096764326E-1,1.435093045E0,-4.751802087E-1
4.019944167E0,-3.803549409E-1,1.303146362E0,-4.800671339E-1
4.022335573E0,-3.302640319E-1,1.207851410E0,-4.861757755E-1
4.024727812E0,-2.545168102E-1,1.156538725E0,-4.873975217E-1
4.027119167E0,-1.555566937E-1,1.140656352E0,-4.861757755E-1
4.029509739E0,-4.682278261E-2,1.128438950E0,-4.837323129E-1
4.031901146E0,6.191113964E-2,1.094230533E0,-4.800671339E-1
4.034293385E0,1.572060436E-1,1.031922340E0,-4.825105965E-1
4.036684739E0,2.329532653E-1,9.378491640E-1,-4.898409843E-1
4.039075312E0,2.879310846E-1,8.291152120E-1,-4.971713424E-1
4.041466719E0,3.294698894E-1,7.154943943E-1,-4.971713424E-1
4.043858958E0,3.624565601E-1,6.189777851E-1,-4.898409843E-1
4.046250312E0,3.966650069E-1,5.432305336E-1,-4.800671339E-1
4.048640885E0,4.284299612E-1,4.784788787E-1,-4.654063880E-1
4.051032292E0,4.601949155E-1,4.247227907E-1,-4.507456422E-1
4.053424531E0,4.834077954E-1,3.734101653E-1,-4.360848665E-1
4.055815885E0,5.005120039E-1,3.208757937E-1,-4.238675833E-1
4.058206458E0,5.139510632E-1,2.671197057E-1,-4.140937328E-1
4.060597864E0,5.225031972E-1,2.145853192E-1,-4.006547332E-1
4.062990104E0,5.334987640E-1,1.706030667E-1,-3.908808827E-1
4.065381458E0,5.420508385E-1,1.302859932E-1,-3.798853159E-1
4.067772031E0,5.530464053E-1,9.363411367E-2,-3.737766743E-1
4.070163437E0,5.664854646E-1,6.186914071E-2,-3.664462864E-1
4.072555677E0,5.750375390E-1,3.499109298E-2,-3.615593910E-1
4.074947031E0,5.835896730E-1,1.422169432E-2,-3.530072868E-1
4.077337656E0,5.921417475E-1,-1.660786569E-3,-3.395682573E-1
4.079729010E0,6.006938815E-1,-1.509980857E-2,-3.297944069E-1
4.082121250E0,6.092459559E-1,-1.632153988E-2,-3.163554072E-1
4.084512604E0,6.153545976E-1,-1.387808472E-2,-3.041380942E-1
4.086903229E0,6.190198064E-1,-4.104249179E-3,-2.919208109E-1
4.089294583E0,6.226850152E-1,9.334776551E-3,-2.784817815E-1
4.091686823E0,6.226850152E-1,3.254763782E-2,-2.638210058E-1
4.094078177E0,6.251284480E-1,5.820395425E-2,-2.479385436E-1
4.096468802E0,6.239067316E-1,8.508200943E-2,-2.369429767E-1
4.098860156E0,6.226850152E-1,1.144035161E-1,-2.235039473E-1
4.101252396E0,6.214632988E-1,1.473902017E-1,-2.063997388E-1
4.103643750E0,6.190198064E-1,1.779334396E-1,-1.917389929E-1
4.106034375E0,6.153545976E-1,2.158070505E-1,-1.721913218E-1
4.108425729E0,6.104677320E-1,2.536806464E-1,-1.502001882E-1
4.110817969E0,6.055808067E-1,2.878890932E-1,-1.245438606E-1
4.113209323E0,5.994721651E-1,3.220975101E-1,-9.766581655E-2
4.115599948E0,5.896983147E-1,3.550842106E-1,-6.956604123E-2
4.117991302E0,5.811461806E-1,3.868491650E-1,-3.902279958E-2
4.120383542E0,5.689288974E-1,4.137272239E-1,-9.701294824E-3
4.122774896E0,5.554898977E-1,4.393835366E-1,2.206367254E-2
4.125165521E0,5.420508385E-1,4.613746703E-1,5.505036563E-2
4.127556875E0,5.261683464E-1,4.809223413E-1,9.048052132E-2
4.129949114E0,5.115076303E-1,4.968048334E-1,1.210237443E-1
4.132340469E0,4.944033623E-1,5.029134750E-1,1.601190865E-1
4.134731094E0,4.760774076E-1,5.041351914E-1,1.967709661E-1
4.137122448E0,4.565297365E-1,4.980265498E-1,2.346445918E-1
4.139514687E0,4.333168864E-1,4.906961918E-1,2.761833966E-1
4.141906042E0,4.088822901E-1,4.772571623E-1,3.165004551E-1
4.144296667E0,3.868911564E-1,4.625963867E-1,3.592609763E-1
4.146688021E0,3.661217690E-1,4.491573870E-1,4.032432437E-1
4.149080260E0,3.465740979E-1,4.369400740E-1,4.447820485E-1
4.151471614E0,3.306916058E-1,4.198358655E-1,4.899860620E-1
4.153862239E0,3.135873973E-1,4.002881944E-1,5.351900458E-1
4.156253594E0,2.977049053E-1,3.795188069E-1,5.803940296E-1
4.158645833E0,2.830441594E-1,3.636363149E-1,6.219328046E-1
4.161037187E0,2.696051300E-1,3.416451812E-1,6.671367884E-1
4.163427812E0,2.610530257E-1,3.233192563E-1,7.086756229E-1
4.165819167E0,2.549443841E-1,3.001063764E-1,7.477709651E-1
4.168211406E0,2.500574887E-1,2.768935263E-1,7.819793820E-1
4.170602760E0,2.463922948E-1,2.573458552E-1,8.174095154E-1
4.172993333E0,2.451705635E-1,2.341329902E-1,8.516179323E-1
4.175384739E0,2.451705635E-1,2.170287818E-1,8.809394836E-1
4.177776979E0,2.512792349E-1,2.072549462E-1,9.114826918E-1
4.180168333E0,2.598313093E-1,1.987028420E-1,9.383607507E-1
4.182558958E0,2.708268762E-1,1.901507378E-1,9.591301680E-1
4.184950312E0,2.830441594E-1,1.828203499E-1,9.798995256E-1
4.187342552E0,2.940397263E-1,1.730465293E-1,9.921168089E-1
4.189733906E0,3.087004721E-1,1.583857685E-1,1.004334092E0
4.192124531E0,3.172525764E-1,1.376163661E-1,1.011664629E0
4.194515885E0,3.184743226E-1,1.082948595E-1,1.010442853E0
4.196908125E0,3.099222183E-1,7.164297998E-2,1.003112435E0
4.199299479E0,2.928179801E-1,2.766071819E-2,9.957820177E-1
4.201690052E0,2.659399509E-1,-1.509980857E-2,9.762343168E-1
4.204081458E0,2.329532653E-1,-5.297342688E-2,9.517997503E-1
4.206473698E0,1.914144605E-1,-8.107319474E-2,9.224782586E-1
4.208865052E0,1.510973871E-1,-1.018425971E-1,8.956001997E-1
4.211255625E0,1.120020449E-1,-1.189468205E-1,8.589483500E-1
4.213647031E0,7.046324015E-2,-1.336075664E-1,8.186312318E-1
4.216039271E0,2.159406804E-2,-1.458248645E-1,7.685403824E-1
4.218430625E0,-2.483165078E-2,-1.653725356E-1,7.074539065E-1
4.220821198E0,-7.003564388E-2,-2.056896091E-1,6.402587891E-1
4.223212604E0,-1.091309860E-1,-2.741064429E-1,5.596246123E-1
4.225604844E0,-1.433394104E-1,-3.425233066E-1,4.643297195E-1
4.227996198E0,-1.616653502E-1,-4.072749615E-1,3.592609763E-1
4.230386771E0,-1.677739918E-1,-4.475920200E-1,2.529705167E-1
4.232778177E0,-1.677739918E-1,-4.818004370E-1,1.625625491E-1
4.235170417E0,-1.616653502E-1,-5.013481379E-1,7.948495448E-2
4.237561771E0,-1.494480520E-1,-5.123437047E-1,3.737729043E-3
4.239952344E0,-1.408959478E-1,-5.172306299E-1,-6.834430993E-2
4.242343750E0,-1.494480520E-1,-5.245609879E-1,-1.404263526E-1
4.244735989E0,-1.799912900E-1,-5.294479132E-1,-2.125083953E-1
4.247127292E0,-2.337473780E-1,-5.270044208E-1,-2.821469605E-1
4.249517917E0,-3.094946146E-1,-5.160089135E-1,-3.468986154E-1
4.251909323E0,-3.950156868E-1,-4.903525710E-1,-4.116503000E-1
4.254301562E0,-4.927540421E-1,-4.512572289E-1,-4.776236713E-1
4.256692917E0,-5.941575170E-1,-3.950576782E-1,-5.387101769E-1
4.259083489E0,-7.028914690E-1,-3.327494562E-1,-5.900228024E-1
4.261474896E0,-8.152905703E-1,-2.618891597E-1,-6.425571442E-1
4.263867135E0,-9.252461791E-1,-1.617073417E-1,-6.902046204E-1
4.266258489E0,-1.024206281E0,-3.709094226E-2,-7.341868877E-1
4.268649062E0,-1.106062174E0,1.131817847E-1,-7.696170211E-1
4.271040469E0,-1.161039948E0,2.915542722E-1,-7.940515876E-1
4.273432708E0,-1.176922441E0,5.065786242E-1,-8.050471544E-1
4.275824010E0,-1.143935800E0,7.411507368E-1,-8.111557961E-1
4.278214635E0,-1.075518966E0,9.916052222E-1,-8.111557961E-1
4.280606042E0,-9.790022969E-1,1.216403484E0,-8.111557961E-1
4.282998281E0,-8.653814793E-1,1.405771613E0,-8.184862137E-1
4.285389583E0,-7.419868112E-1,1.543827057E0,-8.258165717E-1
4.287780208E0,-6.222572923E-1,1.630569816E0,-8.294817805E-1
4.290171614E0,-5.147451162E-1,1.670886874E0,-8.282600045E-1
4.292563854E0,-4.267806411E-1,1.678217292E0,-8.221513629E-1
4.294955156E0,-3.571420610E-1,1.661113024E0,-8.050471544E-1
4.297345781E0,-2.960555851E-1,1.645230532E0,-7.830560207E-1
4.299737187E0,-2.349691093E-1,1.635456681E0,-7.549562454E-1
4.302129427E0,-1.689957231E-1,1.630569816E0,-7.219695449E-1
4.304520729E0,-9.691368788E-2,1.617130756E0,-6.779873371E-1
4.306911354E0,-2.483165078E-2,1.591474414E0,-6.278964281E-1
4.309302760E0,4.358519986E-2,1.552379131E0,-5.729185939E-1
4.311695000E0,1.132237688E-1,1.499844790E0,-5.154972672E-1
4.314086302E0,1.743102521E-1,1.428984404E0,-4.507456422E-1
4.316476927E0,2.244011611E-1,1.326359153E0,-3.823287785E-1
4.318868333E0,2.586095631E-1,1.189525485E0,-3.187988400E-1
4.321260573E0,2.757137716E-1,1.023370266E0,-2.638210058E-1
4.323651875E0,2.781572342E-1,8.376673460E-1,-2.137301266E-1
4.326042500E0,2.708268762E-1,6.592948437E-1,-1.758565009E-1
4.328433906E0,2.537226379E-1,5.016916990E-1,-1.416480839E-1
4.330826094E0,2.353967279E-1,3.831839859E-1,-1.062179208E-1
4.333217448E0,2.182925195E-1,3.025498390E-1,-6.834430993E-2
4.335608073E0,2.072969526E-1,2.549023926E-1,-2.802723646E-2
4.337999479E0,2.097404003E-1,2.390199155E-1,1.228983700E-2
4.340391667E0,2.219576985E-1,2.475720197E-1,4.894171655E-2
4.342783021E0,2.476140112E-1,2.720066011E-1,8.437186480E-2
4.345173646E0,2.781572342E-1,3.172105849E-1,1.112499088E-1
4.347565052E0,3.099222183E-1,3.819622695E-1,1.356845051E-1
4.349957239E0,3.441306353E-1,4.625963867E-1,1.576756239E-1
4.352348594E0,3.783390522E-1,5.566695929E-1,1.796667576E-1
4.354739219E0,4.088822901E-1,6.519644856E-1,2.004361600E-1
4.357130625E0,4.357603490E-1,7.460376024E-1,2.224272788E-1
4.359522812E0,4.614166617E-1,8.217848539E-1,2.529705167E-1
4.361914167E0,4.882946908E-1,8.743191957E-1,2.835137546E-1
4.364304792E0,5.212814808E-1,8.877582550E-1,3.262743056E-1
4.366696198E0,5.603768229E-1,8.694323301E-1,3.739217520E-1
4.369088385E0,6.043590307E-1,8.254500628E-1,4.362299442E-1
4.371479739E0,6.556717157E-1,7.521463037E-1,5.022033453E-1
4.373870364E0,7.143146992E-1,6.629600525E-1,5.742853880E-1
4.376261771E0,7.790663838E-1,5.798824430E-1,6.475891471E-1
4.378653958E0,8.425962925E-1,4.980265498E-1,7.135625482E-1
4.381045312E0,9.085696936E-1,4.296097159E-1,7.673186064E-1
4.383435937E0,9.708778858E-1,3.819622695E-1,8.027487993E-1
4.385827292E0,1.031964421E0,3.599711359E-1,8.113008738E-1
4.388219531E0,1.091829062E0,3.501972854E-1,7.954183817E-1
4.390610885E0,1.149250388E0,3.440886438E-1,7.453274727E-1
4.393001510E0,1.207893372E0,3.465321064E-1,6.610281467E-1
4.395392864E0,1.260427713E0,3.489755690E-1,5.449638367E-1
4.397785104E0,1.303188324E0,3.453103602E-1,3.995780647E-1
4.400176458E0,1.332509756E0,3.343148232E-1,2.419749498E-1
4.402567031E0,1.354500890E0,3.294278979E-1,8.925879002E-2
4.404958437E0,1.371605158E0,3.575276732E-1,-1.703167148E-2
4.407350677E0,1.381379008E0,4.063968360E-1,-6.467911601E-2
4.409742031E0,1.385044217E0,4.601529539E-1,-7.567468286E-2
4.412132656E0,1.380157232E0,5.151307583E-1,-7.445295155E-2
4.414524010E0,1.361831307E0,5.725520253E-1,-7.689641416E-2
4.416916250E0,1.317849040E0,6.201995015E-1,-8.667024970E-2
4.419307604E0,1.253097415E0,6.495209932E-1,-1.086613834E-1
4.421698177E0,1.177350163E0,6.715121269E-1,-1.392046213E-1
4.424089583E0,1.091829062E0,6.971684694E-1,-1.673043966E-1
4.426481823E0,1.011194944E0,7.154943943E-1,-1.819651574E-1
4.428873177E0,9.391129017E-1,7.154943943E-1,-1.758565009E-1
4.431263750E0,8.792482018E-1,6.935032606E-1,-1.538653672E-1
4.433655156E0,8.303790092E-1,6.592948437E-1,-1.135483086E-1
4.436047396E0,7.925053835E-1,6.201995015E-1,-6.712257862E-2
4.438438698E0,7.582969666E-1,5.639999509E-1,-2.069685981E-2
4.440829323E0,7.192016244E-1,4.980265498E-1,2.572885901E-2
4.443220729E0,6.764410734E-1,4.161706865E-1,6.604593247E-2
4.445612969E0,6.275719404E-1,3.343148232E-1,1.075847298E-1
4.448004271E0,5.774810314E-1,2.585676014E-1,1.466800719E-1
4.450394896E0,5.310552716E-1,1.950376481E-1,1.918840557E-1
4.452786302E0,4.858512580E-1,1.412815601E-1,2.444184124E-1
4.455178542E0,4.455341697E-1,9.363411367E-2,3.030614257E-1
4.457569844E0,4.186561108E-1,4.965185001E-2,3.580392599E-1
4.459960469E0,4.003301859E-1,7.826685905E-4,4.154605567E-1
4.462351875E0,3.893346190E-1,-5.175169557E-2,4.679949284E-1
4.464744062E0,3.856694400E-1,-1.201685369E-1,5.168640614E-1
4.467135417E0,3.856694400E-1,-2.032461464E-1,5.657332540E-1
4.469526042E0,3.917780817E-1,-2.936541140E-1,6.121590137E-1
4.471917448E0,3.929997981E-1,-3.828403652E-1,6.634716392E-1
4.474309635E0,3.954432607E-1,-4.781352878E-1,7.184494734E-1
4.476700989E0,3.881129026E-1,-5.770953298E-1,7.746490240E-1
4.479091614E0,3.722304106E-1,-6.784989238E-1,8.320702910E-1
4.481483021E0,3.429088891E-1,-7.860110998E-1,8.760525584E-1
4.483875208E0,3.025918305E-1,-8.874146342E-1,9.065957665E-1
4.486266562E0,2.549443841E-1,-9.802660346E-1,9.224782586E-1
4.488657187E0,2.036317587E-1,-1.062121868E0,9.273651838E-1
4.491048594E0,1.523191184E-1,-1.126873493E0,9.236999750E-1
4.493440781E0,1.034499332E-1,-1.157416821E0,9.139261842E-1
4.495832135E0,6.068940833E-2,-1.159860253E0,9.004871249E-1
4.498222760E0,2.892444469E-2,-1.125651836E0,8.772742748E-1
4.500614114E0,4.489855841E-3,-1.064565301E0,8.503962159E-1
4.503006354E0,-6.505708676E-3,-9.790443778E-1,8.174095154E-1
4.505397708E0,-1.261435635E-2,-8.825277090E-1,7.832010984E-1
4.507788333E0,-6.505708676E-3,-7.835676074E-1,7.453274727E-1
4.510179687E0,5.711585749E-3,-6.809423566E-1,7.050104141E-1
4.512571927E0,2.525925636E-2,-5.868691802E-1,6.610281467E-1
4.514963281E0,5.213730410E-2,-5.037915707E-1,6.219328046E-1
4.517353854E0,7.901535183E-2,-4.365964830E-1,5.889461040E-1
4.519745260E0,1.120020449E-1,-3.877272904E-1,5.657332540E-1
4.522137500E0,1.486539394E-1,-3.645144403E-1,5.571811795E-1
4.524528854E0,1.889709979E-1,-3.669579029E-1,5.571811795E-1
4.526919427E0,2.329532653E-1,-3.840621114E-1,5.657332540E-1
4.529310833E0,2.793789804E-1,-4.243791699E-1,5.816157460E-1
4.531703073E0,3.270264268E-1,-4.854656458E-1,6.036068797E-1
4.534094427E0,3.771173358E-1,-5.526607633E-1,6.280414462E-1
4.536485000E0,4.259864986E-1,-6.259645224E-1,6.524760723E-1
4.538876406E0,4.760774076E-1,-7.029334903E-1,6.732454300E-1
4.541268646E0,5.310552716E-1,-7.835676074E-1,6.891279221E-1
4.543659948E0,5.884765983E-1,-8.629800677E-1,7.025669813E-1
4.546050573E0,6.520065069E-1,-9.313969016E-1,7.184494734E-1
4.548441979E0,7.008756995E-1,-1.019361377E0,7.355536819E-1
4.550834219E0,7.326406240E-1,-1.115877986E0,7.502143979E-1
4.553225521E0,7.460796833E-1,-1.213616371E0,7.538796067E-1
4.555616146E0,7.314189076E-1,-1.318685055E0,7.441057563E-1
4.558007552E0,6.849932075E-1,-1.432305932E0,7.257798314E-1
4.560399739E0,6.177980900E-1,-1.532487750E0,7.074539065E-1
4.562791094E0,5.396074057E-1,-1.615565300E0,6.927931309E-1
4.565181719E0,4.540862739E-1,-1.680316925E0,6.708019972E-1
4.567573125E0,3.734521270E-1,-1.730407834E0,6.475891471E-1
4.569965312E0,2.964831889E-1,-1.762172818E0,6.243762970E-1
4.572356667E0,2.231794298E-1,-1.787829161E0,6.072720885E-1
4.574747292E0,1.498756558E-1,-1.807376862E0,5.950547457E-1
4.577138698E0,7.657188922E-2,-1.830589652E0,5.828374624E-1
4.579530885E0,6.933315191E-3,-1.851359129E0,5.779505372E-1
4.581922239E0,-5.048796907E-2,-1.859911203E0,5.730636120E-1
4.584312864E0,-9.569196403E-2,-1.852580786E0,5.718418956E-1
4.586704219E0,-1.311221123E-1,-1.840363503E0,5.803940296E-1
4.589096458E0,-1.751043648E-1,-1.845250487E0,5.926113129E-1
4.591487812E0,-2.276387364E-1,-1.868463278E0,6.060503125E-1
4.593878437E0,-2.972773314E-1,-1.905115247E0,6.146024466E-1
4.596269792E0,-3.754680157E-1,-1.961314797E0,6.146024466E-1
4.598662031E0,-4.634325206E-1,-2.028510094E0,6.036068797E-1
4.601053385E0,-5.526187420E-1,-2.094483376E0,5.926113129E-1
4.603444010E0,-6.247007847E-1,-2.140909195E0,5.779505372E-1
4.605835364E0,-6.747916937E-1,-2.172674179E0,5.620681047E-1
4.608227604E0,-7.053349018E-1,-2.178782701E0,5.437421203E-1
4.610618958E0,-7.126652598E-1,-2.181226254E0,5.315248370E-1
4.613009531E0,-7.041131854E-1,-2.177561045E0,5.217509866E-1
4.615400937E0,-6.918959022E-1,-2.188556433E0,5.193075538E-1
4.617793177E0,-6.650178432E-1,-2.216656446E0,5.144206285E-1
4.620184479E0,-6.247007847E-1,-2.249643087E0,5.119771957E-1
4.622575104E0,-5.672794580E-1,-2.274077654E0,5.095337033E-1
4.624966510E0,-5.074147582E-1,-2.309507847E0,5.131989121E-1
4.627358750E0,-4.365544915E-1,-2.341272831E0,5.180858374E-1
4.629750052E0,-3.632507324E-1,-2.354711771E0,5.290814042E-1
4.632140677E0,-2.862817645E-1,-2.347381353E0,5.486290455E-1
4.634532083E0,-2.032041401E-1,-2.329055548E0,5.706201792E-1
4.636924323E0,-1.274569184E-1,-2.302177429E0,5.926113129E-1
4.639315625E0,-5.537488684E-2,-2.271634102E0,6.182676554E-1
4.641706250E0,2.037233859E-2,-2.239869118E0,6.451456547E-1
4.644097656E0,9.367609769E-2,-2.205660820E0,6.720237136E-1
4.646489844E0,1.523191184E-1,-2.170230627E0,6.964583397E-1
4.648881198E0,1.963013858E-1,-2.143352509E0,7.172276974E-1
4.651271823E0,2.268446237E-1,-2.120139599E0,7.355536819E-1
4.653663229E0,2.476140112E-1,-2.094483376E0,7.477709651E-1
4.656055417E0,2.525009215E-1,-2.074935675E0,7.612099648E-1
4.658446771E0,2.451705635E-1,-2.056609869E0,7.770924568E-1
4.660837396E0,2.341749966E-1,-2.030953407E0,8.027487993E-1
4.663228750E0,2.195142359E-1,-2.021179676E0,8.235181570E-1
4.665620989E0,1.975231171E-1,-2.033396959E0,8.296267986E-1
4.668012344E0,1.694233268E-1,-2.066383600E0,8.186312318E-1
4.670402969E0,1.449887455E-1,-2.107922316E0,8.039705157E-1
4.672794323E0,1.254410744E-1,-2.133578777E0,7.880880237E-1
4.675186562E0,1.071151271E-1,-2.144574404E0,7.734272480E-1
4.677577917E0,9.734129161E-2,-2.140909195E0,7.612099648E-1
4.679968489E0,9.367609769E-2,-2.131135225E0,7.538796067E-1
4.682359896E0,9.734129161E-2,-2.112809420E0,7.416623235E-1
4.684752135E0,1.095585823E-1,-2.079822540E0,7.257798314E-1
4.687143489E0,1.278845370E-1,-2.044392586E0,7.123407722E-1
4.689534062E0,1.559843123E-1,-2.000410318E0,6.976800561E-1
4.691925469E0,1.865275502E-1,-1.953984380E0,6.830192804E-1
4.694317708E0,2.219576985E-1,-1.908780336E0,6.720237136E-1
4.696709010E0,2.561661005E-1,-1.872128487E0,6.585847139E-1
4.699099635E0,2.915962636E-1,-1.841585279E0,6.414805055E-1
4.701491042E0,3.258046806E-1,-1.813485503E0,6.329283714E-1
4.703883281E0,3.649000227E-1,-1.780498743E0,6.219328046E-1
4.706274583E0,4.039953649E-1,-1.749955535E0,6.158241630E-1
4.708665208E0,4.443124533E-1,-1.709638476E0,6.097155213E-1
4.711056614E0,4.882946908E-1,-1.669321418E0,6.036068797E-1
4.713448802E0,5.310552716E-1,-1.631447792E0,6.036068797E-1
4.715840156E0,5.787027478E-1,-1.591130733E0,6.036068797E-1
4.718230781E0,6.214632988E-1,-1.548370242E0,6.072720885E-1
4.720622187E0,6.654455066E-1,-1.515383482E0,6.097155213E-1
4.723014375E0,7.106495500E-1,-1.482396841E0,6.158241630E-1
4.725405729E0,7.570752501E-1,-1.453075290E0,6.243762970E-1
4.727796354E0,7.998358011E-1,-1.426197290E0,6.341500878E-1
4.730187708E0,8.450397849E-1,-1.400540948E0,6.414805055E-1
4.732579948E0,8.865785599E-1,-1.372441173E0,6.488108635E-1
4.734971302E0,9.293391109E-1,-1.350450039E0,6.536977887E-1
4.737361927E0,9.684344530E-1,-1.330902338E0,6.561412215E-1
4.739753281E0,1.005086303E0,-1.312576413E0,6.585847139E-1
4.742145521E0,1.042959929E0,-1.291807055E0,6.622498631E-1
4.744536875E0,1.078390121E0,-1.268594146E0,6.646933556E-1
4.746927448E0,1.111376762E0,-1.244159579E0,6.659150720E-1
4.749318854E0,1.140698314E0,-1.222168446E0,6.634716392E-1
4.751711094E0,1.166354656E0,-1.195290446E0,6.598064303E-1
4.754102396E0,1.188345790E0,-1.164747119E0,6.598064303E-1
4.756493021E0,1.204228163E0,-1.140312552E0,6.573629975E-1
4.758884427E0,1.215223789E0,-1.119543195E0,6.488108635E-1
4.761276667E0,1.220110655E0,-1.097552061E0,6.414805055E-1
4.763667969E0,1.222554207E0,-1.078004360E0,6.292632222E-1
4.766058594E0,1.221332431E0,-1.054791451E0,6.133807302E-1
4.768450000E0,1.218888998E0,-1.029135227E0,5.974982381E-1
4.770842187E0,1.210336804E0,-1.010809302E0,5.779505372E-1
4.773233542E0,1.198119521E0,-9.863746762E-1,5.571811795E-1
4.775624167E0,1.182237029E0,-9.631618857E-1,5.376334786E-1
4.778015573E0,1.162689447E0,-9.485011101E-1,5.131989121E-1
4.780407760E0,1.138254881E0,-9.448359013E-1,4.887642860E-1
4.782799114E0,1.119928837E0,-9.460576177E-1,4.582210779E-1
4.785189739E0,1.100381255E0,-9.411707520E-1,4.325647652E-1
