"Time (s)","Gyroscope x (rad/s)","Gyroscope y (rad/s)","Gyroscope z (rad/s)"
1.230163580E-1,1.042480469E-1,8.984375000E-2,-1.104736328E-2
1.279602050E-1,1.042480469E-1,8.984375000E-2,-1.104736328E-2
1.328735350E-1,1.042480469E-1,8.984375000E-2,-1.104736328E-2
1.377868650E-1,1.445617676E-1,5.345611572E-1,-2.303466797E-1
1.427307130E-1,1.439514160E-1,5.522766113E-1,-2.450103760E-1
1.476440430E-1,1.457824707E-1,5.712127686E-1,-2.584533691E-1
1.525573730E-1,1.512756348E-1,5.907592773E-1,-2.724914551E-1
1.575012210E-1,1.598205566E-1,6.054229736E-1,-2.847137451E-1
1.624145510E-1,1.702270508E-1,6.133575439E-1,-2.957000732E-1
1.673278810E-1,1.830444336E-1,6.133575439E-1,-3.060913086E-1
1.722717290E-1,1.915893555E-1,6.115417480E-1,-3.097534180E-1
1.771850590E-1,1.995391846E-1,6.005401611E-1,-3.012084961E-1
1.820983890E-1,2.032012939E-1,5.834350586E-1,-2.975463867E-1
1.870422360E-1,2.038116455E-1,5.767059326E-1,-3.079223633E-1
1.919624220E-1,1.989288330E-1,5.834350586E-1,-3.225860596E-1
1.968757520E-1,1.958770752E-1,5.974731445E-1,-3.305358887E-1
2.018195990E-1,1.977081299E-1,6.157989502E-1,-3.311309814E-1
2.067329290E-1,1.952667236E-1,6.304626465E-1,-3.329772949E-1
2.116462590E-1,1.867065430E-1,6.329040527E-1,-3.348083496E-1
2.165901070E-1,1.714477539E-1,6.170349121E-1,-3.354187012E-1
2.215034370E-1,1.494445801E-1,5.938110352E-1,-3.366394043E-1
2.264167670E-1,1.250152588E-1,5.699920654E-1,-3.384704590E-1
2.313606150E-1,1.005706787E-1,5.473937988E-1,-3.384704590E-1
2.362739450E-1,7.369995117E-2,5.144042969E-1,-3.366394043E-1
2.411872750E-1,3.706359863E-2,4.569854736E-1,-3.311309814E-1
2.461311230E-1,-6.927490234E-3,4.001770020E-1,-3.262481689E-1
2.510444530E-1,-3.379821777E-2,3.873443604E-1,-3.146514893E-1
2.559577830E-1,-5.151367188E-2,3.965148926E-1,-2.999877930E-1
2.609016310E-1,-6.983947754E-2,3.983459473E-1,-2.889862061E-1
2.658149610E-1,-1.046752930E-1,4.747009277E-1,-2.773742676E-1
2.707282910E-1,-9.794616699E-2,7.031707764E-1,-2.413482666E-1
2.756721380E-1,-1.058959961E-2,7.862396240E-1,-1.710968018E-1
2.805854680E-1,1.170654297E-1,7.758636475E-1,-1.130523682E-1
2.855293160E-1,1.402740479E-1,7.111053467E-1,-1.191558838E-1
2.904731640E-1,6.454467773E-2,5.748901367E-1,-2.034606934E-1
2.953864940E-1,-8.087158203E-4,3.726806641E-1,-2.663879395E-1
3.003303410E-1,-4.486083984E-3,2.272949219E-1,-2.895965576E-1
3.052436720E-1,4.499816895E-2,1.985778809E-1,-3.170928955E-1
3.101570020E-1,1.231842041E-1,2.211914062E-1,-3.494567871E-1
3.151008490E-1,1.891479492E-1,2.517242432E-1,-3.751220703E-1
3.200141790E-1,2.257995605E-1,2.963256836E-1,-3.836822510E-1
3.249275090E-1,2.368011475E-1,3.250274658E-1,-3.757324219E-1
3.298713570E-1,2.306976318E-1,3.177032471E-1,-3.610687256E-1
3.347846870E-1,2.123718262E-1,2.737274170E-1,-3.421325684E-1
3.396980170E-1,1.903686523E-1,2.248535156E-1,-3.207550049E-1
3.446418650E-1,1.610565186E-1,1.961364746E-1,-2.981414795E-1
3.495551950E-1,1.268463135E-1,1.882019043E-1,-2.755584717E-1
3.544685250E-1,9.873962402E-2,2.095794678E-1,-2.523345947E-1
3.594123730E-1,8.470153809E-2,2.419586182E-1,-2.376708984E-1
3.643257030E-1,8.470153809E-2,2.669982910E-1,-2.303466797E-1
3.692390330E-1,8.897399902E-2,2.767791748E-1,-2.254638672E-1
3.741828810E-1,8.958435059E-2,2.737274170E-1,-2.187347412E-1
3.790962110E-1,8.897399902E-2,2.676086426E-1,-2.101898193E-1
3.840095410E-1,8.714294434E-2,2.682189941E-1,-2.046813965E-1
3.889533880E-1,9.141540527E-2,2.877807617E-1,-2.052917480E-1
3.938667180E-1,9.934997559E-2,3.146514893E-1,-2.101898193E-1
3.987800490E-1,1.103515625E-1,3.458099365E-1,-2.138519287E-1
4.037238960E-1,1.207427979E-1,3.751220703E-1,-2.150726318E-1
4.086372260E-1,1.268463135E-1,3.989562988E-1,-2.150726318E-1
4.135505560E-1,1.292877197E-1,4.209442139E-1,-2.114105225E-1
4.184944040E-1,1.286773682E-1,4.380493164E-1,-2.071380615E-1
4.234077340E-1,1.286773682E-1,4.582061768E-1,-2.022399902E-1
4.283210640E-1,1.305084229E-1,4.771423340E-1,-1.967468262E-1
4.332649120E-1,1.323394775E-1,4.942474365E-1,-1.888122559E-1
4.381782420E-1,1.353912354E-1,5.125732422E-1,-1.808624268E-1
4.430915720E-1,1.396789551E-1,5.345611572E-1,-1.735382080E-1
4.480354200E-1,1.463928223E-1,5.657196045E-1,-1.692504883E-1
4.529487500E-1,1.506652832E-1,6.091003418E-1,-1.680297852E-1
4.578620800E-1,1.531219482E-1,6.872863770E-1,-1.710968018E-1
4.628059270E-1,1.378326416E-1,7.636413574E-1,-1.808624268E-1
4.677192580E-1,9.446716309E-2,7.563171387E-1,-1.857452393E-1
4.726325880E-1,7.308959961E-2,6.720123291E-1,-1.753692627E-1
4.775764350E-1,8.897399902E-2,5.993194580E-1,-1.607055664E-1
4.824897650E-1,1.091308594E-1,5.779266357E-1,-1.368865967E-1
4.874030950E-1,1.201324463E-1,6.549072266E-1,-1.069488525E-1
4.923469430E-1,9.812927246E-2,8.345031738E-1,-8.372497559E-2
4.972602730E-1,7.919311523E-2,1.011657715E0,-5.685424805E-2
5.021736030E-1,7.980346680E-2,1.084350586E0,-6.663513184E-2
5.071174510E-1,1.134033203E-1,9.102478027E-1,-9.411621094E-2
5.120307810E-1,1.451721191E-1,6.091003418E-1,-1.130523682E-1
5.169441110E-1,1.402740479E-1,4.417114258E-1,-9.472656250E-2
5.218879590E-1,1.170654297E-1,4.844665527E-1,-5.502319336E-2
5.268012890E-1,9.080505371E-2,5.473937988E-1,-4.402160645E-2
5.317451360E-1,6.698608398E-2,5.119628906E-1,-5.929565430E-2
5.366584660E-1,5.110168457E-2,4.380493164E-1,-7.334899902E-2
5.415717970E-1,4.377746582E-2,3.812408447E-1,-8.740234375E-2
5.465156440E-1,4.255676270E-2,3.684082031E-1,-9.901428223E-2
5.514289740E-1,4.681396484E-2,4.038391113E-1,-1.032714844E-1
5.563423040E-1,5.537414551E-2,4.355926514E-1,-1.124572754E-1
5.612861520E-1,5.354309082E-2,4.331512451E-1,-1.246643066E-1
5.661994820E-1,5.110168457E-2,3.989562988E-1,-1.356658936E-1
5.711128120E-1,4.133605957E-2,3.635253906E-1,-1.448211670E-1
5.760566600E-1,4.072570801E-2,3.317565918E-1,-1.515502930E-1
5.810005080E-1,4.681396484E-2,2.938842773E-1,-1.558227539E-1
5.859138380E-1,5.232238770E-2,2.468414307E-1,-1.570434570E-1
5.908576850E-1,6.086730957E-2,2.163085938E-1,-1.539916992E-1
5.957710150E-1,6.698608398E-2,2.040863037E-1,-1.436004639E-1
6.006843450E-1,7.064819336E-2,1.985778809E-1,-1.222229004E-1
6.056281930E-1,7.186889648E-2,1.826934814E-1,-8.618164062E-2
6.105415230E-1,6.513977051E-2,1.546020508E-1,-4.708862305E-2
6.154548530E-1,5.110168457E-2,1.307830811E-1,-1.531982422E-2
6.203987010E-1,3.277587891E-2,1.368865967E-1,-1.876831055E-3
6.253120310E-1,1.751708984E-2,1.643676758E-1,1.174926758E-3
6.302253610E-1,8.346557617E-3,1.936950684E-1,3.616333008E-3
6.351692090E-1,5.905151367E-3,2.156829834E-1,2.395629883E-3
6.400825390E-1,1.261901855E-2,2.266845703E-1,1.174926758E-3
6.449958690E-1,2.117919922E-2,2.370758057E-1,1.785278320E-3
6.499397160E-1,2.545166016E-2,2.358551025E-1,9.735107422E-3
6.548530470E-1,1.506042480E-2,2.352447510E-1,1.889038086E-2
6.597663770E-1,-8.087158203E-4,2.175292969E-1,2.560424805E-2
6.647102240E-1,-2.037048340E-2,1.979827881E-1,2.621459961E-2
6.696235540E-1,-3.808593750E-2,1.717071533E-1,2.743530273E-2
6.745368840E-1,-4.724121094E-2,1.436004639E-1,2.926635742E-2
6.794807320E-1,-3.930664062E-2,9.779357910E-2,3.109741211E-2
6.843940620E-1,-1.914978027E-2,5.380249023E-2,2.804565430E-2
6.893073920E-1,5.905151367E-3,1.289367676E-2,2.377319336E-2
6.942512400E-1,3.643798828E-2,-2.803039551E-2,2.314758301E-2
6.991645700E-1,6.025695801E-2,-5.491638184E-2,1.889038086E-2
7.040779000E-1,7.919311523E-2,-8.117675781E-2,1.277160645E-2
7.090217480E-1,9.019470215E-2,-9.339904785E-2,4.837036133E-3
7.139350780E-1,9.568786621E-2,-9.278869629E-2,-6.774902344E-3
7.188484080E-1,1.066894531E-1,-8.239746094E-2,-1.776123047E-2
7.237922560E-1,1.164550781E-1,-5.857849121E-2,-2.876281738E-2
7.287055860E-1,1.268463135E-1,-3.231811523E-2,-3.364562988E-2
7.336189160E-1,1.268463135E-1,-1.460266113E-2,-2.998352051E-2
7.385627630E-1,1.121826172E-1,-6.042480469E-3,-2.754211426E-2
7.434760930E-1,8.958435059E-2,-1.770019531E-3,-2.632141113E-2
7.483894240E-1,6.332397461E-2,6.179809570E-3,-2.142333984E-2
7.533332710E-1,3.950500488E-2,2.510070801E-2,-1.776123047E-2
7.582466010E-1,2.301025391E-2,4.037475586E-2,-1.226806641E-2
7.631904490E-1,1.445007324E-2,4.281616211E-2,-7.369995117E-3
7.681037790E-1,1.139831543E-2,3.791809082E-2,-4.928588867E-3
7.730171090E-1,2.243041992E-3,2.816772461E-2,-2.487182617E-3
7.779609570E-1,-6.317138672E-3,1.533508301E-2,-4.577636719E-5
7.828742870E-1,-9.979248047E-3,-4.211425781E-3,-4.577636719E-5
7.877876170E-1,-8.148193359E-3,-2.497863770E-2,-6.561279297E-4
7.927314650E-1,-3.265380859E-3,-4.820251465E-2,1.174926758E-3
7.976447950E-1,2.243041992E-3,-6.529235840E-2,3.005981445E-3
8.025581250E-1,1.017761230E-2,-8.790588379E-2,5.447387695E-3
8.075019720E-1,1.506042480E-2,-1.105041504E-1,8.514404297E-3
8.124153020E-1,1.751708984E-2,-1.349334717E-1,1.033020020E-2
8.173286330E-1,2.055358887E-2,-1.551055908E-1,1.155090332E-2
8.222724800E-1,1.751708984E-2,-1.667022705E-1,1.217651367E-2
8.271858100E-1,1.322937012E-2,-1.777038574E-1,1.277160645E-2
8.320991400E-1,1.139831543E-2,-1.905212402E-1,1.217651367E-2
8.370429880E-1,4.684448242E-3,-1.911468506E-1,1.033020020E-2
8.419563180E-1,-2.044677734E-3,-1.905212402E-1,7.293701172E-3
8.468696480E-1,-8.148193359E-3,-1.856384277E-1,5.447387695E-3
8.518134960E-1,-1.181030273E-2,-1.844177246E-1,3.005981445E-3
8.567268260E-1,-1.547241211E-2,-1.831970215E-1,3.616333008E-3
8.616706740E-1,-1.914978027E-2,-1.789245605E-1,6.057739258E-3
8.666145210E-1,-2.037048340E-2,-1.783142090E-1,1.095581055E-2
8.715278510E-1,-2.220153809E-2,-1.764831543E-1,1.522827148E-2
8.764411810E-1,-2.098083496E-2,-1.752624512E-1,2.011108398E-2
8.813850290E-1,-1.730346680E-2,-1.728210449E-1,2.560424805E-2
8.862983590E-1,-1.364135742E-2,-1.715850830E-1,2.804565430E-2
8.912116890E-1,-1.181030273E-2,-1.703643799E-1,2.987670898E-2
8.961555370E-1,-1.303100586E-2,-1.740417480E-1,3.048706055E-2
9.010688670E-1,-1.547241211E-2,-1.777038574E-1,2.926635742E-2
9.059821970E-1,-2.220153809E-2,-1.838073730E-1,2.621459961E-2
9.109260450E-1,-2.952575684E-2,-1.899261475E-1,2.438354492E-2
9.158393750E-1,-3.625488281E-2,-1.954193115E-1,2.255249023E-2
9.207527050E-1,-4.296875000E-2,-2.045745850E-1,2.255249023E-2
9.256965520E-1,-4.663085938E-2,-2.161865234E-1,2.070617676E-2
9.306098830E-1,-5.090332031E-2,-2.339019775E-1,2.011108398E-2
9.355232130E-1,-5.761718750E-2,-2.650451660E-1,2.133178711E-2
9.404670600E-1,-6.007385254E-2,-3.145446777E-1,2.560424805E-2
9.453803900E-1,-6.800842285E-2,-3.682861328E-1,2.865600586E-2
9.502937200E-1,-7.534790039E-2,-3.933410645E-1,2.926635742E-2
9.552375680E-1,-7.962036133E-2,-3.890533447E-1,2.865600586E-2
9.601508980E-1,-8.206176758E-2,-3.634033203E-1,2.133178711E-2
9.650642280E-1,-8.206176758E-2,-3.383636475E-1,1.277160645E-2
9.700080760E-1,-7.901000977E-2,-3.230895996E-1,7.888793945E-3
9.749214060E-1,-7.106018066E-2,-3.120880127E-1,7.888793945E-3
9.798652540E-1,-6.312561035E-2,-2.955932617E-1,9.735107422E-3
9.847785840E-1,-5.761718750E-2,-2.675018311E-1,1.277160645E-2
9.896919140E-1,-5.458068848E-2,-2.467193604E-1,1.766967773E-2
9.946357610E-1,-5.761718750E-2,-2.375640869E-1,2.377319336E-2
9.995490910E-1,-6.251525879E-2,-2.497863770E-1,2.621459961E-2
1.004462422E0,-6.924438477E-2,-2.711639404E-1,2.743530273E-2
1.009406269E0,-7.534790039E-2,-2.888793945E-1,2.743530273E-2
1.014319599E0,-7.656860352E-2,-3.011016846E-1,2.621459961E-2
1.019232929E0,-7.962036133E-2,-3.017120361E-1,2.560424805E-2
1.024176777E0,-8.084106445E-2,-3.029327393E-1,2.682495117E-2
1.029090107E0,-8.572387695E-2,-2.876586914E-1,2.560424805E-2
1.034003437E0,-9.367370605E-2,-2.772674561E-1,2.438354492E-2
1.038947285E0,-1.028289795E-1,-2.742309570E-1,2.133178711E-2
1.043860615E0,-1.064910889E-1,-2.662811279E-1,2.070617676E-2
1.048773945E0,-1.144409180E-1,-2.510070801E-1,1.889038086E-2
1.053717793E0,-1.150512695E-1,-2.430572510E-1,1.766967773E-2
1.058631123E0,-1.199340820E-1,-2.308502197E-1,1.522827148E-2
1.063544453E0,-1.223754883E-1,-2.192382812E-1,1.339721680E-2
1.068488300E0,-1.260375977E-1,-2.064056396E-1,8.514404297E-3
1.073401631E0,-1.235961914E-1,-1.954193115E-1,9.735107422E-3
1.078314961E0,-1.156616211E-1,-1.935882568E-1,2.926635742E-2
1.083258808E0,-1.223754883E-1,-2.241363525E-1,5.308532715E-2
1.088172138E0,-1.174926758E-1,-2.314605713E-1,6.668090820E-3
1.093085468E0,-9.733581543E-2,-1.941986084E-1,-3.730773926E-2
1.098029316E0,-7.778930664E-2,-1.459350586E-1,-4.708862305E-2
1.102942646E0,-6.800842285E-2,-8.912658691E-2,-5.319213867E-2
1.107855976E0,-6.373596191E-2,-4.820251465E-2,-6.541442871E-2
1.112799824E0,-6.924438477E-2,-9.704589844E-3,-8.068847656E-2
1.117713154E0,-7.228088379E-2,2.204895020E-2,-9.411621094E-2
1.122626484E0,-7.472229004E-2,5.014038086E-2,-1.045074463E-1
1.127570332E0,-7.228088379E-2,6.602478027E-2,-1.130523682E-1
1.132483662E0,-6.800842285E-2,7.824707031E-2,-1.191558838E-1
1.137396992E0,-6.068420410E-2,8.312988281E-2,-1.222229004E-1
1.142340840E0,-5.151367188E-2,9.596252441E-2,-1.264953613E-1
1.147284687E0,-4.357910156E-2,1.069488525E-1,-1.332244873E-1
1.152198017E0,-3.196716309E-2,1.155090332E-1,-1.374969482E-1
1.157141865E0,-2.098083496E-2,1.191711426E-1,-1.454315186E-1
1.162055195E0,-1.119995117E-2,1.161193848E-1,-1.558227539E-1
1.166968525E0,-1.434326172E-3,1.155090332E-1,-1.698760986E-1
1.171912373E0,1.078796387E-2,1.234436035E-1,-1.796417236E-1
1.176825703E0,2.239990234E-2,1.332244873E-1,-1.839141846E-1
1.181739033E0,3.094482422E-2,1.362762451E-1,-1.845245361E-1
1.186682881E0,3.643798828E-2,1.399383545E-1,-1.869659424E-1
1.191596211E0,3.765869141E-2,1.533813477E-1,-1.882019043E-1
1.196509541E0,4.010009766E-2,1.729278564E-1,-1.820831299E-1
1.201453388E0,4.010009766E-2,1.985778809E-1,-1.747589111E-1
1.206366718E0,3.765869141E-2,2.218017578E-1,-1.741485596E-1
1.211310566E0,3.765869141E-2,2.419586182E-1,-1.710968018E-1
1.216223896E0,3.828430176E-2,2.511138916E-1,-1.661987305E-1
1.221137226E0,4.133605957E-2,2.486724854E-1,-1.686553955E-1
1.226081074E0,4.193115234E-2,2.431793213E-1,-1.765899658E-1
1.230994404E0,4.499816895E-2,2.315673828E-1,-1.814727783E-1
1.235907734E0,4.681396484E-2,2.138671875E-1,-1.869659424E-1
1.240851582E0,4.866027832E-2,1.961364746E-1,-1.936950684E-1
1.245764912E0,5.842590332E-2,1.710968018E-1,-2.022399902E-1
1.250678242E0,6.576538086E-2,1.509399414E-1,-2.083587646E-1
1.255622090E0,7.492065430E-2,1.405487061E-1,-2.162933350E-1
1.260535420E0,8.224487305E-2,1.436004639E-1,-2.230224609E-1
1.265448750E0,8.775329590E-2,1.570434570E-1,-2.285156250E-1
1.270392597E0,9.568786621E-2,1.790313721E-1,-2.321777344E-1
1.275305927E0,1.030273438E-1,2.071380615E-1,-2.358398438E-1
1.280219258E0,1.103515625E-1,2.474517822E-1,-2.370605469E-1
1.285163105E0,1.201324463E-1,2.908172607E-1,-2.327880859E-1
1.290076435E0,1.292877197E-1,3.329772949E-1,-2.242431641E-1
1.294989765E0,1.335601807E-1,3.574218750E-1,-2.217864990E-1
1.299933613E0,1.323394775E-1,3.659667969E-1,-2.181243896E-1
1.304846943E0,1.164550781E-1,3.555755615E-1,-2.150726318E-1
1.309760273E0,9.324645996E-2,3.329772949E-1,-2.162933350E-1
1.314704121E0,6.820678711E-2,3.115997314E-1,-2.211761475E-1
1.319617451E0,4.803466797E-2,3.012084961E-1,-2.279052734E-1
1.324530781E0,3.399658203E-2,2.981567383E-1,-2.364501953E-1
1.329474629E0,2.362060547E-2,2.957153320E-1,-2.462310791E-1
1.334387959E0,1.445007324E-2,2.938842773E-1,-2.596740723E-1
1.339301289E0,7.736206055E-3,3.012084961E-1,-2.755584717E-1
1.344245136E0,-1.434326172E-3,3.213653564E-1,-2.908172607E-1
1.349158466E0,-1.547241211E-2,3.567962646E-1,-3.085327148E-1
1.354071797E0,-3.503417969E-2,4.099426270E-1,-3.268585205E-1
1.359015644E0,-4.846191406E-2,4.600372314E-1,-3.433532715E-1
1.363928974E0,-5.029296875E-2,4.899749756E-1,-3.561859131E-1
1.368842304E0,-5.029296875E-2,4.954681396E-1,-3.732910156E-1
1.373786152E0,-4.541015625E-2,4.722442627E-1,-3.964996338E-1
1.378699482E0,-3.747558594E-2,4.166717529E-1,-4.178924561E-1
1.383612812E0,-2.403259277E-2,3.488616943E-1,-4.313201904E-1
1.388556660E0,-1.434326172E-3,2.914428711E-1,-4.392547607E-1
1.393469990E0,2.667236328E-2,2.584533691E-1,-4.441528320E-1
1.398383320E0,5.354309082E-2,2.450103760E-1,-4.459838867E-1
1.403327168E0,7.492065430E-2,2.541809082E-1,-4.465942383E-1
1.408240498E0,8.592224121E-2,2.847137451E-1,-4.404754639E-1
1.413153828E0,8.775329590E-2,3.274688721E-1,-4.184875488E-1
1.418097675E0,8.531188965E-2,3.555755615E-1,-3.940582275E-1
1.423011006E0,6.086730957E-2,3.384704590E-1,-3.580169678E-1
1.427924336E0,1.322937012E-2,2.999877930E-1,-3.036499023E-1
1.432868183E0,-3.440856934E-2,2.633361816E-1,-2.388916016E-1
1.437812031E0,-8.206176758E-2,2.608947754E-1,-1.692504883E-1
1.442725361E0,-1.278839111E-1,2.816619873E-1,-1.008300781E-1
1.447669209E0,-1.614685059E-1,2.902221680E-1,-4.280090332E-2
1.452582539E0,-1.859130859E-1,3.372497559E-1,1.582336426E-2
1.457526386E0,-1.962890625E-1,3.714599609E-1,7.752990723E-2
1.462439716E0,-1.932373047E-1,3.598632812E-1,1.312713623E-1
1.467353047E0,-1.944580078E-1,3.195343018E-1,1.661071777E-1
1.472296894E0,-1.993560791E-1,2.669982910E-1,1.838073730E-1
1.477210224E0,-2.042388916E-1,1.949157715E-1,1.966400146E-1
1.482123554E0,-2.158355713E-1,9.045410156E-2,2.027587891E-1
1.487067402E0,-2.323455811E-1,-3.781127930E-2,2.027587891E-1
1.491980732E0,-2.445526123E-1,-1.758728027E-1,1.954193115E-1
1.496894062E0,-2.500457764E-1,-3.029327393E-1,1.887054443E-1
1.501837910E0,-2.543334961E-1,-4.202270508E-1,1.917572021E-1
1.506751240E0,-2.586059570E-1,-5.204010010E-1,1.954193115E-1
1.511664570E0,-2.616577148E-1,-5.967559814E-1,1.770935059E-1
1.516608418E0,-2.573852539E-1,-6.590728760E-1,1.373901367E-1
1.521521748E0,-2.500457764E-1,-7.281036377E-1,9.585571289E-2
1.526435078E0,-2.500457764E-1,-8.069000244E-1,6.347656250E-2
1.531378925E0,-2.506713867E-1,-8.979187012E-1,4.148864746E-2
1.536292256E0,-2.543334961E-1,-9.950408936E-1,1.948547363E-2
1.541205586E0,-2.445526123E-1,-1.063461304E0,1.785278320E-3
1.546149433E0,-2.262268066E-1,-1.088516235E0,-1.287841797E-2
1.551062763E0,-1.987304688E-1,-1.081787109E0,-2.325439453E-2
1.555976093E0,-1.675872803E-1,-1.061019897E0,-3.181457520E-2
1.560919941E0,-1.364288330E-1,-1.038421631E0,-3.974914551E-2
1.565833271E0,-1.095581055E-1,-1.012771606E0,-4.464721680E-2
1.570746601E0,-9.123229980E-2,-9.840393066E-1,-4.769897461E-2
1.575690449E0,-8.206176758E-2,-9.443359375E-1,-5.014038086E-2
1.580603779E0,-8.389282227E-2,-8.899841309E-1,-5.380249023E-2
1.585517109E0,-8.694458008E-2,-8.227844238E-1,-5.563354492E-2
1.590460957E0,-9.426879883E-2,-7.507019043E-1,-6.051635742E-2
1.595374287E0,-1.040496826E-1,-6.761627197E-1,-6.724548340E-2
1.600287617E0,-1.174926758E-1,-6.028747559E-1,-7.640075684E-2
1.605231465E0,-1.333770752E-1,-5.326080322E-1,-8.496093750E-2
1.610144795E0,-1.523132324E-1,-4.678649902E-1,-9.167480469E-2
1.615058125E0,-1.798095703E-1,-4.073791504E-1,-9.535217285E-2
1.620001972E0,-2.097320557E-1,-3.554687500E-1,-9.535217285E-2
1.624915302E0,-2.469940186E-1,-3.023223877E-1,-9.472656250E-2
1.629828633E0,-2.891387939E-1,-2.675018311E-1,-9.289550781E-2
1.634772480E0,-3.178558350E-1,-2.693328857E-1,-8.496093750E-2
1.639685810E0,-3.361816406E-1,-2.949981689E-1,-7.029724121E-2
1.644599140E0,-3.465728760E-1,-3.359222412E-1,-5.136108398E-2
1.649542988E0,-3.484039307E-1,-3.933410645E-1,-3.120422363E-2
1.654456318E0,-3.471832275E-1,-4.519805908E-1,-1.409912109E-2
1.659369648E0,-3.581695557E-1,-4.910736084E-1,-2.487182617E-3
1.664313496E0,-3.893280029E-1,-5.039062500E-1,2.395629883E-3
1.669226826E0,-4.382019043E-1,-5.051269531E-1,7.888793945E-3
1.674140156E0,-4.974517822E-1,-5.002441406E-1,1.095581055E-2
1.679084004E0,-5.530395508E-1,-4.910736084E-1,1.155090332E-2
1.683997334E0,-6.019134521E-1,-4.782562256E-1,8.514404297E-3
1.688941181E0,-6.385650635E-1,-4.593200684E-1,5.447387695E-3
1.693854511E0,-6.568908691E-1,-4.244842529E-1,2.395629883E-3
1.698767841E0,-6.507873535E-1,-3.957824707E-1,7.888793945E-3
1.703711689E0,-6.129150391E-1,-3.866119385E-1,8.514404297E-3
1.708625019E0,-5.524291992E-1,-4.006652832E-1,1.033020020E-2
1.713538349E0,-4.895172119E-1,-4.336547852E-1,1.522827148E-2
1.718482197E0,-4.278106689E-1,-4.904632568E-1,1.095581055E-2
1.723426045E0,-3.679504395E-1,-5.558319092E-1,-8.590698242E-3
1.728339375E0,-3.196868896E-1,-6.212005615E-1,-3.852844238E-2
1.733283222E0,-2.946472168E-1,-6.810607910E-1,-5.929565430E-2
1.738196552E0,-2.885437012E-1,-7.250366211E-1,-6.541442871E-2
1.743109883E0,-3.056488037E-1,-7.464294434E-1,-6.907653809E-2
1.748053730E0,-3.374023438E-1,-7.409210205E-1,-7.273864746E-2
1.752967060E0,-3.691711426E-1,-7.366485596E-1,-7.151794434E-2
1.757880390E0,-4.003295898E-1,-7.384796143E-1,-7.029724121E-2
1.762824238E0,-4.265899658E-1,-7.262573242E-1,-6.907653809E-2
1.767737568E0,-4.443054199E-1,-6.841125488E-1,-6.907653809E-2
1.772650898E0,-4.662933350E-1,-6.389007568E-1,-5.990600586E-2
1.777594746E0,-4.944000244E-1,-6.193542480E-1,-4.035949707E-2
1.782508076E0,-5.279998779E-1,-6.126403809E-1,-1.348876953E-2
1.787421406E0,-5.750274658E-1,-6.138610840E-1,1.644897461E-2
1.792365254E0,-6.391754150E-1,-6.327972412E-1,4.209899902E-2
1.797278584E0,-7.069854736E-1,-6.615142822E-1,6.713867188E-2
1.802191914E0,-7.686767578E-1,-6.993865967E-1,8.973693848E-2
1.807135761E0,-8.090057373E-1,-7.299194336E-1,1.031799316E-1
1.812049091E0,-8.309936523E-1,-7.616882324E-1,1.202850342E-1
1.816962422E0,-8.285522461E-1,-7.971191406E-1,1.398315430E-1
1.821906269E0,-8.151092529E-1,-8.325500488E-1,1.538848877E-1
1.826819599E0,-7.955627441E-1,-8.795928955E-1,1.563262939E-1
1.831732929E0,-7.717285156E-1,-9.192962646E-1,1.471557617E-1
1.836676777E0,-7.472991943E-1,-9.394531250E-1,1.367797852E-1
1.841590107E0,-7.326507568E-1,-9.199066162E-1,1.202850342E-1
1.846503437E0,-7.210235596E-1,-8.826446533E-1,1.050109863E-1
1.851447285E0,-7.100372314E-1,-8.374481201E-1,8.607482910E-2
1.856360615E0,-6.959838867E-1,-7.922363281E-1,6.286621094E-2
1.861273945E0,-6.770477295E-1,-7.665863037E-1,4.209899902E-2
1.866217793E0,-6.587219238E-1,-7.610778809E-1,2.438354492E-2
1.871131123E0,-6.391754150E-1,-7.659759521E-1,9.109497070E-3
1.876044453E0,-6.177978516E-1,-7.897949219E-1,-2.487182617E-3
1.880988300E0,-5.939788818E-1,-8.270568848E-1,-9.811401367E-3
1.885901631E0,-5.695343018E-1,-8.692169189E-1,-1.654052734E-2
1.890814961E0,-5.457153320E-1,-9.083099365E-1,-2.876281738E-2
1.895758808E0,-5.243377686E-1,-9.400634766E-1,-4.158020020E-2
1.900672138E0,-5.078430176E-1,-9.718322754E-1,-4.035949707E-2
1.905615986E0,-4.974517822E-1,-1.008483887E0,-2.325439453E-2
1.910529316E0,-5.023498535E-1,-1.049423218E0,-3.097534180E-3
1.915442646E0,-5.121154785E-1,-1.069564819E0,8.514404297E-3
1.920386494E0,-5.194549561E-1,-1.060409546E0,1.399230957E-2
1.925299824E0,-5.249328613E-1,-1.011535645E0,1.889038086E-2
1.930213154E0,-5.322723389E-1,-9.425048828E-1,2.011108398E-2
1.935157002E0,-5.426635742E-1,-8.783721924E-1,1.522827148E-2
1.940070332E0,-5.469360352E-1,-8.374481201E-1,2.395629883E-3
1.944983662E0,-5.426635742E-1,-8.142242432E-1,-2.142333984E-2
1.949927509E0,-5.286102295E-1,-7.873535156E-1,-5.807495117E-2
1.954840840E0,-5.060119629E-1,-7.543640137E-1,-1.051177979E-1
1.959754170E0,-4.785156250E-1,-7.140350342E-1,-1.625366211E-1
1.964698017E0,-4.479827881E-1,-6.835021973E-1,-2.193450928E-1
1.969611347E0,-4.088897705E-1,-6.749420166E-1,-2.767791748E-1
1.974524677E0,-3.703918457E-1,-6.835021973E-1,-3.311309814E-1
1.979468525E0,-3.374023438E-1,-7.012176514E-1,-3.806152344E-1
1.984381855E0,-3.141937256E-1,-7.470245361E-1,-4.123840332E-1
1.989295185E0,-3.111419678E-1,-8.240051270E-1,-4.227752686E-1
1.994239033E0,-3.264160156E-1,-9.125823975E-1,-4.148254395E-1
1.999152363E0,-3.563385010E-1,-9.724426270E-1,-3.861236572E-1
2.004096211E0,-4.046020508E-1,-9.693908691E-1,-3.421325684E-1
2.009040058E0,-4.638519287E-1,-9.064636230E-1,-2.944793701E-1
2.013953388E0,-5.151672363E-1,-7.928466797E-1,-2.425689697E-1
2.018866718E0,-5.432586670E-1,-6.517333984E-1,-1.826934814E-1
2.023810566E0,-5.457153320E-1,-5.197906494E-1,-1.051177979E-1
2.028723896E0,-5.182189941E-1,-4.360961914E-1,-5.554199219E-3
2.033637226E0,-4.705810547E-1,-4.116668701E-1,9.339904785E-2
2.038581074E0,-4.113311768E-1,-4.422149658E-1,1.832122803E-1
2.043494404E0,-3.484039307E-1,-5.014648438E-1,2.534637451E-1
2.048407734E0,-2.824249268E-1,-5.283355713E-1,2.931518555E-1
2.053351582E0,-2.201232910E-1,-4.984130859E-1,3.072204590E-1
2.058264912E0,-1.669769287E-1,-4.085998535E-1,3.035430908E-1
2.063178242E0,-1.174926758E-1,-2.980346680E-1,2.894897461E-1
2.068122090E0,-7.168579102E-2,-1.764831543E-1,2.705688477E-1
2.073035420E0,-2.769470215E-2,-6.040954590E-2,2.497863770E-1
2.077948750E0,1.200866699E-2,4.708862305E-2,2.326812744E-1
2.082892597E0,3.887939453E-2,1.210021973E-1,2.290191650E-1
2.087805927E0,5.598449707E-2,1.197814941E-1,2.442932129E-1
2.092719258E0,7.247924805E-2,6.419372559E-2,2.785034180E-1
2.097663105E0,9.141540527E-2,-2.380371094E-3,3.212585449E-1
2.102576435E0,1.085205078E-1,-5.430603027E-2,3.689117432E-1
2.107489765E0,1.213531494E-1,-8.668518066E-2,4.196014404E-1
2.112433613E0,1.317291260E-1,-9.461975098E-2,4.733734131E-1
2.117346943E0,1.451721191E-1,-8.058166504E-2,5.314025879E-1
2.122290791E0,1.610565186E-1,-4.391479492E-2,5.876007080E-1
2.127204121E0,1.861114502E-1,2.021789551E-2,6.364746094E-1
2.132117451E0,2.239837646E-1,1.173400879E-1,6.773986816E-1
2.137061299E0,2.862854004E-1,2.462310791E-1,7.140502930E-1
2.141974629E0,3.650817871E-1,3.903961182E-1,7.421417236E-1
2.146887959E0,4.518280029E-1,5.278472900E-1,7.537689209E-1
2.151831806E0,5.440673828E-1,6.573486328E-1,7.519226074E-1
2.156745136E0,6.369171143E-1,7.709808350E-1,7.415466309E-1
2.161658466E0,7.267150879E-1,8.687133789E-1,7.225952148E-1
2.166602314E0,8.079681396E-1,9.536285400E-1,6.963348389E-1
2.171515644E0,8.751678467E-1,1.029983521E0,6.670074463E-1
2.176428974E0,9.289093018E-1,1.103897095E0,6.297607422E-1
2.181372822E0,9.729003906E-1,1.175369263E0,5.931091309E-1
2.186286152E0,1.008941650E0,1.240112305E0,5.656127930E-1
2.191199482E0,1.036437988E0,1.299987793E0,5.472869873E-1
2.196143330E0,1.053543091E0,1.345184326E0,5.216217041E-1
2.201056660E0,1.054763794E0,1.370849609E0,4.782562256E-1
2.205969990E0,1.037658691E0,1.400772095E0,4.391479492E-1
2.210913838E0,1.006500244E0,1.449645996E0,4.214477539E-1
2.215827168E0,9.680175781E-1,1.491195679E0,4.299926758E-1
2.220740498E0,9.209747314E-1,1.495468140E0,4.532165527E-1
2.225684345E0,8.788299561E-1,1.462478638E0,4.666595459E-1
2.230597675E0,8.623352051E-1,1.445373535E0,4.385528564E-1
2.235511006E0,8.727111816E-1,1.469802856E0,3.713531494E-1
2.240454853E0,8.989868164E-1,1.543106079E0,3.029327393E-1
2.245368183E0,9.331970215E-1,1.623138428E0,2.723846436E-1
2.250281513E0,9.576416016E-1,1.660400391E0,2.839965820E-1
2.255225361E0,9.893951416E-1,1.671997070E0,3.053741455E-1
2.260138691E0,1.037658691E0,1.692764282E0,3.175964355E-1
2.265052021E0,1.107894897E0,1.733093262E0,3.108825684E-1
2.269995869E0,1.179367065E0,1.762420654E0,2.815551758E-1
2.274909199E0,1.244125366E0,1.786849976E0,2.363586426E-1
2.279822529E0,1.294219971E0,1.810668945E0,2.100830078E-1
2.284766377E0,1.307662964E0,1.811279297E0,2.149658203E-1
2.289710224E0,1.292388916E0,1.778289795E0,2.290191650E-1
2.294623554E0,1.264297485E0,1.741043091E0,2.332916260E-1
2.299567402E0,1.253295898E0,1.722717285E0,2.314605713E-1
2.304480732E0,1.255737305E0,1.703765869E0,2.253570557E-1
2.309394062E0,1.268554688E0,1.666503906E0,2.149658203E-1
2.314337910E0,1.306442261E0,1.602981567E0,2.021484375E-1
2.319251240E0,1.361419678E0,1.502182007E0,1.917572021E-1
2.324164570E0,1.420669556E0,1.374511719E0,1.941986084E-1
2.329108418E0,1.487258911E0,1.246841431E0,2.045898438E-1
2.334021748E0,1.550781250E0,1.137496948E0,2.161865234E-1
2.338935078E0,1.604537964E0,1.062347412E0,2.210845947E-1
2.343878925E0,1.643020630E0,1.015930176E0,2.106933594E-1
2.348792256E0,1.669906616E0,9.737854004E-1,1.935882568E-1
2.353736103E0,1.702285767E0,9.041442871E-1,1.801452637E-1
2.358649433E0,1.740158081E0,8.320617676E-1,1.844329834E-1
2.363562763E0,1.784744263E0,7.636413574E-1,2.076416016E-1
2.368506611E0,1.812240601E0,6.976623535E-1,2.449035645E-1
2.373419941E0,1.810409546E0,6.439056396E-1,2.858276367E-1
2.378333271E0,1.788406372E0,6.133575439E-1,3.231048584E-1
2.383277119E0,1.743209839E0,5.968780518E-1,3.572998047E-1
2.388190449E0,1.694335938E0,5.767059326E-1,3.884582520E-1
2.393103779E0,1.646087646E0,5.547180176E-1,4.263305664E-1
2.398047627E0,1.585601807E0,5.486145020E-1,4.782562256E-1
2.402960957E0,1.522079468E0,5.559387207E-1,5.173492432E-1
2.407874287E0,1.476867676E0,5.913696289E-1,5.338439941E-1
2.412818134E0,1.463424683E0,6.353607178E-1,5.362854004E-1
2.417731465E0,1.462203979E0,6.652984619E-1,5.368957520E-1
2.422644795E0,1.455490112E0,6.677398682E-1,5.350646973E-1
2.427588642E0,1.437774658E0,6.720123291E-1,5.252990723E-1
2.432501972E0,1.418228149E0,6.787261963E-1,5.136871338E-1
2.437415302E0,1.404174805E0,6.848449707E-1,4.990234375E-1
2.442359150E0,1.389511108E0,6.726226807E-1,4.855804443E-1
2.447272480E0,1.361419678E0,6.420745850E-1,4.715423584E-1
2.452185810E0,1.325988770E0,6.084747314E-1,4.483337402E-1
2.457129658E0,1.299102783E0,5.693817139E-1,4.153442383E-1
2.462042988E0,1.278945923E0,5.498352051E-1,3.768463135E-1
2.466956318E0,1.258789062E0,5.455627441E-1,3.426513672E-1
2.471900166E0,1.233123779E0,5.406799316E-1,3.292083740E-1
2.476813496E0,1.198318481E0,5.345611572E-1,3.401947021E-1
2.481726826E0,1.151885986E0,5.229644775E-1,3.469238281E-1
2.486670674E0,1.087127686E0,5.095214844E-1,3.359222412E-1
2.491584004E0,1.015045166E0,4.869079590E-1,3.121032715E-1
2.496497334E0,9.466400146E-1,4.417114258E-1,2.888946533E-1
2.501441181E0,8.769989014E-1,3.977355957E-1,2.705688477E-1
2.506354511E0,8.171234131E-1,3.659667969E-1,2.497863770E-1
2.511267841E0,7.676544189E-1,3.415374756E-1,2.284088135E-1
2.516211689E0,7.108306885E-1,3.201446533E-1,2.082519531E-1
2.521125019E0,6.564636230E-1,2.902221680E-1,1.783294678E-1
2.526038349E0,6.130981445E-1,2.645568848E-1,1.459350586E-1
2.530982197E0,5.868225098E-1,2.627258301E-1,1.166229248E-1
2.535895527E0,5.721740723E-1,2.834930420E-1,8.668518066E-2
2.540808857E0,5.569000244E-1,3.170928955E-1,5.735778809E-2
2.545752705E0,5.416259766E-1,3.567962646E-1,3.231811523E-2
2.550666035E0,5.294189453E-1,3.971252441E-1,1.277160645E-2
2.555579365E0,5.178070068E-1,4.349975586E-1,3.616333008E-3
2.560523213E0,5.068054199E-1,4.704284668E-1,3.616333008E-3
2.565436543E0,4.976501465E-1,4.979095459E-1,9.109497070E-3
2.570349873E0,4.939880371E-1,5.162353516E-1,2.011108398E-2
2.575293720E0,5.007019043E-1,5.229644775E-1,3.536987305E-2
2.580237568E0,5.147552490E-1,5.229644775E-1,5.247497559E-2
2.585150898E0,5.336914062E-1,5.235748291E-1,7.080078125E-2
2.590094746E0,5.562896729E-1,5.284576416E-1,9.095764160E-2
2.595008076E0,5.788879395E-1,5.345611572E-1,1.147918701E-1
2.599951924E0,5.953826904E-1,5.412902832E-1,1.428985596E-1
2.604865254E0,5.966033936E-1,5.480041504E-1,1.770935059E-1
2.609778584E0,5.794982910E-1,5.620574951E-1,2.198638916E-1
2.614722431E0,5.458984375E-1,5.779266357E-1,2.650604248E-1
2.619635761E0,5.055847168E-1,5.846557617E-1,3.157653809E-1
2.624549091E0,4.615936279E-1,5.834350586E-1,3.664703369E-1
2.629492939E0,4.096832275E-1,5.693817139E-1,4.080047607E-1
2.634406269E0,3.565368652E-1,5.467834473E-1,4.452667236E-1
2.639319599E0,3.033905029E-1,5.217437744E-1,4.758148193E-1
2.644263447E0,2.502441406E-1,5.009765625E-1,4.947509766E-1
2.649176777E0,1.958770752E-1,4.905853271E-1,5.014648438E-1
2.654090107E0,1.488342285E-1,4.911956787E-1,4.935302734E-1
2.659033955E0,1.127929688E-1,5.089111328E-1,4.739837646E-1
2.663947285E0,9.690856934E-2,5.235748291E-1,4.446563721E-1
2.668860615E0,1.036376953E-1,5.302886963E-1,4.061737061E-1
2.673804463E0,1.244049072E-1,5.150146484E-1,3.572998047E-1
2.678717793E0,1.439514160E-1,4.692077637E-1,3.047790527E-1
2.683631123E0,1.555633545E-1,4.075012207E-1,2.497863770E-1
2.688574970E0,1.531219482E-1,3.506927490E-1,1.923675537E-1
2.693488300E0,1.366119385E-1,3.073272705E-1,1.349487305E-1
2.698401631E0,1.085205078E-1,2.724914551E-1,7.324218750E-2
2.703345478E0,7.186889648E-2,2.578430176E-1,9.735107422E-3
2.708258808E0,2.055358887E-2,2.425689697E-1,-4.891967773E-2
2.713172138E0,-4.418945312E-2,2.254638672E-1,-1.087799072E-1
2.718115986E0,-1.132202148E-1,1.949157715E-1,-1.625366211E-1
2.723029316E0,-1.736907959E-1,1.692657471E-1,-2.016296387E-1
2.727942646E0,-2.201232910E-1,1.863708496E-1,-2.279052734E-1
2.732886494E0,-2.390594482E-1,2.737274170E-1,-2.523345947E-1
2.737799824E0,-2.225646973E-1,4.252166748E-1,-2.731018066E-1
2.742713154E0,-1.743011475E-1,5.993194580E-1,-2.773742676E-1
2.747657002E0,-1.278839111E-1,7.294311523E-1,-2.523345947E-1
2.752570332E0,-1.150512695E-1,7.630310059E-1,-1.833038330E-1
2.757483662E0,-1.266632080E-1,6.976623535E-1,-7.579040527E-2
2.762427509E0,-1.865234375E-1,6.109161377E-1,5.003356934E-2
2.767340840E0,-3.221282959E-1,5.266265869E-1,1.160125732E-1
2.772254170E0,-4.809570312E-1,3.720703125E-1,1.129455566E-1
2.777198017E0,-6.184082031E-1,1.784362793E-1,1.074523926E-1
2.782111347E0,-7.558593750E-1,3.913879395E-2,1.337127686E-1
2.787024677E0,-8.657989502E-1,2.502441406E-3,1.832122803E-1
2.791968525E0,-9.195709229E-1,2.143859863E-2,2.216949463E-1
2.796881855E0,-9.226226807E-1,2.510070801E-2,2.015380859E-1
2.801795185E0,-8.859710693E-1,-5.493164062E-4,1.239471436E-1
2.806739033E0,-8.163299561E-1,-4.086303711E-2,2.192687988E-2
2.811652363E0,-7.136993408E-1,-8.668518066E-2,-9.472656250E-2
2.816565693E0,-5.958099365E-1,-1.373748779E-1,-1.918640137E-1
2.821509541E0,-4.931793213E-1,-2.113037109E-1,-2.584533691E-1
2.826422871E0,-4.443054199E-1,-2.381744385E-1,-3.433532715E-1
2.831366718E0,-4.510345459E-1,-1.508178711E-1,-4.514770508E-1
2.836280049E0,-4.797363281E-1,-1.399230957E-2,-5.583801270E-1
2.841193379E0,-5.292205811E-1,1.356658936E-1,-6.628417969E-1
2.846137226E0,-6.049652100E-1,2.920379639E-1,-7.135467529E-1
2.851050556E0,-6.959838867E-1,4.062805176E-1,-7.043762207E-1
2.855963886E0,-7.717285156E-1,4.374389648E-1,-6.915588379E-1
2.860907734E0,-8.230438232E-1,4.013977051E-1,-6.750640869E-1
2.865851582E0,-8.670349121E-1,3.213653564E-1,-6.304626465E-1
2.870764912E0,-8.890228271E-1,1.778106689E-1,-6.066436768E-1
2.875708759E0,-8.401489258E-1,-1.521301270E-2,-6.139678955E-1
2.880622090E0,-7.741851807E-1,-1.734313965E-1,-6.286315918E-1
2.885535420E0,-7.332458496E-1,-2.461242676E-1,-6.463470459E-1
2.890479267E0,-7.222595215E-1,-2.546691895E-1,-6.493988037E-1
2.895392597E0,-7.228698730E-1,-2.620086670E-1,-6.579589844E-1
2.900305927E0,-7.185821533E-1,-3.236999512E-1,-6.848297119E-1
2.905249775E0,-7.185821533E-1,-4.348754883E-1,-7.092590332E-1
2.910163105E0,-7.192077637E-1,-5.423889160E-1,-7.135467529E-1
2.915076435E0,-7.094268799E-1,-5.796661377E-1,-7.172088623E-1
2.920020283E0,-6.898803711E-1,-5.387268066E-1,-7.202606201E-1
2.924933613E0,-6.746063232E-1,-4.593200684E-1,-7.117004395E-1
2.929846943E0,-6.709442139E-1,-3.982238770E-1,-6.909332275E-1
2.934790791E0,-6.978149414E-1,-3.908996582E-1,-6.640625000E-1
2.939704121E0,-7.650146484E-1,-4.354858398E-1,-6.292419434E-1
2.944617451E0,-8.700866699E-1,-4.861907959E-1,-5.944213867E-1
2.949561299E0,-9.867706299E-1,-4.843597412E-1,-5.687713623E-1
2.954474629E0,-1.093658447E0,-4.415893555E-1,-5.473785400E-1
2.959387959E0,-1.161468506E0,-4.244842529E-1,-5.357818604E-1
2.964331806E0,-1.195068359E0,-4.159393311E-1,-5.186767578E-1
2.969245136E0,-1.193847656E0,-3.933410645E-1,-5.198974609E-1
2.974158466E0,-1.154129028E0,-3.963928223E-1,-5.528869629E-1
2.979102314E0,-1.106491089E0,-4.226684570E-1,-5.840301514E-1
2.984015644E0,-1.074722290E0,-4.257049561E-1,-6.017608643E-1
2.988928974E0,-1.056396484E0,-3.847961426E-1,-6.054229736E-1
2.993872822E0,-1.057632446E0,-3.163604736E-1,-5.950317383E-1
2.998786152E0,-1.077774048E0,-2.534484863E-1,-5.754852295E-1
3.003699482E0,-1.097946167E0,-1.825866699E-1,-5.553283691E-1
3.008643330E0,-1.118713379E0,-1.007232666E-1,-5.443267822E-1
3.013556660E0,-1.131546021E0,-1.159667969E-3,-5.382232666E-1
3.018469990E0,-1.128479004E0,7.458496094E-2,-5.192871094E-1
3.023413838E0,-1.115661621E0,1.106262207E-1,-5.021820068E-1
3.028327168E0,-1.096710205E0,1.100158691E-1,-4.869079590E-1
3.033240498E0,-1.072891235E0,1.020660400E-1,-4.789733887E-1
3.038184345E0,-1.045410156E0,9.352111816E-2,-4.740905762E-1
3.043097675E0,-1.017913818E0,8.435058594E-2,-4.649200439E-1
3.048041523E0,-9.684448242E-1,6.907653809E-2,-4.453735352E-1
3.052954853E0,-9.116210938E-1,3.854370117E-2,-4.319305420E-1
3.057868183E0,-8.566436768E-1,-3.601074219E-3,-4.270477295E-1
3.062812031E0,-8.071594238E-1,-5.186462402E-2,-4.245910645E-1
3.067725361E0,-7.668457031E-1,-1.037902832E-1,-4.197082520E-1
3.072638691E0,-7.411956787E-1,-1.593780518E-1,-4.148254395E-1
3.077582539E0,-7.271423340E-1,-2.210693359E-1,-4.136047363E-1
3.082495869E0,-7.185821533E-1,-2.644500732E-1,-4.111633301E-1
3.087409199E0,-7.075958252E-1,-2.925415039E-1,-4.099426270E-1
3.092353047E0,-6.941528320E-1,-2.986602783E-1,-4.129943848E-1
3.097266377E0,-6.770477295E-1,-2.888793945E-1,-4.184875488E-1
3.102179707E0,-6.703338623E-1,-2.778930664E-1,-4.282684326E-1
3.107123554E0,-6.599426270E-1,-2.748260498E-1,-4.337615967E-1
3.112036884E0,-6.587219238E-1,-2.748260498E-1,-4.319305420E-1
3.116950215E0,-6.581115723E-1,-2.711639404E-1,-4.264373779E-1
3.121894062E0,-6.666717529E-1,-2.583465576E-1,-4.252166748E-1
3.126807392E0,-6.862182617E-1,-2.406158447E-1,-4.258117676E-1
3.131720722E0,-7.124786377E-1,-2.290191650E-1,-4.307098389E-1
3.136664570E0,-7.363128662E-1,-2.210693359E-1,-4.331512451E-1
3.141577900E0,-7.607421875E-1,-2.253570557E-1,-4.319305420E-1
3.146491230E0,-7.815093994E-1,-2.339019775E-1,-4.258117676E-1
3.151435078E0,-7.967834473E-1,-2.467193604E-1,-4.178924561E-1
3.156378925E0,-8.108215332E-1,-2.705535889E-1,-4.099426270E-1
3.161292256E0,-8.199920654E-1,-3.029327393E-1,-3.964996338E-1
3.166236103E0,-8.193817139E-1,-3.548583984E-1,-3.757324219E-1
3.171149433E0,-8.047180176E-1,-4.238891602E-1,-3.445739746E-1
3.176062763E0,-7.729644775E-1,-4.929046631E-1,-3.024291992E-1
3.181006611E0,-7.253112793E-1,-5.607147217E-1,-2.541656494E-1
3.185919941E0,-6.691131592E-1,-6.321868896E-1,-2.028503418E-1
3.190833271E0,-6.141357422E-1,-7.134399414E-1,-1.588745117E-1
3.195777119E0,-5.622100830E-1,-7.977294922E-1,-1.246643066E-1
3.200690449E0,-5.206756592E-1,-8.740997314E-1,-1.057281494E-1
3.205603779E0,-4.815673828E-1,-9.235687256E-1,-9.716796875E-2
3.210547627E0,-4.528656006E-1,-9.461822510E-1,-1.008300781E-1
3.215460957E0,-4.296569824E-1,-9.406738281E-1,-1.191558838E-1
3.220374287E0,-4.192657471E-1,-9.064636230E-1,-1.429901123E-1
3.225318134E0,-4.107055664E-1,-8.423309326E-1,-1.631469727E-1
3.230231465E0,-4.009399414E-1,-7.726898193E-1,-1.808624268E-1
3.235144795E0,-3.862762451E-1,-7.073364258E-1,-1.961364746E-1
3.240088642E0,-3.661193848E-1,-6.700592041E-1,-2.108001709E-1
3.245001972E0,-3.343505859E-1,-6.682281494E-1,-2.254638672E-1
3.249915302E0,-2.952575684E-1,-7.006072998E-1,-2.468414307E-1
3.254859150E0,-2.573852539E-1,-7.659759521E-1,-2.743377686E-1
3.259772480E0,-2.231750488E-1,-8.288879395E-1,-2.926635742E-1
3.264685810E0,-1.969146729E-1,-8.930206299E-1,-3.005981445E-1
3.269629658E0,-1.645355225E-1,-9.418945312E-1,-3.018188477E-1
3.274542988E0,-1.095581055E-1,-9.522857666E-1,-3.146514893E-1
3.279486836E0,-4.846191406E-2,-9.528961182E-1,-3.598480225E-1
3.284400166E0,2.606201172E-2,-9.449615479E-1,-4.160461426E-1
3.289313496E0,9.446716309E-2,-9.223480225E-1,-4.655303955E-1
3.294257343E0,1.470031738E-1,-8.692169189E-1,-4.979095459E-1
3.299170674E0,1.934356689E-1,-7.598571777E-1,-5.162353516E-1
3.304084004E0,2.313079834E-1,-5.723266602E-1,-5.180664062E-1
3.309027851E0,2.685699463E-1,-3.102569580E-1,-5.058441162E-1
3.313941181E0,3.094940186E-1,4.333496094E-3,-4.826354980E-1
3.318854511E0,3.608093262E-1,3.280944824E-1,-4.349975586E-1
3.323798359E0,4.194488525E-1,6.157989502E-1,-3.677978516E-1
3.328711689E0,4.860382080E-1,8.436584473E-1,-3.005981445E-1
3.333625019E0,5.477294922E-1,1.006149292E0,-2.303466797E-1
3.338568867E0,6.008758545E-1,1.103897095E0,-1.570434570E-1
3.343482197E0,6.417999268E-1,1.119171143E0,-7.701110840E-2
3.348395527E0,6.900634766E-1,1.050140381E0,1.826477051E-2
3.353339375E0,7.572631836E-1,9.273529053E-1,1.111297607E-1
3.358252705E0,8.317871094E-1,8.088531494E-1,1.514434814E-1
3.363166035E0,9.002075195E-1,7.147674561E-1,1.563262939E-1
3.368109883E0,9.588623047E-1,6.145782471E-1,1.893157959E-1
3.373023213E0,1.010772705E0,4.826507568E-1,2.662811279E-1
3.377936543E0,1.055984497E0,3.280944824E-1,3.811340332E-1
3.382880390E0,1.087753296E0,1.973571777E-1,5.014648438E-1
3.387793720E0,1.088973999E0,1.142883301E-1,5.943298340E-1
3.392707050E0,1.054763794E0,8.618164062E-2,6.584625244E-1
3.397650898E0,9.954986572E-1,1.093902588E-1,7.140502930E-1
3.402564228E0,9.246520996E-1,1.643676758E-1,7.623138428E-1
3.407477558E0,8.507232666E-1,2.382965088E-1,7.953033447E-1
3.412421406E0,7.890319824E-1,3.311462402E-1,8.179016113E-1
3.417334736E0,7.419891357E-1,4.172821045E-1,8.252258301E-1
3.422248066E0,7.022857666E-1,4.930267334E-1,8.197326660E-1
3.427191914E0,6.729736328E-1,5.699920654E-1,8.087463379E-1
3.432105244E0,6.570892334E-1,6.365814209E-1,7.989654541E-1
3.437049091E0,6.613616943E-1,6.842193604E-1,7.745361328E-1
3.441992939E0,6.925201416E-1,7.312622070E-1,7.201538086E-1
3.446906269E0,7.419891357E-1,7.874603271E-1,6.566314697E-1
3.451819599E0,7.987976074E-1,8.552703857E-1,6.114349365E-1
3.456763447E0,8.549957275E-1,9.218597412E-1,5.924835205E-1
3.461676777E0,9.057006836E-1,9.560699463E-1,5.821075439E-1
3.466590107E0,9.466400146E-1,9.713287354E-1,5.601196289E-1
3.471533955E0,9.845123291E-1,9.859924316E-1,5.222320557E-1
3.476447285E0,1.049255371E0,1.018371582E0,4.599304199E-1
3.481360615E0,1.142105103E0,1.043426514E0,3.805236816E-1
3.486304463E0,1.242294312E0,1.047698975E0,3.157653809E-1
3.491217793E0,1.325988770E0,1.029983521E0,2.827758789E-1
3.496131123E0,1.380966187E0,1.007995605E0,2.839965820E-1
3.501074970E0,1.412109375E0,9.884338379E-1,3.072204590E-1
3.505988300E0,1.430435181E0,9.719543457E-1,3.236999512E-1
3.510901631E0,1.438995361E0,9.267425537E-1,3.316497803E-1
3.515845478E0,1.442047119E0,8.259582520E-1,3.542480469E-1
3.520758808E0,1.437774658E0,7.056121826E-1,3.902893066E-1
3.525702656E0,1.431655884E0,6.115417480E-1,4.257202148E-1
3.530615986E0,1.429840088E0,5.315093994E-1,4.672546387E-1
3.535529316E0,1.438385010E0,4.307098389E-1,5.246887207E-1
3.540473164E0,1.444488525E0,3.513031006E-1,5.924835205E-1
3.545386494E0,1.440216064E0,3.061065674E-1,6.529693604E-1
3.550299824E0,1.422500610E0,2.920379639E-1,7.024536133E-1
3.555243672E0,1.398666382E0,2.944946289E-1,7.427673340E-1
3.560157002E0,1.386459351E0,2.663879395E-1,7.702484131E-1
3.565070332E0,1.369354248E0,2.529449463E-1,7.983551025E-1
3.570014179E0,1.341247559E0,2.749481201E-1,8.252258301E-1
3.574927509E0,1.314987183E0,3.018188477E-1,8.502807617E-1
3.579840840E0,1.289337158E0,3.097686768E-1,8.618774414E-1
3.584784687E0,1.276504517E0,3.103637695E-1,8.637084961E-1
3.589698017E0,1.281387329E0,3.054809570E-1,8.643341064E-1
3.594611347E0,1.278335571E0,3.042602539E-1,8.856964111E-1
3.599555195E0,1.275283813E0,2.798309326E-1,9.205322266E-1
3.604468525E0,1.270996094E0,2.340087891E-1,9.467926025E-1
3.609381855E0,1.284439087E0,1.839294434E-1,9.669494629E-1
3.614325703E0,1.289947510E0,1.148986816E-1,9.791717529E-1
3.619239033E0,1.282608032E0,6.297302246E-2,9.748992920E-1
3.624152363E0,1.267959595E0,2.754211426E-2,9.461822510E-1
3.629096211E0,1.234344482E0,2.502441406E-3,9.138031006E-1
3.634009541E0,1.166549683E0,-2.131652832E-2,8.948669434E-1
3.638922871E0,1.080413818E0,-4.269409180E-2,8.918151855E-1
3.643866718E0,9.912261963E-1,-5.125427246E-2,8.814392090E-1
3.648780049E0,9.203643799E-1,-6.225585938E-2,8.582153320E-1
3.653693379E0,8.708801270E-1,-7.812500000E-2,8.282775879E-1
3.658637226E0,8.354492188E-1,-9.217834473E-2,7.849121094E-1
3.663550556E0,8.006439209E-1,-1.001281738E-1,7.274932861E-1
3.668463886E0,7.706909180E-1,-1.068420410E-1,6.688537598E-1
3.673407734E0,7.481079102E-1,-1.257781982E-1,6.114349365E-1
3.678321064E0,7.346649170E-1,-1.599884033E-1,5.692749023E-1
3.683234394E0,7.193908691E-1,-1.996917725E-1,5.436248779E-1
3.688178242E0,6.937408447E-1,-2.436828613E-1,5.344543457E-1
3.693091572E0,6.485290527E-1,-2.778930664E-1,5.124664307E-1
3.698004902E0,5.892791748E-1,-2.974395752E-1,4.764251709E-1
3.702948750E0,5.214691162E-1,-3.126983643E-1,4.342651367E-1
3.707862080E0,4.524383545E-1,-3.243103027E-1,3.921203613E-1
3.712775410E0,3.864593506E-1,-3.304138184E-1,3.536376953E-1
3.717719258E0,3.217163086E-1,-3.371429443E-1,3.151550293E-1
3.722663105E0,2.587890625E-1,-3.347015381E-1,2.723846436E-1
3.727576435E0,1.970977783E-1,-3.206481934E-1,2.277984619E-1
3.732520283E0,1.390533447E-1,-2.943725586E-1,1.868743896E-1
3.737433613E0,8.653259277E-2,-2.638244629E-1,1.422729492E-1
3.742346943E0,4.193115234E-2,-2.345123291E-1,9.095764160E-2
3.747290791E0,8.956909180E-3,-2.094726562E-1,3.843688965E-2
3.752204121E0,-9.368896484E-3,-1.923675537E-1,-1.226806641E-2
3.757147968E0,-2.830505371E-2,-1.746520996E-1,-6.051635742E-2
3.762061299E0,-4.968261719E-2,-1.551055908E-1,-1.051177979E-1
3.766974629E0,-7.350158691E-2,-1.349334717E-1,-1.478881836E-1
3.771918476E0,-9.855651855E-2,-1.074523926E-1,-1.924743652E-1
3.776831806E0,-1.162719727E-1,-8.058166504E-2,-2.364501953E-1
3.781745136E0,-1.266632080E-1,-5.003356934E-2,-2.810363770E-1
3.786688984E0,-1.303253174E-1,-2.803039551E-2,-3.219757080E-1
3.791602314E0,-1.284942627E-1,-6.042480469E-3,-3.549652100E-1
3.796515644E0,-1.168823242E-1,2.204895020E-2,-3.849029541E-1
3.801459492E0,-9.672546387E-2,5.075073242E-2,-4.160461426E-1
3.806372822E0,-7.106018066E-2,8.007812500E-2,-4.404754639E-1
3.811286152E0,-4.357910156E-2,1.136779785E-1,-4.557647705E-1
3.816230000E0,-1.791381836E-2,1.478881836E-1,-4.612579346E-1
3.821143330E0,7.125854492E-3,1.839294434E-1,-4.582061768E-1
3.826056660E0,3.521728516E-2,2.211914062E-1,-4.478149414E-1
3.831000508E0,7.064819336E-2,2.498931885E-1,-4.307098389E-1
3.835913838E0,1.127929688E-1,2.669982910E-1,-4.074859619E-1
3.840827168E0,1.585998535E-1,2.694549561E-1,-3.787841797E-1
3.845771015E0,2.074737549E-1,2.608947754E-1,-3.390808105E-1
3.850684345E0,2.557373047E-1,2.370758057E-1,-2.847137451E-1
3.855597675E0,2.997131348E-1,2.034759521E-1,-2.108001709E-1
3.860541523E0,3.363647461E-1,1.668090820E-1,-1.124572754E-1
3.865454853E0,3.498077393E-1,1.368865967E-1,-1.876831055E-3
3.870368183E0,3.406524658E-1,1.173400879E-1,1.135711670E-1
3.875312031E0,3.192596436E-1,1.148986816E-1,2.106933594E-1
3.880225361E0,2.978973389E-1,1.307830811E-1,2.748260498E-1
3.885138691E0,2.679595947E-1,1.674346924E-1,3.175964355E-1
3.890082539E0,2.190856934E-1,2.156829834E-1,3.566894531E-1
3.894995869E0,1.482238770E-1,2.822723389E-1,3.835754395E-1
3.899909199E0,6.820678711E-2,3.708496094E-1,3.860168457E-1
3.904853047E0,-3.875732422E-3,4.808044434E-1,3.591308594E-1
3.909766377E0,-5.702209473E-2,6.054229736E-1,3.127136230E-1
3.914679707E0,-9.060668945E-2,7.104949951E-1,2.693328857E-1
3.919623554E0,-1.156616211E-1,7.783050537E-1,2.449035645E-1
3.924536884E0,-1.547546387E-1,8.192291260E-1,2.369537354E-1
3.929450215E0,-2.072906494E-1,8.314514160E-1,2.290191650E-1
3.934394062E0,-2.604370117E-1,8.228912354E-1,2.113037109E-1
3.939307392E0,-2.861022949E-1,8.155670166E-1,1.777038574E-1
3.944220722E0,-2.781524658E-1,8.137359619E-1,1.288299561E-1
3.949164570E0,-2.488250732E-1,8.131256104E-1,6.896972656E-2
3.954077900E0,-2.286682129E-1,8.381652832E-1,9.735107422E-3
3.958991230E0,-2.280578613E-1,9.114685059E-1,-4.035949707E-2
3.963935078E0,-2.201232910E-1,1.009826660E0,-7.701110840E-2
3.968848408E0,-1.969146729E-1,1.105728149E0,-9.960937500E-2
3.973792256E0,-1.755218506E-1,1.199188232E0,-9.350585938E-2
3.978705586E0,-1.700286865E-1,1.277389526E0,-6.968688965E-2
3.983618916E0,-1.339874268E-1,1.332977295E0,-5.868530273E-2
3.988562763E0,-1.156616211E-1,1.357406616E0,-5.990600586E-2
3.993476093E0,-2.213439941E-1,1.342132568E0,-7.946777344E-2
3.998389424E0,-4.455261230E-1,1.249282837E0,-1.142730713E-1
4.003333271E0,-7.021026611E-1,1.105728149E0,-1.344451904E-1
4.008277119E0,-9.470520020E-1,9.511871338E-1,-1.222229004E-1
4.013190449E0,-1.144363403E0,7.874603271E-1,-1.032714844E-1
4.018134297E0,-1.236602783E0,6.060333252E-1,-1.063385010E-1
4.023047627E0,-1.196899414E0,4.227752686E-1,-1.185607910E-1
4.027960957E0,-1.039306641E0,2.657775879E-1,-1.405487061E-1
4.032904804E0,-8.059387207E-1,1.527709961E-1,-1.778106689E-1
4.037818134E0,-5.677032471E-1,6.480407715E-2,-2.291259766E-1
4.042731465E0,-3.923797607E-1,1.043701172E-2,-2.932586670E-1
4.047675312E0,-2.934265137E-1,-1.948547363E-2,-3.567962646E-1
4.052588642E0,-2.537078857E-1,-6.652832031E-3,-4.099426270E-1
4.057501972E0,-2.543334961E-1,7.702636719E-2,-4.673614502E-1
4.062445820E0,-2.836456299E-1,2.053070068E-1,-5.351715088E-1
4.067359150E0,-3.325195312E-1,3.470306396E-1,-5.956420898E-1
4.072272480E0,-3.740539551E-1,5.064697266E-1,-6.377868652E-1
4.077216328E0,-4.052124023E-1,6.433105469E-1,-6.585693359E-1
4.082129658E0,-4.553070068E-1,7.214965820E-1,-6.542816162E-1
4.087042988E0,-5.371551514E-1,7.422637939E-1,-6.274108887E-1
4.091986836E0,-6.184082031E-1,6.671142578E-1,-6.090850830E-1
4.096900166E0,-6.898803711E-1,5.113525391E-1,-6.249694824E-1
4.101813496E0,-7.637939453E-1,3.445739746E-1,-6.255798340E-1
4.106757343E0,-8.316040039E-1,1.924743652E-1,-5.809936523E-1
4.111670674E0,-8.682556152E-1,1.411437988E-2,-5.125732422E-1
4.116584004E0,-8.829040527E-1,-1.483764648E-1,-4.594268799E-1
4.121527851E0,-9.024658203E-1,-2.381744385E-1,-4.404754639E-1
4.126441181E0,-9.342193604E-1,-2.626037598E-1,-4.502563477E-1
4.131354511E0,-9.629364014E-1,-2.888793945E-1,-4.771423340E-1
4.136298359E0,-9.727020264E-1,-3.487396240E-1,-5.046234131E-1
4.141211689E0,-9.592742920E-1,-4.257049561E-1,-5.272216797E-1
4.146125019E0,-9.275054932E-1,-4.788665771E-1,-5.345611572E-1
4.151068867E0,-8.749694824E-1,-4.868011475E-1,-5.394439697E-1
4.155982197E0,-8.126678467E-1,-4.513702393E-1,-5.461578369E-1
4.160895527E0,-7.344665527E-1,-3.719482422E-1,-5.510406494E-1
4.165839375E0,-6.538391113E-1,-2.736053467E-1,-5.534973145E-1
4.170752705E0,-5.982513428E-1,-1.905212402E-1,-5.443267822E-1
4.175666035E0,-5.805358887E-1,-1.410522461E-1,-5.192871094E-1
4.180609883E0,-6.092376709E-1,-1.380004883E-1,-4.765319824E-1
4.185523213E0,-6.697235107E-1,-1.563262939E-1,-4.276580811E-1
4.190436543E0,-7.326507568E-1,-1.880798340E-1,-4.056701660E-1
4.195380390E0,-7.772369385E-1,-2.027435303E-1,-4.087066650E-1
4.200293720E0,-7.992248535E-1,-2.045745850E-1,-4.233703613E-1
4.205237568E0,-8.041076660E-1,-2.057952881E-1,-4.374389648E-1
4.210150898E0,-8.071594238E-1,-2.088470459E-1,-4.533233643E-1
4.215064228E0,-8.138885498E-1,-1.996917725E-1,-4.710235596E-1
4.220008076E0,-8.218231201E-1,-1.813659668E-1,-4.899597168E-1
4.224921406E0,-8.346557617E-1,-1.557159424E-1,-5.058441162E-1
4.229834736E0,-8.596954346E-1,-1.147918701E-1,-5.192871094E-1
4.234778584E0,-8.963470459E-1,-6.163024902E-2,-5.229492188E-1
4.239691914E0,-9.421691895E-1,-1.460266113E-2,-5.162353516E-1
4.244605244E0,-1.000198364E0,4.943847656E-3,-5.082855225E-1
4.249549091E0,-1.055786133E0,5.554199219E-3,-4.942474365E-1
4.254462422E0,-1.102828979E0,-1.399230957E-2,-4.691925049E-1
4.259375752E0,-1.141311646E0,-5.064392090E-2,-4.392547607E-1
4.264319599E0,-1.168792725E0,-8.912658691E-2,-4.129943848E-1
4.269232929E0,-1.178573608E0,-1.282196045E-1,-3.910064697E-1
4.274146259E0,-1.174911499E0,-1.795349121E-1,-3.708496094E-1
4.279090107E0,-1.159637451E0,-2.503967285E-1,-3.513031006E-1
4.284003437E0,-1.133361816E0,-3.359222412E-1,-3.390808105E-1
4.288916767E0,-1.099777222E0,-4.214477539E-1,-3.286895752E-1
4.293860615E0,-1.071060181E0,-5.008544922E-1,-3.250274658E-1
4.298804463E0,-1.047241211E0,-5.827026367E-1,-3.244171143E-1
4.303717793E0,-1.027694702E0,-6.676177979E-1,-3.238067627E-1
4.308661640E0,-1.015472412E0,-7.476501465E-1,-3.207550049E-1
4.313574970E0,-1.005691528E0,-8.142242432E-1,-3.183135986E-1
4.318488300E0,-9.934692383E-1,-8.637084961E-1,-3.152465820E-1
4.323432148E0,-9.800415039E-1,-9.083099365E-1,-3.183135986E-1
4.328345478E0,-9.592742920E-1,-9.370117188E-1,-3.348083496E-1
4.333258808E0,-9.433898926E-1,-9.565582275E-1,-3.537445068E-1
4.338202656E0,-9.366760254E-1,-9.871063232E-1,-3.757324219E-1
4.343115986E0,-9.342193604E-1,-1.030471802E0,-3.818359375E-1
4.348029316E0,-9.232330322E-1,-1.070190430E0,-3.824462891E-1
4.352973164E0,-9.238433838E-1,-1.097671509E0,-4.020080566E-1
4.357886494E0,-9.226226807E-1,-1.104995728E0,-4.276580811E-1
4.362799824E0,-9.281158447E-1,-1.135543823E0,-4.331512451E-1
4.367743672E0,-9.256744385E-1,-1.174026489E0,-4.245910645E-1
4.372657002E0,-9.116210938E-1,-1.225341797E0,-4.050445557E-1
4.377570332E0,-8.835296631E-1,-1.281539917E0,-3.769531250E-1
4.382514179E0,-8.413696289E-1,-1.334075928E0,-3.384704590E-1
4.387427509E0,-7.919006348E-1,-1.405548096E0,-2.944793701E-1
4.392340840E0,-7.491302490E-1,-1.484344482E0,-2.492828369E-1
4.397284687E0,-7.210235596E-1,-1.580261230E0,-1.833038330E-1
4.402198017E0,-6.843719482E-1,-1.685333252E0,-9.657287598E-2
4.407111347E0,-6.623840332E-1,-1.787338257E0,5.645751953E-4
4.412055195E0,-6.562805176E-1,-1.878356934E0,1.123504639E-1
4.416968525E0,-6.666717529E-1,-1.967544556E0,2.375793457E-1
4.421881855E0,-6.898803711E-1,-2.054290771E0,3.560791016E-1
4.426825703E0,-7.277526855E-1,-2.127609253E0,4.538116455E-1
4.431739033E0,-7.717285156E-1,-2.200897217E0,5.344543457E-1
4.436652363E0,-8.218231201E-1,-2.230224609E0,5.882110596E-1
4.441596211E0,-8.743591309E-1,-2.203338623E0,6.163177490E-1
4.446509541E0,-9.146728516E-1,-2.110504150E0,6.218109131E-1
4.451453388E0,-9.189605713E-1,-1.981597900E0,6.138763428E-1
4.456366718E0,-8.743591309E-1,-1.838653564E0,5.985870361E-1
4.461280049E0,-7.876129150E-1,-1.697540283E0,5.747680664E-1
4.466223896E0,-6.746063232E-1,-1.558273315E0,5.338439941E-1
4.471137226E0,-5.567016602E-1,-1.404327393E0,4.800872803E-1
4.476050556E0,-4.485778809E-1,-1.211303711E0,4.092254639E-1
4.480994404E0,-3.520660400E-1,-9.681701660E-1,3.059997559E-1
4.485907734E0,-2.628784180E-1,-6.712799072E-1,1.697692871E-1
4.490821064E0,-1.663665771E-1,-3.328552246E-1,1.155090332E-2
4.495764912E0,-5.090332031E-2,1.106262207E-2,-1.429901123E-1
4.500678242E0,9.263610840E-2,3.152618408E-1,-2.834930420E-1
4.505591572E0,2.478027344E-1,5.596160889E-1,-4.081115723E-1
4.510535420E0,4.145660400E-1,7.746429443E-1,-4.972991943E-1
4.515448750E0,5.966033936E-1,9.603424072E-1,-5.125732422E-1
4.520362080E0,7.804718018E-1,1.119171143E0,-4.575805664E-1
4.525305927E0,9.289093018E-1,1.237670898E0,-3.861236572E-1
4.530219258E0,1.030929565E0,1.268218994E0,-2.908172607E-1
4.535132588E0,1.098129272E0,1.215682983E0,-1.460418701E-1
4.540076435E0,1.142105103E0,1.111846924E0,-1.287841797E-2
4.544989765E0,1.164718628E0,9.297943115E-1,7.324218750E-2
4.549903095E0,1.151275635E0,6.958312988E-1,1.184539795E-1
4.554846943E0,1.074905396E0,4.893646240E-1,1.416625977E-1
4.559760273E0,9.509124756E-1,3.513031006E-1,1.483764648E-1
4.564673603E0,8.097991943E-1,2.767791748E-1,1.447143555E-1
4.569617451E0,6.851806641E-1,2.639465332E-1,1.337127686E-1
4.574530781E0,5.874481201E-1,3.195343018E-1,1.172332764E-1
4.579474629E0,5.202484131E-1,4.288787842E-1,1.019592285E-1
4.584418476E0,4.786987305E-1,5.577850342E-1,1.056213379E-1
4.589331806E0,4.719848633E-1,6.634521484E-1,1.312713623E-1
4.594245136E0,5.037536621E-1,7.379913330E-1,1.618194580E-1
4.599188984E0,5.532379150E-1,7.899017334E-1,1.935882568E-1
4.604102314E0,6.088256836E-1,8.320617676E-1,2.351226807E-1
4.609015644E0,6.576843262E-1,8.796997070E-1,2.772827148E-1
4.613959492E0,6.931152344E-1,9.371185303E-1,3.047790527E-1
4.618872822E0,7.224426270E-1,1.025100708E0,2.962188721E-1
4.623786152E0,7.536010742E-1,1.141769409E0,2.522277832E-1
4.628730000E0,7.853546143E-1,1.249893188E0,1.893157959E-1
4.633643330E0,8.061370850E-1,1.299987793E0,1.398315430E-1
4.638556660E0,8.140716553E-1,1.271881104E0,1.129455566E-1
4.643500508E0,8.140716553E-1,1.185134888E0,9.768676758E-2
4.648413838E0,8.159027100E-1,1.081298828E0,9.095764160E-2
4.653327168E0,8.153076172E-1,9.872131348E-1,9.768676758E-2
4.658271015E0,8.134613037E-1,9.108581543E-1,1.117248535E-1
4.663184345E0,8.183441162E-1,8.509979248E-1,1.257934570E-1
4.668097675E0,8.305664062E-1,8.131256104E-1,1.422729492E-1
4.673041523E0,8.525543213E-1,7.856292725E-1,1.605987549E-1
4.677954853E0,8.824920654E-1,7.611999512E-1,1.734313965E-1
4.682898701E0,9.154815674E-1,7.495880127E-1,1.832122803E-1
4.687812031E0,9.435729980E-1,7.459259033E-1,1.941986084E-1
4.692725361E0,9.631195068E-1,7.416534424E-1,2.082519531E-1
4.697669209E0,9.747314453E-1,7.178192139E-1,2.296295166E-1
4.702582539E0,9.765625000E-1,6.732330322E-1,2.559051514E-1
4.707495869E0,9.643402100E-1,6.103210449E-1,2.907104492E-1
4.712439716E0,9.301300049E-1,5.321197510E-1,3.322601318E-1
4.717353047E0,8.757781982E-1,4.423217773E-1,3.774566650E-1
4.722266377E0,8.073577881E-1,3.488616943E-1,4.269409180E-1
4.727210224E0,7.340545654E-1,2.615051270E-1,4.745941162E-1
4.732123554E0,6.784667969E-1,1.930847168E-1,4.996337891E-1
4.737036884E0,6.491394043E-1,1.564331055E-1,5.033111572E-1
4.741980732E0,6.473083496E-1,1.631469727E-1,4.953613281E-1
4.746894062E0,6.613616943E-1,1.912536621E-1,4.758148193E-1
4.751807392E0,6.815185547E-1,2.108001709E-1,4.477081299E-1
4.756751240E0,7.096099854E-1,2.364654541E-1,4.031219482E-1
4.761664570E0,7.474822998E-1,2.743377686E-1,3.518066406E-1
4.766577900E0,7.847595215E-1,2.938842773E-1,3.078155518E-1
4.771521748E0,8.250732422E-1,2.957153320E-1,2.766723633E-1
4.776435078E0,8.580627441E-1,2.792205811E-1,2.412414551E-1
4.781348408E0,8.806610107E-1,2.865600586E-1,1.966400146E-1
4.786292256E0,8.928833008E-1,3.012084961E-1,1.679382324E-1
4.791205586E0,8.989868164E-1,3.024291992E-1,1.544952393E-1
4.796118916E0,9.173126221E-1,2.895965576E-1,1.416625977E-1
4.801062763E0,9.496917725E-1,2.596740723E-1,1.318969727E-1
4.805976093E0,9.985504150E-1,2.199707031E-1,1.208953857E-1
4.810889424E0,1.066360474E0,2.010345459E-1,1.074523926E-1
4.815833271E0,1.134170532E0,2.144622803E-1,7.997131348E-2
4.820746601E0,1.195251465E0,2.193603516E-1,4.881286621E-2
4.825659931E0,1.255126953E0,1.949157715E-1,3.109741211E-2
4.830603779E0,1.321090698E0,9.352111816E-2,1.582336426E-2
4.835517109E0,1.375457764E0,-3.231811523E-2,6.668090820E-3
4.840430439E0,1.398071289E0,-1.153869629E-1,1.785278320E-3
4.845374287E0,1.403564453E0,-1.636505127E-1,-6.149291992E-3
4.850287617E0,1.397445679E0,-1.960296631E-1,-2.142333984E-2
4.855200947E0,1.377304077E0,-2.167968750E-1,-2.447509766E-2
4.860144795E0,1.340652466E0,-2.357330322E-1,-6.774902344E-3
4.865088642E0,1.286285400E0,-2.589416504E-1,2.192687988E-2
4.870001972E0,1.219696045E0,-2.864379883E-1,4.270935059E-2
4.874945820E0,1.163497925E0,-3.212585449E-1,4.942321777E-2
4.879859150E0,1.113403320E0,-3.499603271E-1,5.554199219E-2
4.884772480E0,1.068801880E0,-3.878326416E-1,6.103515625E-2
4.889716328E0,1.026046753E0,-4.159393311E-1,7.019042969E-2
4.894629658E0,9.814453125E-1,-4.177703857E-1,7.141113281E-2
4.899573506E0,9.460144043E-1,-4.128875732E-1,7.080078125E-2
4.904486836E0,9.124298096E-1,-4.098205566E-1,7.080078125E-2
4.909400166E0,8.690490723E-1,-4.019012451E-1,6.164550781E-2
4.914344013E0,8.238525391E-1,-3.872375488E-1,4.025268555E-2
4.919257343E0,7.823181152E-1,-3.731689453E-1,1.217651367E-2
4.924170674E0,7.450408936E-1,-3.676910400E-1,-1.776123047E-2
4.929114521E0,7.089996338E-1,-3.780670166E-1,-4.280090332E-2
4.934027851E0,6.638031006E-1,-3.866119385E-1,-6.358337402E-2
4.938941181E0,6.082153320E-1,-3.805084229E-1,-8.435058594E-2
4.943885029E0,5.489501953E-1,-3.762359619E-1,-1.051177979E-1
4.948798359E0,5.019226074E-1,-3.805084229E-1,-1.246643066E-1
4.953711689E0,4.744415283E-1,-3.914947510E-1,-1.399383545E-1
4.958655537E0,4.597778320E-1,-3.970031738E-1,-1.582641602E-1
4.963568867E0,4.506072998E-1,-3.884582520E-1,-1.851348877E-1
4.968482197E0,4.469451904E-1,-3.774566650E-1,-2.077484131E-1
4.973426045E0,4.444885254E-1,-3.780670166E-1,-2.248382568E-1
4.978339375E0,4.420471191E-1,-3.927154541E-1,-2.358398438E-1
4.983252705E0,4.383850098E-1,-4.159393311E-1,-2.413482666E-1
4.988196552E0,4.414520264E-1,-4.373321533E-1,-2.407226562E-1
4.993109883E0,4.499969482E-1,-4.513702393E-1,-2.370605469E-1
4.998023213E0,4.725952148E-1,-4.391479492E-1,-2.279052734E-1
5.002967060E0,5.000915527E-1,-4.196014404E-1,-2.126312256E-1
5.007880390E0,5.220794678E-1,-4.128875732E-1,-1.979675293E-1
5.012793720E0,5.373535156E-1,-3.982238770E-1,-1.808624268E-1
5.017737568E0,5.367431641E-1,-3.841705322E-1,-1.619262695E-1
5.022650898E0,5.184173584E-1,-3.670654297E-1,-1.442108154E-1
5.027564228E0,4.805450439E-1,-3.334655762E-1,-1.210021973E-1
5.032508076E0,4.359436035E-1,-2.876586914E-1,-9.838867188E-2
5.037421406E0,3.944091797E-1,-2.363433838E-1,-7.395935059E-2
5.042334736E0,3.614196777E-1,-1.801452637E-1,-4.953002930E-2
5.047278584E0,3.302612305E-1,-1.178283691E-1,-3.242492676E-2
5.052191914E0,3.003387451E-1,-4.515075684E-2,-2.020263672E-2
5.057105244E0,2.685699463E-1,4.281616211E-2,-1.409912109E-2
5.062049091E0,2.398529053E-1,1.356658936E-1,-1.287841797E-2
5.066962422E0,2.142028809E-1,2.285156250E-1,-1.104736328E-2
5.071875752E0,1.922149658E-1,3.109893799E-1,-7.995605469E-3
5.076819599E0,1.696014404E-1,3.757324219E-1,-4.577636719E-5
5.081732929E0,1.494445801E-1,4.233856201E-1,9.109497070E-3
5.086646259E0,1.347961426E-1,4.630889893E-1,1.522827148E-2
5.091590107E0,1.244049072E-1,5.058593750E-1,1.766967773E-2
5.096503437E0,1.176910400E-1,5.480041504E-1,1.461791992E-2
5.101416767E0,1.121826172E-1,5.779266357E-1,4.226684570E-3
5.106360615E0,1.011962891E-1,5.956573486E-1,-7.995605469E-3
5.111273945E0,8.287048340E-2,6.096954346E-1,-2.325439453E-2
5.116187275E0,6.025695801E-2,6.188659668E-1,-3.974914551E-2
5.121131123E0,3.216552734E-2,6.231384277E-1,-4.891967773E-2
5.126044453E0,5.294799805E-3,6.109161377E-1,-4.280090332E-2
5.130988300E0,-1.425170898E-2,5.877075195E-1,-1.898193359E-2
5.135901631E0,-1.669311523E-2,5.675506592E-1,1.155090332E-2
5.140814961E0,8.346557617E-3,5.553283691E-1,3.965759277E-2
5.145758808E0,4.743957520E-2,5.797729492E-1,5.735778809E-2
5.150702656E0,8.470153809E-2,6.542968750E-1,6.713867188E-2
5.155615986E0,1.127929688E-1,7.410278320E-1,7.508850098E-2
5.160559834E0,9.629821777E-2,8.119049072E-1,7.875061035E-2
5.165473164E0,2.178955078E-2,8.827667236E-1,8.119201660E-2
5.170386494E0,-1.058959961E-1,9.353027344E-1,1.086883545E-1
5.175330341E0,-2.653350830E-1,9.267425537E-1,1.880950928E-1
5.180243672E0,-4.284362793E-1,8.546600342E-1,2.717895508E-1
5.185157002E0,-5.585479736E-1,7.447052002E-1,3.133239746E-1
5.190100849E0,-6.568908691E-1,6.115417480E-1,3.145446777E-1
5.195014179E0,-7.356872559E-1,4.692077637E-1,2.754516602E-1
5.199927509E0,-7.967834473E-1,3.213653564E-1,2.070312500E-1
5.204871357E0,-8.083801270E-1,1.857604980E-1,1.056213379E-1
5.209784687E0,-7.411956787E-1,7.153320312E-2,-1.470947266E-2
5.214698017E0,-6.067962646E-1,-3.598022461E-2,-1.362609863E-1
5.219641865E0,-4.443054199E-1,-1.300506592E-1,-2.596740723E-1
5.224555195E0,-3.123626709E-1,-1.722106934E-1,-3.891601562E-1
5.229468525E0,-2.537078857E-1,-1.477661133E-1,-5.137939453E-1
5.234412373E0,-2.573852539E-1,-3.598022461E-2,-6.048126221E-1
5.239325703E0,-3.019714355E-1,1.533813477E-1,-6.597900391E-1
5.244239033E0,-3.936004639E-1,3.305358887E-1,-6.762847900E-1
5.249182881E0,-5.169982910E-1,4.557647705E-1,-6.561279297E-1
5.254096211E0,-6.538391113E-1,5.541076660E-1,-6.096954346E-1
5.259009541E0,-7.631835938E-1,6.371917725E-1,-5.400543213E-1
5.263953388E0,-8.138885498E-1,6.848449707E-1,-4.649200439E-1
5.268866718E0,-8.242645264E-1,6.732330322E-1,-3.946685791E-1
5.273780049E0,-8.169403076E-1,5.932159424E-1,-3.574066162E-1
5.278723896E0,-8.022766113E-1,4.521026611E-1,-3.464050293E-1
5.283637226E0,-8.297729492E-1,3.299255371E-1,-3.207550049E-1
5.288550556E0,-8.719177246E-1,2.523498535E-1,-3.042602539E-1
5.293494404E0,-8.700866699E-1,1.613311768E-1,-3.201446533E-1
5.298407734E0,-8.236541748E-1,4.037475586E-2,-3.610687256E-1
5.303321064E0,-7.491302490E-1,-8.424377441E-2,-4.178924561E-1
5.308264912E0,-6.972198486E-1,-1.764831543E-1,-4.710235596E-1
5.313178242E0,-6.630096436E-1,-2.222900391E-1,-5.351715088E-1
5.318091572E0,-6.300201416E-1,-2.552795410E-1,-6.121368408E-1
5.323035420E0,-5.903167725E-1,-2.955932617E-1,-6.732330322E-1
5.327948750E0,-5.518188477E-1,-3.255310059E-1,-7.043762207E-1
5.332862080E0,-5.127258301E-1,-3.530273438E-1,-7.141418457E-1
5.337805927E0,-4.833984375E-1,-3.798980713E-1,-7.007141113E-1
5.342719258E0,-4.724121094E-1,-3.939514160E-1,-6.640625000E-1
5.347663105E0,-4.858398438E-1,-3.786773682E-1,-6.200866699E-1
5.352576435E0,-5.194549561E-1,-3.169860840E-1,-5.803680420E-1
5.357489765E0,-5.738067627E-1,-2.510070801E-1,-5.424957275E-1
5.362403095E0,-6.342926025E-1,-2.210693359E-1,-5.058441162E-1
5.367346943E0,-7.045440674E-1,-2.430572510E-1,-4.722442627E-1
5.372260273E0,-7.863922119E-1,-3.255310059E-1,-4.245910645E-1
5.377204121E0,-8.706970215E-1,-4.165496826E-1,-3.739013672E-1
5.382117451E0,-9.287261963E-1,-4.593200684E-1,-3.299102783E-1
5.387030781E0,-9.568328857E-1,-4.580993652E-1,-2.987670898E-1
5.391974629E0,-9.629364014E-1,-4.501495361E-1,-2.859344482E-1
5.396887959E0,-9.507141113E-1,-4.464874268E-1,-2.938842773E-1
5.401801289E0,-9.238433838E-1,-4.409942627E-1,-3.280792236E-1
5.406745136E0,-8.945159912E-1,-4.495391846E-1,-3.775634766E-1
5.411658466E0,-8.896331787E-1,-4.269409180E-1,-4.087066650E-1
5.416571797E0,-9.055175781E-1,-3.737945557E-1,-4.191131592E-1
5.421515644E0,-8.951263428E-1,-3.591308594E-1,-4.594268799E-1
5.426428974E0,-8.841400146E-1,-3.744049072E-1,-5.107269287E-1
5.431342304E0,-8.719177246E-1,-3.682861328E-1,-5.522766113E-1
5.436286152E0,-8.804626465E-1,-3.395843506E-1,-5.791473389E-1
5.441230000E0,-9.104003906E-1,-3.078155518E-1,-5.919799805E-1
5.446143330E0,-9.598846436E-1,-2.626037598E-1,-5.840301514E-1
5.451087177E0,-1.010574341E0,-1.984710693E-1,-5.730438232E-1
5.456000508E0,-1.045410156E0,-1.434936523E-1,-5.577697754E-1
5.460913838E0,-1.047241211E0,-1.080627441E-1,-5.351715088E-1
5.465857685E0,-1.035018921E0,-8.728027344E-2,-5.095062256E-1
5.470771015E0,-1.008758545E0,-7.324218750E-2,-4.801940918E-1
5.475684345E0,-9.855499268E-1,-8.912658691E-2,-4.362182617E-1
5.480628193E0,-9.440002441E-1,-1.618194580E-1,-3.732910156E-1
5.485541523E0,-9.012451172E-1,-2.442779541E-1,-3.323516846E-1
5.490454853E0,-8.713073730E-1,-3.389739990E-1,-3.073120117E-1
5.495398701E0,-8.468780518E-1,-4.177703857E-1,-2.902069092E-1
5.500312031E0,-8.303680420E-1,-4.629821777E-1,-2.828826904E-1
5.505225361E0,-8.218231201E-1,-4.953613281E-1,-2.737121582E-1
5.510169209E0,-8.212127686E-1,-5.246734619E-1,-2.700500488E-1
5.515082539E0,-8.199920654E-1,-5.417785645E-1,-2.706604004E-1
5.519995869E0,-8.102264404E-1,-5.613250732E-1,-2.700500488E-1
5.524939716E0,-8.016662598E-1,-5.765991211E-1,-2.737121582E-1
5.529853047E0,-7.894439697E-1,-5.723266602E-1,-2.785949707E-1
5.534766377E0,-7.711181641E-1,-5.423889160E-1,-2.871551514E-1
5.539710224E0,-7.607421875E-1,-4.935150146E-1,-2.987670898E-1
5.544623554E0,-7.515716553E-1,-4.599151611E-1,-3.060913086E-1
5.549536884E0,-7.472991943E-1,-4.495391846E-1,-3.067016602E-1
5.554480732E0,-7.448577881E-1,-4.440460205E-1,-3.024291992E-1
5.559394062E0,-7.442474365E-1,-4.415893555E-1,-2.969207764E-1
5.564307392E0,-7.436370850E-1,-4.446563721E-1,-2.932586670E-1
5.569251240E0,-7.454681396E-1,-4.654235840E-1,-2.847137451E-1
5.574164570E0,-7.497406006E-1,-5.093994141E-1,-2.694396973E-1
5.579077900E0,-7.558593750E-1,-5.613250732E-1,-2.511138916E-1
5.584021748E0,-7.631835938E-1,-6.156921387E-1,-2.266845703E-1
5.588935078E0,-7.747955322E-1,-6.804504395E-1,-1.955261230E-1
5.593848408E0,-7.796783447E-1,-7.604675293E-1,-1.741485596E-1
5.598792256E0,-7.796783447E-1,-8.441619873E-1,-1.570434570E-1
5.603705586E0,-7.717285156E-1,-9.272308350E-1,-1.320037842E-1
5.608649433E0,-7.607421875E-1,-1.018249512E0,-1.075592041E-1
5.613562763E0,-7.527923584E-1,-1.106826782E0,-8.679199219E-2
5.618476093E0,-7.448577881E-1,-1.189910889E0,-6.724548340E-2
5.623419941E0,-7.387542725E-1,-1.252838135E0,-5.136108398E-2
5.628333271E0,-7.344665527E-1,-1.297424316E0,-3.913879395E-2
5.633246601E0,-7.338714600E-1,-1.312698364E0,-2.815246582E-2
5.638190449E0,-7.381286621E-1,-1.308425903E0,-2.264404297E-2
5.643103779E0,-7.399749756E-1,-1.285217285E0,-2.264404297E-2
5.648017109E0,-7.399749756E-1,-1.252838135E0,-3.303527832E-2
5.652960957E0,-7.387542725E-1,-1.216796875E0,-5.624389648E-2
5.657874287E0,-7.381286621E-1,-1.178314209E0,-8.618164062E-2
5.662787617E0,-7.393646240E-1,-1.146545410E0,-1.197814941E-1
5.667731465E0,-7.442474365E-1,-1.125778198E0,-1.472625732E-1
5.672644795E0,-7.552337646E-1,-1.117218018E0,-1.594848633E-1
5.677558125E0,-7.637939453E-1,-1.126998901E0,-1.625366211E-1
5.682501972E0,-7.662353516E-1,-1.158142090E0,-1.552124023E-1
5.687415302E0,-7.637939453E-1,-1.198455811E0,-1.448211670E-1
5.692328633E0,-7.631835938E-1,-1.249771118E0,-1.325988770E-1
5.697272480E0,-7.637939453E-1,-1.320648193E0,-1.222229004E-1
5.702185810E0,-7.644042969E-1,-1.415939331E0,-1.148986816E-1
5.707099140E0,-7.668457031E-1,-1.521621704E0,-1.075592041E-1
5.712042988E0,-7.619628906E-1,-1.641342163E0,-9.411621094E-2
5.716956318E0,-7.430267334E-1,-1.770858765E0,-7.212829590E-2
5.721869648E0,-7.051391602E-1,-1.886917114E0,-4.280090332E-2
5.726813496E0,-6.434478760E-1,-1.953506470E0,-3.364562988E-2
5.731757343E0,-5.591430664E-1,-1.954116821E0,-6.846618652E-2
5.736670674E0,-4.681396484E-1,-1.907073975E0,-1.436004639E-1
5.741614521E0,-3.807830811E-1,-1.808105469E0,-2.437896729E-1
5.746527851E0,-2.995300293E-1,-1.636459351E0,-3.268585205E-1
5.751441181E0,-2.256164551E-1,-1.384170532E0,-3.702392578E-1
5.756385029E0,-1.480407715E-1,-1.053085327E0,-3.769531250E-1
5.761298359E0,-7.168579102E-2,-6.657867432E-1,-3.616790771E-1
5.766211689E0,4.119873047E-4,-2.283935547E-1,-3.494567871E-1
5.771155537E0,6.332397461E-2,2.132415771E-1,-3.451843262E-1
5.776068867E0,1.237945557E-1,5.822143555E-1,-3.421325684E-1
5.780982197E0,1.879272461E-1,8.259582520E-1,-3.225860596E-1
5.785926045E0,2.459716797E-1,9.322357178E-1,-2.792205811E-1
5.790839375E0,2.868957520E-1,9.420166016E-1,-2.052917480E-1
5.795752705E0,3.229370117E-1,8.943634033E-1,-1.234436035E-1
5.800696552E0,3.650817871E-1,8.039550781E-1,-5.197143555E-2
5.805609883E0,4.249420166E-1,6.732330322E-1,1.174926758E-3
5.810523213E0,4.903106689E-1,4.942474365E-1,3.353881836E-2
5.815467060E0,5.599517822E-1,3.073272705E-1,6.530761719E-2
5.820380390E0,6.363220215E-1,1.417846680E-1,1.221160889E-1
5.825324238E0,7.126770020E-1,-1.033020020E-2,2.033691406E-1
5.830237568E0,7.914733887E-1,-1.575469971E-1,3.065948486E-1
5.835150898E0,8.507232666E-1,-2.742309570E-1,4.220581055E-1
5.840094746E0,8.721008301E-1,-3.365325928E-1,5.362854004E-1
5.845008076E0,8.409576416E-1,-3.505859375E-1,6.334228516E-1
5.849921406E0,7.780303955E-1,-3.163604736E-1,7.128295898E-1
5.854865254E0,7.016754150E-1,-2.467193604E-1,7.647552490E-1
5.859778584E0,6.381378174E-1,-1.483764648E-1,7.965240479E-1
5.864691914E0,6.008758545E-1,-1.277160645E-2,8.044586182E-1
5.869635761E0,5.892791748E-1,1.521606445E-1,7.891998291E-1
5.874549091E0,5.978240967E-1,3.189239502E-1,7.665863037E-1
5.879462422E0,6.344757080E-1,4.826507568E-1,7.555847168E-1
5.884406269E0,7.022857666E-1,6.316833496E-1,7.562103271E-1
5.889319599E0,7.896423340E-1,7.709808350E-1,7.568054199E-1
5.894232929E0,8.898162842E-1,8.998718262E-1,7.378845215E-1
5.899176777E0,9.704589844E-1,9.737854004E-1,6.938934326E-1
5.904090107E0,1.019943237E0,1.019592285E0,6.327972412E-1
5.909003437E0,1.038879395E0,1.073348999E0,5.552215576E-1
5.913947285E0,1.039489746E0,1.139328003E0,4.611511230E-1
5.918860615E0,1.036437988E0,1.193084717E0,3.511962891E-1
5.923773945E0,1.031539917E0,1.227905273E0,2.388000488E-1
5.928717793E0,1.029708862E0,1.248062134E0,1.447143555E-1
5.933631123E0,1.046203613E0,1.263946533E0,8.607482910E-2
5.938544453E0,1.097518921E0,1.283493042E0,5.920410156E-2
5.943488300E0,1.185485840E0,1.259658813E0,3.843688965E-2
5.948401631E0,1.299713135E0,1.132614136E0,4.025268555E-2
5.953314961E0,1.427993774E0,9.065856934E-1,7.814025879E-2
5.958258808E0,1.527572632E0,6.371917725E-1,1.538848877E-1
5.963172138E0,1.580108643E0,3.995666504E-1,2.351226807E-1
5.968085468E0,1.610641479E0,2.266845703E-1,3.090362549E-1
5.973029316E0,1.620422363E0,1.442260742E-1,3.878479004E-1
5.977942646E0,1.607589722E0,1.173400879E-1,4.373321533E-1
5.982855976E0,1.569732666E0,1.307830811E-1,4.635925293E-1
5.987799824E0,1.542221069E0,1.680450439E-1,4.788665771E-1
5.992713154E0,1.534896851E0,2.321777344E-1,4.916992188E-1
5.997626484E0,1.500076294E0,2.859344482E-1,5.240783691E-1
6.002570332E0,1.427993774E0,2.969360352E-1,5.876007080E-1
6.007483662E0,1.331481934E0,3.103637695E-1,6.627349854E-1
6.012427509E0,1.253295898E0,3.378753662E-1,7.348175049E-1
6.017371357E0,1.217864990E0,3.610839844E-1,7.995758057E-1
6.022284687E0,1.198913574E0,4.068908691E-1,8.637084961E-1
6.027198017E0,1.173263550E0,5.089111328E-1,9.296875000E-1
6.032141865E0,1.156158447E0,5.681610107E-1,9.632873535E-1
6.037055195E0,1.147003174E0,5.987091064E-1,9.883270264E-1
6.041968525E0,1.132339478E0,5.852661133E-1,1.007263184E0
6.046912373E0,1.114624023E0,5.162353516E-1,1.017044067E0
6.051825703E0,1.095077515E0,4.197235107E-1,1.011550903E0
6.056769550E0,1.070648193E0,3.054809570E-1,1.001159668E0
6.061682881E0,1.040100098E0,1.943206787E-1,9.938354492E-1
6.066596211E0,1.005279541E0,1.008453369E-1,9.999389648E-1
6.071540058E0,9.698486328E-1,1.167297363E-2,1.021316528E0
6.076453388E0,9.307556152E-1,-6.896972656E-2,1.042694092E0
6.081366718E0,9.087677002E-1,-1.141662598E-1,1.043319702E0
6.086310566E0,8.953247070E-1,-1.392211914E-1,1.015213013E0
6.091223896E0,8.794403076E-1,-1.593780518E-1,9.706115723E-1
6.096137226E0,8.788299561E-1,-1.819763184E-1,9.150238037E-1
6.101081074E0,8.910369873E-1,-2.045745850E-1,8.618774414E-1
6.105994404E0,8.995971680E-1,-2.290191650E-1,8.209533691E-1
6.110907734E0,8.965454102E-1,-2.418365479E-1,7.891998291E-1
6.115851582E0,8.776092529E-1,-2.375640869E-1,7.562103271E-1
6.120764912E0,8.360748291E-1,-2.351226807E-1,7.091674805E-1
6.125678242E0,8.024597168E-1,-2.449035645E-1,6.596832275E-1
6.130622090E0,7.816925049E-1,-2.662811279E-1,6.236419678E-1
6.135535420E0,7.609252930E-1,-2.962188721E-1,5.906524658E-1
6.140448750E0,7.407684326E-1,-3.414154053E-1,5.521697998E-1
6.145392597E0,7.089996338E-1,-3.805084229E-1,5.088043213E-1
6.150305927E0,6.741943359E-1,-4.196014404E-1,4.623718262E-1
6.155219258E0,6.442565918E-1,-4.629821777E-1,4.232788086E-1
6.160163105E0,6.137084961E-1,-4.715270996E-1,3.744049072E-1
6.165076435E0,5.758361816E-1,-4.550323486E-1,3.206634521E-1
6.169989765E0,5.281829834E-1,-4.214477539E-1,2.601776123E-1
6.174933613E0,4.878692627E-1,-3.866119385E-1,1.990966797E-1
6.179846943E0,4.561004639E-1,-3.499603271E-1,1.428985596E-1
6.184760273E0,4.328918457E-1,-3.163604736E-1,9.402465820E-2
6.189704121E0,4.084625244E-1,-2.852172852E-1,6.835937500E-2
6.194617451E0,3.717956543E-1,-2.430572510E-1,4.270935059E-2
6.199530781E0,3.229370117E-1,-1.874694824E-1,1.174926758E-3
6.204474629E0,2.673492432E-1,-1.257781982E-1,-4.891967773E-2
6.209387959E0,2.129821777E-1,-7.446289062E-2,-1.014556885E-1
6.214301289E0,1.604461670E-1,-2.558898926E-2,-1.448211670E-1
6.219245136E0,1.103515625E-1,2.754211426E-2,-1.875762939E-1
6.224158466E0,5.781555176E-2,8.374023438E-2,-2.315673828E-1
6.229071797E0,7.125854492E-3,1.405487061E-1,-2.712707520E-1
6.234015644E0,-3.562927246E-2,1.985778809E-1,-3.018188477E-1
6.238928974E0,-6.861877441E-2,2.529449463E-1,-3.195343018E-1
6.243842304E0,-8.938598633E-2,3.061065674E-1,-3.280792236E-1
6.248786152E0,-9.977722168E-2,3.433532715E-1,-3.274688721E-1
6.253699482E0,-1.016082764E-1,3.659667969E-1,-3.207550049E-1
6.258612812E0,-9.001159668E-2,3.824615479E-1,-3.048706055E-1
6.263556660E0,-6.556701660E-2,3.903961182E-1,-2.798156738E-1
6.268469990E0,-3.135681152E-2,3.885650635E-1,-2.437896729E-1
6.273383320E0,1.261901855E-2,3.769683838E-1,-2.016296387E-1
6.278327168E0,6.210327148E-2,3.519134521E-1,-1.539916992E-1
6.283240498E0,1.158447266E-1,3.189239502E-1,-1.045074463E-1
6.288153828E0,1.677703857E-1,2.804412842E-1,-5.441284180E-2
6.293097675E0,2.209167480E-1,2.211914062E-1,-7.995605469E-3
6.298041523E0,2.783355713E-1,1.460418701E-1,2.192687988E-2
6.302985371E0,3.375854492E-1,7.458496094E-2,3.414916992E-2
6.307898701E0,3.895263672E-1,2.388000488E-2,2.865600586E-2
6.312812031E0,4.267883301E-1,8.621215820E-3,7.293701172E-3
6.317755879E0,4.548797607E-1,4.281616211E-2,-3.486633301E-2
6.322669209E0,4.823608398E-1,1.478881836E-1,-1.032714844E-1
6.327582539E0,5.153503418E-1,2.895965576E-1,-1.753692627E-1
6.332526386E0,5.349121094E-1,4.087219238E-1,-2.333984375E-1
6.337439716E0,5.281829834E-1,4.942474365E-1,-2.761535645E-1
6.342353047E0,4.903106689E-1,5.541076660E-1,-2.981414795E-1
6.347296894E0,4.249420166E-1,5.980987549E-1,-2.987670898E-1
6.352210224E0,3.430938721E-1,6.371917725E-1,-2.792205811E-1
6.357123554E0,2.532958984E-1,6.811676025E-1,-2.443847656E-1
6.362067402E0,1.598205566E-1,7.428741455E-1,-2.095794678E-1
6.366980732E0,5.598449707E-2,8.363342285E-1,-1.790313721E-1
6.371894062E0,-6.800842285E-2,9.420166016E-1,-1.411590576E-1
6.376837910E0,-1.944580078E-1,1.053192139E0,-8.679199219E-2
6.381751240E0,-2.922058105E-1,1.157653809E0,-1.959228516E-2
6.386664570E0,-3.215179443E-1,1.218124390E0,4.759216309E-2
6.391608418E0,-2.708129883E-1,1.182083130E0,9.707641602E-2
6.396521748E0,-1.675872803E-1,1.092300415E0,1.380004883E-1
6.401435078E0,-5.273437500E-2,1.029373169E0,1.703796387E-1
6.406378925E0,1.995849609E-2,1.004928589E0,1.911468506E-1
6.411292256E0,9.567260742E-3,9.890594482E-1,2.192535400E-1
6.416205586E0,-1.022186279E-1,1.001266479E0,2.522277832E-1
6.421149433E0,-3.117523193E-1,1.073348999E0,2.559051514E-1
6.426062763E0,-5.951995850E-1,1.183914185E0,2.149658203E-1
6.430976093E0,-8.902435303E-1,1.235229492E0,1.508178711E-1
6.435919941E0,-1.116882324E0,1.169876099E0,8.424377441E-2
6.440833271E0,-1.251876831E0,1.021423340E0,2.314758301E-2
6.445746601E0,-1.297683716E0,8.277740479E-1,-3.608703613E-2
6.450690449E0,-1.257369995E0,6.249694824E-1,-1.014556885E-1
6.455603779E0,-1.128479004E0,4.447631836E-1,-1.845245361E-1
6.460517109E0,-8.920745850E-1,2.651672363E-1,-2.828826904E-1
6.465460957E0,-6.006927490E-1,7.702636719E-2,-3.531341553E-1
6.470374287E0,-3.178558350E-1,-1.025695801E-1,-4.068908691E-1
6.475287617E0,-9.855651855E-2,-1.929779053E-1,-4.618682861E-1
6.480231465E0,6.086730957E-2,-1.697540283E-1,-5.253906250E-1
6.485144795E0,1.891479492E-1,-1.704406738E-2,-5.785369873E-1
6.490058125E0,2.710113525E-1,2.211914062E-1,-6.213073730E-1
6.495001972E0,2.887268066E-1,4.612579346E-1,-6.622314453E-1
6.499915302E0,2.471923828E-1,6.506347656E-1,-6.915588379E-1
6.504828633E0,1.347961426E-1,7.581329346E-1,-7.117004395E-1
6.509772480E0,-4.663085938E-2,7.837982178E-1,-7.043762207E-1
6.514685810E0,-2.445526123E-1,7.233276367E-1,-6.897125244E-1
6.519599140E0,-4.534759521E-1,6.475677490E-1,-6.829986572E-1
6.524542988E0,-6.630096436E-1,5.797729492E-1,-6.738281250E-1
6.529456318E0,-8.413696289E-1,5.186767578E-1,-6.487884521E-1
6.534400166E0,-1.005096436E0,3.879547119E-1,-6.145782471E-1
6.539313496E0,-1.152908325E0,1.845397949E-1,-5.779266357E-1
6.544226826E0,-1.254318237E0,-6.591796875E-2,-5.510406494E-1
6.549170674E0,-1.284866333E0,-3.328552246E-1,-5.485992432E-1
6.554084004E0,-1.258590698E0,-5.313873291E-1,-5.681457520E-1
6.558997334E0,-1.186523438E0,-6.273040771E-1,-5.760955811E-1
6.563941181E0,-1.085113525E0,-6.572418213E-1,-6.023559570E-1
6.568854511E0,-9.794311523E-1,-6.486816406E-1,-6.255798340E-1
6.573767841E0,-8.633575439E-1,-6.358489990E-1,-6.445159912E-1
6.578711689E0,-7.644042969E-1,-6.376800537E-1,-6.695556641E-1
6.583655537E0,-6.562805176E-1,-6.266937256E-1,-6.579589844E-1
6.588568867E0,-5.548858643E-1,-6.181335449E-1,-6.384124756E-1
6.593512715E0,-4.785156250E-1,-6.212005615E-1,-6.390228271E-1
6.598426045E0,-4.320983887E-1,-6.144714355E-1,-6.555175781E-1
6.603339375E0,-4.113311768E-1,-5.784301758E-1,-6.567382812E-1
6.608283222E0,-4.174346924E-1,-5.295715332E-1,-6.292419434E-1
6.613196552E0,-4.681396484E-1,-5.228424072E-1,-5.907592773E-1
6.618109883E0,-5.640411377E-1,-5.594940186E-1,-5.455627441E-1
6.623053730E0,-6.770477295E-1,-6.340179443E-1,-5.125732422E-1
6.627967060E0,-7.833404541E-1,-7.299194336E-1,-4.942474365E-1
6.632880390E0,-8.444366455E-1,-7.830810547E-1,-4.734649658E-1
6.637824238E0,-8.713073730E-1,-7.836914062E-1,-4.502563477E-1
6.642737568E0,-8.896331787E-1,-7.293243408E-1,-4.374389648E-1
6.647650898E0,-8.902435303E-1,-6.749420166E-1,-4.411010742E-1
6.652594746E0,-8.474731445E-1,-6.358489990E-1,-4.441528320E-1
6.657508076E0,-7.992248535E-1,-6.217956543E-1,-4.380340576E-1
6.662421406E0,-7.686767578E-1,-6.120300293E-1,-4.423217773E-1
6.667365254E0,-7.418060303E-1,-5.759887695E-1,-4.569854736E-1
6.672278584E0,-7.161407471E-1,-5.332336426E-1,-4.698028564E-1
6.677191914E0,-6.892700195E-1,-5.149078369E-1,-4.600372314E-1
6.682135761E0,-6.575012207E-1,-5.387268066E-1,-4.215545654E-1
6.687049091E0,-6.520080566E-1,-5.704803467E-1,-3.916168213E-1
6.691962422E0,-6.758270264E-1,-5.991973877E-1,-3.745117188E-1
6.696906269E0,-7.222595215E-1,-6.126403809E-1,-3.567962646E-1
6.701819599E0,-7.760162354E-1,-6.101989746E-1,-3.341979980E-1
6.706732929E0,-8.297729492E-1,-6.016540527E-1,-3.079223633E-1
6.711676777E0,-8.615417480E-1,-5.924835205E-1,-2.816619873E-1
6.716590107E0,-8.859710693E-1,-5.912628174E-1,-2.621154785E-1
6.721503437E0,-9.012451172E-1,-5.924835205E-1,-2.614898682E-1
6.726447285E0,-9.006347656E-1,-6.199798584E-1,-2.749328613E-1
6.731360615E0,-8.957519531E-1,-6.670074463E-1,-2.804412842E-1
6.736273945E0,-9.024658203E-1,-7.317657471E-1,-2.737121582E-1
6.741217793E0,-9.128417969E-1,-7.977294922E-1,-2.669982910E-1
6.746131123E0,-9.171142578E-1,-8.459930420E-1,-2.633361816E-1
6.751074970E0,-9.183502197E-1,-8.698120117E-1,-2.706604004E-1
6.755988300E0,-9.238433838E-1,-8.685913086E-1,-2.859344482E-1
6.760901631E0,-9.336090088E-1,-8.459930420E-1,-3.073120117E-1
6.765845478E0,-9.482727051E-1,-7.995605469E-1,-3.317565918E-1
6.770758808E0,-9.690399170E-1,-7.335968018E-1,-3.580169678E-1
6.775672138E0,-9.818725586E-1,-6.780090332E-1,-3.824462891E-1
6.780615986E0,-9.947052002E-1,-6.529541016E-1,-4.056701660E-1
6.785529316E0,-9.898071289E-1,-6.389007568E-1,-4.252166748E-1
6.790442646E0,-9.623260498E-1,-6.413574219E-1,-4.386596680E-1
6.795386494E0,-9.146728516E-1,-6.529541016E-1,-4.508666992E-1
6.800299824E0,-8.584747314E-1,-6.761627197E-1,-4.673614502E-1
6.805213154E0,-8.096008301E-1,-7.054901123E-1,-4.765319824E-1
6.810157002E0,-7.680664062E-1,-7.586364746E-1,-4.844665527E-1
6.815070332E0,-7.326507568E-1,-8.368225098E-1,-4.850769043E-1
6.819983662E0,-6.990356445E-1,-9.351806641E-1,-4.716339111E-1
6.824927509E0,-6.605529785E-1,-1.048797607E0,-4.447631836E-1
6.829840840E0,-6.165771484E-1,-1.165481567E0,-4.032287598E-1
6.834754170E0,-5.658721924E-1,-1.274826050E0,-3.445739746E-1
6.839698017E0,-5.108947754E-1,-1.378067017E0,-2.749328613E-1
6.844611347E0,-4.553070068E-1,-1.475189209E0,-1.967468262E-1
6.849524677E0,-4.137725830E-1,-1.566818237E0,-1.124572754E-1
6.854468525E0,-3.966674805E-1,-1.657836914E0,-2.876281738E-2
6.859381855E0,-3.948211670E-1,-1.738479614E0,4.087829590E-2
6.864295185E0,-4.058227539E-1,-1.787338257E0,9.646606445E-2
6.869239033E0,-4.265899658E-1,-1.783065796E0,1.459350586E-1
6.874182881E0,-4.632415771E-1,-1.715255737E0,1.960296631E-1
6.879096211E0,-5.072326660E-1,-1.595535278E0,2.406311035E-1
6.884040058E0,-5.573272705E-1,-1.442810059E0,2.705688477E-1
6.888953388E0,-6.037445068E-1,-1.277267456E0,2.815551758E-1
6.893866718E0,-6.300201416E-1,-1.115386963E0,2.827758789E-1
6.898810566E0,-6.294097900E-1,-9.663391113E-1,2.809448242E-1
6.903723896E0,-5.988616943E-1,-8.411102295E-1,2.760467529E-1
6.908637226E0,-5.371551514E-1,-7.568054199E-1,2.656707764E-1
6.913581074E0,-4.553070068E-1,-7.042694092E-1,2.418518066E-1
6.918494404E0,-3.691711426E-1,-6.511230469E-1,2.021484375E-1
6.923407734E0,-2.751007080E-1,-5.772094727E-1,1.495971680E-1
6.928351582E0,-1.718597412E-1,-4.806976318E-1,8.912658691E-2
6.933264912E0,-6.007385254E-2,-3.682861328E-1,3.781127930E-2
6.938178242E0,5.598449707E-2,-2.510070801E-1,7.293701172E-3
6.943122090E0,1.683807373E-1,-1.373748779E-1,1.174926758E-3
6.948035420E0,2.722320557E-1,-1.826477051E-2,2.438354492E-2
6.952948750E0,3.693542480E-1,1.075744629E-1,6.530761719E-2
6.957892597E0,4.671020508E-1,2.211914062E-1,1.184539795E-1
6.962805927E0,5.776672363E-1,3.030395508E-1,1.722106934E-1
6.967749775E0,6.980133057E-1,3.580169678E-1,2.216949463E-1
6.972663105E0,8.116302490E-1,4.056701660E-1,2.595672607E-1
6.977576435E0,9.075469971E-1,4.704284668E-1,2.931518555E-1
6.982520283E0,9.839019775E-1,5.528869629E-1,3.224792480E-1
6.987433613E0,1.030929565E0,6.329040527E-1,3.438720703E-1
6.992346943E0,1.050476074E0,6.927795410E-1,3.463134766E-1
6.997290791E0,1.044372559E0,7.367706299E-1,3.261413574E-1
7.002204121E0,1.029708862E0,7.862396240E-1,2.839965820E-1
7.007117451E0,1.023605347E0,8.516082764E-1,2.229156494E-1
7.012061299E0,1.018722534E0,9.132995605E-1,1.575469971E-1
7.016974629E0,1.022384644E0,9.798889160E-1,1.019592285E-1
7.021887959E0,1.021774292E0,1.053802490E0,6.286621094E-2
7.026831806E0,9.997711182E-1,1.116729736E0,6.469726562E-2
7.031745136E0,9.863433838E-1,1.151550293E0,1.386108398E-1
7.036658466E0,9.912261963E-1,1.155212402E0,2.583465576E-1
7.041602314E0,1.000396729E0,1.122833252E0,3.762359619E-1
7.046515644E0,9.973297119E-1,1.069686890E0,4.868011475E-1
7.051428974E0,9.759521484E-1,1.004318237E0,5.686645508E-1
7.056372822E0,9.264678955E-1,9.236907959E-1,5.869903564E-1
7.061286152E0,8.543853760E-1,8.534393311E-1,5.301818848E-1
7.066199482E0,7.853546143E-1,8.155670166E-1,4.367065430E-1
7.071143330E0,7.432098389E-1,8.021240234E-1,3.426513672E-1
7.076056660E0,7.413787842E-1,8.015136719E-1,2.638397217E-1
7.080969990E0,7.780303955E-1,8.271789551E-1,2.045898438E-1
7.085913838E0,8.421783447E-1,8.723754883E-1,1.789245605E-1
7.090827168E0,9.356384277E-1,9.169769287E-1,1.636657715E-1
7.095740498E0,1.054763794E0,9.627838135E-1,1.147918701E-1
7.100684345E0,1.187316895E0,1.030593872E0,5.798339844E-2
7.105597675E0,1.324157715E0,1.081298828E0,1.704406738E-2
7.110511006E0,1.449386597E0,1.028762817E0,4.837036133E-3
7.115454853E0,1.527572632E0,9.389648438E-1,4.331970215E-2
7.120368183E0,1.556289673E0,8.681030273E-1,9.280395508E-2
7.125281513E0,1.540405273E0,8.137359619E-1,1.276092529E-1
7.130225361E0,1.494583130E0,7.569122314E-1,1.685485840E-1
7.135138691E0,1.423110962E0,6.878967285E-1,2.223052979E-1
7.140052021E0,1.343704224E0,6.048126221E-1,2.797241211E-1
7.144995869E0,1.268554688E0,5.131835938E-1,3.365325928E-1
7.149909199E0,1.205642700E0,4.362182617E-1,4.000701904E-1
7.154853047E0,1.151885986E0,4.007873535E-1,4.794769287E-1
7.159796894E0,1.106079102E0,4.020080566E-1,5.686645508E-1
7.164710224E0,1.070648193E0,4.007873535E-1,6.450195312E-1
7.169623554E0,1.037048340E0,3.714599609E-1,7.183227539E-1
7.174567402E0,9.851226807E-1,2.822723389E-1,7.757568359E-1
7.179480732E0,9.148712158E-1,1.851501465E-1,8.301239014E-1
7.184394062E0,8.501129150E-1,1.191711426E-1,8.734893799E-1
7.189337910E0,8.079681396E-1,7.275390625E-2,8.899841309E-1
7.194251240E0,7.835388184E-1,7.153320312E-2,9.034271240E-1
7.199195088E0,7.688751221E-1,1.038970947E-1,9.083099365E-1
7.204108418E0,7.652130127E-1,1.203918457E-1,8.936462402E-1
7.209021748E0,7.737579346E-1,1.142883301E-1,8.728790283E-1
7.213965595E0,7.865753174E-1,9.474182129E-2,8.618774414E-1
7.218878925E0,7.957458496E-1,6.419372559E-2,8.576049805E-1
7.223792256E0,7.982025146E-1,2.572631836E-2,8.630981445E-1
7.228736103E0,7.926940918E-1,-1.948547363E-2,8.728790283E-1
7.233649433E0,7.810974121E-1,-7.019042969E-2,8.918151855E-1
7.238562763E0,7.597045898E-1,-1.123352051E-1,9.101409912E-1
7.243506611E0,7.383270264E-1,-1.373748779E-1,9.070892334E-1
7.248419941E0,7.151184082E-1,-1.410522461E-1,8.930358887E-1
7.253333271E0,6.815185547E-1,-1.269989014E-1,8.765411377E-1
7.258277119E0,6.338653564E-1,-1.007232666E-1,8.643341064E-1
7.263190449E0,5.862274170E-1,-8.668518066E-2,8.423309326E-1
7.268103779E0,5.477294922E-1,-8.361816406E-2,8.044586182E-1
7.273047627E0,5.141296387E-1,-8.180236816E-2,7.671966553E-1
7.277960957E0,4.866485596E-1,-8.851623535E-2,7.311553955E-1
7.282874287E0,4.603729248E-1,-1.117248535E-1,7.018280029E-1
7.287818134E0,4.353332520E-1,-1.538848877E-1,6.706848145E-1
7.292731465E0,4.139556885E-1,-1.880798340E-1,6.273193359E-1
7.297644795E0,3.950195312E-1,-2.131347656E-1,5.741577148E-1
7.302588642E0,3.669128418E-1,-2.369537354E-1,5.173492432E-1
7.307501972E0,3.327026367E-1,-2.717742920E-1,4.666595459E-1
7.312415302E0,3.125457764E-1,-3.059844971E-1,4.214477539E-1
7.317359150E0,2.881164551E-1,-3.188171387E-1,3.731842041E-1
7.322272480E0,2.569580078E-1,-3.053741455E-1,3.255462646E-1
7.327185810E0,2.172546387E-1,-2.962188721E-1,2.833862305E-1
7.332129658E0,1.769256592E-1,-2.870483398E-1,2.345123291E-1
7.337042988E0,1.366119385E-1,-2.601623535E-1,1.764831543E-1
7.341956318E0,1.066894531E-1,-2.210693359E-1,1.221160889E-1
7.346900166E0,9.080505371E-2,-1.734313965E-1,7.630920410E-2
7.351813496E0,7.858276367E-2,-1.380004883E-1,3.170776367E-2
7.356726826E0,6.820678711E-2,-1.123352051E-1,-1.104736328E-2
7.361670674E0,5.598449707E-2,-8.668518066E-2,-4.830932617E-2
7.366584004E0,4.803466797E-2,-5.552673340E-2,-8.862304688E-2
7.371497334E0,4.803466797E-2,-2.497863770E-2,-1.344451904E-1
7.376441181E0,5.720520020E-2,5.554199219E-3,-1.796417236E-1
7.381354511E0,6.513977051E-2,4.342651367E-2,-2.272949219E-1
7.386267841E0,8.041381836E-2,8.679199219E-2,-2.676086426E-1
7.391211689E0,9.751892090E-2,1.326141357E-1,-2.761535645E-1
7.396125019E0,1.207427979E-1,1.808776855E-1,-2.712707520E-1
7.401038349E0,1.445617676E-1,2.254638672E-1,-2.779998779E-1
7.405982197E0,1.690063477E-1,2.694549561E-1,-2.883758545E-1
7.410895527E0,1.940460205E-1,3.048858643E-1,-2.920379639E-1
7.415808857E0,2.135925293E-1,3.415374756E-1,-2.743377686E-1
7.420752705E0,2.282562256E-1,3.757324219E-1,-2.413482666E-1
7.425666035E0,2.422943115E-1,4.032287598E-1,-1.991882324E-1
7.430579365E0,2.642974854E-1,4.209442139E-1,-1.607055664E-1
7.435523213E0,2.911682129E-1,4.239959717E-1,-1.271057129E-1
7.440467060E0,3.143768311E-1,4.154510498E-1,-9.535217285E-2
7.445410908E0,3.278198242E-1,3.983459473E-1,-6.480407715E-2
7.450324238E0,3.327026367E-1,3.787841797E-1,-3.547668457E-2
7.455237568E0,3.345489502E-1,3.684082031E-1,-1.165771484E-2
7.460181416E0,3.369903564E-1,3.677978516E-1,9.735107422E-3
7.465094746E0,3.400421143E-1,3.696289062E-1,2.804565430E-2
7.470008076E0,3.479919434E-1,3.763427734E-1,3.599548340E-2
7.474951924E0,3.546905518E-1,3.794097900E-1,3.599548340E-2
7.479865254E0,3.565368652E-1,3.684082031E-1,3.231811523E-2
7.484778584E0,3.443145752E-1,3.433532715E-1,2.192687988E-2
7.489722431E0,3.155975342E-1,3.287048340E-1,2.395629883E-3
7.494635761E0,2.697906494E-1,3.396911621E-1,-2.632141113E-2
7.499549091E0,2.105407715E-1,3.800201416E-1,-5.685424805E-2
7.504492939E0,1.421203613E-1,4.649200439E-1,-9.779357910E-2
7.509406269E0,7.553100586E-2,5.736541748E-1,-1.619262695E-1
7.514319599E0,8.956909180E-3,7.013244629E-1,-2.431640625E-1
7.519263447E0,-5.761718750E-2,8.552703857E-1,-3.170928955E-1
7.524176777E0,-1.297149658E-1,9.963836670E-1,-3.683929443E-1
7.529090107E0,-1.987304688E-1,1.108169556E0,-4.044494629E-1
7.534033955E0,-2.647094727E-1,1.166198730E0,-4.160461426E-1
7.538947285E0,-3.123626709E-1,1.222412109E0,-4.160461426E-1
7.543860615E0,-3.361816406E-1,1.296325684E0,-4.093322754E-1
7.548804463E0,-3.331298828E-1,1.331130981E0,-3.775634766E-1
7.553717793E0,-2.976989746E-1,1.314041138E0,-3.170928955E-1
7.558631123E0,-2.500457764E-1,1.237670898E0,-2.376708984E-1
7.563574970E0,-2.201232910E-1,1.135055542E0,-1.619262695E-1
7.568488300E0,-2.256164551E-1,1.091674805E0,-9.106445312E-2
7.573401631E0,-2.897644043E-1,1.119781494E0,-1.226806641E-2
7.578345478E0,-3.917846680E-1,1.131988525E0,7.752990723E-2
7.583258808E0,-5.157775879E-1,1.073348999E0,1.447143555E-1
7.588172138E0,-6.770477295E-1,9.438476562E-1,1.526641846E-1
7.593115986E0,-8.700866699E-1,7.642517090E-1,1.245574951E-1
7.598029316E0,-1.069229126E0,5.870971680E-1,9.280395508E-2
7.602942646E0,-1.230499268E0,4.362182617E-1,6.286621094E-2
7.607886494E0,-1.320297241E0,3.158721924E-1,3.599548340E-2
7.612799824E0,-1.330673218E0,1.906433105E-1,4.837036133E-3
7.617713154E0,-1.268981934E0,6.297302246E-2,-4.525756836E-2
7.622657002E0,-1.130920410E0,-4.452514648E-2,-1.081695557E-1
7.627570332E0,-9.409484863E-1,-1.373748779E-1,-1.882019043E-1
7.632483662E0,-7.277526855E-1,-2.204589844E-1,-2.676086426E-1
7.637427509E0,-5.035705566E-1,-3.145446777E-1,-3.183135986E-1
7.642340840E0,-2.928161621E-1,-4.177703857E-1,-3.592376709E-1
7.647254170E0,-1.058959961E-1,-4.611511230E-1,-4.129943848E-1
7.652198017E0,3.521728516E-2,-3.866119385E-1,-4.924011230E-1
7.657111347E0,1.060791016E-1,-2.088470459E-1,-5.651092529E-1
7.662024677E0,1.115722656E-1,1.960754395E-2,-6.127471924E-1
7.666968525E0,6.391906738E-2,2.370758057E-1,-6.542816162E-1
7.671881855E0,-3.257751465E-2,4.264373779E-1,-6.982727051E-1
7.676825703E0,-1.651458740E-1,5.754852295E-1,-7.385864258E-1
7.681739033E0,-3.105316162E-1,6.286468506E-1,-7.740173340E-1
7.686652363E0,-4.406433105E-1,5.870971680E-1,-7.880706787E-1
7.691596211E0,-5.683135986E-1,4.893646240E-1,-7.343139648E-1
7.696509541E0,-6.587219238E-1,3.048858643E-1,-6.213073730E-1
7.701422871E0,-7.320251465E-1,7.885742188E-2,-5.412750244E-1
7.706366718E0,-8.138885498E-1,-1.544799805E-1,-5.272216797E-1
7.711280049E0,-8.841400146E-1,-3.554687500E-1,-5.156250000E-1
7.716193379E0,-9.256744385E-1,-4.929046631E-1,-4.881286621E-1
7.721137226E0,-9.299468994E-1,-5.643768311E-1,-5.027923584E-1
7.726081074E0,-9.128417969E-1,-5.918731689E-1,-5.473785400E-1
7.730994404E0,-8.810882568E-1,-5.576629639E-1,-5.779266357E-1
7.735938252E0,-8.218231201E-1,-5.161285400E-1,-5.828094482E-1
7.740851582E0,-7.668457031E-1,-5.039062500E-1,-5.712127686E-1
7.745764912E0,-7.295837402E-1,-5.106201172E-1,-5.504455566E-1
7.750708759E0,-7.167663574E-1,-5.124664307E-1,-5.278320312E-1
7.755622090E0,-7.301940918E-1,-5.265045166E-1,-5.095062256E-1
7.760535420E0,-7.350921631E-1,-5.845489502E-1,-4.899597168E-1
7.765479267E0,-7.021026611E-1,-6.963348389E-1,-4.801940918E-1
7.770392597E0,-6.746063232E-1,-7.806243896E-1,-4.777526855E-1
7.775305927E0,-6.709442139E-1,-7.757415771E-1,-4.691925049E-1
7.780249775E0,-7.069854736E-1,-6.877746582E-1,-4.661407471E-1
7.785163105E0,-7.680664062E-1,-5.497131348E-1,-4.753112793E-1
7.790076435E0,-8.316040039E-1,-4.287719727E-1,-4.917907715E-1
7.795020283E0,-8.682556152E-1,-3.536376953E-1,-5.046234131E-1
7.799933613E0,-8.810882568E-1,-3.304138184E-1,-5.156250000E-1
7.804846943E0,-8.896331787E-1,-3.566894531E-1,-5.412750244E-1
7.809790791E0,-8.792419434E-1,-4.422149658E-1,-5.767059326E-1
7.814704121E0,-8.645782471E-1,-5.216217041E-1,-6.115264893E-1
7.819617451E0,-8.474731445E-1,-5.313873291E-1,-6.298522949E-1
7.824561299E0,-8.303680420E-1,-5.216217041E-1,-6.316833496E-1
7.829474629E0,-8.114471436E-1,-5.216217041E-1,-6.145782471E-1
7.834387959E0,-7.949523926E-1,-5.503387451E-1,-5.950317383E-1
7.839331806E0,-7.815093994E-1,-5.857696533E-1,-5.736541748E-1
7.844245136E0,-7.784576416E-1,-6.346282959E-1,-5.339508057E-1
7.849158466E0,-7.925109863E-1,-6.731262207E-1,-4.838562012E-1
7.854102314E0,-8.199920654E-1,-6.798400879E-1,-4.362182617E-1
7.859015644E0,-8.578643799E-1,-6.694488525E-1,-3.946685791E-1
7.863928974E0,-8.975677490E-1,-6.444091797E-1,-3.641204834E-1
7.868872822E0,-9.415588379E-1,-6.175231934E-1,-3.390808105E-1
7.873786152E0,-9.928741455E-1,-5.998077393E-1,-3.103637695E-1
7.878699482E0,-1.049072266E0,-6.028747559E-1,-2.822723389E-1
7.883643330E0,-1.100997925E0,-6.181335449E-1,-2.547760010E-1
7.888556660E0,-1.163299561E0,-6.309661865E-1,-2.370605469E-1
7.893500508E0,-1.220733643E0,-6.450195312E-1,-2.205657959E-1
7.898413838E0,-1.265930176E0,-6.437988281E-1,-2.169036865E-1
7.903327168E0,-1.311752319E0,-6.382904053E-1,-2.315673828E-1
7.908271015E0,-1.364288330E0,-6.132507324E-1,-2.682189941E-1
7.913184345E0,-1.397872925E0,-6.028747559E-1,-2.987670898E-1
7.918097675E0,-1.416198730E0,-6.120300293E-1,-3.109893799E-1
7.923041523E0,-1.428421021E0,-6.175231934E-1,-3.146514893E-1
7.927954853E0,-1.433303833E0,-6.156921387E-1,-3.189239502E-1
7.932868183E0,-1.431472778E0,-5.955352783E-1,-3.213653564E-1
7.937812031E0,-1.421691895E0,-5.814819336E-1,-3.280792236E-1
7.942725361E0,-1.399093628E0,-5.955352783E-1,-3.335876465E-1
7.947638691E0,-1.344741821E0,-6.694488525E-1,-3.415222168E-1
7.952582539E0,-1.261657715E0,-7.934570312E-1,-3.506927490E-1
7.957495869E0,-1.159637451E0,-9.608306885E-1,-3.574066162E-1
7.962409199E0,-1.042968750E0,-1.156921387E0,-3.494567871E-1
7.967353047E0,-9.116210938E-1,-1.372558594E0,-3.183135986E-1
7.972266377E0,-7.680664062E-1,-1.590652466E0,-2.657775879E-1
7.977179707E0,-6.196289062E-1,-1.776962280E0,-1.949157715E-1
7.982123554E0,-4.833984375E-1,-1.896682739E0,-1.185607910E-1
7.987036884E0,-3.813781738E-1,-1.922958374E0,-4.525756836E-2
7.991950215E0,-3.221282959E-1,-1.847824097E0,1.582336426E-2
7.996894062E0,-3.148040771E-1,-1.695709229E0,5.430603027E-2
8.001807392E0,-3.526763916E-1,-1.517333984E0,7.997131348E-2
8.006720722E0,-4.302520752E-1,-1.344467163E0,1.068420410E-1
8.011664570E0,-5.115051270E-1,-1.192977905E0,1.343383789E-1
8.016608418E0,-5.713653564E-1,-1.040863037E0,1.428985596E-1
8.021521748E0,-5.890808105E-1,-8.802032471E-1,1.233367920E-1
8.026465595E0,-5.762481689E-1,-7.115936279E-1,7.875061035E-2
8.031378925E0,-5.377807617E-1,-5.405578613E-1,1.399230957E-2
8.036292256E0,-4.608001709E-1,-3.701324463E-1,-6.173706055E-2
8.041236103E0,-3.392333984E-1,-1.996917725E-1,-1.325988770E-1
8.046149433E0,-1.743011475E-1,-3.414916992E-2,-1.863555908E-1
8.051062763E0,2.667236328E-2,1.197814941E-1,-2.108001709E-1
8.056006611E0,2.545166016E-1,2.523498535E-1,-1.991882324E-1
8.060919941E0,4.823608398E-1,3.586425781E-1,-1.539916992E-1
8.065833271E0,6.857910156E-1,4.533233643E-1,-7.640075684E-2
8.070777119E0,8.476715088E-1,5.522766113E-1,4.025268555E-2
8.075690449E0,9.814453125E-1,6.616210938E-1,1.716003418E-1
8.080603779E0,1.092636108E0,7.514190674E-1,3.108825684E-1
8.085547627E0,1.188537598E0,7.856292725E-1,4.574890137E-1
8.090460957E0,1.265518188E0,7.471466064E-1,5.802612305E-1
8.095374287E0,1.310714722E0,6.481933594E-1,6.425781250E-1
8.100318134E0,1.313156128E0,5.308990479E-1,6.242523193E-1
8.105231465E0,1.273452759E0,4.221649170E-1,5.436248779E-1
8.110175312E0,1.199539185E0,3.384704590E-1,4.403839111E-1
8.115088642E0,1.108520508E0,2.847137451E-1,3.450927734E-1
8.120001972E0,1.007720947E0,2.541809082E-1,2.559051514E-1
8.124945820E0,9.167022705E-1,2.902221680E-1,1.709899902E-1
8.129859150E0,8.446197510E-1,3.763427734E-1,1.184539795E-1
8.134772480E0,7.896423340E-1,4.337768555E-1,1.184539795E-1
8.139716328E0,7.481079102E-1,4.459838867E-1,1.642608643E-1
8.144629658E0,7.254943848E-1,4.636993408E-1,2.131347656E-1
8.149542988E0,7.230529785E-1,5.260162354E-1,2.412414551E-1
8.154486836E0,7.383270264E-1,6.359710693E-1,2.552795410E-1
8.159400166E0,7.627716064E-1,7.569122314E-1,2.693328857E-1
8.164313496E0,7.884216309E-1,8.619842529E-1,2.668914795E-1
8.169257343E0,8.287353516E-1,9.609527588E-1,2.357330322E-1
8.174170674E0,8.983764648E-1,1.067245483E0,1.874847412E-1
8.179084004E0,1.000396729E0,1.163146973E0,1.312713623E-1
8.184027851E0,1.118896484E0,1.224853516E0,7.263183594E-2
8.188941181E0,1.238021851E0,1.226669312E0,3.843688965E-2
8.193854511E0,1.339431763E0,1.167419434E0,3.721618652E-2
8.198798359E0,1.413330078E0,1.072128296E0,5.125427246E-2
8.203711689E0,1.459762573E0,9.585113525E-1,6.469726562E-2
8.208625019E0,1.479919434E0,8.436584473E-1,7.080078125E-2
8.213568867E0,1.473205566E0,7.373657227E-1,7.875061035E-2
8.218482197E0,1.439605713E0,6.652984619E-1,1.141662598E-1
8.223395527E0,1.388900757E0,6.225280762E-1,1.691589355E-1
8.228339375E0,1.337585449E0,6.060333252E-1,2.161865234E-1
8.233252705E0,1.296051025E0,5.999298096E-1,2.534637451E-1
8.238166035E0,1.265518188E0,5.993194580E-1,2.882690430E-1
8.243109883E0,1.239242554E0,5.968780518E-1,3.231048584E-1
8.248023213E0,1.219696045E0,5.761108398E-1,3.640289307E-1
8.252936543E0,1.203201294E0,5.284576416E-1,4.098358154E-1
8.257880390E0,1.184265137E0,4.301147461E-1,4.629821777E-1
8.262793720E0,1.176315308E0,2.798309326E-1,5.002441406E-1
8.267707050E0,1.167770386E0,1.393280029E-1,5.472869873E-1
8.272650898E0,1.128067017E0,3.976440430E-2,6.346435547E-1
8.277564228E0,1.053543091E0,-5.064392090E-2,7.244415283E-1
8.282477558E0,9.447937012E-1,-1.294403076E-1,8.227844238E-1
8.287421406E0,8.391265869E-1,-1.893005371E-1,9.046478271E-1
8.292334736E0,7.645874023E-1,-2.174072266E-1,9.278564453E-1
8.297278584E0,7.230529785E-1,-2.204589844E-1,9.180908203E-1
8.302222431E0,7.059478760E-1,-2.106933594E-1,8.997650146E-1
8.307135761E0,7.028961182E-1,-1.911468506E-1,8.753204346E-1
8.312049091E0,7.047271729E-1,-1.367797852E-1,8.429412842E-1
8.316992939E0,7.138977051E-1,-9.095764160E-2,7.953033447E-1
8.321906269E0,7.322235107E-1,-5.064392090E-2,7.562103271E-1
8.326819599E0,7.517700195E-1,-2.380371094E-3,7.238159180E-1
8.331763447E0,7.761993408E-1,2.632141113E-2,6.847229004E-1
8.336676777E0,7.823181152E-1,5.442810059E-2,6.468658447E-1
8.341620625E0,7.853546143E-1,8.190917969E-2,6.138763428E-1
8.346533955E0,7.872009277E-1,1.014556885E-1,5.888214111E-1
8.351447285E0,7.963562012E-1,1.057281494E-1,5.698852539E-1
8.356391133E0,7.835388184E-1,1.002349854E-1,5.387268066E-1
8.361304463E0,7.633666992E-1,9.596252441E-2,5.008544922E-1
8.366217793E0,7.377166748E-1,9.596252441E-2,4.617614746E-1
8.371161640E0,7.083892822E-1,8.679199219E-2,4.177856445E-1
8.376074970E0,6.821289062E-1,6.907653809E-2,3.713531494E-1
8.380988300E0,6.509704590E-1,5.258178711E-2,3.188171387E-1
8.385932148E0,6.094360352E-1,2.816772461E-2,2.681121826E-1
8.390845478E0,5.684967041E-1,-1.155090332E-2,2.271881104E-1
8.395758808E0,5.257415771E-1,-5.857849121E-2,1.838073730E-1
8.400702656E0,5.031433105E-1,-9.278869629E-2,1.361694336E-1
8.405615986E0,4.781036377E-1,-1.080627441E-1,9.034729004E-2
8.410529316E0,4.518280029E-1,-1.178283691E-1,3.414916992E-2
8.415473164E0,4.322814941E-1,-1.422729492E-1,-1.409912109E-2
8.420386494E0,4.200592041E-1,-1.648712158E-1,-3.852844238E-2
8.425299824E0,3.931884766E-1,-1.697540283E-1,-6.358337402E-2
8.430243672E0,3.571472168E-1,-1.648712158E-1,-1.063385010E-1
8.435157002E0,3.235473633E-1,-1.642608643E-1,-1.588745117E-1
8.440070332E0,3.033905029E-1,-1.703643799E-1,-2.108001709E-1
8.445014179E0,2.887268066E-1,-1.777038574E-1,-2.443847656E-1
8.449927509E0,2.661285400E-1,-1.813659668E-1,-2.608947754E-1
8.454840840E0,2.282562256E-1,-1.660919189E-1,-2.706604004E-1
8.459784687E0,1.775512695E-1,-1.312713623E-1,-2.932586670E-1
8.464698017E0,1.237945557E-1,-8.483886719E-2,-3.305358887E-1
8.469611347E0,8.041381836E-2,-3.353881836E-2,-3.775634766E-1
8.474555195E0,5.232238770E-2,2.204895020E-2,-4.123840332E-1
8.479468525E0,2.728271484E-2,7.824707031E-2,-4.300994873E-1
8.484381855E0,4.684448242E-3,1.332244873E-1,-4.319305420E-1
8.489325703E0,-1.608276367E-2,1.759948730E-1,-4.166564941E-1
8.494239033E0,-2.281188965E-2,1.961364746E-1,-3.867187500E-1
8.499152363E0,-1.547241211E-2,1.967620850E-1,-3.464050293E-1
8.504096211E0,1.017761230E-2,1.882019043E-1,-2.999877930E-1
8.509009541E0,4.743957520E-2,1.753692627E-1,-2.492828369E-1
8.513922871E0,8.102416992E-2,1.509399414E-1,-1.882019043E-1
8.518866718E0,1.079101562E-1,9.962463379E-2,-1.179351807E-1
8.523780049E0,1.268463135E-1,9.841918945E-3,-4.525756836E-2
8.528693379E0,1.427307129E-1,-1.050109863E-1,1.826477051E-2
8.533637226E0,1.696014404E-1,-2.174072266E-1,6.713867188E-2
8.538550556E0,2.001495361E-1,-2.827758789E-1,1.092834473E-1
8.543463886E0,2.252044678E-1,-2.992553711E-1,1.447143555E-1
8.548407734E0,2.374114990E-1,-2.723846436E-1,1.642608643E-1
8.553321064E0,2.306976318E-1,-2.045745850E-1,1.673278809E-1
8.558264912E0,2.044372559E-1,-1.135711670E-1,1.569366455E-1
8.563178242E0,1.647186279E-1,-1.826477051E-2,1.386108398E-1
8.568091572E0,1.244049072E-1,6.602478027E-2,1.215057373E-1
8.573035420E0,8.653259277E-2,1.362762451E-1,1.123504639E-1
8.577948750E0,5.964660645E-2,1.857604980E-1,1.074523926E-1
8.582862080E0,4.866027832E-2,2.071380615E-1,9.217834473E-2
8.587805927E0,4.133605957E-2,1.992034912E-1,6.713867188E-2
8.592749775E0,2.911376953E-2,1.894226074E-1,3.475952148E-2
8.597663105E0,7.736206055E-3,2.083587646E-1,-1.226806641E-2
8.602606953E0,-2.098083496E-2,2.663879395E-1,-7.946777344E-2
8.607520283E0,-6.800842285E-2,3.287048340E-1,-1.533660889E-1
8.612433613E0,-1.284942627E-1,3.616790771E-1,-2.071380615E-1
8.617377461E0,-1.712493896E-1,3.775634766E-1,-2.395019531E-1
8.622290791E0,-1.749114990E-1,4.185028076E-1,-2.590484619E-1
8.627204121E0,-1.455993652E-1,5.058593750E-1,-2.639312744E-1
8.632147968E0,-9.977722168E-2,6.481933594E-1,-2.456054688E-1
8.637061299E0,-5.029296875E-2,8.314514160E-1,-2.010192871E-1
8.641974629E0,2.853393555E-3,9.957733154E-1,-1.344451904E-1
8.646918476E0,5.537414551E-2,1.092300415E0,-5.136108398E-2
8.651831806E0,9.324645996E-2,1.097778320E0,5.676269531E-2
8.656745136E0,1.042480469E-1,1.006149292E0,2.082519531E-1
8.661688984E0,7.125854492E-2,8.399963379E-1,3.615722656E-1
8.666602314E0,-6.556701660E-2,6.811676025E-1,3.902893066E-1
8.671515644E0,-3.148040771E-1,5.980987549E-1,2.913360596E-1
8.676459492E0,-5.903167725E-1,6.017608643E-1,2.308502197E-1
8.681372822E0,-8.395385742E-1,6.732330322E-1,2.583465576E-1
8.686286152E0,-1.009979248E0,7.526550293E-1,3.255462646E-1
8.691230000E0,-1.077774048E0,7.703552246E-1,3.823547363E-1
8.696143330E0,-1.072891235E0,6.042022705E-1,3.970184326E-1
8.701056660E0,-1.033798218E0,2.767791748E-1,3.536376953E-1
8.706000508E0,-9.440002441E-1,-7.446289062E-2,2.870483398E-1
8.710913838E0,-7.931213379E-1,-3.408050537E-1,2.339019775E-1
8.715827168E0,-5.939788818E-1,-4.757995605E-1,1.832122803E-1
8.720771015E0,-4.064331055E-1,-5.161285400E-1,1.166229248E-1
8.725684345E0,-3.013610840E-1,-4.935150146E-1,4.209899902E-2
8.730597675E0,-3.123626709E-1,-4.568786621E-1,-4.953002930E-2
8.735541523E0,-3.746795654E-1,-4.299926758E-1,-1.307830811E-1
8.740454853E0,-4.198760986E-1,-3.890533447E-1,-1.845245361E-1
8.745368183E0,-4.107055664E-1,-3.090362549E-1,-2.108001709E-1
8.750312031E0,-3.575744629E-1,-1.654815674E-1,-2.639312744E-1
8.755225361E0,-3.031921387E-1,1.411437988E-2,-3.708496094E-1
8.760138691E0,-3.190765381E-1,1.869812012E-1,-5.162353516E-1
8.765082539E0,-4.094848633E-1,3.189239502E-1,-6.726074219E-1
8.769995869E0,-5.402221680E-1,4.154510498E-1,-7.996826172E-1
8.774909199E0,-6.807098389E-1,4.692077637E-1,-8.711395264E-1
8.779853047E0,-7.876129150E-1,4.545440674E-1,-8.827514648E-1
8.784766377E0,-8.389282227E-1,3.458099365E-1,-8.430480957E-1
8.789679707E0,-8.719177246E-1,1.503295898E-1,-7.599792480E-1
8.794623554E0,-9.207916260E-1,-4.820251465E-2,-7.013244629E-1
8.799536884E0,-9.782104492E-1,-1.929779053E-1,-6.982727051E-1
8.804480732E0,-1.038681030E0,-3.047637939E-1,-6.811676025E-1
8.809394062E0,-1.105880737E0,-3.872375488E-1,-6.115264893E-1
8.814307392E0,-1.154754639E0,-4.849700928E-1,-5.113525391E-1
8.819251240E0,-1.158416748E0,-6.584625244E-1,-4.526977539E-1
8.824164570E0,-1.112594604E0,-7.806243896E-1,-4.221496582E-1
8.829077900E0,-1.036239624E0,-8.502655029E-1,-3.940582275E-1
8.834021748E0,-9.562225342E-1,-9.223480225E-1,-3.818359375E-1
8.838935078E0,-8.902435303E-1,-1.005432129E0,-3.940582275E-1
8.843848408E0,-8.450317383E-1,-1.074462891E0,-4.191131592E-1
8.848792256E0,-8.114471436E-1,-1.101333618E0,-4.465942383E-1
8.853705586E0,-7.845611572E-1,-1.081787109E0,-4.685821533E-1
8.858618916E0,-7.674560547E-1,-1.015808105E0,-4.826354980E-1
8.863562763E0,-7.656250000E-1,-9.388427734E-1,-5.034027100E-1
8.868476093E0,-7.698974609E-1,-8.673706055E-1,-5.333404541E-1
8.873419941E0,-7.668457031E-1,-8.026275635E-1,-5.534973145E-1
8.878363789E0,-7.576904297E-1,-7.476501465E-1,-5.736541748E-1
8.883277119E0,-7.558593750E-1,-6.963348389E-1,-5.993194580E-1
8.888190449E0,-7.692871094E-1,-6.279144287E-1,-6.255798340E-1
8.893134297E0,-8.071594238E-1,-5.387268066E-1,-6.475677490E-1
8.898047627E0,-8.749694824E-1,-4.385528564E-1,-6.646728516E-1
8.902960957E0,-9.678192139E-1,-3.408050537E-1,-6.732330322E-1
8.907904804E0,-1.065567017E0,-2.577209473E-1,-6.689453125E-1
8.912818134E0,-1.152313232E0,-2.021331787E-1,-6.542816162E-1
8.917731465E0,-1.223785400E0,-1.838073730E-1,-6.268005371E-1
8.922675312E0,-1.278762817E0,-1.862487793E-1,-5.895385742E-1
8.927588642E0,-1.330673218E0,-1.935882568E-1,-5.522766113E-1
8.932501972E0,-1.374664307E0,-2.009124756E-1,-5.186767578E-1
8.937445820E0,-1.409484863E0,-1.996917725E-1,-4.924011230E-1
8.942359150E0,-1.435760498E0,-2.003021240E-1,-4.722442627E-1
8.947272480E0,-1.452865601E0,-2.265777588E-1,-4.557647705E-1
8.952216328E0,-1.452865601E0,-2.687225342E-1,-4.392547607E-1
8.957129658E0,-1.440017700E0,-3.304138184E-1,-4.221496582E-1
8.962042988E0,-1.428421021E0,-4.049377441E-1,-4.007873535E-1
8.966986836E0,-1.418029785E0,-4.880218506E-1,-3.824462891E-1
8.971900166E0,-1.397872925E0,-5.344543457E-1,-3.818359375E-1
8.976813496E0,-1.378936768E0,-5.460510254E-1,-3.934478760E-1
8.981757343E0,-1.363662720E0,-5.344543457E-1,-4.026031494E-1
8.986670674E0,-1.353897095E0,-5.008544922E-1,-4.129943848E-1
8.991584004E0,-1.355117798E0,-4.519805908E-1,-4.270477295E-1
8.996527851E0,-1.354507446E0,-4.006652832E-1,-4.398803711E-1
9.001441181E0,-1.352676392E0,-3.475189209E-1,-4.533233643E-1
9.006354511E0,-1.352676392E0,-3.194274902E-1,-4.691925049E-1
9.011298359E0,-1.352066040E0,-2.931518555E-1,-4.850769043E-1
9.016211689E0,-1.343521118E0,-2.784881592E-1,-4.985198975E-1
9.021125019E0,-1.332519531E0,-2.687225342E-1,-5.082855225E-1
9.026068867E0,-1.298904419E0,-2.760467529E-1,-5.101165771E-1
9.030982197E0,-1.259826660E0,-2.980346680E-1,-5.034027100E-1
9.035926045E0,-1.210342407E0,-3.469085693E-1,-4.814147949E-1
9.040839375E0,-1.147430420E0,-4.214477539E-1,-4.472045898E-1
9.045752705E0,-1.083282471E0,-5.130615234E-1,-4.001617432E-1
9.050696552E0,-1.005691528E0,-6.205749512E-1,-3.439636230E-1
9.055609883E0,-9.128417969E-1,-7.225952148E-1,-2.871551514E-1
9.060523213E0,-8.267059326E-1,-8.282775879E-1,-2.211761475E-1
9.065467060E0,-7.607421875E-1,-9.247894287E-1,-1.429901123E-1
9.070380390E0,-7.136993408E-1,-1.014587402E0,-6.051635742E-2
9.075293720E0,-6.794891357E-1,-1.083618164E0,1.339721680E-2
9.080237568E0,-6.611633301E-1,-1.119659424E0,6.958007812E-2
9.085150898E0,-6.630096436E-1,-1.141036987E0,1.062316895E-1
9.090064228E0,-6.898803711E-1,-1.149597168E0,1.318969727E-1
9.095008076E0,-7.369079590E-1,-1.129440308E0,1.490020752E-1
9.099921406E0,-7.857818604E-1,-1.073852539E0,1.605987549E-1
9.104834736E0,-8.181610107E-1,-9.883270264E-1,1.740417480E-1
9.109778584E0,-8.132781982E-1,-8.783721924E-1,1.929779053E-1
9.114691914E0,-7.729644775E-1,-7.543640137E-1,2.070312500E-1
9.119605244E0,-7.039184570E-1,-6.382904053E-1,2.070312500E-1
9.124549091E0,-6.123046875E-1,-5.668182373E-1,2.003173828E-1
9.129462422E0,-5.102844238E-1,-5.576629639E-1,1.905364990E-1
9.134375752E0,-4.113311768E-1,-5.912628174E-1,1.654815674E-1
9.139319599E0,-3.154144287E-1,-6.334075928E-1,9.890747070E-2
9.144232929E0,-2.017974854E-1,-6.511230469E-1,9.735107422E-3
9.149146259E0,-4.907226562E-2,-6.266937256E-1,-6.541442871E-2
9.154090107E0,1.408996582E-1,-5.741577148E-1,-1.100006104E-1
9.159033955E0,3.546905518E-1,-5.002441406E-1,-1.295623779E-1
9.163947285E0,5.733947754E-1,-3.860168457E-1,-1.387176514E-1
9.168891133E0,7.859802246E-1,-2.235107422E-1,-1.478881836E-1
9.173804463E0,9.704589844E-1,-4.696655273E-2,-1.472625732E-1
9.178717793E0,1.105453491E0,1.197814941E-1,-1.307830811E-1
9.183661640E0,1.194641113E0,2.682189941E-1,-1.045074463E-1
9.188574970E0,1.252670288E0,4.123840332E-1,-7.518005371E-2
9.193488300E0,1.300323486E0,5.822143555E-1,-4.769897461E-2
9.198432148E0,1.358978271E0,7.697601318E-1,-4.464721680E-2
9.203345478E0,1.424942017E0,9.340820312E-1,-7.334899902E-2
9.208258808E0,1.472595215E0,1.015930176E0,-1.014556885E-1
9.213202656E0,1.479309082E0,9.927215576E-1,-1.106109619E-1
9.218115986E0,1.437164307E0,9.151306152E-1,-1.130523682E-1
9.223029316E0,1.358352661E0,8.717651367E-1,-1.246643066E-1
9.227973164E0,1.257568359E0,8.937530518E-1,-1.399383545E-1
9.232886494E0,1.140289307E0,9.438476562E-1,-1.515502930E-1
9.237799824E0,1.030929565E0,9.866027832E-1,-1.729278564E-1
9.242743672E0,9.796295166E-1,1.039138794E0,-2.260589600E-1
9.247657002E0,9.411315918E-1,1.046463013E0,-2.437896729E-1
9.252600849E0,9.026489258E-1,1.033035278E0,-2.309570312E-1
9.257514179E0,8.562316895E-1,9.994354248E-1,-1.900329590E-1
9.262427509E0,7.914733887E-1,9.163513184E-1,-1.197814941E-1
9.267371357E0,7.218322754E-1,7.935638428E-1,-4.647827148E-2
9.272284687E0,6.723480225E-1,7.056121826E-1,1.522827148E-2
9.277198017E0,6.589050293E-1,7.025604248E-1,6.958007812E-2
9.282141865E0,6.796875000E-1,7.642517090E-1,1.202850342E-1
9.287055195E0,7.059478760E-1,8.326721191E-1,1.691589355E-1
9.291968525E0,7.059478760E-1,8.571014404E-1,2.277984619E-1
9.296912373E0,6.906738281E-1,8.436584473E-1,2.870483398E-1
9.301825703E0,6.815185547E-1,8.228912354E-1,3.322601318E-1
9.306739033E0,6.900634766E-1,8.033447266E-1,3.627929688E-1
9.311682881E0,7.224426270E-1,7.825775146E-1,3.933410645E-1
9.316596211E0,7.652130127E-1,7.618103027E-1,4.232788086E-1
9.321509541E0,8.311767578E-1,7.196655273E-1,4.324493408E-1
9.326453388E0,8.751678467E-1,7.013244629E-1,4.495544434E-1
9.331366718E0,8.708801270E-1,7.294311523E-1,4.764251709E-1
9.336280049E0,8.397369385E-1,7.776794434E-1,4.941406250E-1
9.341223896E0,7.963562012E-1,8.235015869E-1,5.033111572E-1
9.346137226E0,7.529907227E-1,8.491668701E-1,5.100250244E-1
9.351050556E0,7.206115723E-1,8.522186279E-1,5.167388916E-1
9.355994404E0,6.967926025E-1,8.296203613E-1,5.228424072E-1
9.360907734E0,6.815185547E-1,7.874603271E-1,5.314025879E-1
9.365821064E0,6.760101318E-1,7.379913330E-1,5.448455811E-1
9.370764912E0,6.778564453E-1,6.885070801E-1,5.576629639E-1
9.375678242E0,6.882324219E-1,6.414642334E-1,5.686645508E-1
9.380591572E0,7.035064697E-1,5.980987549E-1,5.772247314E-1
9.385535420E0,7.224426270E-1,5.565490723E-1,5.821075439E-1
9.390448750E0,7.395477295E-1,5.125732422E-1,5.869903564E-1
9.395362080E0,7.621459961E-1,4.673614502E-1,5.931091309E-1
9.400305927E0,7.847595215E-1,4.233856201E-1,5.943298340E-1
9.405219258E0,8.067474365E-1,3.812408447E-1,5.912628174E-1
9.410132588E0,8.336181641E-1,3.488616943E-1,5.882110596E-1
9.415076435E0,8.605041504E-1,3.213653564E-1,5.760040283E-1
9.419989765E0,8.910369873E-1,2.908172607E-1,5.564422607E-1
9.424903095E0,9.240264893E-1,2.547912598E-1,5.411682129E-1
9.429846943E0,9.515228271E-1,2.218017578E-1,5.314025879E-1
9.434760273E0,9.790039062E-1,1.900329590E-1,5.210113525E-1
9.439673603E0,1.019332886E0,1.625518799E-1,5.008544922E-1
9.444617451E0,1.073684692E0,1.289367676E-1,4.776458740E-1
9.449561299E0,1.134780884E0,6.175231934E-2,4.568786621E-1
9.454474629E0,1.184265137E0,-6.652832031E-3,4.452667236E-1
9.459418476E0,1.225799561E0,-5.674743652E-2,4.287719727E-1
9.464331806E0,1.266738892E0,-9.339904785E-2,3.988342285E-1
9.469275654E0,1.310104370E0,-1.294403076E-1,3.652496338E-1
9.474188984E0,1.329650879E0,-1.544799805E-1,3.542480469E-1
9.479102314E0,1.334533691E0,-1.612091064E-1,3.597412109E-1
9.484046162E0,1.341247559E0,-1.764831543E-1,3.475341797E-1
9.488959492E0,1.343704224E0,-1.819763184E-1,3.316497803E-1
9.493872822E0,1.317428589E0,-1.801452637E-1,3.267669678E-1
9.498816670E0,1.261230469E0,-1.838073730E-1,3.285827637E-1
9.503730000E0,1.188537598E0,-1.838073730E-1,3.231048584E-1
9.508643330E0,1.109115601E0,-1.795349121E-1,3.127136230E-1
9.513587177E0,1.033996582E0,-1.722106934E-1,3.017120361E-1
9.518500508E0,9.710693359E-1,-1.697540283E-1,2.962188721E-1
9.523413838E0,9.167022705E-1,-1.764831543E-1,2.907104492E-1
9.528357685E0,8.690490723E-1,-1.789245605E-1,2.919311523E-1
9.533271015E0,8.281250000E-1,-1.807556152E-1,2.956085205E-1
9.538184345E0,7.957458496E-1,-1.856384277E-1,2.992706299E-1
9.543128193E0,7.658081055E-1,-1.801452637E-1,2.992706299E-1
9.548041523E0,7.346649170E-1,-1.789245605E-1,2.962188721E-1
9.552954853E0,6.967926025E-1,-1.795349121E-1,2.876739502E-1
9.557898701E0,6.546478271E-1,-1.728210449E-1,2.766723633E-1
9.562812031E0,6.094360352E-1,-1.605987549E-1,2.620086670E-1
9.567725361E0,5.630035400E-1,-1.471557617E-1,2.485656738E-1
9.572669209E0,5.159759521E-1,-1.392211914E-1,2.339019775E-1
9.577582539E0,4.719848633E-1,-1.349334717E-1,2.137451172E-1
9.582495869E0,4.310607910E-1,-1.355590820E-1,1.972503662E-1
9.587439716E0,3.956298828E-1,-1.422729492E-1,1.825866699E-1
9.592353047E0,3.669128418E-1,-1.587677002E-1,1.697692871E-1
9.597266377E0,3.430938721E-1,-1.795349121E-1,1.532745361E-1
9.602210224E0,3.217163086E-1,-2.051849365E-1,1.380004883E-1
9.607123554E0,3.082733154E-1,-2.320709229E-1,1.251678467E-1
9.612036884E0,3.003387451E-1,-2.565002441E-1,1.111297607E-1
9.616980732E0,2.991180420E-1,-2.736053467E-1,9.402465820E-2
9.621894062E0,2.997131348E-1,-2.858276367E-1,7.385253906E-2
9.626807392E0,2.960510254E-1,-2.992553711E-1,5.430603027E-2
9.631751240E0,2.893371582E-1,-3.200378418E-1,3.781127930E-2
9.636664570E0,2.783355713E-1,-3.518066406E-1,2.133178711E-2
9.641577900E0,2.752838135E-1,-3.695068359E-1,7.293701172E-3
9.646521748E0,2.740631104E-1,-3.737945557E-1,-9.216308594E-3
9.651435078E0,2.783355713E-1,-3.585205078E-1,-3.364562988E-2
9.656348408E0,2.960510254E-1,-3.230895996E-1,-5.929565430E-2
9.661292256E0,3.174438477E-1,-2.760467529E-1,-8.618164062E-2
9.666205586E0,3.424835205E-1,-2.449035645E-1,-1.063385010E-1
9.671118916E0,3.650817871E-1,-2.351226807E-1,-1.185607910E-1
9.676062763E0,3.736419678E-1,-2.357330322E-1,-1.216125488E-1
9.680976093E0,3.724212646E-1,-2.369537354E-1,-1.216125488E-1
9.685919941E0,3.803558350E-1,-2.229003906E-1,-1.216125488E-1
9.690833271E0,4.017333984E-1,-1.990814209E-1,-1.173400879E-1
9.695746601E0,4.304504395E-1,-1.819763184E-1,-9.779357910E-2
9.700690449E0,4.542694092E-1,-1.703643799E-1,-6.602478027E-2
9.705603779E0,4.707641602E-1,-1.587677002E-1,-3.242492676E-2
9.710517109E0,4.793243408E-1,-1.361541748E-1,1.174926758E-3
9.715460957E0,4.805450439E-1,-1.001281738E-1,3.170776367E-2
9.720374287E0,4.689331055E-1,-5.247497559E-2,5.676269531E-2
9.725287617E0,4.371643066E-1,1.892089844E-3,8.485412598E-2
9.730231465E0,4.005126953E-1,5.136108398E-2,1.117248535E-1
9.735175312E0,3.705749512E-1,1.026763916E-1,1.343383789E-1
9.740088642E0,3.553161621E-1,1.533813477E-1,1.508178711E-1
9.745032490E0,3.546905518E-1,1.997985840E-1,1.636657715E-1
9.749945820E0,3.638610840E-1,2.395172119E-1,1.758728027E-1
9.754859150E0,3.742523193E-1,2.779998779E-1,1.868743896E-1
9.759802998E0,3.889007568E-1,3.152618408E-1,2.009124756E-1
9.764716328E0,4.060058594E-1,3.592376709E-1,2.180175781E-1
9.769629658E0,4.341125488E-1,4.203338623E-1,2.406311035E-1
9.774573506E0,4.671020508E-1,4.771423340E-1,2.675018311E-1
9.779486836E0,4.994812012E-1,5.357818604E-1,2.894897461E-1
9.784400166E0,5.306396484E-1,5.913696289E-1,3.035430908E-1
9.789344013E0,5.660552979E-1,6.091003418E-1,3.023223877E-1
9.794257343E0,6.014862061E-1,5.950317383E-1,2.870483398E-1
9.799170674E0,6.424255371E-1,5.638885498E-1,2.711639404E-1
9.804114521E0,6.876220703E-1,5.412902832E-1,2.815551758E-1
9.809027851E0,7.132873535E-1,5.400695801E-1,3.365325928E-1
9.813941181E0,6.986236572E-1,5.669403076E-1,4.177856445E-1
9.818885029E0,6.265411377E-1,6.219177246E-1,4.806976318E-1
9.823798359E0,4.725952148E-1,7.062225342E-1,4.849853516E-1
9.828711689E0,2.337493896E-1,7.941894531E-1,4.165649414E-1
9.833655537E0,-6.678771973E-2,8.760375977E-1,3.316497803E-1
9.838568867E0,-3.685607910E-1,9.243011475E-1,3.047790527E-1
9.843482197E0,-5.958099365E-1,9.340820312E-1,3.139343262E-1
9.848426045E0,-6.892700195E-1,9.114685059E-1,2.839965820E-1
9.853339375E0,-6.849975586E-1,8.094482422E-1,1.868743896E-1
9.858252705E0,-6.410064697E-1,6.121368408E-1,5.798339844E-2
9.863196552E0,-5.780944824E-1,3.390960693E-1,-6.785583496E-2
9.868109883E0,-5.072326660E-1,2.632141113E-2,-1.674346924E-1
9.873023213E0,-4.369812012E-1,-2.613830566E-1,-2.456054688E-1
9.877967060E0,-3.832244873E-1,-4.513702393E-1,-3.262481689E-1
9.882880390E0,-3.813781738E-1,-5.173492432E-1,-4.282684326E-1
9.887793720E0,-4.388122559E-1,-4.660339355E-1,-5.461578369E-1
9.892737568E0,-5.273895264E-1,-2.736053467E-1,-6.475677490E-1
9.897650898E0,-6.177978516E-1,3.425598145E-2,-6.897125244E-1
9.902564228E0,-7.192077637E-1,3.806304932E-1,-6.762847900E-1
9.907508076E0,-8.383178711E-1,6.860656738E-1,-6.384124756E-1
9.912421406E0,-9.562225342E-1,8.662719727E-1,-6.060333252E-1
