"Time (s)","Acceleration x (m/s^2)","Acceleration y (m/s^2)","Acceleration z (m/s^2)"
0.000000000E0,-4.503692627E0,4.078033447E0,2.427154541E0
4.821777000E-3,-4.503692627E0,4.078033447E0,2.427154541E0
9.735107000E-3,-4.503692627E0,4.078033447E0,2.427154541E0
1.461792000E-2,-4.503692627E0,4.078033447E0,2.427154541E0
1.950073200E-2,-4.503692627E0,4.078033447E0,2.427154541E0
2.438354500E-2,-4.503692627E0,4.078033447E0,2.427154541E0
2.926635700E-2,-2.277221680E-1,1.010437012E0,1.231907654E1
3.414917000E-2,1.000976562E-1,6.778259277E-1,1.275457764E1
3.903198200E-2,-3.688964844E-1,6.347503662E-1,1.252964783E1
4.388427700E-2,1.958007812E-1,5.414428711E-1,1.347720337E1
4.876709000E-2,9.926147461E-1,4.816131592E-1,1.447261047E1
5.364990200E-2,8.968963623E-1,8.046417236E-1,1.492724609E1
5.853271500E-2,7.377624512E-2,1.398071289E0,1.493682861E1
6.341552700E-2,-2.899322510E-1,1.450714111E0,1.424290466E1
6.829834000E-2,-2.277221680E-1,1.177932739E0,1.317570496E1
7.318115200E-2,1.394653320E-2,7.735443115E-1,1.226164246E1
7.806396500E-2,6.419372559E-2,3.045501709E-1,1.151029968E1
8.294677700E-2,-2.372894287E-1,-9.744262695E-2,1.087380981E1
8.782959000E-2,-8.067932129E-1,-2.912597656E-1,1.021578979E1
9.271240200E-2,-1.407379150E0,-2.434082031E-1,9.591262817E0
9.759521500E-2,-2.024734497E0,-1.189880371E-1,9.430938721E0
1.024780270E-1,-2.807189941E0,2.375488281E-1,9.823364258E0
1.073608400E-1,-2.864608765E0,8.046417236E-1,9.818572998E0
1.122436520E-1,-1.751953125E0,1.350204468E0,8.361343384E0
1.171264650E-1,-6.895446777E-1,1.630172729E0,8.899734497E0
1.220092770E-1,-9.766845703E-1,2.111129761E0,9.646286011E0
1.268615720E-1,-1.469604492E0,2.805053711E0,1.034020996E1
1.317443850E-1,-1.366714478E0,2.833755493E0,1.073980713E1
1.366271970E-1,-1.172882080E0,2.654296875E0,1.150073242E1
1.415100100E-1,-9.862518311E-1,2.348022461E0,1.255117798E1
1.463928220E-1,-2.707977295E-1,2.142242432E0,1.347480774E1
1.512756350E-1,6.001892090E-1,1.737854004E0,1.424530029E1
1.561584470E-1,1.073974609E0,8.907928467E-1,1.430990601E1
1.610412600E-1,1.339569092E0,-9.983825684E-2,1.364469910E1
1.659240720E-1,1.241470337E0,-5.903625488E-1,1.237651062E1
1.708068850E-1,-3.569335938E-1,1.450714111E0,1.064649963E1
1.756896970E-1,-6.727905273E-1,2.068054199E0,9.229934692E0
1.805725100E-1,-1.918334961E-1,1.639739990E0,8.318283081E0
1.854553220E-1,2.149505615E-1,1.187500000E0,7.614791870E0
1.903381350E-1,9.136505127E-1,-3.965454102E-1,7.425750732E0
1.952209470E-1,2.758514404E0,-3.064544678E0,8.476196289E0
2.001037600E-1,4.399993896E0,-5.323379517E0,9.215591431E0
2.049865720E-1,5.012557983E0,-6.136932373E0,8.186676025E0
2.098693850E-1,4.830703735E0,-5.629653931E0,7.748779297E0
2.147216790E-1,3.981246948E0,-4.349487305E0,7.660247803E0
2.196044920E-1,2.691513062E0,-2.892257690E0,7.736816406E0
2.244873040E-1,1.638671875E0,-1.487670898E0,7.949783325E0
2.293701170E-1,1.291717529E0,-3.247680664E-1,7.741607666E0
2.342529290E-1,1.720031738E0,9.721374512E-1,8.105316162E0
2.391357420E-1,2.172271729E0,1.541641235E0,9.524261475E0
2.440185540E-1,1.715255737E0,1.596664429E0,1.078288269E1
2.489013670E-1,5.858306885E-1,1.209030151E0,1.131408691E1
2.537841790E-1,-5.124664307E-1,9.290771484E-1,1.157969666E1
2.586669920E-1,-1.170501709E0,1.087005615E0,1.158686829E1
2.635498040E-1,-1.388244629E0,1.000854492E0,1.156294250E1
2.684326170E-1,-1.014968872E0,6.562957764E-1,1.136433411E1
2.733154290E-1,-4.598236084E-1,-1.237640381E-1,1.104130554E1
2.781982420E-1,-9.979248047E-3,-1.848999023E0,9.557754517E0
2.830810540E-1,2.574264526E0,-3.385192871E0,8.100524902E0
2.879638670E-1,5.672973633E0,-3.466537476E0,8.169921875E0
2.928466790E-1,5.201583862E0,-3.040618896E0,7.375503540E0
2.976989740E-1,3.665405273E0,-2.920974731E0,6.346588135E0
3.025817870E-1,3.045654297E0,-2.873123169E0,6.078598022E0
3.074645990E-1,2.882949829E0,-2.416091919E0,6.399230957E0
3.123474120E-1,2.342163086E0,-1.569030762E0,6.605010986E0
3.172302240E-1,1.363510132E0,-7.171936035E-1,6.779693604E0
3.221130370E-1,5.834503174E-1,-1.285552979E-1,7.193649292E0
3.269958490E-1,2.939147949E-1,1.394348145E-1,7.753570557E0
3.318786620E-1,5.188293457E-1,1.226959229E-1,8.457061768E0
3.367614740E-1,9.758605957E-1,-1.524810791E-1,9.208404541E0
3.416442870E-1,1.210357666E0,-5.616607666E-1,9.947784424E0
3.465270990E-1,1.485534668E0,-9.612579346E-1,1.079244995E1
3.514099120E-1,1.554931641E0,-1.291473389E0,1.202714539E1
3.562927240E-1,1.428115845E0,-1.504425049E0,1.321878052E1
3.611755370E-1,1.507080078E0,-1.626464844E0,1.433862305E1
3.660583490E-1,1.854034424E0,-1.655181885E0,1.529335022E1
3.709411620E-1,2.339782715E0,-1.564254761E0,1.605427551E1
3.758239740E-1,2.550338745E0,-1.435028076E0,1.641079712E1
3.807067870E-1,3.148544312E0,-1.257965088E0,1.620501709E1
3.855590820E-1,3.062408447E0,-1.432647705E0,1.581738281E1
3.904418940E-1,2.665191650E0,-1.521179199E0,1.484828186E1
3.953247070E-1,1.966491699E0,-1.341720581E0,1.338627625E1
4.002075190E-1,1.277359009E0,-1.076110840E0,1.170651245E1
4.050903320E-1,8.107604980E-1,-8.176879883E-1,9.976501465E0
4.099731440E-1,5.427703857E-1,-4.420166016E-1,8.375701904E0
4.148559570E-1,4.662017822E-1,-1.739501953E-3,7.038116455E0
4.197387690E-1,5.762634277E-1,4.050445557E-1,6.095336914E0
4.246215820E-1,7.222290039E-1,8.022613525E-1,5.595245361E0
4.295043940E-1,9.471588135E-1,1.156387329E0,5.499526978E0
4.343872070E-1,1.468780518E0,1.498565674E0,5.621566772E0
4.392700190E-1,2.284744263E0,1.826385498E0,5.906311035E0
4.441528320E-1,3.165298462E0,2.032165527E0,6.308303833E0
4.490356440E-1,3.758712769E0,2.080017090E0,6.600234985E0
4.539184570E-1,4.055435181E0,2.072845459E0,6.904113770E0
4.587707520E-1,3.993209839E0,2.192489624E0,7.215179443E0
4.636840820E-1,3.641464233E0,2.450912476E0,7.569320679E0
4.685363770E-1,3.232299805E0,2.805053711E0,7.923461914E0
4.734191890E-1,2.930801392E0,2.927078247E0,8.349380493E0
4.783020020E-1,2.782440186E0,2.903152466E0,8.947586060E0
4.831848140E-1,2.760910034E0,2.891189575E0,9.574508667E0
4.880676270E-1,2.799194336E0,2.738052368E0,1.006503296E1
4.929504390E-1,2.758514404E0,2.343231201E0,1.027320862E1
4.978332520E-1,2.552734375E0,1.728271484E0,1.018707275E1
5.027160640E-1,2.256027222E0,1.130065918E0,9.914291382E0
5.075988770E-1,2.007171631E0,7.256774902E-1,9.574508667E0
5.124816890E-1,1.861206055E0,5.629730225E-1,9.239517212E0
5.173645020E-1,2.236877441E0,7.591857910E-1,6.590652466E0
5.222473140E-1,3.897506714E0,1.005645752E0,4.611801147E0
5.271301270E-1,5.297302246E0,8.477172852E-1,5.418182373E0
5.320129390E-1,6.072586060E0,6.108245850E-1,5.482788086E0
5.368957520E-1,6.299896240E0,4.002532959E-1,7.298934937E0
5.417785640E-1,5.754333496E0,1.055892944E0,8.394851685E0
5.466613770E-1,5.024520874E0,1.780914307E0,8.806411743E0
5.515136720E-1,4.778060913E0,1.890991211E0,8.528839111E0
5.563964840E-1,5.038879395E0,1.335845947E0,8.160354614E0
5.612792970E-1,5.701690674E0,5.246887207E-1,8.069427490E0
5.661621090E-1,6.252044678E0,-5.198669434E-2,8.203414917E0
5.710449220E-1,6.606170654E0,-2.553710938E-1,8.715484619E0
5.759277340E-1,6.756927490E0,-1.764068604E-1,9.663040161E0
5.808105470E-1,6.713851929E0,3.894042969E-2,1.053881836E1
5.856933590E-1,6.397994995E0,2.327575684E-1,1.096473694E1
5.905761720E-1,5.775863647E0,3.093261719E-1,1.087380981E1
5.954589840E-1,5.180053711E0,2.040557861E-1,1.030911255E1
6.003417970E-1,4.768493652E0,-2.806091309E-2,9.457260132E0
6.052246090E-1,4.555526733E0,-2.745208740E-1,8.540802002E0
6.101074220E-1,4.572280884E0,-4.826965332E-1,7.866027832E0
6.149902340E-1,4.634490967E0,-6.047210693E-1,7.744003296E0
6.198730470E-1,4.770889282E0,-7.889709473E-1,8.004821777E0
6.247558590E-1,4.935989380E0,-9.516906738E-1,8.248886108E0
6.296386720E-1,5.101089478E0,-8.679351807E-1,8.342208862E0
6.345214840E-1,5.029312134E0,-4.324493408E-1,8.193847656E0
6.393737790E-1,4.452636719E0,7.244873047E-2,7.772720337E0
6.442565920E-1,3.749145508E0,2.806243896E-1,7.294143677E0
6.491394040E-1,3.619934082E0,1.849060059E-1,6.889755249E0
6.540222170E-1,4.304275513E0,1.896972656E-1,6.377700806E0
6.589050290E-1,5.512664795E0,4.265747070E-1,5.662246704E0
6.637878420E-1,6.881347656E0,6.969757080E-1,4.896545410E0
6.686706540E-1,8.080154419E0,7.639617920E-1,4.382080078E0
6.735534670E-1,8.879364014E0,8.046417236E-1,4.145187378E0
6.784362790E-1,9.214355469E0,8.261871338E-1,4.109298706E0
6.833190920E-1,9.125823975E0,8.381500244E-1,4.190658569E0
6.882019040E-1,8.745361328E0,8.333587646E-1,4.216979980E0
6.930847170E-1,8.257232666E0,8.405456543E-1,4.176300049E0
6.979675290E-1,7.776275635E0,9.338531494E-1,4.011199951E0
7.028503420E-1,7.489135742E0,1.024780273E0,3.719268799E0
7.077331540E-1,7.300094604E0,1.067855835E0,3.381881714E0
7.126159670E-1,7.235488892E0,1.079818726E0,2.984680176E0
7.174987790E-1,7.302490234E0,1.175537109E0,2.587463379E0
7.223510740E-1,7.393417358E0,1.328674316E0,2.283584595E0
7.272338860E-1,7.407775879E0,1.575134277E0,2.132827759E0
7.321166990E-1,7.551345825E0,1.551208496E0,1.979690552E0
7.369995110E-1,7.938980103E0,1.500961304E0,1.998825073E0
7.418823240E-1,8.479751587E0,9.003601074E-1,1.917480469E0
7.467651360E-1,9.269393921E0,3.619689941E-1,1.783477783E0
7.516479490E-1,1.050169373E1,-8.787536621E-2,1.568130493E0
7.565307610E-1,1.201156616E1,5.090332031E-2,1.534622192E0
7.614135740E-1,1.370568848E1,3.882904053E-1,1.608795166E0
7.662963860E-1,1.519641113E1,8.692474365E-1,1.788269043E0
7.711791990E-1,1.618225098E1,1.343032837E0,2.041900635E0
7.760620110E-1,1.652682495E1,1.699569702E0,2.391250610E0
7.809448240E-1,1.625404358E1,1.934066772E0,2.922454834E0
7.858276360E-1,1.549551392E1,2.142242432E0,3.446487427E0
7.907104490E-1,1.447616577E1,2.271453857E0,3.937011719E0
7.955932610E-1,1.331803894E1,2.261871338E0,4.410797119E0
8.004760740E-1,1.214556885E1,2.094375610E0,4.793655396E0
8.053283690E-1,1.109989929E1,1.797668457E0,5.059249878E0
8.102111810E-1,1.015473938E1,1.302352905E0,5.233932495E0
8.150939940E-1,9.238281250E0,7.328643799E-1,5.343994141E0
8.199768060E-1,8.309860229E0,2.710418701E-1,5.427749634E0
8.248596190E-1,7.558517456E0,1.394348145E-1,5.540206909E0
8.297424310E-1,7.185241699E0,2.877960205E-1,5.623962402E0
8.346252440E-1,7.257019043E0,6.251831055E-1,5.626358032E0
8.395080560E-1,7.644668579E0,9.864959717E-1,5.360748291E0
8.443908690E-1,8.326614380E0,1.228179932E0,4.961151123E0
8.492736810E-1,9.056427002E0,1.369354248E0,4.580688477E0
8.541564940E-1,9.539779663E0,1.505737305E0,4.276794434E0
8.590393060E-1,1.020738220E1,1.565567017E0,4.078201294E0
8.639221190E-1,1.176031494E1,1.096572876E0,4.049484253E0
8.688049310E-1,1.373439026E1,3.284759521E-1,4.205017090E0
8.736877440E-1,1.500976562E1,-4.922637939E-1,4.549575806E0
8.785705560E-1,1.509831238E1,-1.188568115E0,4.865432739E0
8.834533690E-1,1.425842285E1,-1.724563599E0,5.013793945E0
8.883361810E-1,1.293040466E1,-1.923171997E0,4.970718384E0
8.931884760E-1,1.169570923E1,-1.676712036E0,4.724258423E0
8.980712890E-1,1.066679382E1,-1.334533691E0,4.255264282E0
9.029541010E-1,9.714462280E0,-1.186187744E0,3.733627319E0
9.078369140E-1,8.764511108E0,-1.368041992E0,3.300521851E0
9.127197260E-1,7.888732910E0,-1.726959229E0,3.027740479E0
9.176025390E-1,7.206771851E0,-2.116989136E0,2.860244751E0
9.224853510E-1,6.902893066E0,-2.404129028E0,2.656860352E0
9.273681640E-1,7.053634644E0,-2.562057495E0,2.455856323E0
9.322509760E-1,7.522628784E0,-2.643417358E0,2.321868896E0
9.371337890E-1,8.111267090E0,-2.643417358E0,2.326644897E0
9.420166010E-1,8.661605835E0,-2.554870605E0,2.546783447E0
9.468994140E-1,9.030105591E0,-2.480697632E0,2.788467407E0
9.517822260E-1,9.355529785E0,-2.286880493E0,2.929641724E0
9.566650390E-1,9.764709473E0,-1.844207764E0,3.018173218E0
9.615478510E-1,1.026480103E1,-1.219680786E0,3.039703369E0
9.664306640E-1,1.076251221E1,-4.491882324E-1,2.970321655E0
9.713134760E-1,1.118365479E1,1.609802246E-1,2.778884888E0
9.761657710E-1,1.179859924E1,1.346588135E-1,2.379287720E0
9.810485840E-1,1.255712891E1,-2.792968750E-1,1.735626221E0
9.859313960E-1,1.361953735E1,-8.535766602E-1,9.507751465E-1
9.908142090E-1,1.502172852E1,-1.789169312E0,2.257537842E-1
9.956970210E-1,1.595254517E1,-3.150695801E0,-3.078460693E-1
1.000579834E0,1.574436951E1,-4.708419800E0,-9.347686768E-1
1.005462646E0,1.428234863E1,-5.778015137E0,-1.588012695E0
1.010345459E0,1.189192200E1,-5.959869385E0,-2.080932617E0
1.015228271E0,9.188034058E0,-5.433441162E0,-1.678939819E0
1.020111084E0,6.776062012E0,-4.579208374E0,-6.857299805E-2
1.024993896E0,5.067596436E0,-3.636428833E0,6.782531738E-2
1.029876709E0,4.493316650E0,-3.258361816E0,-8.053588867E-2
1.034759521E0,4.871383667E0,-3.397155762E0,-7.816314697E-1
1.039642334E0,5.885940552E0,-3.533538818E0,-1.906250000E0
1.044525146E0,7.374267578E0,-3.545501709E0,-2.143142700E0
1.049407959E0,8.920043945E0,-3.538330078E0,-9.802398682E-1
1.054290771E0,1.011645508E1,-3.342117310E0,9.893798828E-2
1.059173584E0,1.111425781E1,-3.098052979E0,4.554595947E-1
1.064025879E0,1.182731628E1,-2.897048950E0,6.660308838E-1
1.068908691E0,1.234178162E1,-2.708023071E0,4.219665527E-1
1.073791504E0,1.265045166E1,-2.755874634E0,4.629516602E-2
1.078674316E0,1.274137878E1,-3.078903198E0,-2.623901367E-1
1.083557129E0,1.260020447E1,-3.413894653E0,-5.327758789E-1
1.088439941E0,1.232502747E1,-3.727355957E0,-1.004165649E0
1.093322754E0,1.175074768E1,-4.165252686E0,-1.628692627E0
1.098205566E0,1.076490784E1,-4.706024170E0,-2.447036743E0
1.103088379E0,9.434494019E0,-5.311401367E0,-3.248626709E0
1.107971191E0,7.785842896E0,-5.711013794E0,-4.430679321E0
1.112854004E0,6.204177856E0,-5.763656616E0,-5.476348877E0
1.117736816E0,4.825912476E0,-5.651184082E0,-6.189407349E0
1.122619629E0,3.861602783E0,-5.634445190E0,-6.411941528E0
1.127502441E0,3.524215698E0,-5.794754028E0,-6.129592896E0
1.132385254E0,3.787429810E0,-5.904830933E0,-5.524200439E0
1.137268066E0,4.459823608E0,-5.780395508E0,-4.851821899E0
1.142150879E0,5.495910645E0,-5.337722778E0,-4.356506348E0
1.147003174E0,6.771286011E0,-5.270736694E0,-3.724807739E0
1.151885986E0,7.771484375E0,-5.931152344E0,-2.992599487E0
1.156768799E0,8.307479858E0,-6.421676636E0,-2.157501221E0
1.161651611E0,8.465408325E0,-6.471923828E0,-1.513839722E0
1.166534424E0,8.580261230E0,-6.189575195E0,-1.248229980E0
1.171417236E0,8.678359985E0,-5.682296753E0,-1.473159790E0
1.176300049E0,8.752532959E0,-5.387985229E0,-1.949325562E0
1.181182861E0,8.733398438E0,-5.380798340E0,-2.475753784E0
1.186065674E0,8.597000122E0,-5.562652588E0,-2.947128296E0
1.190948486E0,8.489334106E0,-5.711013794E0,-3.435272217E0
1.195831299E0,8.427108765E0,-5.694259644E0,-4.043045044E0
1.200714111E0,8.369689941E0,-5.543518066E0,-4.698684692E0
1.205596924E0,8.063400269E0,-5.536331177E0,-5.258605957E0
1.210479736E0,7.568099976E0,-5.768432617E0,-5.624694824E0
1.215362549E0,6.912460327E0,-6.177612305E0,-5.732376099E0
1.220245361E0,6.134796143E0,-6.567642212E0,-5.682128906E0
1.225128174E0,5.424118042E0,-6.818893433E0,-5.555313110E0
1.229980469E0,4.871383667E0,-6.981597900E0,-5.275344849E0
1.234863281E0,4.541168213E0,-7.117996216E0,-4.892501831E0
1.239746094E0,4.481353760E0,-7.364456177E0,-4.488113403E0
1.244628906E0,4.665603638E0,-7.646804810E0,-3.997589111E0
1.249511719E0,4.907272339E0,-7.852584839E0,-3.420913696E0
1.254394531E0,5.148956299E0,-7.960266113E0,-2.841842651E0
1.259277344E0,5.503082275E0,-8.032043457E0,-2.387207031E0
1.264160156E0,6.024719238E0,-8.017684937E0,-1.973251343E0
1.269042969E0,6.771286011E0,-7.972229004E0,-1.578445435E0
1.273925781E0,7.814559937E0,-7.876510620E0,-1.212341309E0
1.278808594E0,8.989425659E0,-7.677902222E0,-9.132385254E-1
1.283691406E0,1.014038086E1,-7.177810669E0,-7.337646484E-1
1.288574219E0,1.102093506E1,-6.455169678E0,-7.935943604E-1
1.293457031E0,1.148513794E1,-5.947891235E0,-1.274551392E0
1.298339844E0,1.172442627E1,-5.818679810E0,-1.889511108E0
1.303222656E0,1.176988220E1,-6.175216675E0,-2.269958496E0
1.308105469E0,1.165025330E1,-6.589172363E0,-2.334564209E0
1.312988281E0,1.122193909E1,-6.646606445E0,-2.442245483E0
1.317840576E0,1.054237366E1,-6.251785278E0,-2.473358154E0
1.322723388E0,9.843673706E0,-5.797149658E0,-2.310638428E0
1.327606201E0,9.243072510E0,-5.545898438E0,-1.856002808E0
1.332489013E0,8.776473999E0,-5.454971313E0,-1.130981445E0
1.337371826E0,8.398406982E0,-5.361663818E0,-5.040588379E-1
1.342254638E0,8.111267090E0,-5.215698242E0,-2.599945068E-1
1.347137451E0,7.934188843E0,-5.041015625E0,-3.580932617E-1
1.352020263E0,7.943771362E0,-4.856765747E0,-8.582000732E-1
1.356903076E0,8.087341309E0,-4.775421143E0,-1.745941162E0
1.361785888E0,8.474975586E0,-4.871124268E0,-2.815521240E0
1.366668701E0,8.836288452E0,-5.007522583E0,-4.143539429E0
1.371551513E0,9.027709961E0,-5.021881104E0,-5.380630493E0
1.376434326E0,8.999008179E0,-4.935729980E0,-6.529190063E0
1.381317138E0,8.649642944E0,-4.717987061E0,-7.421707153E0
1.386199951E0,8.147155762E0,-4.433242798E0,-8.017517090E0
1.391082763E0,7.580062866E0,-4.438034058E0,-8.189804077E0
1.395965576E0,7.024917603E0,-4.581604004E0,-7.885925293E0
1.400848388E0,6.500900269E0,-4.622268677E0,-7.309249878E0
1.405700683E0,5.981658936E0,-4.469131470E0,-6.533981323E0
1.410583496E0,5.529403687E0,-4.181991577E0,-5.674957275E0
1.415466308E0,5.290130615E0,-3.791961670E0,-4.842254639E0
1.420349121E0,5.069992065E0,-3.701034546E0,-4.332580566E0
1.425231933E0,4.610565186E0,-3.808715820E0,-3.887512207E0
1.430114746E0,4.067398071E0,-4.014495850E0,-3.602767944E0
1.434997558E0,3.691726685E0,-4.294464111E0,-3.420913696E0
1.439880371E0,3.651046753E0,-4.595947266E0,-3.325195312E0
1.444763183E0,3.895111084E0,-4.844802856E0,-3.346740723E0
1.449645996E0,4.289932251E0,-5.131942749E0,-3.396987915E0
1.454528808E0,4.531600952E0,-5.490875244E0,-3.353912354E0
1.459411621E0,4.560317993E0,-6.103439331E0,-3.145736694E0
1.464294433E0,4.328216553E0,-7.084487915E0,-2.724594116E0
1.469177246E0,3.667785645E0,-8.022476196E0,-1.990005493E0
1.474060058E0,2.693908691E0,-8.491470337E0,-1.104660034E0
1.478942871E0,2.009567261E0,-8.477111816E0,-1.547088623E-1
1.483825683E0,1.531005859E0,-8.723571777E0,6.445007324E-1
1.488677978E0,1.095504761E0,-9.386383057E0,1.280990601E0
1.493560791E0,1.023727417E0,-9.960662842E0,1.728439331E0
1.498443603E0,1.176864624E0,-1.024540710E1,2.144790649E0
1.503326416E0,1.600387573E0,-1.009944153E1,2.396041870E0
1.508209228E0,2.217742920E0,-9.632843018E0,2.336212158E0
1.513092041E0,2.904479980E0,-9.360061646E0,1.687759399E0
1.517974853E0,3.349548340E0,-9.558670044E0,5.176696777E-1
1.522857666E0,3.452438354E0,-1.021429443E1,-9.706573486E-1
1.527740478E0,3.249053955E0,-1.082685852E1,-2.585815430E0
1.532623291E0,2.772872925E0,-1.107810974E1,-4.153121948E0
1.537506103E0,2.122024536E0,-1.107093811E1,-5.543350220E0
1.542388916E0,1.552536011E0,-1.103982544E1,-6.474151611E0
1.547271728E0,1.753540039E0,-1.158299255E1,-5.646240234E0
1.552154541E0,2.392410278E0,-1.216923523E1,-3.169662476E0
1.557037353E0,2.437881470E0,-1.202088928E1,-1.970855713E0
1.561920166E0,2.861404419E0,-1.199694824E1,-9.275970459E-1
1.566802978E0,3.342361450E0,-1.191798401E1,-1.307830811E-1
1.571685791E0,3.533798218E0,-1.171220398E1,5.846710205E-1
1.576538086E0,3.631896973E0,-1.160453796E1,1.005813599E0
1.581420898E0,4.225326538E0,-1.191081238E1,1.252273560E0
1.586303711E0,4.617736816E0,-1.203285217E1,1.029739380E0
1.591186523E0,4.792419434E0,-1.182467651E1,5.583496094E-1
1.596069336E0,4.876159668E0,-1.152795410E1,7.473907471E-1
1.600952148E0,4.895309448E0,-1.104461670E1,5.415954590E-1
1.605834961E0,4.993408203E0,-1.048709106E1,4.219665527E-1
1.610717773E0,5.873977661E0,-1.022627258E1,-3.916015625E-1
1.615600586E0,7.802597046E0,-1.012336731E1,-2.088104248E0
1.620483398E0,8.352935791E0,-9.668731689E0,-4.023910522E0
1.625366211E0,8.628112793E0,-9.362457275E0,-6.837860107E0
1.630249023E0,9.927413940E0,-9.570632935E0,-8.642044067E0
1.635131836E0,1.052084351E1,-9.764450073E0,-9.211547852E0
1.640014648E0,1.014755249E1,-9.711807251E0,-8.541549683E0
1.644897461E0,7.718841553E0,-9.429458618E0,-6.770858765E0
1.649780273E0,6.687530518E0,-1.023583984E1,-5.249023438E0
1.654663086E0,5.694519043E0,-1.069526672E1,-2.738952637E0
1.659515381E0,4.770889282E0,-1.082208252E1,-6.548156738E-1
1.664398193E0,2.959518433E0,-1.058518982E1,6.755981445E-1
1.669281006E0,2.342163086E0,-1.053015137E1,1.907897949E0
1.674163818E0,2.239273071E0,-1.047750854E1,1.939010620E0
1.679046631E0,2.229705811E0,-1.013055420E1,6.397094727E-1
1.683929443E0,2.720230103E0,-9.750091553E0,-9.898071289E-1
1.688812256E0,2.114852905E0,-9.206924438E0,-3.286911011E0
1.693695068E0,4.538772583E0,-9.412704468E0,-5.069564819E0
1.698577881E0,4.457427979E0,-9.118392944E0,-6.469360352E0
1.703460693E0,4.072174072E0,-8.613510132E0,-6.072158813E0
1.708343506E0,4.943161011E0,-8.309616089E0,-4.681930542E0
1.713226318E0,6.304687500E0,-8.237823486E0,-2.234069824E0
1.718109131E0,6.063003540E0,-8.304824829E0,-1.327194214E0
1.722991943E0,3.715652466E0,-7.960266113E0,-7.696685791E-1
1.727874756E0,2.586242676E0,-7.773620605E0,-2.839202881E-1
1.732757568E0,2.784835815E0,-8.240219116E0,1.039123535E-2
1.737640381E0,2.837478638E0,-8.343109131E0,-4.609832764E-1
1.742492676E0,1.901885986E0,-8.003326416E0,-6.380615234E-1
1.747375488E0,8.322906494E-1,-7.383590698E0,-7.361602783E-1
1.752258301E0,9.291076660E-2,-7.184982300E0,-1.953887939E-1
1.757141113E0,4.829406738E-1,-7.639617920E0,2.951354980E-1
1.762023926E0,2.040664673E0,-8.297653198E0,3.023223877E-1
1.766906738E0,-2.492523193E-1,-8.053588867E0,-1.427459717E-1
1.771789551E0,1.455535889E-1,-8.465148926E0,-5.160217285E-1
1.776672363E0,1.349151611E0,-9.075317383E0,-1.032867432E0
1.781555176E0,2.113342285E-2,-8.934143066E0,-9.180145264E-1
1.786437988E0,-1.637100220E0,-9.206924438E0,-2.789306641E-2
1.791320801E0,1.742706299E-1,-9.891265869E0,7.258453369E-1
1.796203613E0,-3.569335938E-1,-1.005158997E1,5.894622803E-1
1.801086426E0,1.198394775E0,-1.010183716E1,7.617492676E-1
1.805969238E0,2.686737061E0,-1.002526855E1,-5.661010742E-2
1.810852051E0,9.447631836E-1,-9.276321411E0,-1.047225952E0
1.815734863E0,3.052841187E0,-9.527557373E0,-9.204101562E-1
1.820617676E0,3.957321167E0,-9.817092896E0,-8.940887451E-1
1.825500488E0,2.631698608E0,-9.683090210E0,-8.462371826E-1
1.830352783E0,3.392623901E0,-1.009944153E1,-5.327758789E-1
1.835235595E0,3.342361450E0,-1.032197571E1,-6.548156738E-1
1.840118408E0,2.425918579E0,-1.040093994E1,-9.249877930E-2
1.845001220E0,2.102890015E0,-1.006355286E1,2.975311279E-1
1.849884033E0,3.435684204E0,-1.038418579E1,8.885650635E-1
1.854766845E0,3.406967163E0,-1.035069275E1,6.421051025E-1
1.859649658E0,2.923629761E0,-1.039854431E1,1.659240723E-1
1.864532470E0,2.007171631E0,-1.087712097E1,1.563568115E-1
1.869415283E0,1.380249023E0,-1.144181824E1,-1.379547119E-1
1.874298095E0,1.842071533E0,-1.201370239E1,-9.036560059E-1
1.879180908E0,2.196212769E0,-1.289187622E1,-1.317626953E0
1.884063720E0,1.389831543E0,-1.293733215E1,-1.623901367E0
1.888946533E0,1.849243164E0,-1.326515198E1,-1.585617065E0
1.893829345E0,2.323028564E0,-1.359774780E1,-1.372650146E0
1.898712158E0,2.459411621E0,-1.384182739E1,-1.513839722E0
1.903594970E0,2.083740234E0,-1.396864319E1,-1.664581299E0
1.908477783E0,1.535781860E0,-1.433235168E1,-1.870361328E0
1.913330078E0,6.935119629E-1,-1.505976868E1,-1.990005493E0
1.918212890E0,3.369750977E-1,-1.563165283E1,-1.915832520E0
1.923095703E0,3.609161377E-1,-1.580154419E1,-1.913436890E0
1.927978515E0,5.930175781E-1,-1.533255005E1,-1.724395752E0
1.932861328E0,4.972991943E-1,-1.463145447E1,-1.303268433E0
1.937744140E0,1.198394775E0,-1.379156494E1,-5.925903320E-1
1.942626953E0,1.636291504E0,-1.289425659E1,8.383178711E-1
1.947509765E0,-7.182464600E-1,-1.102786255E1,1.898330688E0
1.952392578E0,-2.326232910E0,-1.018080139E1,3.314880371E0
1.957275390E0,-1.766311646E0,-9.852981567E0,4.956359863E0
1.962158203E0,-3.617248535E-1,-9.498855591E0,5.760345459E0
1.967041015E0,2.245178223E-1,-9.037033081E0,4.736221313E0
1.971923828E0,-8.654785156E-2,-8.814498901E0,2.096939087E0
1.976806640E0,-1.369094849E0,-9.077713013E0,6.875610352E-1
1.981689453E0,-4.580261230E0,-9.261962891E0,-8.979431152E0
1.986572265E0,-4.489334106E0,-1.132696533E1,-1.357125854E1
1.991455078E0,1.024932861E-1,-8.465148926E0,-4.088516235E0
1.996337890E0,1.801391602E0,-7.586975098E0,-1.264984131E0
2.001190185E0,1.885131836E0,-7.766448975E0,-2.415924072E0
2.006072998E0,4.063720703E-1,-9.288284302E0,-3.664978027E0
2.010955810E0,3.896179199E-1,-1.075508118E1,-2.870559692E0
2.015838623E0,1.016540527E0,-1.191320801E1,-6.907043457E-1
2.020721435E0,3.776550293E-1,-1.278419495E1,3.214569092E-1
2.025604248E0,-1.385848999E0,-1.338719177E1,-2.288818359E-1
2.030487060E0,-1.699310303E0,-1.325558472E1,1.324310303E-1
2.035369873E0,-1.180068970E0,-1.202088928E1,7.282409668E-1
2.040252685E0,-1.761520386E0,-1.110922241E1,1.132629395E0
2.045135498E0,-2.036697388E0,-1.136524963E1,1.324050903E0
2.050018310E0,-1.230316162E0,-1.173374939E1,9.603424072E-1
2.054901123E0,-2.420806885E-1,-1.156863403E1,-2.408447266E-1
2.059783935E0,-3.186492920E-1,-1.114031982E1,2.855682373E-1
2.064666748E0,-7.972106934E-1,-1.068090820E1,7.976379395E-1
2.069549560E0,-7.876434326E-1,-9.817092896E0,4.123840332E-1
2.074432373E0,-3.904418945E-1,-8.864746094E0,-7.313842773E-1
2.079315185E0,3.944091797E-1,-8.362258911E0,-1.674148560E0
2.084197998E0,7.126617432E-1,-8.477111816E0,-1.083129883E0
2.089050293E0,5.547332764E-1,-9.063354492E0,1.778869629E-1
2.093933105E0,-4.107666016E-2,-9.412704468E0,3.214569092E-1
2.098815918E0,-9.851074219E-2,-9.613708496E0,1.467895508E-1
2.103698730E0,6.774902344E-3,-9.661560059E0,3.549652100E-1
2.108581543E0,-1.009063721E-1,-9.728561401E0,4.937438965E-1
2.113464355E0,-8.666076660E-1,-9.185394287E0,3.884582520E-1
2.118347168E0,-1.918334961E-1,-8.953277588E0,-1.571044922E-1
2.123229980E0,1.838378906E-1,-8.462753296E0,-4.059600830E-1
2.128112793E0,1.120605469E-1,-8.185180664E0,-5.471343994E-1
2.132995605E0,-9.611511230E-2,-8.120574951E0,-5.710601807E-1
2.137878418E0,-7.278289795E-1,-8.417297363E0,-1.786346436E-1
2.142761230E0,-1.436096191E0,-8.802536011E0,-6.404571533E-1
2.147644043E0,-1.620346069E0,-9.166244507E0,-1.307830811E-1
2.152526855E0,-1.680160522E0,-9.697448730E0,-2.193145752E-1
2.157409668E0,-1.651458740E0,-1.032916260E1,2.235412598E-2
2.162292480E0,-1.299713135E0,-1.073355103E1,2.640380859E-1
2.167175293E0,-8.163604736E-1,-1.084361267E1,2.113952637E-1
2.172027588E0,-3.641204834E-1,-1.089146423E1,3.142852783E-1
2.176910400E0,9.530639648E-2,-1.114271545E1,3.836822510E-1
2.181793213E0,2.293090820E-1,-1.125756836E1,2.712097168E-1
2.186676025E0,2.675933838E-1,-1.107810974E1,-1.044616699E-1
2.191558838E0,2.986907959E-1,-1.079576111E1,-5.160217285E-1
2.196441650E0,2.939147949E-1,-1.061151123E1,-9.610900879E-1
2.201324463E0,2.388763428E-1,-1.051579285E1,-9.156188965E-1
2.206207275E0,-5.543518066E-2,-1.037222290E1,-2.719573975E-1
2.211090088E0,-4.981079102E-1,-9.970230103E0,4.985351562E-1
2.215972900E0,-5.411834717E-1,-9.496459961E0,1.197235107E0
2.220855713E0,-3.593292236E-1,-9.261962891E0,1.965332031E0
2.225738525E0,-1.822662354E-1,-9.068145752E0,2.321868896E0
2.230621338E0,-5.783081055E-2,-9.130355835E0,2.302719116E0
2.235504150E0,1.024932861E-1,-9.288284302E0,1.565734863E0
2.240386963E0,2.771606445E-1,-9.319381714E0,5.415954590E-1
2.245269775E0,1.431579590E-1,-9.453384399E0,-4.155273438E-1
2.250152588E0,-2.731933594E-1,-9.687881470E0,-9.539184570E-1
2.255035400E0,-5.172576904E-1,-9.912811279E0,-9.898071289E-1
2.259887695E0,-6.273193359E-1,-1.014491272E1,-1.071166992E0
2.264770508E0,-4.789733887E-1,-1.031719971E1,-1.104660034E0
2.269653320E0,-4.861450195E-1,-1.069287109E1,-8.725585938E-1
2.274536133E0,-6.895446777E-1,-1.078140259E1,-6.500244141E-1
2.279418945E0,-8.020019531E-1,-1.075508118E1,-5.806274414E-1
2.284301758E0,-9.024963379E-1,-1.064262390E1,-4.753417969E-1
2.289184570E0,-5.196533203E-1,-1.049665833E1,-1.882019043E-1
2.294067383E0,-2.875518799E-1,-1.033393860E1,2.066040039E-1
2.298950195E0,-4.143676758E-1,-1.012098694E1,6.468811035E-1
2.303833008E0,-7.038879395E-1,-1.002766418E1,1.036911011E0
2.308715820E0,-8.594360352E-1,-9.915206909E0,1.108703613E0
2.313598633E0,-1.000610352E0,-9.324172974E0,8.574523926E-1
2.318481445E0,-1.364318848E0,-7.936340332E0,3.693237305E-1
2.323364258E0,-1.991241455E0,-6.900238037E0,4.722137451E-1
2.328247070E0,-2.460220337E0,-6.266143799E0,3.238525391E-1
2.333129883E0,-2.493728638E0,-5.900039673E0,2.233581543E-1
2.338012695E0,-2.220947266E0,-5.624862671E0,5.487823486E-1
2.342864990E0,-2.106094360E0,-5.359268188E0,7.138824463E-1
2.347747803E0,-1.900314331E0,-5.526763916E0,5.081024170E-1
2.352630615E0,-1.739990234E0,-6.177612305E0,4.195709229E-1
2.357513428E0,-1.763916016E0,-6.943313599E0,1.278594971E0
2.362396240E0,-1.404998779E0,-7.103637695E0,2.965530396E0
2.367279053E0,-5.028991699E-1,-7.165847778E0,3.535018921E0
2.372161865E0,-3.869628906E-2,-7.594161987E0,1.668624878E0
2.377044678E0,2.590942383E-2,-7.661163330E0,-3.028869629E-2
2.381927490E0,-1.655120850E-1,-7.651596069E0,-1.018524170E0
2.386810303E0,-5.746765137E-1,-7.778411865E0,-1.485122681E0
2.391693115E0,-9.192504883E-1,-8.103836060E0,-1.733978271E0
2.396575928E0,-1.136993408E0,-8.532150269E0,-1.571258545E0
2.401458740E0,-1.232711792E0,-8.891067505E0,-1.410934448E0
2.406341553E0,-5.196533203E-1,-9.862564087E0,-1.176437378E0
2.411224365E0,2.172271729E0,-1.308808899E1,-4.873046875E-1
2.416107178E0,4.773269653E0,-1.626574707E1,-7.574462891E-2
2.420989990E0,5.017349243E0,-1.667970276E1,-3.746032715E-2
2.425842285E0,3.837677002E0,-1.554551697E1,1.061096191E-1
2.430725097E0,1.916244507E0,-1.380114746E1,3.932495117E-1
2.435607910E0,6.145477295E-1,-1.216206360E1,2.783966064E-1
2.440490722E0,-1.056823730E-1,-1.041529846E1,3.549652100E-1
2.445373535E0,-2.564392090E-1,-8.733139038E0,5.822753906E-1
2.450256347E0,6.658935547E-2,-7.933944702E0,8.598480225E-1
2.455139160E0,6.767578125E-1,-7.862152100E0,4.602508545E-1
2.460021972E0,1.253433228E0,-8.240219116E0,-1.762390137E-1
2.464904785E0,1.571685791E0,-8.974822998E0,-5.375671387E-1
2.469787597E0,1.641067505E0,-1.034590149E1,-5.973815918E-1
2.474670410E0,1.928207397E0,-1.230084229E1,-5.327758789E-1
2.479553222E0,1.913848877E0,-1.402368164E1,-8.770751953E-2
2.484436035E0,9.016876221E-1,-1.511720276E1,2.113952637E-1
2.489318847E0,-4.646148682E-1,-1.552876282E1,3.070983887E-1
2.494201660E0,-1.115463257E0,-1.619396973E1,4.291381836E-1
2.499084472E0,-1.682556152E0,-1.648828125E1,3.908538818E-1
2.503967285E0,-1.955337524E0,-1.656724548E1,8.454895020E-1
2.508850097E0,-2.314270020E0,-1.637821960E1,1.094345093E0
2.513702392E0,-2.283157349E0,-1.593554688E1,1.084777832E0
2.518585205E0,-2.378875732E0,-1.538998413E1,9.316253662E-1
2.523468017E0,-2.352554321E0,-1.482048035E1,8.311309814E-1
2.528350830E0,-2.161117554E0,-1.421749878E1,7.952423096E-1
2.533233642E0,-1.744766235E0,-1.366235352E1,9.699249268E-1
2.538116455E0,-1.141784668E0,-1.306654358E1,1.068023682E0
2.542999267E0,-7.110748291E-1,-1.252816772E1,1.130233765E0
2.547882080E0,-2.133636475E-1,-1.176245117E1,9.842681885E-1
2.552764892E0,7.138061523E-2,-1.061868286E1,6.732025146E-1
2.557647705E0,-3.330078125E-1,-9.601745605E0,-6.347656250E-3
2.562530517E0,-6.991119385E-1,-9.044204712E0,-6.476287842E-1
2.567413330E0,-5.244293213E-1,-8.491470337E0,-1.037658691E0
2.572296142E0,6.181335449E-2,-7.058166504E0,-9.347686768E-1
2.577178955E0,3.824462891E-1,-6.974426270E0,-8.342742920E-1
2.582061767E0,7.437591553E-1,-7.168243408E0,-2.695617676E-1
2.586944580E0,1.026107788E0,-7.070129395E0,3.671264648E-2
2.591827392E0,9.615020752E-1,-7.043807983E0,-2.097473145E-1
2.596679687E0,7.676849365E-1,-7.402740479E0,-5.471343994E-1
2.601562500E0,1.234283447E0,-7.881301880E0,-2.695617676E-1
2.606445312E0,1.327606201E0,-8.218688965E0,5.586242676E-2
2.611328125E0,6.025848389E-1,-8.898254395E0,4.578552246E-1
2.616210937E0,-1.200408936E-1,-9.718994141E0,5.751037598E-1
2.621093750E0,-4.000091553E-1,-1.052775574E1,4.937438965E-1
2.625976562E0,-4.813690186E-1,-1.063066101E1,2.520751953E-1
2.630859375E0,-6.105804443E-1,-1.075987244E1,-2.193145752E-1
2.635742187E0,-2.349090576E-1,-1.060671997E1,-6.021728516E-1
2.640625000E0,-1.511535645E-1,-1.062586975E1,-5.686645508E-1
2.645507812E0,-4.646148682E-1,-1.098957825E1,-1.786346436E-1
2.650390625E0,-3.497619629E-1,-1.119775391E1,1.731109619E-1
2.655273437E0,-6.262207031E-2,-1.103503418E1,4.219665527E-1
2.660156250E0,4.266357422E-2,-1.081968689E1,4.434967041E-1
2.665039062E0,3.154449463E-1,-1.066894531E1,4.961395264E-1
2.669921875E0,7.461547852E-1,-1.051818848E1,1.109008789E-1
2.674804687E0,1.071578979E0,-1.048229980E1,-6.378173828E-2
2.679687500E0,1.306076050E0,-1.047273254E1,-3.317718506E-1
2.684539795E0,1.377853394E0,-1.075987244E1,-6.763458252E-1
2.689422607E0,1.351531982E0,-1.131260681E1,-8.845214844E-1
2.694305420E0,1.140975952E0,-1.199694824E1,-8.007659912E-1
2.699188232E0,8.131561279E-1,-1.273634338E1,-6.117401123E-1
2.704071045E0,4.039764404E-1,-1.308808899E1,-1.451416016E-1
2.708953857E0,-3.401794434E-1,-1.304978943E1,5.751037598E-1
2.713836670E0,-7.397918701E-1,-1.304501343E1,1.302520752E0
2.718719482E0,-8.737792969E-1,-1.316943359E1,1.498733521E0
2.723602295E0,-1.199203491E0,-1.315507507E1,1.345596313E0
2.728485107E0,-1.134597778E0,-1.297322083E1,1.158950806E0
2.733367920E0,-6.369018555E-1,-1.255448914E1,1.036911011E0
2.738250732E0,-1.391906738E-1,-1.185816956E1,8.694152832E-1
2.743133545E0,-7.937622070E-2,-1.111161804E1,5.511779785E-1
2.748016357E0,-1.439819336E-1,-1.040573120E1,2.424926758E-1
2.752899170E0,3.178405762E-1,-9.671127319E0,1.997375488E-2
2.757781982E0,6.911163330E-1,-9.517990112E0,-4.801330566E-1
2.762664795E0,1.035690308E0,-9.343307495E0,-6.715545654E-1
2.767547607E0,1.586029053E0,-9.453384399E0,-8.749542236E-1
2.772399902E0,2.098098755E0,-9.424667358E0,-8.127288818E-1
2.777282715E0,2.208175659E0,-9.293060303E0,-7.122344971E-1
2.782165527E0,1.928207397E0,-9.240417480E0,-5.471343994E-1
2.787048340E0,1.090728760E0,-8.879104614E0,-5.519104004E-1
2.791931152E0,1.958007812E-1,-8.412506104E0,-3.580932617E-1
2.796813965E0,-4.287261963E-1,-8.725967407E0,4.867553711E-2
2.801696777E0,-1.113067627E0,-9.029861450E0,2.448883057E-1
2.806579590E0,-1.742385864E0,-8.771423340E0,-4.083404541E-1
2.811462402E0,-1.450454712E0,-8.663757324E0,-3.628845215E-1
2.816345215E0,-8.833618164E-1,-9.096847534E0,-2.312774658E-1
2.821228027E0,-4.837493896E-1,-9.632843018E0,9.483795166E-1
2.826110840E0,-2.444763184E-1,-1.028369141E1,1.367126465E0
2.830993652E0,4.379272461E-3,-1.069764709E1,5.272521973E-1
2.835876465E0,4.279022217E-1,-1.123603821E1,3.166809082E-1
2.840759277E0,8.275146484E-1,-1.198020935E1,6.063842773E-2
2.845642090E0,1.358718872E0,-1.281530762E1,7.995605469E-3
2.850524902E0,4.877319336E-1,-1.298757935E1,-5.181884766E-2
2.855377197E0,-1.110671997E0,-1.162606812E1,-2.958831787E-1
2.860260010E0,-3.919845581E0,-6.148895264E0,-9.802398682E-1
2.865142822E0,-6.315063477E0,-3.462982178E-1,4.195709229E-1
2.870025635E0,-8.736602783E0,1.768951416E0,1.386276245E0
2.874908447E0,-3.977279663E0,-3.512008667E0,-1.951721191E0
2.879791260E0,-1.046066284E0,-7.919586182E0,-3.047637939E0
2.884674072E0,2.963104248E-1,-9.881698608E0,-3.712829590E0
2.889556885E0,1.523818970E0,-1.187731934E1,-4.172256470E0
2.894439697E0,2.765701294E0,-1.358578491E1,-2.796386719E0
2.899322510E0,3.684539795E0,-1.449505615E1,-3.652801514E-1
2.904205322E0,4.048248291E0,-1.496884155E1,1.077590942E0
2.909088135E0,4.038681030E0,-1.550723267E1,1.515487671E0
2.913970947E0,3.940567017E0,-1.579197693E1,1.336013794E0
2.918853760E0,2.519241333E0,-1.519854736E1,6.301422119E-1
2.923736572E0,4.207305908E-1,-1.467213440E1,1.039123535E-2
2.928619385E0,-7.924346924E-1,-1.441848755E1,1.013183594E-1
2.933502197E0,-9.623260498E-1,-1.366235352E1,1.070419312E0
2.938385010E0,-8.187561035E-1,-1.239176941E1,2.494140625E0
2.943237304E0,-8.402862549E-1,-1.140832520E1,3.740814209E0
2.948120117E0,-1.046066284E0,-1.199217224E1,3.432128906E0
2.953002929E0,-1.278167725E0,-1.149685669E1,2.613784790E0
2.957885742E0,-1.524627686E0,-1.156385803E1,1.735626221E0
2.962768554E0,1.814422607E-1,-1.177203369E1,2.329040527E0
2.967651367E0,-4.550476074E-1,-1.051579285E1,1.436523438E0
2.972534179E0,-8.857574463E-1,-9.807525635E0,5.152740479E-1
2.977416992E0,-9.838562012E-1,-9.489273071E0,-1.690673828E-1
2.982299804E0,-1.125030518E0,-9.316986084E0,-8.103485107E-1
2.987182617E0,-1.172882080E0,-9.257171631E0,-1.262588501E0
2.992065429E0,-1.141784668E0,-9.285888672E0,-1.518615723E0
2.996948242E0,-1.153747559E0,-9.328964233E0,-1.604766846E0
3.001831054E0,-1.180068970E0,-9.372024536E0,-1.485122681E0
3.006713867E0,-1.247070312E0,-9.458175659E0,-1.241043091E0
3.011596679E0,-1.326034546E0,-9.491668701E0,-9.993743896E-1
3.016479492E0,-1.177673340E0,-9.599349976E0,-8.007659912E-1
3.021362304E0,-9.982147217E-1,-9.740524292E0,-6.548156738E-1
3.026214599E0,-8.761749268E-1,-9.872131348E0,-5.590972900E-1
3.031097412E0,-7.756805420E-1,-9.991775513E0,-5.303802490E-1
3.035980224E0,-7.278289795E-1,-1.010902405E1,-4.944915771E-1
3.040863037E0,-7.110748291E-1,-1.020712280E1,-5.040588379E-1
3.045745849E0,-6.488647461E-1,-1.028608704E1,-4.968872070E-1
3.050628662E0,-5.938262939E-1,-1.036505127E1,-4.490203857E-1
3.055511474E0,-5.579376221E-1,-1.041769409E1,-4.179229736E-1
3.060394287E0,-5.292205811E-1,-1.044641113E1,-3.987731934E-1
3.065277099E0,-5.675048828E-1,-1.050143433E1,-3.030700684E-1
3.070159912E0,-6.560363770E-1,-1.051579285E1,-2.264862061E-1
3.075042724E0,-7.732849121E-1,-1.055169678E1,-1.355590820E-1
3.079925537E0,-8.642120361E-1,-1.056126404E1,-5.421447754E-2
3.084808349E0,-9.551391602E-1,-1.057562256E1,3.431701660E-2
3.089691162E0,-1.067611694E0,-1.056604004E1,1.180725098E-1
3.094573974E0,-1.086746216E0,-1.053971863E1,1.778869629E-1
3.099456787E0,-1.144180298E0,-1.048229980E1,2.688140869E-1
3.104339599E0,-1.357131958E0,-1.040812683E1,5.320281982E-1
3.109191894E0,-2.223342896E0,-9.953491211E0,6.971435547E-1
3.114074707E0,-1.213562012E0,-9.955871582E0,3.358154297E-1
3.118957519E0,-3.784790039E-1,-1.018559265E1,6.782531738E-2
3.123840332E0,-5.172576904E-1,-1.027651978E1,-9.010314941E-2
3.128723144E0,-6.488647461E-1,-1.035308838E1,-1.116333008E-1
3.133605957E0,-8.283233643E-1,-1.031480408E1,-4.463195801E-2
3.138488769E0,-1.239883423E0,-1.015687561E1,-5.899047852E-2
3.143371582E0,-1.536590576E0,-9.924774170E0,9.414672852E-2
3.148254394E0,-1.723236084E0,-9.728561401E0,2.664337158E-1
3.153137207E0,-1.672988892E0,-9.584991455E0,2.042083740E-1
3.158020019E0,-1.278167725E0,-9.592163086E0,-6.138610840E-2
3.162902832E0,-5.746765137E-1,-9.910415649E0,-5.160217285E-1
3.167785644E0,-3.090820312E-1,-1.017362976E1,-7.409515381E-1
3.172668457E0,-2.253265381E-1,-1.030284119E1,-7.648773193E-1
3.177551269E0,-1.774749756E-1,-1.043922424E1,-8.342742920E-1
3.182434082E0,-3.928222656E-1,-1.045118713E1,-8.079528809E-1
3.187316894E0,-6.321105957E-1,-1.036026001E1,-8.031616211E-1
3.192199707E0,-5.699005127E-1,-1.042965698E1,-6.883087158E-1
3.197052002E0,-6.584320068E-1,-1.042247009E1,-5.758514404E-1
3.201934814E0,-7.421875000E-1,-1.042008972E1,-4.346618652E-1
3.206817627E0,-9.336090088E-1,-1.040333557E1,-2.121429443E-1
3.211700439E0,-1.151351929E0,-1.031001282E1,-3.746032715E-2
3.216583252E0,-1.175277710E0,-1.027172852E1,-6.138610840E-2
3.221466064E0,-1.206390381E0,-1.029565430E1,-3.746032715E-2
3.226348877E0,-1.404998779E0,-1.028608704E1,8.239746094E-4
3.231231689E0,-1.421737671E0,-1.028608704E1,-3.266906738E-2
3.236114502E0,-1.074783325E0,-1.040333557E1,-1.427459717E-1
3.240997314E0,-9.886474609E-1,-1.046554565E1,-2.552032471E-1
3.245880127E0,-1.079574585E0,-1.043444824E1,-3.580932617E-1
3.250762939E0,-1.029312134E0,-1.052058411E1,-3.054504395E-1
3.255645752E0,-1.031707764E0,-1.055886841E1,-3.461303711E-1
3.260528564E0,-1.177673340E0,-1.053733826E1,-3.628845215E-1
3.265411377E0,-1.282958984E0,-1.048947144E1,-3.198089600E-1
3.270294189E0,-1.285354614E0,-1.045358276E1,-2.575988770E-1
3.275177002E0,-1.237487793E0,-1.050622559E1,-1.571044922E-1
3.280029297E0,-1.388244629E0,-1.049665833E1,-1.116333008E-1
3.284912109E0,-1.565307617E0,-1.043682861E1,-9.727478027E-2
3.289794922E0,-1.570098877E0,-1.041050720E1,1.039123535E-2
3.294677734E0,-1.531814575E0,-1.041529846E1,7.995605469E-3
3.299560547E0,-1.546173096E0,-1.036984253E1,3.219604492E-3
3.304443359E0,-1.627517700E0,-1.031480408E1,3.193664551E-2
3.309326172E0,-1.720840454E0,-1.021429443E1,-1.353454590E-2
3.314208984E0,-1.632308960E0,-1.017362976E1,-4.463195801E-2
3.319091797E0,-1.613174438E0,-1.011619568E1,-8.053588867E-2
3.323974609E0,-1.538986206E0,-1.008747864E1,-2.001647949E-1
3.328857422E0,-1.244674683E0,-1.013534546E1,-4.179229736E-1
3.333740234E0,-1.024536133E0,-1.016644287E1,-5.949859619E-1
3.338623047E0,-1.347564697E0,-1.009466553E1,-5.495300293E-1
3.343505859E0,-2.043869019E0,-9.781204224E0,-2.432403564E-1
3.348388672E0,-1.780670166E0,-9.659164429E0,-2.312774658E-1
3.353271484E0,-1.622741699E0,-9.551483154E0,-4.705657959E-1
3.358154297E0,-1.493530273E0,-9.544311523E0,-6.811370850E-1
3.363037109E0,-1.337997437E0,-9.671127319E0,-7.648773193E-1
3.367889404E0,-1.136993408E0,-9.857772827E0,-8.558044434E-1
3.372772217E0,-9.886474609E-1,-1.004441833E1,-1.013732910E0
3.377655029E0,-8.642120361E-1,-1.020472717E1,-1.130981445E0
3.382537842E0,-8.139648438E-1,-1.028369141E1,-1.178833008E0
3.387420654E0,-8.594360352E-1,-1.038180542E1,-1.183624268E0
3.392303467E0,-8.737792969E-1,-1.043682861E1,-1.157302856E0
3.397186279E0,-8.953247070E-1,-1.051579285E1,-1.107055664E0
3.402069092E0,-9.001007080E-1,-1.059475708E1,-9.754486084E-1
3.406951904E0,-1.036499023E0,-1.063543701E1,-8.342742920E-1
3.411834717E0,-1.213562012E0,-1.063304138E1,-6.595916748E-1
3.416717529E0,-1.278167725E0,-1.059954834E1,-5.590972900E-1
3.421600342E0,-1.199203491E0,-1.058518982E1,-6.189117432E-1
3.426483154E0,-1.060424805E0,-1.059954834E1,-7.481231689E-1
3.431365967E0,-8.450775146E-1,-1.069287109E1,-8.558044434E-1
3.436248779E0,-5.699005127E-1,-1.088189697E1,-1.013732910E0
3.441131592E0,-5.627136230E-1,-1.094410706E1,-1.107055664E0
3.446014404E0,-5.722961426E-1,-1.090582275E1,-1.212341309E0
3.450897217E0,-1.117858887E0,-1.049665833E1,-1.233871460E0
3.455749511E0,-1.570098877E0,-1.005876160E1,-1.099868774E0
3.460632324E0,-1.895523071E0,-9.654388428E0,-9.826202393E-1
3.465515136E0,-1.859634399E0,-9.484497070E0,-9.156188965E-1
3.470397949E0,-1.792633057E0,-9.479705811E0,-7.529144287E-1
3.475280761E0,-1.668197632E0,-9.580200195E0,-6.213073730E-1
3.480163574E0,-1.711273193E0,-9.604125977E0,-5.375671387E-1
3.485046386E0,-1.747161865E0,-9.606521606E0,-5.160217285E-1
3.489929199E0,-1.909881592E0,-9.608917236E0,-3.987731934E-1
3.494812011E0,-1.773483276E0,-9.697448730E0,-5.088500977E-1
3.499694824E0,-1.608383179E0,-9.848205566E0,-3.628845215E-1
3.504577636E0,-1.658630371E0,-9.963058472E0,-4.394531250E-1
3.509460449E0,-1.778274536E0,-1.000373840E1,-5.734558105E-1
3.514343261E0,-1.888336182E0,-1.005158997E1,-6.715545654E-1
3.519226074E0,-1.981658936E0,-1.012098694E1,-6.069488525E-1
3.524108886E0,-2.039093018E0,-1.016883850E1,-5.351715088E-1
3.528991699E0,-2.094131470E0,-1.019515991E1,-6.524200439E-1
3.533874511E0,-2.024734497E0,-1.025976562E1,-8.007659912E-1
3.538726806E0,-2.170700073E0,-1.023583984E1,-9.706573486E-1
3.543609619E0,-2.041488647E0,-1.028848267E1,-9.993743896E-1
3.548492431E0,-1.967300415E0,-1.036984253E1,-1.066375732E0
3.553375244E0,-2.235305786E0,-1.025976562E1,-1.085510254E0
3.558258056E0,-2.137191772E0,-1.037701416E1,-9.084472656E-1
3.563140869E0,-1.199203491E0,-1.070960999E1,-2.939956665E0
3.568023681E0,-4.412765503E0,-8.998748779E0,-1.604766846E0
3.572906494E0,-4.065811157E0,-9.075317383E0,2.209625244E-1
3.577789306E0,-1.929016113E0,-9.908020020E0,8.909606934E-1
3.582672119E0,-1.314071655E0,-1.014251709E1,1.099136353E0
3.587554931E0,-4.646148682E-1,-1.058039856E1,3.980407715E-1
3.592437744E0,-3.018951416E-1,-1.092974854E1,-1.714630127E-1
3.597320556E0,-6.201477051E-1,-1.104699707E1,-4.920959473E-1
3.602203369E0,-1.251846313E0,-1.077183533E1,-5.160217285E-1
3.607086181E0,-1.294921875E0,-1.078379822E1,-5.351715088E-1
3.611968994E0,-1.397811890E0,-1.061630249E1,-6.356658936E-1
3.616851806E0,-1.395416260E0,-1.034829712E1,-8.366699219E-1
3.621734619E0,-1.230316162E0,-1.016644287E1,-1.011337280E0
3.626586914E0,-9.527435303E-1,-1.017840576E1,-1.341552734E0
3.631469726E0,-6.967163086E-1,-1.027891541E1,-1.652618408E0
3.636352539E0,-7.541503906E-1,-1.029565430E1,-1.753112793E0
3.641235351E0,-7.206420898E-1,-1.023344421E1,-1.913436890E0
3.646118164E0,-7.254333496E-1,-1.010423279E1,-2.025894165E0
3.651000976E0,-8.498535156E-1,-9.919982910E0,-1.808151245E0
3.655883789E0,-9.096832275E-1,-9.848205566E0,-1.516220093E0
3.660766601E0,-9.958190918E-1,-9.785980225E0,-1.217117310E0
3.665649414E0,-9.623260498E-1,-9.838623047E0,-9.778442383E-1
3.670532226E0,-8.785705566E-1,-9.884094238E0,-1.040054321E0
3.675415039E0,-7.015075684E-1,-1.002287292E1,-6.835174561E-1
3.680297851E0,-7.661132812E-1,-1.016404724E1,-3.174133301E-1
3.685180664E0,-8.809661865E-1,-1.021908569E1,-4.083404541E-1
3.690063476E0,-9.264221191E-1,-1.025019836E1,-5.375671387E-1
3.694946289E0,-9.336090088E-1,-1.025019836E1,-6.476287842E-1
3.699829101E0,-1.017349243E0,-1.022387695E1,-7.194213867E-1
3.704711914E0,-1.026931763E0,-1.025976562E1,-8.127288818E-1
3.709564209E0,-1.000610352E0,-1.034829712E1,-9.850158691E-1
3.714447021E0,-9.599304199E-1,-1.044879150E1,-1.104660034E0
3.719329834E0,-9.144592285E-1,-1.052775574E1,-1.104660034E0
3.724212646E0,-8.929290771E-1,-1.055169678E1,-1.059188843E0
3.729095459E0,-8.809661865E-1,-1.055886841E1,-1.044845581E0
3.733978271E0,-9.072875977E-1,-1.053494263E1,-1.018524170E0
3.738861084E0,-9.096832275E-1,-1.050622559E1,-1.020904541E0
3.743743896E0,-9.192504883E-1,-1.048229980E1,-1.061584473E0
3.748626709E0,-9.312133789E-1,-1.044161987E1,-1.080734253E0
3.753509521E0,-9.647064209E-1,-1.042965698E1,-1.128585815E0
3.758392334E0,-9.647064209E-1,-1.043922424E1,-1.126190186E0
3.763275146E0,-1.000610352E0,-1.041769409E1,-1.255401611E0
3.768157959E0,-1.136993408E0,-1.035308838E1,-1.413330078E0
3.773040771E0,-1.153747559E0,-1.028848267E1,-1.308044434E0
3.777923584E0,-1.158538818E0,-1.024301147E1,-9.802398682E-1
3.782806396E0,-1.146560669E0,-1.018797302E1,-8.055572510E-1
3.787689209E0,-1.177673340E0,-1.013534546E1,-7.935943604E-1
3.792541504E0,-1.189636230E0,-1.010423279E1,-8.964843750E-1
3.797424316E0,-1.203994751E0,-1.009704590E1,-9.945831299E-1
3.802307129E0,-1.199203491E0,-1.008270264E1,-1.047225952E0
3.807189941E0,-1.180068970E0,-1.009466553E1,-1.056808472E0
3.812072754E0,-1.146560669E0,-1.008030701E1,-9.945831299E-1
3.816955566E0,-1.144180298E0,-1.007791138E1,-8.821258545E-1
3.821838379E0,-1.120239258E0,-1.005398560E1,-7.577056885E-1
3.826721191E0,-1.079574585E0,-1.004441833E1,-6.284942627E-1
3.831604004E0,-1.034103394E0,-1.006594849E1,-5.423431396E-1
3.836486816E0,-9.551391602E-1,-1.009704590E1,-4.849243164E-1
3.841369629E0,-9.048919678E-1,-1.011380005E1,-4.538116455E-1
3.846252441E0,-8.833618164E-1,-1.011140442E1,-4.490203857E-1
3.851135254E0,-9.001007080E-1,-1.012336731E1,-4.992828369E-1
3.856018066E0,-9.527435303E-1,-1.016404724E1,-5.662689209E-1
3.860900879E0,-9.575347900E-1,-1.022387695E1,-6.548156738E-1
3.865783691E0,-9.766845703E-1,-1.028608704E1,-7.457427979E-1
3.870666504E0,-9.671020508E-1,-1.034590149E1,-8.031616211E-1
3.875549316E0,-9.431762695E-1,-1.039376831E1,-8.390502930E-1
3.880401611E0,-9.192504883E-1,-1.040812683E1,-8.677673340E-1
3.885284424E0,-8.690032959E-1,-1.040812683E1,-8.653717041E-1
3.890167236E0,-8.402862549E-1,-1.040333557E1,-8.701629639E-1
3.895050049E0,-8.139648438E-1,-1.037701416E1,-8.845214844E-1
3.899932861E0,-7.804718018E-1,-1.035548401E1,-9.084472656E-1
3.904815674E0,-7.373962402E-1,-1.034112549E1,-9.252014160E-1
3.909698486E0,-7.134704590E-1,-1.032437134E1,-9.778442383E-1
3.914581299E0,-7.206420898E-1,-1.031001282E1,-1.020904541E0
3.919464111E0,-7.230377197E-1,-1.028129578E1,-1.083129883E0
3.924346924E0,-5.866546631E-1,-1.031480408E1,-1.477935791E0
3.929229736E0,-9.551391602E-1,-1.023344421E1,-1.071166992E0
3.934112549E0,-8.163604736E-1,-1.019036865E1,-1.133377075E0
3.938995361E0,-7.541503906E-1,-1.015447998E1,-1.209945679E0
3.943878174E0,-7.828521729E-1,-1.009704590E1,-1.209945679E0
3.948760986E0,-7.565307617E-1,-1.005876160E1,-1.224304199E0
3.953643799E0,-7.134704590E-1,-1.005398560E1,-1.212341309E0
3.958526611E0,-6.656036377E-1,-1.004679871E1,-1.190795898E0
3.963378906E0,-6.153564453E-1,-1.006594849E1,-1.126190186E0
3.968261719E0,-5.890350342E-1,-1.009226990E1,-1.080734253E0
3.973144531E0,-5.722961426E-1,-1.012098694E1,-1.032867432E0
3.978027344E0,-5.507507324E-1,-1.014251709E1,-9.898071289E-1
3.982910156E0,-5.603332520E-1,-1.016404724E1,-9.610900879E-1
3.987792969E0,-5.651092529E-1,-1.019036865E1,-9.658813477E-1
3.992675781E0,-5.890350342E-1,-1.020233154E1,-9.802398682E-1
3.997558594E0,-6.225433350E-1,-1.019755554E1,-9.898071289E-1
4.002441406E0,-6.512603760E-1,-1.020233154E1,-9.993743896E-1
4.007324219E0,-6.751861572E-1,-1.021429443E1,-1.020904541E0
4.012207031E0,-6.895446777E-1,-1.022627258E1,-1.030487061E0
4.017089844E0,-7.230377197E-1,-1.021908569E1,-1.054412842E0
4.021972656E0,-7.302093506E-1,-1.020472717E1,-1.073547363E0
4.026855469E0,-7.708892822E-1,-1.021908569E1,-1.099868774E0
4.031738281E0,-8.235321045E-1,-1.021908569E1,-1.114227295E0
4.036621094E0,-8.737792969E-1,-1.021429443E1,-1.114227295E0
4.041503906E0,-8.881378174E-1,-1.020712280E1,-1.152511597E0
4.046386719E0,-8.761749268E-1,-1.021191406E1,-1.126190186E0
4.051239013E0,-8.666076660E-1,-1.021908569E1,-1.104660034E0
4.056121826E0,-8.450775146E-1,-1.020712280E1,-1.092697144E0
4.061004638E0,-8.809661865E-1,-1.020233154E1,-1.075942993E0
4.065887451E0,-8.977203369E-1,-1.021908569E1,-1.095092773E0
4.070770263E0,-8.929290771E-1,-1.023583984E1,-1.090301514E0
4.075653076E0,-9.192504883E-1,-1.020472717E1,-1.068771362E0
4.080535888E0,-9.144592285E-1,-1.018797302E1,-1.020904541E0
4.085418701E0,-9.479675293E-1,-1.018319702E1,-9.969787598E-1
4.090301513E0,-9.503631592E-1,-1.015208435E1,-9.802398682E-1
4.095184326E0,-9.575347900E-1,-1.013534546E1,-9.443359375E-1
4.100067138E0,-9.647064209E-1,-1.011859131E1,-9.180145264E-1
4.104949951E0,-9.934234619E-1,-1.011380005E1,-8.940887451E-1
4.109832763E0,-9.958190918E-1,-1.012098694E1,-8.821258545E-1
4.114715576E0,-1.024536133E0,-1.010423279E1,-8.653717041E-1
4.119598388E0,-1.053253174E0,-1.009704590E1,-8.558044434E-1
4.124481201E0,-1.084350586E0,-1.009466553E1,-8.127288818E-1
4.129364013E0,-1.144180298E0,-1.008270264E1,-7.696685791E-1
4.134246826E0,-1.170501709E0,-1.006594849E1,-7.481231689E-1
4.139099121E0,-1.196823120E0,-1.006594849E1,-7.481231689E-1
4.143981933E0,-1.206390381E0,-1.006115723E1,-7.194213867E-1
4.148864746E0,-1.239883423E0,-1.008508301E1,-6.883087158E-1
4.153747558E0,-1.237487793E0,-1.007551575E1,-6.739501953E-1
4.158630371E0,-1.206390381E0,-1.009466553E1,-6.380615234E-1
4.163513183E0,-1.177673340E0,-1.012336731E1,-6.356658936E-1
4.168395996E0,-1.146560669E0,-1.013534546E1,-6.380615234E-1
4.173278808E0,-1.098709106E0,-1.014251709E1,-6.883087158E-1
4.178161621E0,-1.055633545E0,-1.015687561E1,-7.361602783E-1
4.183044433E0,-1.034103394E0,-1.015447998E1,-7.888031006E-1
4.187927246E0,-9.958190918E-1,-1.014968872E1,-8.725585938E-1
4.192810058E0,-9.958190918E-1,-1.013534546E1,-9.060516357E-1
4.197692871E0,-9.934234619E-1,-1.009226990E1,-9.371643066E-1
4.202575683E0,-9.982147217E-1,-1.008508301E1,-9.706573486E-1
4.207458496E0,-9.647064209E-1,-1.008747864E1,-1.044845581E0
4.212341308E0,-9.575347900E-1,-1.012336731E1,-1.092697144E0
4.217224121E0,-8.690032959E-1,-1.018319702E1,-1.114227295E0
4.222076416E0,-8.307189941E-1,-1.026455688E1,-1.085510254E0
4.226959228E0,-8.187561035E-1,-1.032437134E1,-1.013732910E0
4.231842041E0,-8.043975830E-1,-1.036026001E1,-9.945831299E-1
4.236724853E0,-7.397918701E-1,-1.039137268E1,-9.850158691E-1
4.241607666E0,-6.895446777E-1,-1.039137268E1,-9.371643066E-1
4.246490478E0,-6.297149658E-1,-1.042008972E1,-8.940887451E-1
4.251373291E0,-5.938262939E-1,-1.043922424E1,-8.462371826E-1
4.256256103E0,-6.009979248E-1,-1.043205261E1,-7.481231689E-1
4.261138916E0,-8.043975830E-1,-1.046554565E1,-4.562072754E-1
4.266021728E0,-4.000091553E-1,-1.045118713E1,-8.988800049E-1
4.270904541E0,-4.454650879E-1,-1.040333557E1,-8.223114014E-1
4.275787353E0,-4.957122803E-1,-1.034352112E1,-8.318786621E-1
4.280670166E0,-5.005035400E-1,-1.031719971E1,-7.888031006E-1
4.285552978E0,-4.933319092E-1,-1.029804993E1,-7.959899902E-1
4.290435791E0,-4.550476074E-1,-1.026933289E1,-8.175201416E-1
4.295318603E0,-4.837493896E-1,-1.025976562E1,-7.600860596E-1
4.300201416E0,-5.316162109E-1,-1.024780273E1,-7.361602783E-1
4.305084228E0,-5.842590332E-1,-1.026455688E1,-7.313842773E-1
4.309936523E0,-6.249389648E-1,-1.029565430E1,-7.577056885E-1
4.314819336E0,-6.967163086E-1,-1.031001282E1,-7.768402100E-1
4.319702148E0,-7.493591309E-1,-1.032437134E1,-7.864074707E-1
4.324584961E0,-8.307189941E-1,-1.032676697E1,-7.864074707E-1
4.329467773E0,-8.761749268E-1,-1.030284119E1,-7.792358398E-1
4.334350586E0,-9.312133789E-1,-1.028129578E1,-7.720642090E-1
4.339233398E0,-9.982147217E-1,-1.026455688E1,-7.624816895E-1
4.344116211E0,-1.043670654E0,-1.024301147E1,-7.648773193E-1
4.348999023E0,-1.065216064E0,-1.022627258E1,-7.433471680E-1
4.353881836E0,-1.079574585E0,-1.022627258E1,-7.146301270E-1
4.358764648E0,-1.103500366E0,-1.022627258E1,-6.595916748E-1
4.363647461E0,-1.105895996E0,-1.025259399E1,-6.045532227E-1
4.368530273E0,-1.110671997E0,-1.028369141E1,-5.638885498E-1
4.373413086E0,-1.058029175E0,-1.031001282E1,-5.375671387E-1
4.378295898E0,-1.007781982E0,-1.031958008E1,-5.208129883E-1
4.383178711E0,-9.407806396E-1,-1.030284119E1,-4.968872070E-1
4.388061523E0,-8.809661865E-1,-1.030044556E1,-4.753417969E-1
4.392913818E0,-8.522491455E-1,-1.026693726E1,-4.633789062E-1
4.397796631E0,-8.402862549E-1,-1.024301147E1,-4.705657959E-1
4.402679443E0,-8.594360352E-1,-1.019036865E1,-4.968872070E-1
4.407562256E0,-8.498535156E-1,-1.017601013E1,-5.519104004E-1
4.412445068E0,-8.761749268E-1,-1.016404724E1,-5.854187012E-1
4.417327881E0,-8.402862549E-1,-1.017362976E1,-5.830230713E-1
4.422210693E0,-8.522491455E-1,-1.020472717E1,-5.925903320E-1
4.427093506E0,-8.546447754E-1,-1.022148132E1,-5.543060303E-1
4.431976318E0,-8.402862549E-1,-1.025259399E1,-5.327758789E-1
4.436859131E0,-8.402862549E-1,-1.027172852E1,-5.303802490E-1
4.441741943E0,-8.115692139E-1,-1.028129578E1,-5.303802490E-1
4.446624756E0,-7.876434326E-1,-1.026693726E1,-5.255889893E-1
4.451507568E0,-7.948150635E-1,-1.026933289E1,-5.232086182E-1
4.456390381E0,-7.589263916E-1,-1.025019836E1,-5.375671387E-1
4.461273193E0,-7.637176514E-1,-1.024301147E1,-5.686645508E-1
4.466156006E0,-7.708892822E-1,-1.023823547E1,-6.332702637E-1
4.471038818E0,-7.996063232E-1,-1.022387695E1,-6.739501953E-1
4.475921631E0,-8.043975830E-1,-1.021908569E1,-7.050628662E-1
4.480773926E0,-8.187561035E-1,-1.021669006E1,-7.265930176E-1
4.485656738E0,-8.091735840E-1,-1.021908569E1,-7.337646484E-1
4.490539551E0,-7.972106934E-1,-1.024780273E1,-7.289886475E-1
4.495422363E0,-7.876434326E-1,-1.027651978E1,-7.241973877E-1
4.500305176E0,-7.804718018E-1,-1.030284119E1,-6.811370850E-1
4.505187988E0,-7.732849121E-1,-1.033154297E1,-6.835174561E-1
4.510070801E0,-7.589263916E-1,-1.032916260E1,-6.476287842E-1
4.514953613E0,-7.397918701E-1,-1.031958008E1,-6.404571533E-1
4.519836426E0,-7.493591309E-1,-1.031240845E1,-6.428375244E-1
4.524719238E0,-7.756805420E-1,-1.028848267E1,-6.404571533E-1
4.529602051E0,-8.067932129E-1,-1.026933289E1,-6.452331543E-1
4.534484863E0,-8.020019531E-1,-1.025976562E1,-6.380615234E-1
4.539367676E0,-7.972106934E-1,-1.025737000E1,-6.117401123E-1
4.544250488E0,-8.211364746E-1,-1.025976562E1,-5.734558105E-1
4.549133301E0,-8.043975830E-1,-1.027172852E1,-5.255889893E-1
4.554016113E0,-7.900390625E-1,-1.027651978E1,-4.825286865E-1
4.558898926E0,-7.876434326E-1,-1.030761719E1,-4.633789062E-1
4.563781738E0,-7.661132812E-1,-1.030044556E1,-4.801330566E-1
4.568634033E0,-7.517547607E-1,-1.031719971E1,-5.279846191E-1
4.573516845E0,-7.350006104E-1,-1.031240845E1,-5.710601807E-1
4.578399658E0,-7.397918701E-1,-1.031240845E1,-6.284942627E-1
4.583282470E0,-7.326049805E-1,-1.028608704E1,-6.739501953E-1
4.588165283E0,-7.397918701E-1,-1.025976562E1,-7.385559082E-1
4.593048095E0,-7.637176514E-1,-1.023104858E1,-7.864074707E-1
4.597930908E0,-8.020019531E-1,-1.021669006E1,-8.677673340E-1
4.602813720E0,-8.331146240E-1,-1.018559265E1,-9.275970459E-1
4.607696533E0,-8.402862549E-1,-1.016644287E1,-9.706573486E-1
4.612579345E0,-8.378906250E-1,-1.012336731E1,-9.706573486E-1
4.617462158E0,-8.498535156E-1,-1.011619568E1,-9.634857178E-1
4.622344970E0,-8.378906250E-1,-1.009944153E1,-9.204101562E-1
4.627227783E0,-8.570404053E-1,-1.008270264E1,-8.797302246E-1
4.632110595E0,-8.522491455E-1,-1.006594849E1,-8.342742920E-1
4.636993408E0,-8.307189941E-1,-1.006594849E1,-7.935943604E-1
4.641876220E0,-8.331146240E-1,-1.006115723E1,-7.648773193E-1
4.646759033E0,-8.450775146E-1,-1.006355286E1,-7.433471680E-1
4.651611328E0,-8.402862549E-1,-1.007791138E1,-6.930999756E-1
4.656494140E0,-8.498535156E-1,-1.009704590E1,-6.524200439E-1
4.661376953E0,-8.426818848E-1,-1.011859131E1,-6.284942627E-1
4.666259765E0,-8.378906250E-1,-1.013055420E1,-5.997772217E-1
4.671142578E0,-8.570404053E-1,-1.015208435E1,-5.949859619E-1
4.676025390E0,-8.522491455E-1,-1.016166687E1,-5.878143311E-1
4.680908203E0,-8.474578857E-1,-1.014968872E1,-6.093444824E-1
4.685791015E0,-8.211364746E-1,-1.015208435E1,-6.284942627E-1
4.690673828E0,-7.996063232E-1,-1.012098694E1,-6.452331543E-1
4.695560833E0,-7.900390625E-1,-1.009944153E1,-6.595916748E-1
4.700443646E0,-7.780761719E-1,-1.009944153E1,-6.930999756E-1
4.705326458E0,-7.613220215E-1,-1.009704590E1,-7.026672363E-1
4.710209271E0,-7.421875000E-1,-1.010902405E1,-7.553100586E-1
4.715092083E0,-7.541503906E-1,-1.013294983E1,-7.720642090E-1
4.719974896E0,-7.589263916E-1,-1.013534546E1,-7.840270996E-1
4.724857708E0,-7.421875000E-1,-1.016883850E1,-7.888031006E-1
4.729740521E0,-7.206420898E-1,-1.017840576E1,-7.816314697E-1
4.734623333E0,-7.134704590E-1,-1.019276428E1,-7.744445801E-1
4.739475628E0,-7.110748291E-1,-1.021429443E1,-7.553100586E-1
4.744358441E0,-6.799621582E-1,-1.022627258E1,-7.146301270E-1
4.749241253E0,-6.584320068E-1,-1.025497437E1,-6.619873047E-1
4.754124066E0,-6.297149658E-1,-1.028848267E1,-6.213073730E-1
4.759006878E0,-5.962219238E-1,-1.031240845E1,-5.734558105E-1
4.763889691E0,-5.555419922E-1,-1.035308838E1,-5.423431396E-1
4.768772503E0,-5.220336914E-1,-1.038180542E1,-5.184173584E-1
4.773655316E0,-4.933319092E-1,-1.041529846E1,-4.992828369E-1
4.778538128E0,-4.789733887E-1,-1.042486572E1,-4.633789062E-1
4.783420941E0,-4.598236084E-1,-1.045118713E1,-4.155273438E-1
4.788303753E0,-4.287261963E-1,-1.047511292E1,-3.652801514E-1
4.793186566E0,-4.047851562E-1,-1.046794128E1,-3.341674805E-1
4.798069378E0,-3.688964844E-1,-1.047033691E1,-3.102416992E-1
4.802952191E0,-3.688964844E-1,-1.044641113E1,-2.575988770E-1
4.807835003E0,-3.832550049E-1,-1.042965698E1,-2.815246582E-1
4.812717816E0,-4.358978271E-1,-1.038897705E1,-3.030700684E-1
4.817600628E0,-5.028991699E-1,-1.034590149E1,-3.604888916E-1
4.822452923E0,-8.043975830E-1,-1.031001282E1,1.085052490E-1
4.827335736E0,-8.187561035E-1,-1.023344421E1,-5.997772217E-1
4.832218548E0,-6.775817871E-1,-1.015208435E1,-1.011337280E0
4.837101361E0,-8.043975830E-1,-1.008747864E1,-9.443359375E-1
4.841984173E0,-9.958190918E-1,-1.004202271E1,-9.539184570E-1
4.846866986E0,-1.081954956E0,-9.994155884E0,-1.030487061E0
4.851749798E0,-1.079574585E0,-9.948699951E0,-1.078338623E0
4.856632611E0,-1.062820435E0,-9.910415649E0,-1.075942993E0
4.861515423E0,-1.067611694E0,-9.888885498E0,-1.061584473E0
4.866398236E0,-1.067611694E0,-9.898452759E0,-1.035263062E0
4.871281048E0,-1.034103394E0,-9.912811279E0,-9.778442383E-1
4.876163861E0,-1.026931763E0,-9.929550171E0,-8.916931152E-1
4.881046673E0,-1.014968872E0,-9.958267212E0,-8.342742920E-1
4.885929486E0,-1.007781982E0,-9.984588623E0,-7.313842773E-1
4.890812298E0,-9.934234619E-1,-1.000613403E1,-6.452331543E-1
4.895695111E0,-9.383850098E-1,-1.002526855E1,-5.758514404E-1
4.900577923E0,-8.666076660E-1,-1.006834412E1,-5.279846191E-1
4.905430218E0,-7.661132812E-1,-1.010662842E1,-4.633789062E-1
4.910313031E0,-7.038879395E-1,-1.014491272E1,-4.203186035E-1
4.915195843E0,-6.369018555E-1,-1.020951843E1,-3.580932617E-1
4.920078656E0,-5.866546631E-1,-1.028848267E1,-3.150329590E-1
4.924961468E0,-5.986175537E-1,-1.033154297E1,-2.671661377E-1
4.929844281E0,-5.627136230E-1,-1.038180542E1,-2.384643555E-1
4.934727093E0,-5.316162109E-1,-1.042965698E1,-2.360687256E-1
4.939609906E0,-5.292205811E-1,-1.047750854E1,-2.456359863E-1
4.944492718E0,-4.981079102E-1,-1.051339722E1,-2.839202881E-1
4.949375531E0,-4.622192383E-1,-1.054450989E1,-3.509216309E-1
4.954258343E0,-4.358978271E-1,-1.056365967E1,-4.370574951E-1
4.959141156E0,-4.478607178E-1,-1.056365967E1,-5.447387695E-1
4.964023968E0,-4.646148682E-1,-1.052297974E1,-6.715545654E-1
4.968906781E0,-4.933319092E-1,-1.048709106E1,-7.553100586E-1
4.973789593E0,-5.507507324E-1,-1.043682861E1,-8.199157715E-1
4.978672406E0,-6.345062256E-1,-1.045358276E1,-8.127288818E-1
4.983555218E0,-6.751861572E-1,-1.042965698E1,-7.481231689E-1
4.988438031E0,-6.991119385E-1,-1.042008972E1,-6.045532227E-1
4.993320843E0,-7.062835693E-1,-1.041050720E1,-4.250946045E-1
4.998173138E0,-7.134704590E-1,-1.038897705E1,-2.695617676E-1
5.003055951E0,-6.943206787E-1,-1.035548401E1,-1.571044922E-1
5.007938763E0,-7.469635010E-1,-1.033154297E1,-8.053588867E-2
5.012821576E0,-7.445678711E-1,-1.030044556E1,-8.053588867E-2
5.017704388E0,-7.852478027E-1,-1.028848267E1,-1.188201904E-1
5.022587201E0,-7.924346924E-1,-1.026455688E1,-2.049560547E-1
5.027470013E0,-8.163604736E-1,-1.026693726E1,-3.030700684E-1
5.032352826E0,-8.259277344E-1,-1.028369141E1,-3.796386719E-1
5.037235638E0,-8.211364746E-1,-1.031719971E1,-4.777374268E-1
5.042118451E0,-8.091735840E-1,-1.033633423E1,-5.232086182E-1
5.047001263E0,-7.972106934E-1,-1.034590149E1,-5.830230713E-1
5.051884076E0,-7.780761719E-1,-1.037461853E1,-6.093444824E-1
5.056766888E0,-7.397918701E-1,-1.039854431E1,-6.308746338E-1
5.061649701E0,-6.751861572E-1,-1.046315002E1,-6.308746338E-1
5.066532513E0,-6.392822266E-1,-1.050862122E1,-6.213073730E-1
5.071415326E0,-6.081848145E-1,-1.053733826E1,-5.925903320E-1
5.076298138E0,-5.746765137E-1,-1.054690552E1,-5.854187012E-1
5.081150433E0,-5.675048828E-1,-1.055886841E1,-5.351715088E-1
5.086033246E0,-5.938262939E-1,-1.053494263E1,-5.160217285E-1
5.090916058E0,-6.009979248E-1,-1.047990417E1,-5.638885498E-1
5.095798871E0,-6.369018555E-1,-1.043922424E1,-5.782318115E-1
5.100681683E0,-7.062835693E-1,-1.037222290E1,-6.476287842E-1
5.105564496E0,-7.732849121E-1,-1.030044556E1,-7.002716064E-1
5.110447308E0,-7.900390625E-1,-1.023104858E1,-7.194213867E-1
5.115330121E0,-8.354949951E-1,-1.016166687E1,-7.385559082E-1
5.120212933E0,-8.546447754E-1,-1.010423279E1,-7.385559082E-1
5.125095746E0,-9.001007080E-1,-1.005158997E1,-7.385559082E-1
5.129978558E0,-9.599304199E-1,-1.001570129E1,-7.218017578E-1
5.134861371E0,-9.886474609E-1,-9.963058472E0,-7.361602783E-1
5.139744183E0,-9.934234619E-1,-9.912811279E0,-7.888031006E-1
5.144626996E0,-9.814605713E-1,-9.905624390E0,-8.246917725E-1
5.149509808E0,-9.288177490E-1,-9.888885498E0,-8.988800049E-1
5.154392621E0,-8.283233643E-1,-9.905624390E0,-9.586944580E-1
5.159275433E0,-7.445678711E-1,-9.931945801E0,-9.730529785E-1
5.164158246E0,-7.134704590E-1,-9.994155884E0,-1.025695801E0
5.169010540E0,-7.110748291E-1,-1.007312012E1,-1.111831665E0
5.173893353E0,-6.823577881E-1,-1.018080139E1,-1.193191528E0
5.178776165E0,-6.512603760E-1,-1.027172852E1,-1.286514282E0
5.183658978E0,-6.177520752E-1,-1.032437134E1,-1.324798584E0
5.188541790E0,-6.249389648E-1,-1.037701416E1,-1.351119995E0
5.193424603E0,-6.392822266E-1,-1.040093994E1,-1.336761475E0
5.198307415E0,-6.488647461E-1,-1.040812683E1,-1.296081543E0
5.203190228E0,-6.679992676E-1,-1.039854431E1,-1.214721680E0
5.208073040E0,-6.440734863E-1,-1.038897705E1,-1.080734253E0
5.212955853E0,-6.297149658E-1,-1.035069275E1,-9.610900879E-1
5.217838665E0,-5.914306641E-1,-1.031719971E1,-8.438415527E-1
5.222721478E0,-5.746765137E-1,-1.030044556E1,-6.978759766E-1
5.227604290E0,-5.627136230E-1,-1.029565430E1,-6.021728516E-1
5.232487103E0,-5.435791016E-1,-1.031240845E1,-5.279846191E-1
5.237369915E0,-5.435791016E-1,-1.036026001E1,-4.920959473E-1
5.242252728E0,-5.005035400E-1,-1.038658142E1,-4.633789062E-1
5.247135540E0,-4.454650879E-1,-1.041769409E1,-4.633789062E-1
5.251987835E0,-3.641204834E-1,-1.045837402E1,-4.705657959E-1
5.256870648E0,-3.066864014E-1,-1.047273254E1,-5.375671387E-1
5.261753460E0,-2.468719482E-1,-1.047750854E1,-5.854187012E-1
5.266636273E0,-1.966094971E-1,-1.047033691E1,-6.571960449E-1
5.271519085E0,-1.607208252E-1,-1.044161987E1,-7.313842773E-1
5.276401898E0,-1.415863037E-1,-1.038180542E1,-8.486328125E-1
5.281284710E0,-1.415863037E-1,-1.031001282E1,-9.467315674E-1
5.286167523E0,-1.655120850E-1,-1.025019836E1,-9.922027588E-1
5.291050335E0,-1.966094971E-1,-1.019036865E1,-1.023300171E0
5.295933148E0,-2.468719482E-1,-1.014491272E1,-1.080734253E0
5.300815960E0,-2.516479492E-1,-1.009704590E1,-1.099868774E0
5.305698773E0,-2.779693604E-1,-1.005398560E1,-1.059188843E0
5.310581585E0,-3.210449219E-1,-1.000613403E1,-1.004165649E0
5.315464398E0,-3.569335938E-1,-9.984588623E0,-9.347686768E-1
5.320347210E0,-3.952178955E-1,-9.977416992E0,-8.438415527E-1
5.325230023E0,-4.191436768E-1,-9.996551514E0,-7.744445801E-1
5.330112835E0,-4.741821289E-1,-1.002047729E1,-7.170257568E-1
5.334965130E0,-5.340118408E-1,-1.007551575E1,-7.098388672E-1
5.339847943E0,-5.603332520E-1,-1.006355286E1,-6.763458252E-1
5.344730755E0,-5.938262939E-1,-1.007551575E1,-6.667785645E-1
5.349613568E0,-5.914306641E-1,-1.006355286E1,-6.356658936E-1
5.354496380E0,-5.316162109E-1,-1.008747864E1,-6.069488525E-1
5.359379193E0,-5.172576904E-1,-1.014012146E1,-6.165161133E-1
5.364262005E0,-4.813690186E-1,-1.019995117E1,-6.476287842E-1
5.369144818E0,-4.670104980E-1,-1.028848267E1,-6.763458252E-1
5.374027630E0,-4.957122803E-1,-1.035069275E1,-6.404571533E-1
5.378910443E0,-5.244293213E-1,-1.039376831E1,-6.500244141E-1
5.383793255E0,-5.675048828E-1,-1.041769409E1,-6.524200439E-1
5.388676068E0,-5.699005127E-1,-1.043922424E1,-6.260986328E-1
5.393558880E0,-5.459747314E-1,-1.042726135E1,-5.806274414E-1
5.398441693E0,-5.603332520E-1,-1.045597839E1,-5.399475098E-1
5.403324505E0,-5.818634033E-1,-1.043682861E1,-5.471343994E-1
5.408207318E0,-6.345062256E-1,-1.040333557E1,-5.495300293E-1
5.413090130E0,-7.230377197E-1,-1.035548401E1,-5.686645508E-1
5.417972943E0,-7.924346924E-1,-1.030284119E1,-6.165161133E-1
5.422825238E0,-8.713989258E-1,-1.026933289E1,-6.428375244E-1
5.427708050E0,-9.216461182E-1,-1.023583984E1,-7.241973877E-1
5.432590863E0,-1.014968872E0,-1.018797302E1,-7.792358398E-1
5.437473675E0,-1.081954956E0,-1.016166687E1,-8.318786621E-1
5.442356488E0,-1.132217407E0,-1.012336731E1,-8.629913330E-1
5.447239300E0,-1.168106079E0,-1.010423279E1,-8.773345947E-1
5.452122113E0,-1.182464600E0,-1.008030701E1,-8.653717041E-1
5.457004925E0,-1.177673340E0,-1.010183716E1,-8.055572510E-1
5.461887738E0,-1.175277710E0,-1.011140442E1,-7.361602783E-1
5.466770550E0,-1.168106079E0,-1.013294983E1,-6.260986328E-1
5.471653363E0,-1.172882080E0,-1.017601013E1,-5.184173584E-1
5.476536175E0,-1.187240601E0,-1.024780273E1,-3.916015625E-1
5.481418988E0,-1.170501709E0,-1.035308838E1,-2.623901367E-1
5.486301800E0,-1.156143188E0,-1.046315002E1,-1.427459717E-1
5.491184613E0,-1.144180298E0,-1.060671997E1,-2.070617676E-2
5.496067425E0,-1.127426147E0,-1.074789429E1,1.156768799E-1
5.500950238E0,-1.134597778E0,-1.083882141E1,2.042083740E-1
5.505833050E0,-1.120239258E0,-1.088189697E1,2.712097168E-1
5.510685345E0,-1.105895996E0,-1.088668823E1,3.166809082E-1
5.515568158E0,-1.093933105E0,-1.078857422E1,3.238525391E-1
5.520450970E0,-1.129821777E0,-1.068090820E1,2.903594971E-1
5.525333783E0,-1.136993408E0,-1.057083130E1,2.281494141E-1
5.530216595E0,-1.187240601E0,-1.046554565E1,1.443939209E-1
5.535099408E0,-1.215957642E0,-1.037701416E1,-8.743286133E-3
5.539982220E0,-1.247070312E0,-1.034590149E1,-1.547088623E-1
5.544865033E0,-1.259033203E0,-1.028848267E1,-2.719573975E-1
5.549747845E0,-1.261428833E0,-1.028369141E1,-3.509216309E-1
5.554630658E0,-1.266204834E0,-1.026693726E1,-4.370574951E-1
5.559513470E0,-1.263809204E0,-1.023823547E1,-4.968872070E-1
5.564396283E0,-1.247070312E0,-1.020472717E1,-5.136260986E-1
5.569279095E0,-1.244674683E0,-1.019755554E1,-5.232086182E-1
5.574161908E0,-1.232711792E0,-1.015687561E1,-5.351715088E-1
5.579044720E0,-1.247070312E0,-1.015927124E1,-5.160217285E-1
5.583927533E0,-1.273391724E0,-1.015208435E1,-4.849243164E-1
5.588810345E0,-1.297317505E0,-1.018080139E1,-4.442443848E-1
5.593693158E0,-1.333206177E0,-1.020712280E1,-3.748474121E-1
5.598545453E0,-1.333206177E0,-1.021908569E1,-3.461303711E-1
5.603428265E0,-1.340393066E0,-1.022148132E1,-2.934875488E-1
5.608311078E0,-1.326034546E0,-1.020233154E1,-2.647857666E-1
5.613193890E0,-1.321243286E0,-1.017123413E1,-2.863159180E-1
5.618076703E0,-1.306884766E0,-1.013055420E1,-3.341674805E-1
5.622959515E0,-1.275787354E0,-1.009944153E1,-3.628845215E-1
5.627842328E0,-1.247070312E0,-1.004202271E1,-3.820343018E-1
5.632725140E0,-1.213562012E0,-1.000373840E1,-3.868103027E-1
5.637607953E0,-1.194427490E0,-9.953491211E0,-3.557128906E-1
5.642490765E0,-1.160919189E0,-9.900848389E0,-3.533172607E-1
5.647373578E0,-1.129821777E0,-9.879302979E0,-3.269958496E-1
5.652256390E0,-1.108276367E0,-9.843414307E0,-2.911071777E-1
5.657139203E0,-1.074783325E0,-9.831451416E0,-2.839202881E-1
5.662022015E0,-1.058029175E0,-9.819488525E0,-2.934875488E-1
5.666904828E0,-1.024536133E0,-9.809921265E0,-2.815246582E-1
5.671787640E0,-1.019744873E0,-9.829055786E0,-3.030700684E-1
5.676670453E0,-1.034103394E0,-9.819488525E0,-2.887115479E-1
5.681522747E0,-1.062820435E0,-9.848205566E0,-3.030700684E-1
5.686405560E0,-1.105895996E0,-9.876907349E0,-2.958831787E-1
5.691288372E0,-1.134597778E0,-9.929550171E0,-3.748474121E-1
5.696171185E0,-1.215957642E0,-9.989379883E0,-3.868103027E-1
5.701053997E0,-1.266204834E0,-1.006594849E1,-4.011688232E-1
5.705936810E0,-1.314071655E0,-1.014012146E1,-4.035644531E-1
5.710819622E0,-1.388244629E0,-1.023344421E1,-4.179229736E-1
5.715702435E0,-1.416961670E0,-1.031719971E1,-4.346618652E-1
5.720585247E0,-1.424133301E0,-1.042486572E1,-4.322814941E-1
5.725468060E0,-1.436096191E0,-1.049665833E1,-4.394531250E-1
5.730350872E0,-1.436096191E0,-1.056365967E1,-3.916015625E-1
5.735233685E0,-1.462417603E0,-1.059236145E1,-3.604888916E-1
5.740116497E0,-1.457641602E0,-1.059715271E1,-3.413543701E-1
5.744999310E0,-1.448059082E0,-1.058039856E1,-3.269958496E-1
5.749882122E0,-1.409774780E0,-1.055407715E1,-3.102416992E-1
5.754764935E0,-1.366714478E0,-1.049665833E1,-3.198089600E-1
5.759647747E0,-1.299713135E0,-1.042965698E1,-3.198089600E-1
5.764500042E0,-1.247070312E0,-1.035786438E1,-3.054504395E-1
5.769382855E0,-1.201599121E0,-1.029565430E1,-3.293914795E-1
5.774265667E0,-1.206390381E0,-1.023823547E1,-3.724517822E-1
5.779148480E0,-1.192031860E0,-1.019276428E1,-4.179229736E-1
5.784031292E0,-1.189636230E0,-1.016404724E1,-4.777374268E-1
5.788914105E0,-1.180068970E0,-1.015687561E1,-5.375671387E-1
5.793796917E0,-1.168106079E0,-1.014968872E1,-5.327758789E-1
5.798679730E0,-1.141784668E0,-1.017123413E1,-5.232086182E-1
5.803562542E0,-1.098709106E0,-1.019755554E1,-5.160217285E-1
5.808445355E0,-1.081954956E0,-1.026455688E1,-5.112457275E-1
5.813328167E0,-1.069992065E0,-1.034112549E1,-4.897003174E-1
5.818210980E0,-1.096313477E0,-1.037701416E1,-3.820343018E-1
5.823093792E0,-1.067611694E0,-1.035308838E1,-2.887115479E-1
5.827976605E0,-1.048461914E0,-1.033393860E1,-2.887115479E-1
5.832859417E0,-1.024536133E0,-1.030761719E1,-3.485260010E-1
5.837742230E0,-1.007781982E0,-1.028848267E1,-4.322814941E-1
5.842625042E0,-1.026931763E0,-1.026933289E1,-5.686645508E-1
5.847507855E0,-1.019744873E0,-1.026933289E1,-6.715545654E-1
5.852390667E0,-1.010177612E0,-1.023104858E1,-7.600860596E-1
5.857242962E0,-9.862518311E-1,-1.016404724E1,-8.199157715E-1
5.862125775E0,-9.742889404E-1,-1.012815857E1,-8.605957031E-1
5.867008587E0,-9.168548584E-1,-1.011380005E1,-8.988800049E-1
5.871891400E0,-9.264221191E-1,-1.011140442E1,-8.916931152E-1
5.876774212E0,-9.264221191E-1,-1.008987427E1,-8.510131836E-1
5.881657025E0,-9.024963379E-1,-1.006594849E1,-8.246917725E-1
5.886539837E0,-7.900390625E-1,-1.003723145E1,-8.223114014E-1
5.891422650E0,-6.033935547E-1,-1.001091003E1,-7.696685791E-1
5.896305462E0,-4.263305664E-1,-1.002766418E1,-6.835174561E-1
5.901188275E0,-3.162536621E-1,-1.006115723E1,-5.902099609E-1
5.906071087E0,-2.396850586E-1,-1.014251709E1,-5.327758789E-1
5.910953900E0,-2.085876465E-1,-1.023823547E1,-5.447387695E-1
5.915836712E0,-2.061920166E-1,-1.034590149E1,-6.141357422E-1
5.920719525E0,-2.133636475E-1,-1.044879150E1,-6.739501953E-1
5.925602337E0,-2.372894287E-1,-1.056126404E1,-7.122344971E-1
5.930485150E0,-2.636108398E-1,-1.060671997E1,-6.907043457E-1
5.935367962E0,-2.564392090E-1,-1.065219116E1,-6.524200439E-1
5.940220257E0,-2.923278809E-1,-1.064022827E1,-6.093444824E-1
5.945103070E0,-3.234405518E-1,-1.060194397E1,-5.758514404E-1
5.949985882E0,-3.521575928E-1,-1.052297974E1,-5.255889893E-1
5.954868695E0,-3.952178955E-1,-1.041769409E1,-4.705657959E-1
5.959751507E0,-4.358978271E-1,-1.033872986E1,-4.107360840E-1
5.964634320E0,-4.957122803E-1,-1.026693726E1,-3.963775635E-1
5.969517132E0,-5.483551025E-1,-1.022387695E1,-3.820343018E-1
5.974399945E0,-5.555419922E-1,-1.017123413E1,-4.179229736E-1
5.979282757E0,-5.459747314E-1,-1.014968872E1,-4.586029053E-1
5.984165570E0,-5.005035400E-1,-1.011380005E1,-5.519104004E-1
5.989048382E0,-4.454650879E-1,-1.008508301E1,-6.835174561E-1
5.993931195E0,-3.712921143E-1,-1.001570129E1,-8.462371826E-1
5.998814007E0,-2.923278809E-1,-9.984588623E0,-9.754486084E-1
6.003696820E0,-2.444763184E-1,-9.917587280E0,-1.087905884E0
6.008579632E0,-2.396850586E-1,-9.850585938E0,-1.205154419E0
6.013462445E0,-2.109680176E-1,-9.774017334E0,-1.253021240E0
6.018345257E0,-2.157592773E-1,-9.702239990E0,-1.288909912E0
6.023228070E0,-2.253265381E-1,-9.683090210E0,-1.303268433E0
6.028080365E0,-2.396850586E-1,-9.656768799E0,-1.296081543E0
6.032963177E0,-2.205505371E-1,-9.661560059E0,-1.253021240E0
6.037845990E0,-2.492523193E-1,-9.687881470E0,-1.219512939E0
6.042728802E0,-2.492523193E-1,-9.709411621E0,-1.186019897E0
6.047611615E0,-2.684020996E-1,-9.721374512E0,-1.159698486E0
6.052494427E0,-2.468719482E-1,-9.711807251E0,-1.130981445E0
6.057377240E0,-2.277221680E-1,-9.730957031E0,-1.119018555E0
6.062260052E0,-2.014007568E-1,-9.754882812E0,-1.111831665E0
6.067142865E0,-1.774749756E-1,-9.812301636E0,-1.068771362E0
6.072025677E0,-1.822662354E-1,-9.884094238E0,-1.025695801E0
6.076908490E0,-2.133636475E-1,-9.972625732E0,-9.730529785E-1
6.081791302E0,-2.731933594E-1,-1.005398560E1,-9.108428955E-1
6.086674115E0,-3.545379639E-1,-1.011380005E1,-8.486328125E-1
6.091556927E0,-4.095764160E-1,-1.018319702E1,-7.768402100E-1
6.096439740E0,-4.478607178E-1,-1.024780273E1,-7.098388672E-1
6.101322552E0,-4.550476074E-1,-1.032916260E1,-6.452331543E-1
6.106205365E0,-4.598236084E-1,-1.040093994E1,-5.686645508E-1
6.111057660E0,-4.670104980E-1,-1.050382996E1,-5.160217285E-1
6.115940472E0,-4.646148682E-1,-1.054211426E1,-4.035644531E-1
6.120823285E0,-4.765777588E-1,-1.060671997E1,-3.198089600E-1
6.125706097E0,-5.076904297E-1,-1.063783264E1,-1.523132324E-1
6.130588910E0,-5.579376221E-1,-1.065458679E1,-2.549743652E-2
6.135471722E0,-6.105804443E-1,-1.068807983E1,6.542968750E-2
6.140354535E0,-6.345062256E-1,-1.068090820E1,1.491851807E-1
6.145237347E0,-7.086791992E-1,-1.069047546E1,1.898651123E-1
6.150120160E0,-7.924346924E-1,-1.066415405E1,2.161712646E-1
6.155002972E0,-8.331146240E-1,-1.062586975E1,2.233581543E-1
6.159885785E0,-8.522491455E-1,-1.060194397E1,2.305297852E-1
6.164768597E0,-8.450775146E-1,-1.056843567E1,2.089996338E-1
6.169651410E0,-8.259277344E-1,-1.052058411E1,1.778869629E-1
6.174534222E0,-8.402862549E-1,-1.045837402E1,1.563568115E-1
6.179417035E0,-8.785705566E-1,-1.040333557E1,1.013183594E-1
6.184299847E0,-9.120635986E-1,-1.031240845E1,3.910827637E-2
6.189182660E0,-9.527435303E-1,-1.025019836E1,8.239746094E-4
6.194065472E0,-9.694976807E-1,-1.020472717E1,-5.661010742E-2
6.198917767E0,-9.623260498E-1,-1.015687561E1,-1.690673828E-1
6.203800579E0,-9.671020508E-1,-1.013534546E1,-2.241058350E-1
6.208683392E0,-1.034103394E0,-1.010662842E1,-2.815246582E-1
6.213566204E0,-1.043670654E0,-1.008270264E1,-3.963775635E-1
6.218449017E0,-1.136993408E0,-1.005876160E1,-6.093444824E-1
6.223331829E0,-1.294921875E0,-1.003244019E1,-8.893127441E-1
6.228214642E0,-1.424133301E0,-1.001330566E1,-1.083129883E0
6.233097454E0,-1.450454712E0,-1.003483582E1,-1.286514282E0
6.237980267E0,-1.371490479E0,-1.007791138E1,-1.506652832E0
6.242863079E0,-1.278167725E0,-1.005876160E1,-1.666976929E0
6.247745892E0,-1.244674683E0,-1.010423279E1,-1.824905396E0
6.252628704E0,-1.199203491E0,-1.006355286E1,-1.987609863E0
6.257511517E0,-1.223144531E0,-9.975021362E0,-2.143142700E0
6.262394329E0,-1.278167725E0,-9.841018677E0,-2.315429688E0
6.267277142E0,-1.227920532E0,-9.632843018E0,-2.375244141E0
6.272159954E0,-1.218353271E0,-9.494064331E0,-2.454208374E0
6.277042767E0,-1.723236084E0,-8.465148926E0,-2.487716675E0
6.281925579E0,-1.385848999E0,-8.240219116E0,-2.545135498E0
6.286777874E0,-1.170501709E0,-8.924575806E0,-2.896881104E0
6.291660687E0,-1.065216064E0,-9.360061646E0,-3.253417969E0
6.296543499E0,-1.213562012E0,-9.599349976E0,-3.373062134E0
6.301426312E0,-1.424133301E0,-9.699844360E0,-3.447235107E0
6.306309124E0,-1.670593262E0,-9.778808594E0,-3.497482300E0
6.311191937E0,-1.806991577E0,-9.829055786E0,-3.435272217E0
6.316074749E0,-1.806991577E0,-9.845809937E0,-3.341949463E0
6.320957562E0,-1.661026001E0,-9.757278442E0,-3.071563721E0
6.325840374E0,-1.591629028E0,-9.618484497E0,-2.753311157E0
6.330723187E0,-1.625137329E0,-9.436630249E0,-2.490097046E0
6.335605999E0,-1.795028687E0,-9.235641479E0,-2.344146729E0
6.340488812E0,-2.187438965E0,-9.115997314E0,-2.375244141E0
6.345371624E0,-2.646865845E0,-9.089675903E0,-2.456604004E0
6.350254437E0,-2.945968628E0,-9.247604370E0,-2.442245483E0
6.355106732E0,-2.943572998E0,-9.549102783E0,-2.432678223E0
6.360020062E0,-2.859832764E0,-9.905624390E0,-2.396789551E0
6.364902874E0,-2.694717407E0,-1.030523682E1,-2.425491333E0
6.369755169E0,-2.555938721E0,-1.065936279E1,-2.490097046E0
6.374637982E0,-2.469802856E0,-1.099436951E1,-2.492492676E0
6.379520794E0,-2.371688843E0,-1.137960815E1,-2.317825317E0
6.384403607E0,-2.307083130E0,-1.173135376E1,-1.954116821E0
6.389286419E0,-2.299911499E0,-1.197541809E1,-1.504257202E0
6.394169232E0,-2.275985718E0,-1.214530945E1,-1.176437378E0
6.399052044E0,-2.228118896E0,-1.224102783E1,-9.347686768E-1
6.403934857E0,-2.115661621E0,-1.226495361E1,-7.888031006E-1
6.408817669E0,-1.984054565E0,-1.220034790E1,-7.768402100E-1
6.413700482E0,-1.878768921E0,-1.214051819E1,-8.677673340E-1
6.418583294E0,-1.749557495E0,-1.188209534E1,-1.011337280E0
6.423466107E0,-1.620346069E0,-1.148966980E1,-1.214721680E0
6.428348919E0,-1.768707275E0,-1.130543518E1,-1.482727051E0
6.433231732E0,-1.854843140E0,-1.099197388E1,-1.631072998E0
6.438114544E0,-1.802200317E0,-1.050622559E1,-1.789001465E0
6.442997357E0,-1.840484619E0,-1.019276428E1,-2.025894165E0
6.447880169E0,-1.902694702E0,-1.001091003E1,-2.150329590E0
6.452762982E0,-1.893127441E0,-9.723770142E0,-2.205352783E0
6.457615277E0,-1.759124756E0,-9.415100098E0,-2.143142700E0
6.462498089E0,-1.701705933E0,-9.104034424E0,-2.097686768E0
6.467380902E0,-1.653839111E0,-8.871932983E0,-2.054611206E0
6.472263714E0,-1.661026001E0,-8.678115845E0,-2.009140015E0
6.477146527E0,-1.663421631E0,-8.553680420E0,-1.927795410E0
6.482029339E0,-1.637100220E0,-8.474716187E0,-1.901473999E0
6.486912152E0,-1.491134644E0,-8.434036255E0,-1.889511108E0
6.491794964E0,-1.402603149E0,-8.477111816E0,-1.918212891E0
6.496677777E0,-1.318847656E0,-8.548904419E0,-1.942153931E0
6.501560589E0,-1.278167725E0,-8.594360352E0,-1.980438232E0
6.506443402E0,-1.278167725E0,-8.668533325E0,-1.949325562E0
6.511326214E0,-1.273391724E0,-8.694854736E0,-2.179031372E0
6.516209027E0,-1.268600464E0,-8.745101929E0,-2.260391235E0
6.521091839E0,-1.294921875E0,-8.819290161E0,-2.365676880E0
6.525974652E0,-1.275787354E0,-8.883895874E0,-2.480529785E0
6.530857464E0,-1.294921875E0,-8.931747437E0,-2.626495361E0
6.535740277E0,-1.323638916E0,-8.989181519E0,-2.772460938E0
6.540592572E0,-1.371490479E0,-9.029861450E0,-2.904067993E0
6.545475384E0,-1.404998779E0,-9.039428711E0,-3.016525269E0
6.550358197E0,-1.483963013E0,-9.044204712E0,-3.061981201E0
6.555241009E0,-1.474380493E0,-8.998748779E0,-3.325195312E0
6.560123822E0,-1.546173096E0,-8.965255737E0,-3.310836792E0
6.565006634E0,-1.594024658E0,-8.946105957E0,-3.380233765E0
6.569889447E0,-1.651458740E0,-8.864746094E0,-3.461593628E0
6.574772259E0,-1.665817261E0,-8.778610229E0,-3.542938232E0
6.579655072E0,-1.680160522E0,-8.666152954E0,-3.624298096E0
6.584537884E0,-1.696914673E0,-8.568038940E0,-3.739151001E0
6.589420697E0,-1.677780151E0,-8.513000488E0,-3.818115234E0
6.594303509E0,-1.684951782E0,-8.469940186E0,-3.873153687E0
6.599186322E0,-1.649063110E0,-8.486679077E0,-3.916229248E0
6.604069134E0,-1.672988892E0,-8.515396118E0,-3.949722290E0
6.608951947E0,-1.692138672E0,-8.568038940E0,-3.997589111E0
6.613834759E0,-1.720840454E0,-8.594360352E0,-4.076538086E0
6.618717572E0,-1.766311646E0,-8.651794434E0,-4.179443359E0
6.623600384E0,-1.838088989E0,-8.668533325E0,-4.301467896E0
6.628452679E0,-1.960128784E0,-8.661361694E0,-4.471359253E0
6.633335492E0,-2.134796143E0,-8.709213257E0,-4.521606445E0
6.638218304E0,-2.352554321E0,-8.769042969E0,-4.524002075E0
6.643101117E0,-2.567901611E0,-8.773818970E0,-4.485717773E0
6.647983929E0,-2.778472900E0,-8.773818970E0,-4.483322144E0
6.652866742E0,-2.981857300E0,-8.761856079E0,-4.435470581E0
6.657749554E0,-3.247467041E0,-8.757080078E0,-4.356506348E0
6.662632367E0,-3.537002563E0,-8.757080078E0,-4.222503662E0
6.667515179E0,-3.838485718E0,-8.766647339E0,-4.040649414E0
6.672397992E0,-4.104095459E0,-8.771423340E0,-3.806152344E0
6.677280804E0,-4.357742310E0,-8.776214600E0,-3.468765259E0
6.682163617E0,-4.616165161E0,-8.759460449E0,-3.090698242E0
6.687046429E0,-4.805191040E0,-8.718780518E0,-2.877746582E0
6.691929242E0,-4.726226807E0,-8.773818970E0,-2.648025513E0
6.696812054E0,-4.695129395E0,-8.898254395E0,-2.516418457E0
6.701694867E0,-4.637695312E0,-8.993957520E0,-2.547531128E0
6.706577679E0,-4.604202271E0,-9.063354492E0,-2.655212402E0
6.711460492E0,-4.544372559E0,-9.099243164E0,-2.743743896E0
6.716312787E0,-4.429519653E0,-9.168640137E0,-2.913635254E0
6.721195599E0,-4.345764160E0,-9.261962891E0,-3.045242310E0
6.726078412E0,-4.230911255E0,-9.372024536E0,-3.066772461E0
6.730961224E0,-4.070602417E0,-9.506027222E0,-3.157699585E0
6.735844037E0,-3.850463867E0,-9.663955688E0,-3.241455078E0
6.740726849E0,-3.618347168E0,-9.802734375E0,-3.320419312E0
6.745609662E0,-3.386245728E0,-9.929550171E0,-3.406555176E0
6.750492474E0,-3.135009766E0,-1.002526855E1,-3.478332520E0
6.755375287E0,-2.979476929E0,-1.009944153E1,-3.497482300E0
6.760258099E0,-2.838287354E0,-1.010662842E1,-3.526199341E0
6.765140912E0,-2.721038818E0,-1.013294983E1,-3.507049561E0
6.770023724E0,-2.661224365E0,-1.018080139E1,-3.454406738E0
6.774906537E0,-2.632507324E0,-1.033154297E1,-3.368270874E0
6.779789349E0,-2.622940063E0,-1.056843567E1,-3.262985229E0
6.784672162E0,-2.615768433E0,-1.087472534E1,-3.210342407E0
6.789554974E0,-2.579864502E0,-1.123843384E1,-3.157699585E0
6.794437787E0,-2.567901611E0,-1.170263672E1,-3.088302612E0
6.799290081E0,-2.553543091E0,-1.218598938E1,-2.983032227E0
6.804172894E0,-2.460220337E0,-1.269804382E1,-2.803558350E0
6.809055706E0,-2.252044678E0,-1.306654358E1,-2.588211060E0
6.813938519E0,-1.845275879E0,-1.331060791E1,-2.358505249E0
6.818821331E0,-1.318847656E0,-1.339436340E1,-2.162292480E0
6.823704144E0,-8.905334473E-1,-1.334411621E1,-2.049819946E0
6.828586956E0,-6.369018555E-1,-1.328428650E1,-2.222106934E0
6.833469769E0,-6.177520752E-1,-1.322447205E1,-2.705459595E0
6.838352581E0,-8.953247070E-1,-1.325079346E1,-3.346740723E0
6.843235394E0,-1.397811890E0,-1.333932495E1,-3.952117920E0
6.848118206E0,-1.960128784E0,-1.347811890E1,-4.370864868E0
6.853001019E0,-2.445877075E0,-1.363842773E1,-4.497680664E0
6.857883831E0,-2.773681641E0,-1.374131775E1,-4.265579224E0
6.862766644E0,-2.986648560E0,-1.380831909E1,-3.753509521E0
6.867649456E0,-2.912475586E0,-1.381550598E1,-3.081130981E0
6.872532269E0,-2.445877075E0,-1.357142639E1,-2.334564209E0
6.877415081E0,-1.596420288E0,-1.296844482E1,-1.705261230E0
6.882297894E0,-7.062835693E-1,-1.217402649E1,-1.339157104E0
6.887150189E0,-5.305480957E-2,-1.136285400E1,-1.104660034E0
6.892033001E0,3.345947266E-1,-1.055886841E1,-1.035263062E0
6.896915814E0,5.810546875E-1,-9.800338745E0,-1.183624268E0
6.901798626E0,6.719818115E-1,-9.099243164E0,-1.391799927E0
6.906681439E0,6.623992920E-1,-8.493865967E0,-1.645431519E0
6.911564251E0,6.887207031E-1,-7.967437744E0,-1.951721191E0
6.916447064E0,7.054748535E-1,-7.529556274E0,-2.291503906E0
6.921329876E0,5.810546875E-1,-7.184982300E0,-2.542739868E0
6.926212689E0,3.513336182E-1,-6.940917969E0,-2.643249512E0
6.931095501E0,6.898498535E-2,-6.823669434E0,-2.659988403E0
6.935978314E0,-2.133636475E-1,-6.778213501E0,-2.492492676E0
6.940861126E0,-5.890350342E-1,-6.835632324E0,-2.207748413E0
6.945743939E0,-1.069992065E0,-6.955276489E0,-1.877548218E0
6.950626751E0,-1.622741699E0,-7.101242065E0,-1.525802612E0
6.955509564E0,-2.175476074E0,-7.309417725E0,-1.147735596E0
6.960392376E0,-2.639694214E0,-7.524765015E0,-6.165161133E-1
6.965275189E0,-3.115859985E0,-7.711410522E0,-2.049560547E-1
6.970127484E0,-3.565704346E0,-7.890869141E0,2.474975586E-2
6.975010296E0,-3.898315430E0,-8.111007690E0,5.615234375E-3
6.979893109E0,-4.154342651E0,-8.343109131E0,7.499694824E-2
6.984775921E0,-4.221343994E0,-8.627853394E0,1.802825928E-1
6.989658734E0,-4.061019897E0,-8.874328613E0,2.401123047E-1
6.994541546E0,-3.910278320E0,-9.108810425E0,3.671264648E-2
6.999424359E0,-3.522644043E0,-8.946105957E0,5.107116699E-2
7.004307171E0,-2.553543091E0,-8.599151611E0,5.615234375E-3
7.009189984E0,-2.082168579E0,-8.816894531E0,-1.499176025E-1
7.014072796E0,-1.924240112E0,-8.814498901E0,-2.599945068E-1
7.018955609E0,-1.206390381E0,-9.295455933E0,-5.399475098E-1
7.023838421E0,-5.531463623E-1,-9.970230103E0,-9.156188965E-1
7.028721234E0,-1.296234131E-1,-1.052058411E1,-1.264984131E0
7.033604046E0,3.728790283E-1,-1.101350403E1,-1.346328735E0
7.038486859E0,7.533264160E-1,-1.139396667E1,-1.343948364E0
7.043369671E0,1.052429199E0,-1.165956116E1,-1.360687256E0
7.048252484E0,1.550140381E0,-1.199217224E1,-1.427688599E0
7.053135296E0,1.940170288E0,-1.216683960E1,-1.233871460E0
7.058018109E0,2.232101440E0,-1.216445923E1,-1.159698486E0
7.062870404E0,2.531204224E0,-1.210942078E1,-1.032867432E0
7.067753216E0,2.782440186E0,-1.192756653E1,-1.023300171E0
7.072636029E0,3.071975708E0,-1.165238953E1,-1.324798584E0
7.077518841E0,3.464401245E0,-1.126953125E1,-1.798583984E0
7.082401654E0,3.576858521E0,-1.073593140E1,-2.241256714E0
7.087284466E0,3.493118286E0,-1.030284119E1,-2.621704102E0
7.092167279E0,3.134185791E0,-1.001091003E1,-2.849029541E0
7.097050091E0,2.839874268E0,-9.838623047E0,-3.318023682E0
7.101932904E0,2.244064331E0,-9.783599854E0,-3.205551147E0
7.106815716E0,1.554931641E0,-9.754882812E0,-3.258193970E0
7.111698529E0,1.073974609E0,-9.841018677E0,-2.896881104E0
7.116581341E0,8.322906494E-1,-9.919982910E0,-2.822708130E0
7.121464154E0,7.150421143E-1,-9.975021362E0,-2.569061279E0
7.126346966E0,3.106689453E-1,-1.002287292E1,-1.836868286E0
7.131229779E0,1.647033691E-1,-1.004441833E1,-1.415725708E0
7.136112591E0,-4.502563477E-1,-1.001809692E1,-7.026672363E-1
7.140995404E0,-5.722961426E-1,-9.975021362E0,-4.609832764E-1
7.145847699E0,-7.589263916E-1,-9.943908691E0,-3.054504395E-1
7.150730511E0,-8.474578857E-1,-9.869735718E0,-2.504272461E-1
7.155613324E0,-1.251846313E0,-9.745315552E0,4.150390625E-2
7.160496136E0,-1.371490479E0,-9.683090210E0,2.113952637E-1
7.165378949E0,-1.718444824E0,-9.520385742E0,3.190765381E-1
7.170261761E0,-1.964920044E0,-9.352890015E0,4.052124023E-1
7.175144574E0,-1.742385864E0,-9.290679932E0,3.980407715E-1
7.180027386E0,-1.596420288E0,-9.206924438E0,1.491851807E-1
7.184910199E0,-1.687347412E0,-9.142318726E0,3.219604492E-3
7.189793011E0,-1.804595947E0,-9.151885986E0,7.499694824E-2
7.194675824E0,-1.780670166E0,-9.190170288E0,-9.489440918E-2
7.199558636E0,-1.519851685E0,-9.218887329E0,-2.336730957E-1
7.204441449E0,-1.395416260E0,-9.269134521E0,-3.461303711E-1
7.209324261E0,-1.273391724E0,-9.348098755E0,-6.021728516E-1
7.214207074E0,-1.101104736E0,-9.450988770E0,-7.672729492E-1
7.219089886E0,-9.910278320E-1,-9.517990112E0,-8.390502930E-1
7.223972699E0,-9.766845703E-1,-9.549102783E0,-7.553100586E-1
7.228855511E0,-8.546447754E-1,-9.592163086E0,-9.204101562E-1
7.233707806E0,-7.397918701E-1,-9.575424194E0,-1.020904541E0
7.238590619E0,-5.411834717E-1,-9.549102783E0,-1.181228638E0
7.243473431E0,-5.651092529E-1,-9.455780029E0,-1.262588501E0
7.248356244E0,-5.986175537E-1,-9.395950317E0,-1.095092773E0
7.253239056E0,-6.009979248E-1,-9.352890015E0,-9.754486084E-1
7.258121869E0,-4.717864990E-1,-9.290679932E0,-1.049621582E0
7.263004681E0,-2.971191406E-1,-9.264358521E0,-1.162094116E0
7.267887494E0,-3.497619629E-1,-9.283493042E0,-9.419403076E-1
7.272770306E0,-3.497619629E-1,-9.319381714E0,-8.318786621E-1
7.277653119E0,-3.066864014E-1,-9.415100098E0,-8.127288818E-1
7.282535931E0,-3.808593750E-1,-9.513198853E0,-7.385559082E-1
7.287418744E0,-5.124664307E-1,-9.630447388E0,-6.428375244E-1
7.292301556E0,-5.794677734E-1,-9.776412964E0,-6.643829346E-1
7.297184369E0,-6.201477051E-1,-9.903228760E0,-8.534088135E-1
7.302067181E0,-6.345062256E-1,-1.003005981E1,-1.097488403E0
7.306949994E0,-8.354949951E-1,-1.011619568E1,-1.291305542E0
7.311832806E0,-9.838562012E-1,-1.018319702E1,-1.564086914E0
7.316715619E0,-1.005386353E0,-1.027172852E1,-1.815322876E0
7.321567913E0,-1.158538818E0,-1.033872986E1,-2.033081055E0
7.326450726E0,-1.144180298E0,-1.036026001E1,-2.427886963E0
7.331333538E0,-1.046066284E0,-1.035548401E1,-2.853805542E0
7.336216351E0,-1.062820435E0,-1.028848267E1,-2.892105103E0
7.341099163E0,-1.058029175E0,-1.019276428E1,-2.963882446E0
7.345981976E0,-9.982147217E-1,-9.984588623E0,-2.971054077E0
7.350864788E0,-8.642120361E-1,-9.683090210E0,-3.239059448E0
7.355747601E0,-8.211364746E-1,-9.307418823E0,-3.308456421E0
7.360630413E0,-6.177520752E-1,-9.120788574E0,-3.164886475E0
7.365513226E0,-6.009979248E-1,-8.924575806E0,-2.803558350E0
7.370396038E0,-3.688964844E-1,-8.790573120E0,-2.597778320E0
7.375278851E0,-1.870422363E-1,-8.584793091E0,-2.638458252E0
7.380161663E0,-1.798706055E-1,-8.402938843E0,-2.564285278E0
7.385044476E0,-1.224365234E-1,-8.163650513E0,-2.793991089E0
7.389927288E0,-1.475524902E-2,-8.067932129E0,-2.782028198E0
7.394810101E0,1.359863281E-1,-8.008117676E0,-2.782028198E0
7.399692913E0,2.651977539E-1,-8.096649170E0,-2.810745239E0
7.404545208E0,4.087677002E-1,-8.216293335E0,-2.652816772E0
7.409428021E0,6.719818115E-1,-8.503433228E0,-2.482925415E0
7.414310833E0,9.016876221E-1,-8.874328613E0,-2.382431030E0
7.419193646E0,1.133789062E0,-9.281097412E0,-2.267578125E0
7.424076458E0,1.229507446E0,-9.714202881E0,-2.202972412E0
7.428959271E0,1.368286133E0,-1.016883850E1,-2.100067139E0
7.433842083E0,1.370681763E0,-1.058758545E1,-2.054611206E0
7.438724896E0,1.320434570E0,-1.102546692E1,-2.262786865E0
7.443607708E0,1.346755981E0,-1.142028809E1,-2.561889648E0
7.448490521E0,1.507080078E0,-1.180313110E1,-2.904067993E0
7.453373333E0,1.526214600E0,-1.216445923E1,-3.258193970E0
7.458256146E0,1.583648682E0,-1.253294373E1,-3.767868042E0
7.463138958E0,1.614746094E0,-1.282247925E1,-4.035873413E0
7.468021771E0,1.617141724E0,-1.305937195E1,-4.169860840E0
7.472904583E0,1.150543213E0,-1.312875366E1,-4.004760742E0
7.477787396E0,4.159393311E-1,-1.308569336E1,-3.815734863E0
7.482670208E0,-2.947235107E-1,-1.290861511E1,-3.791793823E0
7.487553021E0,-8.737792969E-1,-1.264062500E1,-3.956909180E0
7.492405316E0,-1.318847656E0,-1.237741089E1,-4.031082153E0
7.497288128E0,-1.696914673E0,-1.211659241E1,-4.153121948E0
7.502170941E0,-1.969696045E0,-1.191560364E1,-3.897079468E0
7.507053753E0,-2.007980347E0,-1.187731934E1,-3.667373657E0
7.511936566E0,-2.146774292E0,-1.182945251E1,-3.499877930E0
7.516819378E0,-2.364517212E0,-1.171939087E1,-3.396987915E0
7.521702191E0,-2.639694214E0,-1.151121521E1,-3.188812256E0
7.526585003E0,-2.898117065E0,-1.125279236E1,-2.999771118E0
7.531467816E0,-3.096725464E0,-1.100154114E1,-2.939956665E0
7.536350628E0,-3.288146973E0,-1.079096985E1,-2.844238281E0
7.541233441E0,-3.374282837E0,-1.060194397E1,-2.767669678E0
7.546116253E0,-3.350357056E0,-1.048709106E1,-2.667175293E0
7.550999066E0,-3.261825562E0,-1.043922424E1,-2.435073853E0
7.555881878E0,-3.048858643E0,-1.048709106E1,-2.085723877E0
7.560764691E0,-2.704299927E0,-1.058998108E1,-1.803359985E0
7.565647503E0,-2.323837280E0,-1.065936279E1,-1.549728394E0
7.570530316E0,-2.063018799E0,-1.074072266E1,-1.214721680E0
7.575382611E0,-1.531814575E0,-1.086514282E1,-8.199157715E-1
7.580265423E0,-9.742889404E-1,-1.094172668E1,-6.548156738E-1
7.585148236E0,-5.531463623E-1,-1.095368958E1,-4.968872070E-1
7.590031048E0,-4.478607178E-1,-1.081489563E1,-2.982788086E-1
7.594913861E0,-5.292205811E-1,-1.045358276E1,-3.266906738E-2
7.599796673E0,-6.345062256E-1,-1.007791138E1,3.645324707E-1
7.604679486E0,-2.468719482E-1,-1.022865295E1,5.511779785E-1
7.609562298E0,-2.194213867E-2,-1.025259399E1,6.373138428E-1
7.614445111E0,2.604064941E-1,-1.033872986E1,6.851654053E-1
7.619327923E0,4.422607422E-1,-1.042008972E1,8.096008301E-1
7.624210736E0,6.456604004E-1,-1.056843567E1,8.813781738E-1
7.629093548E0,7.102661133E-1,-1.076464844E1,7.617492676E-1
7.633976361E0,8.370819092E-1,-1.094172668E1,6.492767334E-1
7.638859173E0,8.562316895E-1,-1.105178833E1,7.569580078E-1
7.643741986E0,8.346862793E-1,-1.117382812E1,9.100952148E-1
7.648624798E0,8.418731689E-1,-1.135328674E1,9.531707764E-1
7.653507611E0,9.662933350E-1,-1.161650085E1,9.459838867E-1
7.658390423E0,1.212753296E0,-1.194670105E1,9.340209961E-1
7.663242718E0,1.361114502E0,-1.232955933E1,1.101516724E0
7.668125531E0,1.234283447E0,-1.274591064E1,1.142196655E0
7.673008343E0,6.623992920E-1,-1.311201477E1,1.032135010E0
7.677891156E0,-1.343994141E-1,-1.338957214E1,6.109924316E-1
7.682773968E0,-1.203994751E0,-1.352597046E1,-2.073516846E-1
7.687656781E0,-2.577468872E0,-1.353076172E1,-1.475540161E0
7.692539593E0,-3.958129883E0,-1.344461060E1,-2.798782349E0
7.697422406E0,-5.142578125E0,-1.320054626E1,-3.731979370E0
7.702305218E0,-6.171493530E0,-1.291101074E1,-3.959289551E0
7.707188031E0,-7.068801880E0,-1.251141357E1,-3.700866699E0
7.712070843E0,-7.322448730E0,-1.181988525E1,-2.973449707E0
7.716953656E0,-7.542587280E0,-1.106614685E1,-2.128784180E0
7.721836468E0,-7.396621704E0,-1.039137268E1,-1.245834351E0
7.726719281E0,-7.391830444E0,-9.735733032E0,-1.044616699E-1
7.731602093E0,-7.006591797E0,-9.171035767E0,4.793853760E-1
7.736484906E0,-6.752944946E0,-8.773818970E0,1.182876587E0
7.741367718E0,-6.248062134E0,-8.642211914E0,1.525054932E0
7.746250531E0,-6.181060791E0,-8.441223145E0,1.367126465E0
7.751102826E0,-5.398620605E0,-8.515396118E0,1.146987915E0
7.755985638E0,-4.436706543E0,-8.379013062E0,7.665252686E-1
7.760868451E0,-3.642288208E0,-8.292861938E0,8.311309814E-1
7.765751263E0,-3.115859985E0,-8.333541870E0,1.053665161E0
7.770634076E0,-2.642074585E0,-8.371826172E0,1.123062134E0
7.775516888E0,-2.333404541E0,-8.405334473E0,7.952423096E-1
7.780399701E0,-2.039093018E0,-8.558471680E0,3.070983887E-1
7.785282513E0,-1.771087646E0,-8.625473022E0,-2.432403564E-1
7.790165326E0,-1.527023315E0,-8.670928955E0,-6.165161133E-1
7.795048138E0,-1.292526245E0,-8.747497559E0,-8.582000732E-1
7.799930951E0,-1.038894653E0,-8.859970093E0,-1.011337280E0
7.804813763E0,-7.397918701E-1,-9.010711670E0,-1.102264404E0
7.809696576E0,-3.688964844E-1,-9.118392944E0,-1.300872803E0
7.814579388E0,-4.347229004E-2,-9.185394287E0,-1.583221436E0
7.819462201E0,2.077636719E-1,-9.211715698E0,-1.736358643E0
7.824345013E0,3.369750977E-1,-9.273925781E0,-1.889511108E0
7.829227826E0,5.786590576E-1,-9.302642822E0,-1.867965698E0
7.834080121E0,6.791534424E-1,-9.278701782E0,-2.078536987E0
7.838962933E0,7.126617432E-1,-9.261962891E0,-2.138351440E0
7.843845746E0,5.786590576E-1,-9.168640137E0,-2.124008179E0
7.848728558E0,4.638061523E-1,-9.020278931E0,-2.167068481E0
7.853611371E0,3.944091797E-1,-8.862350464E0,-2.169464111E0
7.858494183E0,6.480560303E-1,-9.142318726E0,-1.997177124E0
7.863376996E0,7.222290039E-1,-9.187774658E0,-2.200576782E0
7.868259808E0,6.217346191E-1,-9.104034424E0,-2.387207031E0
7.873142621E0,5.140533447E-1,-9.060958862E0,-2.291503906E0
7.878025433E0,4.494476318E-1,-9.010711670E0,-2.238861084E0
7.882908246E0,6.049804688E-1,-8.824066162E0,-2.181427002E0
7.887791058E0,6.983032227E-1,-8.556076050E0,-2.310638428E0
7.892673871E0,8.586120605E-1,-8.426864624E0,-1.870361328E0
7.897556683E0,9.830474854E-1,-8.374221802E0,-1.331970215E0
7.902439496E0,7.964019775E-1,-8.333541870E0,-9.993743896E-1
7.907322308E0,6.097717285E-1,-8.321578979E0,-9.586944580E-1
7.912205121E0,5.188293457E-1,-8.328750610E0,-1.037658691E0
7.917087933E0,4.087677002E-1,-8.278503418E0,-1.238662720E0
7.921970746E0,4.063720703E-1,-8.271331787E0,-1.530578613E0
7.926823040E0,3.920135498E-1,-8.242614746E0,-1.786621094E0
7.931705853E0,5.188293457E-1,-8.122970581E0,-2.222106934E0
7.936588665E0,4.662017822E-1,-8.163650513E0,-2.329788208E0
7.941471478E0,3.824462891E-1,-8.182800293E0,-2.482925415E0
7.946354290E0,2.484436035E-1,-8.146896362E0,-2.767669678E0
7.951237103E0,1.311950684E-1,-8.075119019E0,-3.152908325E0
7.956119915E0,1.983642578E-3,-7.977020264E0,-3.564483643E0
7.961002728E0,-1.535491943E-1,-7.874114990E0,-4.033477783E0
7.965885540E0,-3.210449219E-1,-7.752090454E0,-4.488113403E0
7.970768353E0,-5.627136230E-1,-7.596557617E0,-4.811141968E0
7.975651165E0,-7.756805420E-1,-7.429061890E0,-5.150924683E0
7.980533978E0,-1.010177612E0,-7.268737793E0,-5.452423096E0
7.985416790E0,-1.220748901E0,-7.132339478E0,-5.560089111E0
7.990299603E0,-1.553344727E0,-7.079696655E0,-5.540954590E0
7.995182415E0,-1.938598633E0,-7.012710571E0,-5.567276001E0
8.000065228E0,-2.304687500E0,-7.043807983E0,-5.308853149E0
8.004948040E0,-2.768905640E0,-7.153884888E0,-4.949920654E0
8.009800335E0,-3.268997192E0,-7.220886230E0,-4.698684692E0
8.014683148E0,-3.592025757E0,-7.374023438E0,-4.440261841E0
8.019565960E0,-4.053848267E0,-7.464950562E0,-4.399581909E0
8.024448773E0,-4.597015381E0,-7.728164673E0,-4.167465210E0
8.029331585E0,-5.233505249E0,-8.137329102E0,-3.581237793E0
8.034214398E0,-5.867599487E0,-8.414901733E0,-3.303665161E0
8.039097210E0,-6.334213257E0,-8.625473022E0,-3.461593628E0
8.043980023E0,-6.719451904E0,-8.919784546E0,-3.533370972E0
8.048862835E0,-7.128631592E0,-9.278701782E0,-3.353912354E0
8.053745648E0,-7.717254639E0,-9.623275757E0,-3.389801025E0
8.058628460E0,-7.824935913E0,-9.970230103E0,-3.679336548E0
8.063511273E0,-7.533004761E0,-1.037461853E1,-3.820510864E0
8.068394085E0,-7.047271729E0,-1.072636414E1,-3.978439331E0
8.073276898E0,-6.563919067E0,-1.091540527E1,-4.179443359E0
8.078159710E0,-5.812576294E0,-1.096325684E1,-4.346939087E0
8.083042523E0,-5.135406494E0,-1.092497253E1,-4.684326172E0
8.087925335E0,-4.707092285E0,-1.086753845E1,-5.048034668E0
8.092808148E0,-4.424728394E0,-1.086514282E1,-5.361495972E0
8.097660443E0,-4.156738281E0,-1.093453979E1,-5.572052002E0
8.102543255E0,-3.766708374E0,-1.109963989E1,-5.543350220E0
8.107426068E0,-3.345565796E0,-1.131021118E1,-5.507446289E0
8.112308880E0,-2.977081299E0,-1.157102966E1,-5.572052002E0
8.117191693E0,-2.692337036E0,-1.197062683E1,-5.526596069E0
8.122074505E0,-2.610977173E0,-1.254013062E1,-5.177246094E0
8.126957318E0,-2.709075928E0,-1.319815063E1,-4.452224731E0
8.131840130E0,-3.060821533E0,-1.369346619E1,-3.703262329E0
8.136722943E0,-3.654251099E0,-1.383224487E1,-3.215133667E0
8.141605755E0,-4.039489746E0,-1.377960205E1,-2.786819458E0
8.146488568E0,-4.029922485E0,-1.369825745E1,-2.224502563E0
8.151371380E0,-3.678176880E0,-1.367193604E1,-1.698074341E0
8.156254193E0,-3.079971313E0,-1.365997314E1,-1.209945679E0
8.161137005E0,-2.223342896E0,-1.358818054E1,-7.816314697E-1
8.166019818E0,-1.407379150E0,-1.365997314E1,-5.878143311E-1
8.170902630E0,-1.034103394E0,-1.394471741E1,-4.705657959E-1
8.175785443E0,-8.953247070E-1,-1.428210449E1,-7.194213867E-1
8.180637738E0,-9.120635986E-1,-1.474151611E1,-1.169265747E0
8.185520550E0,-1.115463257E0,-1.533015442E1,-1.482727051E0
8.190403363E0,-8.666076660E-1,-1.482048035E1,-1.442047119E0
8.195286175E0,-5.172576904E-1,-1.446873474E1,-1.609542847E0
8.200168988E0,-7.278289795E-1,-1.471281433E1,-1.817718506E0
8.205051800E0,-8.881378174E-1,-1.484680176E1,-1.518615723E0
8.209934613E0,-8.618164062E-1,-1.486116028E1,-7.648773193E-1
8.214817425E0,-8.522491455E-1,-1.481809998E1,4.650268555E-1
8.219700238E0,-6.321105957E-1,-1.448788452E1,2.197433472E0
8.224583050E0,-2.612304688E-1,-1.406913757E1,4.202621460E0
8.229465863E0,3.369750977E-1,-1.330343628E1,5.714889526E0
8.234348675E0,1.162506104E0,-1.184860229E1,6.387268066E0
8.239231488E0,1.758316040E0,-9.884094238E0,5.990066528E0
8.244114300E0,2.081344604E0,-8.393356323E0,4.561538696E0
8.248997113E0,2.246459961E0,-7.194564819E0,2.790863037E0
8.253879925E0,1.887527466E0,-6.412109375E0,1.537017822E0
8.258762738E0,1.215148926E0,-6.074722290E0,6.588439941E-1
8.263645550E0,6.408691406E-1,-6.060363770E0,-2.863159180E-1
8.268497845E0,1.886291504E-1,-6.349899292E0,-1.336761475E0
8.273380658E0,-3.593292236E-1,-6.653778076E0,-2.049819946E0
8.278263470E0,-8.020019531E-1,-6.878707886E0,-2.604965210E0
8.283146283E0,-9.360046387E-1,-7.089279175E0,-3.291702271E0
8.288029095E0,-4.933319092E-1,-7.402740479E0,-3.059600830E0
8.292911908E0,-8.666076660E-1,-7.586975098E0,-3.222305298E0
8.297794720E0,-4.717864990E-1,-7.912399292E0,-3.353912354E0
8.302677533E0,1.958007812E-1,-8.211502075E0,-3.184020996E0
8.307560345E0,7.317962646E-1,-8.627853394E0,-2.717422485E0
8.312443158E0,1.155334473E0,-8.938934326E0,-2.269958496E0
8.317325970E0,1.782241821E0,-9.649597168E0,-2.090499878E0
8.322208783E0,2.325424194E0,-9.819488525E0,-1.872756958E0
8.327091595E0,2.794418335E0,-9.953491211E0,-1.719619751E0
8.331974408E0,3.234695435E0,-1.050143433E1,-1.511444092E0
8.336857220E0,3.569686890E0,-1.079336548E1,-1.449218750E0
8.341740033E0,3.667785645E0,-1.083404541E1,-1.377441406E0
8.346622845E0,3.689331055E0,-1.095129395E1,-1.138153076E0
8.351505658E0,3.586441040E0,-1.113314819E1,-8.677673340E-1
8.356357953E0,3.418945312E0,-1.138200378E1,-6.213073730E-1
8.361240765E0,3.198791504E0,-1.166674805E1,-4.777374268E-1
8.366123578E0,2.741775513E0,-1.190364075E1,-4.897003174E-1
8.371006390E0,2.033493042E0,-1.165478516E1,-5.567016602E-1
8.375889203E0,8.705749512E-1,-1.083164978E1,-6.189117432E-1
8.380772015E0,-1.894378662E-1,-1.013055420E1,-8.725585938E-1
8.385654828E0,-1.010177612E0,-9.553878784E0,-1.286514282E0
8.390537640E0,-1.574890137E0,-9.089675903E0,-1.702865601E0
8.395420453E0,-1.938598633E0,-8.714004517E0,-2.021118164E0
8.400303265E0,-1.996017456E0,-8.434036255E0,-2.246032715E0
8.405186078E0,-1.931411743E0,-8.261764526E0,-2.229278564E0
8.410068890E0,-1.787841797E0,-8.156478882E0,-2.162292480E0
8.414951703E0,-1.615554810E0,-8.201934814E0,-2.140747070E0
8.419834515E0,-1.352355957E0,-8.280899048E0,-2.124008179E0
8.424717328E0,-1.046066284E0,-8.429260254E0,-2.131179810E0
8.429600140E0,-7.948150635E-1,-8.644607544E0,-2.033081055E0
8.434482953E0,-4.861450195E-1,-8.970031738E0,-1.805755615E0
8.439335247E0,-3.162536621E-1,-9.278701782E0,-1.542541504E0
8.444218060E0,-2.109680176E-1,-9.568237305E0,-1.439651489E0
8.449100872E0,-1.463623047E-1,-9.824264526E0,-1.305664062E0
8.453983685E0,-2.205505371E-1,-1.004679871E1,-9.993743896E-1
8.458866497E0,-3.976135254E-1,-1.026455688E1,-5.854187012E-1
8.463749310E0,-2.133636475E-1,-1.049426270E1,-5.662689209E-1
8.468632122E0,-2.396850586E-1,-1.072636414E1,-4.657745361E-1
8.473514935E0,-3.330078125E-1,-1.094889832E1,-4.346618652E-1
8.478397747E0,-4.000091553E-1,-1.116903687E1,-4.968872070E-1
8.483280560E0,-5.531463623E-1,-1.137721252E1,-4.370574951E-1
8.488163372E0,-6.991119385E-1,-1.154231262E1,-4.586029053E-1
8.493046185E0,-6.679992676E-1,-1.164759827E1,-5.567016602E-1
8.497928997E0,-4.119720459E-1,-1.169067383E1,-8.438415527E-1
8.502811810E0,-3.712921143E-1,-1.166674805E1,-1.016128540E0
8.507694622E0,-5.866546631E-1,-1.153514099E1,-1.032867432E0
8.512577435E0,-7.469635010E-1,-1.137242126E1,-1.071166992E0
8.517460247E0,-2.660064697E-1,-1.125517273E1,-1.621505737E0
8.522343060E0,-9.979248047E-3,-1.105418396E1,-1.896682739E0
8.527225872E0,-4.826354980E-2,-1.075747681E1,-2.033081055E0
8.532078167E0,-2.947235107E-1,-1.043444824E1,-2.090499878E0
8.536960980E0,-6.129608154E-1,-1.009226990E1,-2.248428345E0
8.541843792E0,-9.383850098E-1,-9.814697266E0,-2.336959839E0
8.546726605E0,-1.404998779E0,-9.520385742E0,-2.387207031E0
8.551609417E0,-1.943374634E0,-9.269134521E0,-2.298675537E0
8.556492230E0,-2.374084473E0,-9.063354492E0,-2.162292480E0
8.561375042E0,-2.670791626E0,-8.953277588E0,-2.023498535E0
8.566257855E0,-3.003402710E0,-8.876708984E0,-1.856002808E0
8.571140667E0,-3.288146973E0,-8.833648682E0,-1.638259888E0
8.576023480E0,-3.532211304E0,-8.826461792E0,-1.413330078E0
8.580906292E0,-3.752349854E0,-8.855178833E0,-1.209945679E0
8.585789105E0,-3.888748169E0,-8.903030396E0,-1.083129883E0
8.590671917E0,-3.793029785E0,-8.929351807E0,-1.025695801E0
8.595554730E0,-3.850463867E0,-8.979598999E0,-1.154907227E0
8.600437542E0,-4.410385132E0,-9.041824341E0,-1.221908569E0
8.605320355E0,-5.137802124E0,-9.171035767E0,-9.850158691E-1
8.610203167E0,-5.319656372E0,-9.290679932E0,-9.850158691E-1
8.615055462E0,-5.300506592E0,-9.326568604E0,-1.035263062E0
8.619938275E0,-5.192825317E0,-9.288284302E0,-1.095092773E0
8.624821087E0,-5.298110962E0,-9.127960205E0,-8.318786621E-1
8.629703900E0,-4.826736450E0,-9.060958862E0,-1.267364502E0
8.634586712E0,-4.458236694E0,-8.955673218E0,-1.576049805E0
8.639469525E0,-3.807388306E0,-8.929351807E0,-1.863189697E0
8.644352337E0,-3.261825562E0,-8.826461792E0,-2.025894165E0
8.649235150E0,-2.993820190E0,-8.690078735E0,-2.035461426E0
8.654117962E0,-2.338195801E0,-8.687683105E0,-2.013931274E0
8.659000775E0,-2.118057251E0,-8.680496216E0,-1.820114136E0
8.663883587E0,-1.457641602E0,-8.790573120E0,-1.844039917E0
8.668766400E0,-1.440887451E0,-8.869537354E0,-1.372650146E0
8.673649212E0,-9.048919678E-1,-9.048995972E0,-1.250625610E0
8.678532025E0,-1.607208252E-1,-9.307418823E0,-1.157302856E0
8.683414837E0,3.872375488E-1,-9.496459961E0,-9.706573486E-1
8.688297650E0,4.374847412E-1,-9.644805908E0,-8.175201416E-1
8.693180462E0,8.251190186E-1,-9.802734375E0,-7.840270996E-1
8.698063275E0,1.294113159E0,-9.955871582E0,-9.443359375E-1
8.702915570E0,1.851638794E0,-1.012815857E1,-1.406158447E0
8.707798382E0,2.167495728E0,-1.026693726E1,-1.611938477E0
8.712681195E0,2.540771484E0,-1.040333557E1,-1.889511108E0
8.717564007E0,2.617340088E0,-1.049665833E1,-1.915832520E0
8.722446820E0,2.952331543E0,-1.065458679E1,-2.238861084E0
8.727329632E0,3.002593994E0,-1.083644104E1,-2.506851196E0
8.732212445E0,2.775268555E0,-1.100393677E1,-2.877746582E0
8.737095257E0,2.746551514E0,-1.118339539E1,-3.282135010E0
8.741978070E0,2.002380371E0,-1.124320984E1,-3.586013794E0
8.746860882E0,1.210357666E0,-1.120971680E1,-3.581237793E0
8.751743695E0,3.513336182E-1,-1.114990234E1,-3.413726807E0
8.756626507E0,-4.670104980E-1,-1.099674988E1,-3.394592285E0
8.761509320E0,-1.110671997E0,-1.086276245E1,-3.050018311E0
8.766392132E0,-1.682556152E0,-1.077183533E1,-2.904067993E0
8.771274945E0,-2.070190430E0,-1.070960999E1,-2.815521240E0
8.776157757E0,-2.431518555E0,-1.070243835E1,-2.825103760E0
8.781040570E0,-2.666015625E0,-1.070243835E1,-2.820312500E0
8.785892865E0,-2.795227051E0,-1.074072266E1,-2.935165405E0
8.790775677E0,-2.840682983E0,-1.075268555E1,-3.239059448E0
8.795658490E0,-2.783264160E0,-1.078140259E1,-3.609939575E0
8.800541302E0,-2.673187256E0,-1.074789429E1,-3.808547974E0
8.805424115E0,-2.551147461E0,-1.068807983E1,-3.880340576E0
8.810306927E0,-2.634902954E0,-1.063304138E1,-4.021514893E0
8.815189740E0,-2.838287354E0,-1.050382996E1,-4.361297607E0
8.820072552E0,-3.101501465E0,-1.026933289E1,-4.803970337E0
8.824955365E0,-3.343185425E0,-1.002766418E1,-5.172454834E0
8.829838177E0,-3.376678467E0,-9.843414307E0,-5.194000244E0
8.834720990E0,-3.405395508E0,-9.759658813E0,-4.976242065E0
8.839603802E0,-3.498718262E0,-9.788375854E0,-4.571853638E0
8.844486615E0,-3.651855469E0,-9.922378540E0,-4.122009277E0
8.849369427E0,-3.718856812E0,-1.016644287E1,-3.662582397E0
8.854252240E0,-3.749954224E0,-1.040333557E1,-3.157699585E0
8.859135052E0,-3.788238525E0,-1.064022827E1,-2.674346924E0
8.864017865E0,-3.757141113E0,-1.078379822E1,-2.370468140E0
8.868900677E0,-3.647064209E0,-1.088908386E1,-2.272354126E0
8.873783490E0,-3.472396851E0,-1.092736816E1,-2.190994263E0
8.878635785E0,-3.273788452E0,-1.097042847E1,-2.126388550E0
8.883518597E0,-2.977081299E0,-1.097521973E1,-2.028289795E0
8.888401410E0,-2.680374146E0,-1.094889832E1,-1.784225464E0
8.893284222E0,-2.354949951E0,-1.089385986E1,-1.379837036E0
8.898167035E0,-2.211380005E0,-1.065219116E1,-8.223114014E-1
8.903049847E0,-2.278366089E0,-1.019515991E1,-3.222045898E-1
8.907932660E0,-2.115661621E0,-1.001091003E1,4.389953613E-2
8.912815472E0,-1.692138672E0,-9.874526978E0,2.066040039E-1
8.917698285E0,-1.314071655E0,-9.711807251E0,4.147796631E-1
8.922581097E0,-1.136993408E0,-9.604125977E0,5.152740479E-1
8.927463910E0,-1.060424805E0,-9.714202881E0,5.918579102E-1
8.932346722E0,-7.158660889E-1,-9.977416992E0,5.607452393E-1
8.937229535E0,-5.292205811E-1,-1.025019836E1,6.995239258E-1
8.942112347E0,-5.076904297E-1,-1.034829712E1,6.492767334E-1
8.946995160E0,-3.497619629E-1,-1.050862122E1,4.961395264E-1
8.951877972E0,-1.870422363E-1,-1.062347412E1,2.520751953E-1
8.956760785E0,-2.194213867E-2,-1.073832703E1,-1.666717529E-1
8.961613079E0,2.723693848E-1,-1.112835693E1,-5.040588379E-1
8.966495892E0,4.183349609E-1,-1.150402832E1,-1.353515625E0
8.971378704E0,7.653045654E-1,-1.204002380E1,-2.772460938E0
8.976261517E0,8.729705811E-1,-1.241091919E1,-4.181823730E0
8.981144329E0,6.983032227E-1,-1.288229370E1,-4.406753540E0
8.986027142E0,1.216278076E-1,-1.301390076E1,-4.500076294E0
8.990909954E0,-5.555419922E-1,-1.315507507E1,-4.476150513E0
8.995792767E0,-1.285354614E0,-1.329147339E1,-4.602966309E0
9.000675579E0,-2.290344238E0,-1.377722168E1,-4.028686523E0
9.005558392E0,-3.381469727E0,-1.425578308E1,-3.365875244E0
9.010441204E0,-4.565917969E0,-1.527273560E1,-2.382431030E0
9.015324017E0,-6.087753296E0,-1.640931702E1,-1.643051147E0
9.020206829E0,-8.085754395E0,-1.717741394E1,-6.404571533E-1
9.025089642E0,-1.025843811E1,-1.707931519E1,6.779937744E-1
9.029972454E0,-1.215354919E1,-1.593315125E1,2.077789307E0
9.034855267E0,-1.329254150E1,-1.338000488E1,3.154571533E0
9.039738079E0,-1.277330017E1,-1.104461670E1,3.633132935E0
9.044620892E0,-1.141656494E1,-9.601745605E0,3.757553101E0
9.049473187E0,-9.880371094E0,-8.953277588E0,4.169128418E0
9.054355999E0,-8.418350220E0,-8.702041626E0,5.018569946E0
9.059238812E0,-7.403793335E0,-8.565643311E0,5.604812622E0
9.064121624E0,-6.697921753E0,-8.678115845E0,5.592849731E0
9.069004437E0,-5.551757812E0,-8.795364380E0,5.202819824E0
9.073887249E0,-4.238098145E0,-8.670928955E0,4.425155640E0
9.078770062E0,-3.115859985E0,-8.551284790E0,3.657058716E0
9.083652874E0,-2.316665649E0,-8.417297363E0,2.692749023E0
9.088535687E0,-1.859634399E0,-8.122970581E0,1.276199341E0
9.093418499E0,-1.294921875E0,-8.132553101E0,-4.107360840E-1
9.098301312E0,-5.292205811E-1,-8.340728760E0,-1.997177124E0
9.103184124E0,9.051513672E-2,-8.431655884E0,-3.260589600E0
9.108066937E0,6.480560303E-1,-8.455581665E0,-4.311035156E0
9.112949749E0,8.921203613E-1,-8.443618774E0,-4.677139282E0
9.117832562E0,1.083541870E0,-8.546508789E0,-4.602966309E0
9.122715374E0,1.133789062E0,-8.723571777E0,-4.356506348E0
9.127598187E0,1.155334473E0,-8.874328613E0,-4.028686523E0
9.132480999E0,1.255828857E0,-8.917388916E0,-3.849227905E0
9.137333294E0,1.117050171E0,-8.867141724E0,-3.700866699E0
9.142216107E0,9.686889648E-1,-8.828857422E0,-3.444839478E0
9.147098919E0,7.150421143E-1,-8.752288818E0,-3.236663818E0
9.151981732E0,6.815490723E-1,-8.843215942E0,-3.021316528E0
9.156864544E0,6.097717285E-1,-8.859970093E0,-2.954315186E0
9.161747357E0,2.125549316E-1,-8.718780518E0,-2.925598145E0
9.166630169E0,-1.439819336E-1,-8.606323242E0,-2.904067993E0
9.171512982E0,-3.162536621E-1,-8.560867310E0,-2.877746582E0
9.176395794E0,-5.722961426E-1,-8.426864624E0,-2.887313843E0
9.181278607E0,-1.120239258E0,-8.235443115E0,-2.827499390E0
9.186161419E0,-1.376281738E0,-8.082290649E0,-2.786819458E0
9.191044232E0,-1.450454712E0,-7.938720703E0,-2.533172607E0
9.195927044E0,-1.591629028E0,-7.902832031E0,-2.112045288E0
9.200809857E0,-1.718444824E0,-7.831054688E0,-1.913436890E0
9.205692669E0,-1.751953125E0,-7.802337646E0,-1.698074341E0
9.210575482E0,-1.938598633E0,-7.754486084E0,-1.564086914E0
9.215458294E0,-2.180267334E0,-7.711410522E0,-1.470764160E0
9.220310589E0,-2.333404541E0,-7.728164673E0,-1.504257202E0
9.225193402E0,-2.366912842E0,-7.756866455E0,-1.698074341E0
9.230076214E0,-2.292724609E0,-7.816696167E0,-1.958892822E0
9.234959027E0,-2.161117554E0,-7.847793579E0,-2.257995605E0
9.239841839E0,-2.012771606E0,-7.840621948E0,-2.521209717E0
9.244724652E0,-1.897918701E0,-7.854980469E0,-2.693496704E0
9.249607464E0,-1.771087646E0,-7.914794922E0,-2.872955322E0
9.254490277E0,-1.689743042E0,-7.953079224E0,-3.100280762E0
9.259373089E0,-1.713668823E0,-7.967437744E0,-3.442443848E0
9.264255902E0,-1.739990234E0,-7.900436401E0,-3.861190796E0
9.269138714E0,-1.835693359E0,-7.773620605E0,-4.301467896E0
9.274021527E0,-1.972091675E0,-7.642013550E0,-4.727386475E0
9.278904339E0,-2.077377319E0,-7.393157959E0,-5.179641724E0
9.283787152E0,-2.242477417E0,-7.036636353E0,-5.627090454E0
9.288669964E0,-2.498519897E0,-6.634643555E0,-5.959701538E0
9.293552777E0,-2.744979858E0,-6.263748169E0,-5.909454346E0
9.298435589E0,-2.859832764E0,-5.950286865E0,-5.710845947E0
9.303318402E0,-3.065612793E0,-5.694259644E0,-5.497879028E0
9.308170697E0,-3.338394165E0,-5.586578369E0,-4.933181763E0
9.313053509E0,-3.608779907E0,-5.533935547E0,-4.454605103E0
9.317936322E0,-3.934204102E0,-5.399948120E0,-4.308654785E0
9.322819134E0,-4.185455322E0,-5.342514038E0,-4.413940430E0
9.327701947E0,-4.451049805E0,-5.440628052E0,-4.370864868E0
9.332584759E0,-4.946365356E0,-5.428649902E0,-4.555114746E0
9.337467572E0,-5.621139526E0,-5.397552490E0,-4.942749023E0
9.342350384E0,-6.336593628E0,-5.586578369E0,-5.167678833E0
9.347233197E0,-7.131011963E0,-5.840225220E0,-5.426101685E0
9.352116009E0,-8.030715942E0,-6.199142456E0,-5.627090454E0
9.356998822E0,-8.738998413E0,-6.759063721E0,-5.409347534E0
9.361881634E0,-9.325241089E0,-7.407516479E0,-4.981033325E0
9.366764447E0,-1.007658386E1,-7.967437744E0,-4.756103516E0
9.371647259E0,-1.070350647E1,-8.570434570E0,-4.354110718E0
9.376530072E0,-1.123948669E1,-9.123168945E0,-3.897079468E0
9.381412884E0,-1.158885193E1,-9.604125977E0,-3.717620850E0
9.386295697E0,-1.145964050E1,-9.936737061E0,-3.787017822E0
9.391178509E0,-1.073220825E1,-1.021669006E1,-3.990402222E0
9.396030804E0,-9.775085449E0,-1.045118713E1,-4.260787964E0
9.400913617E0,-8.894531250E0,-1.067611694E1,-4.559890747E0
9.405796429E0,-7.990036011E0,-1.083644104E1,-4.825500488E0
9.410679242E0,-7.064010620E0,-1.095846558E1,-5.014526367E0
9.415562054E0,-6.183456421E0,-1.105178833E1,-5.148529053E0
9.420444867E0,-5.374679565E0,-1.106135559E1,-5.126998901E0
9.425327679E0,-4.563522339E0,-1.100633240E1,-4.839859009E0
9.430210492E0,-3.965316772E0,-1.099914551E1,-4.251220703E0
9.435093304E0,-3.754745483E0,-1.126475525E1,-3.497482300E0
9.439976117E0,-4.132812500E0,-1.181271362E1,-2.829879761E0
9.444858929E0,-4.259628296E0,-1.239416504E1,-2.356109619E0
9.449741742E0,-4.041885376E0,-1.287751770E1,-2.047424316E0
9.454624554E0,-3.374282837E0,-1.321250916E1,-1.925399780E0
9.459507367E0,-2.553543091E0,-1.349246216E1,-1.820114136E0
9.464390179E0,-1.493530273E0,-1.355706787E1,-1.923004150E0
9.469272992E0,-3.736877441E-1,-1.330343628E1,-2.308242798E0
9.474155804E0,4.374847412E-1,-1.279855347E1,-3.054809570E0
9.479038617E0,8.490447998E-1,-1.223144531E1,-3.851623535E0
9.483890912E0,8.083648682E-1,-1.179835510E1,-4.471359253E0
9.488773724E0,3.034820557E-1,-1.154470825E1,-4.863784790E0
9.493656537E0,-4.598236084E-1,-1.148966980E1,-5.043243408E0
9.498539349E0,-1.498306274E0,-1.155189514E1,-5.119812012E0
9.503422162E0,-2.453048706E0,-1.182705688E1,-4.780029297E0
9.508304974E0,-3.252258301E0,-1.208070374E1,-3.923400879E0
9.513187787E0,-4.056243896E0,-1.233195496E1,-2.490097046E0
9.518070599E0,-4.695129395E0,-1.243244934E1,-6.883087158E-1
9.522953412E0,-4.989440918E0,-1.215010071E1,1.273803711E0
9.527836224E0,-4.903305054E0,-1.178877258E1,3.066024780E0
9.532719037E0,-4.099304199E0,-1.115707397E1,4.054260254E0
9.537601849E0,-2.993820190E0,-1.006834412E1,4.520874023E0
9.542484662E0,-2.134796143E0,-8.974822998E0,4.384475708E0
9.547367474E0,-1.670593262E0,-8.245010376E0,3.604415894E0
9.552250287E0,-1.481567383E0,-7.802337646E0,2.580291748E0
9.557133099E0,-1.445663452E0,-7.558273315E0,1.357559204E0
9.562015912E0,-1.507888794E0,-7.522369385E0,4.389953613E-2
9.566868206E0,-1.555740356E0,-7.723373413E0,-1.008941650E0
9.571751019E0,-1.613174438E0,-8.127761841E0,-1.628692627E0
9.576633831E0,-1.471984863E0,-8.565643311E0,-2.250823975E0
9.581516644E0,-1.318847656E0,-8.981994629E0,-2.683929443E0
9.586399456E0,-1.247070312E0,-9.391174316E0,-2.875350952E0
9.591282269E0,-1.031707764E0,-9.807525635E0,-2.860992432E0
9.596165081E0,-9.001007080E-1,-1.008030701E1,-2.573852539E0
9.601047894E0,-5.292205811E-1,-1.046076965E1,-2.671951294E0
9.605930706E0,-1.870422363E-1,-1.110922241E1,-3.093093872E0
9.610813519E0,5.223083496E-2,-1.172416687E1,-3.195983887E0
9.615696331E0,-9.979248047E-3,-1.206634521E1,-2.707855225E0
9.620579144E0,1.599121094E-1,-1.241809082E1,-2.980636597E0
9.625461956E0,9.051513672E-2,-1.245158386E1,-3.021316528E0
9.630344769E0,6.419372559E-2,-1.233433533E1,-2.731781006E0
9.635227581E0,-1.475524902E-2,-1.232237244E1,-2.234069824E0
9.640110394E0,-1.128692627E-1,-1.230323792E1,-1.798583984E0
9.644993206E0,-4.143676758E-1,-1.230084229E1,-1.166870117E0
9.649876019E0,-7.780761719E-1,-1.223144531E1,-8.079528809E-1
9.654758831E0,-1.249465942E0,-1.206634521E1,-7.840270996E-1
9.659611126E0,-1.661026001E0,-1.184620667E1,-8.390502930E-1
9.664493939E0,-1.943374634E0,-1.158538818E1,-9.515228271E-1
9.669376751E0,-2.000808716E0,-1.130064392E1,-1.063980103E0
9.674259564E0,-1.957733154E0,-1.096804810E1,-1.056808472E0
9.679142376E0,-1.828521729E0,-1.062586975E1,-1.150115967E0
9.684025189E0,-1.574890137E0,-1.033154297E1,-1.540145874E0
9.688908001E0,-1.582061768E0,-9.970230103E0,-1.556900024E0
9.693790814E0,-1.189636230E0,-9.625671387E0,-1.966079712E0
9.698673626E0,-8.498535156E-1,-9.257171631E0,-2.238861084E0
9.703556439E0,-6.488647461E-1,-8.922180176E0,-2.403961182E0
9.708439251E0,-3.736877441E-1,-8.601531982E0,-2.636062622E0
9.713322064E0,-3.066864014E-1,-8.295257568E0,-2.399169922E0
9.718204876E0,-8.894348145E-2,-8.089477539E0,-2.451812744E0
9.723087689E0,-6.501770020E-2,-7.936340332E0,-2.420715332E0
9.727970501E0,-9.979248047E-3,-7.869338989E0,-2.420715332E0
9.732853314E0,8.813476562E-2,-7.826263428E0,-2.324996948E0
9.737736126E0,6.181335449E-2,-7.811904907E0,-2.214935303E0
9.742588421E0,7.617187500E-2,-7.893264771E0,-2.207748413E0
9.747471234E0,1.394653320E-2,-7.953079224E0,-2.169464111E0
9.752354046E0,-1.583251953E-1,-7.974624634E0,-3.708053589E0
9.757236859E0,-5.579376221E-1,-8.118194580E0,-2.872955322E0
9.762119671E0,-9.360046387E-1,-8.266540527E0,-2.030685425E0
9.767002484E0,-1.029312134E0,-8.649398804E0,-1.786621094E0
9.771885296E0,-9.838562012E-1,-8.977218628E0,-1.846435547E0
9.776768109E0,-1.168106079E0,-9.202133179E0,-1.879928589E0
9.781650921E0,-1.404998779E0,-9.415100098E0,-2.131179810E0
9.786533734E0,-1.529418945E0,-9.630447388E0,-2.403961182E0
9.791416546E0,-1.663421631E0,-9.795562744E0,-2.959091187E0
9.796299359E0,-1.960128784E0,-9.869735718E0,-2.901672363E0
9.801182171E0,-2.266403198E0,-9.864944458E0,-2.990203857E0
9.806064984E0,-2.512863159E0,-9.795562744E0,-2.782028198E0
9.810947796E0,-2.697113037E0,-9.642410278E0,-2.564285278E0
9.815830609E0,-2.706695557E0,-9.544311523E0,-2.353713989E0
9.820713421E0,-2.780868530E0,-9.395950317E0,-2.418319702E0
9.825596234E0,-2.910079956E0,-9.230850220E0,-2.391998291E0
9.830448529E0,-2.809585571E0,-9.058563232E0,-2.217315674E0
9.835331341E0,-2.768905640E0,-8.907821655E0,-2.207748413E0
9.840214154E0,-2.759323120E0,-8.764251709E0,-2.090499878E0
9.845096966E0,-2.733001709E0,-8.670928955E0,-2.097686768E0
