"Time (s)","Gyroscope x (rad/s)","Gyroscope y (rad/s)","Gyroscope z (rad/s)"
6.495645900E-2,-1.380670071E-1,2.218200080E-2,-9.610000253E-2
6.745166700E-2,-1.401969939E-1,2.111699991E-2,-8.438500017E-2
6.994489600E-2,-1.540420055E-1,4.077000078E-3,-8.651500195E-2
7.246010500E-2,-1.700170040E-1,-7.637999952E-3,-8.225499839E-2
7.494208400E-2,-1.870570034E-1,-1.828799956E-2,-7.799500227E-2
7.743359400E-2,-1.966419965E-1,-3.319799900E-2,-7.479999959E-2
7.995906300E-2,-2.051620036E-1,-4.278299958E-2,-7.479999959E-2
8.242953200E-2,-2.094220072E-1,-5.449799821E-2,-7.586500049E-2
8.495885500E-2,-2.072920054E-1,-6.834299862E-2,-7.373499870E-2
8.744552100E-2,-2.030320019E-1,-7.686299831E-2,-7.160499692E-2
8.994104200E-2,-2.009020001E-1,-8.644799888E-2,-7.266999781E-2
9.241979200E-2,-2.030320019E-1,-9.496799856E-2,-7.160499692E-2
9.493536500E-2,-1.934469938E-1,-9.922800213E-2,-7.373499870E-2
9.745734400E-2,-1.806669980E-1,-1.077480018E-1,-7.906000316E-2
9.993338600E-2,-1.678870022E-1,-1.088130027E-1,-8.012499660E-2
1.024170320E-1,-1.519120038E-1,-1.130729988E-1,-8.331999928E-2
1.049466150E-1,-1.327420026E-1,-1.141379997E-1,-8.864499629E-2
1.074420840E-1,-1.146370023E-1,-1.109429970E-1,-9.290499985E-2
1.099310940E-1,-9.546700120E-2,-1.077480018E-1,-9.610000253E-2
1.124426570E-1,-7.203699648E-2,-1.013579965E-1,-9.716500342E-2
1.149292710E-1,-4.754199833E-2,-9.390299767E-2,-1.035550013E-1
1.174160420E-1,-2.517700009E-2,-8.325300366E-2,-1.056850031E-1
1.199243750E-1,-6.820000126E-4,-6.834299862E-2,-1.035550013E-1
1.224162500E-1,2.274800092E-2,-5.556299910E-2,-1.035550013E-1
1.249300530E-1,4.298299924E-2,-4.491300136E-2,-1.056850031E-1
1.274294280E-1,6.960800290E-2,-3.213300183E-2,-1.014249995E-1
1.299240630E-1,9.516800195E-2,-1.828799956E-2,-1.024900004E-1
1.324030210E-1,1.185979992E-1,-3.378000110E-3,-1.003599986E-1
1.349295840E-1,1.430930048E-1,9.402000345E-3,-9.610000253E-2
1.374296880E-1,1.611980051E-1,2.111699991E-2,-9.290499985E-2
1.399113030E-1,1.814330071E-1,3.496199846E-2,-8.758000284E-2
1.424111980E-1,1.974080056E-1,4.987199977E-2,-8.225499839E-2
1.449250530E-1,2.176429927E-1,6.371700019E-2,-8.118999749E-2
1.474249480E-1,2.325530052E-1,7.649700344E-2,-7.373499870E-2
1.499218230E-1,2.485280037E-1,9.779699892E-2,-6.841000170E-2
1.523901570E-1,2.591780126E-1,1.105770022E-1,-6.095499918E-2
1.549266150E-1,2.698279917E-1,1.244219989E-1,-5.030500144E-2
1.573909900E-1,2.804780006E-1,1.372019947E-1,-4.284999892E-2
1.599095840E-1,2.889980078E-1,1.510470062E-1,-3.326499835E-2
1.624039070E-1,2.943229973E-1,1.595669985E-1,-2.154999971E-2
1.649157300E-1,2.964529991E-1,1.670220047E-1,-8.770000190E-3
1.674109380E-1,2.975179851E-1,1.787369996E-1,-2.500000119E-4
1.698881250E-1,2.932580113E-1,1.883219928E-1,1.040000003E-2
1.724064070E-1,2.868680060E-1,1.957769990E-1,2.318000048E-2
1.748890630E-1,2.847380042E-1,2.011020035E-1,3.915499896E-2
1.774043230E-1,2.730230093E-1,2.032320052E-1,5.299999937E-2
1.799249480E-1,2.655679882E-1,2.106869966E-1,6.577999890E-2
1.823820840E-1,2.559829950E-1,2.160120010E-1,7.856000215E-2
1.849325530E-1,2.410729975E-1,2.170770019E-1,9.240499884E-2
1.873920840E-1,2.325530052E-1,2.255969942E-1,1.041200012E-1
1.899260940E-1,2.219029963E-1,2.319869995E-1,1.147700027E-1
1.923803130E-1,2.027329952E-1,2.341170013E-1,1.296799928E-1
1.949242710E-1,1.888879985E-1,2.319869995E-1,1.339399964E-1
1.973736460E-1,1.793030053E-1,2.298569977E-1,1.424600035E-1
1.999261980E-1,1.654579937E-1,2.341170013E-1,1.520449966E-1
2.023960940E-1,1.494829953E-1,2.362470031E-1,1.605650038E-1
2.049318750E-1,1.430930048E-1,2.330520004E-1,1.648250073E-1
2.073642710E-1,1.356379986E-1,2.351820022E-1,1.712149978E-1
2.099271360E-1,1.175329983E-1,2.298569977E-1,1.722799987E-1
2.123610420E-1,1.090129986E-1,2.255969942E-1,1.722799987E-1
2.149260420E-1,9.942799807E-2,2.213370055E-1,1.733449996E-1
2.173527610E-1,9.303800017E-2,2.202720046E-1,1.690849960E-1
2.199269280E-1,8.771300316E-2,2.181420028E-1,1.658899933E-1
2.223686980E-1,8.025799692E-2,2.149470001E-1,1.584350020E-1
2.249253650E-1,7.493299991E-2,2.106869966E-1,1.509799957E-1
2.273525530E-1,6.854300201E-2,2.138819993E-1,1.488499939E-1
2.299227610E-1,6.428299844E-2,2.117519975E-1,1.467200071E-1
2.323469280E-1,5.576299876E-2,2.106869966E-1,1.424600035E-1
2.349252090E-1,5.256799981E-2,2.096219957E-1,1.381999999E-1
2.373435940E-1,5.256799981E-2,2.128169984E-1,1.350049973E-1
2.399264070E-1,4.830799997E-2,2.149470001E-1,1.328749955E-1
2.423528130E-1,4.298299924E-2,2.202720046E-1,1.339399964E-1
2.449256780E-1,3.872299939E-2,2.341170013E-1,1.328749955E-1
2.473390630E-1,3.126800060E-2,2.490269989E-1,1.350049973E-1
2.499281780E-1,2.594299987E-2,2.650020123E-1,1.360699981E-1
2.523376570E-1,1.848799922E-2,2.820419967E-1,1.392650008E-1
2.549190630E-1,1.422800031E-2,3.076019883E-1,1.392650008E-1
2.573358340E-1,3.578000003E-3,3.320969939E-1,1.413950026E-1
2.599206250E-1,-2.811999992E-3,3.587220013E-1,1.424600035E-1
2.623442710E-1,-1.452699956E-2,3.789570034E-1,1.456550062E-1
2.649273960E-1,-2.304700017E-2,4.013220072E-1,1.499149948E-1
2.673293750E-1,-3.050200082E-2,4.247519970E-1,1.573700011E-1
2.699093230E-1,-3.689200059E-2,4.460520148E-1,1.712149978E-1
2.723236460E-1,-3.476199880E-2,4.694820046E-1,1.903849989E-1
2.749219280E-1,-3.689200059E-2,4.950419962E-1,2.106200010E-1
2.773290630E-1,-3.902199864E-2,5.195369720E-1,2.297900021E-1
2.799097400E-1,-3.902199864E-2,5.504220128E-1,2.564150095E-1
2.823387500E-1,-4.115200043E-2,5.813069940E-1,2.841050029E-1
2.848190110E-1,-3.795700148E-2,6.175169945E-1,3.117949963E-1
2.873309380E-1,-3.263200074E-2,6.505320072E-1,3.416149914E-1
2.898188550E-1,-2.943699993E-2,6.878070235E-1,3.725000024E-1
2.923155730E-1,-2.730700001E-2,7.240170240E-1,4.055149853E-1
2.948109380E-1,-2.198199928E-2,7.655519843E-1,4.406599998E-1
2.973106780E-1,-1.133199967E-2,8.070870042E-1,4.704799950E-1
2.998142190E-1,-6.820000126E-4,8.475570083E-1,5.024300218E-1
3.023206780E-1,1.209800038E-2,8.912220001E-1,5.354449749E-1
3.048067190E-1,2.594299987E-2,9.306269884E-1,5.641999841E-1
3.073143230E-1,4.085300118E-2,9.689670205E-1,5.918899775E-1
3.099422400E-1,5.363300070E-2,1.009436965E0,6.238399744E-1
3.123191150E-1,7.280299813E-2,1.045647025E0,6.547250152E-1
3.149309900E-1,9.197299927E-2,1.087182045E0,6.824150085E-1
3.173195840E-1,1.079479977E-1,1.127652049E0,7.090399861E-1
3.199351570E-1,1.335079968E-1,1.167057037E0,7.335349917E-1
3.223281780E-1,1.548079997E-1,1.208592057E0,7.559000254E-1
3.249318230E-1,1.697179973E-1,1.253322005E0,7.718750238E-1
3.273152610E-1,1.888879985E-1,1.292726994E0,7.921100259E-1
3.299241150E-1,2.069929987E-1,1.327872038E0,8.048899770E-1
3.323147400E-1,2.229679972E-1,1.357692003E0,8.134099841E-1
3.348202090E-1,2.304230034E-1,1.382187009E0,8.155400157E-1
3.373234380E-1,2.421379983E-1,1.409876943E0,8.176699877E-1
3.399264070E-1,2.485280037E-1,1.423722029E0,8.176699877E-1
3.423245840E-1,2.517229915E-1,1.437566996E0,8.166049719E-1
3.448204170E-1,2.559829950E-1,1.445021987E0,8.112800121E-1
3.473080210E-1,2.613080144E-1,1.445021987E0,8.016949892E-1
3.498176050E-1,2.613080144E-1,1.439697027E0,7.921100259E-1
3.523029170E-1,2.613080144E-1,1.437566996E0,7.825250030E-1
3.548026050E-1,2.634379864E-1,1.433307052E0,7.697449923E-1
3.573023960E-1,2.623730004E-1,1.426916957E0,7.590950131E-1
3.597967190E-1,2.676979899E-1,1.416267037E0,7.484449744E-1
3.623123440E-1,2.666330040E-1,1.407747030E0,7.346000075E-1
3.648004170E-1,2.613080144E-1,1.397096992E0,7.250149846E-1
3.673015110E-1,2.570480108E-1,1.386446953E0,7.186250091E-1
3.697959380E-1,2.591780126E-1,1.378991961E0,7.079749703E-1
3.722949480E-1,2.570480108E-1,1.369407058E0,6.973249912E-1
3.747967190E-1,2.527880073E-1,1.357692003E0,6.888049841E-1
3.772957300E-1,2.506580055E-1,1.348106980E0,6.781550050E-1
3.797895840E-1,2.495930046E-1,1.338521957E0,6.728299856E-1
3.822765110E-1,2.474630028E-1,1.321481943E0,6.611149907E-1
3.847882820E-1,2.453330010E-1,1.307636976E0,6.493999958E-1
3.872960420E-1,2.442680001E-1,1.286337018E0,6.387500167E-1
3.897886980E-1,2.400079966E-1,1.268231988E0,6.270350218E-1
3.922827610E-1,2.378779948E-1,1.246932030E0,6.099950075E-1
3.947806780E-1,2.378779948E-1,1.220306993E0,5.972149968E-1
3.972833860E-1,2.378779948E-1,1.187291980E0,5.844349861E-1
3.997782300E-1,2.357479930E-1,1.153211951E0,5.705900192E-1
4.022944280E-1,2.336180061E-1,1.115936995E0,5.503550172E-1
4.047778130E-1,2.314880043E-1,1.079727054E0,5.290549994E-1
4.072835940E-1,2.314880043E-1,1.044582009E0,5.098850131E-1
4.097750530E-1,2.293580025E-1,1.001981974E0,4.853900075E-1
4.122837500E-1,2.304230034E-1,9.668369889E-1,4.619599879E-1
4.147729690E-1,2.304230034E-1,9.316920042E-1,4.385299981E-1
4.172765110E-1,2.250979990E-1,8.976119757E-1,4.087100029E-1
4.197690630E-1,2.229679972E-1,8.667269945E-1,3.842149973E-1
4.222787500E-1,2.187079936E-1,8.411669731E-1,3.554599881E-1
4.247660940E-1,2.155130059E-1,8.166720271E-1,3.245750070E-1
4.272666150E-1,2.155130059E-1,7.932419777E-1,2.990149856E-1
4.297618750E-1,2.059279978E-1,7.730069757E-1,2.734549940E-1
4.322676570E-1,1.995380074E-1,7.612919807E-1,2.436349988E-1
4.347611460E-1,1.899529994E-1,7.463819981E-1,2.159450054E-1
4.372628650E-1,1.803680062E-1,7.378619909E-1,1.893199980E-1
4.397622920E-1,1.643929929E-1,7.272120118E-1,1.648250073E-1
4.422670840E-1,1.537429988E-1,7.208219767E-1,1.403300017E-1
4.447617710E-1,1.367029995E-1,7.123020291E-1,1.179649979E-1
4.472567190E-1,1.185979992E-1,7.037820220E-1,9.560000151E-2
4.497533340E-1,1.004929990E-1,7.005869746E-1,7.323499769E-2
4.522549480E-1,8.238799870E-2,6.931319833E-1,5.513000116E-2
4.547512500E-1,6.002299860E-2,6.846119761E-1,3.915499896E-2
4.572512500E-1,3.872299939E-2,6.782220006E-1,2.318000048E-2
4.597511980E-1,1.742300019E-2,6.728969812E-1,8.270000108E-3
4.622555210E-1,-8.136999793E-3,6.665070057E-1,-5.574999843E-3
4.647523960E-1,-2.624199912E-2,6.622470021E-1,-1.941999979E-2
4.672480210E-1,-4.754199833E-2,6.601169705E-1,-2.474500053E-2
4.697659900E-1,-7.310199738E-2,6.558570266E-1,-3.326499835E-2
4.722497400E-1,-9.759700298E-2,6.515970230E-1,-3.858999908E-2
4.747527090E-1,-1.231570020E-1,6.462720037E-1,-3.965499997E-2
4.772419280E-1,-1.455219984E-1,6.388170123E-1,-4.178500175E-2
4.797364590E-1,-1.689520031E-1,6.313620210E-1,-4.391499981E-2
4.822452610E-1,-1.881220043E-1,6.207119823E-1,-4.817499965E-2
4.847326050E-1,-2.094220072E-1,6.047369838E-1,-4.924000055E-2
4.872393750E-1,-2.285919935E-1,5.834370255E-1,-4.391499981E-2
4.897401050E-1,-2.466969937E-1,5.610719919E-1,-3.752499819E-2
4.922347920E-1,-2.648020089E-1,5.312520266E-1,-3.113500029E-2
4.947292710E-1,-2.775819898E-1,4.950419962E-1,-1.515999995E-2
4.972316150E-1,-2.935569882E-1,4.641569853E-1,6.140000187E-3
4.997205210E-1,-3.031420112E-1,4.343369901E-1,2.211499959E-2
5.022317190E-1,-3.148570061E-1,4.034520090E-1,3.915499896E-2
5.047188550E-1,-3.201819956E-1,3.736320138E-1,6.151999906E-2
5.072226570E-1,-3.244419992E-1,3.416819870E-1,7.643000036E-2
5.097118750E-1,-3.276369870E-1,3.171870112E-1,9.773000330E-2
5.122179170E-1,-3.265720010E-1,3.001469970E-1,1.147700027E-1
5.147099480E-1,-3.276369870E-1,2.863020003E-1,1.318099946E-1
5.172188550E-1,-3.287020028E-1,2.650020123E-1,1.445900053E-1
5.197094280E-1,-3.318969905E-1,2.543520033E-1,1.573700011E-1
5.222217710E-1,-3.329620063E-1,2.458319962E-1,1.626950055E-1
5.247055730E-1,-3.297669888E-1,2.426369935E-1,1.669549942E-1
5.272134380E-1,-3.329620063E-1,2.426369935E-1,1.701499969E-1
5.297037500E-1,-3.350920081E-1,2.447669953E-1,1.712149978E-1
5.322109900E-1,-3.393520117E-1,2.458319962E-1,1.680199951E-1
5.347026050E-1,-3.436119854E-1,2.447669953E-1,1.595000029E-1
5.372286980E-1,-3.425469995E-1,2.405070066E-1,1.499149948E-1
5.396983340E-1,-3.457419872E-1,2.394420058E-1,1.403300017E-1
5.422097400E-1,-3.510670066E-1,2.532869875E-1,1.232900023E-1
5.446943230E-1,-3.563919961E-1,2.639369965E-1,1.030550003E-1
5.471986980E-1,-3.627820015E-1,2.692619860E-1,7.962500304E-2
5.496879690E-1,-3.649120033E-1,2.703270018E-1,6.471499801E-2
5.521956250E-1,-3.713020086E-1,2.639369965E-1,4.661000147E-2
5.546844800E-1,-3.713020086E-1,2.586120069E-1,3.063499928E-2
5.571978130E-1,-3.755620122E-1,2.575469911E-1,1.679000072E-2
5.596867710E-1,-3.755620122E-1,2.618069947E-1,5.075000226E-3
5.621954690E-1,-3.734320104E-1,2.650020123E-1,-4.509999882E-3
5.646823960E-1,-3.713020086E-1,2.767170072E-1,-9.835000150E-3
5.671878650E-1,-3.670420051E-1,2.937569916E-1,-1.303000003E-2
5.696808340E-1,-3.627820015E-1,3.129270077E-1,-1.303000003E-2
5.721848960E-1,-3.563919961E-1,3.384869993E-1,-1.090000011E-2
5.746825530E-1,-3.468070030E-1,3.597869873E-1,-4.509999882E-3
5.771845840E-1,-3.414820135E-1,3.789570034E-1,5.075000226E-3
5.796730210E-1,-3.340269923E-1,3.959969878E-1,1.572499983E-2
5.821852610E-1,-3.223119974E-1,4.098420143E-1,3.063499928E-2
5.846725530E-1,-3.169870079E-1,4.215570092E-1,4.554500058E-2
5.871766150E-1,-3.095319867E-1,4.258170128E-1,5.832500011E-2
5.896685420E-1,-3.020769954E-1,4.236870110E-1,7.216999680E-2
5.921749480E-1,-2.861019969E-1,4.204919934E-1,8.388499916E-2
5.946657300E-1,-2.861019969E-1,4.066469967E-1,9.879499674E-2
5.971751570E-1,-2.839719951E-1,4.045169950E-1,1.041200012E-1
5.996705210E-1,-2.733219862E-1,4.055820107E-1,1.094449982E-1
6.021767190E-1,-2.658669949E-1,4.098420143E-1,1.168999970E-1
6.046628650E-1,-2.637369931E-1,4.066469967E-1,1.094449982E-1
6.071828650E-1,-2.562820017E-1,4.109070003E-1,1.062500030E-1
6.096783340E-1,-2.477619946E-1,4.183619916E-1,9.666500241E-2
6.121543230E-1,-2.392420024E-1,4.226219952E-1,8.495000005E-2
6.146772920E-1,-2.296569943E-1,4.279470146E-1,6.897500157E-2
6.171846880E-1,-2.190070003E-1,4.354020059E-1,5.725999922E-2
6.196718750E-1,-2.072920054E-1,4.375320077E-1,4.235000163E-2
6.221946360E-1,-1.977069974E-1,4.375320077E-1,2.850499935E-2
6.246662500E-1,-1.870570034E-1,4.375320077E-1,1.359499991E-2
6.271797920E-1,-1.785369962E-1,4.396620095E-1,4.009999800E-3
6.296679690E-1,-1.700170040E-1,4.343369901E-1,-9.835000150E-3
6.321446880E-1,-1.593669951E-1,4.247519970E-1,-2.261500061E-2
6.346635940E-1,-1.476520002E-1,4.162319899E-1,-3.646000102E-2
6.371420320E-1,-1.370020062E-1,4.034520090E-1,-4.710999876E-2
6.396632820E-1,-1.284819990E-1,3.906719983E-1,-5.562999845E-2
6.421783340E-1,-1.199619994E-1,3.746969998E-1,-6.521499902E-2
6.446578650E-1,-1.050520018E-1,3.651120067E-1,-7.373499870E-2
6.471727610E-1,-9.653200209E-2,3.576569855E-1,-8.118999749E-2
6.496564070E-1,-8.694700152E-2,3.512670100E-1,-9.077499807E-2
6.521421360E-1,-7.629700005E-2,3.438119888E-1,-9.716500342E-2
6.546531250E-1,-6.458199769E-2,3.384869993E-1,-9.929499775E-2
6.571353650E-1,-5.606200173E-2,3.320969939E-1,-1.046200022E-1
6.596502610E-1,-4.221700132E-2,3.225120008E-1,-1.099449992E-1
6.621395840E-1,-2.730700001E-2,3.129270077E-1,-1.142050028E-1
6.646525530E-1,-1.559200045E-2,2.980169952E-1,-1.195299998E-1
6.671338550E-1,3.830000060E-4,2.873669863E-1,-1.259199977E-1
6.696479170E-1,1.529300027E-2,2.735219896E-1,-1.323100030E-1
6.721319800E-1,3.126800060E-2,2.532869875E-1,-1.386999935E-1
6.746530730E-1,4.191799834E-2,2.351820022E-1,-1.450899988E-1
6.771309380E-1,6.108799949E-2,2.170770019E-1,-1.578699946E-1
6.796396880E-1,7.493299991E-2,1.957769990E-1,-1.717150062E-1
6.821414070E-1,8.877799660E-2,1.755419970E-1,-1.866250038E-1
6.846376050E-1,1.090129986E-1,1.531769931E-1,-2.036650032E-1
6.871340630E-1,1.281830072E-1,1.403969973E-1,-2.185750008E-1
6.896384900E-1,1.409630030E-1,1.212270036E-1,-2.388100028E-1
6.921304170E-1,1.590680033E-1,1.084470004E-1,-2.654350102E-1
6.946338550E-1,1.761080027E-1,9.247200191E-2,-2.941899896E-1
6.971306780E-1,1.974080056E-1,7.649700344E-2,-3.272050023E-1
6.996349480E-1,2.176429927E-1,7.010699809E-2,-3.644799888E-1
7.021421360E-1,2.453330010E-1,6.052200124E-2,-4.006899893E-1
7.046284900E-1,2.687630057E-1,5.413199961E-2,-4.443550110E-1
7.071326050E-1,2.932580113E-1,5.200200155E-2,-4.826950133E-1
7.096260940E-1,3.230780065E-1,4.987199977E-2,-5.220999718E-1
7.121281780E-1,3.550280035E-1,4.561199993E-2,-5.604400039E-1
7.146286460E-1,3.880429864E-1,4.028699920E-2,-6.009100080E-1
7.171286460E-1,4.199930131E-1,3.283200040E-2,-6.349899769E-1
7.196221360E-1,4.540730119E-1,2.324699983E-2,-6.680049896E-1
7.221339070E-1,4.849579930E-1,5.142000038E-3,-6.946300268E-1
7.246178650E-1,5.105180144E-1,-1.722300053E-2,-7.127349973E-1
7.271283860E-1,5.382080078E-1,-5.343300104E-2,-7.265800238E-1
7.296179690E-1,5.605729818E-1,-8.751299977E-2,-7.340350151E-1
7.321206250E-1,5.808079839E-1,-1.183980033E-1,-7.361649871E-1
7.346119280E-1,6.010429859E-1,-1.386329979E-1,-7.340350151E-1
7.371166670E-1,6.138229966E-1,-1.503479928E-1,-7.287099957E-1
7.396108860E-1,6.266030073E-1,-1.652580053E-1,-7.265800238E-1
7.421232300E-1,6.351230145E-1,-1.737779975E-1,-7.212550044E-1
7.446078650E-1,6.340579987E-1,-1.780380011E-1,-7.169950008E-1
7.471156250E-1,6.202129722E-1,-1.822980046E-1,-7.127349973E-1
7.496007300E-1,6.010429859E-1,-1.876229942E-1,-7.063450217E-1
7.521166670E-1,5.722879767E-1,-1.854930073E-1,-7.042149901E-1
7.546046360E-1,5.328829885E-1,-1.822980046E-1,-7.052800059E-1
7.571161460E-1,4.828279912E-1,-1.716479957E-1,-7.063450217E-1
7.595977610E-1,4.317080081E-1,-1.503479928E-1,-7.127349973E-1
7.621163550E-1,3.816530108E-1,-1.311780065E-1,-7.148650289E-1
7.645990110E-1,3.315980136E-1,-1.120079979E-1,-7.159299850E-1
7.670847400E-1,2.889980078E-1,-9.603299946E-2,-7.159299850E-1
7.695939590E-1,2.506580055E-1,-8.751299977E-2,-7.148650289E-1
7.720812500E-1,2.165780067E-1,-6.301800162E-2,-7.159299850E-1
7.745955730E-1,1.835629940E-1,-3.639300168E-2,-7.159299850E-1
7.770803130E-1,1.537429988E-1,-2.254799940E-2,-7.138000131E-1
7.795860420E-1,1.324429959E-1,3.011999885E-3,-7.191249728E-1
7.820779170E-1,1.079479977E-1,2.537699975E-2,-7.265800238E-1
7.845848960E-1,8.877799660E-2,4.774200171E-2,-7.276449800E-1
7.870792710E-1,7.067299634E-2,6.691200286E-2,-7.350999713E-1
7.895825530E-1,5.363300070E-2,7.117199898E-2,-7.350999713E-1
7.920772920E-1,4.085300118E-2,6.158699840E-2,-7.361649871E-1
7.945773440E-1,2.168300003E-2,4.028699920E-2,-7.340350151E-1
7.970757820E-1,5.708000157E-3,2.111699991E-2,-7.265800238E-1
7.995777610E-1,-1.026699971E-2,7.271999959E-3,-7.255150080E-1
8.020835420E-1,-2.624199912E-2,-9.767999873E-3,-7.169950008E-1
8.045742710E-1,-4.008699954E-2,-2.787300013E-2,-7.074099779E-1
8.070720840E-1,-5.712699890E-2,-4.597799852E-2,-7.020850182E-1
8.095690630E-1,-8.375199884E-2,-6.088799983E-2,-6.871749759E-1
8.120664590E-1,-1.071820036E-1,-6.940799952E-2,-6.743950248E-1
8.145654690E-1,-1.316770017E-1,-7.366800308E-2,-6.626799703E-1
8.170662500E-1,-1.689520031E-1,-7.260300219E-2,-6.424450278E-1
8.195600530E-1,-1.998369992E-1,-7.153800130E-2,-6.222100258E-1
8.220668230E-1,-2.307219952E-1,-5.449799821E-2,-5.977150202E-1
8.245588550E-1,-2.605420053E-1,-3.319799900E-2,-5.732200146E-1
8.270685420E-1,-2.967520058E-1,-1.189799979E-2,-5.476599932E-1
8.295547920E-1,-3.372220099E-1,1.947000041E-3,-5.231649876E-1
8.320671880E-1,-3.776920140E-1,1.579199918E-2,-5.029299855E-1
8.345516670E-1,-4.128369987E-1,3.496199846E-2,-4.869549870E-1
8.370667710E-1,-4.543719888E-1,5.306699872E-2,-4.752399921E-1
8.395516670E-1,-5.001670122E-1,7.223699987E-2,-4.677850008E-1
8.420666670E-1,-5.331820250E-1,8.927699924E-2,-4.688499868E-1
8.445475530E-1,-5.672619939E-1,9.566699713E-2,-4.763050079E-1
8.470666670E-1,-6.024069786E-1,8.927699924E-2,-4.922800064E-1
8.495459900E-1,-6.269019842E-1,9.673199803E-2,-5.178400278E-1
8.520692710E-1,-6.428769827E-1,1.212270036E-1,-5.540500283E-1
8.545431780E-1,-6.428769827E-1,1.510470062E-1,-5.955849886E-1
8.570373960E-1,-6.332920194E-1,1.861920059E-1,-6.467049718E-1
8.595395320E-1,-6.194469929E-1,2.277269959E-1,-7.042149901E-1
8.620292710E-1,-5.992119908E-1,2.586120069E-1,-7.691799998E-1
8.645394280E-1,-5.661969781E-1,2.852370143E-1,-8.362749815E-1
8.670273960E-1,-5.246620178E-1,3.246420026E-1,-9.065650105E-1
8.695471880E-1,-4.841920137E-1,3.715020120E-1,-9.789850116E-1
8.720311460E-1,-4.298770130E-1,4.194270074E-1,-1.053534985E0
8.745385940E-1,-3.670420051E-1,4.620270133E-1,-1.124889970E0
8.770302090E-1,-3.074020147E-1,5.003669858E-1,-1.187724948E0
8.795330210E-1,-2.498919964E-1,5.291219950E-1,-1.245234966E0
8.820310420E-1,-1.923819929E-1,5.365769863E-1,-1.292094946E0
8.845261460E-1,-1.380670071E-1,5.291219950E-1,-1.319784999E0
8.870330730E-1,-9.333699942E-2,5.195369720E-1,-1.342149973E0
8.895256780E-1,-4.754199833E-2,5.131469965E-1,-1.351734996E0
8.920282300E-1,-1.346199960E-2,5.056920052E-1,-1.354930043E0
8.945249480E-1,1.742300019E-2,5.078219771E-1,-1.353865027E0
8.970267710E-1,4.404800013E-2,5.078219771E-1,-1.349604964E0
8.995170320E-1,6.960800290E-2,4.993019998E-1,-1.342149973E0
9.020298960E-1,9.516800195E-2,4.897170067E-1,-1.337890029E0
9.045151570E-1,1.260530055E-1,4.726769924E-1,-1.335759997E0
9.070343750E-1,1.622630060E-1,4.535070062E-1,-1.334694982E0
9.095127610E-1,1.984730065E-1,4.322069883E-1,-1.337890029E0
9.120278650E-1,2.346830070E-1,4.204919934E-1,-1.342149973E0
9.145132820E-1,2.730230093E-1,4.183619916E-1,-1.353865027E0
9.170311460E-1,3.007130027E-1,4.300769866E-1,-1.366644979E0
9.195117190E-1,3.230780065E-1,4.588319957E-1,-1.385815024E0
9.220291150E-1,3.326629996E-1,5.046269894E-1,-1.402855039E0
9.245064070E-1,3.379879892E-1,5.546820164E-1,-1.425220013E0
9.270270840E-1,3.411830068E-1,6.185820103E-1,-1.449715018E0
9.295035420E-1,3.326629996E-1,6.931319833E-1,-1.475275040E0
9.320290110E-1,3.188180029E-1,7.730069757E-1,-1.507225037E0
9.345029690E-1,3.124279976E-1,8.741819859E-1,-1.541304946E0
9.370557820E-1,3.039079905E-1,9.838770032E-1,-1.584969997E0
9.395040110E-1,2.868680060E-1,1.096766949E0,-1.640349984E0
9.419891670E-1,2.751530111E-1,1.220306993E0,-1.705314994E0
9.444976570E-1,2.666330040E-1,1.350237012E0,-1.774539948E0
9.469905210E-1,2.527880073E-1,1.484426975E0,-1.846959949E0
9.494916670E-1,2.325530052E-1,1.621811986E0,-1.924705029E0
9.519828130E-1,2.133830041E-1,1.764521956E0,-2.010970116E0
9.544989590E-1,1.974080056E-1,1.909361959E0,-2.090845108E0
9.569956780E-1,1.793030053E-1,2.051007032E0,-2.173914909E0
9.594868750E-1,1.590680033E-1,2.191586971E0,-2.253789902E0
9.619747400E-1,1.462879926E-1,2.320451975E0,-2.331535101E0
9.644880730E-1,1.271180063E-1,2.439732075E0,-2.403954983E0
9.669806250E-1,1.079479977E-1,2.547297001E0,-2.465724945E0
9.694833860E-1,9.090799838E-2,2.644212008E0,-2.513649940E0
9.719697920E-1,6.854300201E-2,2.727282047E0,-2.549860001E0
9.744676570E-1,4.511300102E-2,2.802896976E0,-2.575419903E0
9.769938550E-1,1.848799922E-2,2.867861986E0,-2.590329885E0
9.794792190E-1,-1.559200045E-2,2.916851997E0,-2.594589949E0
9.819658340E-1,-5.499700084E-2,2.958386898E0,-2.586070061E0
9.844723440E-1,-9.866199642E-2,3.004182100E0,-2.571160078E0
9.869597920E-1,-1.476520002E-1,3.055301905E0,-2.545599937E0
9.894713030E-1,-2.040970027E-1,3.117072105E0,-2.520040035E0
9.919584900E-1,-2.594769895E-1,3.178842068E0,-2.499804974E0
9.944664070E-1,-3.116619885E-1,3.228897095E0,-2.487025023E0
9.969829170E-1,-3.617169857E-1,3.271497011E0,-2.487025023E0
9.994623440E-1,-4.202919900E-1,3.307707071E0,-2.494479895E0
1.001957136E0,-4.735420048E-1,3.341787100E0,-2.512584925E0
1.004463230E0,-5.267919898E-1,3.381191969E0,-2.543469906E0
1.006954428E0,-5.843020082E-1,3.418467045E0,-2.588200092E0
1.009457292E0,-6.482020020E-1,3.455741882E0,-2.642514944E0
1.011941980E0,-7.025169730E-1,3.493016958E0,-2.702155113E0
1.014460000E0,-7.493770123E-1,3.529227018E0,-2.768184900E0
1.016949480E0,-7.898470163E-1,3.555851936E0,-2.840605021E0
1.019455730E0,-8.239269853E-1,3.550527096E0,-2.921545029E0
1.021940365E0,-8.409669995E-1,3.528162003E0,-3.015264988E0
1.024454428E0,-8.462920189E-1,3.508991957E0,-3.106854916E0
1.026938646E0,-8.867620230E-1,3.417402029E0,-3.192054987E0
1.029433490E0,-9.251019955E-1,3.343916893E0,-3.280450106E0
1.031928386E0,-9.304270148E-1,3.326877117E0,-3.361390114E0
1.034423178E0,-9.219070077E-1,3.320487022E0,-3.433809996E0
1.036918073E0,-9.144520164E-1,3.304512024E0,-3.497709990E0
1.039412865E0,-8.995419741E-1,3.285341978E0,-3.549895048E0
1.041907761E0,-8.856970072E-1,3.253391981E0,-3.592494965E0
1.044402553E0,-8.654620051E-1,3.196947098E0,-3.626574993E0
1.046897448E0,-8.441619873E-1,3.120266914E0,-3.646810055E0
1.049392292E0,-8.217970133E-1,3.026546955E0,-3.655329943E0
1.051887136E0,-7.973020077E-1,2.934957027E0,-3.647875071E0
1.054381980E0,-7.696120143E-1,2.845496893E0,-3.637224913E0
1.056921094E0,-7.440519929E-1,2.754971981E0,-3.614860058E0
1.059415938E0,-7.206220031E-1,2.662317038E0,-3.590364933E0
1.061910782E0,-7.025169730E-1,2.562206984E0,-3.561609983E0
1.064405625E0,-6.908019781E-1,2.451447010E0,-3.527529955E0
1.066900469E0,-6.769570112E-1,2.341752052E0,-3.491319895E0
1.069395365E0,-6.663069725E-1,2.221406937E0,-3.457240105E0
1.071890209E0,-6.492670178E-1,2.120232105E0,-3.419965029E0
1.074385053E0,-6.247720122E-1,2.029706955E0,-3.376300097E0
1.076879896E0,-6.098620296E-1,1.913622022E0,-3.335829973E0
1.079374740E0,-6.077319980E-1,1.787951946E0,-3.300684929E0
1.081869584E0,-6.056020260E-1,1.670801997E0,-3.275125027E0
1.084364428E0,-6.045370102E-1,1.564301968E0,-3.258085012E0
1.086910469E0,-6.077319980E-1,1.470582008E0,-3.253824949E0
1.089405313E0,-6.173170209E-1,1.391772032E0,-3.261280060E0
1.091900209E0,-6.269019842E-1,1.326807022E0,-3.286839962E0
1.094395000E0,-6.386169791E-1,1.282076955E0,-3.326245070E0
1.096889896E0,-6.535270214E-1,1.253322005E0,-3.383754969E0
1.099384688E0,-6.620470285E-1,1.245867014E0,-3.451915026E0
1.101879584E0,-6.737620234E-1,1.252256989E0,-3.526464939E0
1.104374375E0,-6.854770184E-1,1.267166972E0,-3.604209900E0
1.106869271E0,-7.003870010E-1,1.290596962E0,-3.685149908E0
1.109364115E0,-7.110369802E-1,1.322546959E0,-3.760765076E0
1.111858959E0,-7.270119786E-1,1.357692003E0,-3.833184958E0
1.114353803E0,-7.397919893E-1,1.400292039E0,-3.899214983E0
1.116917136E0,-7.515069842E-1,1.439697027E0,-3.956724882E0
1.119411928E0,-7.642869949E-1,1.474841952E0,-4.002520084E0
1.121906823E0,-7.738720179E-1,1.503597021E0,-4.037664890E0
1.124401615E0,-7.855870128E-1,1.525961995E0,-4.065354824E0
1.126896511E0,-7.994319797E-1,1.544067025E0,-4.081329823E0
1.129391355E0,-8.132770061E-1,1.557911992E0,-4.087719917E0
1.131886198E0,-8.292520046E-1,1.569627047E0,-4.088785172E0
1.134381042E0,-8.430969715E-1,1.580276966E0,-4.086655140E0
1.136875886E0,-8.558769822E-1,1.588796973E0,-4.073874950E0
1.139370730E0,-8.729169965E-1,1.602642059E0,-4.052575111E0
1.141865625E0,-8.920869827E-1,1.615422010E0,-4.025949955E0
1.144360417E0,-9.133870006E-1,1.626072049E0,-3.991869926E0
1.146968178E0,-9.346870184E-1,1.635656953E0,-3.955660105E0
1.149462969E0,-9.645069838E-1,1.644176960E0,-3.916254997E0
1.151957865E0,-9.783520103E-1,1.687842011E0,-3.872590065E0
1.154452709E0,-9.890019894E-1,1.757066965E0,-3.818274975E0
1.156947605E0,-9.953920245E-1,1.832682014E0,-3.756505013E0
1.159442396E0,-1.008172035E0,1.878476977E0,-3.693670034E0
1.161937292E0,-1.015627027E0,1.899777055E0,-3.628705025E0
1.164432084E0,-1.019886971E0,1.912557006E0,-3.569065094E0
1.166926980E0,-1.019886971E0,1.911491990E0,-3.511554956E0
1.169421823E0,-1.017757058E0,1.898712039E0,-3.462564945E0
1.171916719E0,-1.015627027E0,1.879541993E0,-3.413574934E0
1.174411511E0,-1.016692042E0,1.858242035E0,-3.382689953E0
1.176971042E0,-1.014562011E0,1.832682014E0,-3.357130051E0
1.179465834E0,-1.011366963E0,1.808187008E0,-3.331569910E0
1.181960730E0,-1.014562011E0,1.778367043E0,-3.306010008E0
1.184455573E0,-1.012431979E0,1.747481942E0,-3.283644915E0
1.186950417E0,-1.003911972E0,1.724051952E0,-3.259150028E0
1.189445261E0,-9.953920245E-1,1.705947042E0,-3.238914967E0
1.191940105E0,-9.879369736E-1,1.692101955E0,-3.222939968E0
1.194435000E0,-9.794170260E-1,1.679322004E0,-3.210160017E0
1.196929844E0,-9.751570225E-1,1.673997045E0,-3.194185019E0
1.199424688E0,-9.740920067E-1,1.671867013E0,-3.179275036E0
1.201919532E0,-9.698320031E-1,1.671867013E0,-3.166495085E0
1.204414375E0,-9.730269909E-1,1.668671966E0,-3.149455070E0
1.206933542E0,-9.847419858E-1,1.665477037E0,-3.134545088E0
1.209428334E0,-9.975219965E-1,1.661216974E0,-3.117505074E0
1.211923178E0,-1.019886971E0,1.662281990E0,-3.102595091E0
1.214418073E0,-1.047577024E0,1.665477037E0,-3.087685108E0
1.216912917E0,-1.079527020E0,1.668671966E0,-3.070645094E0
1.219407761E0,-1.113607049E0,1.667606950E0,-3.050410032E0
1.221902605E0,-1.148751974E0,1.668671966E0,-3.026979923E0
1.224397448E0,-1.182832003E0,1.667606950E0,-2.991835117E0
1.226892344E0,-1.207327008E0,1.669736981E0,-2.952430010E0
1.229387188E0,-1.233952045E0,1.663347006E0,-2.909830093E0
1.231882032E0,-1.253121972E0,1.651631951E0,-2.858710051E0
1.234376823E0,-1.266967058E0,1.638852000E0,-2.807590008E0
1.236971146E0,-1.276551962E0,1.618617058E0,-2.759665012E0
1.239465938E0,-1.275486946E0,1.599447012E0,-2.712805033E0
1.241960834E0,-1.276551962E0,1.574952006E0,-2.672334909E0
1.244455678E0,-1.270161986E0,1.561107039E0,-2.637190104E0
1.246950573E0,-1.249927044E0,1.569627047E0,-2.609499931E0
1.249445365E0,-1.229691982E0,1.580276966E0,-2.585005045E0
1.251940261E0,-1.209457040E0,1.600512028E0,-2.559444904E0
1.254435053E0,-1.184962034E0,1.623942018E0,-2.540275097E0
1.256929948E0,-1.159402013E0,1.655892015E0,-2.525365114E0
1.259424792E0,-1.131711960E0,1.697427034E0,-2.506195068E0
1.261919688E0,-1.097632051E0,1.742156982E0,-2.490220070E0
1.264414480E0,-1.067811966E0,1.794342041E0,-2.471050024E0
1.266945521E0,-1.033732057E0,1.860371947E0,-2.447619915E0
1.269440365E0,-9.953920245E-1,1.935986996E0,-2.414604902E0
1.271935209E0,-9.549220204E-1,2.017992020E0,-2.377330065E0
1.274430053E0,-9.101920128E-1,2.101062059E0,-2.336859941E0
1.276924948E0,-8.665270209E-1,2.174546957E0,-2.293195009E0
1.279419740E0,-8.228620291E-1,2.236316919E0,-2.250595093E0
1.281914636E0,-7.738720179E-1,2.287436962E0,-2.207994938E0
1.284409428E0,-7.248820066E-1,2.335361958E0,-2.167525053E0
1.286904323E0,-6.865419745E-1,2.380091906E0,-2.131314993E0
1.289399167E0,-6.556569934E-1,2.425887108E0,-2.098299980E0
1.291894063E0,-6.290320158E-1,2.475941896E0,-2.065284967E0
1.294388855E0,-6.141219735E-1,2.521737099E0,-2.030139923E0
1.296805521E0,-6.002770066E-1,2.564337015E0,-1.990735054E0
1.299300365E0,-5.938869715E-1,2.600547075E0,-1.946004987E0
1.301795209E0,-5.832369924E-1,2.627171993E0,-1.897014976E0
1.304290053E0,-5.853670239E-1,2.647407055E0,-1.853350043E0
1.306784948E0,-5.960170031E-1,2.656991959E0,-1.805425048E0
1.309279740E0,-5.992119908E-1,2.662317038E0,-1.750044942E0
1.311774636E0,-6.034719944E-1,2.662317038E0,-1.694664955E0
1.314269480E0,-6.130570173E-1,2.658056974E0,-1.639284968E0
1.316764323E0,-6.151869893E-1,2.638886929E0,-1.579645038E0
1.319259167E0,-6.173170209E-1,2.614392042E0,-1.526394963E0
1.321754063E0,-6.151869893E-1,2.583507061E0,-1.465690017E0
1.324248855E0,-6.077319980E-1,2.553687096E0,-1.409245014E0
1.326793907E0,-5.928220153E-1,2.515347004E0,-1.360255003E0
1.329288750E0,-5.800420046E-1,2.469552040E0,-1.312330008E0
1.331783594E0,-5.683270097E-1,2.429081917E0,-1.267600060E0
1.334278438E0,-5.544819832E-1,2.392872095E0,-1.227130055E0
1.336773282E0,-5.374420285E-1,2.356662035E0,-1.193050027E0
1.339268125E0,-5.310519934E-1,2.324712038E0,-1.168555021E0
1.341763021E0,-5.225319862E-1,2.294892073E0,-1.139799953E0
1.344257865E0,-5.150769949E-1,2.257616997E0,-1.122760057E0
1.346752709E0,-5.172070265E-1,2.218211889E0,-1.109979987E0
1.349247553E0,-5.076220036E-1,2.191586971E0,-1.099329948E0
1.351742448E0,-5.033620000E-1,2.173481941E0,-1.091874957E0
1.354237240E0,-5.097519755E-1,2.157506943E0,-1.090809941E0
1.356776250E0,-5.108169913E-1,2.150052071E0,-1.095070004E0
1.359271094E0,-5.140119791E-1,2.148987055E0,-1.101459980E0
1.361765938E0,-5.172070265E-1,2.151117086E0,-1.107849956E0
1.364260782E0,-5.257269740E-1,2.162832022E0,-1.120630026E0
1.366755678E0,-5.385069847E-1,2.176676989E0,-1.135540009E0
1.369250469E0,-5.480920076E-1,2.200107098E0,-1.150449991E0
1.371745365E0,-5.555469990E-1,2.227797031E0,-1.167490005E0
1.374240209E0,-5.661969781E-1,2.251226902E0,-1.181334972E0
1.376735053E0,-5.757820010E-1,2.271461964E0,-1.189854980E0
1.379229896E0,-5.832369924E-1,2.289566994E0,-1.196244955E0
1.381724792E0,-5.960170031E-1,2.301281929E0,-1.198374987E0
1.384219584E0,-6.109269857E-1,2.306607008E0,-1.195180058E0
1.386756771E0,-6.290320158E-1,2.300216913E0,-1.187724948E0
1.389251615E0,-6.471369863E-1,2.285306931E0,-1.168555021E0
1.391746459E0,-6.599169970E-1,2.269331932E0,-1.145125031E0
1.394241303E0,-6.695020199E-1,2.237381935E0,-1.104655027E0
1.396736198E0,-6.780220270E-1,2.197977066E0,-1.057795048E0
1.399230990E0,-6.822819710E-1,2.151117086E0,-1.006675005E0
1.401725886E0,-6.790869832E-1,2.097867012E0,-9.512950182E-1
1.404220730E0,-6.705669761E-1,2.039292097E0,-8.948500156E-1
1.406715573E0,-6.577870250E-1,1.982846975E0,-8.384050131E-1
1.409210417E0,-6.428769827E-1,1.922142029E0,-7.840899825E-1
1.411705313E0,-6.183819771E-1,1.872087002E0,-7.340350151E-1
1.414200105E0,-5.874969959E-1,1.826292038E0,-6.829149723E-1
1.416740469E0,-5.470269918E-1,1.789016962E0,-6.445749998E-1
1.419235313E0,-5.033620000E-1,1.768782020E0,-6.147549748E-1
1.421730157E0,-4.511770010E-1,1.751742005E0,-5.891950130E-1
1.424225000E0,-3.979269862E-1,1.749611974E0,-5.700250268E-1
1.426719896E0,-3.446770012E-1,1.762392044E0,-5.593749881E-1
1.429214688E0,-2.850370109E-1,1.785822034E0,-5.561800003E-1
1.431709584E0,-2.296569943E-1,1.823096991E0,-5.551149845E-1
1.434204428E0,-1.774719954E-1,1.865697026E0,-5.583099723E-1
1.436699271E0,-1.284819990E-1,1.920011997E0,-5.721549988E-1
1.439194115E0,-8.801200241E-2,1.976457000E0,-5.860000253E-1
1.441689011E0,-5.499700084E-2,2.039292097E0,-5.945199728E-1
1.444183803E0,-2.304700017E-2,2.109581947E0,-6.062350273E-1
1.446730261E0,1.447999966E-3,2.179872036E0,-6.222100258E-1
1.449225105E0,2.061799914E-2,2.243772030E0,-6.339250207E-1
1.451719948E0,3.233300149E-2,2.297022104E0,-6.424450278E-1
1.454214792E0,4.937300086E-2,2.342817068E0,-6.499000192E-1
1.456709688E0,5.576299876E-2,2.383286953E0,-6.509649754E-1
1.459204480E0,5.895800143E-2,2.418431997E0,-6.477699876E-1
1.461699375E0,6.534799933E-2,2.441862106E0,-6.413800120E-1
1.464194219E0,6.321799755E-2,2.441862106E0,-6.317949891E-1
1.466689063E0,6.854300201E-2,2.425887108E0,-6.126250029E-1
1.469183907E0,6.534799933E-2,2.390742064E0,-5.891950130E-1
1.471678803E0,6.321799755E-2,2.339622021E0,-5.647000074E-1
1.474173594E0,5.789300054E-2,2.284241915E0,-5.295550227E-1
1.476708021E0,4.830799997E-2,2.220341921E0,-4.901500046E-1
1.479202865E0,4.085300118E-2,2.152182102E0,-4.411599934E-1
1.481697709E0,3.233300149E-2,2.079761982E0,-3.974950016E-1
1.484192553E0,2.061799914E-2,2.009471893E0,-3.548949957E-1
1.486687448E0,9.968000464E-3,1.941311955E0,-3.186849952E-1
1.489182240E0,3.830000060E-4,1.877411962E0,-2.878000140E-1
1.491677136E0,-1.133199967E-2,1.824162006E0,-2.611750066E-1
1.494171980E0,-1.665700041E-2,1.785822034E0,-2.409400046E-1
1.496666823E0,-2.198199928E-2,1.753872037E0,-2.313549966E-1
1.499161667E0,-2.517700009E-2,1.730442047E0,-2.217700034E-1
1.501656563E0,-2.304700017E-2,1.714467049E0,-2.239000052E-1
1.504151355E0,-1.985199936E-2,1.714467049E0,-2.302899957E-1
1.506695678E0,-1.559200045E-2,1.721922040E0,-2.451999933E-1
1.509190469E0,-7.071999833E-3,1.731506944E0,-2.558499873E-1
1.511685365E0,6.773000117E-3,1.756001949E0,-2.728900015E-1
1.514180209E0,1.742300019E-2,1.786887050E0,-2.995150089E-1
1.516675105E0,2.487800084E-2,1.824162006E0,-3.261399865E-1
1.519169896E0,3.552800044E-2,1.868891954E0,-3.506349921E-1
1.521664792E0,4.511300102E-2,1.907232046E0,-3.783249855E-1
1.524159636E0,5.363300070E-2,1.945572019E0,-4.017550051E-1
1.526654480E0,5.682799965E-2,1.977522016E0,-4.209249914E-1
1.529149323E0,6.002299860E-2,2.000952005E0,-4.358350039E-1
1.531644219E0,5.895800143E-2,2.024382114E0,-4.486150146E-1
1.534139011E0,5.789300054E-2,2.039292097E0,-4.507449865E-1
1.536686355E0,5.150299892E-2,2.047811985E0,-4.454199970E-1
1.539181198E0,3.978800029E-2,2.049942017E0,-4.390299916E-1
1.541676042E0,2.487800084E-2,2.039292097E0,-4.273149967E-1
1.544170886E0,4.643000197E-3,2.017992020E0,-4.145349860E-1
1.546665730E0,-2.517700009E-2,1.988172054E0,-4.028199911E-1
1.549160573E0,-5.712699890E-2,1.951961994E0,-3.889749944E-1
1.551655417E0,-9.014199674E-2,1.912557006E0,-3.698050082E-1
1.554150313E0,-1.284819990E-1,1.877411962E0,-3.506349921E-1
1.556645157E0,-1.668220013E-1,1.840137005E0,-3.346599936E-1
1.559140000E0,-2.062270045E-1,1.807121992E0,-3.218800128E-1
1.561634844E0,-2.498919964E-1,1.776237011E0,-3.101649880E-1
1.564129688E0,-2.914269865E-1,1.743221998E0,-2.984499931E-1
1.566662917E0,-3.276369870E-1,1.710206985E0,-2.920599878E-1
1.569157813E0,-3.649120033E-1,1.676126957E0,-2.835400105E-1
1.571652657E0,-3.947319984E-1,1.646306992E0,-2.803449929E-1
1.574147896E0,-4.245519936E-1,1.626072049E0,-2.760849893E-1
1.576642740E0,-4.479820132E-1,1.607967019E0,-2.760849893E-1
1.579137584E0,-4.650219977E-1,1.590927005E0,-2.728900015E-1
1.581632428E0,-4.724769890E-1,1.573886991E0,-2.750200033E-1
1.584127324E0,-4.788669944E-1,1.553652048E0,-2.846049964E-1
1.586622115E0,-4.831269979E-1,1.538741946E0,-2.963199914E-1
1.589117011E0,-4.788669944E-1,1.529157043E0,-3.080349863E-1
1.591611855E0,-4.724769890E-1,1.517441988E0,-3.176200092E-1
1.594106699E0,-4.596970081E-1,1.504662037E0,-3.335950077E-1
1.596644042E0,-4.479820132E-1,1.495077014E0,-3.463749886E-1
1.599138938E0,-4.320070148E-1,1.486557007E0,-3.570249975E-1
1.601633782E0,-4.170970023E-1,1.473777056E0,-3.666099906E-1
1.604128626E0,-3.574570119E-1,1.479102015E0,-3.751299977E-1
1.606623469E0,-2.520219982E-1,1.489752054E0,-3.900400102E-1
1.609118313E0,-1.263519973E-1,1.483361959E0,-4.028199911E-1
1.611613157E0,-8.136999793E-3,1.482296944E0,-4.113399982E-1
1.614108053E0,1.058180034E-1,1.484426975E0,-4.230549932E-1
1.616602844E0,2.197729945E-1,1.479102015E0,-4.326399863E-1
1.619097740E0,3.124279976E-1,1.468451977E0,-4.400950074E-1
1.621592584E0,3.954980075E-1,1.460996985E0,-4.507449865E-1
1.624087428E0,4.508779943E-1,1.449282050E0,-4.603300095E-1
1.626632011E0,4.902830124E-1,1.442891955E0,-4.645900130E-1
1.629126907E0,5.019980073E-1,1.443956971E0,-4.667200148E-1
1.631621751E0,4.934780002E-1,1.450346947E0,-4.635249972E-1
1.634116594E0,4.657880068E-1,1.452476978E0,-4.539400041E-1
1.636611438E0,4.189279974E-1,1.453541994E0,-4.400950074E-1
1.639106282E0,3.678080142E-1,1.453541994E0,-4.273149967E-1
1.641601126E0,3.049730062E-1,1.445021987E0,-4.113399982E-1
1.644096021E0,2.336180061E-1,1.429046988E0,-3.921700120E-1
1.646590813E0,1.548079997E-1,1.408812046E0,-3.729999959E-1
1.649085709E0,8.025799692E-2,1.392837048E0,-3.453100026E-1
1.651580553E0,1.635799929E-2,1.377926946E0,-3.218800128E-1
1.654075396E0,-4.328199849E-2,1.367277026E0,-2.920599878E-1
1.656621959E0,-9.759700298E-2,1.360887051E0,-2.633050084E-1
1.659116803E0,-1.370020062E-1,1.355561972E0,-2.345499992E-1
1.661611646E0,-1.721470058E-1,1.351302028E0,-2.121849954E-1
1.664106490E0,-2.083570063E-1,1.345976949E0,-1.951449960E-1
1.666601334E0,-2.307219952E-1,1.334262013E0,-1.781049967E-1
1.669096178E0,-2.466969937E-1,1.320417047E0,-1.717150062E-1
1.671591021E0,-2.594769895E-1,1.304442048E0,-1.642600000E-1
1.674085917E0,-2.711920142E-1,1.286337018E0,-1.610649973E-1
1.676580709E0,-2.807770073E-1,1.278882027E0,-1.653250009E-1
1.679075605E0,-2.871670127E-1,1.268231988E0,-1.717150062E-1
1.681570449E0,-2.903620005E-1,1.258646965E0,-1.802349985E-1
1.684065292E0,-2.946220040E-1,1.245867014E0,-1.887550056E-1
1.686597011E0,-2.988820076E-1,1.228827000E0,-1.994049996E-1
1.689091855E0,-3.105970025E-1,1.210721970E0,-2.153799981E-1
1.691586751E0,-3.265720010E-1,1.187291980E0,-2.345499992E-1
1.694081594E0,-3.382869959E-1,1.158537030E0,-2.579799891E-1
1.696576438E0,-3.468070030E-1,1.124457002E0,-2.771500051E-1
1.699071282E0,-3.531970084E-1,1.085052013E0,-2.995150089E-1
1.701566126E0,-3.659769893E-1,1.037127018E0,-3.240100145E-1
1.704060969E0,-3.638469875E-1,9.796169996E-1,-3.474400043E-1
1.706555813E0,-3.553270102E-1,9.189119935E-1,-3.666099906E-1
1.709050657E0,-3.510670066E-1,8.518170118E-1,-3.900400102E-1
1.711545553E0,-3.425469995E-1,7.847219706E-1,-4.060150087E-1
1.714040396E0,-3.287020028E-1,7.218869925E-1,-4.187949896E-1
1.716586178E0,-3.191170096E-1,6.611819863E-1,-4.305100143E-1
1.719081021E0,-3.127270043E-1,6.004769802E-1,-4.443550110E-1
1.721575917E0,-3.042069972E-1,5.355119705E-1,-4.550049901E-1
1.724070761E0,-2.978169918E-1,4.705469906E-1,-4.656549990E-1
1.726565605E0,-2.988820076E-1,4.055820107E-1,-4.741750062E-1
1.729060449E0,-2.956869900E-1,3.406170011E-1,-4.826950133E-1
1.731555292E0,-2.967520058E-1,2.831070125E-1,-4.816299975E-1
1.734050136E0,-2.978169918E-1,2.319869995E-1,-4.763050079E-1
1.736545032E0,-3.042069972E-1,1.872570068E-1,-4.731099904E-1
1.739039824E0,-3.127270043E-1,1.457220018E-1,-4.677850008E-1
1.741534719E0,-3.255069852E-1,1.063169986E-1,-4.688499868E-1
1.744029563E0,-3.414820135E-1,7.649700344E-2,-4.667200148E-1
1.746564094E0,-3.574570119E-1,5.200200155E-2,-4.613949955E-1
1.749058938E0,-3.713020086E-1,4.241700098E-2,-4.582000077E-1
1.751553834E0,-3.926019967E-1,3.602699935E-2,-4.560700059E-1
1.754048678E0,-4.053820074E-1,3.815700114E-2,-4.496800005E-1
1.756543521E0,-4.139020145E-1,4.348199815E-2,-4.443550110E-1
1.759038365E0,-4.192270041E-1,5.413199961E-2,-4.315750003E-1
1.761533209E0,-4.213570058E-1,5.839199945E-2,-4.198600054E-1
1.764028105E0,-4.192270041E-1,6.904199719E-2,-4.102750123E-1
1.766522896E0,-4.192270041E-1,7.543200254E-2,-3.974950016E-1
1.769017792E0,-4.075120091E-1,8.714699745E-2,-3.836500049E-1
1.771512636E0,-3.947319984E-1,1.041869968E-1,-3.676750064E-1
1.774007480E0,-3.776920140E-1,1.286820024E-1,-3.495700061E-1
1.776551907E0,-3.585219979E-1,1.478520036E-1,-3.282699883E-1
1.779046803E0,-3.393520117E-1,1.574369967E-1,-3.091000021E-1
1.781541646E0,-3.191170096E-1,1.670220047E-1,-2.899299860E-1
1.784036490E0,-2.988820076E-1,1.755419970E-1,-2.664999962E-1
1.786531334E0,-2.765170038E-1,1.776719987E-1,-2.388100028E-1
1.789026178E0,-2.573469877E-1,1.755419970E-1,-2.143149972E-1
1.791521021E0,-2.349819988E-1,1.670220047E-1,-1.887550056E-1
1.794015917E0,-2.115519941E-1,1.542419940E-1,-1.642600000E-1
1.796510709E0,-1.891870052E-1,1.425269991E-1,-1.418949962E-1
1.799005605E0,-1.614969969E-1,1.297470033E-1,-1.237900034E-1
1.801500449E0,-1.391319931E-1,1.169670001E-1,-1.035550013E-1
1.803995292E0,-1.167669967E-1,1.063169986E-1,-8.651500195E-2
1.806542949E0,-9.333699942E-2,8.821199834E-2,-7.054000348E-2
1.809037792E0,-7.203699648E-2,7.330200076E-2,-5.882500112E-2
1.811532636E0,-5.180199817E-2,6.265199929E-2,-5.350000039E-2
1.814027480E0,-3.795700148E-2,5.200200155E-2,-4.604500160E-2
1.816522324E0,-1.772199944E-2,4.028699920E-2,-4.391499981E-2
1.819017219E0,5.708000157E-3,4.028699920E-2,-4.710999876E-2
1.821512011E0,2.807299979E-2,4.987199977E-2,-4.604500160E-2
1.824006907E0,5.469800159E-2,6.584700197E-2,-5.243499950E-2
1.826501699E0,8.025799692E-2,8.182200044E-2,-5.988999829E-2
1.828996594E0,1.090129986E-1,1.084470004E-1,-6.841000170E-2
1.831491438E0,1.420280039E-1,1.372019947E-1,-8.012499660E-2
1.833986334E0,1.739780009E-1,1.712819934E-1,-9.503500164E-2
1.836519355E0,2.101880014E-1,2.085569948E-1,-1.142050028E-1
1.839014251E0,2.400079966E-1,2.500919998E-1,-1.355050057E-1
1.841509094E0,2.676979899E-1,2.937569916E-1,-1.578699946E-1
1.844003938E0,3.007130027E-1,3.427470028E-1,-1.812999994E-1
1.846498782E0,3.337279856E-1,3.896070123E-1,-2.004700005E-1
1.848993678E0,3.614180088E-1,4.396620095E-1,-2.185750008E-1
1.851488469E0,3.923029900E-1,4.875870049E-1,-2.334849983E-1
1.853983365E0,4.253180027E-1,5.429670215E-1,-2.420050055E-1
1.856478157E0,4.562030137E-1,5.898270011E-1,-2.494599968E-1
1.858973053E0,4.817630053E-1,6.366869807E-1,-2.526549995E-1
1.861467896E0,5.019980073E-1,6.750270128E-1,-2.494599968E-1
1.863962792E0,5.243629813E-1,7.069770098E-1,-2.441350073E-1
1.866501074E0,5.445979834E-1,7.240170240E-1,-2.366800010E-1
1.868995969E0,5.627030134E-1,7.325369716E-1,-2.207050025E-1
1.871490813E0,5.776129961E-1,7.325369716E-1,-2.047300041E-1
1.873985657E0,5.903930068E-1,7.272120118E-1,-1.823650002E-1
1.876480501E0,5.989130139E-1,7.144320011E-1,-1.568049937E-1
1.878975396E0,6.031730175E-1,6.963269711E-1,-1.280499995E-1
1.881470188E0,6.095629930E-1,6.686369777E-1,-9.397000074E-2
1.883965084E0,6.095629930E-1,6.366869807E-1,-6.627999991E-2
1.886459876E0,6.106280088E-1,5.983470082E-1,-3.965499997E-2
1.888954771E0,6.106280088E-1,5.504220128E-1,-1.622500084E-2
1.891449615E0,6.138229966E-1,4.929119945E-1,1.879999996E-3
1.893944459E0,6.266030073E-1,4.385969937E-1,9.335000068E-3
1.896484355E0,6.479030252E-1,3.864119947E-1,1.359499991E-2
1.898979251E0,6.660079956E-1,3.342269957E-1,9.335000068E-3
1.901474094E0,6.841130257E-1,2.948220074E-1,1.252999995E-2
1.903968938E0,7.107380033E-1,2.650020123E-1,1.359499991E-2
1.906463782E0,7.320380211E-1,2.383770049E-1,1.998499967E-2
1.908958678E0,7.565330267E-1,2.106869966E-1,2.211499959E-2
1.911453469E0,7.831580043E-1,1.840620041E-1,2.424499951E-2
1.913948365E0,8.108479977E-1,1.638270020E-1,2.744000033E-2
1.916443157E0,8.396030068E-1,1.446570009E-1,3.596000001E-2
1.918938053E0,8.672930002E-1,1.244219989E-1,4.873999953E-2
1.921432896E0,8.971130252E-1,1.095120013E-1,6.258500367E-2
1.923927792E0,9.301279783E-1,1.041869968E-1,7.856000215E-2
1.926468469E0,9.524930120E-1,9.460200369E-2,9.240499884E-2
1.928963365E0,9.780529737E-1,8.821199834E-2,1.019899994E-1
1.931458209E0,9.972230196E-1,8.501700312E-2,1.062500030E-1
1.933953053E0,1.010002971E0,8.288700134E-2,1.030550003E-1
1.936447896E0,1.022783041E0,8.075699955E-2,1.041200012E-1
1.938942792E0,1.027042985E0,7.223699987E-2,1.019899994E-1
1.941437584E0,1.028108001E0,6.904199719E-2,1.041200012E-1
1.943932480E0,1.027042985E0,6.158699840E-2,1.094449982E-1
1.946427271E0,1.017457962E0,5.839199945E-2,1.126400009E-1
1.948922167E0,1.004678011E0,5.519700050E-2,1.211600006E-1
1.951417011E0,9.823129773E-1,4.880699888E-2,1.318099946E-1
1.953911907E0,9.631429911E-1,4.241700098E-2,1.424600035E-1
1.956457844E0,9.418429732E-1,2.963699959E-2,1.499149948E-1
1.958952740E0,9.152179956E-1,2.005200088E-2,1.584350020E-1
1.961447584E0,8.885930181E-1,7.271999959E-3,1.680199951E-1
1.963942428E0,8.630329967E-1,-1.296299975E-2,1.765400022E-1
1.966437271E0,8.321480155E-1,-2.361300029E-2,1.935800016E-1
1.968932167E0,8.076530099E-1,-3.213300183E-2,2.127500027E-1
1.971426959E0,7.788980007E-1,-3.745799884E-2,2.340500057E-1
1.973921855E0,7.490779757E-1,-3.852299973E-2,2.574799955E-1
1.976416646E0,7.128679752E-1,-4.278299958E-2,2.809099853E-1
1.978911542E0,6.819829941E-1,-4.704299942E-2,3.011449873E-1
1.981406386E0,6.564229727E-1,-4.810800031E-2,3.192499876E-1
1.983901230E0,6.255379915E-1,-3.852299973E-2,3.373549879E-1
1.986436959E0,5.999780297E-1,-2.680799924E-2,3.565250039E-1
1.988931855E0,5.722879767E-1,-3.378000110E-3,3.778249919E-1
1.991426699E0,5.541830063E-1,3.389700130E-2,4.087100029E-1
1.993921542E0,5.424680114E-1,7.010699809E-2,4.395950139E-1
1.996416386E0,5.339480042E-1,1.041869968E-1,4.758050144E-1
1.998911230E0,5.307530165E-1,1.372019947E-1,5.066900253E-1
2.001406126E0,5.307530165E-1,1.723469943E-1,5.365099907E-1
2.003900969E0,5.339480042E-1,2.106869966E-1,5.641999841E-1
2.006395813E0,5.392730236E-1,2.426369935E-1,5.876299739E-1
2.008890657E0,5.445979834E-1,2.735219896E-1,6.014750004E-1
2.011385501E0,5.509880185E-1,3.033420146E-1,6.110600233E-1
2.013880344E0,5.637680292E-1,3.331620097E-1,6.206449866E-1
2.016423105E0,5.744180083E-1,3.651120067E-1,6.174499989E-1
2.018918001E0,5.861330032E-1,3.981269896E-1,6.121249795E-1
2.021412844E0,5.978479981E-1,4.258170128E-1,6.057350039E-1
2.023907688E0,6.127579808E-1,4.439220130E-1,5.929549932E-1
2.026402532E0,6.266030073E-1,4.460520148E-1,5.812399983E-1
2.028897428E0,6.361879706E-1,4.300769866E-1,5.727199912E-1
2.031392219E0,6.447079778E-1,4.087769985E-1,5.673949718E-1
2.033887115E0,6.489679813E-1,3.864119947E-1,5.695250034E-1
2.036381907E0,6.585530043E-1,3.608520031E-1,5.673949718E-1
2.038876803E0,6.660079956E-1,3.257069886E-1,5.631350279E-1
2.041371646E0,6.723979712E-1,2.756519914E-1,5.652649999E-1
2.043866490E0,6.755930185E-1,2.181420028E-1,5.652649999E-1
2.046404459E0,6.841130257E-1,1.616970003E-1,5.599399805E-1
2.048902376E0,6.926329732E-1,1.116420031E-1,5.556799769E-1
2.051400292E0,7.022179961E-1,5.200200155E-2,5.450299978E-1
2.053898209E0,7.128679752E-1,-8.702999912E-3,5.279899836E-1
2.056396178E0,7.288429737E-1,-6.940799952E-2,5.002999902E-1
2.058894042E0,7.501429915E-1,-1.311780065E-1,4.662199914E-1
2.061391959E0,7.629230022E-1,-1.854930073E-1,4.257499874E-1
2.063889928E0,7.703779936E-1,-2.344830036E-1,3.767600060E-1
2.066387844E0,7.831580043E-1,-2.781479955E-1,3.213799894E-1
2.068885761E0,7.895479798E-1,-3.164879978E-1,2.638700008E-1
2.071383678E0,7.927430272E-1,-3.505679965E-1,1.999700069E-1
2.073881594E0,8.001980186E-1,-3.867779970E-1,1.296799928E-1
2.076390344E0,8.055229783E-1,-4.187279940E-1,5.725999922E-2
2.078888261E0,8.108479977E-1,-4.538730085E-1,-1.196500007E-2
2.081386178E0,8.236280084E-1,-4.900830090E-1,-7.373499870E-2
2.083884094E0,8.353430033E-1,-5.177729726E-1,-1.344400048E-1
2.086382011E0,8.491880298E-1,-5.443980098E-1,-1.866250038E-1
2.088879928E0,8.587729931E-1,-5.699579716E-1,-2.196400017E-1
2.091377844E0,8.726180196E-1,-6.093630195E-1,-2.260300070E-1
2.093875813E0,8.779429793E-1,-6.871079803E-1,-2.100549936E-1
2.096373730E0,8.609030247E-1,-8.031929731E-1,-1.791699976E-1
2.098871646E0,8.236280084E-1,-9.512280226E-1,-1.312450022E-1
2.101369563E0,7.703779936E-1,-1.106717944E0,-7.160499692E-2
2.103867532E0,7.107380033E-1,-1.244102955E0,-1.315000001E-3
2.106381959E0,6.681380272E-1,-1.334627986E0,6.471499801E-2
2.108879876E0,6.574879885E-1,-1.394268036E0,1.232900023E-1
2.111377792E0,6.681380272E-1,-1.425153017E0,1.744100004E-1
2.113875761E0,6.883730292E-1,-1.446452975E0,2.116850019E-1
2.116373626E0,7.064779997E-1,-1.446452975E0,2.436349988E-1
2.118871594E0,7.139329910E-1,-1.424088001E0,2.660000026E-1
2.121369459E0,7.096729875E-1,-1.379358053E0,2.894299924E-1
2.123867428E0,6.862429976E-1,-1.319718003E0,3.043400049E-1
2.126365344E0,6.542930007E-1,-1.247298002E0,2.979499996E-1
2.128863261E0,6.180830002E-1,-1.172747970E0,2.819750011E-1
2.131361178E0,5.765479803E-1,-1.098198056E0,2.649349868E-1
2.133859146E0,5.211679935E-1,-1.015128016E0,2.425699979E-1
2.136364251E0,4.668529928E-1,-9.299280047E-1,2.180750072E-1
2.138862167E0,4.072130024E-1,-8.489879966E-1,1.935800016E-1
2.141360084E0,3.486379981E-1,-7.680479884E-1,1.616300046E-1
2.143858053E0,2.826080024E-1,-6.817830205E-1,1.360699981E-1
2.146355917E0,2.272280008E-1,-5.987129807E-1,1.137050018E-1
2.148853886E0,1.803680062E-1,-5.230979919E-1,8.388499916E-2
2.151351751E0,1.441580057E-1,-4.474830031E-1,5.299999937E-2
2.153849719E0,1.015579998E-1,-3.686729968E-1,2.744000033E-2
2.156347636E0,6.321799755E-2,-2.877329886E-1,6.140000187E-3
2.158845553E0,3.020299971E-2,-2.185080051E-1,-1.941999979E-2
2.161343469E0,4.643000197E-3,-1.460880041E-1,-4.178500175E-2
2.163841438E0,-6.006999873E-3,-6.195300072E-2,-8.864499629E-2
2.166341438E0,-2.837200090E-2,-3.426299989E-2,-1.599999964E-1
2.168839355E0,-5.606200173E-2,-1.247999957E-3,-2.313549966E-1
2.171337271E0,-7.736200094E-2,5.413199961E-2,-3.048399985E-1
2.173835240E0,-9.972699732E-2,1.233569980E-1,-3.719350100E-1
2.176333157E0,-1.220920011E-1,1.776719987E-1,-4.326399863E-1
2.178831074E0,-1.348720044E-1,2.181420028E-1,-4.986700118E-1
2.181328938E0,-1.423269957E-1,2.543520033E-1,-5.689600110E-1
2.183826907E0,-1.465869993E-1,2.852370143E-1,-6.392499804E-1
2.186324824E0,-1.487170011E-1,3.054719865E-1,-6.935650110E-1
2.188822740E0,-1.401969939E-1,3.139919937E-1,-7.340350151E-1
2.191320657E0,-1.252869964E-1,3.097319901E-1,-7.745050192E-1
2.193818626E0,-1.018569991E-1,3.012120128E-1,-8.202999830E-1
2.196324928E0,-7.949200273E-2,3.065370023E-1,-8.618350029E-1
2.198822844E0,-5.073700100E-2,3.235769868E-1,-8.927199841E-1
2.201320761E0,-2.411199920E-2,3.395519853E-1,-9.236050248E-1
2.203818730E0,1.529300027E-2,3.917370141E-1,-9.523599744E-1
2.206316646E0,4.617799819E-2,4.183619916E-1,-1.005609989E0
2.208814563E0,6.321799755E-2,4.119719863E-1,-1.064185023E0
2.211312428E0,7.493299991E-2,4.066469967E-1,-1.134474993E0
2.213810396E0,8.132299781E-2,4.141019881E-1,-1.200505018E0
2.216308313E0,8.984299749E-2,4.258170128E-1,-1.255885005E0
2.218806230E0,1.004929990E-1,4.364669919E-1,-1.311264992E0
2.221304146E0,1.154029965E-1,4.513770044E-1,-1.366644979E0
2.223802115E0,1.271180063E-1,4.662869871E-1,-1.422024965E0
2.226312115E0,1.409630030E-1,4.705469906E-1,-1.466755033E0
2.228810032E0,1.622630060E-1,4.716120064E-1,-1.513615012E0
2.231307949E0,1.814330071E-1,4.801320136E-1,-1.556215048E0
2.233805865E0,1.899529994E-1,4.907819927E-1,-1.577515006E0
2.236303834E0,1.952780038E-1,5.035619736E-1,-1.582839966E0
2.238801699E0,1.942130029E-1,5.035619736E-1,-1.581774950E0
2.241299667E0,1.931480020E-1,4.875870049E-1,-1.573254943E0
2.243797584E0,1.920830011E-1,4.513770044E-1,-1.563670039E0
2.246295501E0,1.920830011E-1,4.045169950E-1,-1.544499993E0
2.248793417E0,1.878229976E-1,3.502019942E-1,-1.524265051E0
2.251291334E0,1.814330071E-1,2.990820110E-1,-1.496574998E0
2.253789251E0,1.739780009E-1,2.447669953E-1,-1.462494969E0
2.256304719E0,1.622630060E-1,1.936469972E-1,-1.423089981E0
2.258802636E0,1.494829953E-1,1.403969973E-1,-1.376230001E0
2.261300605E0,1.430930048E-1,8.608199656E-2,-1.321915030E0
2.263798521E0,1.313779950E-1,3.709200025E-2,-1.271860003E0
2.266296438E0,1.175329983E-1,-1.829999965E-4,-1.231389999E0
2.268794303E0,1.026230007E-1,-4.171799868E-2,-1.191985011E0
2.271292271E0,9.516800195E-2,-7.260300219E-2,-1.162165046E0
2.273790188E0,8.345299959E-2,-9.390299767E-2,-1.137670040E0
2.276288105E0,7.067299634E-2,-1.066830009E-1,-1.117434978E0
2.278786021E0,6.321799755E-2,-1.109429970E-1,-1.106785059E0
2.281283990E0,6.002299860E-2,-1.013579965E-1,-1.098265052E0
2.283781907E0,6.108799949E-2,-8.857800066E-2,-1.067379951E0
2.286285709E0,5.256799981E-2,-8.218800277E-2,-1.019454956E0
2.288783626E0,5.256799981E-2,-9.603299946E-2,-9.619449973E-1
2.291281542E0,4.724299908E-2,-1.226579994E-1,-8.969799876E-1
2.293779511E0,4.617799819E-2,-1.535429955E-1,-8.384050131E-1
2.296277428E0,4.298299924E-2,-1.886879951E-1,-7.862200141E-1
2.298775344E0,5.469800159E-2,-2.312880009E-1,-7.244499922E-1
2.301273261E0,7.386799902E-2,-2.653680146E-1,-6.584200263E-1
2.303771178E0,9.516800195E-2,-2.813430130E-1,-5.934550166E-1
2.306269094E0,1.111430004E-1,-2.728230059E-1,-5.519199967E-1
2.308767011E0,1.196630001E-1,-2.536529899E-1,-5.210350156E-1
2.311264928E0,1.271180063E-1,-2.227679938E-1,-5.008000135E-1
2.313762896E0,1.313779950E-1,-1.844280064E-1,-4.944100082E-1
2.316268053E0,1.367029995E-1,-1.386329979E-1,-5.029299855E-1
2.318765969E0,1.580030024E-1,-9.496799856E-2,-5.167750120E-1
2.321263886E0,1.952780038E-1,-6.088799983E-2,-5.231649876E-1
2.323761855E0,2.410729975E-1,-2.148300037E-2,-5.274249911E-1
2.326259771E0,2.975179851E-1,1.472700015E-2,-5.284900069E-1
2.328757688E0,3.550280035E-1,4.667700082E-2,-5.423349738E-1
2.331255605E0,4.082779884E-1,8.182200044E-2,-5.487250090E-1
2.333753521E0,4.689829946E-1,1.169670001E-1,-5.529850125E-1
2.336251386E0,5.318179727E-1,1.489170045E-1,-5.540500283E-1
2.338749355E0,5.989130139E-1,1.744769961E-1,-5.519199967E-1
2.341247271E0,6.649429798E-1,1.904519945E-1,-5.540500283E-1
2.343745240E0,7.331029773E-1,2.234670073E-1,-5.710899830E-1
2.346251803E0,7.778329849E-1,2.863020003E-1,-6.115599871E-1
2.348749719E0,8.055229783E-1,3.693720102E-1,-6.658750176E-1
2.351247636E0,8.310829997E-1,4.662869871E-1,-7.276449800E-1
2.353745605E0,8.545129895E-1,5.632020235E-1,-7.862200141E-1
2.356243469E0,8.790079951E-1,6.601169705E-1,-8.405349851E-1
2.358741438E0,9.024379849E-1,7.655519843E-1,-8.927199841E-1
2.361239355E0,9.301279783E-1,8.688570261E-1,-9.459699988E-1
2.363737271E0,9.642080069E-1,9.679020047E-1,-9.917650223E-1
2.366235188E0,1.001482964E0,1.064816952E0,-1.030104995E0
2.368733105E0,1.047278047E0,1.159602046E0,-1.073770046E0
2.371231021E0,1.087748051E0,1.244801998E0,-1.114240050E0
2.373728990E0,1.134608030E0,1.318287015E0,-1.149384975E0
2.376206490E0,1.179337978E0,1.378991961E0,-1.178140044E0
2.378704407E0,1.226197958E0,1.430112004E0,-1.201570034E0
2.381202324E0,1.270928025E0,1.472712040E0,-1.219674945E0
2.383700240E0,1.307137966E0,1.485491991E0,-1.231389999E0
2.386198157E0,1.325242996E0,1.455672026E0,-1.227130055E0
2.388696074E0,1.319918036E0,1.371536970E0,-1.207960010E0
2.391193990E0,1.271993041E0,1.192617059E0,-1.155774951E0
2.393691959E0,1.178272963E0,9.040020108E-1,-1.064185023E0
2.396189876E0,1.103723049E0,6.153870225E-1,-9.342550039E-1
2.398687792E0,1.097332954E0,4.567019939E-1,-7.894150019E-1
2.401185709E0,1.152712941E0,3.981269896E-1,-6.850450039E-1
2.403683626E0,1.243237972E0,3.246420026E-1,-6.509649754E-1
2.406215969E0,1.351868033E0,2.149470001E-1,-6.467049718E-1
2.408713938E0,1.458367944E0,1.041869968E-1,-6.381850243E-1
2.411211855E0,1.537178040E0,1.898699999E-2,-6.115599871E-1
2.413709771E0,1.588297963E0,-2.574300021E-2,-5.721549988E-1
2.416207688E0,1.609598041E0,-3.852299973E-2,-5.252950191E-1
2.418705605E0,1.621312976E0,-4.171799868E-2,-4.858900011E-1
2.421203521E0,1.627702951E0,-4.810800031E-2,-4.582000077E-1
2.423701490E0,1.633028030E0,-5.556299910E-2,-4.379650056E-1
2.426199407E0,1.639418006E0,-5.982299894E-2,-4.145349860E-1
2.428697324E0,1.640483022E0,-7.047300041E-2,-3.921700120E-1
2.431195240E0,1.635157943E0,-9.283799678E-2,-3.602199852E-1
2.433693157E0,1.622377992E0,-1.034879982E-1,-3.133600056E-1
2.436203886E0,1.606402993E0,-1.173330024E-1,-2.643699944E-1
2.438701803E0,1.589362979E0,-1.290480047E-1,-2.153799981E-1
2.441199719E0,1.575518012E0,-1.407629997E-1,-1.738449931E-1
2.443697688E0,1.570193052E0,-1.578029990E-1,-1.397649944E-1
2.446195605E0,1.573387980E0,-1.737779975E-1,-1.110100001E-1
2.448693521E0,1.577648044E0,-2.035979927E-1,-8.438500017E-2
2.451191438E0,1.584038019E0,-2.227679938E-1,-6.308499724E-2
2.453689355E0,1.580842972E0,-2.376780063E-1,-4.391499981E-2
2.456187271E0,1.569128036E0,-2.557829916E-1,-3.006999940E-2
2.458685188E0,1.554218054E0,-2.611080110E-1,-2.261500061E-2
2.461183105E0,1.529723048E0,-2.568480074E-1,-2.261500061E-2
2.463681074E0,1.504163027E0,-2.493930012E-1,-2.474500053E-2
2.466187115E0,1.470082998E0,-2.334180027E-1,-3.220000118E-2
2.468685032E0,1.427482963E0,-2.078579962E-1,-4.178500175E-2
2.471182949E0,1.382753015E0,-1.812330037E-1,-5.988999829E-2
2.473680865E0,1.339087963E0,-1.471530050E-1,-7.479999959E-2
2.476178834E0,1.293292999E0,-1.109429970E-1,-9.397000074E-2
2.478676751E0,1.242172956E0,-6.514800340E-2,-1.163349971E-1
2.481174667E0,1.187857985E0,-9.767999873E-3,-1.408299953E-1
2.483672584E0,1.136737943E0,4.348199815E-2,-1.706500053E-1
2.486170501E0,1.087748051E0,9.673199803E-2,-2.036650032E-1
2.488668417E0,1.036628008E0,1.521120071E-1,-2.420050055E-1
2.491166334E0,9.769880176E-1,2.096219957E-1,-2.782149911E-1
2.493664251E0,9.152179956E-1,2.586120069E-1,-3.144249916E-1
2.496171594E0,8.577079773E-1,3.033420146E-1,-3.591549993E-1
2.498669511E0,7.938079834E-1,3.374220133E-1,-4.017550051E-1
2.501167428E0,7.256479859E-1,3.715020120E-1,-4.411599934E-1
2.503665344E0,6.638780236E-1,4.055820107E-1,-4.741750062E-1
2.506163313E0,5.935879946E-1,4.396620095E-1,-4.976049960E-1
2.508661178E0,5.115829706E-1,4.822619855E-1,-5.178400278E-1
2.511159146E0,4.349029958E-1,5.184720159E-1,-5.359449983E-1
2.513657063E0,3.667429984E-1,5.344470143E-1,-5.572450161E-1
2.516154980E0,3.028430045E-1,5.365769863E-1,-5.849350095E-1
2.518652896E0,2.410729975E-1,5.259270072E-1,-6.136900187E-1
2.521150813E0,1.846279949E-1,5.131469965E-1,-6.467049718E-1
2.523648730E0,1.409630030E-1,4.886519909E-1,-6.786550283E-1
2.526165553E0,9.836299717E-2,4.630919993E-1,-7.127349973E-1
2.528663469E0,5.469800159E-2,4.332720041E-1,-7.532050014E-1
2.531161386E0,1.955300011E-2,3.928020000E-1,-8.032600284E-1
2.533659303E0,-8.136999793E-3,3.555270135E-1,-8.575749993E-1
2.536157219E0,-4.115200043E-2,3.161219954E-1,-9.182800055E-1
2.538655136E0,-8.588200063E-2,2.894969881E-1,-9.757900238E-1
2.541153105E0,-1.433919966E-1,3.022769988E-1,-1.037559986E0
2.543651021E0,-2.200720012E-1,3.640469909E-1,-1.103590012E0
2.546148938E0,-2.946220040E-1,4.481819868E-1,-1.172814965E0
2.548646855E0,-3.585219979E-1,5.397719741E-1,-1.245234966E0
2.551144771E0,-4.149670005E-1,6.292319894E-1,-1.317654967E0
2.553642688E0,-4.565019906E-1,7.197570205E-1,-1.370905042E0
2.556147428E0,-4.991019964E-1,8.156070113E-1,-1.409245014E0
2.558645396E0,-5.342469811E-1,9.178469777E-1,-1.441195011E0
2.561143313E0,-5.757820010E-1,1.025411963E0,-1.464625001E0
2.563641230E0,-6.194469929E-1,1.137236953E0,-1.481665015E0
2.566139146E0,-6.460719705E-1,1.242671967E0,-1.490185022E0
2.568637063E0,-6.748269796E-1,1.344912052E0,-1.502964973E0
2.571134980E0,-7.078419924E-1,1.469516993E0,-1.515745044E0
2.573632896E0,-7.440519929E-1,1.614356995E0,-1.538110018E0
2.576130813E0,-7.866520286E-1,1.758131981E0,-1.559409976E0
2.578628730E0,-8.217970133E-1,1.882737041E0,-1.567929983E0
2.581126699E0,-8.569419980E-1,1.989236951E0,-1.563670039E0
2.583624615E0,-8.878269792E-1,2.065917015E0,-1.537045002E0
2.586114355E0,-9.048669934E-1,2.107451916E0,-1.497640014E0
2.588612271E0,-9.027370214E-1,2.103192091E0,-1.444390059E0
2.591110188E0,-8.931519985E-1,2.031836987E0,-1.359189987E0
2.593608105E0,-8.750470281E-1,1.906167030E0,-1.244169950E0
2.596106021E0,-8.633319736E-1,1.719792008E0,-1.091874957E0
2.598603938E0,-8.473569751E-1,1.483361959E0,-9.214749932E-1
2.601101855E0,-8.335120082E-1,1.208592057E0,-7.244499922E-1
2.603599824E0,-8.207319975E-1,9.210420251E-1,-5.029299855E-1
2.606097688E0,-8.164719939E-1,6.579869986E-1,-2.846049964E-1
2.608595605E0,-8.100820184E-1,4.141019881E-1,-8.970999718E-2
2.611093574E0,-7.951719761E-1,1.489170045E-1,9.133999795E-2
2.613591490E0,-7.621570230E-1,-1.535429955E-1,2.681300044E-1
2.616102844E0,-7.302070260E-1,-4.453530014E-1,4.353350103E-1
2.618600761E0,-7.046470046E-1,-6.934980154E-1,5.876299739E-1
2.621098626E0,-6.801519990E-1,-9.033030272E-1,7.292749882E-1
2.623596594E0,-6.833469868E-1,-1.056663036E0,8.357750177E-1
2.626094511E0,-7.003870010E-1,-1.162098050E0,8.911550045E-1
2.628592428E0,-6.950619817E-1,-1.204697967E0,9.060649872E-1
2.631090344E0,-6.822819710E-1,-1.190853000E0,9.177799821E-1
2.633588261E0,-6.769570112E-1,-1.140797973E0,9.231050014E-1
2.636086178E0,-6.609820127E-1,-1.082223058E0,9.028699994E-1
2.638584094E0,-6.386169791E-1,-1.011932969E0,8.560100198E-1
2.641082011E0,-6.151869893E-1,-9.214079976E-1,7.921100259E-1
2.643579980E0,-5.928220153E-1,-7.925429940E-1,7.218199968E-1
2.646108105E0,-5.704569817E-1,-6.423779726E-1,6.600499749E-1
2.648606074E0,-5.512869954E-1,-4.964730144E-1,6.089299917E-1
2.651103938E0,-5.331820250E-1,-3.750630021E-1,5.631350279E-1
2.653601907E0,-5.182719827E-1,-2.887980044E-1,5.088199973E-1
2.656099824E0,-4.959070086E-1,-2.195730060E-1,4.513100088E-1
2.658597740E0,-4.746069908E-1,-1.418280005E-1,4.001899958E-1
2.661095657E0,-4.565019906E-1,-6.834299862E-2,3.522650003E-1
2.663593574E0,-4.352020025E-1,1.153200027E-2,3.043400049E-1
2.666091490E0,-4.181619883E-1,8.821199834E-2,2.660000026E-1
2.668589407E0,-4.021869898E-1,1.521120071E-1,2.372449934E-1
2.671087324E0,-3.872770071E-1,1.883219928E-1,2.393749952E-1
2.673585292E0,-3.670420051E-1,1.893869936E-1,2.894299924E-1
2.676073001E0,-3.510670066E-1,1.542419940E-1,3.575899899E-1
2.678570917E0,-3.372220099E-1,9.779699892E-2,4.300099909E-1
2.681068834E0,-3.191170096E-1,3.389700130E-2,4.939100146E-1
2.683566751E0,-3.052720129E-1,-1.296299975E-2,5.556799769E-1
2.686064667E0,-2.978169918E-1,-4.917300120E-2,6.131899953E-1
2.688562636E0,-2.914269865E-1,-7.153800130E-2,6.632450223E-1
2.691060553E0,-2.892970145E-1,-8.857800066E-2,7.015849948E-1
2.693558469E0,-2.786470056E-1,-1.066830009E-1,7.367299795E-1
2.696056386E0,-2.562820017E-1,-1.237230003E-1,7.612249851E-1
2.698554303E0,-2.275269926E-1,-1.492830068E-1,7.697449923E-1
2.701052219E0,-1.934469938E-1,-1.737779975E-1,7.708100080E-1
2.703550136E0,-1.572369933E-1,-1.972080022E-1,7.750700116E-1
2.706097219E0,-1.220920011E-1,-2.185080051E-1,7.771999836E-1
2.708595084E0,-8.588200063E-2,-2.291579992E-1,7.835900187E-1
2.711093001E0,-4.754199833E-2,-2.312880009E-1,7.910450101E-1
2.713590917E0,-1.026699971E-2,-2.355480045E-1,8.006299734E-1
2.716088886E0,2.168300003E-2,-2.408729941E-1,8.198000193E-1
2.718586803E0,5.576299876E-2,-2.515229881E-1,8.368399739E-1
2.721084719E0,7.919300348E-2,-2.493930012E-1,8.602700233E-1
2.723582636E0,9.303800017E-2,-2.259629965E-1,8.837000132E-1
2.726080553E0,9.729799628E-2,-1.854930073E-1,9.049999714E-1
2.728578469E0,1.026230007E-1,-1.354379952E-1,9.145849943E-1
2.731076386E0,1.058180034E-1,-9.603299946E-2,9.177799821E-1
2.733574303E0,1.036880016E-1,-5.982299894E-2,9.188449979E-1
2.736060240E0,1.004929990E-1,-2.041799948E-2,9.241700172E-1
2.738558157E0,9.623300284E-2,1.792199910E-2,9.348199964E-1
2.741056074E0,9.623300284E-2,5.519700050E-2,9.476000071E-1
2.743553990E0,9.623300284E-2,8.608199656E-2,9.614449739E-1
2.746051907E0,9.942799807E-2,1.127069965E-1,9.752900004E-1
2.748549824E0,1.068829969E-1,1.159019992E-1,9.880700111E-1
2.751047740E0,1.143380031E-1,1.084470004E-1,9.944599867E-1
2.753545657E0,1.207280010E-1,8.714699745E-2,9.955250025E-1
2.756043626E0,1.335079968E-1,5.200200155E-2,9.987199903E-1
2.758541542E0,1.473529935E-1,5.142000038E-3,1.005110025E0
2.761039459E0,1.633280069E-1,-4.704299942E-2,1.015759945E0
2.763537376E0,1.782380044E-1,-1.120079979E-1,1.020020008E0
2.766024928E0,1.974080056E-1,-1.748429984E-1,1.022150040E0
2.768522844E0,2.133830041E-1,-2.302230000E-1,1.011500001E0
2.771020761E0,2.293580025E-1,-2.877329886E-1,9.923300147E-1
2.773518678E0,2.474630028E-1,-3.452430069E-1,9.635750055E-1
2.776016646E0,2.602429986E-1,-3.995580077E-1,9.316250086E-1
2.778514511E0,2.730230093E-1,-4.368329942E-1,8.890249729E-1
2.781012480E0,2.794130147E-1,-4.464179873E-1,8.325799704E-1
2.783510344E0,2.772830129E-1,-4.315080047E-1,7.771999836E-1
2.786008313E0,2.740879953E-1,-4.197930098E-1,7.271450162E-1
2.788506230E0,2.676979899E-1,-4.123379886E-1,6.824150085E-1
2.791004146E0,2.676979899E-1,-4.027529955E-1,6.440749764E-1
2.793502063E0,2.708930075E-1,-3.761279881E-1,6.025400162E-1
2.796023886E0,2.836729884E-1,-3.388530016E-1,5.514199734E-1
2.798521803E0,3.007130027E-1,-3.026430011E-1,4.928449988E-1
2.801019719E0,3.230780065E-1,-2.600429952E-1,4.289450049E-1
2.803517636E0,3.326629996E-1,-2.025330067E-1,3.629150093E-1
2.806015553E0,3.284029961E-1,-1.056180000E-1,2.936899960E-1
2.808513469E0,3.017779887E-1,1.792199910E-2,2.212699950E-1
2.811011438E0,2.719579935E-1,1.425269991E-1,1.584350020E-1
2.813509303E0,2.314880043E-1,2.596769929E-1,1.030550003E-1
2.816007271E0,1.793030053E-1,3.672420084E-1,4.235000163E-2
2.818505188E0,1.239230037E-1,4.535070062E-1,8.149999776E-4
2.821003105E0,7.173799723E-2,5.429670215E-1,-4.498000070E-2
2.823501021E0,2.487800084E-2,6.334919930E-1,-1.248549968E-1
2.825973782E0,-2.624199912E-2,7.229520082E-1,-2.324199975E-1
2.828471646E0,-8.055700362E-2,8.134769797E-1,-3.378550112E-1
2.830969615E0,-1.327420026E-1,8.837670088E-1,-4.219900072E-1
2.833467532E0,-1.742769927E-1,9.284970164E-1,-4.890849888E-1
2.835965449E0,-2.051620036E-1,9.466019869E-1,-5.391399860E-1
2.838463365E0,-2.275269926E-1,9.359520078E-1,-5.774800181E-1
2.840961282E0,-2.328519970E-1,9.029369950E-1,-6.104949713E-1
2.843459199E0,-2.466969937E-1,8.677920103E-1,-6.499000192E-1
2.845957167E0,-2.562820017E-1,8.550119996E-1,-7.191249728E-1
2.848455032E0,-2.552169859E-1,8.731170297E-1,-8.053900003E-1
2.850953001E0,-2.552169859E-1,8.827019930E-1,-8.629000187E-1
2.853450917E0,-2.573469877E-1,8.827019930E-1,-9.054999948E-1
2.855990969E0,-2.530870140E-1,9.040020108E-1,-9.630100131E-1
2.858488886E0,-2.509570122E-1,9.721620083E-1,-1.055665016E0
2.860986855E0,-2.626720071E-1,1.027541995E0,-1.170685053E0
2.863484771E0,-2.786470056E-1,1.091441989E0,-1.278249979E0
2.865982688E0,-2.924920022E-1,1.153211951E0,-1.365579963E0
2.868480605E0,-3.084670007E-1,1.187291980E0,-1.428414941E0
2.870978521E0,-3.180519938E-1,1.209656954E0,-1.480599999E0
2.873476438E0,-3.244419992E-1,1.247997046E0,-1.522135019E0
2.875974407E0,-3.308320045E-1,1.281012058E0,-1.564735055E0
2.878472271E0,-3.244419992E-1,1.306571960E0,-1.608399987E0
2.880970240E0,-2.988820076E-1,1.342782021E0,-1.640349984E0
2.883468157E0,-2.775819898E-1,1.430112004E0,-1.694664955E0
2.885940188E0,-2.520219982E-1,1.538741946E0,-1.776669979E0
2.888438105E0,-2.200720012E-1,1.629266977E0,-1.876780033E0
2.890936021E0,-1.764069945E-1,1.713402033E0,-1.957720041E0
2.893433938E0,-1.157020032E-1,1.799667001E0,-2.021620035E0
2.895931855E0,-7.203699648E-2,1.845461965E0,-2.086585045E0
2.898429771E0,-1.559200045E-2,1.885931969E0,-2.110014915E0
2.900927688E0,3.659300134E-2,1.942376971E0,-2.100430012E0
2.903425605E0,6.534799933E-2,1.988172054E0,-2.084455013E0
2.905923521E0,5.895800143E-2,2.006277084E0,-2.091909885E0
2.908421438E0,3.339799866E-2,1.983911991E0,-2.103625059E0
2.910919355E0,7.837999612E-3,1.912557006E0,-2.091909885E0
2.913417324E0,-2.517700009E-2,1.801797032E0,-2.039725065E0
2.915921074E0,-6.777700037E-2,1.665477037E0,-1.938549995E0
2.918418990E0,-1.188969985E-1,1.520637035E0,-1.804360032E0
2.920916907E0,-1.881220043E-1,1.370471954E0,-1.676560044E0
2.923414876E0,-2.733219862E-1,1.208592057E0,-1.544499993E0
2.925912792E0,-3.585219979E-1,1.046712041E0,-1.425220013E0
2.928410709E0,-4.362669885E-1,8.603370190E-1,-1.334694982E0
2.930908626E0,-4.948419929E-1,6.505320072E-1,-1.231389999E0
2.933406542E0,-5.257269740E-1,4.567019939E-1,-1.101459980E0
2.935904459E0,-5.374420285E-1,2.575469911E-1,-9.651399851E-1
2.938402428E0,-5.438320041E-1,7.330200076E-2,-8.522499800E-1
2.940900292E0,-5.566120148E-1,-8.538299799E-2,-7.798299789E-1
2.943398261E0,-5.661969781E-1,-2.110529989E-1,-7.382950187E-1
2.945911126E0,-5.725870132E-1,-3.154230118E-1,-7.201899886E-1
2.948409042E0,-5.811070204E-1,-3.984929919E-1,-7.361649871E-1
2.950906959E0,-5.789769888E-1,-4.773029983E-1,-7.659850121E-1
2.953404928E0,-5.587419868E-1,-5.454630256E-1,-7.883499861E-1
2.955902844E0,-5.299869776E-1,-5.912579894E-1,-8.053900003E-1
2.958400761E0,-4.905819893E-1,-6.221429706E-1,-8.085849881E-1
2.960898678E0,-4.554370046E-1,-6.232079864E-1,-8.181700110E-1
2.963396594E0,-4.330720007E-1,-6.040380001E-1,-8.384050131E-1
2.965894563E0,-4.096420109E-1,-5.731530190E-1,-8.586400151E-1
2.968392480E0,-4.032520056E-1,-5.401380062E-1,-8.959149718E-1
2.970890344E0,-3.968620002E-1,-5.113829970E-1,-9.459699988E-1
2.973388313E0,-3.744969964E-1,-4.943430126E-1,-9.789850116E-1
2.975894876E0,-3.446770012E-1,-4.943430126E-1,-9.949600101E-1
2.978392792E0,-2.999469936E-1,-4.986029863E-1,-9.917650223E-1
2.980890657E0,-2.520219982E-1,-5.039280057E-1,-9.757900238E-1
2.983388626E0,-2.072920054E-1,-5.071229935E-1,-9.598150253E-1
2.985886542E0,-1.710820049E-1,-5.060579777E-1,-9.512950182E-1
2.988384459E0,-1.359370053E-1,-4.836930037E-1,-9.353200197E-1
2.990882376E0,-9.972699732E-2,-4.570679963E-1,-9.299950004E-1
2.993380292E0,-6.671199948E-2,-4.378980100E-1,-9.299950004E-1
2.995878209E0,-2.624199912E-2,-4.080780149E-1,-9.214749932E-1
2.998376126E0,1.529300027E-2,-3.771930039E-1,-9.214749932E-1
3.000874094E0,6.002299860E-2,-3.505679965E-1,-9.257349968E-1
3.003372011E0,1.090129986E-1,-3.282029927E-1,-9.363849759E-1
3.005927636E0,1.707829982E-1,-2.951880097E-1,-9.459699988E-1
3.008425553E0,2.336180061E-1,-2.525880039E-1,-9.502300024E-1
3.010923469E0,2.847380042E-1,-1.876229942E-1,-9.576849937E-1
3.013421386E0,3.401179910E-1,-8.644799888E-2,-9.747250080E-1
3.015919303E0,3.954980075E-1,4.135200009E-2,-1.017325044E0
3.018417219E0,4.455530047E-1,1.755419970E-1,-1.089745045E0
3.020915136E0,5.019980073E-1,2.905620039E-1,-1.182399988E0
3.023413053E0,5.616379976E-1,3.789570034E-1,-1.278249979E0
3.025911021E0,6.383180022E-1,4.641569853E-1,-1.365579963E0
3.028408886E0,7.245830297E-1,5.355119705E-1,-1.452909946E0
3.030906855E0,8.172379732E-1,5.983470082E-1,-1.541304946E0
3.033404771E0,8.992429972E-1,6.409469843E-1,-1.623309970E0
3.035970501E0,9.855080247E-1,6.665070057E-1,-1.698925018E0
3.038468417E0,1.068578005E0,6.803519726E-1,-1.770280004E0
3.040966386E0,1.145257950E0,6.771569848E-1,-1.853350043E0
3.043464251E0,1.216613054E0,6.579869986E-1,-1.933225036E0
3.045962219E0,1.275187969E0,6.249719858E-1,-2.004580021E0
3.048460084E0,1.326308012E0,6.058019996E-1,-2.075934887E0
3.050958053E0,1.332697988E0,6.228420138E-1,-2.162199974E0
3.053455969E0,1.294358015E0,6.750270128E-1,-2.247400045E0
3.055953886E0,1.218742967E0,7.527719736E-1,-2.301714897E0
3.058451803E0,1.096268058E0,8.560770154E-1,-2.297455072E0
3.060949719E0,9.120230079E-1,1.024346948E0,-2.249530077E0
3.063447636E0,6.521630287E-1,1.229892015E0,-2.173914909E0
3.065969928E0,4.572679996E-1,1.241606951E0,-2.064219952E0
3.068468678E0,4.391629994E-1,9.242370129E-1,-2.049309969E0
3.070967376E0,4.540730119E-1,5.717219710E-1,-2.140899897E0
3.073466126E0,4.572679996E-1,2.543520033E-1,-2.144094944E0
3.075964824E0,5.105180144E-1,6.206999999E-3,-2.053570032E0
3.078463626E0,5.414029956E-1,-4.704299942E-2,-1.941745043E0
3.080962324E0,5.328829885E-1,9.992700070E-2,-1.766020060E0
3.083461074E0,5.637680292E-1,2.894969881E-1,-1.551954985E0
3.085959771E0,6.415129900E-1,4.641569853E-1,-1.340019941E0
3.088458521E0,7.490779757E-1,5.642669797E-1,-1.163229942E0
3.090957219E0,8.779429793E-1,5.344470143E-1,-1.037559986E0
3.093455969E0,9.908329844E-1,4.407269955E-1,-9.619449973E-1
3.095971699E0,1.065382957E0,3.278369904E-1,-9.299950004E-1
3.098470449E0,1.111178041E0,2.266619951E-1,-9.236050248E-1
3.100969146E0,1.128218055E0,1.595669985E-1,-9.299950004E-1
3.103467896E0,1.117568016E0,1.244219989E-1,-9.491649866E-1
3.105966594E0,1.084553003E0,9.886199981E-2,-9.779199958E-1
3.108465396E0,1.047278047E0,7.649700344E-2,-1.006675005E0
3.110964094E0,9.876379967E-1,4.667700082E-2,-1.027974963E0
3.113462844E0,9.418429732E-1,-4.597799852E-2,-1.037559986E0
3.115961542E0,9.216079712E-1,-1.695179939E-1,-1.038625002E0
3.118460292E0,9.035030007E-1,-3.282029927E-1,-1.023715019E0
3.120958990E0,9.045680165E-1,-5.167080164E-1,-9.970899820E-1
3.123457792E0,9.024379849E-1,-6.998879910E-1,-9.640750289E-1
3.125950292E0,8.917880058E-1,-8.777430058E-1,-9.374499917E-1
3.128449042E0,8.385379910E-1,-1.068377972E0,-9.182800055E-1
3.130947740E0,7.309730053E-1,-1.271793008E0,-9.118899703E-1
3.133446490E0,6.287329793E-1,-1.445387959E0,-9.118899703E-1
3.135945240E0,5.509880185E-1,-1.558277965E0,-9.108250141E-1
3.138443990E0,4.796330035E-1,-1.627503037E0,-9.129549861E-1
3.140942688E0,4.125379920E-1,-1.664777994E0,-9.289299846E-1
3.143441438E0,3.592880070E-1,-1.639217973E0,-9.374499917E-1
3.145940136E0,3.134930134E-1,-1.573187947E0,-9.534249902E-1
3.148438886E0,2.772830129E-1,-1.434738040E0,-9.779199958E-1
3.150937584E0,2.389429957E-1,-1.238777995E0,-1.017325044E0
3.153436334E0,1.697179973E-1,-1.061987996E0,-1.080160022E0
3.155817844E0,7.599800080E-2,-9.086279869E-1,-1.150449991E0
3.158316594E0,-1.985199936E-2,-7.424880266E-1,-1.232455015E0
3.160815292E0,-1.220920011E-1,-5.752829909E-1,-1.295289993E0
3.163314042E0,-2.211370021E-1,-4.027529955E-1,-1.344280005E0
3.165812740E0,-3.084670007E-1,-2.206380069E-1,-1.381554961E0
3.168311542E0,-3.926019967E-1,-5.236800015E-2,-1.412439942E0
3.170810240E0,-4.820620120E-1,8.608199656E-2,-1.434805036E0
3.173308990E0,-5.800420046E-1,2.117519975E-1,-1.446519971E0
3.175807688E0,-6.929320097E-1,3.235769868E-1,-1.447584987E0
3.178306438E0,-8.367069960E-1,4.428569973E-1,-1.437999964E0
3.180805136E0,-9.783520103E-1,6.601169705E-1,-1.426285028E0
3.183303886E0,-1.127452016E0,9.040020108E-1,-1.428414941E0
3.185792896E0,-1.309566975E0,1.037127018E0,-1.433740020E0
3.188291646E0,-1.479966998E0,1.125522017E0,-1.433740020E0
3.190790344E0,-1.634392023E0,1.152147055E0,-1.429479957E0
3.193289094E0,-1.783491969E0,1.130846977E0,-1.408179998E0
3.195787844E0,-1.907032013E0,1.057361960E0,-1.361320019E0
3.198286542E0,-2.014596939E0,9.242370129E-1,-1.311264992E0
3.200785292E0,-2.097666979E0,8.006970286E-1,-1.273990035E0
3.203284042E0,-2.186062098E0,5.876970291E-1,-1.249495029E0
3.205782740E0,-2.311732054E0,2.852370143E-1,-1.246299982E0
3.208281490E0,-2.423557043E0,7.649700344E-2,-1.292094946E0
3.210780188E0,-2.446986914E0,9.992700070E-2,-1.362385035E0
3.213278938E0,-2.442727089E0,2.298569977E-1,-1.423089981E0
3.215775605E0,-2.392672062E0,4.758720100E-1,-1.476340055E0
3.218274355E0,-2.387346983E0,7.080420256E-1,-1.381554961E0
3.220773053E0,-2.300017118E0,7.186920047E-1,-8.171049953E-1
3.223271803E0,-1.995427012E0,2.287919968E-1,-1.259199977E-1
3.225770501E0,-1.569427013E0,-4.847579896E-1,2.702600062E-1
3.228269251E0,-1.148751974E0,-1.218543053E0,3.863449991E-1
3.230768001E0,-7.568320036E-1,-1.813878059E0,3.373549879E-1
3.233266751E0,-4.043169916E-1,-2.185563087E0,2.084899992E-1
3.235765449E0,-1.082469970E-1,-2.286737919E0,4.873999953E-2
3.238264199E0,1.058180034E-1,-2.123792887E0,-1.248549968E-1
3.240762896E0,2.165780067E-1,-1.778733015E0,-2.963199914E-1
3.243261646E0,2.591780126E-1,-1.318652987E0,-4.400950074E-1
3.245762219E0,2.719579935E-1,-8.287529945E-1,-5.359449983E-1
3.248260969E0,2.783479989E-1,-3.878430128E-1,-5.881299973E-1
3.250759667E0,2.996479869E-1,-2.787300013E-2,-5.860000253E-1
3.253258417E0,3.401179910E-1,2.575469911E-1,-5.444650054E-1
3.255757115E0,3.837830126E-1,4.598970115E-1,-4.826950133E-1
3.258255865E0,4.157330096E-1,5.983470082E-1,-4.337050021E-1
3.260754615E0,4.338380098E-1,6.654419899E-1,-4.028199911E-1
3.263253365E0,4.455530047E-1,6.111270189E-1,-4.060150087E-1
3.265752063E0,4.487479925E-1,3.757619858E-1,-4.592649937E-1
3.268250813E0,4.625929892E-1,-1.908179969E-1,-5.742849708E-1
3.270749563E0,4.711129963E-1,-7.701780200E-1,-7.223200202E-1
3.273248261E0,4.434230030E-1,-7.073429823E-1,-8.202999830E-1
3.275725136E0,3.965629935E-1,-7.222530246E-1,-8.650299907E-1
3.278223834E0,3.262729943E-1,-7.094730139E-1,-9.246699810E-1
3.280722532E0,2.368129939E-1,-5.529180169E-1,-9.566199780E-1
3.283221282E0,1.377680004E-1,-4.496130049E-1,-9.406449795E-1
3.285720032E0,4.617799819E-2,-3.282029927E-1,-8.927199841E-1
3.288218782E0,-3.476199880E-2,-2.472629994E-1,-8.362749815E-1
3.290717480E0,-1.199619994E-1,-1.929479986E-1,-7.553349733E-1
3.293216230E0,-1.827969998E-1,-1.120079979E-1,-6.200799942E-1
3.295714928E0,-1.604319960E-1,8.288700134E-2,-5.284900069E-1
3.298213730E0,-1.561720073E-1,8.395200223E-2,-5.423349738E-1
3.300712428E0,-1.540420055E-1,-3.426299989E-2,-5.465949774E-1
3.303211178E0,-1.391319931E-1,-1.727129966E-1,-5.423349738E-1
3.305976959E0,-1.465869993E-1,-3.431130052E-1,-5.487250090E-1
3.308475657E0,-1.487170011E-1,-4.208579957E-1,-5.774800181E-1
3.310974407E0,-1.444569975E-1,-3.910380006E-1,-6.232749820E-1
3.313473157E0,-1.380670071E-1,-3.100979924E-1,-6.669399738E-1
3.315971855E0,-1.327420026E-1,-1.940129995E-1,-6.924999952E-1
3.318470605E0,-1.348720044E-1,-6.088799983E-2,-6.999549866E-1
3.320969355E0,-1.487170011E-1,7.756199688E-2,-6.882399917E-1
3.323468053E0,-1.998369992E-1,2.117519975E-1,-6.637449861E-1
3.325966803E0,-2.733219862E-1,3.629820049E-1,-6.296650171E-1
3.328465553E0,-3.659769893E-1,5.099520087E-1,-5.881299973E-1
3.330964251E0,-4.639570117E-1,6.420120001E-1,-5.476599932E-1
3.333463001E0,-5.502219796E-1,7.623569965E-1,-5.167750120E-1
3.335778730E0,-6.332920194E-1,8.816369772E-1,-5.029299855E-1
3.338277480E0,-7.014520168E-1,9.902669787E-1,-4.997349977E-1
3.340776178E0,-7.504420280E-1,1.074401975E0,-5.157099962E-1
3.343274928E0,-7.855870128E-1,1.127652049E0,-5.359449983E-1
3.345773626E0,-8.015620112E-1,1.162796974E0,-5.604400039E-1
3.348272376E0,-7.983670235E-1,1.179836988E0,-5.945199728E-1
3.350771126E0,-7.696120143E-1,1.169186950E0,-6.168850064E-1
3.353269876E0,-7.248820066E-1,1.124457002E0,-6.360549927E-1
3.355768574E0,-6.663069725E-1,1.050971985E0,-6.552249789E-1
3.358267324E0,-5.949519873E-1,9.508619905E-1,-6.669399738E-1
3.360766074E0,-5.108169913E-1,8.262569904E-1,-6.754599810E-1
3.363264824E0,-4.234870076E-1,6.920670271E-1,-6.786550283E-1
3.365722271E0,-3.308320045E-1,5.525519848E-1,-6.711999774E-1
3.368221021E0,-2.371120006E-1,4.141019881E-1,-6.530950069E-1
3.370719771E0,-1.412619948E-1,2.767170072E-1,-6.211450100E-1
3.373218521E0,-4.967200011E-2,1.489170045E-1,-5.774800181E-1
3.375717167E0,3.765799850E-2,2.111699991E-2,-5.306199789E-1
3.378215969E0,1.185979992E-1,-8.751299977E-2,-4.826950133E-1
3.380714719E0,1.910180002E-1,-1.876229942E-1,-4.347699881E-1
3.383213417E0,2.527880073E-1,-2.706930041E-1,-3.932349980E-1
3.385712167E0,3.039079905E-1,-3.271380067E-1,-3.698050082E-1
3.388210865E0,3.475730121E-1,-3.548280001E-1,-3.623499870E-1
3.390709615E0,3.752630055E-1,-3.644129932E-1,-3.676750064E-1
3.393208365E0,3.965629935E-1,-3.612180054E-1,-3.825849891E-1
3.395711021E0,4.082779884E-1,-3.463079929E-1,-4.006899893E-1
3.398209771E0,4.093430042E-1,-3.313980103E-1,-4.187949896E-1
3.400708521E0,4.040180147E-1,-3.132930100E-1,-4.315750003E-1
3.403207219E0,3.923029900E-1,-2.930580080E-1,-4.400950074E-1
3.405705969E0,3.699379861E-1,-2.717579901E-1,-4.432899952E-1
3.408204719E0,3.507679999E-1,-2.472629994E-1,-4.400950074E-1
3.410703417E0,3.262729943E-1,-2.142480016E-1,-4.251849949E-1
3.413202167E0,3.081679940E-1,-1.844280064E-1,-4.092099965E-1
3.415700917E0,2.900629938E-1,-1.705829948E-1,-3.889749944E-1
3.418199667E0,2.719579935E-1,-1.844280064E-1,-3.644799888E-1
3.420698365E0,2.559829950E-1,-2.174430043E-1,-3.410499990E-1
3.423197115E0,2.676979899E-1,-2.770830095E-1,-3.176200092E-1
3.425708626E0,3.113630116E-1,-3.793230057E-1,-3.485049903E-1
3.428207376E0,3.912380040E-1,-5.039280057E-1,-4.422250092E-1
3.430706074E0,5.019980073E-1,-6.413130164E-1,-5.604400039E-1
3.433204824E0,6.372529864E-1,-7.904130220E-1,-6.967599988E-1
3.435703521E0,7.671830058E-1,-9.107580185E-1,-8.330799937E-1
3.438202271E0,8.609030247E-1,-9.778530002E-1,-9.555550218E-1
3.440701021E0,9.098929763E-1,-9.948930144E-1,-1.041820049E0
3.443199771E0,8.992429972E-1,-9.682679772E-1,-1.096135020E0
3.445698469E0,8.470579982E-1,-9.086279869E-1,-1.122760057E0
3.448197219E0,7.767680287E-1,-8.234279752E-1,-1.137670040E0
3.450695969E0,6.936979890E-1,-7.233179808E-1,-1.150449991E0
3.453194667E0,5.989130139E-1,-6.200129986E-1,-1.166424990E0
3.455712949E0,5.083879828E-1,-5.316179991E-1,-1.183465004E0
3.458211699E0,4.104079902E-1,-4.655880034E-1,-1.193050027E0
3.460710396E0,3.081679940E-1,-4.208579957E-1,-1.188789964E0
3.463209146E0,2.080579996E-1,-3.963629901E-1,-1.177075028E0
3.465707896E0,1.154029965E-1,-3.835830092E-1,-1.148319960E0
3.468206594E0,3.126800060E-2,-3.750630021E-1,-1.115304947E0
3.470705344E0,-4.008699954E-2,-3.835830092E-1,-1.062054992E0
3.473204094E0,-9.866199642E-2,-3.878430128E-1,-9.949600101E-1
3.475702792E0,-1.423269957E-1,-3.686729968E-1,-9.225400090E-1
3.478201542E0,-1.689520031E-1,-3.377879858E-1,-8.362749815E-1
3.480700292E0,-1.902520061E-1,-2.962529957E-1,-7.414900064E-1
3.483198990E0,-2.030320019E-1,-2.408729941E-1,-6.445749998E-1
3.485684563E0,-2.126169950E-1,-1.865579933E-1,-5.327500105E-1
3.488183313E0,-2.126169950E-1,-1.375679970E-1,-4.156000018E-1
3.490682011E0,-2.190070003E-1,-9.603299946E-2,-2.995150089E-1
3.493180761E0,-2.275269926E-1,-5.982299894E-2,-1.759749949E-1
3.495679511E0,-2.328519970E-1,-2.148300037E-2,-4.710999876E-2
3.498178209E0,-2.339169979E-1,3.602699935E-2,8.175499737E-2
3.500676959E0,-2.328519970E-1,1.073819995E-1,1.967750043E-1
3.503175709E0,-2.253970057E-1,1.936469972E-1,3.096649945E-1
3.505674407E0,-2.072920054E-1,2.852370143E-1,4.417249858E-1
3.508173157E0,-1.678870022E-1,3.320969939E-1,5.397049785E-1
3.510671907E0,-1.082469970E-1,2.692619860E-1,4.523749948E-1
3.513170605E0,-5.073700100E-2,1.052519977E-1,1.914499998E-1
3.515687428E0,7.837999612E-3,-7.899300009E-2,-1.291150004E-1
3.518186178E0,8.877799660E-2,-2.344830036E-1,-4.315750003E-1
3.520684876E0,2.037979960E-1,-3.558929861E-1,-6.914349794E-1
3.523183574E0,3.284029961E-1,-4.315080047E-1,-9.001749754E-1
3.525682324E0,4.487479925E-1,-4.986029863E-1,-1.046079993E0
3.528181074E0,5.488579869E-1,-5.901929736E-1,-1.131279945E0
3.530679824E0,6.415129900E-1,-6.828479767E-1,-1.149384975E0
3.533178521E0,7.341679931E-1,-7.573980093E-1,-1.105720043E0
3.535677271E0,8.257579803E-1,-8.127779961E-1,-1.014129996E0
3.538176021E0,9.056329727E-1,-8.447279930E-1,-9.001749754E-1
3.540674719E0,9.801830053E-1,-8.511180282E-1,-7.915449739E-1
3.543173469E0,1.031303048E0,-8.234279752E-1,-7.084749937E-1
3.545684199E0,1.053668022E0,-7.755029798E-1,-6.456400156E-1
3.548182949E0,1.064317942E0,-7.329030037E-1,-6.019750237E-1
3.550681646E0,1.046213031E0,-7.030829787E-1,-5.721549988E-1
3.553180396E0,1.001482964E0,-6.945629716E-1,-5.519199967E-1
3.555679094E0,9.354529977E-1,-7.052130103E-1,-5.359449983E-1
3.558177844E0,8.459929824E-1,-7.254480124E-1,-5.135800242E-1
3.560676594E0,7.416229844E-1,-7.499430180E-1,-4.901500046E-1
3.563175344E0,6.234080195E-1,-7.776330113E-1,-4.645900130E-1
3.565674042E0,4.988029897E-1,-7.786980271E-1,-4.411599934E-1
3.568172792E0,3.741979897E-1,-7.510079741E-1,-4.156000018E-1
3.570671542E0,2.495930046E-1,-6.988229752E-1,-3.921700120E-1
3.573170240E0,1.313779950E-1,-6.189479828E-1,-4.028199911E-1
3.575671959E0,2.487800084E-2,-4.879530072E-1,-3.804549873E-1
3.578170709E0,-6.138699874E-2,-3.441779912E-1,-3.122949898E-1
3.580669407E0,-1.263519973E-1,-2.057279944E-1,-2.430700064E-1
3.583168105E0,-1.913170069E-1,-7.579799742E-2,-1.759749949E-1
3.585666907E0,-2.530870140E-1,2.111699991E-2,-1.184649989E-1
3.588165605E0,-3.265720010E-1,9.779699892E-2,-6.841000170E-2
3.590664355E0,-4.085769951E-1,1.616970003E-1,-3.113500029E-2
3.593163053E0,-4.905819893E-1,2.000370026E-1,-3.444999922E-3
3.595661803E0,-5.779119730E-1,2.224020064E-1,1.679000072E-2
3.598160553E0,-6.567220092E-1,2.330520004E-1,2.531000040E-2
3.600659251E0,-7.302070260E-1,2.373120040E-1,3.382999822E-2
3.603158001E0,-8.004969954E-1,2.447669953E-1,4.341499880E-2
3.605569199E0,-8.601369858E-1,2.532869875E-1,4.128500074E-2
3.608067949E0,-9.080619812E-1,2.607420087E-1,3.702500090E-2
3.610566646E0,-9.474670291E-1,2.681970000E-1,2.531000040E-2
3.613065396E0,-9.719619751E-1,2.767170072E-1,1.146499999E-2
3.615564094E0,-9.772869945E-1,2.788470089E-1,-7.705000229E-3
3.618062844E0,-9.751570225E-1,2.777819932E-1,-2.474500053E-2
3.620561594E0,-9.581170082E-1,2.713919878E-1,-4.710999876E-2
3.623060344E0,-9.208419919E-1,2.596769929E-1,-8.118999749E-2
3.625559094E0,-8.580070138E-1,2.181420028E-1,-1.280499995E-1
3.628057792E0,-7.376620173E-1,1.116420031E-1,-2.089899927E-1
3.630556542E0,-5.832369924E-1,-4.704299942E-2,-3.122949898E-1
3.633055292E0,-4.075120091E-1,-2.131830007E-1,-4.166649878E-1
3.635617324E0,-2.104869932E-1,-3.729330003E-1,-5.199699998E-1
3.638116074E0,1.447999966E-3,-5.177729726E-1,-6.126250029E-1
3.640614771E0,2.048629969E-1,-6.327930093E-1,-6.829149723E-1
3.643113521E0,3.901729882E-1,-7.137330174E-1,-7.372300029E-1
3.645612219E0,5.467280149E-1,-7.733730078E-1,-7.777000070E-1
3.648110969E0,6.819829941E-1,-8.159729838E-1,-7.958049774E-1
3.650609719E0,7.810279727E-1,-8.457930088E-1,-8.043249846E-1
3.653108469E0,8.385379910E-1,-8.649629951E-1,-8.043249846E-1
3.655607167E0,8.534479737E-1,-8.809379935E-1,-8.032600284E-1
3.658105917E0,8.438630104E-1,-8.905230165E-1,-7.968699932E-1
3.660604667E0,8.076530099E-1,-9.043679833E-1,-7.904800177E-1
3.663103365E0,7.565330267E-1,-9.182130098E-1,-7.840899825E-1
3.665607428E0,6.958280206E-1,-9.277979732E-1,-7.808949947E-1
3.668106178E0,6.244729757E-1,-9.373829961E-1,-7.798299789E-1
3.670604928E0,5.552480221E-1,-9.427080154E-1,-7.766349912E-1
3.673103678E0,4.881530106E-1,-9.469680190E-1,-7.745050192E-1
3.675602324E0,4.274480045E-1,-9.469680190E-1,-7.713099718E-1
3.678101126E0,3.710030019E-1,-9.459030032E-1,-7.723749876E-1
3.680599876E0,3.230780065E-1,-9.469680190E-1,-7.723749876E-1
3.683098574E0,2.783479989E-1,-9.448379874E-1,-7.766349912E-1
3.685597324E0,2.463980019E-1,-9.459030032E-1,-7.851549983E-1
3.688096074E0,2.208379954E-1,-9.501630068E-1,-7.904800177E-1
3.690594771E0,2.006029934E-1,-9.554880261E-1,-8.011299968E-1
3.693093521E0,1.856929958E-1,-9.618780017E-1,-8.064550161E-1
3.695548990E0,1.771730036E-1,-9.725279808E-1,-8.139100075E-1
3.698047740E0,1.761080027E-1,-9.831780195E-1,-8.266900182E-1
3.700546438E0,1.739780009E-1,-9.916980267E-1,-8.341450095E-1
3.703045188E0,1.803680062E-1,-9.980880022E-1,-8.416000009E-1
3.705543938E0,1.888879985E-1,-1.007673025E0,-8.511850238E-1
3.708042688E0,2.016679943E-1,-1.018322945E0,-8.597049713E-1
3.710541438E0,2.197729945E-1,-1.022583008E0,-8.724849820E-1
3.713040136E0,2.357479930E-1,-1.033233047E0,-8.820700049E-1
3.715538886E0,2.506580055E-1,-1.053467989E0,-8.937849998E-1
3.718037636E0,2.740879953E-1,-1.070508003E0,-9.076300263E-1
3.720536334E0,2.921929955E-1,-1.091807961E0,-9.118899703E-1
3.723035084E0,3.113630116E-1,-1.117367983E0,-9.214749932E-1
3.725566230E0,3.315980136E-1,-1.141862988E0,-9.331899881E-1
3.728064980E0,3.454430103E-1,-1.167423010E0,-9.363849759E-1
3.730563678E0,3.592880070E-1,-1.188722968E0,-9.459699988E-1
3.733062376E0,3.710030019E-1,-1.203632951E0,-9.459699988E-1
3.735561178E0,3.816530108E-1,-1.205762982E0,-9.459699988E-1
3.738059876E0,3.859130144E-1,-1.201503038E0,-9.438400269E-1
3.740558574E0,3.944329917E-1,-1.189787984E0,-9.417099953E-1
3.743057324E0,3.997580111E-1,-1.177008033E0,-9.374499917E-1
3.745556074E0,4.040180147E-1,-1.162098050E0,-9.374499917E-1
3.748054824E0,4.072130024E-1,-1.142928004E0,-9.363849759E-1
3.750553574E0,4.136030078E-1,-1.123757958E0,-9.406449795E-1
3.753052271E0,4.199930131E-1,-1.106717944E0,-9.480999708E-1
3.755529459E0,4.263829887E-1,-1.095003009E0,-9.512950182E-1
3.758028209E0,4.359680116E-1,-1.085417986E0,-9.534249902E-1
3.760526907E0,4.455530047E-1,-1.081158042E0,-9.598150253E-1
3.763025605E0,4.572679996E-1,-1.079028010E0,-9.640750289E-1
3.765524407E0,4.689829946E-1,-1.084352970E0,-9.672700167E-1
3.768023105E0,4.817630053E-1,-1.095003009E0,-9.736599922E-1
3.770521855E0,4.934780002E-1,-1.102458000E0,-9.800500274E-1
3.773020605E0,5.041279793E-1,-1.114173055E0,-9.864400029E-1
3.775519303E0,5.158429742E-1,-1.122692943E0,-9.949600101E-1
3.778018053E0,5.318179727E-1,-1.124822974E0,-1.000285029E0
3.780516803E0,5.350130200E-1,-1.131212950E0,-1.004544973E0
3.783015501E0,5.414029956E-1,-1.133342981E0,-1.011999965E0
3.785506855E0,5.531179905E-1,-1.125887990E0,-1.016260028E0
3.788005553E0,5.605729818E-1,-1.114173055E0,-1.020519972E0
3.790504251E0,5.605729818E-1,-1.100327969E0,-1.024780035E0
3.793003053E0,5.605729818E-1,-1.087548018E0,-1.026909947E0
3.795501751E0,5.573779941E-1,-1.069442987E0,-1.031170011E0
3.798000501E0,5.552480221E-1,-1.051337957E0,-1.032235026E0
3.800499199E0,5.499230027E-1,-1.035362959E0,-1.030104995E0
3.802997949E0,5.445979834E-1,-1.016193032E0,-1.025845051E0
3.805496646E0,5.403379798E-1,-9.948930144E-1,-1.014129996E0
3.807995396E0,5.264930129E-1,-9.725279808E-1,-1.004544973E0
3.810494146E0,5.232980251E-1,-9.469680190E-1,-9.949600101E-1
3.812992896E0,5.201029778E-1,-9.235380292E-1,-9.853749871E-1
3.815533209E0,5.041279793E-1,-9.001079798E-1,-9.832450151E-1
3.818031907E0,4.913479984E-1,-8.777430058E-1,-9.864400029E-1
3.820530657E0,4.817630053E-1,-8.585730195E-1,-9.960250258E-1
3.823029407E0,4.721780121E-1,-8.447279930E-1,-1.004544973E0
3.825528157E0,4.689829946E-1,-8.447279930E-1,-1.011999965E0
3.828026855E0,4.657880068E-1,-8.521829844E-1,-1.018390059E0
3.830525605E0,4.647229910E-1,-8.681579828E-1,-1.024780035E0
3.833024303E0,4.721780121E-1,-8.915879726E-1,-1.032235026E0
3.835523053E0,4.817630053E-1,-9.224730134E-1,-1.037559986E0
3.838021803E0,4.956080019E-1,-9.554880261E-1,-1.037559986E0
3.840520501E0,5.211679935E-1,-9.906330109E-1,-1.038625002E0
3.843019251E0,5.414029956E-1,-1.027907968E0,-1.037559986E0
3.845504146E0,5.658980012E-1,-1.067312956E0,-1.035429955E0
3.848002896E0,5.925229788E-1,-1.105653048E0,-1.035429955E0
3.850501646E0,6.180830002E-1,-1.145058036E0,-1.041820049E0
3.853000344E0,6.383180022E-1,-1.183398008E0,-1.046079993E0
3.855499094E0,6.606829762E-1,-1.219607949E0,-1.049275041E0
3.857997844E0,6.777229905E-1,-1.250493050E0,-1.051404953E0
3.860496542E0,6.915680170E-1,-1.283507943E0,-1.058859944E0
3.862995292E0,6.968929768E-1,-1.310132980E0,-1.066315055E0
3.865494042E0,7.000880241E-1,-1.331433058E0,-1.072705030E0
3.867992740E0,6.968929768E-1,-1.346343040E0,-1.079095006E0
3.870491490E0,6.905030012E-1,-1.360188007E0,-1.087615013E0
3.872990188E0,6.798530221E-1,-1.367642999E0,-1.097200036E0
3.875454146E0,6.628130078E-1,-1.367642999E0,-1.108914971E0
3.877952896E0,6.404479742E-1,-1.363383055E0,-1.114240050E0
3.880451646E0,6.255379915E-1,-1.356992960E0,-1.121695042E0
3.882950344E0,5.989130139E-1,-1.344213009E0,-1.127020001E0
3.885449094E0,5.744180083E-1,-1.329303026E0,-1.132344961E0
3.887947844E0,5.509880185E-1,-1.316522956E0,-1.141929984E0
3.890446594E0,5.243629813E-1,-1.300547957E0,-1.139799953E0
3.892945292E0,4.998680055E-1,-1.273923039E0,-1.140864968E0
3.895444042E0,4.743080139E-1,-1.248363018E0,-1.142995000E0
3.897942792E0,4.519430101E-1,-1.217478037E0,-1.141929984E0
3.900441438E0,4.242529869E-1,-1.181267977E0,-1.137670040E0
3.902940188E0,3.997580111E-1,-1.139732957E0,-1.137670040E0
3.905468261E0,3.773930073E-1,-1.103523016E0,-1.131279945E0
3.907967011E0,3.560929894E-1,-1.075832963E0,-1.121695042E0
3.910465709E0,3.347930014E-1,-1.048143029E0,-1.114240050E0
3.912964459E0,3.166880012E-1,-1.026842952E0,-1.107849956E0
3.915463209E0,2.943229973E-1,-1.012997985E0,-1.099329948E0
3.917961959E0,2.847380042E-1,-1.002347946E0,-1.092939973E0
3.920460657E0,2.847380042E-1,-1.002347946E0,-1.091874957E0
3.922959355E0,2.889980078E-1,-1.003412962E0,-1.083354950E0
3.925458105E0,2.943229973E-1,-1.014063001E0,-1.079095006E0
3.927956855E0,3.049730062E-1,-1.034297943E0,-1.086549997E0
3.930455605E0,3.188180029E-1,-1.066248059E0,-1.092939973E0
3.932954355E0,3.347930014E-1,-1.102458000E0,-1.101459980E0
3.935466282E0,3.528980017E-1,-1.142928004E0,-1.109979987E0
3.937964980E0,3.720679879E-1,-1.181267977E0,-1.117434978E0
3.940463730E0,3.880429864E-1,-1.219607949E0,-1.122760057E0
3.942962480E0,4.018880129E-1,-1.249428034E0,-1.118499994E0
3.945461230E0,4.114730060E-1,-1.277117968E0,-1.117434978E0
3.947959928E0,4.210579991E-1,-1.300547957E0,-1.115304947E0
3.950458678E0,4.253180027E-1,-1.321848035E0,-1.116369963E0
3.952957428E0,4.338380098E-1,-1.344213009E0,-1.115304947E0
3.955456126E0,4.487479925E-1,-1.359122992E0,-1.115304947E0
3.957954876E0,4.604629874E-1,-1.370838046E0,-1.108914971E0
3.960453626E0,4.775030017E-1,-1.387877941E0,-1.106785059E0
3.962952324E0,4.924130142E-1,-1.399592996E0,-1.103590012E0
3.965434667E0,5.105180144E-1,-1.404917955E0,-1.092939973E0
3.967933417E0,5.275580287E-1,-1.412372947E0,-1.083354950E0
3.970432115E0,5.456629992E-1,-1.420892954E0,-1.068444967E0
3.972930813E0,5.637680292E-1,-1.431542993E0,-1.050340056E0
3.975429563E0,5.797430277E-1,-1.441128016E0,-1.031170011E0
3.977928313E0,5.914580226E-1,-1.443258047E0,-1.010934949E0
3.980427063E0,5.989130139E-1,-1.437932968E0,-9.917650223E-1
3.982925761E0,5.989130139E-1,-1.427283049E0,-9.715300202E-1
3.985424511E0,5.989130139E-1,-1.411308050E0,-9.470350146E-1
3.987923261E0,5.914580226E-1,-1.392138004E0,-9.225400090E-1
3.990422011E0,5.818729997E-1,-1.368708014E0,-8.948500156E-1
3.992920709E0,5.680279732E-1,-1.342082977E0,-8.660950065E-1
3.995412219E0,5.552480221E-1,-1.318652987E0,-8.394700289E-1
3.997910969E0,5.467280149E-1,-1.294157982E0,-8.149750233E-1
4.000409719E0,5.360779762E-1,-1.268597960E0,-7.904800177E-1
4.002908417E0,5.254279971E-1,-1.244102955E0,-7.702450156E-1
4.005407167E0,5.137130022E-1,-1.216413021E0,-7.542700171E-1
4.007905917E0,5.041279793E-1,-1.182332993E0,-7.372300029E-1
4.010404615E0,4.956080019E-1,-1.151448011E0,-7.265800238E-1
4.012903365E0,4.828279912E-1,-1.120563030E0,-7.191249728E-1
4.015402115E0,4.732429981E-1,-1.086483002E0,-7.106050253E-1
4.017900813E0,4.636580050E-1,-1.058792949E0,-7.052800059E-1
4.020399563E0,4.498130083E-1,-1.038558006E0,-7.020850182E-1
4.022898261E0,4.349029958E-1,-1.026842952E0,-6.988899708E-1
4.025368417E0,4.189279974E-1,-1.025778055E0,-7.031499743E-1
4.027867167E0,4.072130024E-1,-1.026842952E0,-7.063450217E-1
4.030365865E0,3.933680058E-1,-1.036427975E0,-7.106050253E-1
4.032864615E0,3.784579933E-1,-1.047078013E0,-7.191249728E-1
4.035363365E0,3.667429984E-1,-1.057728052E0,-7.319049835E-1
4.037862063E0,3.550280035E-1,-1.063053012E0,-7.393599749E-1
4.040360813E0,3.465079963E-1,-1.069442987E0,-7.489449978E-1
4.042859563E0,3.326629996E-1,-1.072638035E0,-7.595949769E-1
4.045358313E0,3.177529871E-1,-1.075832963E0,-7.670500278E-1
4.047857011E0,3.060379922E-1,-1.073703051E0,-7.734400034E-1
4.050355761E0,2.921929955E-1,-1.064118028E0,-7.766349912E-1
4.052854511E0,2.804780006E-1,-1.059857965E0,-7.808949947E-1
4.055411490E0,2.708930075E-1,-1.040688038E0,-7.872849703E-1
4.057910240E0,2.591780126E-1,-1.024713039E0,-7.894150019E-1
4.060408938E0,2.474630028E-1,-1.005542994E0,-7.947400212E-1
4.062907688E0,2.346830070E-1,-9.906330109E-1,-8.011299968E-1
4.065406438E0,2.272280008E-1,-9.853079915E-1,-8.043249846E-1
4.067905136E0,2.250979990E-1,-9.746580124E-1,-8.032600284E-1
4.070403886E0,2.197729945E-1,-9.682679772E-1,-8.043249846E-1
4.072902636E0,2.187079936E-1,-9.544230103E-1,-8.032600284E-1
4.075401334E0,2.112530023E-1,-9.299280047E-1,-7.979350090E-1
4.077900084E0,1.942130029E-1,-8.905230165E-1,-7.947400212E-1
4.080398834E0,1.761080027E-1,-8.436629772E-1,-7.947400212E-1
4.082897532E0,1.569380015E-1,-7.925429940E-1,-8.043249846E-1
4.085337844E0,1.335079968E-1,-7.329030037E-1,-8.202999830E-1
4.087836386E0,1.068829969E-1,-6.828479767E-1,-8.373399973E-1
4.090334876E0,8.877799660E-2,-6.264029741E-1,-8.586400151E-1
4.092833417E0,6.641300023E-2,-5.742179751E-1,-8.756800294E-1
4.095331907E0,5.363300070E-2,-5.220329762E-1,-8.927199841E-1
4.097830396E0,4.724299908E-2,-4.773029983E-1,-9.076300263E-1
4.100328938E0,4.724299908E-2,-4.474830031E-1,-9.150850177E-1
4.102827428E0,5.789300054E-2,-4.336380064E-1,-9.204099774E-1
4.105325917E0,7.386799902E-2,-4.272480011E-1,-9.225400090E-1
4.107824459E0,9.729799628E-2,-4.368329942E-1,-9.172149897E-1
4.110322949E0,1.271180063E-1,-4.623929858E-1,-9.118899703E-1
4.112821438E0,1.611980051E-1,-5.028629899E-1,-9.118899703E-1
4.115386907E0,1.984730065E-1,-5.486580133E-1,-9.172149897E-1
4.117885396E0,2.293580025E-1,-5.965830088E-1,-9.268000126E-1
4.120383886E0,2.623730004E-1,-6.498330235E-1,-9.342550039E-1
4.122882428E0,3.028430045E-1,-7.137330174E-1,-9.331899881E-1
4.125380917E0,3.465079963E-1,-7.882829905E-1,-9.321249723E-1
4.127879407E0,3.869780004E-1,-8.660280108E-1,-9.310600162E-1
4.130377949E0,4.178630114E-1,-9.277979732E-1,-9.353200197E-1
4.132876438E0,4.370329976E-1,-9.757230282E-1,-9.459699988E-1
4.135374928E0,4.423579872E-1,-9.991530180E-1,-9.640750289E-1
4.137873469E0,4.391629994E-1,-1.004477978E0,-9.768549800E-1
4.140371959E0,4.306429923E-1,-1.002347946E0,-9.885699749E-1
4.142870449E0,4.189279974E-1,-9.948930144E-1,-9.970899820E-1
4.145338730E0,4.018880129E-1,-9.799829721E-1,-1.001350045E0
4.147837219E0,3.848479986E-1,-9.629430175E-1,-1.008805037E0
4.150335761E0,3.710030019E-1,-9.565529823E-1,-1.017325044E0
4.152834251E0,3.603529930E-1,-9.608129859E-1,-1.021584988E0
4.155332792E0,3.539629877E-1,-9.661380053E-1,-1.029039979E0
4.157831282E0,3.560929894E-1,-9.725279808E-1,-1.031170011E0
4.160329771E0,3.624829948E-1,-9.831780195E-1,-1.024780035E0
4.162828261E0,3.667429984E-1,-9.938279986E-1,-1.021584988E0
4.165326803E0,3.741979897E-1,-1.014063001E0,-1.016260028E0
4.167825292E0,3.795230091E-1,-1.032168031E0,-1.001350045E0
4.170323782E0,3.816530108E-1,-1.043882966E0,-9.885699749E-1
4.172822324E0,3.891080022E-1,-1.059857965E0,-9.789850116E-1
4.175291386E0,3.891080022E-1,-1.076897979E0,-9.693999887E-1
4.177789928E0,3.901729882E-1,-1.086483002E0,-9.555550218E-1
4.180288417E0,3.923029900E-1,-1.097133040E0,-9.385150075E-1
4.182786959E0,3.912380040E-1,-1.105653048E0,-9.268000126E-1
4.185285449E0,3.965629935E-1,-1.118432999E0,-9.161499739E-1
4.187783938E0,3.944329917E-1,-1.137603045E0,-9.044349790E-1
4.190282480E0,3.965629935E-1,-1.164227962E0,-8.884599805E-1
4.192780969E0,3.954980075E-1,-1.189787984E0,-8.767449856E-1
4.195279459E0,4.018880129E-1,-1.208958030E0,-8.639649749E-1
4.197778001E0,4.072130024E-1,-1.222802997E0,-8.490549922E-1
4.200276490E0,4.093430042E-1,-1.236647964E0,-8.288199902E-1
4.202774980E0,4.167979956E-1,-1.250493050E0,-8.064550161E-1
4.205269876E0,4.242529869E-1,-1.253687978E0,-7.904800177E-1
4.207768417E0,4.285129905E-1,-1.261142969E0,-7.766349912E-1
4.210266907E0,4.306429923E-1,-1.261142969E0,-7.649199963E-1
4.212765396E0,4.317080081E-1,-1.268597960E0,-7.510750294E-1
4.215263938E0,4.338380098E-1,-1.277117968E0,-7.425550222E-1
4.217762428E0,4.444879889E-1,-1.288833022E0,-7.350999713E-1
4.220260917E0,4.519430101E-1,-1.310132980E0,-7.308400273E-1
4.222759459E0,4.615280032E-1,-1.335693002E0,-7.265800238E-1
4.225257949E0,4.689829946E-1,-1.364447951E0,-7.201899886E-1
4.227756490E0,4.689829946E-1,-1.393203020E0,-7.116699815E-1
4.230254980E0,4.753729999E-1,-1.424088001E0,-7.063450217E-1
4.232753469E0,4.796330035E-1,-1.452842951E0,-7.052800059E-1
4.235297949E0,4.828279912E-1,-1.487987995E0,-6.978250146E-1
4.237796438E0,4.881530106E-1,-1.518872976E0,-6.924999952E-1
4.240294980E0,4.870879948E-1,-1.546563029E0,-6.850450039E-1
4.242793521E0,4.849579930E-1,-1.575317979E0,-6.797199845E-1
4.245292011E0,4.870879948E-1,-1.592357993E0,-6.733300090E-1
4.247790501E0,4.892179966E-1,-1.616852999E0,-6.669399738E-1
4.250289042E0,4.956080019E-1,-1.645607948E0,-6.637449861E-1
4.252787532E0,4.966729879E-1,-1.670102954E0,-6.573550105E-1
4.255286021E0,4.977380037E-1,-1.697793007E0,-6.562899947E-1
4.257784563E0,4.977380037E-1,-1.720157981E0,-6.541600227E-1
4.260283001E0,4.945429862E-1,-1.738263011E0,-6.499000192E-1
4.262781542E0,4.977380037E-1,-1.760627985E0,-6.435099840E-1
4.265269615E0,4.977380037E-1,-1.777667999E0,-6.413800120E-1
4.267768157E0,4.934780002E-1,-1.796838045E0,-6.371200085E-1
4.270266646E0,4.934780002E-1,-1.812813044E0,-6.392499804E-1
4.272765188E0,4.934780002E-1,-1.820268035E0,-6.467049718E-1
4.275263678E0,4.860230088E-1,-1.821333051E0,-6.541600227E-1
4.277762167E0,4.753729999E-1,-1.821333051E0,-6.658750176E-1
4.280260709E0,4.668529928E-1,-1.817072988E0,-6.786550283E-1
4.282759199E0,4.636580050E-1,-1.811748028E0,-6.903700233E-1
4.285257688E0,4.562030137E-1,-1.798967957E0,-6.946300268E-1
4.287756178E0,4.508779943E-1,-1.786188006E0,-7.010200024E-1
4.290254719E0,4.498130083E-1,-1.785122991E0,-7.084749937E-1
4.292753209E0,4.455530047E-1,-1.782992959E0,-7.212550044E-1
4.295291490E0,4.380980134E-1,-1.778733015E0,-7.276449800E-1
4.297789980E0,4.349029958E-1,-1.780863047E0,-7.340350151E-1
4.300288469E0,4.295780063E-1,-1.782992959E0,-7.340350151E-1
4.302787011E0,4.306429923E-1,-1.784057975E0,-7.393599749E-1
4.305285501E0,4.274480045E-1,-1.787253022E0,-7.404249907E-1
4.307783990E0,4.263829887E-1,-1.787253022E0,-7.414900064E-1
4.310282532E0,4.274480045E-1,-1.788318038E0,-7.478799820E-1
4.312781021E0,4.253180027E-1,-1.789383054E0,-7.521399856E-1
4.315279511E0,4.189279974E-1,-1.795773029E0,-7.532050014E-1
4.317778053E0,4.189279974E-1,-1.800032973E0,-7.563999891E-1
4.320276542E0,4.104079902E-1,-1.803228021E0,-7.638549805E-1
4.322775032E0,3.976280093E-1,-1.806422949E0,-7.670500278E-1
4.325215396E0,3.859130144E-1,-1.808552980E0,-7.670500278E-1
4.327713886E0,3.752630055E-1,-1.809617996E0,-7.681149840E-1
4.330212428E0,3.646129966E-1,-1.812813044E0,-7.745050192E-1
4.332710865E0,3.518329859E-1,-1.811748028E0,-7.766349912E-1
4.335209407E0,3.401179910E-1,-1.808552980E0,-7.745050192E-1
4.337707896E0,3.284029961E-1,-1.803228021E0,-7.691799998E-1
4.340206438E0,3.230780065E-1,-1.793642998E0,-7.659850121E-1
4.342704928E0,3.156229854E-1,-1.779798031E0,-7.574650049E-1
4.345203469E0,3.134930134E-1,-1.768082976E0,-7.510750294E-1
4.347701907E0,3.113630116E-1,-1.763823032E0,-7.446849942E-1
4.350200449E0,3.028430045E-1,-1.764888048E0,-7.319049835E-1
4.352698938E0,2.943229973E-1,-1.770213008E0,-7.169950008E-1
4.355206334E0,2.826080024E-1,-1.775537968E0,-7.020850182E-1
4.357704876E0,2.719579935E-1,-1.776602983E0,-6.882399917E-1
4.360203365E0,2.634379864E-1,-1.775537968E0,-6.743950248E-1
4.362701855E0,2.559829950E-1,-1.775537968E0,-6.562899947E-1
4.365200344E0,2.517229915E-1,-1.774472952E0,-6.413800120E-1
4.367698886E0,2.453330010E-1,-1.781927943E0,-6.296650171E-1
4.370197376E0,2.378779948E-1,-1.792577982E0,-6.200799942E-1
4.372695865E0,2.272280008E-1,-1.808552980E0,-6.051700115E-1
4.375194407E0,2.165780067E-1,-1.821333051E0,-5.881299973E-1
4.377692896E0,2.048629969E-1,-1.837308049E0,-5.710899830E-1
4.380191386E0,1.952780038E-1,-1.846892953E0,-5.529850125E-1
4.382689928E0,1.814330071E-1,-1.850088000E0,-5.370100141E-1
4.385208365E0,1.729130000E-1,-1.849022985E0,-5.167750120E-1
4.387706907E0,1.675879955E-1,-1.843698025E0,-4.976049960E-1
4.390205396E0,1.580030024E-1,-1.835178018E0,-4.773699939E-1
4.392703938E0,1.505479962E-1,-1.831982970E0,-4.560700059E-1
4.395202428E0,1.452230066E-1,-1.819203019E0,-4.326399863E-1
4.397700917E0,1.462879926E-1,-1.805358052E0,-4.113399982E-1
4.400199459E0,1.420280039E-1,-1.791512966E0,-3.857800066E-1
4.402697949E0,1.367029995E-1,-1.772343040E0,-3.570249975E-1
4.405196438E0,1.303129941E-1,-1.748913050E0,-3.272050023E-1
4.407694980E0,1.228580028E-1,-1.720157981E0,-2.963199914E-1
4.410193469E0,1.185979992E-1,-1.696727991E0,-2.622399926E-1
4.412691959E0,1.196630001E-1,-1.674363017E0,-2.249650061E-1
4.415161803E0,1.196630001E-1,-1.648802996E0,-1.802349985E-1
4.417660344E0,1.239230037E-1,-1.628568053E0,-1.344400048E-1
4.420158886E0,1.313779950E-1,-1.608332992E0,-9.077499807E-2
4.422657324E0,1.409630030E-1,-1.591292977E0,-4.072000086E-2
4.425155865E0,1.494829953E-1,-1.574252963E0,1.146499999E-2
4.427654355E0,1.548079997E-1,-1.560407996E0,6.364999712E-2
4.430152896E0,1.569380015E-1,-1.545498013E0,1.200949997E-1
4.432651386E0,1.611980051E-1,-1.529523015E0,1.754750013E-1
4.435149876E0,1.580030024E-1,-1.514613032E0,2.244649976E-1
4.437648417E0,1.526779979E-1,-1.500767946E0,2.766500115E-1
4.440146907E0,1.409630030E-1,-1.498638034E0,3.256399930E-1
4.442645396E0,1.271180063E-1,-1.502897978E0,3.714349866E-1
4.445173782E0,1.100779995E-1,-1.517807961E0,4.097749889E-1
4.447672271E0,8.984299749E-2,-1.531653047E0,4.502449930E-1
4.450170761E0,6.428299844E-2,-1.541237950E0,4.821949899E-1
4.452669303E0,3.339799866E-2,-1.552953005E0,5.130800009E-1
4.455167844E0,3.830000060E-4,-1.572123051E0,5.407699943E-1
4.457666334E0,-3.476199880E-2,-1.597682953E0,5.578100085E-1
4.460164824E0,-7.523199916E-2,-1.627503037E0,5.705900192E-1
4.462663313E0,-1.103769988E-1,-1.657323003E0,5.823050141E-1
4.465161855E0,-1.540420055E-1,-1.677557945E0,5.876299739E-1
4.467660344E0,-2.009020001E-1,-1.692468047E0,5.897600055E-1
4.470158834E0,-2.477619946E-1,-1.698858023E0,5.940200090E-1
4.472657376E0,-2.956869900E-1,-1.698858023E0,5.940200090E-1
4.475127480E0,-3.500019908E-1,-1.702052951E0,5.950850248E-1
4.477625969E0,-3.957970142E-1,-1.703117967E0,5.908250213E-1
4.480124459E0,-4.469169974E-1,-1.709507942E0,5.812399983E-1
4.482622949E0,-5.022969842E-1,-1.719092965E0,5.684599876E-1
4.485121490E0,-5.608720183E-1,-1.729743004E0,5.524849892E-1
4.487620032E0,-6.226419806E-1,-1.747848034E0,5.322499871E-1
4.490118521E0,-6.854770184E-1,-1.764888048E0,5.120149851E-1
4.492617063E0,-7.536370158E-1,-1.786188006E0,4.875200093E-1
4.495115501E0,-8.260570168E-1,-1.804293036E0,4.608950019E-1
4.497614042E0,-8.963469863E-1,-1.822397947E0,4.342699945E-1
4.500112532E0,-9.666370153E-1,-1.834113002E0,4.065800011E-1
4.502611021E0,-1.041187048E0,-1.841567993E0,3.820849955E-1
4.505148157E0,-1.119997025E0,-1.849022985E0,3.554599881E-1
4.507646699E0,-1.198807001E0,-1.836243033E0,3.373549879E-1
4.510145188E0,-1.279747009E0,-1.820268035E0,3.256399930E-1
4.512643730E0,-1.355362058E0,-1.808552980E0,3.096649945E-1
4.515142219E0,-1.429911971E0,-1.790447950E0,2.947550118E-1
4.517640709E0,-1.504462004E0,-1.776602983E0,2.819750011E-1
4.520139251E0,-1.571557045E0,-1.773408055E0,2.638700008E-1
4.522637740E0,-1.631196976E0,-1.775537968E0,2.446999997E-1
4.525136230E0,-1.682317019E0,-1.780863047E0,2.180750072E-1
4.527634771E0,-1.734501958E0,-1.786188006E0,1.903849989E-1
4.530133261E0,-1.779232025E0,-1.795773029E0,1.541749984E-1
4.532631751E0,-1.807986975E0,-1.807487965E0,1.126400009E-1
4.535117167E0,-1.836742043E0,-1.820268035E0,6.791000068E-2
4.537615657E0,-1.862301946E0,-1.825592995E0,1.785499975E-2
4.540114199E0,-1.877212048E0,-1.830917954E0,-4.391499981E-2
4.542612688E0,-1.892122030E0,-1.828788042E0,-1.237900034E-1
4.545111178E0,-1.901707053E0,-1.849022985E0,-2.334849983E-1
4.547609719E0,-1.917682052E0,-1.891623020E0,-3.655450046E-1
4.550108209E0,-1.945371985E0,-1.935287952E0,-4.603300095E-1
4.552606751E0,-1.962412000E0,-1.952327967E0,-4.784350097E-1
4.555105240E0,-1.961346984E0,-1.953392982E0,-4.763050079E-1
4.557603730E0,-1.951761961E0,-1.945937991E0,-4.784350097E-1
4.560102219E0,-1.940047026E0,-1.909728050E0,-4.848249853E-1
4.562600761E0,-1.919811964E0,-1.858608007E0,-4.997349977E-1
4.565131855E0,-1.888926983E0,-1.812813044E0,-5.242300034E-1
4.567630344E0,-1.856976986E0,-1.778733015E0,-5.508549809E-1
4.570128834E0,-1.823961973E0,-1.759562969E0,-5.796099901E-1
4.572627376E0,-1.786687016E0,-1.748913050E0,-6.115599871E-1
4.575125865E0,-1.747282028E0,-1.751042962E0,-6.445749998E-1
4.577624355E0,-1.703616977E0,-1.772343040E0,-6.754599810E-1
4.580122896E0,-1.658887029E0,-1.804293036E0,-7.127349973E-1
4.582621386E0,-1.607766986E0,-1.851153016E0,-7.532050014E-1
4.585119876E0,-1.563037038E0,-1.904402971E0,-8.000649810E-1
4.587618417E0,-1.521502018E0,-1.966173053E0,-8.522499800E-1
4.590116907E0,-1.484226942E0,-2.031137943E0,-9.086949825E-1
4.592615396E0,-1.449082017E0,-2.100363016E0,-9.598150253E-1
4.595093053E0,-1.421391964E0,-2.168523073E0,-1.008805037E0
4.597591542E0,-1.402222037E0,-2.233488083E0,-1.052469969E0
4.600090084E0,-1.386247039E0,-2.305907965E0,-1.089745045E0
4.602588574E0,-1.373466969E0,-2.379393101E0,-1.114240050E0
4.605087063E0,-1.356426954E0,-2.450747967E0,-1.135540009E0
4.607585605E0,-1.343647003E0,-2.516777992E0,-1.149384975E0
4.610084094E0,-1.327672005E0,-2.573223114E0,-1.166424990E0
4.612582584E0,-1.305307031E0,-2.621148109E0,-1.177075028E0
4.615081126E0,-1.287202001E0,-2.660552979E0,-1.184530020E0
4.617579615E0,-1.265902042E0,-2.690372944E0,-1.186660051E0
4.620078157E0,-1.238211989E0,-2.710608006E0,-1.190919995E0
4.622576594E0,-1.208392024E0,-2.722322941E0,-1.193050027E0
4.625057115E0,-1.180701971E0,-2.719127893E0,-1.196244955E0
4.627555605E0,-1.145557046E0,-2.708477974E0,-1.199440002E0
4.630054094E0,-1.107216954E0,-2.685048103E0,-1.202635050E0
4.632552636E0,-1.069941998E0,-2.658422947E0,-1.203699946E0
4.635051126E0,-1.032667041E0,-2.623277903E0,-1.207960010E0
4.637549667E0,-9.932619929E-1,-2.583873034E0,-1.200505018E0
4.640048157E0,-9.538570046E-1,-2.546597958E0,-1.191985011E0
4.642546646E0,-9.091269970E-1,-2.508258104E0,-1.180269957E0
4.645045136E0,-8.654620051E-1,-2.470983028E0,-1.165359974E0
4.647543678E0,-8.090170026E-1,-2.436903000E0,-1.152580023E0
4.650042167E0,-7.504420280E-1,-2.404953003E0,-1.142995000E0
4.652540657E0,-6.790869832E-1,-2.370872974E0,-1.130215049E0
4.655068313E0,-6.098620296E-1,-2.339987993E0,-1.117434978E0
4.657566803E0,-5.438320041E-1,-2.306972980E0,-1.103590012E0
4.660065344E0,-4.746069908E-1,-2.269697905E0,-1.098265052E0
4.662563834E0,-4.128369987E-1,-2.236682892E0,-1.085484982E0
4.665062324E0,-3.670420051E-1,-2.199408054E0,-1.065250039E0
4.667560865E0,-3.297669888E-1,-2.165328026E0,-1.049275041E0
4.670059355E0,-3.095319867E-1,-2.136573076E0,-1.032235026E0
4.672557896E0,-3.010120094E-1,-2.109947920E0,-1.019454956E0
4.675056386E0,-3.052720129E-1,-2.091842890E0,-1.006675005E0
4.677554876E0,-3.148570061E-1,-2.086518049E0,-9.960250258E-1
4.680053417E0,-3.340269923E-1,-2.085453033E0,-9.789850116E-1
4.682551907E0,-3.574570119E-1,-2.092907906E0,-9.662050009E-1
4.685050240E0,-3.883419931E-1,-2.102493048E0,-9.502300024E-1
4.687548730E0,-4.288119972E-1,-2.120598078E0,-9.331899881E-1
4.690047271E0,-4.724769890E-1,-2.134443045E0,-9.140200019E-1
4.692545761E0,-5.172070265E-1,-2.150418043E0,-8.980450034E-1
4.695044251E0,-5.651320219E-1,-2.160002947E0,-8.820700049E-1
4.697542792E0,-6.151869893E-1,-2.162132978E0,-8.692899942E-1
4.700041282E0,-6.705669761E-1,-2.162132978E0,-8.607699871E-1
4.702539824E0,-7.206220031E-1,-2.154678106E0,-8.511850238E-1
4.705038261E0,-7.685469985E-1,-2.142962933E0,-8.437299728E-1
4.707536855E0,-8.186020255E-1,-2.122728109E0,-8.394700289E-1
4.710035344E0,-8.665270209E-1,-2.100363016E0,-8.373399973E-1
4.712533834E0,-9.133870006E-1,-2.075867891E0,-8.320149779E-1
4.715014459E0,-9.485319853E-1,-2.050307989E0,-8.266900182E-1
4.717512949E0,-9.858070016E-1,-2.018357992E0,-8.213649988E-1
4.720011490E0,-1.015627027E0,-1.976822972E0,-8.128449917E-1
4.722509980E0,-1.039057016E0,-1.937417984E0,-8.107150197E-1
4.725008469E0,-1.062487006E0,-1.890558004E0,-8.053900003E-1
4.727507011E0,-1.077396989E0,-1.841567993E0,-8.043249846E-1
4.730005553E0,-1.085916996E0,-1.789383054E0,-8.032600284E-1
4.732504042E0,-1.089112043E0,-1.741458058E0,-8.032600284E-1
4.735002532E0,-1.085916996E0,-1.693532944E0,-8.000649810E-1
4.737501074E0,-1.081657052E0,-1.654127955E0,-7.979350090E-1
4.739999511E0,-1.068876982E0,-1.614722967E0,-7.968699932E-1
4.742498053E0,-1.051836967E0,-1.585968018E0,-7.979350090E-1
4.745013938E0,-1.033732057E0,-1.556148052E0,-8.011299968E-1
4.747512480E0,-1.009237051E0,-1.527392983E0,-8.021950126E-1
4.750010969E0,-9.900670052E-1,-1.508223057E0,-8.032600284E-1
4.752509511E0,-9.602469802E-1,-1.487987995E0,-8.043249846E-1
4.755008001E0,-9.336220026E-1,-1.468817949E0,-8.107150197E-1
4.757506490E0,-9.101920128E-1,-1.457103014E0,-8.096500039E-1
4.760005032E0,-8.846319914E-1,-1.448583007E0,-8.096500039E-1
4.762503521E0,-8.601369858E-1,-1.444322944E0,-8.117799759E-1
4.765002011E0,-8.324469924E-1,-1.435803056E0,-8.096500039E-1
4.767500553E0,-8.015620112E-1,-1.431542993E0,-8.064550161E-1
4.769999042E0,-7.791969776E-1,-1.427283049E0,-8.075199723E-1
4.772497532E0,-7.568320036E-1,-1.423022985E0,-8.032600284E-1
4.774970657E0,-7.344670296E-1,-1.416633010E0,-8.011299968E-1
4.777469199E0,-7.078419924E-1,-1.409178019E0,-7.958049774E-1
4.779967688E0,-6.854770184E-1,-1.399592996E0,-7.872849703E-1
4.782466230E0,-6.588519812E-1,-1.385748029E0,-7.808949947E-1
4.784964719E0,-6.332920194E-1,-1.370838046E0,-7.723749876E-1
4.787463261E0,-6.077319980E-1,-1.352733016E0,-7.638549805E-1
4.789961751E0,-5.779119730E-1,-1.335693002E0,-7.542700171E-1
4.792460240E0,-5.448970199E-1,-1.319718003E0,-7.457500100E-1
4.794958730E0,-5.108169913E-1,-1.299482942E0,-7.372300029E-1
4.797457271E0,-4.799320102E-1,-1.284572959E0,-7.297750115E-1
4.799955761E0,-4.415920079E-1,-1.264338017E0,-7.255150080E-1
4.802454303E0,-4.043169916E-1,-1.241973042E0,-7.169950008E-1
4.805003678E0,-3.649120033E-1,-1.220672965E0,-7.095400095E-1
4.807502219E0,-3.255069852E-1,-1.205762982E0,-6.999549866E-1
4.810000709E0,-2.786470056E-1,-1.199373007E0,-6.924999952E-1
4.812499199E0,-2.317869961E-1,-1.201503038E0,-6.786550283E-1
4.814997740E0,-1.902520061E-1,-1.189787984E0,-6.648100019E-1
4.817496230E0,-1.476520002E-1,-1.166357994E0,-6.530950069E-1
4.819994771E0,-1.061170027E-1,-1.140797973E0,-6.360549927E-1
4.822493261E0,-6.564699858E-2,-1.108847976E0,-6.211450100E-1
4.824991751E0,-3.369700164E-2,-1.082223058E0,-6.072999835E-1
4.827490292E0,3.578000003E-3,-1.052402973E0,-5.934550166E-1
4.829988782E0,3.872299939E-2,-1.026842952E0,-5.785449743E-1
4.832487271E0,6.534799933E-2,-1.006608009E0,-5.636349916E-1
4.834930865E0,9.090799838E-2,-9.916980267E-1,-5.519199967E-1
4.837429407E0,1.122080013E-1,-9.810479879E-1,-5.348799825E-1
4.839927896E0,1.345729977E-1,-9.703980088E-1,-5.231649876E-1
4.842426438E0,1.537429988E-1,-9.650729895E-1,-5.157099962E-1
4.844924928E0,1.611980051E-1,-9.650729895E-1,-5.050600171E-1
4.847423417E0,1.707829982E-1,-9.650729895E-1,-5.008000135E-1
4.849921959E0,1.782380044E-1,-9.672030210E-1,-4.976049960E-1
4.852420449E0,1.814330071E-1,-9.703980088E-1,-4.922800064E-1
4.854918938E0,1.824979931E-1,-9.746580124E-1,-4.901500046E-1
4.857417480E0,1.824979931E-1,-9.778530002E-1,-4.869549870E-1
4.859915969E0,1.878229976E-1,-9.746580124E-1,-4.848249853E-1
4.862414459E0,1.803680062E-1,-9.661380053E-1,-4.826950133E-1
4.864991751E0,1.707829982E-1,-9.576179981E-1,-4.848249853E-1
4.867490240E0,1.537429988E-1,-9.427080154E-1,-4.869549870E-1
4.869988782E0,1.335079968E-1,-9.224730134E-1,-4.880200028E-1
4.872487219E0,1.058180034E-1,-9.064980149E-1,-4.880200028E-1
4.874985761E0,6.960800290E-2,-8.873280287E-1,-4.858900011E-1
4.877484251E0,3.233300149E-2,-8.670930266E-1,-4.869549870E-1
4.879982792E0,-8.136999793E-3,-8.500530124E-1,-4.880200028E-1
4.882481282E0,-4.860699922E-2,-8.266230226E-1,-4.869549870E-1
4.884979771E0,-8.907700330E-2,-8.063880205E-1,-4.890849888E-1
4.887478313E0,-1.274169981E-1,-7.893480062E-1,-4.880200028E-1
4.889976803E0,-1.604319960E-1,-7.723079920E-1,-4.869549870E-1
4.892475292E0,-1.955769956E-1,-7.531380057E-1,-4.933449924E-1
4.894919355E0,-2.190070003E-1,-7.350329757E-1,-4.976049960E-1
4.897417844E0,-2.435020059E-1,-7.201229930E-1,-5.018650293E-1
4.899916386E0,-2.648020089E-1,-7.009530067E-1,-5.093200207E-1
4.902414876E0,-2.807770073E-1,-6.807180047E-1,-5.146449804E-1
4.904913365E0,-2.882319987E-1,-6.679379940E-1,-5.199699998E-1
4.907411907E0,-2.914269865E-1,-6.562229991E-1,-5.252950191E-1
4.909910396E0,-2.935569882E-1,-6.445080042E-1,-5.316849947E-1
4.912408886E0,-2.924920022E-1,-6.338580251E-1,-5.327500105E-1
4.914907376E0,-2.829070091E-1,-6.210780144E-1,-5.391399860E-1
4.917405917E0,-2.679969966E-1,-6.125580072E-1,-5.402050018E-1
4.919904407E0,-2.594769895E-1,-6.029729843E-1,-5.370100141E-1
4.922402949E0,-2.488269955E-1,-5.944529772E-1,-5.412700176E-1
4.924939563E0,-2.339169979E-1,-5.859330297E-1,-5.412700176E-1
4.927438053E0,-2.211370021E-1,-5.806080103E-1,-5.444650054E-1
4.929936542E0,-2.062270045E-1,-5.731530190E-1,-5.455300212E-1
4.932435032E0,-1.902520061E-1,-5.656980276E-1,-5.402050018E-1
4.934933574E0,-1.753419936E-1,-5.593079925E-1,-5.359449983E-1
4.937432063E0,-1.593669951E-1,-5.497230291E-1,-5.295550227E-1
4.939930605E0,-1.401969939E-1,-5.358780026E-1,-5.242300034E-1
4.942429094E0,-1.242220029E-1,-5.252280235E-1,-5.189049840E-1
4.944927584E0,-1.071820036E-1,-5.135130286E-1,-5.114499927E-1
4.947426126E0,-9.014199674E-2,-5.071229935E-1,-5.018650293E-1
4.949924615E0,-7.416699827E-2,-5.049930215E-1,-4.954749942E-1
4.952423105E0,-5.606200173E-2,-5.007330179E-1,-4.858900011E-1
4.954920969E0,-3.582699969E-2,-5.007330179E-1,-4.763050079E-1
4.957419459E0,-1.559200045E-2,-5.060579777E-1,-4.720450044E-1
4.959917949E0,4.643000197E-3,-5.081880093E-1,-4.699150026E-1
4.962416438E0,2.913800068E-2,-5.145779848E-1,-4.635249972E-1
4.964914980E0,5.256799981E-2,-5.273579955E-1,-4.571349919E-1
4.967413469E0,7.386799902E-2,-5.390729904E-1,-4.603300095E-1
4.969912011E0,9.303800017E-2,-5.475929976E-1,-4.613949955E-1
4.972410501E0,1.111430004E-1,-5.571780205E-1,-4.635249972E-1
4.974908990E0,1.292479932E-1,-5.667629838E-1,-4.699150026E-1
4.977407532E0,1.473529935E-1,-5.752829909E-1,-4.763050079E-1
4.979906021E0,1.601330042E-1,-5.923230052E-1,-4.837599993E-1
4.982404511E0,1.750430018E-1,-6.029729843E-1,-4.965400100E-1
4.984920813E0,1.931480020E-1,-6.072329879E-1,-5.050600171E-1
4.987419303E0,2.080579996E-1,-6.168180108E-1,-5.199699998E-1
4.989917792E0,2.165780067E-1,-6.221429706E-1,-5.348799825E-1
4.992416334E0,2.336180061E-1,-6.264029741E-1,-5.476599932E-1
4.994914824E0,2.495930046E-1,-6.274679899E-1,-5.636349916E-1
4.997413365E0,2.613080144E-1,-6.295980215E-1,-5.817400217E-1
4.999911803E0,2.719579935E-1,-6.306629777E-1,-5.987799764E-1
5.002410344E0,2.889980078E-1,-6.327930093E-1,-6.200799942E-1
5.004908834E0,2.996479869E-1,-6.327930093E-1,-6.413800120E-1
5.007407376E0,3.081679940E-1,-6.359879971E-1,-6.626799703E-1
5.009905865E0,3.273380101E-1,-6.391829848E-1,-6.871749759E-1
5.012404355E0,3.401179910E-1,-6.455730200E-1,-7.106050253E-1
5.014908261E0,3.592880070E-1,-6.498330235E-1,-7.350999713E-1
5.017406803E0,3.752630055E-1,-6.540930271E-1,-7.585300207E-1
5.019905292E0,3.923029900E-1,-6.594179869E-1,-7.787650228E-1
5.022403834E0,4.189279974E-1,-6.700680256E-1,-8.043249846E-1
5.024902324E0,4.380980134E-1,-6.839129925E-1,-8.298850060E-1
5.027400813E0,4.625929892E-1,-6.966930032E-1,-8.522499800E-1
5.029899355E0,4.892179966E-1,-7.030829787E-1,-8.746150136E-1
5.032397844E0,5.211679935E-1,-7.147979736E-1,-8.959149718E-1
5.034896386E0,5.477929711E-1,-7.222530246E-1,-9.182800055E-1
5.037394824E0,5.765479803E-1,-7.211880088E-1,-9.353200197E-1
5.039893365E0,6.074330211E-1,-7.116029859E-1,-9.523599744E-1
5.042391907E0,6.372529864E-1,-6.966930032E-1,-9.704650044E-1
5.044832480E0,6.649429798E-1,-6.732630134E-1,-9.853749871E-1
