"Time (s)","Gyroscope x (rad/s)","Gyroscope y (rad/s)","Gyroscope z (rad/s)"
3.052000000E-5,-1.683169156E-1,5.326484796E-3,-1.672516167E-1
5.033334000E-3,-1.747086942E-1,-2.024064213E-2,-2.056023031E-1
1.016494800E-2,-1.587292403E-1,-1.704475097E-2,-2.066676021E-1
1.523078300E-2,-1.235744432E-1,-9.587672539E-3,-1.970799267E-1
2.026906400E-2,-7.244019210E-2,2.130593872E-3,-1.928187460E-1
2.527942900E-2,-2.343653329E-2,1.597945392E-2,-1.928187460E-1
3.050463700E-2,1.491415687E-2,2.450183034E-2,-1.917534471E-1
3.555812800E-2,3.515479714E-2,3.408950195E-2,-1.970799267E-1
4.067047200E-2,4.367717355E-2,3.408950195E-2,-2.130593807E-1
4.563656700E-2,3.941598535E-2,2.663242258E-2,-2.322347313E-1
5.074297300E-2,2.982831374E-2,1.491415687E-2,-2.492794842E-1
5.586854700E-2,2.556712553E-2,0.000000000E0,-2.812383771E-1
6.099604000E-2,1.278356276E-2,-2.343653329E-2,-3.185237944E-1
6.602578800E-2,-5.326484796E-3,-6.391781569E-2,-3.515479863E-1
7.089224600E-2,-3.728539124E-2,-1.150520667E-1,-4.005516469E-1
7.589667400E-2,-6.498311460E-2,-1.523374617E-1,-4.420982301E-1
8.115912200E-2,-9.907261282E-2,-1.853616685E-1,-4.612735808E-1
8.609360200E-2,-1.438150853E-1,-2.205164731E-1,-4.740571380E-1
9.109526800E-2,-2.013411224E-1,-2.386265099E-1,-4.921671748E-1
9.610474900E-2,-2.599324584E-1,-2.546059787E-1,-5.017548800E-1
1.012157380E-1,-3.153278828E-1,-2.609977424E-1,-4.942977726E-1
1.064668850E-1,-3.611356616E-1,-2.663242221E-1,-4.836448133E-1
1.115060520E-1,-3.962904513E-1,-2.684548199E-1,-4.591429830E-1
1.165379280E-1,-4.165311158E-1,-2.727160156E-1,-4.293146729E-1
1.218148030E-1,-4.303799570E-1,-2.673895359E-1,-3.973557651E-1
1.265258460E-1,-4.335758388E-1,-2.492794842E-1,-3.707233369E-1
1.315703770E-1,-4.250534773E-1,-2.205164731E-1,-3.462215066E-1
1.367172530E-1,-4.037475288E-1,-1.928187460E-1,-3.227849603E-1
1.417700650E-1,-3.760498166E-1,-1.629904360E-1,-3.004137278E-1
1.468598060E-1,-3.430256248E-1,-1.214438528E-1,-2.759118974E-1
1.519810560E-1,-3.121320009E-1,-8.309315890E-2,-2.524753809E-1
1.569376200E-1,-2.801730931E-1,-5.326484516E-2,-2.311694324E-1
1.620492860E-1,-2.514100671E-1,-3.089361079E-2,-2.173205763E-1
1.669751210E-1,-2.269082516E-1,-1.065296959E-2,-2.002758235E-1
1.721665790E-1,-2.034717202E-1,1.065296959E-2,-1.874922663E-1
1.770581420E-1,-1.842963696E-1,3.408950195E-2,-1.757739931E-1
1.821609550E-1,-1.619251370E-1,5.006895587E-2,-1.587292403E-1
1.871636640E-1,-1.352927089E-1,6.391781569E-2,-1.363580078E-1
1.924435600E-1,-1.118561774E-1,7.030959427E-2,-9.587672353E-2
1.974319470E-1,-8.841964602E-2,6.498311460E-2,-4.580776766E-2
2.025409050E-1,-7.350549102E-2,5.752603337E-2,2.130593872E-3
2.074029370E-1,-6.711370498E-2,4.580776766E-2,4.580776766E-2
2.125331970E-1,-7.030959427E-2,1.704475097E-2,7.563608140E-2
2.176722610E-1,-7.989726961E-2,-3.515479714E-2,8.522375673E-2
2.227830940E-1,-8.522375673E-2,-9.694202244E-2,8.096256852E-2
2.278643970E-1,-8.735434711E-2,-1.502068639E-1,7.137489319E-2
2.327735640E-1,-7.883197069E-2,-1.874922663E-1,6.285251677E-2
2.379287740E-1,-5.326484516E-2,-2.077329010E-1,6.178722158E-2
2.428972630E-1,-1.704475097E-2,-2.290388346E-1,5.646073818E-2
2.479999720E-1,3.835069016E-2,-2.695201337E-1,3.195890784E-2
2.531269510E-1,1.129214764E-1,-3.302420378E-1,-1.917534508E-2
2.581322650E-1,2.098634988E-1,-3.611356616E-1,-9.161553532E-2
2.632863790E-1,3.046749234E-1,-3.632662594E-1,-1.715128124E-1
2.683253910E-1,3.973557651E-1,-3.579397798E-1,-2.311694324E-1
2.733003390E-1,4.857754111E-1,-3.462215066E-1,-2.780424953E-1
2.782687780E-1,5.688685775E-1,-3.376991153E-1,-3.185237944E-1
2.836133090E-1,6.413087845E-1,-3.185237944E-1,-3.611356616E-1
2.886857060E-1,7.041612864E-1,-2.972178459E-1,-4.080087245E-1
2.935347680E-1,7.776667476E-1,-3.004137278E-1,-4.942977726E-1
2.985252380E-1,8.628905416E-1,-2.950872481E-1,-6.050886512E-1
3.037848730E-1,9.513101578E-1,-2.695201337E-1,-7.094877362E-1
3.088328430E-1,1.047186852E0,-2.471488863E-1,-7.968420982E-1
3.137526350E-1,1.136671782E0,-2.439530045E-1,-8.810005784E-1
3.189927400E-1,1.229352713E0,-2.524753809E-1,-9.694201946E-1
3.238423750E-1,1.316707015E0,-2.556712627E-1,-1.053578615E0
3.288362300E-1,1.385951281E0,-2.194511741E-1,-1.126018882E0
3.339958660E-1,1.416844964E0,-1.512721628E-1,-1.199524403E0
3.389682630E-1,1.396604300E0,-1.001379117E-1,-1.291139841E0
3.441131580E-1,1.324164033E0,-6.498311460E-2,-1.426432610E0
3.490770140E-1,1.204850793E0,-4.900366068E-2,-1.625643134E0
3.544521180E-1,1.058905125E0,-6.924430281E-2,-1.852551341E0
3.592550880E-1,9.001759291E-1,-7.989726961E-2,-2.113549232E0
3.645480040E-1,7.414466739E-1,-8.948494494E-2,-2.392656803E0
3.694532140E-1,6.104151607E-1,-1.150520667E-1,-2.646197557E0
3.746578490E-1,5.156037211E-1,-2.482141852E-1,-2.824102163E0
3.794191520E-1,4.420982301E-1,-6.327863932E-1,-2.932762384E0
3.846957140E-1,3.771151006E-1,-8.714128733E-1,-3.124516010E0
3.895886320E-1,3.142625988E-1,-9.300042391E-1,-3.362077236E0
3.946515490E-1,2.460835874E-1,-9.140247703E-1,-3.571940660E0
3.997909770E-1,1.725780964E-1,-8.362581134E-1,-3.738126993E0
4.049446750E-1,1.012032107E-1,-7.670137882E-1,-3.838264942E0
4.099053530E-1,3.089361079E-2,-7.467731237E-1,-3.871289015E0
4.150848840E-1,-4.367717355E-2,-7.606220245E-1,-3.877680779E0
4.200398850E-1,-1.214438528E-1,-8.298662901E-1,-3.894725561E0
4.252067080E-1,-2.066676021E-1,-9.608978629E-1,-3.908574343E0
4.301993660E-1,-2.791078091E-1,-1.133475900E0,-3.891529799E0
4.352619170E-1,-3.323726356E-1,-1.318837643E0,-3.835068941E0
4.401613980E-1,-3.835068941E-1,-1.495676875E0,-3.743453503E0
4.452446270E-1,-4.921671748E-1,-1.788633585E0,-3.651837826E0
4.503995760E-1,-7.244018912E-1,-2.466162443E0,-3.538916349E0
4.553772840E-1,-1.019489169E0,-3.277918577E0,-3.300289869E0
4.603690560E-1,-1.237874985E0,-3.674209118E0,-2.912521839E0
4.656676500E-1,-1.347600579E0,-3.681666136E0,-2.395852804E0
4.705379630E-1,-1.438150883E0,-3.583658934E0,-1.857877851E0
4.756665570E-1,-1.483958602E0,-3.382317781E0,-1.332686424E0
4.808620270E-1,-1.427497864E0,-3.117058754E0,-8.415845633E-1
4.860779640E-1,-1.279421568E0,-2.890150547E0,-4.250534773E-1
4.909316110E-1,-1.073819280E0,-2.748466015E0,-7.350549102E-2
4.960702050E-1,-8.564987183E-1,-2.707984924E0,2.279735506E-1
5.008816120E-1,-6.508964300E-1,-2.697331905E0,4.953630865E-1
5.059632790E-1,-4.921671748E-1,-2.609977484E0,7.212060094E-1
5.109645300E-1,-3.984210491E-1,-2.442725897E0,8.820658922E-1
5.163344250E-1,-3.430256248E-1,-2.262690783E0,9.822037816E-1
5.210890620E-1,-2.716507316E-1,-2.353240967E0,1.033338070E0
5.264286450E-1,-1.864269674E-1,-2.688809395E0,1.032272696E0
5.311970320E-1,-1.342274100E-1,-2.667503595E0,1.015228033E0
5.364450520E-1,-1.278356314E-1,-2.346849203E0,9.683549404E-1
5.413159910E-1,-1.214438528E-1,-2.075198412E0,8.767393827E-1
5.465928140E-1,-9.161553532E-2,-1.913273335E0,7.883197069E-1
5.515136490E-1,-5.326484516E-2,-1.765197039E0,7.393160462E-1
5.565559920E-1,-1.811004803E-2,-1.560660005E0,7.510343194E-1
5.617914100E-1,1.384885982E-2,-1.330555916E0,8.128215671E-1
5.668035970E-1,5.006895587E-2,-1.175022483E0,8.863270283E-1
5.716870360E-1,7.457078248E-2,-1.146259546E0,9.332001209E-1
5.767873480E-1,6.178722158E-2,-1.252789140E0,9.363960028E-1
5.819643290E-1,-7.457078435E-3,-1.492480993E0,9.076330066E-1
5.869285990E-1,-1.491415650E-1,-1.847224832E0,8.831311464E-1
5.919049030E-1,-3.419603109E-1,-2.293584347E0,9.001759291E-1
5.970802150E-1,-5.646073818E-1,-2.797469854E0,9.683549404E-1
6.021594350E-1,-7.957767844E-1,-3.392970800E0,1.071688771E0
6.072659450E-1,-1.019489169E0,-4.009777546E0,1.191002011E0
6.122696440E-1,-1.181414247E0,-4.558405399E0,1.345470071E0
6.173686020E-1,-1.229352713E0,-4.920606613E0,1.541484714E0
6.224076140E-1,-1.071688771E0,-4.963218212E0,1.760935783E0
6.274605300E-1,-4.303799570E-1,-4.266514301E0,1.989974618E0
6.323844900E-1,8.319969177E-1,-2.564169645E0,2.092243195E0
6.375285000E-1,1.725781083E0,-1.328425288E0,2.020868301E0
6.425107930E-1,1.854681969E0,-1.064231634E0,2.111418486E0
6.478606890E-1,1.842963696E0,-8.660864234E-1,2.339392185E0
6.528022520E-1,1.940971017E0,-4.303799570E-1,2.569496155E0
6.578926170E-1,2.044304848E0,-6.604841352E-2,2.790012598E0
6.629098580E-1,2.087981939E0,1.182479635E-1,2.955133677E0
6.681076180E-1,2.009150028E0,1.267703325E-1,2.993484497E0
6.729299040E-1,1.519113421E0,-4.761877358E-1,2.686678886E0
6.781245980E-1,7.829932570E-1,-1.424301982E0,1.984648228E0
6.831450160E-1,7.552955151E-1,-1.277291059E0,1.496742249E0
6.880913700E-1,7.371854782E-1,-1.293270469E0,9.118942022E-1
6.932423080E-1,6.263945699E-1,-1.460522056E0,2.801730931E-1
6.983364750E-1,6.359822750E-1,-1.494611621E0,-9.907261282E-2
7.032141840E-1,6.114804149E-1,-1.662928462E0,-2.482141852E-1
7.083287150E-1,6.242640018E-1,-1.854681969E0,-2.705854177E-1
7.134976230E-1,6.967042089E-1,-2.051761866E0,-2.546059787E-1
7.186420500E-1,8.096256852E-1,-2.217948198E0,-2.407571077E-1
7.235386660E-1,9.129594564E-1,-2.312759638E0,-2.482141852E-1
7.285840820E-1,9.715508223E-1,-2.329804420E0,-2.631283402E-1
7.337156460E-1,9.726160765E-1,-2.280800819E0,-2.737812996E-1
7.386838750E-1,9.395918846E-1,-2.177466869E0,-2.737812996E-1
7.437930430E-1,8.873923421E-1,-2.030456066E0,-2.301041335E-1
7.488343440E-1,8.373233676E-1,-1.882379651E0,-1.502068639E-1
7.541063250E-1,8.021686077E-1,-1.756674647E0,-4.261187837E-2
7.591252310E-1,7.840585709E-1,-1.645883799E0,9.907261282E-2
7.642091910E-1,7.861891389E-1,-1.525505185E0,2.737812996E-1
7.692002320E-1,7.915156484E-1,-1.361449480E0,4.484900236E-1
7.741496600E-1,7.893850207E-1,-1.147324800E0,5.827174187E-1
7.792792430E-1,7.734055519E-1,-8.937841058E-1,6.508964300E-1
7.842720570E-1,7.574261427E-1,-6.306557655E-1,6.892471313E-1
7.892746090E-1,7.425119877E-1,-4.090740085E-1,7.233366370E-1
7.944374750E-1,7.233366370E-1,-2.535406649E-1,7.371854782E-1
7.995140370E-1,6.892471313E-1,-1.320968270E-1,7.169448137E-1
8.043982050E-1,6.551576257E-1,-1.811004803E-2,6.700717807E-1
8.095860170E-1,6.093498468E-1,7.457078248E-2,6.168069243E-1
8.146338310E-1,5.656726956E-1,1.448803842E-1,5.678032637E-1
8.196647160E-1,5.358443856E-1,2.045370042E-1,5.390402675E-1
8.246370090E-1,5.273219943E-1,2.546059787E-1,5.486279130E-1
8.298929460E-1,5.198649168E-1,2.929566503E-1,5.720644593E-1
8.349906040E-1,4.580776691E-1,2.993484437E-1,5.560849905E-1
8.400832600E-1,3.920292854E-1,3.057402074E-1,4.857754111E-1
8.448757610E-1,3.781804144E-1,3.206543922E-1,4.357064366E-1
8.502034170E-1,3.685927391E-1,3.249155581E-1,3.813762963E-1
8.550575330E-1,3.526133001E-1,3.547438681E-1,2.940219641E-1
8.602413350E-1,3.334379494E-1,4.325105548E-1,1.970799267E-1
8.652371170E-1,3.206543922E-1,5.092119575E-1,1.246397421E-1
8.703615440E-1,3.376991153E-1,6.050886512E-1,1.012032107E-1
8.753858680E-1,4.037475288E-1,7.648832202E-1,1.331621110E-1
8.805167530E-1,4.666000605E-1,9.534407854E-1,1.565986425E-1
8.853595150E-1,4.857754111E-1,1.123888254E0,1.043990999E-1
8.904595150E-1,4.634041786E-1,1.267703295E0,-4.261187743E-3
8.956089950E-1,4.165311158E-1,1.339078307E0,-1.171826646E-1
9.007420160E-1,3.430256248E-1,1.341208816E0,-2.205164731E-1
9.057124340E-1,2.641936541E-1,1.320968151E0,-3.014790416E-1
9.109007150E-1,1.917534471E-1,1.311380506E0,-3.707233369E-1
9.157682680E-1,1.225091442E-1,1.291139841E0,-4.452941120E-1
9.208724340E-1,5.752603337E-2,1.241070986E0,-5.337137580E-1
9.258294150E-1,-9.587672539E-3,1.135606527E0,-6.189374924E-1
9.310078000E-1,-8.735434711E-2,9.566366673E-1,-6.860512495E-1
9.360932700E-1,-1.480762810E-1,7.734055519E-1,-7.616873384E-1
9.411594680E-1,-1.917534471E-1,6.370475888E-1,-8.160174489E-1
9.461727500E-1,-2.482141852E-1,5.496932268E-1,-8.149521351E-1
9.511653540E-1,-3.004137278E-1,4.719265401E-1,-7.552955151E-1
9.563344180E-1,-3.313073516E-1,3.973557651E-1,-6.636800170E-1
9.614296260E-1,-3.462215066E-1,3.440909088E-1,-5.582156181E-1
9.664303560E-1,-3.419603109E-1,2.961525619E-1,-4.495553076E-1
9.714190540E-1,-3.291767538E-1,2.535406649E-1,-3.558091819E-1
9.764125970E-1,-3.036096394E-1,2.450182885E-1,-2.823036909E-1
9.816885860E-1,-2.663242221E-1,2.578018606E-1,-2.087981999E-1
9.865370250E-1,-2.109287977E-1,2.535406649E-1,-1.235744432E-1
9.916735350E-1,-1.470109820E-1,2.194511741E-1,-2.769771963E-2
9.966585370E-1,-6.924430281E-2,1.736433953E-1,6.711370498E-2
1.001793797E0,1.384885982E-2,1.331621110E-1,1.597945392E-1
1.006951767E0,1.022685021E-1,8.415845782E-2,2.631283402E-1
1.011949839E0,1.853616685E-1,1.704475097E-2,3.824416101E-1
1.017036664E0,2.609977424E-1,-9.161553532E-2,5.198649168E-1
1.022022757E0,3.259808719E-1,-2.311694324E-1,6.700717807E-1
1.027098644E0,3.728539348E-1,-3.824416101E-1,8.234745264E-1
1.032236716E0,4.037475288E-1,-5.347790718E-1,9.800731540E-1
1.037253228E0,4.133352041E-1,-6.530269980E-1,1.140933037E0
1.042379894E0,4.239881933E-1,-6.711370945E-1,1.241070986E0
1.047416667E0,4.623388648E-1,-6.423740387E-1,1.262376904E0
1.052466302E0,5.177342892E-1,-6.391781569E-1,1.210177302E0
1.057349428E0,5.752603412E-1,-6.551576257E-1,1.081276417E0
1.062573438E0,6.231986880E-1,-6.434393525E-1,9.097635746E-1
1.067611460E0,6.572881937E-1,-5.880439281E-1,7.478384376E-1
1.072598700E0,6.668758988E-1,-4.953630865E-1,6.242640018E-1
1.077734066E0,6.498311162E-1,-3.888333738E-1,5.646073818E-1
1.082953492E0,6.210681200E-1,-3.376991153E-1,5.784562230E-1
1.087896775E0,6.168069243E-1,-3.270461559E-1,6.338516474E-1
1.093033546E0,6.200028062E-1,-3.760498166E-1,7.073571682E-1
1.097850265E0,6.423740387E-1,-4.207922816E-1,7.563608289E-1
1.102945734E0,6.892471313E-1,-4.506205916E-1,8.138868809E-1
1.108022350E0,7.318589687E-1,-4.953630865E-1,8.980453014E-1
1.113080318E0,7.915156484E-1,-5.646073818E-1,9.481142759E-1
1.118370945E0,8.895229697E-1,-6.508964300E-1,9.470489621E-1
1.123394850E0,1.013097405E0,-7.212060094E-1,9.289389253E-1
1.128318498E0,1.143063664E0,-7.616873384E-1,9.225471616E-1
1.134299539E0,1.258115649E0,-7.979074121E-1,9.363960028E-1
1.138511409E0,1.359318852E0,-8.628905416E-1,9.608978629E-1
1.143536623E0,1.434955001E0,-9.427877665E-1,9.768772721E-1
1.148528708E0,1.448803782E0,-8.895229697E-1,1.021619797E0
1.153547249E0,1.388081908E0,-6.615493894E-1,1.118561745E0
1.158755949E0,1.297531724E0,-5.017548800E-1,1.166500092E0
1.163830532E0,1.242136240E0,-5.667379498E-1,1.070623398E0
1.168894127E0,1.232548594E0,-6.285251975E-1,8.564987183E-1
1.173774543E0,1.258115649E0,-5.198649168E-1,5.997622013E-1
1.178944440E0,1.301792860E0,-3.622009456E-1,3.675274551E-1
1.183912513E0,1.335882306E0,-2.727160156E-1,1.842963696E-1
1.188944389E0,1.343339443E0,-2.578018606E-1,6.285251677E-2
1.194021264E0,1.317772269E0,-2.450182885E-1,2.024064213E-2
1.198997359E0,1.277291059E0,-1.789698899E-1,3.195890784E-2
1.204342931E0,1.243201494E0,-1.246397421E-1,7.563608140E-2
1.209359912E0,1.204850793E0,-6.178722158E-2,1.534027606E-1
1.214612099E0,1.180348992E0,4.154657945E-2,2.418224066E-1
1.219429496E0,1.200589657E0,1.022685021E-1,3.174584806E-1
1.224499131E0,1.182479620E0,2.450183034E-2,3.941598535E-1
1.229382622E0,1.164369583E0,-9.161553532E-2,4.666000605E-1
1.234480643E0,1.155847192E0,-2.705854177E-1,5.262566805E-1
1.239522519E0,1.186740756E0,-4.772530198E-1,5.667379498E-1
1.244558450E0,1.309249878E0,-6.445046663E-1,5.784562230E-1
1.249647051E0,1.497807503E0,-7.361201644E-1,5.688685775E-1
1.254722936E0,1.758805275E0,-7.180101275E-1,5.145384073E-1
1.259748719E0,2.044304848E0,-5.528891087E-1,4.239881933E-1
1.264915333E0,2.253103018E0,-1.789698899E-1,2.918913662E-1
1.269970074E0,2.419289351E0,1.906881481E-1,1.299662292E-1
1.275085543E0,2.532210827E0,4.133352041E-1,2.130593872E-3
1.280090544E0,2.526884317E0,5.358443856E-1,-2.343653329E-2
1.285253356E0,2.441660643E0,6.285251975E-1,5.433014408E-2
1.290200441E0,2.382004023E0,6.828553081E-1,1.736433953E-1
1.295324659E0,2.462966442E0,6.743329763E-1,3.100014031E-1
1.300331692E0,2.546059608E0,6.125457287E-1,4.367717505E-1
1.305452473E0,2.522623062E0,5.092119575E-1,5.092119575E-1
1.310454557E0,2.415028095E0,4.005516469E-1,4.953630865E-1
1.315572630E0,2.254168272E0,2.418224066E-1,3.888333738E-1
1.320441538E0,2.084786177E0,-9.587672539E-3,2.301041335E-1
1.325871746E0,1.935644507E0,-2.791078091E-1,5.219954997E-2
1.330806278E0,1.805678248E0,-5.315831900E-1,-1.267703325E-1
1.335913622E0,1.661863208E0,-7.755361795E-1,-2.865648866E-1
1.340898727E0,1.497807503E0,-9.779425859E-1,-4.218575954E-1
1.345952841E0,1.334817052E0,-1.098321199E0,-4.942977726E-1
1.350817009E0,1.150520682E0,-1.191002011E0,-5.369096398E-1
1.356057217E0,9.608978629E-1,-1.235744476E0,-5.912398100E-1
1.361137010E0,8.074950576E-1,-1.249593258E0,-6.370475888E-1
1.366025239E0,6.871165037E-1,-1.268768668E0,-6.977695227E-1
1.371071334E0,5.955010056E-1,-1.284748077E0,-7.766014934E-1
1.376323834E0,5.464973450E-1,-1.283682823E0,-8.799352646E-1
1.381355450E0,5.411708355E-1,-1.265572786E0,-1.019489169E0
1.386394616E0,5.731297731E-1,-1.233613849E0,-1.132410645E0
1.391262899E0,6.050886512E-1,-1.155847192E0,-1.182479620E0
1.396509044E0,6.402434707E-1,-9.939220548E-1,-1.180348992E0
1.401413212E0,6.849859357E-1,-7.552955151E-1,-1.132410645E0
1.406515400E0,7.382507920E-1,-4.634041786E-1,-1.059970498E0
1.411496599E0,8.064298034E-1,-1.842963696E-1,-9.800731540E-1
1.416621546E0,8.873923421E-1,4.580776766E-2,-8.841964602E-1
1.421878735E0,9.800731540E-1,2.290388346E-1,-7.787320614E-1
1.426918579E0,1.089798808E0,3.590050638E-1,-6.775288582E-1
1.431870351E0,1.198459029E0,4.229228795E-1,-5.869786143E-1
1.436856027E0,1.271964550E0,4.474247098E-1,-5.134730935E-1
1.442018477E0,1.294335723E0,4.442288280E-1,-4.506205916E-1
1.447033945E0,1.273029804E0,3.898986876E-1,-3.898986876E-1
1.451985874E0,1.199524403E0,2.727160156E-1,-3.185237944E-1
1.457099779E0,1.058905125E0,1.225091442E-1,-2.343653291E-1
1.462282489E0,8.724781871E-1,-2.343653329E-2,-1.470109820E-1
1.467270510E0,6.477005482E-1,-1.853616685E-1,-6.285251677E-2
1.472348271E0,3.930945694E-1,-3.504827023E-1,3.089361079E-2
1.477472802E0,1.438150853E-1,-5.369096398E-1,1.384886056E-1
1.482335512E0,-7.563608140E-2,-7.403813601E-1,2.471488863E-1
1.487455981E0,-2.599324584E-1,-9.459837079E-1,3.334379494E-1
1.492608065E0,-4.335758388E-1,-1.162238955E0,3.888333738E-1
1.497745305E0,-5.859133005E-1,-1.399800181E0,4.271840751E-1
1.502563795E0,-7.084224820E-1,-1.643753171E0,4.548817873E-1
1.507859837E0,-7.861891389E-1,-1.858943105E0,4.655347466E-1
1.512801453E0,-8.192133307E-1,-2.046435356E0,4.420982301E-1
1.517808744E0,-8.106909394E-1,-2.193446398E0,3.973557651E-1
1.522801349E0,-7.659484744E-1,-2.268017292E0,3.536785841E-1
1.528135255E0,-6.935083270E-1,-2.268017292E0,3.387644291E-1
1.533115153E0,-5.848480463E-1,-2.256299019E0,3.291767538E-1
1.538042392E0,-4.303799570E-1,-2.257364273E0,3.664621413E-1
1.543037862E0,-2.194511741E-1,-2.156161070E0,4.229228795E-1
1.548174684E0,-1.704475097E-2,-1.971864581E0,4.655347466E-1
1.553303071E0,1.779045910E-1,-1.769458175E0,4.900365770E-1
1.558398436E0,3.749845326E-1,-1.572378278E0,5.294525623E-1
1.563413541E0,5.784562230E-1,-1.376363635E0,5.986968875E-1
1.568404843E0,7.552955151E-1,-1.212307930E0,6.700717807E-1
1.573606667E0,9.001759291E-1,-1.084472299E0,7.361201644E-1
1.578692448E0,1.031207442E0,-1.004575014E0,8.011032939E-1
1.583746980E0,1.145194173E0,-9.800731540E-1,8.884576559E-1
1.588763386E0,1.219764948E0,-9.513101578E-1,9.758120179E-1
1.593780992E0,1.246397376E0,-8.969800472E-1,1.019489169E0
1.598873439E0,1.247462749E0,-8.064298034E-1,1.025880933E0
1.603749482E0,1.227222085E0,-7.478384376E-1,1.010966778E0
1.608982451E0,1.185675502E0,-7.627525926E-1,9.822037816E-1
1.614038754E0,1.147324800E0,-8.394539952E-1,9.523754716E-1
1.619196202E0,1.130280018E0,-9.577019215E-1,9.406571984E-1
1.624052609E0,1.143063664E0,-1.053578615E0,9.523754716E-1
1.629112349E0,1.196328402E0,-1.096190572E0,9.875302315E-1
1.634218704E0,1.276225686E0,-1.084472299E0,1.034403324E0
1.639383287E0,1.350796461E0,-9.960526228E-1,1.086602926E0
1.644342559E0,1.398734927E0,-8.863270283E-1,1.133475900E0
1.649352038E0,1.418975472E0,-7.904503345E-1,1.188871384E0
1.654483915E0,1.407257199E0,-7.329242826E-1,1.248528004E0
1.659628081E0,1.371037126E0,-7.329242826E-1,1.271964550E0
1.664722353E0,1.314576387E0,-7.723402977E-1,1.241070986E0
1.669667040E0,1.233613849E0,-8.724781871E-1,1.164369583E0
1.674776938E0,1.128149509E0,-1.001379132E0,1.057839870E0
1.679697354E0,1.012032032E0,-1.138802409E0,9.427877665E-1
1.684796470E0,8.937841058E-1,-1.247462749E0,8.394539952E-1
1.689801880E0,8.245398402E-1,-1.279421568E0,7.755361795E-1
1.694957877E0,8.298662901E-1,-1.273029804E0,7.478384376E-1
1.700272512E0,8.351927996E-1,-1.219764948E0,7.446425557E-1
1.705036941E0,8.596946001E-1,-1.081276417E0,7.648832202E-1
1.710413659E0,9.598325491E-1,-8.927188516E-1,8.575640321E-1
1.715250431E0,1.080211043E0,-6.178722382E-1,9.534407854E-1
1.720358243E0,1.177153111E0,-2.844342887E-1,9.523754716E-1
1.725249286E0,1.291139841E0,3.089361079E-2,8.820658922E-1
1.730312880E0,1.464783311E0,2.929566503E-1,7.648832202E-1
1.735528923E0,1.693822145E0,4.751224220E-1,5.539544225E-1
1.740666787E0,1.942036271E0,5.784562230E-1,2.215817571E-1
1.745628820E0,2.178532124E0,6.168069243E-1,-9.907261282E-2
1.750522673E0,2.391591549E0,4.985589683E-1,-1.416844875E-1
1.755558605E0,2.516231298E0,3.632662594E-1,6.711370498E-2
1.760886164E0,2.530080318E0,4.367717505E-1,2.759118974E-1
1.765652155E0,2.400114059E0,6.423740387E-1,3.206543922E-1
1.770877519E0,2.156161070E0,8.341274858E-1,2.854995728E-1
1.775828510E0,1.903685570E0,8.884576559E-1,3.110667169E-1
1.780934239E0,1.692756772E0,8.213439584E-1,4.463594258E-1
1.785909129E0,1.483958602E0,7.244018912E-1,6.136110425E-1
1.791086584E0,1.220830321E0,6.391781569E-1,7.041612864E-1
1.796010856E0,9.225471616E-1,5.475625992E-1,6.860512495E-1
1.801112522E0,6.178722382E-1,4.303799570E-1,6.104151607E-1
1.806132836E0,2.993484437E-1,2.929566503E-1,5.219954848E-1
1.811237263E0,7.457078435E-3,1.352927089E-1,4.570123851E-1
1.816321014E0,-2.279735506E-1,-1.704475097E-2,4.271840751E-1
1.821525233E0,-4.069434404E-1,-1.289009303E-1,4.133352041E-1
1.826520234E0,-5.251913667E-1,-1.789698899E-1,4.037475288E-1
1.831474140E0,-5.827174187E-1,-1.779045910E-1,3.984210491E-1
1.836582787E0,-6.050886512E-1,-1.917534471E-1,3.792456985E-1
1.841706537E0,-6.050886512E-1,-2.652589381E-1,3.313073516E-1
1.846596850E0,-5.805868506E-1,-3.771151006E-1,2.556712627E-1
1.851709454E0,-5.443667173E-1,-4.772530198E-1,1.672516167E-1
1.856856747E0,-5.177342892E-1,-5.177342892E-1,8.841964602E-2
1.861992841E0,-4.953630865E-1,-4.921671748E-1,4.580776766E-2
1.867031175E0,-4.708612561E-1,-4.644694626E-1,2.769771963E-2
1.872087165E0,-4.666000605E-1,-4.921671748E-1,2.876301669E-2
1.876960968E0,-4.942977726E-1,-4.772530198E-1,8.096256852E-2
1.882210759E0,-5.805868506E-1,-3.515479863E-1,1.811004728E-1
1.887111542E0,-7.350549102E-1,-1.949493438E-1,3.089361191E-1
1.892316385E0,-9.353306890E-1,-7.563608140E-2,4.538165033E-1
1.897352168E0,-1.128149509E0,3.515479714E-2,6.008274555E-1
1.902460137E0,-1.313511133E0,1.992105246E-1,7.126836777E-1
1.907459252E0,-1.504199266E0,3.419603109E-1,7.499690652E-1
1.912539148E0,-1.754544020E0,2.791078091E-1,7.233366370E-1
1.917526962E0,-2.084786177E0,2.556712553E-2,6.924430132E-1
1.922699670E0,-2.289323092E0,-1.651210189E-1,6.753982306E-1
1.927549411E0,-2.247776508E0,-2.024064213E-1,6.359822750E-1
1.932656077E0,-2.044304848E0,-1.416844875E-1,6.402434707E-1
1.937869985E0,-1.724715710E0,-5.646073818E-2,6.945735812E-1
1.942889568E0,-1.326294661E0,-2.556712553E-2,7.318589687E-1
1.947790610E0,-9.310694933E-1,-1.363580078E-1,6.945735812E-1
1.953053683E0,-6.391781569E-1,-4.005516469E-1,6.040233374E-1
1.958037903E0,-4.804489315E-1,-7.457078695E-1,5.433014631E-1
1.963023215E0,-4.101393223E-1,-1.071688771E0,5.656726956E-1
1.968028113E0,-3.739192188E-1,-1.296466351E0,6.594188213E-1
1.973391602E0,-3.526133001E-1,-1.351861835E0,7.691444159E-1
1.978132176E0,-3.472867906E-1,-1.251723886E0,8.810005784E-1
1.983316134E0,-3.622009456E-1,-1.056774616E0,1.007770896E0
1.988402177E0,-3.749845326E-1,-8.351927996E-1,1.115365863E0
1.993609833E0,-3.622009456E-1,-6.871165037E-1,1.149455428E0
1.998503741E0,-3.334379494E-1,-6.817900538E-1,1.100451708E0
2.003608376E0,-2.940219641E-1,-7.723402977E-1,9.907261729E-1
2.008605200E0,-2.663242221E-1,-8.671516776E-1,8.469110727E-1
2.013796502E0,-2.556712627E-1,-8.788699508E-1,6.860512495E-1
2.018788795E0,-2.460835874E-1,-8.138868809E-1,5.060160160E-1
2.023760930E0,-2.173205763E-1,-7.446425557E-1,3.121320009E-1
2.028793119E0,-1.544680595E-1,-7.148142457E-1,1.342274100E-1
2.033984264E0,-5.113425106E-2,-7.084224820E-1,-5.326484796E-3
2.038981557E0,8.948494494E-2,-6.839206219E-1,-7.989726961E-2
2.043955411E0,2.652589381E-1,-5.955010056E-1,-9.374613315E-2
2.048991343E0,4.527511895E-1,-3.898986876E-1,-8.309315890E-2
2.054184058E0,6.647452712E-1,-6.178722158E-2,-1.022685021E-1
2.059096559E0,9.001759291E-1,2.791078091E-1,-1.448803842E-1
2.064242548E0,1.148390055E0,5.646073818E-1,-1.832310706E-1
2.069343904E0,1.393408418E0,7.734055519E-1,-2.002758235E-1
2.074482966E0,1.591553569E0,9.214818478E-1,-1.885575503E-1
2.079454894E0,1.690626264E0,1.045056343E0,-1.597945392E-1
2.084540623E0,1.685299754E0,1.156912446E0,-1.257050335E-1
2.089549062E0,1.610728979E0,1.323098779E0,-8.522375673E-2
2.094578906E0,1.510591030E0,1.541484714E0,-4.687306657E-2
2.099607032E0,1.407257199E0,1.749217510E0,1.065296959E-2
2.104846355E0,1.299662232E0,1.942036271E0,1.075949892E-1
2.109675835E0,1.218699694E0,2.078394413E0,2.183858752E-1
2.114954481E0,1.157977819E0,2.189185143E0,3.334379494E-1
2.119956773E0,1.095125198E0,2.285061836E0,4.314452708E-1
2.124900523E0,1.033338070E0,2.271213055E0,4.804489315E-1
2.129908181E0,9.694201946E-1,2.119940996E0,4.666000605E-1
2.135103076E0,8.788699508E-1,1.863204360E0,4.048128426E-1
2.140088286E0,7.041612864E-1,1.660797954E0,3.249155581E-1
2.145384067E0,4.836448133E-1,1.469044447E0,2.428877056E-1
2.150160422E0,2.524753809E-1,1.180348992E0,1.651210189E-1
2.155467870E0,2.237123623E-2,7.734055519E-1,8.202786744E-2
2.160270632E0,-2.098634988E-1,3.366338313E-1,-1.917534508E-2
2.165508913E0,-4.484900236E-1,-5.752603337E-2,-1.203785539E-1
2.170540581E0,-6.828553081E-1,-3.717886209E-1,-2.002758235E-1
2.175509591E0,-8.959147334E-1,-6.029580832E-1,-2.354306281E-1
2.180501519E0,-1.066362262E0,-7.531649470E-1,-2.226470560E-1
2.185829904E0,-1.179283738E0,-8.256051540E-1,-1.906881481E-1
2.190642458E0,-1.226156831E0,-8.554334641E-1,-1.725780964E-1
2.195941676E0,-1.226156831E0,-8.980453014E-1,-1.555333585E-1
2.200799177E0,-1.181414247E0,-9.768772721E-1,-1.203785539E-1
2.206329906E0,-1.104712963E0,-1.075949907E0,-6.285251677E-2
2.210937251E0,-1.021619797E0,-1.169696093E0,1.278356276E-2
2.215974438E0,-9.417225122E-1,-1.252789140E0,1.043990999E-1
2.220978502E0,-8.714128733E-1,-1.304988742E0,2.333000302E-1
2.226096992E0,-8.042991757E-1,-1.310315251E0,3.898986876E-1
2.231097045E0,-7.350549102E-1,-1.282617569E0,5.422361493E-1
2.236383972E0,-6.508964300E-1,-1.266638041E0,6.807247400E-1
2.241224494E0,-5.614115000E-1,-1.301792860E0,8.096256852E-1
2.246546421E0,-4.868406951E-1,-1.372102499E0,9.225471616E-1
2.251453297E0,-4.399676323E-1,-1.449869156E0,1.012032032E0
2.256576422E0,-4.261187613E-1,-1.543615222E0,1.070623398E0
2.261453142E0,-4.389023483E-1,-1.638426661E0,1.090864062E0
2.266635173E0,-4.527511895E-1,-1.736433983E0,1.080211043E0
2.271575070E0,-4.442288280E-1,-1.833376050E0,1.047186852E0
2.276911007E0,-4.048128426E-1,-1.904750943E0,1.004575014E0
2.281774081E0,-3.366338313E-1,-1.953754544E0,9.449183941E-1
2.287114133E0,-2.396918088E-1,-1.984648228E0,8.852617741E-1
2.292018614E0,-1.363580078E-1,-2.021933556E0,8.245398402E-1
2.296922415E0,-6.498311460E-2,-2.033651829E0,7.467731237E-1
2.301923771E0,-2.237123623E-2,-1.978256464E0,6.508964300E-1
2.307042885E0,1.384885982E-2,-1.885575533E0,5.603461862E-1
2.312059657E0,7.030959427E-2,-1.748152256E0,4.985589683E-1
2.317340699E0,1.597945392E-1,-1.537223458E0,4.740571380E-1
2.322162523E0,3.014790416E-1,-1.187806129E0,4.857754111E-1
2.327276793E0,4.868406951E-1,-6.562229395E-1,5.145384073E-1
2.332283357E0,6.945735812E-1,-2.450183034E-2,5.230607986E-1
2.337578461E0,8.937841058E-1,5.837827325E-1,5.028201342E-1
2.342400546E0,1.051448107E0,1.072754025E0,4.389023483E-1
2.347710181E0,1.164369583E0,1.376363635E0,3.291767538E-1
2.352685443E0,1.243201494E0,1.584096551E0,2.162552774E-1
2.357829609E0,1.308184624E0,1.740695238E0,1.139867753E-1
2.362634558E0,1.384886026E0,1.914338589E0,2.130593918E-2
2.367994818E0,1.438150883E0,2.101830959E0,-6.391781569E-2
2.372875653E0,1.404061317E0,2.193446398E0,-1.352927089E-1
2.377873673E0,1.284748077E0,2.151899815E0,-1.821657717E-1
2.382904300E0,1.033338070E0,1.948428154E0,-1.811004728E-1
2.388187945E0,6.349169612E-1,1.621381879E0,-1.906881481E-1
2.393022061E0,2.780424953E-1,1.331621170E0,-2.301041335E-1
2.398388050E0,5.752603337E-2,1.062101007E0,-2.812383771E-1
2.403329875E0,-7.776667923E-2,7.435772419E-1,-3.462215066E-1
2.408235551E0,-8.522375673E-2,5.251913667E-1,-4.687306583E-1
2.413232428E0,1.193132550E-1,5.241261125E-1,-6.679411530E-1
2.418359921E0,2.269082516E-1,4.250534773E-1,-8.831311464E-1
2.423365189E0,1.065296959E-2,6.072192639E-2,-1.055709243E0
2.428482376E0,-3.707233369E-1,-5.582156181E-1,-1.115365863E0
2.433683784E0,-6.306557655E-1,-1.146259546E0,-1.114300609E0
2.439024409E0,-7.126836777E-1,-1.660797954E0,-1.227222085E0
2.443769722E0,-6.828553081E-1,-2.145508051E0,-1.384886026E0
2.448871493E0,-5.283873081E-1,-2.533276081E0,-1.170761347E0
2.453867484E0,-2.876301706E-1,-2.742074251E0,-7.222713232E-1
2.459010713E0,-3.835069016E-2,-2.705854177E0,-4.346411526E-1
2.463824568E0,2.886954844E-1,-2.382004023E0,-3.238502741E-1
2.469127432E0,6.860512495E-1,-1.995301127E0,-2.737812996E-1
2.474130923E0,1.063166380E0,-1.698083282E0,-2.194511741E-1
2.479343944E0,1.366775990E0,-1.515917540E0,-1.619251370E-1
2.484257226E0,1.590488315E0,-1.446673274E0,-1.672516167E-1
2.489171966E0,1.766262293E0,-1.406191945E0,-2.428877056E-1
2.494191394E0,1.901555061E0,-1.399800181E0,-3.302420378E-1
2.499300404E0,1.996366501E0,-1.429628491E0,-3.984210491E-1
2.504465822E0,2.073067904E0,-1.467979193E0,-4.687306583E-1
2.509558009E0,2.143377542E0,-1.474370956E0,-5.699338317E-1
2.514554209E0,2.222209454E0,-1.425367355E0,-6.775288582E-1
2.519660094E0,2.307433128E0,-1.329490542E0,-7.520996332E-1
2.524531553E0,2.368155003E0,-1.228287339E0,-8.128215671E-1
2.529762386E0,2.391591549E0,-1.160108328E0,-9.065676928E-1
2.534767284E0,2.415028095E0,-1.078080535E0,-1.038664460E0
2.539764627E0,2.444856405E0,-1.012032032E0,-1.191002011E0
2.544779941E0,2.473619461E0,-9.853996634E-1,-1.345470071E0
2.550032440E0,2.511970282E0,-9.651589990E-1,-1.471175075E0
2.554940567E0,2.550320864E0,-9.577019215E-1,-1.567051768E0
2.560168483E0,2.560973883E0,-9.481142759E-1,-1.663993835E0
2.565181089E0,2.526884317E0,-8.724781871E-1,-1.759870529E0
2.570245672E0,1.963342309E0,-1.372102499E0,-1.902620316E0
2.575268590E0,-7.638179064E-1,-3.725343466E0,-2.351110220E0
2.580248277E0,-1.545745850E0,-3.340771198E0,-2.615303993E0
2.585382966E0,-1.176087856E0,-2.432072878E0,-2.419289351E0
2.590354059E0,-1.032272696E0,-1.835506678E0,-2.209425926E0
2.595518279E0,-1.051448107E0,-1.308184624E0,-2.086916685E0
2.600616508E0,-8.703476191E-1,-7.073571682E-1,-1.838702559E0
2.605496249E0,-5.752603412E-1,-1.693822145E-1,-1.515917540E0
2.610753697E0,-3.100014031E-1,1.502068639E-1,-1.238940358E0
2.615752760E0,-9.694202244E-2,2.258429527E-1,-1.058905125E0
2.620894739E0,1.033338010E-1,1.608598381E-1,-9.385265708E-1
2.625771980E0,2.780424953E-1,3.195890784E-2,-8.671516776E-1
2.630891928E0,4.037475288E-1,-1.150520667E-1,-8.330622315E-1
2.635842867E0,5.060160160E-1,-2.141246796E-1,-7.829932570E-1
2.641156304E0,5.678032637E-1,-2.396918088E-1,-6.967042089E-1
2.645955420E0,6.317210793E-1,-1.086602882E-1,-5.582156181E-1
2.651108023E0,8.021686077E-1,1.970799267E-1,-3.749845326E-1
2.656077712E0,1.025880933E0,5.475625992E-1,-1.896228492E-1
2.661232920E0,1.323098779E0,8.969800472E-1,-2.130593872E-3
2.666245682E0,1.773719430E0,1.281552196E0,1.981452256E-1
2.671321671E0,2.227535963E0,1.617120743E0,3.451561928E-1
2.676398496E0,2.605716228E0,1.871726751E0,4.080087245E-1
2.681443756E0,2.833689928E0,1.992105246E0,4.591429830E-1
2.686424955E0,2.876301765E0,1.903685570E0,5.443667173E-1
2.691564642E0,2.720768452E0,1.600075960E0,5.464973450E-1
2.696569956E0,2.378808022E0,1.129214764E0,4.378370345E-1
2.701660893E0,1.930317998E0,5.592808723E-1,2.578018606E-1
2.706664332E0,1.459456801E0,-3.195890784E-2,5.219954997E-2
2.711804019E0,1.019489169E0,-5.709991455E-1,-1.565986425E-1
2.716787198E0,6.540923119E-1,-9.214818478E-1,-3.078708053E-1
2.722190583E0,4.410329461E-1,-1.077015162E0,-3.952251673E-1
2.726913761E0,3.717886209E-1,-1.054643989E0,-4.708612561E-1
2.732027042E0,3.717886209E-1,-9.055023789E-1,-5.592808723E-1
2.737030793E0,3.185237944E-1,-6.839206219E-1,-5.582156181E-1
2.742133658E0,1.651210189E-1,-4.719265401E-1,-4.602082670E-1
2.747135638E0,4.900366068E-2,-3.739192188E-1,-3.515479863E-1
2.752379909E0,-9.694202244E-2,-3.206543922E-1,-3.824416101E-1
2.757266004E0,-2.769772112E-1,-3.824416101E-1,-5.731297731E-1
2.762506576E0,-3.323726356E-1,-4.655347466E-1,-7.307937145E-1
2.767522255E0,-2.546059787E-1,-4.389023483E-1,-7.723402977E-1
2.772638973E0,-1.470109820E-1,-3.046749234E-1,-7.126836777E-1
2.777610849E0,-2.556712553E-2,-9.481142461E-2,-5.944356918E-1
2.782721370E0,1.235744432E-1,1.597945392E-1,-4.687306583E-1
2.787609809E0,2.695201337E-1,3.611356616E-1,-3.877680898E-1
2.792731006E0,3.941598535E-1,4.580776691E-1,-3.611356616E-1
2.797728143E0,4.847100973E-1,4.719265401E-1,-3.536785841E-1
2.802846997E0,5.092119575E-1,4.144005179E-1,-3.739192188E-1
2.807947050E0,4.847100973E-1,2.929566503E-1,-4.122699201E-1
2.812983821E0,4.484900236E-1,1.523374617E-1,-4.602082670E-1
2.818176843E0,4.229228795E-1,3.622009605E-2,-5.081466436E-1
2.823134239E0,4.133352041E-1,-2.556712553E-2,-5.550196767E-1
2.828088719E0,4.271840751E-1,-3.835069016E-2,-5.784562230E-1
2.833212573E0,4.474247098E-1,-3.195890691E-3,-5.848480463E-1
2.838212626E0,4.612735808E-1,8.309315890E-2,-5.784562230E-1
2.843345595E0,4.868406951E-1,1.800351888E-1,-5.784562230E-1
2.848520700E0,5.241261125E-1,2.599324584E-1,-5.986968875E-1
2.853479815E0,5.603461862E-1,3.195890784E-1,-6.413087845E-1
2.858572160E0,5.816521049E-1,3.398297131E-1,-6.956388950E-1
2.863677107E0,5.923051238E-1,3.281114697E-1,-7.350549102E-1
2.868745077E0,6.040233374E-1,3.345032334E-1,-7.510343194E-1
2.873716640E0,6.210681200E-1,3.845722079E-1,-7.446425557E-1
2.878691484E0,6.498311162E-1,4.676653445E-1,-7.062918544E-1
2.883817526E0,6.871165037E-1,5.720644593E-1,-6.615493894E-1
2.889002163E0,7.169448137E-1,6.572881937E-1,-6.274598837E-1
2.893944766E0,7.350549102E-1,6.977695227E-1,-5.923051238E-1
2.899219559E0,7.425119877E-1,7.073571682E-1,-5.550196767E-1
2.904043934E0,7.382507920E-1,6.977695227E-1,-5.390402675E-1
2.909105810E0,7.212060094E-1,6.572881937E-1,-5.273219943E-1
2.914147216E0,6.945735812E-1,5.869786143E-1,-5.166690350E-1
2.919183148E0,6.594188213E-1,5.177342892E-1,-4.974936545E-1
2.924515290E0,6.295905113E-1,4.666000605E-1,-4.644694626E-1
2.929537531E0,6.221334338E-1,4.634041786E-1,-4.122699201E-1
2.934694823E0,6.274598837E-1,5.315831900E-1,-3.376991153E-1
2.939629147E0,6.381128430E-1,6.200028062E-1,-2.812383771E-1
2.944700344E0,6.370475888E-1,6.604840755E-1,-2.439530045E-1
2.949678940E0,6.295905113E-1,6.445046663E-1,-2.056023031E-1
2.954818887E0,6.040233374E-1,5.848480463E-1,-1.821657717E-1
2.959749670E0,5.592808723E-1,4.847100973E-1,-1.725780964E-1
2.964803472E0,5.102772117E-1,3.835068941E-1,-1.757739931E-1
2.969970973E0,4.612735808E-1,2.950872481E-1,-1.800351888E-1
2.975128785E0,4.133352041E-1,2.162552774E-1,-1.661863178E-1
2.980066234E0,3.707233369E-1,1.512721628E-1,-1.384886056E-1
2.984973005E0,3.376991153E-1,1.129214764E-1,-1.150520667E-1
2.990030089E0,3.206543922E-1,1.139867753E-1,-8.415845782E-2
2.995066020E0,3.153278828E-1,1.502068639E-1,-5.006895587E-2
3.000316392E0,3.110667169E-1,1.842963696E-1,-2.130593918E-2
3.005213319E0,3.068055212E-1,1.928187460E-1,0.000000000E0
3.010400925E0,2.993484437E-1,1.672516167E-1,1.811004803E-2
3.015757279E0,2.801730931E-1,9.907261282E-2,3.835069016E-2
3.020681394E0,2.460835874E-1,-7.457078435E-3,5.113425106E-2
3.025534780E0,2.130593807E-1,-1.235744432E-1,6.817900389E-2
3.030667020E0,1.842963696E-1,-2.056023031E-1,9.055023640E-2
3.035580718E0,1.534027606E-1,-2.514100671E-1,1.086602882E-1
3.040575824E0,1.182479635E-1,-2.759118974E-1,1.203785539E-1
3.045741657E0,9.587672353E-2,-3.025443256E-1,1.320968270E-1
3.050879314E0,7.776667923E-2,-3.398297131E-1,1.342274100E-1
3.056106137E0,6.924430281E-2,-3.877680898E-1,1.299662292E-1
3.061041398E0,7.137489319E-2,-4.442288280E-1,1.203785539E-1
3.066186659E0,7.563608140E-2,-5.092119575E-1,9.800732136E-2
3.070922337E0,6.711370498E-2,-5.667379498E-1,7.883197069E-2
3.076111607E0,3.622009605E-2,-6.040233374E-1,6.924430281E-2
3.081121765E0,-1.065296936E-3,-5.933703780E-1,5.965662748E-2
3.086188900E0,-2.237123623E-2,-5.656726956E-1,5.006895587E-2
3.091179266E0,-2.343653329E-2,-5.347790718E-1,3.089361079E-2
3.096405880E0,-1.065296959E-2,-5.060160160E-1,1.171826664E-2
3.101287236E0,-1.065296959E-2,-4.942977726E-1,-3.195890691E-3
3.106430621E0,-2.556712553E-2,-4.804489315E-1,-3.089361079E-2
3.111465466E0,-3.835069016E-2,-4.410329461E-1,-3.089361079E-2
3.116650934E0,-3.515479714E-2,-4.080087245E-1,-1.065296936E-3
3.121521821E0,-2.130593918E-2,-4.197269976E-1,9.587672539E-3
3.126699477E0,-1.171826664E-2,-4.516859055E-1,-1.065296936E-3
3.131647343E0,-4.261187743E-3,-4.708612561E-1,-9.587672539E-3
3.136893332E0,0.000000000E0,-4.708612561E-1,-1.278356276E-2
3.141874063E0,7.457078435E-3,-4.282493591E-1,-2.343653329E-2
3.146985573E0,1.278356276E-2,-3.398297131E-1,-4.154657945E-2
3.151999324E0,1.278356276E-2,-2.311694324E-1,-7.244019210E-2
3.157004636E0,-1.491415687E-2,-1.395539045E-1,-1.214438528E-1
3.162212346E0,-6.711370498E-2,-9.268083423E-2,-2.002758235E-1
3.167104742E0,-1.299662292E-1,-8.415845782E-2,-2.950872481E-1
3.172267035E0,-1.704475135E-1,-8.522375673E-2,-4.026822448E-1
3.177367399E0,-1.917534471E-1,-1.235744432E-1,-5.262566805E-1
3.182377088E0,-1.906881481E-1,-1.075949892E-1,-6.626147032E-1
3.187510629E0,-1.747086942E-1,-3.408950195E-2,-8.053644896E-1
3.192595735E0,-1.619251370E-1,6.285251677E-2,-9.427877665E-1
3.197630682E0,-1.523374617E-1,2.418224066E-1,-1.054643989E0
3.202650683E0,-1.917534471E-1,3.920292854E-1,-1.153716564E0
3.207723756E0,-2.993484437E-1,4.112046063E-1,-1.334817052E0
3.212714799E0,-4.175963998E-1,4.538165033E-1,-1.603271842E0
3.217793809E0,-5.028201342E-1,5.539544225E-1,-1.887706161E0
3.222813081E0,-5.699338317E-1,6.466352344E-1,-2.130593777E0
3.227923081E0,-6.668758988E-1,6.690064669E-1,-2.388395786E0
3.232832978E0,-7.819279432E-1,6.785941720E-1,-2.615303993E0
3.237929072E0,-8.927188516E-1,7.361201644E-1,-2.752727270E0
3.242946052E0,-9.875302315E-1,7.819279432E-1,-2.814514399E0
3.248207771E0,-9.960526228E-1,7.009654045E-1,-2.840081692E0
3.253258449E0,-8.873923421E-1,5.326484442E-1,-2.859256983E0
3.258351678E0,-6.317210793E-1,3.334379494E-1,-2.756988525E0
3.263348606E0,-3.622009456E-1,2.673895359E-1,-2.480011225E0
3.268464752E0,-1.992105246E-1,2.151899785E-1,-2.094373703E0
3.273492722E0,-1.097255871E-1,1.065296903E-1,-1.715128064E0
3.278610794E0,-1.310315281E-1,-5.859133229E-2,-1.391277790E0
3.283435171E0,-1.587292403E-1,-2.695201337E-1,-1.153716564E0
3.288775691E0,-1.683169156E-1,-4.793836176E-1,-1.081276417E0
3.293744911E0,-2.237123549E-1,-6.455699205E-1,-1.037599206E0
3.298811317E0,-3.249155581E-1,-6.594188213E-1,-9.768772721E-1
3.303913714E0,-4.378370345E-1,-5.198649168E-1,-9.289389253E-1
3.308986266E0,-5.187996030E-1,-2.684548199E-1,-8.778046966E-1
3.313929236E0,-5.454320312E-1,5.752603337E-2,-8.554334641E-1
3.319052465E0,-5.603461862E-1,3.387644291E-1,-8.533028364E-1
3.323881373E0,-6.050886512E-1,4.644694626E-1,-8.596946001E-1
3.329190747E0,-6.306557655E-1,5.401055217E-1,-8.980453014E-1
3.334016478E0,-6.466352344E-1,5.965662599E-1,-9.662243128E-1
3.339164082E0,-6.594188213E-1,6.658105850E-1,-1.016293287E0
3.344162885E0,-6.487658620E-1,8.074950576E-1,-1.039729834E0
3.349491270E0,-5.550196767E-1,1.064231634E0,-1.040795088E0
3.354260334E0,-4.879060090E-1,1.266638041E0,-9.758120179E-1
3.359624396E0,-5.092119575E-1,1.304988742E0,-8.405193090E-1
3.364381897E0,-5.198649168E-1,1.124953508E0,-7.180101275E-1
3.369724970E0,-4.825794995E-1,9.033718109E-1,-6.466352344E-1
3.374545440E0,-4.474247098E-1,8.032338619E-1,-5.251913667E-1
3.379847367E0,-4.389023483E-1,6.924430132E-1,-3.803110123E-1
3.384620077E0,-4.506205916E-1,5.614115000E-1,-2.546059787E-1
3.390003201E0,-4.729918540E-1,4.474247098E-1,-1.565986425E-1
3.394878828E0,-4.708612561E-1,3.685927391E-1,-7.670138031E-2
3.399830754E0,-4.271840751E-1,3.568744659E-1,-2.663242258E-2
3.404845704E0,-4.144005179E-1,3.089361191E-1,-1.065296936E-3
3.409957839E0,-4.080087245E-1,2.428877056E-1,3.195890784E-2
3.415168309E0,-3.803110123E-1,2.503447831E-1,8.415845782E-2
3.420082683E0,-3.483521044E-1,1.779045910E-1,1.107908785E-1
3.425069039E0,-3.313073516E-1,7.776667923E-2,4.793836176E-2
3.430417268E0,-3.227849603E-1,-2.663242258E-2,-3.195890784E-2
3.435188832E0,-3.057402074E-1,2.982831374E-2,-4.154657945E-2
3.440303675E0,-3.057402074E-1,2.024064213E-1,-5.113425106E-2
3.445573208E0,-2.993484437E-1,3.174584806E-1,-9.694202244E-2
3.450451228E0,-2.652589381E-1,3.174584806E-1,-1.747086942E-1
3.455451646E0,-2.237123549E-1,2.386265099E-1,-2.428877056E-1
3.460839302E0,-1.597945392E-1,1.896228492E-1,-2.546059787E-1
3.465564251E0,-9.800732136E-2,2.013411224E-1,-2.301041335E-1
3.470961959E0,-4.474247247E-2,2.205164731E-1,-2.290388346E-1
3.475837690E0,1.811004803E-2,2.215817571E-1,-1.938840449E-1
3.480925710E0,8.415845782E-2,1.970799267E-1,-1.597945392E-1
3.485781962E0,1.555333585E-1,1.384886056E-1,-1.629904360E-1
3.490970972E0,2.087981999E-1,1.278356276E-2,-1.225091442E-1
3.495900713E0,2.215817571E-1,-1.097255871E-1,-1.917534508E-2
3.501390869E0,2.929566503E-1,-1.310315281E-1,4.048128426E-2
3.506340297E0,3.515479863E-1,-1.214438528E-1,1.065296903E-1
3.511206651E0,3.121320009E-1,-5.219954997E-2,1.587292403E-1
3.516286861E0,2.119940966E-1,-4.687306657E-2,1.086602882E-1
3.521285766E0,1.214438528E-1,-7.563608140E-2,-2.024064213E-2
3.526251705E0,5.646073818E-2,-5.752603337E-2,-1.693822145E-1
3.531425663E0,8.522375487E-3,-2.343653329E-2,-2.993484437E-1
3.536826915E0,-6.391781382E-3,6.391781382E-3,-3.962904513E-1
3.541710196E0,-2.130593872E-3,4.261187837E-2,-4.825794995E-1
3.546806551E0,2.556712553E-2,2.130593918E-2,-5.784562230E-1
3.551710040E0,7.776667923E-2,2.130593872E-3,-6.594188213E-1
3.556798167E0,1.523374617E-1,-2.024064213E-2,-7.286630869E-1
3.561900614E0,2.343653291E-1,-4.154657945E-2,-7.712749839E-1
3.566740303E0,3.227849603E-1,3.195890691E-3,-8.106909394E-1
3.571925876E0,4.165311158E-1,6.178722158E-2,-8.479763865E-1
3.577084679E0,5.049507618E-1,4.261187837E-2,-8.841964602E-1
3.582037075E0,6.189374924E-1,3.408950195E-2,-8.927188516E-1
3.587268586E0,7.254672050E-1,4.474247247E-2,-8.639557958E-1
3.592068326E0,7.872544527E-1,-3.941598535E-2,-8.160174489E-1
3.597355514E0,7.893850207E-1,-1.619251370E-1,-7.244018912E-1
3.602231139E0,7.190754414E-1,-1.949493438E-1,-6.114804149E-1
3.607302911E0,5.944356918E-1,-2.013411224E-1,-5.028201342E-1
3.612423536E0,4.410329461E-1,-1.544680595E-1,-3.920292854E-1
3.617520509E0,2.514100671E-1,-7.137489319E-2,-2.705854177E-1
3.622690516E0,5.219954997E-2,2.237123623E-2,-1.374233067E-1
3.627708903E0,-1.235744432E-1,1.342274100E-1,-1.597945392E-2
3.632556663E0,-2.737812996E-1,2.045370042E-1,7.563608140E-2
3.637721300E0,-4.101393223E-1,2.173205763E-1,1.406191885E-1
3.642832862E0,-5.156037211E-1,2.396918088E-1,1.736433953E-1
3.647688749E0,-5.859133005E-1,2.578018606E-1,1.800351888E-1
3.652848696E0,-6.338516474E-1,2.769772112E-1,1.629904360E-1
3.658003385E0,-6.370475888E-1,3.036096394E-1,1.075949892E-1
3.663119218E0,-5.955010056E-1,2.993484437E-1,2.769771963E-2
3.668137188E0,-5.081466436E-1,2.716507316E-1,-5.113425106E-2
3.673041459E0,-3.792456985E-1,2.322347313E-1,-1.267703325E-1
3.678233387E0,-2.364959270E-1,1.651210189E-1,-1.885575503E-1
3.683395470E0,-1.086602882E-1,9.800732136E-2,-2.056023031E-1
3.688385992E0,-1.491415687E-2,2.556712553E-2,-2.013411224E-1
3.693368127E0,4.900366068E-2,-3.835069016E-2,-1.811004728E-1
3.698522816E0,6.498311460E-2,-7.244019210E-2,-1.619251370E-1
3.703447555E0,1.704475097E-2,-5.965662748E-2,-1.523374617E-1
3.708483487E0,-1.012032107E-1,-9.587672539E-3,-1.257050335E-1
3.713847609E0,-2.492794842E-1,5.539543927E-2,-9.374613315E-2
3.718503339E0,-3.877680898E-1,9.268083423E-2,-9.374613315E-2
3.723846516E0,-4.719265401E-1,1.086602882E-1,-1.054643989E-1
3.728851153E0,-4.932324886E-1,1.001379117E-1,-1.203785539E-1
3.733893704E0,-4.655347466E-1,8.522375673E-2,-1.139867753E-1
3.739100737E0,-3.952251673E-1,6.498311460E-2,-1.022685021E-1
3.744019903E0,-2.982831299E-1,2.769771963E-2,-9.907261282E-2
3.749010946E0,-1.896228492E-1,-9.587672539E-3,-1.065296903E-1
3.754083706E0,-9.481142461E-2,-3.622009605E-2,-1.257050335E-1
3.759126312E0,-3.195890784E-2,-5.539543927E-2,-1.480762810E-1
3.764259593E0,6.391781382E-3,-6.817900389E-2,-1.832310706E-1
3.769133188E0,2.876301669E-2,-1.182479635E-1,-2.087981999E-1
3.774522563E0,2.982831374E-2,-1.683169156E-1,-2.151899785E-1
3.779212772E0,3.195890691E-3,-1.725780964E-1,-2.258429527E-1
3.784337980E0,-2.982831374E-2,-1.832310706E-1,-2.396918088E-1
3.789490325E0,-5.326484516E-2,-1.853616685E-1,-2.247776538E-1
3.794617981E0,-5.219954997E-2,-1.193132550E-1,-2.109287977E-1
3.799465587E0,-1.065296959E-2,-6.178722158E-2,-2.301041335E-1
3.804569076E0,5.433014408E-2,-5.752603337E-2,-3.014790416E-1
3.809608713E0,1.054643989E-1,-1.161173657E-1,-3.824416101E-1
3.814729077E0,1.395539045E-1,-2.002758235E-1,-4.602082670E-1
3.819700901E0,1.491415650E-1,-3.270461559E-1,-5.060160160E-1
3.824995172E0,1.459456831E-1,-4.165311158E-1,-5.134730935E-1
3.830001840E0,1.001379117E-1,-4.112046063E-1,-4.580776691E-1
3.835051318E0,1.811004803E-2,-3.590050638E-1,-3.717886209E-1
3.840102101E0,-8.628904819E-2,-2.940219641E-1,-2.375612110E-1
3.845133299E0,-2.002758235E-1,-1.853616685E-1,-5.006895587E-2
3.850295956E0,-3.355685472E-1,-5.859133229E-2,4.580776766E-2
3.855423449E0,-4.783183336E-1,2.024064213E-2,-1.811004803E-2
3.860422572E0,-5.390402675E-1,-3.728539124E-2,-5.539543927E-2
3.865279655E0,-5.273219943E-1,-1.384886056E-1,-7.883197069E-2
3.870346107E0,-4.793836176E-1,-1.715128124E-1,-1.289009303E-1
3.875472937E0,-4.325105548E-1,-1.693822145E-1,-1.896228492E-1
3.880487366E0,-3.877680898E-1,-1.970799267E-1,-2.599324584E-1
3.885633511E0,-3.291767538E-1,-2.695201337E-1,-3.376991153E-1
3.890592106E0,-2.450182885E-1,-3.462215066E-1,-4.378370345E-1
3.895645856E0,-1.704475135E-1,-4.048128426E-1,-5.603461862E-1
3.900636847E0,-1.001379117E-1,-4.325105548E-1,-6.700717807E-1
3.905994607E0,-4.261187837E-2,-3.760498166E-1,-7.489037514E-1
3.910906744E0,6.391781382E-3,-3.281114697E-1,-7.776667476E-1
3.916057629E0,3.408950195E-2,-3.994863629E-1,-7.457078695E-1
3.920967161E0,1.917534508E-2,-4.996242523E-1,-6.604840755E-1
3.926150911E0,-3.408950195E-2,-5.187996030E-1,-6.082845330E-1
3.930988985E0,-9.268083423E-2,-4.197269976E-1,-5.923051238E-1
3.936143204E0,-1.661863178E-1,-2.407571077E-1,-6.210681200E-1
3.941412580E0,-2.716507316E-1,6.072192639E-2,-6.594188213E-1
3.946372111E0,-4.346411526E-1,5.891091824E-1,-6.700717807E-1
3.951257216E0,-6.104151607E-1,1.144128919E0,-7.116183639E-1
3.956507581E0,-6.817900538E-1,1.679973245E0,-8.618252277E-1
3.961352634E0,-6.040233374E-1,2.078394413E0,-1.167565465E0
3.966504144E0,-5.976315737E-1,1.538288832E0,-1.428563237E0
3.971498885E0,-4.644694626E-1,8.596946001E-1,-1.581965923E0
3.976602739E0,-1.416844875E-1,5.678032637E-1,-1.764131784E0
3.981593521E0,1.438150853E-1,4.431635141E-1,-1.946297526E0
3.987077948E0,3.536785841E-1,2.418224066E-1,-2.024064064E0
3.991884772E0,5.592808723E-1,9.481142461E-2,-2.080524921E0
3.996926126E0,7.030959725E-1,6.285251677E-2,-2.061349630E0
4.002084148E0,8.181480169E-1,3.515479714E-2,-1.880249143E0
4.007102638E0,9.992485046E-1,2.450183034E-2,-1.605402470E0
4.011945660E0,1.191002011E0,1.704475097E-2,-1.378494263E0
4.017121285E0,1.299662232E0,4.261187743E-3,-1.153716564E0
4.022070036E0,1.211242557E0,3.302420676E-2,-9.555713534E-1
4.027185452E0,9.640937448E-1,1.161173657E-1,-8.564987183E-1
4.032377589E0,7.425119877E-1,2.162552774E-1,-9.065676928E-1
4.037538839E0,5.550196767E-1,2.791078091E-1,-9.992485046E-1
4.042485194E0,4.048128426E-1,2.343653291E-1,-9.747467041E-1
4.047580246E0,3.100014031E-1,9.907261282E-2,-8.319969177E-1
4.052595508E0,2.599324584E-1,-3.089361079E-2,-6.359822750E-1
4.057749049E0,2.279735506E-1,-1.491415650E-1,-4.293146729E-1
4.062585821E0,2.066676021E-1,-2.418224066E-1,-2.514100671E-1
4.067705977E0,1.661863178E-1,-2.812383771E-1,-9.268083423E-2
4.072821239E0,1.043990999E-1,-2.354306281E-1,3.835069016E-2
4.077765249E0,6.711370498E-2,-1.001379117E-1,8.309315890E-2
4.082916657E0,9.268083423E-2,-1.917534508E-2,7.563608140E-2
4.088037177E0,1.225091442E-1,-9.587672539E-3,6.817900389E-2
4.092896085E0,1.246397421E-1,-1.065296936E-3,5.752603337E-2
4.098000824E0,1.107908785E-1,1.065296936E-3,5.859133229E-2
4.103051502E0,1.012032107E-1,-1.065296959E-2,8.309315890E-2
4.108301398E0,1.374233067E-1,7.457078435E-3,4.580776766E-2
4.113133274E0,2.002758235E-1,-1.278356276E-2,1.384885982E-2
4.118404993E0,2.471488863E-1,-5.433014408E-2,2.450183034E-2
4.123397859E0,2.961525619E-1,-9.907261282E-2,2.982831374E-2
4.128625306E0,3.984210491E-1,-1.683169156E-1,-4.261187837E-2
4.133373016E0,5.560849905E-1,-2.322347313E-1,-7.776667923E-2
4.138544995E0,7.201407552E-1,-2.301041335E-1,-1.757739931E-1
4.143490256E0,7.350549102E-1,-1.320968270E-1,-4.026822448E-1
4.148776975E0,6.636800170E-1,-6.391781382E-3,-5.678032637E-1
4.153794164E0,6.572881937E-1,1.033338010E-1,-7.020306587E-1
4.158915726E0,7.265325189E-1,1.438150853E-1,-8.405193090E-1
4.163875050E0,8.405193090E-1,8.735434711E-2,-9.907261729E-1
4.168981977E0,9.715508223E-1,-2.024064213E-2,-1.139867663E0
4.173975728E0,1.136671782E0,-1.672516167E-1,-1.273029804E0
4.178960103E0,1.330555916E0,-4.122699201E-1,-1.422171354E0
4.183968125E0,1.567051768E0,-7.254672050E-1,-1.625643134E0
4.189317083E0,1.895163298E0,-1.050382733E0,-1.886640906E0
4.194103126E0,2.231796980E0,-1.448803782E0,-2.175336361E0
4.199449115E0,2.504513025E0,-1.951624036E0,-2.459770679E0
4.204452033E0,2.588671446E0,-2.121006250E0,-2.693070650E0
4.209330731E0,1.456260920E0,-8.437151909E-1,-2.221144199E0
4.214485263E0,-1.992105246E-1,4.825794995E-1,-4.729918540E-1
4.219423388E0,-6.050886512E-1,6.327863932E-1,3.632662594E-1
4.224667400E0,-4.836448133E-1,5.518237948E-1,2.226470560E-1
4.229796514E0,-4.026822448E-1,3.728539348E-1,1.470109820E-1
4.234725005E0,-2.407571077E-1,3.334379494E-1,1.203785539E-1
4.239805734E0,-1.416844875E-1,2.631283402E-1,1.587292403E-1
4.244865110E0,-1.139867753E-1,2.460835874E-1,1.097255871E-1
4.250121204E0,-1.139867753E-1,2.546059787E-1,7.670138031E-2
4.254890788E0,-8.628904819E-2,2.578018606E-1,7.989726961E-2
4.260026257E0,-5.326484516E-2,2.471488863E-1,8.628904819E-2
4.264919591E0,-5.965662748E-2,2.578018606E-1,4.367717355E-2
4.270015476E0,-8.948494494E-2,2.918913662E-1,-4.793836176E-2
4.275238915E0,-9.481142461E-2,3.249155581E-1,-1.075949892E-1
4.280178550E0,-7.137489319E-2,3.653968573E-1,-1.363580078E-1
4.285298656E0,-6.711370498E-2,4.122699201E-1,-1.779045910E-1
4.290396103E0,-8.096256852E-2,4.399676323E-1,-1.917534471E-1
4.295436469E0,-1.097255871E-1,3.994863629E-1,-2.109287977E-1
4.300438761E0,-2.290388346E-1,2.929566503E-1,-2.567365468E-1
4.305417929E0,-1.395539045E-1,3.547438681E-1,-2.141246796E-1
4.310688449E0,2.130593918E-2,3.515479863E-1,-2.066676021E-1
4.315479648E0,2.663242258E-2,2.567365468E-1,-2.311694324E-1
4.320610377E0,-5.965662748E-2,1.757739931E-1,-2.056023031E-1
4.325620847E0,-2.418224066E-1,5.326484516E-2,-1.576639414E-1
4.330868139E0,-3.036096394E-1,4.474247247E-2,-1.587292403E-1
4.335859963E0,-1.779045910E-1,4.154657945E-2,-1.811004728E-1
4.340865900E0,-1.065296903E-1,-5.113425106E-2,-2.205164731E-1
4.346097777E0,-8.735434711E-2,-1.097255871E-1,-2.620630562E-1
4.350987307E0,-5.646073818E-2,-8.735434711E-2,-2.918913662E-1
4.356123819E0,-4.048128426E-2,-2.876301669E-2,-3.014790416E-1
4.361107048E0,-5.326484516E-2,2.343653329E-2,-2.993484437E-1
4.366250018E0,-1.193132550E-1,1.512721628E-1,-3.036096394E-1
4.371243299E0,-2.301041335E-1,3.547438681E-1,-3.217196763E-1
4.376212363E0,-3.536785841E-1,4.186616838E-1,-4.080087245E-1
4.381514133E0,-5.869786143E-1,2.748466134E-1,-6.295905113E-1
4.386430228E0,-8.021686077E-1,3.685927391E-1,-8.341274858E-1
4.391511218E0,-9.491795897E-1,4.996242523E-1,-9.736813903E-1
4.396447573E0,-1.214438558E0,3.888333738E-1,-1.157977819E0
4.401737104E0,-1.418975472E0,2.492794842E-1,-1.396604300E0
4.406717158E0,-1.051448107E0,4.825794995E-1,-1.361449480E0
4.411673980E0,-5.273219943E-1,6.050886512E-1,-9.449183941E-1
4.416809294E0,-1.619251370E-1,4.783183336E-1,-4.708612561E-1
4.421944033E0,6.604841352E-2,2.439530045E-1,-2.183858752E-1
4.426809607E0,1.768392920E-1,4.154657945E-2,-1.182479635E-1
4.431912003E0,1.992105246E-1,-2.556712553E-2,-6.285251677E-2
4.437098775E0,1.832310706E-1,3.302420676E-2,-3.941598535E-2
4.442055441E0,1.523374617E-1,1.278356314E-1,-2.130593918E-2
4.447091120E0,1.161173657E-1,2.024064213E-1,-5.326484796E-3
4.452489922E0,8.309315890E-2,2.301041335E-1,6.391781382E-3
4.457163829E0,5.752603337E-2,2.130593807E-1,1.278356276E-2
4.462280964E0,6.178722158E-2,2.141246796E-1,1.811004803E-2
4.467449768E0,8.096256852E-2,1.970799267E-1,1.917534508E-2
4.472560549E0,1.012032107E-1,1.640557349E-1,2.556712553E-2
4.477524248E0,1.139867753E-1,1.267703325E-1,2.450183034E-2
4.482672789E0,1.129214764E-1,1.043990999E-1,1.278356276E-2
4.487708676E0,9.907261282E-2,9.694202244E-2,5.326484796E-3
4.492623415E0,8.522375673E-2,1.257050335E-1,-4.261187743E-3
4.498324249E0,6.498311460E-2,1.800351888E-1,-2.237123623E-2
4.503131959E0,3.622009605E-2,2.194511741E-1,-3.835069016E-2
4.508066854E0,1.597945392E-2,2.567365468E-1,-5.433014408E-2
4.512842012E0,2.130593872E-3,2.950872481E-1,-6.817900389E-2
4.518080657E0,-3.195890691E-3,3.387644291E-1,-8.415845782E-2
4.522924252E0,-1.065296936E-3,3.845722079E-1,-9.800732136E-2
4.528200971E0,-1.065296936E-3,4.357064366E-1,-1.171826646E-1
4.533237795E0,7.457078435E-3,4.868406951E-1,-1.320968270E-1
4.538314618E0,1.811004803E-2,5.518237948E-1,-1.502068639E-1
4.543351546E0,2.450183034E-2,6.146763563E-1,-1.629904360E-1
4.548401546E0,3.302420676E-2,6.722023487E-1,-1.629904360E-1
4.553290193E0,3.302420676E-2,7.158795595E-1,-1.640557349E-1
4.558631651E0,3.408950195E-2,7.552955151E-1,-1.661863178E-1
4.563395402E0,3.195890784E-2,7.872544527E-1,-1.629904360E-1
4.568688527E0,3.089361079E-2,8.128215671E-1,-1.587292403E-1
4.573515508E0,3.089361079E-2,8.202786446E-1,-1.565986425E-1
4.578636861E0,3.302420676E-2,8.170827627E-1,-1.427497864E-1
4.583655508E0,3.728539124E-2,8.106909394E-1,-1.342274100E-1
4.588996342E0,4.793836176E-2,7.957767844E-1,-1.235744432E-1
4.593974885E0,6.498311460E-2,7.723402977E-1,-1.139867753E-1
4.599321968E0,8.096256852E-2,7.435772419E-1,-1.065296903E-1
4.604054104E0,8.948494494E-2,7.169448137E-1,-1.012032107E-1
4.608984156E0,9.268083423E-2,6.839206219E-1,-9.587672353E-2
4.614132022E0,7.883197069E-2,6.391781569E-1,-9.694202244E-2
4.619290824E0,7.989726961E-2,6.359822750E-1,-9.374613315E-2
4.624107231E0,8.096256852E-2,6.168069243E-1,-8.841964602E-2
4.629366450E0,6.498311460E-2,5.741950274E-1,-1.001379117E-1
4.634280298E0,4.900366068E-2,5.262566805E-1,-1.246397421E-1
4.639345461E0,4.900366068E-2,5.070813298E-1,-1.320968270E-1
4.644380827E0,3.941598535E-2,4.804489315E-1,-1.438150853E-1
4.649691973E0,3.195890784E-2,4.687306583E-1,-1.502068639E-1
4.654681713E0,2.663242258E-2,4.687306583E-1,-1.480762810E-1
4.659656661E0,1.278356276E-2,4.634041786E-1,-1.512721628E-1
4.664585308E0,-5.326484796E-3,4.506205916E-1,-1.597945392E-1
4.670060256E0,-2.663242258E-2,4.357064366E-1,-1.693822145E-1
4.674958538E0,-4.048128426E-2,4.314452708E-1,-1.725780964E-1
4.680069267E0,-4.793836176E-2,4.197269976E-1,-1.693822145E-1
4.685063019E0,-5.113425106E-2,4.016169310E-1,-1.629904360E-1
4.690229633E0,-5.006895587E-2,3.835068941E-1,-1.565986425E-1
4.695110259E0,-4.580776766E-2,3.600703776E-1,-1.470109820E-1
4.700230155E0,-3.835069016E-2,3.334379494E-1,-1.374233067E-1
4.705204635E0,-3.195890784E-2,3.004137278E-1,-1.257050335E-1
4.710196197E0,-2.769771963E-2,2.599324584E-1,-1.182479635E-1
4.715266824E0,-1.597945392E-2,2.215817571E-1,-1.075949892E-1
4.720504636E0,-4.261187743E-3,1.864269674E-1,-9.587672353E-2
4.725492762E0,9.587672539E-3,1.470109820E-1,-8.841964602E-2
4.730629064E0,2.343653329E-2,1.107908785E-1,-7.883197069E-2
4.735575732E0,3.302420676E-2,7.137489319E-2,-7.030959427E-2
4.740524273E0,4.261187837E-2,3.195890784E-2,-6.391781569E-2
4.745529535E0,4.793836176E-2,-1.065296936E-3,-5.752603337E-2
4.750869118E0,5.006895587E-2,-3.195890784E-2,-5.006895587E-2
4.755869171E0,5.326484516E-2,-5.326484516E-2,-4.687306657E-2
4.761061776E0,4.900366068E-2,-7.457078248E-2,-4.367717355E-2
4.766059485E0,4.048128426E-2,-9.161553532E-2,-4.261187837E-2
4.770911933E0,2.982831374E-2,-1.033338010E-1,-4.154657945E-2
4.776062559E0,1.811004803E-2,-1.097255871E-1,-4.048128426E-2
4.781007246E0,3.195890691E-3,-1.139867753E-1,-3.941598535E-2
4.786175841E0,-1.704475097E-2,-1.182479635E-1,-3.835069016E-2
4.791115424E0,-3.835069016E-2,-1.171826646E-1,-3.515479714E-2
4.796130061E0,-6.072192639E-2,-1.118561774E-1,-3.302420676E-2
4.801437925E0,-8.415845782E-2,-1.075949892E-1,-2.769771963E-2
4.806459229E0,-1.075949892E-1,-1.043990999E-1,-2.663242258E-2
4.811386885E0,-1.278356314E-1,-1.012032107E-1,-2.769771963E-2
4.816585948E0,-1.416844875E-1,-9.907261282E-2,-2.876301669E-2
4.821750271E0,-1.491415650E-1,-9.055023640E-2,-2.982831374E-2
4.826480272E0,-1.565986425E-1,-8.628904819E-2,-2.663242258E-2
4.831650689E0,-1.651210189E-1,-8.841964602E-2,-2.450183034E-2
4.837016055E0,-1.704475135E-1,-9.055023640E-2,-2.343653329E-2
4.841721731E0,-1.779045910E-1,-9.587672353E-2,-2.130593918E-2
4.847331212E0,-1.842963696E-1,-1.033338010E-1,-2.024064213E-2
4.852237253E0,-1.885575503E-1,-1.097255871E-1,-1.811004803E-2
4.857027671E0,-1.874922663E-1,-1.203785539E-1,-1.597945392E-2
4.862105640E0,-1.864269674E-1,-1.299662292E-1,-1.171826664E-2
4.867244287E0,-1.864269674E-1,-1.459456831E-1,-6.391781382E-3
4.872228141E0,-1.874922663E-1,-1.651210189E-1,-3.195890691E-3
4.877066111E0,-1.864269674E-1,-1.885575503E-1,-2.130593872E-3
4.882370642E0,-1.821657717E-1,-2.183858752E-1,2.130593872E-3
4.887198299E0,-1.800351888E-1,-2.524753809E-1,3.195890691E-3
4.892303872E0,-1.757739931E-1,-2.908260524E-1,4.261187743E-3
4.897587206E0,-1.725780964E-1,-3.238502741E-1,9.587672539E-3
4.902707727E0,-1.672516167E-1,-3.526133001E-1,1.384885982E-2
4.907440801E0,-1.597945392E-1,-3.856374919E-1,1.917534508E-2
4.912778561E0,-1.555333585E-1,-4.239881933E-1,2.663242258E-2
4.917600847E0,-1.544680595E-1,-4.708612561E-1,3.728539124E-2
4.922670698E0,-1.608598381E-1,-5.337137580E-1,4.900366068E-2
4.927675074E0,-1.704475135E-1,-5.923051238E-1,5.859133229E-2
4.932808876E0,-1.736433953E-1,-6.445046663E-1,6.924430281E-2
4.937932315E0,-1.747086942E-1,-6.945735812E-1,8.096256852E-2
4.943053929E0,-1.768392920E-1,-7.435772419E-1,9.481142461E-2
4.948082524E0,-1.757739931E-1,-7.915156484E-1,1.086602882E-1
4.953012159E0,-1.736433953E-1,-8.351927996E-1,1.193132550E-1
4.958030494E0,-1.704475135E-1,-8.767393827E-1,1.320968270E-1
4.963153358E0,-1.661863178E-1,-9.129594564E-1,1.406191885E-1
4.968310182E0,-1.640557349E-1,-9.502448440E-1,1.416844875E-1
4.973267734E0,-1.629904360E-1,-9.790078998E-1,1.491415650E-1
4.978598048E0,-1.672516167E-1,-1.004575014E0,1.512721628E-1
4.983624297E0,-1.715128124E-1,-1.025880933E0,1.534027606E-1
4.988702632E0,-1.800351888E-1,-1.040795088E0,1.534027606E-1
4.993524038E0,-1.949493438E-1,-1.055709243E0,1.523374617E-1
4.998494977E0,-2.130593807E-1,-1.066362262E0,1.523374617E-1
5.004106487E0,-2.290388346E-1,-1.074884653E0,1.491415650E-1
5.009078728E0,-2.492794842E-1,-1.073819280E0,1.459456831E-1
5.013986696E0,-2.737812996E-1,-1.073819280E0,1.427497864E-1
5.019005604E0,-2.950872481E-1,-1.069558144E0,1.363580078E-1
5.024329562E0,-3.153278828E-1,-1.059970498E0,1.310315281E-1
5.029276230E0,-3.355685472E-1,-1.041860461E0,1.246397421E-1
5.034226542E0,-3.515479863E-1,-1.022685051E0,1.214438528E-1
5.039066543E0,-3.643315434E-1,-1.003509760E0,1.171826646E-1
5.044310241E0,-3.739192188E-1,-9.832690954E-1,1.118561774E-1
5.049132527E0,-3.781804144E-1,-9.619631171E-1,1.075949892E-1
5.054182846E0,-3.803110123E-1,-9.406571984E-1,1.012032107E-1
5.059527639E0,-3.781804144E-1,-9.204165339E-1,9.800732136E-2
5.064383889E0,-3.696580231E-1,-8.959147334E-1,9.481142461E-2
5.069573213E0,-3.622009456E-1,-8.682169914E-1,9.481142461E-2
5.074498421E0,-3.536785841E-1,-8.426498771E-1,9.374613315E-2
5.079634360E0,-3.430256248E-1,-8.149521351E-1,9.481142461E-2
5.084714099E0,-3.313073516E-1,-7.883197069E-1,9.587672353E-2
5.089781653E0,-3.206543922E-1,-7.744708657E-1,9.694202244E-2
5.094677381E0,-3.142625988E-1,-7.510343194E-1,1.001379117E-1
5.099670039E0,-3.025443256E-1,-7.105530500E-1,1.001379117E-1
5.105026914E0,-2.929566503E-1,-6.775288582E-1,1.022685021E-1
5.109948478E0,-2.844342887E-1,-6.413087845E-1,9.907261282E-2
5.115087279E0,-2.737812996E-1,-5.955010056E-1,9.481142461E-2
5.119914624E0,-2.631283402E-1,-5.486279130E-1,8.841964602E-2
5.125247957E0,-2.535406649E-1,-5.092119575E-1,8.096256852E-2
5.130038115E0,-2.471488863E-1,-4.804489315E-1,7.670138031E-2
5.135150354E0,-2.396918088E-1,-4.506205916E-1,7.030959427E-2
5.140422804E0,-2.301041335E-1,-4.048128426E-1,6.178722158E-2
5.145313532E0,-2.205164731E-1,-3.472867906E-1,5.539543927E-2
5.150402440E0,-2.162552774E-1,-2.993484437E-1,4.900366068E-2
5.155589106E0,-2.130593807E-1,-2.556712627E-1,4.261187837E-2
5.160389837E0,-2.098634988E-1,-2.141246796E-1,3.622009605E-2
5.165617441E0,-2.077329010E-1,-1.779045910E-1,3.302420676E-2
5.170691452E0,-2.045370042E-1,-1.544680595E-1,2.982831374E-2
5.175732962E0,-2.002758235E-1,-1.374233067E-1,2.450183034E-2
5.180737912E0,-1.970799267E-1,-1.203785539E-1,2.024064213E-2
5.185749109E0,-1.885575503E-1,-1.107908785E-1,1.811004803E-2
5.190892184E0,-1.821657717E-1,-1.054643989E-1,1.597945392E-2
5.196060100E0,-1.736433953E-1,-1.012032107E-1,1.597945392E-2
5.200945622E0,-1.619251370E-1,-9.481142461E-2,1.704475097E-2
5.206183330E0,-1.555333585E-1,-9.055023640E-2,1.491415687E-2
5.210968331E0,-1.491415650E-1,-8.522375673E-2,1.704475097E-2
5.216084164E0,-1.427497864E-1,-8.096256852E-2,1.491415687E-2
5.221230624E0,-1.342274100E-1,-7.776667923E-2,1.278356276E-2
5.226335728E0,-1.289009303E-1,-7.457078248E-2,1.065296959E-2
5.231217917E0,-1.257050335E-1,-6.498311460E-2,8.522375487E-3
5.236477083E0,-1.225091442E-1,-5.752603337E-2,3.195890691E-3
5.241468491E0,-1.235744432E-1,-5.646073818E-2,2.130593872E-3
5.246657345E0,-1.299662292E-1,-5.113425106E-2,-1.065296936E-3
5.251511877E0,-1.395539045E-1,-5.752603337E-2,-4.261187743E-3
5.256790210E0,-1.512721628E-1,-8.309315890E-2,-4.261187743E-3
5.261962555E0,-1.534027606E-1,-8.202786744E-2,-8.522375487E-3
5.266845882E0,-1.480762810E-1,-6.178722158E-2,-1.384885982E-2
5.271693285E0,-1.502068639E-1,-4.474247247E-2,-1.811004803E-2
5.277063441E0,-1.544680595E-1,-2.450183034E-2,-2.556712553E-2
5.281865318E0,-1.597945392E-1,-9.587672539E-3,-3.408950195E-2
5.286915682E0,-1.704475135E-1,4.261187743E-3,-4.154657945E-2
5.291940267E0,-1.800351888E-1,2.450183034E-2,-5.113425106E-2
5.297442350E0,-1.906881481E-1,4.048128426E-2,-5.859133229E-2
5.302122507E0,-1.981452256E-1,5.752603337E-2,-6.178722158E-2
5.307282871E0,-1.992105246E-1,7.030959427E-2,-6.285251677E-2
5.312285633E0,-1.960146427E-1,8.096256852E-2,-6.391781569E-2
5.317268654E0,-1.896228492E-1,8.309315890E-2,-6.178722158E-2
5.322329124E0,-1.811004728E-1,8.202786744E-2,-6.178722158E-2
5.327393603E0,-1.704475135E-1,8.735434711E-2,-6.391781569E-2
5.332484698E0,-1.640557349E-1,8.202786744E-2,-6.498311460E-2
5.337734333E0,-1.565986425E-1,7.457078248E-2,-6.604841352E-2
5.342907980E0,-1.459456831E-1,7.457078248E-2,-6.391781569E-2
5.348058241E0,-1.374233067E-1,7.670138031E-2,-5.752603337E-2
5.352835273E0,-1.299662292E-1,8.096256852E-2,-5.219954997E-2
5.357718600E0,-1.246397421E-1,7.883197069E-2,-4.580776766E-2
5.362762774E0,-1.193132550E-1,7.776667923E-2,-3.835069016E-2
5.367896888E0,-1.214438528E-1,7.563608140E-2,-3.195890784E-2
5.372884337E0,-1.225091442E-1,6.604841352E-2,-2.663242258E-2
5.378025170E0,-1.278356314E-1,5.006895587E-2,-1.704475097E-2
5.382992932E0,-1.257050335E-1,3.622009605E-2,-9.587672539E-3
5.388279442E0,-1.161173657E-1,2.024064213E-2,1.065296936E-3
5.393115225E0,-1.001379117E-1,7.457078435E-3,1.384885982E-2
5.398391422E0,-7.776667923E-2,-9.587672539E-3,2.024064213E-2
5.403226892E0,-5.433014408E-2,-2.982831374E-2,2.556712553E-2
5.408566632E0,-2.876301669E-2,-4.900366068E-2,2.556712553E-2
5.413449960E0,1.065296936E-3,-7.244019210E-2,2.343653329E-2
5.418779445E0,2.982831374E-2,-9.481142461E-2,1.704475097E-2
5.423724238E0,5.646073818E-2,-1.107908785E-1,9.587672539E-3
5.429024498E0,7.883197069E-2,-1.182479635E-1,1.065296936E-3
5.433590020E0,9.481142461E-2,-1.235744432E-1,-9.587672539E-3
5.438693249E0,1.097255871E-1,-1.182479635E-1,-1.704475097E-2
5.443752573E0,1.161173657E-1,-1.118561774E-1,-2.982831374E-2
5.449084448E0,1.118561774E-1,-1.033338010E-1,-4.261187837E-2
5.453825439E0,1.001379117E-1,-1.075949892E-1,-5.539543927E-2
5.459131012E0,8.096256852E-2,-1.267703325E-1,-6.604841352E-2
5.463955388E0,6.072192639E-2,-1.438150853E-1,-7.670138031E-2
5.469178096E0,3.941598535E-2,-1.438150853E-1,-8.841964602E-2
5.474299087E0,1.917534508E-2,-1.193132550E-1,-9.587672353E-2
5.479340076E0,5.326484796E-3,-8.096256852E-2,-1.022685021E-1
5.484167838E0,-1.491415687E-2,-4.048128426E-2,-1.065296903E-1
5.489290962E0,-3.515479714E-2,-8.522375487E-3,-1.075949892E-1
5.494296745E0,-5.539543927E-2,2.130593918E-2,-1.033338010E-1
5.499473620E0,-7.563608140E-2,4.474247247E-2,-9.374613315E-2
5.504432267E0,-9.268083423E-2,5.433014408E-2,-7.776667923E-2
5.509702162E0,-1.075949892E-1,5.326484516E-2,-6.285251677E-2
5.514735757E0,-1.182479635E-1,4.580776766E-2,-4.900366068E-2
5.519902216E0,-1.225091442E-1,4.048128426E-2,-3.408950195E-2
5.524694769E0,-1.214438528E-1,3.195890784E-2,-2.343653329E-2
5.530016696E0,-1.203785539E-1,2.343653329E-2,-1.278356276E-2
5.535061020E0,-1.150520667E-1,1.917534508E-2,-4.261187743E-3
5.540055395E0,-1.075949892E-1,5.326484796E-3,2.130593872E-3
5.545034146E0,-9.800732136E-2,-6.391781382E-3,8.522375487E-3
5.549991854E0,-8.735434711E-2,1.065296936E-3,1.171826664E-2
5.555163678E0,-7.670138031E-2,2.130593872E-3,1.491415687E-2
5.560231959E0,-6.817900389E-2,1.065296959E-2,1.811004803E-2
5.565110867E0,-5.433014408E-2,2.663242258E-2,2.237123623E-2
5.570263939E0,-4.687306657E-2,3.728539124E-2,2.343653329E-2
5.575379097E0,-4.048128426E-2,4.793836176E-2,2.343653329E-2
5.580591232E0,-2.982831374E-2,5.965662748E-2,2.343653329E-2
5.585356390E0,-1.384885982E-2,7.670138031E-2,2.237123623E-2
5.590483681E0,-1.065296936E-3,9.055023640E-2,2.130593918E-2
5.595605974E0,1.171826664E-2,1.054643989E-1,1.917534508E-2
5.600599411E0,2.130593918E-2,1.139867753E-1,1.704475097E-2
5.605599933E0,3.089361079E-2,1.193132550E-1,1.917534508E-2
5.610730298E0,4.154657945E-2,1.289009303E-1,1.917534508E-2
5.615711965E0,4.687306657E-2,1.331621110E-1,1.704475097E-2
5.620829726E0,5.219954997E-2,1.395539045E-1,1.704475097E-2
5.625972696E0,5.646073818E-2,1.406191885E-1,1.811004803E-2
5.630969883E0,5.859133229E-2,1.438150853E-1,1.917534508E-2
5.636065718E0,6.072192639E-2,1.459456831E-1,1.811004803E-2
5.641195561E0,6.285251677E-2,1.491415650E-1,1.704475097E-2
5.646183010E0,6.498311460E-2,1.502068639E-1,1.597945392E-2
5.651188791E0,6.711370498E-2,1.480762810E-1,1.597945392E-2
5.656205824E0,6.498311460E-2,1.459456831E-1,1.278356276E-2
5.661570928E0,6.391781569E-2,1.480762810E-1,1.171826664E-2
5.666312856E0,6.498311460E-2,1.512721628E-1,1.065296959E-2
5.671600408E0,6.604841352E-2,1.555333585E-1,1.065296959E-2
5.676535826E0,7.030959427E-2,1.608598381E-1,8.522375487E-3
5.681534523E0,6.924430281E-2,1.651210189E-1,8.522375487E-3
5.686545306E0,7.137489319E-2,1.725780964E-1,8.522375487E-3
5.691691764E0,7.030959427E-2,1.789698899E-1,5.326484796E-3
5.696775151E0,7.457078248E-2,1.842963696E-1,0.000000000E0
5.701909577E0,7.776667923E-2,1.896228492E-1,-6.391781382E-3
5.707001506E0,7.989726961E-2,1.960146427E-1,-1.171826664E-2
5.712110881E0,8.202786744E-2,1.992105246E-1,-1.704475097E-2
5.716899528E0,8.628904819E-2,2.045370042E-1,-2.237123623E-2
5.722166767E0,9.055023640E-2,2.119940966E-1,-3.195890784E-2
5.727158695E0,9.161553532E-2,2.098634988E-1,-4.261187837E-2
5.732135674E0,9.481142461E-2,2.109287977E-1,-5.219954997E-2
5.737128384E0,9.907261282E-2,2.087981999E-1,-6.178722158E-2
5.742468123E0,1.022685021E-1,1.992105246E-1,-6.924430281E-2
5.747248802E0,1.033338010E-1,1.928187460E-1,-7.563608140E-2
5.752565103E0,1.033338010E-1,1.864269674E-1,-7.989726961E-2
5.757459271E0,1.033338010E-1,1.779045910E-1,-8.415845782E-2
5.762645157E0,1.054643989E-1,1.736433953E-1,-8.735434711E-2
5.767482866E0,1.065296903E-1,1.704475135E-1,-9.161553532E-2
5.772705574E0,1.022685021E-1,1.683169156E-1,-8.948494494E-2
5.777603180E0,9.800732136E-2,1.661863178E-1,-8.309315890E-2
5.782750575E0,9.161553532E-2,1.672516167E-1,-7.989726961E-2
5.787747920E0,8.415845782E-2,1.704475135E-1,-7.563608140E-2
5.792845003E0,7.563608140E-2,1.736433953E-1,-6.817900389E-2
5.798081515E0,6.817900389E-2,1.768392920E-1,-5.859133229E-2
5.802985161E0,6.178722158E-2,1.789698899E-1,-5.006895587E-2
5.808032089E0,5.752603337E-2,1.832310706E-1,-4.154657945E-2
5.813122609E0,5.433014408E-2,1.864269674E-1,-3.302420676E-2
5.818388131E0,5.006895587E-2,1.906881481E-1,-2.343653329E-2
5.823455319E0,4.687306657E-2,1.938840449E-1,-1.597945392E-2
5.828338289E0,4.580776766E-2,1.949493438E-1,-1.171826664E-2
5.833472038E0,4.474247247E-2,1.981452256E-1,-5.326484796E-3
5.838434800E0,4.474247247E-2,2.034717202E-1,2.130593872E-3
5.843557560E0,4.048128426E-2,2.034717202E-1,7.457078435E-3
5.848445947E0,4.261187837E-2,2.013411224E-1,1.491415687E-2
5.853702093E0,3.835069016E-2,1.960146427E-1,2.237123623E-2
5.858616677E0,3.622009605E-2,1.906881481E-1,3.089361079E-2
5.863877146E0,3.195890784E-2,1.811004728E-1,4.154657945E-2
5.868911939E0,2.663242258E-2,1.757739931E-1,5.006895587E-2
5.873919334E0,2.343653329E-2,1.683169156E-1,5.965662748E-2
5.878838346E0,2.130593918E-2,1.576639414E-1,7.030959427E-2
5.883905585E0,1.597945392E-2,1.534027606E-1,7.563608140E-2
5.888979701E0,1.597945392E-2,1.502068639E-1,8.522375673E-2
5.894228555E0,1.384885982E-2,1.416844875E-1,9.481142461E-2
5.899026525E0,7.457078435E-3,1.363580078E-1,9.694202244E-2
5.904456993E0,5.326484796E-3,1.352927089E-1,9.907261282E-2
5.909284807E0,-1.065296936E-3,1.342274100E-1,1.054643989E-1
5.914398453E0,-6.391781382E-3,1.278356314E-1,1.097255871E-1
5.919394860E0,-9.587672539E-3,1.235744432E-1,1.107908785E-1
5.924491839E0,-1.491415687E-2,1.203785539E-1,1.107908785E-1
5.929390747E0,-2.343653329E-2,1.193132550E-1,1.065296903E-1
5.934538871E0,-2.982831374E-2,1.171826646E-1,1.022685021E-1
5.939691633E0,-3.622009605E-2,1.171826646E-1,9.268083423E-2
5.945041008E0,-4.261187837E-2,1.161173657E-1,8.948494494E-2
5.949858353E0,-4.474247247E-2,1.171826646E-1,8.628904819E-2
5.954829811E0,-4.900366068E-2,1.161173657E-1,7.776667923E-2
5.959900177E0,-5.006895587E-2,1.139867753E-1,7.244019210E-2
5.964958249E0,-4.900366068E-2,1.139867753E-1,6.604841352E-2
5.970069970E0,-4.474247247E-2,1.150520667E-1,5.859133229E-2
5.975231220E0,-4.261187837E-2,1.107908785E-1,5.539543927E-2
5.980001221E0,-3.941598535E-2,1.043990999E-1,5.219954997E-2
5.985190595E0,-3.728539124E-2,1.012032107E-1,4.687306657E-2
5.990154347E0,-3.622009605E-2,9.481142461E-2,4.261187837E-2
5.995241586E0,-3.835069016E-2,8.202786744E-2,4.048128426E-2
6.000208358E0,-4.154657945E-2,7.030959427E-2,3.622009605E-2
6.005472108E0,-4.048128426E-2,5.752603337E-2,3.089361079E-2
6.010437734E0,-4.261187837E-2,4.154657945E-2,2.769771963E-2
6.015639452E0,-4.474247247E-2,2.663242258E-2,2.556712553E-2
6.020460547E0,-4.474247247E-2,1.597945392E-2,2.024064213E-2
6.025629974E0,-4.261187837E-2,0.000000000E0,1.704475097E-2
6.030790548E0,-4.048128426E-2,-1.171826664E-2,1.704475097E-2
6.035925288E0,-3.835069016E-2,-2.450183034E-2,1.704475097E-2
6.040688154E0,-3.728539124E-2,-3.728539124E-2,1.704475097E-2
6.046061643E0,-3.515479714E-2,-4.900366068E-2,1.597945392E-2
6.050845603E0,-3.195890784E-2,-5.752603337E-2,1.597945392E-2
6.055983623E0,-2.663242258E-2,-6.178722158E-2,1.491415687E-2
6.060930864E0,-2.024064213E-2,-6.817900389E-2,1.384885982E-2
6.066256801E0,-6.391781382E-3,-7.244019210E-2,1.065296959E-2
6.071190553E0,5.326484796E-3,-7.670138031E-2,5.326484796E-3
6.076326906E0,1.917534508E-2,-7.989726961E-2,-2.130593872E-3
6.081210345E0,3.941598535E-2,-8.628904819E-2,-8.522375487E-3
6.086467637E0,5.646073818E-2,-9.587672353E-2,-1.171826664E-2
6.091276700E0,7.670138031E-2,-1.043990999E-1,-1.597945392E-2
6.096611336E0,9.800732136E-2,-1.075949892E-1,-1.491415687E-2
6.101578316E0,1.161173657E-1,-1.331621110E-1,-1.597945392E-2
6.106524409E0,1.384886056E-1,-1.640557349E-1,-1.811004803E-2
6.111585140E0,1.619251370E-1,-1.693822145E-1,-1.917534508E-2
6.116813265E0,1.842963696E-1,-1.768392920E-1,-1.597945392E-2
6.121825349E0,2.087981999E-1,-1.842963696E-1,-1.704475097E-2
6.126964724E0,2.322347313E-1,-1.917534471E-1,-2.237123623E-2
6.131947538E0,2.588671446E-1,-1.981452256E-1,-2.556712553E-2
6.137208683E0,2.897607684E-1,-2.034717202E-1,-3.302420676E-2
6.141876914E0,3.238502741E-1,-2.045370042E-1,-4.048128426E-2
6.147033945E0,3.600703776E-1,-2.098634988E-1,-5.113425106E-2
6.151986967E0,4.016169310E-1,-2.247776538E-1,-6.072192639E-2
6.157276602E0,4.420982301E-1,-2.386265099E-1,-7.244019210E-2
6.162375093E0,4.825794995E-1,-2.460835874E-1,-8.522375673E-2
6.167375405E0,5.230607986E-1,-2.567365468E-1,-9.800732136E-2
6.172350771E0,5.678032637E-1,-2.673895359E-1,-1.139867753E-1
6.177334781E0,6.093498468E-1,-2.769772112E-1,-1.289009303E-1
6.182411501E0,6.540923119E-1,-2.833689749E-1,-1.363580078E-1
6.187635147E0,6.977695227E-1,-2.865648866E-1,-1.363580078E-1
6.192645356E0,7.318589687E-1,-2.918913662E-1,-1.384886056E-1
6.197837491E0,7.712749839E-1,-2.844342887E-1,-1.523374617E-1
6.202799889E0,8.042991757E-1,-2.673895359E-1,-1.672516167E-1
6.207838274E0,8.341274858E-1,-2.546059787E-1,-1.832310706E-1
6.212824733E0,8.628905416E-1,-2.343653291E-1,-2.045370042E-1
6.217840254E0,8.927188516E-1,-2.066676021E-1,-2.258429527E-1
6.222827026E0,9.182859659E-1,-1.821657717E-1,-2.428877056E-1
6.228194682E0,9.395918846E-1,-1.448803842E-1,-2.620630562E-1
6.233099944E0,9.587672353E-1,-1.054643989E-1,-2.823036909E-1
6.238166402E0,9.619631171E-1,-7.030959427E-2,-2.993484437E-1
6.243063747E0,9.640937448E-1,-3.195890784E-2,-3.227849603E-1
6.248166923E0,9.726160765E-1,1.704475097E-2,-3.494173884E-1
6.253227446E0,9.715508223E-1,7.030959427E-2,-3.760498166E-1
6.258472029E0,9.587672353E-1,1.257050335E-1,-4.112046063E-1
6.263509686E0,9.417225122E-1,1.885575503E-1,-4.442288280E-1
6.268468228E0,9.289389253E-1,2.524753809E-1,-4.761877358E-1
6.273601198E0,9.204165339E-1,3.078708053E-1,-5.028201342E-1
6.278782604E0,9.076330066E-1,3.462215066E-1,-5.262566805E-1
6.283697136E0,8.841964602E-1,3.632662594E-1,-5.433014631E-1
6.288802709E0,8.437151909E-1,3.622009456E-1,-5.454320312E-1
6.293650575E0,7.883197069E-1,3.430256248E-1,-5.326484442E-1
6.298789064E0,7.286630869E-1,3.068055212E-1,-5.124078393E-1
6.303988753E0,6.636800170E-1,2.567365468E-1,-4.900365770E-1
6.309076044E0,5.891091824E-1,1.960146427E-1,-4.634041786E-1
6.313882348E0,5.145384073E-1,1.289009303E-1,-4.346411526E-1
6.319196566E0,4.474247098E-1,5.646073818E-2,-4.133352041E-1
6.324171984E0,3.803110123E-1,-2.876301669E-2,-3.930945694E-1
6.329175109E0,3.174584806E-1,-1.107908785E-1,-3.781804144E-1
6.334123808E0,2.620630562E-1,-1.853616685E-1,-3.558091819E-1
6.339269641E0,2.087981999E-1,-2.535406649E-1,-3.217196763E-1
6.344590632E0,1.640557349E-1,-3.110667169E-1,-2.908260524E-1
6.349429434E0,1.299662292E-1,-3.515479863E-1,-2.631283402E-1
6.354620529E0,1.043990999E-1,-3.728539348E-1,-2.418224066E-1
6.359484955E0,8.735434711E-2,-3.781804144E-1,-2.258429527E-1
6.364673238E0,8.522375673E-2,-3.771151006E-1,-2.173205763E-1
6.369749696E0,9.268083423E-2,-3.632662594E-1,-2.119940966E-1
6.374761989E0,1.118561774E-1,-3.408950269E-1,-2.066676021E-1
6.379721520E0,1.342274100E-1,-3.142625988E-1,-1.970799267E-1
6.384706678E0,1.502068639E-1,-2.897607684E-1,-1.896228492E-1
6.389936625E0,1.693822145E-1,-2.631283402E-1,-1.864269674E-1
6.394838554E0,1.938840449E-1,-2.290388346E-1,-1.853616685E-1
6.400204230E0,2.194511741E-1,-1.928187460E-1,-1.832310706E-1
6.405169127E0,2.386265099E-1,-1.608598381E-1,-1.768392920E-1
6.410164804E0,2.514100671E-1,-1.320968270E-1,-1.693822145E-1
6.415278087E0,2.578018606E-1,-1.118561774E-1,-1.597945392E-1
6.420256993E0,2.514100671E-1,-1.022685021E-1,-1.448803842E-1
6.425188296E0,2.375612110E-1,-1.012032107E-1,-1.299662292E-1
6.430526265E0,2.226470560E-1,-1.022685021E-1,-1.129214764E-1
6.435493297E0,2.066676021E-1,-1.097255871E-1,-9.907261282E-2
6.440686005E0,1.864269674E-1,-1.235744432E-1,-8.948494494E-2
6.445606684E0,1.757739931E-1,-1.352927089E-1,-7.883197069E-2
6.450729027E0,1.768392920E-1,-1.459456831E-1,-7.563608140E-2
6.455716060E0,1.853616685E-1,-1.608598381E-1,-6.817900389E-2
6.460842622E0,1.928187460E-1,-1.704475135E-1,-5.539543927E-2
6.465743404E0,1.992105246E-1,-1.928187460E-1,-4.154657945E-2
6.471006112E0,2.098634988E-1,-2.151899785E-1,-2.663242258E-2
6.476123093E0,2.183858752E-1,-2.396918088E-1,-9.587672539E-3
6.481154499E0,2.269082516E-1,-2.652589381E-1,1.171826664E-2
6.486166479E0,2.290388346E-1,-3.004137278E-1,3.835069016E-2
6.491029604E0,2.290388346E-1,-3.355685472E-1,6.817900389E-2
6.496014970E0,2.247776538E-1,-3.739192188E-1,1.012032107E-1
6.501497939E0,2.194511741E-1,-4.154658020E-1,1.331621110E-1
6.506421794E0,2.130593807E-1,-4.506205916E-1,1.629904360E-1
6.511272731E0,2.077329010E-1,-4.847100973E-1,1.928187460E-1
6.516470336E0,2.077329010E-1,-5.124078393E-1,2.215817571E-1
6.521605857E0,2.098634988E-1,-5.326484442E-1,2.450182885E-1
6.526544712E0,2.066676021E-1,-5.507585406E-1,2.695201337E-1
6.531566483E0,2.045370042E-1,-5.592808723E-1,2.876301706E-1
6.536653359E0,1.960146427E-1,-5.624767542E-1,3.014790416E-1
6.541782474E0,1.821657717E-1,-5.646073818E-1,3.131972849E-1
6.546840183E0,1.640557349E-1,-5.624767542E-1,3.174584806E-1
6.551756745E0,1.438150853E-1,-5.560849905E-1,3.206543922E-1
6.556753570E0,1.267703325E-1,-5.507585406E-1,3.217196763E-1
6.561964298E0,1.086602882E-1,-5.486279130E-1,3.153278828E-1
6.566860966E0,8.841964602E-2,-5.475625992E-1,3.089361191E-1
6.572175237E0,6.498311460E-2,-5.464973450E-1,2.993484437E-1
6.577132686E0,3.941598535E-2,-5.560849905E-1,2.908260524E-1
6.582075811E0,1.491415687E-2,-5.656726956E-1,2.791078091E-1
6.587276750E0,-4.261187743E-3,-5.763256550E-1,2.673895359E-1
6.592201333E0,-2.024064213E-2,-5.933703780E-1,2.556712627E-1
6.597408001E0,-3.302420676E-2,-6.114804149E-1,2.471488863E-1
6.602492896E0,-4.367717355E-2,-6.306557655E-1,2.396918088E-1
6.607336023E0,-4.793836176E-2,-6.487658620E-1,2.343653291E-1
6.612633835E0,-4.687306657E-2,-6.658105850E-1,2.237123549E-1
6.617611544E0,-3.835069016E-2,-6.849859357E-1,2.151899785E-1
6.622820398E0,-2.876301669E-2,-7.020306587E-1,2.130593807E-1
6.627661441E0,-1.491415687E-2,-7.275978327E-1,2.109287977E-1
6.632728212E0,0.000000000E0,-7.627525926E-1,2.077329010E-1
6.637946026E0,1.917534508E-2,-7.979074121E-1,2.109287977E-1
6.642817692E0,4.900366068E-2,-8.341274858E-1,2.183858752E-1
6.648264985E0,8.415845782E-2,-8.671516776E-1,2.290388346E-1
6.653110610E0,1.214438528E-1,-8.852617741E-1,2.364959270E-1
6.657927486E0,1.576639414E-1,-8.937841058E-1,2.471488863E-1
6.663248840E0,1.938840449E-1,-9.065676928E-1,2.503447831E-1
6.668035820E0,2.428877056E-1,-9.310694933E-1,2.524753809E-1
6.673160143E0,3.057402074E-1,-9.566366673E-1,2.428877056E-1
6.678558998E0,3.962904513E-1,-9.790078998E-1,2.141246796E-1
6.683716550E0,5.060160160E-1,-9.758120179E-1,1.651210189E-1
6.688475197E0,6.231986880E-1,-9.332001209E-1,9.268083423E-2
6.693642593E0,7.254672050E-1,-8.533028364E-1,-8.522375487E-3
6.698534209E0,7.755361795E-1,-7.861891389E-1,-1.427497864E-1
6.703661917E0,7.627525926E-1,-7.712749839E-1,-2.546059787E-1
6.708673429E0,6.572881937E-1,-7.520996332E-1,-3.643315434E-1
6.713811501E0,4.612735808E-1,-6.594188213E-1,-4.623388648E-1
6.718795200E0,2.333000302E-1,-5.209302306E-1,-5.326484442E-1
6.723928273E0,1.704475097E-2,-3.930945694E-1,-5.784562230E-1
6.728738691E0,-1.693822145E-1,-2.801730931E-1,-6.093498468E-1
6.734073847E0,-3.142625988E-1,-1.842963696E-1,-6.231986880E-1
6.738893015E0,-4.154658020E-1,-1.150520667E-1,-6.040233374E-1
6.744165827E0,-4.697959423E-1,-7.350549102E-2,-5.422361493E-1
6.749178433E0,-4.729918540E-1,-5.752603337E-2,-4.506205916E-1
6.754250776E0,-4.325105548E-1,-5.752603337E-2,-3.345032334E-1
6.759290100E0,-3.579397798E-1,-7.989726961E-2,-2.013411224E-1
6.764402392E0,-2.482141852E-1,-1.065296903E-1,-5.433014408E-2
6.769673435E0,-1.310315281E-1,-1.427497864E-1,8.415845782E-2
6.774372653E0,-3.835069016E-2,-1.821657717E-1,2.034717202E-1
6.779514686E0,1.491415687E-2,-2.162552774E-1,3.100014031E-1
6.784632810E0,2.663242258E-2,-2.301041335E-1,4.016169310E-1
6.789645260E0,9.587672539E-3,-1.981452256E-1,4.847100973E-1
6.794636353E0,-3.089361079E-2,-1.182479635E-1,5.560849905E-1
6.799655000E0,-8.628904819E-2,-1.491415687E-2,6.040233374E-1
6.804772343E0,-1.384886056E-1,9.694202244E-2,6.274598837E-1
6.809934116E0,-1.938840449E-1,2.109287977E-1,6.285251975E-1
6.814909428E0,-2.546059787E-1,3.142625988E-1,6.221334338E-1
6.819900523E0,-3.281114697E-1,3.920292854E-1,6.093498468E-1
6.825171825E0,-4.133352041E-1,4.506205916E-1,5.901744962E-1
6.829934170E0,-5.145384073E-1,4.921671748E-1,5.667379498E-1
6.835356513E0,-6.178722382E-1,5.241261125E-1,5.390402675E-1
6.840444535E0,-6.732676625E-1,5.592808723E-1,5.134730935E-1
6.845468337E0,-6.892471313E-1,5.859133005E-1,4.687306583E-1
6.850308807E0,-6.828553081E-1,5.901744962E-1,4.122699201E-1
6.855418807E0,-6.817900538E-1,5.731297731E-1,3.590050638E-1
6.860436673E0,-7.041612864E-1,5.422361493E-1,3.249155581E-1
6.865511568E0,-6.913776994E-1,5.347790718E-1,3.014790416E-1
6.870505528E0,-6.487658620E-1,5.337137580E-1,2.823036909E-1
6.875511673E0,-5.901744962E-1,5.326484442E-1,2.684548199E-1
6.880528289E0,-5.315831900E-1,5.209302306E-1,2.705854177E-1
6.885769852E0,-4.900365770E-1,5.049507618E-1,2.886954844E-1
6.890649280E0,-4.463594258E-1,5.070813298E-1,3.163931966E-1
6.895833811E0,-3.973557651E-1,5.156037211E-1,3.334379494E-1
6.900940218E0,-3.451561928E-1,5.241261125E-1,3.387644291E-1
6.906252562E0,-2.929566503E-1,5.347790718E-1,3.430256248E-1
6.910881678E0,-2.492794842E-1,5.475625992E-1,3.483521044E-1
6.916019282E0,-2.226470560E-1,5.827174187E-1,3.515479863E-1
6.920993710E0,-2.109287977E-1,6.178722382E-1,3.504827023E-1
6.926178918E0,-2.098634988E-1,6.306557655E-1,3.472867906E-1
6.931135951E0,-2.205164731E-1,6.231986880E-1,3.398297131E-1
6.936363867E0,-2.237123549E-1,6.274598837E-1,3.249155581E-1
6.941401785E0,-2.205164731E-1,6.562229395E-1,3.110667169E-1
6.946460222E0,-2.141246796E-1,6.892471313E-1,2.982831299E-1
6.951341526E0,-2.034717202E-1,7.265325189E-1,2.876301706E-1
6.956604494E0,-2.013411224E-1,7.414466739E-1,2.886954844E-1
6.961477829E0,-1.992105246E-1,7.552955151E-1,2.961525619E-1
6.966646162E0,-1.534027606E-1,8.106909394E-1,3.004137278E-1
6.971594653E0,-7.457078248E-2,8.437151909E-1,3.153278828E-1
6.976885277E0,1.491415687E-2,8.319969177E-1,3.259808719E-1
6.981868820E0,1.118561774E-1,7.723402977E-1,3.408950269E-1
6.987023039E0,2.183858752E-1,6.977695227E-1,3.408950269E-1
6.991816217E0,3.110667169E-1,6.231986880E-1,3.366338313E-1
6.997161790E0,3.952251673E-1,5.379749537E-1,3.206543922E-1
7.001984076E0,4.666000605E-1,4.420982301E-1,2.950872481E-1
7.007093978E0,5.166690350E-1,3.462215066E-1,2.599324584E-1
7.012337261E0,5.592808723E-1,2.812383771E-1,2.141246796E-1
7.017277729E0,5.869786143E-1,2.333000302E-1,1.629904360E-1
7.022249606E0,5.848480463E-1,1.949493438E-1,1.129214764E-1
7.027536220E0,5.454320312E-1,1.693822145E-1,7.563608140E-2
7.032449086E0,4.634041786E-1,1.374233067E-1,4.048128426E-2
7.037560440E0,3.653968573E-1,1.182479635E-1,1.065296936E-3
7.042415649E0,2.599324584E-1,1.395539045E-1,-3.408950195E-2
7.047752212E0,1.608598381E-1,2.024064213E-1,-5.859133229E-2
7.052735390E0,5.859133229E-2,2.535406649E-1,-6.178722158E-2
7.057832362E0,-4.367717355E-2,2.727160156E-1,-5.859133229E-2
7.062716016E0,-1.299662292E-1,2.812383771E-1,-5.006895587E-2
7.067964453E0,-1.938840449E-1,2.886954844E-1,-2.876301669E-2
7.072760340E0,-2.301041335E-1,2.940219641E-1,-1.065296936E-3
7.077912423E0,-2.450182885E-1,3.227849603E-1,2.982831374E-2
7.082877737E0,-2.588671446E-1,3.472867906E-1,6.604841352E-2
7.088229716E0,-2.801730931E-1,3.675274551E-1,1.065296903E-1
7.093069196E0,-2.961525619E-1,4.069434404E-1,1.416844875E-1
7.098123414E0,-3.217196763E-1,4.378370345E-1,1.683169156E-1
7.103119457E0,-3.685927391E-1,4.580776691E-1,1.885575503E-1
7.108238259E0,-4.239881933E-1,4.836448133E-1,1.970799267E-1
7.113376698E0,-4.836448133E-1,5.145384073E-1,1.949493438E-1
7.118515812E0,-5.464973450E-1,5.443667173E-1,1.906881481E-1
7.123359980E0,-6.082845330E-1,5.773909688E-1,1.832310706E-1
7.128472845E0,-6.658105850E-1,6.104151607E-1,1.715128124E-1
7.133567742E0,-7.286630869E-1,6.210681200E-1,1.544680595E-1
7.138797637E0,-7.915156484E-1,6.327863932E-1,1.480762810E-1
7.143677066E0,-8.618252277E-1,6.242640018E-1,1.555333585E-1
7.148742951E0,-9.363960028E-1,6.189374924E-1,1.757739931E-1
7.153726598E0,-1.007770896E0,6.263945699E-1,2.013411224E-1
7.158822848E0,-1.072754025E0,6.317210793E-1,2.173205763E-1
7.163838734E0,-1.128149509E0,6.434393525E-1,2.301041335E-1
7.169006234E0,-1.171826601E0,6.753982306E-1,2.450182885E-1
7.173952954E0,-1.194197893E0,7.446425557E-1,2.492794842E-1
7.179198527E0,-1.209112048E0,8.138868809E-1,2.386265099E-1
7.184188945E0,-1.204850793E0,9.023064971E-1,2.045370042E-1
7.189393267E0,-1.195263147E0,9.790078998E-1,1.661863178E-1
7.194330091E0,-1.200589657E0,1.024815679E0,1.448803842E-1
7.199473268E0,-1.193132520E0,1.063166380E0,1.139867753E-1
7.204445561E0,-1.153716564E0,1.099386454E0,7.457078248E-2
7.209440353E0,-1.099386454E0,1.107908845E0,2.556712553E-2
7.214506805E0,-1.038664460E0,1.088733435E0,-1.278356276E-2
7.219848948E0,-9.715508223E-1,1.066362262E0,-3.408950195E-2
7.224540459E0,-8.905882239E-1,1.050382733E0,-5.006895587E-2
7.229850823E0,-8.074950576E-1,1.050382733E0,-6.817900389E-2
7.234783741E0,-7.520996332E-1,1.082341671E0,-1.001379117E-1
7.239985251E0,-7.329242826E-1,1.124953508E0,-1.395539045E-1
7.244944419E0,-6.977695227E-1,1.203785539E0,-1.555333585E-1
7.249903065E0,-6.338516474E-1,1.292205215E0,-1.502068639E-1
7.255172441E0,-5.635420680E-1,1.350796461E0,-1.406191885E-1
7.260194889E0,-4.879060090E-1,1.372102499E0,-1.406191885E-1
7.265274734E0,-3.930945694E-1,1.377428889E0,-1.331621110E-1
7.270338327E0,-2.897607684E-1,1.358253598E0,-1.161173657E-1
7.275290464E0,-1.885575503E-1,1.310315251E0,-9.587672353E-2
7.280385776E0,-8.948494494E-2,1.258115649E0,-6.178722158E-2
7.285395830E0,1.065296936E-3,1.192067266E0,-1.917534508E-2
7.290371559E0,6.711370498E-2,1.110039353E0,2.982831374E-2
7.295407491E0,1.139867753E-1,1.017358541E0,8.096256852E-2
7.300559216E0,1.438150853E-1,9.257430434E-1,1.320968270E-1
7.305506717E0,1.534027606E-1,8.373233676E-1,1.811004728E-1
7.310602550E0,1.534027606E-1,7.552955151E-1,2.237123549E-1
7.315840572E0,1.395539045E-1,6.753982306E-1,2.578018606E-1
7.320940207E0,1.182479635E-1,6.072192788E-1,2.854995728E-1
7.326006355E0,1.086602882E-1,5.592808723E-1,3.046749234E-1
7.330914271E0,1.086602882E-1,5.187996030E-1,3.110667169E-1
7.336034949E0,1.225091442E-1,4.868406951E-1,3.014790416E-1
7.341123855E0,1.523374617E-1,4.655347466E-1,2.737812996E-1
7.346152607E0,1.949493438E-1,4.399676323E-1,2.258429527E-1
7.351089742E0,2.588671446E-1,4.378370345E-1,1.459456831E-1
7.356184535E0,3.206543922E-1,4.218575954E-1,4.793836176E-2
7.361224951E0,3.824416101E-1,3.664621413E-1,-3.941598535E-2
7.366201775E0,4.303799570E-1,2.982831299E-1,-1.107908785E-1
7.371311827E0,4.420982301E-1,2.066676021E-1,-1.502068639E-1
7.376455943E0,4.314452708E-1,1.086602882E-1,-1.704475135E-1
7.381571828E0,4.303799570E-1,2.130593918E-2,-1.811004728E-1
7.386581621E0,4.495553076E-1,-7.244019210E-2,-1.896228492E-1
7.391548287E0,4.847100973E-1,-1.992105246E-1,-1.949493438E-1
7.396671570E0,5.379749537E-1,-3.483521044E-1,-2.056023031E-1
7.401761049E0,6.114804149E-1,-4.921671748E-1,-2.237123549E-1
7.406852977E0,6.956388950E-1,-6.242640018E-1,-2.450182885E-1
7.411804539E0,7.808626294E-1,-7.371854782E-1,-2.727160156E-1
7.416981103E0,8.714128733E-1,-8.117562532E-1,-3.131972849E-1
7.421919228E0,9.534407854E-1,-8.533028364E-1,-3.568744659E-1
7.427235531E0,1.024815679E0,-8.618252277E-1,-4.005516469E-1
7.432151469E0,1.084472299E0,-8.362581134E-1,-4.506205916E-1
7.437024855E0,1.143063664E0,-7.659484744E-1,-5.006895661E-1
7.442357095E0,1.191002011E0,-6.849859357E-1,-5.518237948E-1
7.447390481E0,1.226156831E0,-6.295905113E-1,-6.114804149E-1
7.452297512E0,1.265572786E0,-5.752603412E-1,-6.722023487E-1
7.457464024E0,1.316707015E0,-5.251913667E-1,-7.137489319E-1
7.462551628E0,1.377428889E0,-5.102772117E-1,-7.403813601E-1
7.467554910E0,1.441346765E0,-5.337137580E-1,-7.584913969E-1
7.472664650E0,1.494611621E0,-5.827174187E-1,-7.638179064E-1
7.477648974E0,1.544680595E0,-6.221334338E-1,-7.606220245E-1
7.482762984E0,1.583031297E0,-6.743329763E-1,-7.638179064E-1
7.487648610E0,1.597945452E0,-7.542302012E-1,-7.819279432E-1
7.492990537E0,1.591553569E0,-8.490416408E-1,-8.021686077E-1
7.497995695E0,1.627773762E0,-8.863270283E-1,-8.128215671E-1
7.502864184E0,1.712997437E0,-8.671516776E-1,-7.883197069E-1
7.508055383E0,1.779045939E0,-8.266704082E-1,-7.020306587E-1
7.513121997E0,1.820592523E0,-8.192133307E-1,-6.114804149E-1
7.518106895E0,1.820592523E0,-8.479763865E-1,-5.422361493E-1
7.523264498E0,1.784372330E0,-8.319969177E-1,-5.166690350E-1
7.528300430E0,1.700213909E0,-7.979074121E-1,-5.038854480E-1
7.533219343E0,1.561725259E0,-7.840585709E-1,-4.804489315E-1
7.538468355E0,1.380624771E0,-7.659484744E-1,-4.378370345E-1
7.543480282E0,1.222960830E0,-7.116183639E-1,-3.930945694E-1
7.548484554E0,1.077015162E0,-6.487658620E-1,-3.685927391E-1
7.553611168E0,9.470489621E-1,-5.401055217E-1,-3.867027760E-1
7.558587940E0,8.288010359E-1,-4.239881933E-1,-4.580776691E-1
7.563688565E0,7.222713232E-1,-3.771151006E-1,-5.507585406E-1
7.568734556E0,5.965662599E-1,-3.898986876E-1,-6.178722382E-1
7.573721118E0,4.442288280E-1,-4.474247098E-1,-6.700717807E-1
7.578854661E0,2.897607684E-1,-5.369096398E-1,-7.030959725E-1
7.583866692E0,1.842963696E-1,-6.413087845E-1,-7.105530500E-1
7.588896277E0,1.214438528E-1,-7.723402977E-1,-7.084224820E-1
7.594105599E0,1.075949892E-1,-9.001759291E-1,-7.148142457E-1
7.598936486E0,1.747086942E-1,-9.949873090E-1,-7.435772419E-1
7.604203777E0,2.844342887E-1,-1.067427516E0,-7.574261427E-1
7.609067581E0,3.845722079E-1,-1.108974099E0,-7.457078695E-1
7.614164553E0,4.591429830E-1,-1.127084136E0,-7.105530500E-1
7.619618988E0,5.156037211E-1,-1.115365863E0,-6.679411530E-1
7.624441273E0,5.614115000E-1,-1.071688771E0,-6.317210793E-1
7.629478312E0,5.997622013E-1,-9.971179366E-1,-6.040233374E-1
7.634450551E0,6.306557655E-1,-8.905882239E-1,-5.891091824E-1
7.639538313E0,6.551576257E-1,-7.574261427E-1,-5.805868506E-1
7.644644823E0,6.871165037E-1,-6.157416105E-1,-5.709991455E-1
7.649800866E0,7.105530500E-1,-4.825794995E-1,-5.614115000E-1
7.654629303E0,7.297284007E-1,-3.781804144E-1,-5.571503043E-1
7.660392064E0,7.574261427E-1,-2.844342887E-1,-5.688685775E-1
7.664770190E0,7.904503345E-1,-2.045370042E-1,-5.880439281E-1
7.669817065E0,8.224092126E-1,-1.448803842E-1,-5.933703780E-1
7.674948160E0,8.383886814E-1,-9.907261282E-2,-5.912398100E-1
7.680074670E0,8.426498771E-1,-6.391781569E-2,-5.859133005E-1
7.684925036E0,8.181480169E-1,-4.154657945E-2,-5.678032637E-1
7.690072640E0,7.627525926E-1,-4.474247247E-2,-5.347790718E-1
7.695232433E0,6.903123856E-1,-6.711370498E-2,-4.985589683E-1
7.700384724E0,6.082845330E-1,-8.628904819E-2,-4.570123851E-1
7.705307799E0,5.283873081E-1,-1.107908785E-1,-4.112046063E-1
7.710424152E0,4.399676323E-1,-1.427497864E-1,-3.600703776E-1
7.715283477E0,3.376991153E-1,-1.928187460E-1,-3.068055212E-1
7.720641289E0,2.311694324E-1,-2.450182885E-1,-2.450182885E-1
7.725550665E0,1.331621110E-1,-2.833689749E-1,-1.864269674E-1
7.730684155E0,5.006895587E-2,-3.046749234E-1,-1.278356314E-1
7.735521291E0,-1.597945392E-2,-3.068055212E-1,-6.498311460E-2
7.740640718E0,-5.965662748E-2,-2.982831299E-1,7.457078435E-3
7.745802178E0,-8.309315890E-2,-2.801730931E-1,8.415845782E-2
7.750874417E0,-9.587672353E-2,-2.588671446E-1,1.651210189E-1
7.755937856E0,-9.800732136E-2,-2.386265099E-1,2.535406649E-1
7.761080043E0,-9.481142461E-2,-2.183858752E-1,3.440909088E-1
7.765875982E0,-7.989726961E-2,-1.896228492E-1,4.325105548E-1
7.770990409E0,-6.178722158E-2,-1.683169156E-1,5.251913667E-1
7.776004524E0,-4.900366068E-2,-1.544680595E-1,6.125457287E-1
7.781174576E0,-4.367717355E-2,-1.448803842E-1,6.988347769E-1
7.786212703E0,-4.474247247E-2,-1.502068639E-1,7.797973752E-1
7.791237233E0,-6.178722158E-2,-1.672516167E-1,8.543681502E-1
7.796426037E0,-8.522375673E-2,-1.992105246E-1,9.236124158E-1
7.801521818E0,-1.139867753E-1,-2.450182885E-1,9.843343496E-1
7.806555830E0,-1.448803842E-1,-3.004137278E-1,1.036533952E0
7.811464058E0,-1.683169156E-1,-3.611356616E-1,1.077015162E0
7.816480153E0,-1.747086942E-1,-4.399676323E-1,1.097255826E0
7.821603799E0,-1.800351888E-1,-5.241261125E-1,1.096190572E0
7.826750519E0,-1.779045910E-1,-5.859133005E-1,1.072754025E0
7.831871977E0,-1.693822145E-1,-6.082845330E-1,1.018423915E0
7.836700051E0,-1.555333585E-1,-5.848480463E-1,9.332001209E-1
7.841969009E0,-1.299662292E-1,-5.145384073E-1,8.053644896E-1
7.847032500E0,-9.800732136E-2,-4.090740085E-1,6.508964300E-1
7.852172917E0,-5.433014408E-2,-2.950872481E-1,4.868406951E-1
7.857057762E0,1.065296959E-2,-2.151899785E-1,3.153278828E-1
7.862237918E0,8.096256852E-2,-1.874922663E-1,1.331621110E-1
7.867063336E0,1.534027606E-1,-1.981452256E-1,-5.433014408E-2
7.872269117E0,2.162552774E-1,-2.524753809E-1,-2.258429527E-1
7.877370785E0,2.567365468E-1,-3.643315434E-1,-3.653968573E-1
7.882467190E0,2.684548199E-1,-5.134730935E-1,-4.708612561E-1
7.887301463E0,2.652589381E-1,-6.785941720E-1,-5.433014631E-1
7.892421566E0,2.492794842E-1,-8.298662901E-1,-5.869786143E-1
7.897457498E0,2.322347313E-1,-9.502448440E-1,-5.976315737E-1
7.902547922E0,2.173205763E-1,-1.035468578E0,-5.731297731E-1
7.907541465E0,2.056023031E-1,-1.101517081E0,-5.177342892E-1
7.912865579E0,1.917534471E-1,-1.151585937E0,-4.293146729E-1
7.917682768E0,1.661863178E-1,-1.196328402E0,-3.121320009E-1
7.923132507E0,1.427497864E-1,-1.246397376E0,-1.811004728E-1
7.927991050E0,1.352927089E-1,-1.286878705E0,-6.285251677E-2
7.932888498E0,1.374233067E-1,-1.252789140E0,2.556712553E-2
7.938063134E0,1.054643989E-1,-1.111104727E0,9.907261282E-2
7.943004905E0,-2.130593918E-2,-9.598325491E-1,1.448803842E-1
7.948025271E0,-2.237123549E-1,-9.662243128E-1,1.534027606E-1
7.953488604E0,-4.293146729E-1,-1.149455428E0,1.555333585E-1
7.958412616E0,-5.869786143E-1,-1.375298381E0,1.502068639E-1
7.963252094E0,-6.775288582E-1,-1.499938130E0,1.267703325E-1
7.968271939E0,-6.828553081E-1,-1.465848565E0,8.522375673E-2
7.973421002E0,-6.508964300E-1,-1.334817052E0,1.597945392E-2
7.978563503E0,-6.210681200E-1,-1.133475900E0,-1.012032107E-1
7.983742461E0,-6.263945699E-1,-9.161553383E-1,-2.396918088E-1
7.988553973E0,-7.084224820E-1,-7.510343194E-1,-3.558091819E-1
7.993791785E0,-8.469110727E-1,-6.008274555E-1,-4.218575954E-1
7.998800380E0,-9.683549404E-1,-4.058781266E-1,-4.474247098E-1
8.003895640E0,-1.026946187E0,-1.906881481E-1,-4.634041786E-1
8.008894756E0,-1.037599206E0,-3.408950195E-2,-4.825794995E-1
8.013834547E0,-1.042925715E0,3.728539124E-2,-4.964283705E-1
8.018865538E0,-1.037599206E0,4.793836176E-2,-4.825794995E-1
8.024007153E0,-1.010966778E0,4.687306657E-2,-4.431635141E-1
8.028955539E0,-9.417225122E-1,4.580776766E-2,-3.835068941E-1
8.034385903E0,-8.288010359E-1,4.261187837E-2,-3.153278828E-1
8.039383092E0,-6.785941720E-1,4.154657945E-2,-2.269082516E-1
8.044483613E0,-5.134730935E-1,2.663242258E-2,-1.331621110E-1
8.049253666E0,-3.675274551E-1,1.704475097E-2,-3.515479714E-2
8.054599239E0,-2.609977424E-1,2.130593918E-2,5.113425106E-2
8.059383615E0,-1.992105246E-1,3.195890784E-2,1.278356314E-1
8.064448511E0,-1.757739931E-1,4.580776766E-2,2.024064213E-1
8.069750700E0,-1.853616685E-1,7.030959427E-2,2.844342887E-1
8.074624605E0,-2.194511741E-1,8.628904819E-2,3.749845326E-1
8.079740388E0,-2.663242221E-1,1.086602882E-1,4.527511895E-1
8.084912523E0,-3.227849603E-1,1.629904360E-1,4.847100973E-1
8.089788618E0,-3.941598535E-1,2.247776538E-1,4.239881933E-1
8.094993930E0,-4.442288280E-1,2.375612110E-1,3.110667169E-1
8.099804661E0,-4.367717505E-1,2.844342887E-1,1.917534471E-1
8.104967786E0,-4.154658020E-1,4.410329461E-1,9.161553532E-2
8.110171224E0,-4.420982301E-1,5.891091824E-1,2.024064213E-2
8.115110339E0,-5.166690350E-1,6.572881937E-1,-1.171826664E-2
8.120232736E0,-6.263945699E-1,6.711370945E-1,-1.811004803E-2
8.125362475E0,-7.446425557E-1,7.137489319E-1,-2.130593872E-3
8.130280393E0,-8.490416408E-1,8.245398402E-1,3.728539124E-2
8.135251799E0,-9.023064971E-1,9.790078998E-1,1.075949892E-1
8.140347686E0,-8.735435009E-1,1.175022483E0,1.587292403E-1
8.145460446E0,-7.734055519E-1,1.369971871E0,1.459456831E-1
8.150715239E0,-6.327863932E-1,1.502068639E0,1.086602882E-1
8.155728989E0,-4.815142155E-1,1.592618942E0,6.072192639E-2
8.160751438E0,-3.355685472E-1,1.683169127E0,3.622009605E-2
8.165618312E0,-2.279735506E-1,1.765197039E0,3.622009605E-2
8.170832793E0,-1.672516167E-1,1.802482367E0,3.622009605E-2
8.175929980E0,-1.320968270E-1,1.811004758E0,5.006895587E-2
8.180968783E0,-1.065296903E-1,1.812070131E0,9.161553532E-2
8.186031127E0,-1.022685021E-1,1.771588802E0,1.608598381E-1
8.191254253E0,-1.257050335E-1,1.694887400E0,2.439530045E-1
8.196012899E0,-1.416844875E-1,1.605402470E0,3.302420378E-1
8.200967379E0,-1.683169156E-1,1.476501584E0,4.186616838E-1
8.206261806E0,-2.588671446E-1,1.281552196E0,5.102772117E-1
8.211352849E0,-3.238502741E-1,1.179283738E0,5.667379498E-1
8.216198630E0,-2.940219641E-1,1.211242557E0,5.848480463E-1
8.221342746E0,-2.556712627E-1,1.222960830E0,6.040233374E-1
8.226566964E0,-2.386265099E-1,1.185675502E0,6.157416105E-1
8.231487434E0,-2.311694324E-1,1.127084136E0,6.317210793E-1
8.236660507E0,-2.141246796E-1,1.069558144E0,6.381128430E-1
8.241642644E0,-1.715128124E-1,1.007770896E0,6.359822750E-1
8.246577279E0,-1.139867753E-1,9.268083572E-1,6.306557655E-1
8.251732228E0,-3.622009605E-2,8.703476191E-1,6.018927693E-1
8.256809624E0,7.030959427E-2,8.479763865E-1,5.369096398E-1
8.261831083E0,1.704475135E-1,8.351927996E-1,4.495553076E-1
8.266960927E0,2.418224066E-1,8.351927996E-1,3.526133001E-1
8.272062282E0,2.737812996E-1,8.405193090E-1,2.503447831E-1
8.276914365E0,2.705854177E-1,8.810005784E-1,1.565986425E-1
8.282137908E0,2.151899785E-1,9.545060396E-1,7.883197069E-2
8.287040147E0,8.841964602E-2,1.018423915E0,3.408950195E-2
8.292211190E0,-6.817900389E-2,1.075949907E0,8.522375487E-3
8.297149732E0,-1.981452256E-1,1.135606527E0,-7.457078435E-3
8.302179056E0,-2.918913662E-1,1.187806129E0,-3.195890691E-3
8.307491087E0,-3.483521044E-1,1.226156831E0,1.811004803E-2
8.312385307E0,-3.600703776E-1,1.249593258E0,4.474247247E-2
8.317386609E0,-3.313073516E-1,1.248528004E0,8.628904819E-2
8.322550256E0,-3.014790416E-1,1.187806129E0,1.438150853E-1
8.327519110E0,-3.249155581E-1,1.068492770E0,2.130593807E-1
8.332640882E0,-3.494173884E-1,1.001379132E0,2.833689749E-1
8.337747965E0,-3.206543922E-1,9.896608591E-1,3.440909088E-1
8.342777289E0,-3.068055212E-1,9.406571984E-1,3.867027760E-1
8.347766508E0,-3.270461559E-1,8.873923421E-1,4.122699201E-1
8.352746301E0,-3.622009456E-1,8.682169914E-1,4.250534773E-1
8.358741300E0,-4.005516469E-1,8.586293459E-1,4.293146729E-1
8.362879791E0,-4.474247098E-1,8.405193090E-1,4.250534773E-1
8.367985260E0,-4.996242523E-1,8.138868809E-1,4.144005179E-1
8.373157188E0,-5.475625992E-1,7.947115302E-1,4.090740085E-1
8.378113021E0,-6.082845330E-1,7.616873384E-1,4.197269976E-1
8.383108752E0,-6.796594262E-1,7.350549102E-1,4.367717505E-1
8.388387293E0,-7.510343194E-1,7.414466739E-1,4.527511895E-1
8.393249794E0,-8.138868809E-1,7.819279432E-1,4.548817873E-1
8.398343648E0,-8.735435009E-1,8.383886814E-1,4.506205916E-1
8.403612868E0,-9.289389253E-1,8.873923421E-1,4.357064366E-1
8.408690160E0,-9.864649773E-1,9.065676928E-1,4.005516469E-1
8.413647296E0,-1.042925715E0,8.969800472E-1,3.526133001E-1
8.418736046E0,-1.111104727E0,8.714128733E-1,3.227849603E-1
8.423768860E0,-1.172891974E0,8.437151909E-1,3.078708053E-1
8.428724485E0,-1.208046675E0,8.149521351E-1,2.929566503E-1
8.433708496E0,-1.208046675E0,7.936462164E-1,2.865648866E-1
8.438990892E0,-1.180348992E0,7.734055519E-1,2.886954844E-1
8.443824903E0,-1.134541273E0,7.510343194E-1,2.833689749E-1
8.448940684E0,-1.040795088E0,7.723402977E-1,2.780424953E-1
8.454071207E0,-9.140247703E-1,8.149521351E-1,2.748466134E-1
8.459162248E0,-7.968420982E-1,8.586293459E-1,2.503447831E-1
8.464053135E0,-7.009654045E-1,9.065676928E-1,1.970799267E-1
8.469179905E0,-6.317210793E-1,9.630284309E-1,1.363580078E-1
8.474367146E0,-5.869786143E-1,1.028011560E0,6.604841352E-2
8.479500219E0,-5.518237948E-1,1.084472299E0,6.391781382E-3
8.484625949E0,-5.209302306E-1,1.127084136E0,-3.408950195E-2
8.489668501E0,-4.974936545E-1,1.141998291E0,-6.072192639E-2
8.494406731E0,-4.836448133E-1,1.117496490E0,-7.457078248E-2
8.499759648E0,-4.783183336E-1,1.068492770E0,-7.457078248E-2
8.504711941E0,-4.740571380E-1,1.021619797E0,-5.965662748E-2
8.509658347E0,-4.644694626E-1,9.779425859E-1,-2.556712553E-2
8.514647931E0,-4.634041786E-1,9.193512797E-1,9.587672539E-3
8.519749702E0,-4.570123851E-1,8.607599139E-1,4.793836176E-2
8.525019859E0,-4.175963998E-1,8.266704082E-1,1.129214764E-1
8.529881005E0,-3.707233369E-1,7.819279432E-1,1.768392920E-1
8.535148246E0,-3.323726356E-1,7.233366370E-1,2.375612110E-1
8.540254391E0,-2.961525619E-1,6.604840755E-1,2.876301706E-1
8.545005122E0,-2.716507316E-1,6.050886512E-1,3.249155581E-1
8.550127101E0,-2.578018606E-1,5.582156181E-1,3.526133001E-1
8.555133560E0,-2.471488863E-1,5.198649168E-1,3.717886209E-1
8.560295644E0,-2.386265099E-1,5.060160160E-1,3.813762963E-1
8.565257832E0,-2.301041335E-1,5.081466436E-1,3.781804144E-1
8.570666374E0,-2.151899785E-1,5.156037211E-1,3.600703776E-1
8.575426739E0,-1.949493438E-1,5.166690350E-1,3.249155581E-1
8.580466270E0,-1.704475135E-1,4.996242523E-1,2.801730931E-1
8.585707626E0,-1.459456831E-1,4.793836176E-1,2.215817571E-1
8.591068824E0,-1.171826646E-1,4.410329461E-1,1.406191885E-1
8.595739814E0,-9.800732136E-2,3.494173884E-1,9.374613315E-2
8.600856845E0,-7.563608140E-2,2.641936541E-1,4.048128426E-2
8.605886430E0,-4.793836176E-2,1.779045910E-1,-2.343653329E-2
8.611306586E0,-1.171826664E-2,9.694202244E-2,-7.989726961E-2
8.615986848E0,3.941598535E-2,1.384885982E-2,-1.384886056E-1
8.621133254E0,1.097255871E-1,-7.244019210E-2,-2.173205763E-1
8.626126432E0,2.024064213E-1,-1.651210189E-1,-3.004137278E-1
8.631135234E0,3.131972849E-1,-2.780424953E-1,-3.579397798E-1
8.636076589E0,4.346411526E-1,-3.962904513E-1,-3.792456985E-1
8.641198152E0,5.454320312E-1,-5.028201342E-1,-3.675274551E-1
8.646235444E0,6.572881937E-1,-5.752603412E-1,-3.270461559E-1
8.651483777E0,7.766014934E-1,-6.327863932E-1,-3.078708053E-1
8.656542633E0,9.033718109E-1,-7.137489319E-1,-3.334379494E-1
8.661591487E0,1.043990970E0,-7.904503345E-1,-3.888333738E-1
8.666728572E0,1.186740756E0,-8.735435009E-1,-4.719265401E-1
8.671803988E0,1.330555916E0,-9.406571984E-1,-5.635420680E-1
8.676539562E0,1.476501584E0,-9.683549404E-1,-6.413087845E-1
8.681833885E0,1.611794233E0,-9.875302315E-1,-7.009654045E-1
8.686825240E0,1.716193318E0,-1.034403324E0,-7.457078695E-1
8.691826438E0,1.774784684E0,-1.114300609E0,-7.744708657E-1
8.696880137E0,1.789698839E0,-1.202720284E0,-8.000379801E-1
8.701994564E0,1.770523548E0,-1.230417967E0,-8.160174489E-1
8.706890763E0,1.728976965E0,-1.166500092E0,-8.554334641E-1
8.712234356E0,1.661863208E0,-1.046121597E0,-8.959147334E-1
8.717083316E0,1.584096551E0,-9.363960028E-1,-9.097635746E-1
8.722296024E0,1.493546247E0,-8.596946001E-1,-9.076330066E-1
8.727129880E0,1.374233007E0,-7.915156484E-1,-9.193512797E-1
8.732538108E0,1.267703295E0,-7.510343194E-1,-9.513101578E-1
8.737360193E0,1.210177302E0,-7.457078695E-1,-9.715508223E-1
8.742367276E0,1.212307930E0,-7.382507920E-1,-9.736813903E-1
8.747369830E0,1.281552196E0,-6.903123856E-1,-9.545060396E-1
8.752886236E0,1.395539045E0,-6.359822750E-1,-8.959147334E-1
8.757499310E0,1.506329894E0,-6.423740387E-1,-8.053644896E-1
8.762796601E0,1.613924861E0,-6.764635444E-1,-7.158795595E-1
8.767761498E0,1.726846337E0,-6.935083270E-1,-6.285251975E-1
8.772901290E0,1.857877851E0,-6.903123856E-1,-5.241261125E-1
8.777722541E0,2.004888773E0,-6.636800170E-1,-3.803110123E-1
8.782988530E0,2.114614487E0,-6.562229395E-1,-2.215817571E-1
8.788002698E0,2.141246796E0,-6.967042089E-1,-8.948494494E-2
8.792956760E0,2.051761866E0,-8.074950576E-1,8.522375487E-3
8.798277647E0,1.871726751E0,-9.662243128E-1,6.711370498E-2
8.803248845E0,1.660797954E0,-1.083406925E0,7.244019210E-2
8.808264523E0,1.454130292E0,-1.092994690E0,9.587672539E-3
8.814659367E0,1.221895576E0,-1.043990970E0,-1.182479635E-1
8.818601660E0,9.449183941E-1,-9.992485046E-1,-2.833689749E-1
8.823363274E0,6.828553081E-1,-9.086982608E-1,-4.452941120E-1
8.828356765E0,4.463594258E-1,-8.181480169E-1,-5.848480463E-1
8.833509577E0,2.141246796E-1,-7.691444159E-1,-6.871165037E-1
8.838477130E0,1.384885982E-2,-7.606220245E-1,-7.797973752E-1
8.843598953E0,-1.278356314E-1,-7.904503345E-1,-8.660864234E-1
8.848791663E0,-1.928187460E-1,-8.149521351E-1,-9.406571984E-1
8.853874787E0,-1.874922663E-1,-8.394539952E-1,-9.992485046E-1
8.858684268E0,-1.246397421E-1,-8.756740689E-1,-1.032272696E0
8.863985674E0,-2.343653329E-2,-9.289389253E-1,-1.042925715E0
8.868993019E0,1.012032107E-1,-9.907261729E-1,-1.034403324E0
8.873906352E0,2.396918088E-1,-1.041860461E0,-1.007770896E0
8.878911822E0,3.760498166E-1,-1.081276417E0,-9.555713534E-1
8.884084321E0,5.017548800E-1,-1.111104727E0,-8.884576559E-1
8.889034740E0,6.242640018E-1,-1.091929317E0,-8.224092126E-1
8.894338229E0,7.382507920E-1,-1.028011560E0,-7.595567107E-1
8.899141511E0,8.181480169E-1,-9.449183941E-1,-6.924430132E-1
8.904333490E0,8.511722684E-1,-8.618252277E-1,-6.253293157E-1
8.909482085E0,8.628905416E-1,-7.755361795E-1,-5.614115000E-1
8.914649220E0,8.575640321E-1,-6.775288582E-1,-4.996242523E-1
8.919525472E0,8.383886814E-1,-5.752603412E-1,-4.410329461E-1
8.924583128E0,8.085603714E-1,-4.804489315E-1,-3.962904513E-1
8.929596046E0,7.776667476E-1,-3.920292854E-1,-3.590050638E-1
8.934811358E0,7.382507920E-1,-3.174584806E-1,-3.302420378E-1
8.939622661E0,6.679411530E-1,-2.748466134E-1,-3.004137278E-1
8.944883807E0,5.678032637E-1,-2.620630562E-1,-2.631283402E-1
8.949865735E0,4.602082670E-1,-2.673895359E-1,-2.151899785E-1
8.954988652E0,3.611356616E-1,-2.727160156E-1,-1.683169156E-1
8.959855736E0,2.705854177E-1,-2.673895359E-1,-1.214438528E-1
8.965132298E0,1.896228492E-1,-2.524753809E-1,-7.350549102E-2
8.970064018E0,1.235744432E-1,-2.322347313E-1,-2.343653329E-2
8.975250008E0,6.817900389E-2,-2.151899785E-1,3.835069016E-2
8.980383759E0,2.556712553E-2,-1.981452256E-1,1.097255871E-1
8.985364123E0,-7.457078435E-3,-1.853616685E-1,1.896228492E-1
8.990435166E0,-4.048128426E-2,-1.821657717E-1,2.737812996E-1
8.995548031E0,-7.030959427E-2,-1.789698899E-1,3.590050638E-1
9.000323344E0,-9.481142461E-2,-1.715128124E-1,4.474247098E-1
9.005462979E0,-1.193132550E-1,-1.672516167E-1,5.337137580E-1
9.010564075E0,-1.384886056E-1,-1.661863178E-1,6.189374924E-1
9.015685689E0,-1.544680595E-1,-1.715128124E-1,7.041612864E-1
9.020676628E0,-1.704475135E-1,-1.853616685E-1,7.861891389E-1
9.025809388E0,-1.938840449E-1,-2.024064213E-1,8.650211096E-1
9.030791108E0,-2.279735506E-1,-2.226470560E-1,9.395918846E-1
9.035903139E0,-2.673895359E-1,-2.482141852E-1,1.007770896E0
9.040792671E0,-2.993484437E-1,-2.833689749E-1,1.066362262E0
9.045920119E0,-3.323726356E-1,-3.302420378E-1,1.120692372E0
9.050969912E0,-3.728539348E-1,-3.920292854E-1,1.165434837E0
9.056927047E0,-4.016169310E-1,-4.655347466E-1,1.199524403E0
9.061077875E0,-4.080087245E-1,-5.433014631E-1,1.218699694E0
9.066334809E0,-3.941598535E-1,-6.114804149E-1,1.217634439E0
9.071162310E0,-3.728539348E-1,-6.530269980E-1,1.197393775E0
9.076327257E0,-3.430256248E-1,-6.572881937E-1,1.162238955E0
9.081443248E0,-3.004137278E-1,-6.200028062E-1,1.083406925E0
9.086389029E0,-2.514100671E-1,-5.496932268E-1,9.704855084E-1
9.091446530E0,-2.045370042E-1,-4.719265401E-1,8.330622315E-1
9.096730905E0,-1.661863178E-1,-3.898986876E-1,6.732676625E-1
9.101731063E0,-1.352927089E-1,-3.057402074E-1,5.049507618E-1
9.106683406E0,-1.043990999E-1,-2.418224066E-1,3.334379494E-1
9.111868772E0,-5.326484516E-2,-2.056023031E-1,1.480762810E-1
9.116917314E0,2.663242258E-2,-2.173205763E-1,-3.835069016E-2
9.121858513E0,1.097255871E-1,-3.089361191E-1,-1.917534471E-1
9.127101012E0,1.832310706E-1,-4.612735808E-1,-3.004137278E-1
9.132031430E0,2.524753809E-1,-6.370475888E-1,-3.664621413E-1
9.137038045E0,3.089361191E-1,-8.266704082E-1,-4.058781266E-1
9.142205963E0,3.430256248E-1,-9.758120179E-1,-4.218575954E-1
9.147101119E0,3.472867906E-1,-1.066362262E0,-4.133352041E-1
9.152309505E0,3.249155581E-1,-1.129214764E0,-3.792456985E-1
9.157428255E0,2.918913662E-1,-1.187806129E0,-3.185237944E-1
9.162400861E0,2.652589381E-1,-1.241070986E0,-2.439530045E-1
9.167345600E0,2.631283402E-1,-1.283682823E0,-1.619251370E-1
9.172554872E0,2.620630562E-1,-1.265572786E0,-8.096256852E-2
9.177456538E0,1.970799267E-1,-1.149455428E0,-2.024064213E-2
9.182468779E0,4.261187837E-2,-1.030142188E0,8.522375487E-3
9.187631487E0,-1.384886056E-1,-1.045056343E0,1.171826664E-2
9.192832999E0,-2.759118974E-1,-1.171826601E0,1.065296959E-2
9.197703728E0,-3.579397798E-1,-1.293270469E0,-8.522375487E-3
9.202958469E0,-4.165311158E-1,-1.307119370E0,-5.752603337E-2
9.207871854E0,-4.740571380E-1,-1.153716564E0,-1.384886056E-1
9.213095970E0,-5.283873081E-1,-9.150900841E-1,-2.482141852E-1
9.218083730E0,-6.114804149E-1,-7.073571682E-1,-3.781804144E-1
9.223094981E0,-7.659484744E-1,-5.955010056E-1,-5.017548800E-1
9.228173002E0,-9.768772721E-1,-5.518237948E-1,-5.752603412E-1
9.233203888E0,-1.163304210E0,-4.719265401E-1,-5.848480463E-1
9.238340347E0,-1.265572786E0,-3.558091819E-1,-5.454320312E-1
9.243305608E0,-1.299662232E0,-2.780424953E-1,-4.953630865E-1
9.248430868E0,-1.304988742E0,-2.812383771E-1,-4.687306583E-1
9.253281026E0,-1.270899296E0,-3.014790416E-1,-4.644694626E-1
9.258546598E0,-1.203785539E0,-2.705854177E-1,-4.538165033E-1
9.263542641E0,-1.118561745E0,-2.024064213E-1,-4.282493591E-1
9.268661964E0,-1.012032032E0,-1.171826646E-1,-3.867027760E-1
9.273573215E0,-8.575640321E-1,-2.663242258E-2,-3.227849603E-1
9.278686288E0,-6.636800170E-1,3.622009605E-2,-2.492794842E-1
9.283986966E0,-4.580776691E-1,5.752603337E-2,-1.725780964E-1
9.288790612E0,-2.759118974E-1,3.728539124E-2,-9.481142461E-2
9.294099676E0,-1.342274100E-1,-1.065296936E-3,-2.343653329E-2
9.299029832E0,-2.769771963E-2,-3.195890784E-2,4.261187837E-2
9.304091291E0,3.941598535E-2,-8.202786744E-2,1.086602882E-1
9.309005614E0,4.261187837E-2,-1.704475135E-1,1.821657717E-1
9.314176032E0,-2.450183034E-2,-2.705854177E-1,2.599324584E-1
9.319283480E0,-1.267703325E-1,-3.121320009E-1,3.068055212E-1
9.324116033E0,-2.194511741E-1,-2.716507316E-1,3.653968573E-1
9.329230616E0,-2.833689749E-1,-1.949493438E-1,4.410329461E-1
9.334437909E0,-3.345032334E-1,-1.246397421E-1,5.017548800E-1
9.339364992E0,-3.877680898E-1,-6.817900389E-2,5.241261125E-1
9.344686243E0,-4.527511895E-1,-4.367717355E-2,5.166690350E-1
9.349628118E0,-5.198649168E-1,-6.924430281E-2,4.847100973E-1
9.354771817E0,-5.976315737E-1,-1.225091442E-1,4.399676323E-1
9.359862858E0,-6.583535075E-1,-1.235744432E-1,3.792456985E-1
9.364597808E0,-6.530269980E-1,-3.195890784E-2,2.876301706E-1
9.370017495E0,-6.530269980E-1,5.539543927E-2,1.885575503E-1
9.374924632E0,-6.658105850E-1,1.022685021E-1,9.374613315E-2
9.379889163E0,-6.700717807E-1,1.043990999E-1,3.408950195E-2
9.385517392E0,-5.976315737E-1,6.817900389E-2,-1.065296936E-3
9.390221196E0,-4.634041786E-1,1.555333585E-1,-5.965662748E-2
9.395124372E0,-3.387644291E-1,3.206543922E-1,-1.214438528E-1
9.400114738E0,-2.471488863E-1,4.516859055E-1,-1.427497864E-1
9.405120936E0,-1.683169156E-1,5.635420680E-1,-1.693822145E-1
9.410223177E0,-1.107908785E-1,7.190754414E-1,-2.109287977E-1
9.415394791E0,-6.285251677E-2,8.756740689E-1,-1.992105246E-1
9.420243074E0,-3.089361079E-2,9.971179366E-1,-1.320968270E-1
9.425520313E0,-2.876301669E-2,1.099386454E0,-2.876301669E-2
9.430620991E0,-5.113425106E-2,1.196328402E0,8.202786744E-2
9.435685679E0,-8.522375673E-2,1.235744476E0,1.779045910E-1
9.440481201E0,-1.097255871E-1,1.203785539E0,2.482141852E-1
9.445949899E0,-1.257050335E-1,1.146259546E0,3.089361191E-1
9.450784691E0,-1.299662292E-1,1.118561745E0,3.707233369E-1
9.455912087E0,-1.182479635E-1,1.108974099E0,4.378370345E-1
9.460727973E0,-9.587672353E-2,1.085537553E0,5.060160160E-1
9.466006255E0,-6.817900389E-2,1.023750305E0,5.667379498E-1
9.471039120E0,-1.278356276E-2,9.630284309E-1,6.093498468E-1
9.476107297E0,7.670138031E-2,9.140247703E-1,6.231986880E-1
9.481070736E0,1.779045910E-1,8.607599139E-1,6.114804149E-1
9.486071152E0,2.663242221E-1,8.000379801E-1,5.763256550E-1
9.491422508E0,3.078708053E-1,6.881818175E-1,5.262566805E-1
9.496611987E0,2.844342887E-1,5.560849905E-1,4.729918540E-1
9.501218603E0,1.864269674E-1,4.463594258E-1,4.367717505E-1
9.506466779E0,8.948494494E-2,4.900365770E-1,4.058781266E-1
9.511418916E0,6.285251677E-2,7.116183639E-1,3.707233369E-1
9.516574697E0,1.065296936E-3,8.735435009E-1,3.376991153E-1
9.521435792E0,-1.363580078E-1,9.236124158E-1,3.025443256E-1
9.526620011E0,-2.897607684E-1,9.427877665E-1,2.812383771E-1
9.531760220E0,-4.314452708E-1,9.598325491E-1,2.652589381E-1
9.536933501E0,-5.219954848E-1,9.822037816E-1,2.652589381E-1
9.541772096E0,-5.784562230E-1,9.672896266E-1,2.652589381E-1
9.546986731E0,-6.114804149E-1,9.289389253E-1,2.567365468E-1
9.551797097E0,-6.221334338E-1,8.905882239E-1,2.503447831E-1
9.557080951E0,-6.018927693E-1,8.937841058E-1,2.737812996E-1
9.562060015E0,-5.550196767E-1,9.449183941E-1,3.270461559E-1
9.567047619E0,-5.134730935E-1,9.736813903E-1,3.813762963E-1
9.572022620E0,-4.868406951E-1,9.342654347E-1,4.250534773E-1
9.577159130E0,-4.729918540E-1,8.650211096E-1,4.538165033E-1
9.582423559E0,-4.612735808E-1,7.957767844E-1,4.847100973E-1
9.587495850E0,-4.570123851E-1,7.520996332E-1,5.060160160E-1
9.592523143E0,-4.783183336E-1,7.286630869E-1,5.198649168E-1
9.597733924E0,-5.156037211E-1,7.148142457E-1,5.347790718E-1
9.602590123E0,-5.603461862E-1,7.201407552E-1,5.624767542E-1
9.607656575E0,-6.125457287E-1,7.307937145E-1,6.018927693E-1
9.612616114E0,-6.647452712E-1,7.574261427E-1,6.455699205E-1
9.617672259E0,-7.094877362E-1,8.351927996E-1,6.945735812E-1
9.622937417E0,-7.563608289E-1,8.788699508E-1,7.339895964E-1
9.628015385E0,-8.128215671E-1,8.511722684E-1,7.670137882E-1
9.633093772E0,-8.618252277E-1,8.074950576E-1,7.851238251E-1
9.637852469E0,-9.012411833E-1,7.606220245E-1,7.915156484E-1
9.643133408E0,-9.214818478E-1,7.595567107E-1,7.872544527E-1
9.648139346E0,-9.321348071E-1,7.776667476E-1,7.819279432E-1
9.652968149E0,-9.449183941E-1,8.000379801E-1,7.883197069E-1
9.658095961E0,-9.438530803E-1,8.415845633E-1,8.085603714E-1
9.663281796E0,-8.980453014E-1,9.342654347E-1,8.319969177E-1
9.668205858E0,-8.277357221E-1,1.006705642E0,8.447804451E-1
9.673494870E0,-7.510343194E-1,1.028011560E0,8.245398402E-1
9.678499036E0,-6.540923119E-1,1.051448107E0,7.851238251E-1
9.683355600E0,-5.678032637E-1,1.061035752E0,7.435772419E-1
9.688440495E0,-4.911018908E-1,1.102582335E0,7.062918544E-1
9.693451642E0,-4.314452708E-1,1.167565465E0,6.434393525E-1
9.698741799E0,-4.090740085E-1,1.179283738E0,5.422361493E-1
9.703573050E0,-4.037475288E-1,1.167565465E0,4.293146729E-1
9.708702945E0,-4.016169310E-1,1.136671782E0,2.876301706E-1
9.713899301E0,-3.973557651E-1,1.107908845E0,1.608598381E-1
9.718876800E0,-3.792456985E-1,1.081276417E0,7.457078248E-2
9.723942114E0,-3.547438681E-1,1.023750305E0,5.326484796E-3
9.729052583E0,-3.259808719E-1,9.608978629E-1,-5.539543927E-2
9.733910084E0,-2.812383771E-1,9.257430434E-1,-8.628904819E-2
9.739081594E0,-2.279735506E-1,9.076330066E-1,-8.841964602E-2
9.744259721E0,-1.736433953E-1,8.905882239E-1,-7.030959427E-2
9.749154720E0,-1.246397421E-1,8.735435009E-1,-3.622009605E-2
9.754483992E0,-8.522375673E-2,8.533028364E-1,5.326484796E-3
9.759589357E0,-5.752603337E-2,8.288010359E-1,5.646073818E-2
9.764454358E0,-3.941598535E-2,8.064298034E-1,1.118561774E-1
9.769392535E0,-3.622009605E-2,7.776667476E-1,1.629904360E-1
9.774389567E0,-4.154657945E-2,7.425119877E-1,2.098634988E-1
9.779486539E0,-5.539543927E-2,7.073571682E-1,2.482141852E-1
9.784505922E0,-6.924430281E-2,6.764635444E-1,2.780424953E-1
9.790084672E0,-8.415845782E-2,6.455699205E-1,2.886954844E-1
9.794899986E0,-9.907261282E-2,6.104151607E-1,2.727160156E-1
9.799759465E0,-1.065296903E-1,5.944356918E-1,2.364959270E-1
9.805000039E0,-1.182479635E-1,5.912398100E-1,1.821657717E-1
9.809881133E0,-1.289009303E-1,5.912398100E-1,1.129214764E-1
9.815094936E0,-1.384886056E-1,5.965662599E-1,1.917534508E-2
9.819980404E0,-1.395539045E-1,5.880439281E-1,-8.202786744E-2
9.825090822E0,-1.246397421E-1,5.539544225E-1,-1.842963696E-1
9.830244884E0,-8.841964602E-2,5.006895661E-1,-2.854995728E-1
9.835259000E0,-2.982831374E-2,4.186616838E-1,-3.749845326E-1
9.840416240E0,5.219954997E-2,3.334379494E-1,-4.602082670E-1
9.845317908E0,1.342274100E-1,2.215817571E-1,-5.241261125E-1
9.850353376E0,2.151899785E-1,8.948494494E-2,-5.507585406E-1
9.855329367E0,3.046749234E-1,-2.663242258E-2,-5.976315737E-1
9.860603690E0,4.016169310E-1,-1.704475135E-1,-6.466352344E-1
9.865448483E0,5.113425255E-1,-3.281114697E-1,-6.647452712E-1
9.870571347E0,6.221334338E-1,-4.953630865E-1,-6.924430132E-1
9.875685671E0,7.190754414E-1,-6.615493894E-1,-7.563608289E-1
9.880822025E0,7.979074121E-1,-8.447804451E-1,-8.469110727E-1
9.885819110E0,8.703476191E-1,-9.960526228E-1,-8.501069546E-1
9.891030880E0,9.608978629E-1,-1.053578615E0,-8.309316039E-1
9.895989111E0,1.005640268E0,-1.204850793E0,-9.747467041E-1
9.900923589E0,1.029076815E0,-1.362514734E0,-1.104712963E0
9.906189685E0,1.055709243E0,-1.359318852E0,-1.144128919E0
9.911276976E0,1.065296888E0,-1.265572786E0,-1.144128919E0
9.916069842E0,1.062101007E0,-1.159043074E0,-1.144128919E0
9.921350675E0,1.046121597E0,-1.051448107E0,-1.179283738E0
9.926303385E0,1.020554423E0,-9.779425859E-1,-1.236809731E0
9.931419217E0,1.002444386E0,-9.214818478E-1,-1.307119370E0
9.936433386E0,9.843343496E-1,-8.618252277E-1,-1.394473672E0
9.941585052E0,9.587672353E-1,-8.074950576E-1,-1.483958602E0
9.946875834E0,9.225471616E-1,-7.648832202E-1,-1.561725259E0
9.951728640E0,8.863270283E-1,-7.563608289E-1,-1.610728979E0
9.956691929E0,8.501069546E-1,-7.627525926E-1,-1.638426661E0
9.961860210E0,8.394539952E-1,-7.680791020E-1,-1.658667326E0
9.966640628E0,8.564987183E-1,-7.361201644E-1,-1.665059090E0
9.971919638E0,9.076330066E-1,-6.967042089E-1,-1.643753171E0
9.976775421E0,9.949873090E-1,-6.359822750E-1,-1.650144935E0
9.981886827E0,1.095125198E0,-5.912398100E-1,-1.646949053E0
9.987099015E0,1.192067266E0,-6.018927693E-1,-1.604337215E0
9.991989328E0,1.336947680E0,-5.784562230E-1,-1.544680595E0
9.997012454E0,1.602206588E0,-4.261187613E-1,-1.475436211E0
1.000237948E1,1.919665098E0,-2.865648866E-1,-1.389147162E0
1.000712141E1,2.196642399E0,-2.567365468E-1,-1.296466351E0
1.001234912E1,2.469358206E0,-2.311694324E-1,-1.225091457E0
1.001724157E1,2.743139505E0,-1.779045910E-1,-1.175022483E0
1.002234037E1,2.947676659E0,-2.269082516E-1,-1.108974099E0
1.002748527E1,3.002006769E0,-3.835068941E-1,-1.013097405E0
1.003261548E1,2.893346548E0,-5.731297731E-1,-8.650211096E-1
1.003760491E1,2.672830105E0,-7.489037514E-1,-7.105530500E-1
1.004274860E1,2.361763239E0,-8.564987183E-1,-5.560849905E-1
1.004759288E1,2.106091976E0,-7.638179064E-1,-4.186616838E-1
1.005270861E1,1.913273335E0,-5.624767542E-1,-3.792456985E-1
1.005785293E1,1.735368729E0,-3.579397798E-1,-3.952251673E-1
1.006308262E1,1.653340816E0,-1.779045910E-1,-4.548817873E-1
1.006802106E1,1.633100152E0,-1.001379117E-1,-5.571503043E-1
