"Time (s)","Acceleration x (m/s^2)","Acceleration y (m/s^2)","Acceleration z (m/s^2)"
0.000000000E0,-1.909939885E0,4.340476513E0,8.567546844E0
2.446823000E-3,-1.941063285E0,4.215983391E0,8.699221611E0
4.893646000E-3,-1.986550927E0,4.156131268E0,8.821320534E0
7.340468000E-3,-2.000915766E0,4.117825508E0,8.905115128E0
9.787343000E-3,-2.008098125E0,4.101066589E0,8.991301537E0
1.223427100E-2,-2.075132847E0,4.024455547E0,9.127765656E0
1.468114600E-2,-2.209202290E0,3.916721344E0,9.264229774E0
1.712802100E-2,-3.061501503E0,3.500148058E0,9.752626419E0
1.957494800E-2,-3.446951389E0,3.361290216E0,1.008780003E1
2.202187500E-2,-3.126142025E0,3.433113337E0,9.860360146E0
2.446880200E-2,-2.913067341E0,3.378049135E0,9.587432861E0
2.691572900E-2,-2.704780817E0,3.169762611E0,9.338446617E0
2.936265600E-2,-2.735903978E0,3.073998451E0,9.127765656E0
3.180963500E-2,-2.769421339E0,3.093151331E0,8.797379494E0
3.425661400E-2,-2.484523535E0,2.798677206E0,8.634581566E0
3.670359300E-2,-2.503676653E0,2.832194567E0,8.452630043E0
3.915057300E-2,-2.580287695E0,2.992599249E0,8.225191116E0
4.159755200E-2,-2.611410856E0,3.085968971E0,7.854105473E0
4.404453100E-2,-2.620987415E0,3.167368174E0,7.461473465E0
4.649151000E-2,-2.632957935E0,3.301438093E0,7.143057823E0
4.893848900E-2,-2.570711374E0,3.397201777E0,6.793519974E0
5.138546800E-2,-1.433514237E0,2.674184084E0,6.661844254E0
5.383244800E-2,-1.024123311E0,2.554479122E0,6.470316410E0
5.627942700E-2,-1.105522752E0,2.757977486E0,6.240482807E0
5.872640600E-2,-1.263533235E0,2.987811089E0,6.025013924E0
6.117338500E-2,-1.452666998E0,3.248767853E0,5.771239281E0
6.362036400E-2,-1.656165481E0,3.514512777E0,5.512676716E0
6.606734300E-2,-1.835722804E0,3.739557981E0,5.349877834E0
6.851432300E-2,-1.984156966E0,3.940662384E0,5.225384712E0
7.096130200E-2,-2.156532049E0,4.134583950E0,5.194262028E0
7.340828100E-2,-2.352848291E0,4.287806511E0,5.177503109E0
7.585526000E-2,-2.592257977E0,4.520033836E0,5.242144108E0
7.830223900E-2,-2.747874498E0,4.694803238E0,5.328331470E0
8.074921800E-2,-2.913067341E0,4.874361038E0,5.373818874E0
8.319619800E-2,-3.013619661E0,4.915060520E0,5.534224033E0
8.564317700E-2,-3.090230703E0,4.912666321E0,5.728146076E0
8.809015600E-2,-3.095018864E0,4.869572163E0,5.950797081E0
9.053713500E-2,-3.097413063E0,4.797749519E0,6.108807564E0
9.298411400E-2,-3.078260183E0,4.615797997E0,6.259635925E0
9.543109300E-2,-2.989678621E0,4.419481754E0,6.405675888E0
9.787807300E-2,-2.920249701E0,4.215983391E0,6.534956932E0
1.003250520E-1,-2.860397339E0,4.012485027E0,6.642691612E0
1.027720310E-1,-2.831668139E0,3.797016382E0,6.800702095E0
1.052176560E-1,-2.937008381E0,3.610276461E0,7.174181461E0
1.076397390E-1,-3.648055553E0,3.571970940E0,8.421506882E0
1.100392710E-1,-3.205147266E0,3.174550772E0,8.809350967E0
1.124379160E-1,-3.006437302E0,3.016540289E0,8.225191116E0
1.148366140E-1,-2.599440336E0,2.738824844E0,7.815799713E0
1.172361460E-1,-2.247507811E0,2.434774399E0,7.327404022E0
1.196356250E-1,-1.967398286E0,2.248034477E0,6.731273174E0
1.220343230E-1,-1.763899803E0,2.018201113E0,6.441587448E0
1.244330210E-1,-1.589130759E0,1.797943950E0,6.290759087E0
1.268325520E-1,-1.483790398E0,1.601627827E0,6.183024406E0
1.292320310E-1,-1.457455277E0,1.412494063E0,6.271606445E0
1.316307290E-1,-1.423937798E0,1.240118861E0,6.422434330E0
1.340294270E-1,-1.572371960E0,1.204207420E0,6.712120533E0
1.364289580E-1,-1.668136001E0,1.156325459E0,7.150240421E0
1.388284370E-1,-1.778264523E0,1.113231659E0,7.523719788E0
1.412271350E-1,-1.838117003E0,1.098867059E0,7.961840153E0
1.436258330E-1,-1.979368806E0,1.153931260E0,8.469388962E0
1.460253120E-1,-2.094285488E0,1.204207420E0,8.895538330E0
1.484248430E-1,-2.211596251E0,1.273636341E0,9.316900253E0
1.508234890E-1,-2.350454092E0,1.292788982E0,9.711925507E0
1.532221870E-1,-2.386365652E0,1.235330701E0,1.005188751E1
1.556217180E-1,-2.474947453E0,1.187448621E0,1.024102211E1
1.580211980E-1,-2.513252735E0,1.230542541E0,1.027932835E1
1.604198960E-1,-2.616199017E0,1.297577262E0,1.027932835E1
1.628185930E-1,-2.592257977E0,1.290394902E0,1.016201687E1
1.652181250E-1,-2.525223255E0,1.302365422E0,9.984852791E0
1.676176040E-1,-2.462976933E0,1.333488822E0,9.879512787E0
1.700163020E-1,-2.498888254E0,1.536987185E0,9.795720100E0
1.724150000E-1,-2.474947453E0,1.671056628E0,9.733472824E0
1.748145310E-1,-2.395941973E0,1.675844908E0,9.697562218E0
1.772140100E-1,-2.283419371E0,1.548957705E0,9.783748627E0
1.796127080E-1,-2.316936731E0,1.680633068E0,9.872330666E0
1.820114060E-1,-2.321725130E0,1.838643551E0,9.941760063E0
1.844108850E-1,-2.376789331E0,1.903284311E0,1.005188751E1
1.868104160E-1,-2.453400373E0,1.936801672E0,1.019553375E1
1.892090620E-1,-2.460582733E0,1.910466552E0,1.038466835E1
1.916077600E-1,-2.467765093E0,1.838643551E0,1.047325039E1
1.940072910E-1,-2.551558495E0,1.757244110E0,1.054746723E1
1.964067710E-1,-2.563529015E0,1.642327547E0,1.063125992E1
1.988054680E-1,-2.611410856E0,1.481922865E0,1.070787048E1
2.012041660E-1,-2.709568977E0,1.247301221E0,1.075814724E1
2.036036980E-1,-2.783786058E0,1.055773258E0,1.071984196E1
2.060031770E-1,-2.891520500E0,8.546689153E-1,1.071984196E1
2.084018750E-1,-2.968131542E0,6.918702126E-1,1.064562511E1
2.108005730E-1,-3.047136784E0,4.835836589E-1,1.059055996E1
2.132001040E-1,-3.178812265E0,2.848734856E-1,1.049719048E1
2.155995830E-1,-3.296123028E0,1.484098285E-1,1.040382099E1
2.179982810E-1,-3.461316109E0,1.673439518E-2,1.038706207E1
2.203969790E-1,-3.602567911E0,-1.676112115E-1,1.039903259E1
2.227964580E-1,-3.813248634E0,-3.375922143E-1,1.049958515E1
2.251959890E-1,-3.995200157E0,-4.213856757E-1,1.047325039E1
2.275946350E-1,-4.189122200E0,-4.956027567E-1,1.040621471E1
2.299933330E-1,-4.428532124E0,-5.434846878E-1,1.033678627E1
2.323928640E-1,-4.694277287E0,-5.793961883E-1,1.035593891E1
2.347923430E-1,-4.964809895E0,-6.105195284E-1,1.029129791E1
2.371910410E-1,-5.244919777E0,-5.985490084E-1,1.021468735E1
2.395897390E-1,-5.515452385E0,-5.363024473E-1,1.013089275E1
2.419892710E-1,-5.683039665E0,-4.860263467E-1,9.956124306E0
2.443887500E-1,-5.850626469E0,-4.572971463E-1,9.755020142E0
2.467874480E-1,-5.946390629E0,-4.285679460E-1,9.486881256E0
2.491861460E-1,-5.975119591E0,-3.663213849E-1,9.228318214E0
2.515856770E-1,-6.013424873E0,-3.112571239E-1,8.969756126E0
2.539851560E-1,-5.982302189E0,-2.226754874E-1,8.711193085E0
2.563838540E-1,-5.982302189E0,-2.154931873E-1,8.490936279E0
2.587825520E-1,-5.910479069E0,-1.556407213E-1,8.308984756E0
2.611820310E-1,-5.862596989E0,-1.101528406E-1,8.069574356E0
2.635815620E-1,-5.726133823E0,-6.466495991E-2,7.894804955E0
2.659802080E-1,-5.687827587E0,5.264587328E-2,7.710459232E0
2.683789060E-1,-5.673462868E0,1.891094893E-1,7.456685066E0
2.707784370E-1,-5.594458103E0,2.681147754E-1,7.274733543E0
2.731779160E-1,-5.536999702E0,3.926079273E-1,7.133481979E0
2.755766140E-1,-5.345471382E0,4.620367587E-1,7.114328861E0
2.779753120E-1,-5.029450417E0,4.189430177E-1,7.162210941E0
2.803748430E-1,-4.948050976E0,4.141547978E-1,6.968288898E0
2.827743230E-1,-4.916928291E0,4.213370979E-1,6.738455296E0
2.851730210E-1,-4.892987251E0,3.830315173E-1,6.590021610E0
2.875717180E-1,-4.835528374E0,3.471200466E-1,6.465528488E0
2.899712500E-1,-4.756523609E0,2.824793458E-1,6.443981647E0
2.923707290E-1,-4.734976768E0,2.561442554E-1,6.489469051E0
2.947694270E-1,-4.675124168E0,2.298091799E-1,6.525380611E0
2.971681250E-1,-4.687094688E0,2.369914800E-1,6.654662132E0
2.995676040E-1,-4.689488411E0,3.016321659E-1,6.839007378E0
3.019671350E-1,-4.682306767E0,3.423318267E-1,6.949135780E0
3.043657810E-1,-4.744553089E0,4.261252880E-1,6.970683098E0
3.067644790E-1,-4.675124168E0,4.716131687E-1,7.011383057E0
3.091640100E-1,-4.665547371E0,5.410419703E-1,7.008988380E0
3.115635410E-1,-4.830740452E0,5.410419703E-1,7.226851463E0
3.139621870E-1,-4.892987251E0,4.524603784E-1,7.327404022E0
3.163608850E-1,-4.799617290E0,2.489619702E-1,7.121511459E0
3.187604160E-1,-4.624847889E0,-1.029705405E-1,6.637903214E0
3.211598960E-1,-4.356709003E0,-4.022328556E-1,6.171053886E0
3.235585930E-1,-4.074204922E0,-4.956027567E-1,6.039378643E0
3.259572910E-1,-3.971259117E0,-5.051791668E-1,6.326670647E0
3.283568230E-1,-3.997593880E0,-4.189915657E-1,6.951530457E0
3.307563020E-1,-4.050263882E0,-1.939463019E-1,7.530901909E0
3.331550000E-1,-4.045475960E0,2.369802911E-3,7.789464951E0
3.355536980E-1,-3.971259117E0,1.891094893E-1,7.825376511E0
3.379531770E-1,-3.937741756E0,3.662728369E-1,7.720036030E0
3.403527080E-1,-3.978441238E0,5.554066300E-1,7.693700790E0
3.427513540E-1,-3.992805958E0,7.397521734E-1,7.901987553E0
3.451500520E-1,-3.980835438E0,8.857922554E-1,8.139003754E0
3.475495830E-1,-3.968864918E0,1.024649978E0,8.385595322E0
3.499490620E-1,-3.964076996E0,1.187448621E0,8.498118401E0
3.523477600E-1,-3.937741756E0,1.331094623E0,8.562759399E0
3.547464580E-1,-3.916194916E0,1.479528785E0,8.598670006E0
3.571459890E-1,-3.777337074E0,1.606415987E0,8.644158363E0
3.595454680E-1,-3.607356071E0,1.709362268E0,8.660917282E0
3.619441660E-1,-3.401463509E0,1.805126190E0,8.687252045E0
3.643428640E-1,-3.145295143E0,1.829067111E0,8.742316246E0
3.667423960E-1,-2.886732340E0,1.857796431E0,8.830898285E0
3.691418750E-1,-2.680839777E0,1.850614071E0,9.000879288E0
3.715405730E-1,-2.501282454E0,1.774002910E0,9.273805618E0
3.739392710E-1,-2.295389891E0,1.704573989E0,9.589826584E0
3.763387500E-1,-2.182867289E0,1.637539268E0,9.745444298E0
3.787382810E-1,-2.254690409E0,1.644721508E0,9.711925507E0
3.811369790E-1,-2.496494055E0,1.572898626E0,9.671225548E0
3.835356770E-1,-2.699992657E0,1.508257866E0,9.788537025E0
3.859351560E-1,-2.867579699E0,1.417282224E0,9.896271706E0
3.883346350E-1,-2.798150539E0,1.280818582E0,1.004949379E1
3.907333330E-1,-2.587469816E0,1.208995700E0,1.061210728E1
3.931320310E-1,-2.518041134E0,1.039014578E0,1.079166508E1
3.955315620E-1,-2.498888254E0,9.504328966E-1,1.103346920E1
3.979310410E-1,-2.604228497E0,9.480388165E-1,1.113641453E1
4.003297390E-1,-2.625775576E0,9.049449563E-1,1.081560612E1
4.027284370E-1,-2.503676653E0,1.022255898E0,1.106459236E1
4.051279680E-1,-2.635351896E0,1.101261139E0,1.099037457E1
4.075274480E-1,-2.644928455E0,1.113231659E0,1.070547676E1
4.099261460E-1,-2.738298178E0,1.347853303E0,1.121781349E1
4.123248430E-1,-3.600173950E0,1.280818582E0,1.242444038E1
4.147243230E-1,-1.864452004E0,1.584869146E0,1.289128876E1
4.171238540E-1,-1.222833633E0,1.958348513E0,1.192646790E1
4.195225000E-1,-8.254132271E-1,1.941589832E0,1.093291664E1
4.219211980E-1,-5.476977825E-1,2.011018753E0,1.023623371E1
4.243207290E-1,-3.513816297E-1,1.963136673E0,9.680803299E0
4.267202600E-1,5.033116341E-1,1.374188423E0,9.417451859E0
4.291189060E-1,2.710840404E-1,1.290394902E0,8.100697517E0
4.315176040E-1,-1.191540658E-1,1.161113620E0,7.401620865E0
4.339171350E-1,-4.351751506E-1,1.096472859E0,6.870131016E0
4.363166140E-1,-7.320432663E-1,1.050985098E0,6.594809532E0
4.387153120E-1,-1.036093831E0,8.977627158E-1,6.690573215E0
4.411140100E-1,-1.299444675E0,6.894761324E-1,7.025747299E0
4.435135410E-1,-1.682500482E0,6.032885313E-1,7.375286102E0
4.459130210E-1,-2.123014927E0,3.854255974E-1,7.597937107E0
4.483117180E-1,-2.465370893E0,1.364393383E-1,7.887622833E0
4.507104160E-1,-2.656898737E0,-9.578825533E-2,8.263496399E0
4.531099480E-1,-2.850820780E0,-3.136512041E-1,8.579517365E0
4.555094270E-1,-3.027984142E0,-5.578493476E-1,8.739921570E0
4.579080730E-1,-3.135718584E0,-6.416427493E-1,8.979331970E0
4.603067710E-1,-3.245846987E0,-7.589536309E-1,8.909902573E0
4.627063020E-1,-3.300911427E0,-8.882349730E-1,8.763862610E0
4.651057810E-1,-3.370340347E0,-9.337228537E-1,8.706404686E0
4.675044790E-1,-3.413434029E0,-9.959693551E-1,8.627398491E0
4.699031770E-1,-3.518774271E0,-1.074974537E0,8.507694244E0
4.723027080E-1,-3.695937634E0,-1.173132539E0,8.773439407E0
4.747021870E-1,-3.803672075E0,-1.256926060E0,8.586699486E0
4.771008850E-1,-3.863524437E0,-1.290443420E0,8.385595322E0
4.794995830E-1,-3.983229637E0,-1.304808140E0,8.170126915E0
4.818991140E-1,-4.076599598E0,-1.343113661E0,7.985780716E0
4.842985930E-1,-4.083781719E0,-1.383813381E0,7.789464951E0
4.866972910E-1,-4.067023277E0,-1.379025102E0,7.533296585E0
4.890959890E-1,-3.942529678E0,-1.347901821E0,7.193334579E0
4.914954680E-1,-3.810854435E0,-1.357478261E0,6.764790535E0
4.938950000E-1,-3.600173950E0,-1.357478261E0,6.314700127E0
4.962936460E-1,-3.324852228E0,-1.388601542E0,5.826303959E0
4.986923430E-1,-2.972919941E0,-1.386207461E0,5.349877834E0
5.010918750E-1,-2.613805056E0,-1.335931301E0,5.100892067E0
5.034913540E-1,-2.269054890E0,-1.338325500E0,4.918940544E0
5.058900520E-1,-1.869240165E0,-1.244955540E0,4.971610546E0
5.082887500E-1,-1.615465760E0,-1.300019860E0,4.985974789E0
5.106882810E-1,-1.479002118E0,-1.515488744E0,5.366636753E0
5.130877600E-1,-1.110310912E0,-1.462818623E0,5.919673443E0
5.154864580E-1,-1.151010633E0,-1.814751029E0,6.060925484E0
5.178851560E-1,-9.523003101E-1,-1.867421389E0,7.001806259E0
5.202846870E-1,-9.092066288E-1,-2.051766872E0,7.358527184E0
5.226841660E-1,-8.086545467E-1,-2.236112356E0,8.000145912E0
5.250828640E-1,-6.147325039E-1,-2.216959715E0,8.869202614E0
5.274815620E-1,-6.650085449E-1,-2.451581478E0,9.192406654E0
5.298810410E-1,-3.609580100E-1,-2.437216759E0,9.652073860E0
5.322805730E-1,-4.639042318E-1,-2.741267204E0,9.252259254E0
5.346792180E-1,-2.077357173E-1,-2.650291443E0,9.211560249E0
5.370779160E-1,-3.633521497E-1,-2.774784803E0,8.261102676E0
5.394774480E-1,-2.508294880E-1,-2.118801594E0,7.387256622E0
5.418769270E-1,-6.530380249E-1,-2.190624714E0,6.616356373E0
5.442756250E-1,-5.046039820E-1,-1.936850071E0,6.494257450E0
5.466743230E-1,-4.351751506E-1,-1.726169467E0,7.123905659E0
5.490738540E-1,-4.399633110E-1,-1.264108300E0,8.648945808E0
5.514733330E-1,-6.937377453E-1,-1.173132539E0,9.264229774E0
5.538720310E-1,-6.434617043E-1,-8.092297316E-1,1.025778103E1
5.562707290E-1,-7.057082653E-1,-4.764499366E-1,1.018116951E1
5.586702600E-1,-8.014721870E-1,-3.471686244E-1,9.841206551E0
5.610697390E-1,-7.296493053E-1,1.172865331E-1,9.889088631E0
5.634684370E-1,-7.823194265E-1,4.548544884E-1,9.249864578E0
5.658671350E-1,-7.895016670E-1,6.296236515E-1,8.632187843E0
5.682666140E-1,-8.732951880E-1,7.229934931E-1,8.122244835E0
5.706661460E-1,-8.661128283E-1,8.977627158E-1,7.916351795E0
5.730647910E-1,-8.613246679E-1,1.034226418E0,7.602725029E0
5.754634890E-1,-8.541423082E-1,1.043802738E0,7.296280384E0
5.778630210E-1,-9.475122690E-1,9.336741567E-1,7.803829670E0
5.802625520E-1,-1.131857872E0,8.115751743E-1,8.517271042E0
5.826611980E-1,-1.471819878E0,6.104708314E-1,9.245077133E0
5.850598960E-1,-1.933880925E0,3.159967661E-1,9.865147591E0
5.874594270E-1,-2.415094852E0,-3.593577817E-2,1.039663792E1
5.898589060E-1,-2.886732340E0,-3.471686244E-1,1.077251148E1
5.922576040E-1,-3.224300385E0,-6.607955694E-1,1.100952816E1
5.946563020E-1,-3.504409790E0,-8.978113532E-1,1.116514397E1
5.970558330E-1,-3.628902912E0,-1.120462418E0,1.120823765E1
5.994553120E-1,-3.683967113E0,-1.261714339E0,1.116514397E1
6.018540100E-1,-3.782125235E0,-1.376631141E0,1.108374500E1
6.042527080E-1,-3.736637354E0,-1.434089422E0,1.103346920E1
6.066521870E-1,-3.657632113E0,-1.474789143E0,1.100473881E1
6.090517180E-1,-3.387098789E0,-1.393389702E0,1.096882820E1
6.114503640E-1,-3.348793268E0,-1.374236941E0,1.098319340E1
6.138490620E-1,-3.200359344E0,-1.328749061E0,1.099037457E1
6.162485930E-1,-2.934614420E0,-1.249743819E0,1.094249249E1
6.186480730E-1,-2.860397339E0,-1.204255939E0,1.095925236E1
6.210467710E-1,-2.625775576E0,-1.127644658E0,1.099995136E1
6.234454680E-1,-2.467765093E0,-1.101309657E0,1.104543877E1
6.258450000E-1,-2.314542532E0,-1.106097817E0,1.108613873E1
6.282444790E-1,-2.221172810E0,-1.149191737E0,1.114120293E1
6.306431770E-1,-2.142167568E0,-1.237773299E0,1.121063232E1
6.330418750E-1,-2.103862047E0,-1.438877583E0,1.125611973E1
6.354414060E-1,-2.182867289E0,-1.711804867E0,1.125133228E1
6.378408850E-1,-2.360030651E0,-2.061343431E0,1.123936081E1
6.402395830E-1,-2.546770334E0,-2.365393639E0,1.124175453E1
6.426382810E-1,-2.747874498E0,-2.657474041E0,1.118190289E1
6.450377600E-1,-2.917855501E0,-2.892095566E0,1.102867985E1
6.474372910E-1,-3.118959904E0,-3.095593929E0,1.089461136E1
6.498359370E-1,-3.296123028E0,-3.296698093E0,1.075814724E1
6.522346350E-1,-3.518774271E0,-3.507379055E0,1.062647152E1
6.546341660E-1,-3.688755274E0,-3.655812979E0,1.055225468E1
6.570336460E-1,-3.657632113E0,-3.797065020E0,1.051155472E1
6.594323430E-1,-3.391887188E0,-3.811429501E0,1.030805683E1
6.618310410E-1,-2.786180019E0,-3.938316822E0,9.869936943E0
6.642305730E-1,-3.011225224E0,-4.074780464E0,9.168465614E0
6.666300520E-1,-3.619326591E0,-4.206456184E0,8.500512123E0
6.690287500E-1,-4.299250603E0,-4.314190388E0,8.191673279E0
6.714274480E-1,-4.859469414E0,-4.431501389E0,8.431083679E0
6.738269790E-1,-5.082120895E0,-4.510506630E0,8.895538330E0
6.762264580E-1,-5.271254539E0,-4.670911312E0,9.381541252E0
6.786251560E-1,-5.580093384E0,-4.848074913E0,9.743048668E0
6.810238540E-1,-6.216923714E0,-5.070725918E0,1.001358318E1
6.834233330E-1,-6.757989883E0,-5.317317486E0,1.009258747E1
6.858228640E-1,-7.203292370E0,-5.496875286E0,1.018116951E1
6.882215100E-1,-7.459461212E0,-5.611792088E0,1.029369164E1
6.906202080E-1,-7.581560135E0,-5.587851048E0,1.034396839E1
6.930197390E-1,-7.569589615E0,-5.563910007E0,1.031045055E1
6.954192710E-1,-7.483402252E0,-5.516028404E0,1.026496315E1
6.978179160E-1,-7.416367054E0,-5.501663208E0,1.019792747E1
7.002166140E-1,-7.402002811E0,-5.494481087E0,1.010695171E1
7.026161460E-1,-7.485795975E0,-5.463357925E0,9.934576988E0
7.050156250E-1,-7.600712776E0,-5.420264244E0,9.544339180E0
7.074143230E-1,-7.720417500E0,-5.305346966E0,9.058337212E0
7.098130210E-1,-7.873640060E0,-5.188036919E0,8.505299568E0
7.122125520E-1,-8.017286301E0,-5.051572800E0,7.890017033E0
7.146120310E-1,-8.170508385E0,-4.941444397E0,7.281916142E0
7.170107290E-1,-8.441040993E0,-4.953414917E0,6.704937935E0
7.194094270E-1,-8.807337761E0,-5.041996479E0,6.226118565E0
7.218089060E-1,-9.245457649E0,-5.216765881E0,5.792786598E0
7.242084370E-1,-9.623725891E0,-5.489692688E0,5.486341953E0
7.266070830E-1,-9.911018372E0,-5.829654694E0,5.316360950E0
7.290057810E-1,-1.013606262E1,-6.224681377E0,5.299602032E0
7.314053120E-1,-1.040659618E1,-6.634072304E0,5.388184071E0
7.338048430E-1,-1.066037083E1,-7.026704311E0,5.493524075E0
7.362034890E-1,-1.090696335E1,-7.416942120E0,5.720963478E0
7.386021870E-1,-1.111046124E1,-7.725780964E0,6.036984444E0
7.410017180E-1,-1.127804852E1,-8.034619331E0,6.372158527E0
7.434011980E-1,-1.138338947E1,-8.250088692E0,6.702543736E0
7.457998960E-1,-1.133550739E1,-8.391339302E0,6.970683098E0
7.481985930E-1,-1.119425488E1,-8.458374977E0,7.200516224E0
7.505981250E-1,-1.103863811E1,-8.501468658E0,7.356132984E0
7.529976040E-1,-1.086386871E1,-8.501468658E0,7.447108269E0
7.553963020E-1,-1.070107079E1,-8.477527618E0,7.408802986E0
7.577950000E-1,-1.049278450E1,-8.482316017E0,7.313038826E0
7.601944790E-1,-1.028689098E1,-8.446404457E0,7.217275620E0
7.625940100E-1,-9.997204781E0,-8.410492897E0,7.080811501E0
7.649926560E-1,-9.805678368E0,-8.297969818E0,6.850977898E0
7.673913540E-1,-9.640484810E0,-8.180659294E0,6.534956932E0
7.697908850E-1,-9.465716362E0,-8.065742493E0,6.161477566E0
7.721904160E-1,-9.334039688E0,-7.974767208E0,5.792786598E0
7.745890620E-1,-9.195181847E0,-7.881397724E0,5.531829357E0
7.769877600E-1,-9.135330200E0,-7.759298801E0,5.211020470E0
7.793872910E-1,-9.106600761E0,-7.627623081E0,4.830358982E0
7.817867710E-1,-9.116177559E0,-7.426518917E0,4.399420738E0
7.841854680E-1,-9.097023964E0,-7.213444233E0,4.002000809E0
7.865841660E-1,-9.077872276E0,-7.045857430E0,3.626127243E0
7.889836980E-1,-8.996472359E0,-6.918969631E0,3.329258919E0
7.913831770E-1,-9.010837555E0,-6.878270149E0,3.113790035E0
7.937818750E-1,-9.041959763E0,-6.914181709E0,2.800163031E0
7.961805730E-1,-9.058718681E0,-6.957275867E0,2.414713144E0
7.985801040E-1,-9.123358727E0,-7.031492710E0,1.852099895E0
8.009795830E-1,-9.216729164E0,-7.120074272E0,1.179358244E0
8.033782810E-1,-9.346011162E0,-7.170350075E0,3.438177705E-1
8.057769790E-1,-9.472898483E0,-7.220626354E0,-4.342643619E-1
8.081764580E-1,-9.614150047E0,-7.273296833E0,-1.035183191E0
8.105759890E-1,-9.753006935E0,-7.400183678E0,-1.327263236E0
8.129746350E-1,-9.920594215E0,-7.503129959E0,-1.439785838E0
8.153733330E-1,-1.012409306E1,-7.594105721E0,-1.461332798E0
8.177728640E-1,-1.027970886E1,-7.709022522E0,-1.648072481E0
8.201723430E-1,-1.041138554E1,-7.883791924E0,-1.533155680E0
8.225710410E-1,-1.053108978E1,-8.094471931E0,-1.540338039E0
8.249697390E-1,-1.066755295E1,-8.319517136E0,-1.652860641E0
8.273692710E-1,-1.080162334E1,-8.484709740E0,-2.043098688E0
8.297687500E-1,-1.086865711E1,-8.599626541E0,-2.591347218E0
8.321674480E-1,-1.095484543E1,-8.652297020E0,-3.113260746E0
8.345661460E-1,-1.097160435E1,-8.661873817E0,-3.706997395E0
8.369656250E-1,-1.096202755E1,-8.645114899E0,-4.355798244E0
8.393651560E-1,-1.107215595E1,-8.585261345E0,-4.542538166E0
8.417638540E-1,-1.104582119E1,-8.494286537E0,-4.872923374E0
8.441625520E-1,-1.100033283E1,-8.420069695E0,-5.399624825E0
8.465620310E-1,-1.099793911E1,-8.331487656E0,-5.562424183E0
8.489615620E-1,-1.084471607E1,-8.187841415E0,-5.648611546E0
8.513602080E-1,-1.076571083E1,-8.022648811E0,-5.457083702E0
8.537589060E-1,-1.043772030E1,-7.879003525E0,-5.986179352E0
8.561584370E-1,-1.033716774E1,-7.766480923E0,-6.158554554E0
8.585579160E-1,-1.020788574E1,-7.639593601E0,-6.333323479E0
8.609566140E-1,-1.007621098E1,-7.536647320E0,-7.027612686E0
8.633553120E-1,-9.987628937E0,-7.539041519E0,-7.350815773E0
8.657548430E-1,-9.954112053E0,-7.615652561E0,-7.676413059E0
8.681543230E-1,-1.006663418E1,-7.771269321E0,-7.209564209E0
8.705530210E-1,-1.018155098E1,-7.979555607E0,-6.711591244E0
8.729517180E-1,-1.032759094E1,-8.147142410E0,-6.309382439E0
8.753512500E-1,-1.040180779E1,-8.228541374E0,-6.115460396E0
8.777507290E-1,-1.038026142E1,-8.223752975E0,-5.967026711E0
8.801494270E-1,-1.023661518E1,-8.084896088E0,-5.868868351E0
8.825481250E-1,-1.011212254E1,-7.893368244E0,-5.588758945E0
8.849476040E-1,-9.839195251E0,-7.529465199E0,-5.430748463E0
8.873471350E-1,-9.551902771E0,-7.158379555E0,-6.350082397E0
8.897457810E-1,-9.319676399E0,-6.859117031E0,-7.082676411E0
8.921444790E-1,-9.118571281E0,-6.562249184E0,-7.262234211E0
8.945440100E-1,-8.960560799E0,-6.341992378E0,-7.226322651E0
8.969434890E-1,-8.900708199E0,-6.207922935E0,-7.295751572E0
8.993421870E-1,-8.970136642E0,-6.133705616E0,-7.235898972E0
9.017408850E-1,-8.797761917E0,-6.006818295E0,-7.666836739E0
9.041404160E-1,-8.730727196E0,-5.887113094E0,-8.052286148E0
9.065398960E-1,-8.680451393E0,-5.829654694E0,-8.092986107E0
9.089385930E-1,-8.661297798E0,-5.767408371E0,-8.145656586E0
9.113372910E-1,-8.663692474E0,-5.705161572E0,-8.121715546E0
9.137367710E-1,-8.711574554E0,-5.683614731E0,-8.052286148E0
9.161363020E-1,-8.819309235E0,-5.714738369E0,-8.004405022E0
9.185350000E-1,-8.929436684E0,-5.810502052E0,-7.903852463E0
9.209336980E-1,-9.025200844E0,-5.949359894E0,-7.836817741E0
9.233331770E-1,-9.125754356E0,-6.057094097E0,-7.793724060E0
9.257326560E-1,-9.185606003E0,-6.231863499E0,-7.750629902E0
9.281313540E-1,-9.319676399E0,-6.358750820E0,-7.762600422E0
9.305300520E-1,-9.413044930E0,-6.466485023E0,-7.753024101E0
9.329295830E-1,-9.530356407E0,-6.567037106E0,-7.786541462E0
9.353290620E-1,-9.602179527E0,-6.590978146E0,-7.750629902E0
9.377277600E-1,-9.642879486E0,-6.643648624E0,-7.781753540E0
9.401264580E-1,-9.669214249E0,-6.638860226E0,-7.937370300E0
9.425259890E-1,-9.685973167E0,-6.579007626E0,-8.095380783E0
9.449254680E-1,-9.729065895E0,-6.547884464E0,-8.322819710E0
9.473241660E-1,-9.779342651E0,-6.497608662E0,-8.528712273E0
9.497228640E-1,-9.779342651E0,-6.473667622E0,-8.746575356E0
9.521223960E-1,-9.738642693E0,-6.523943901E0,-9.558175087E0
9.545218750E-1,-9.733855247E0,-6.476061821E0,-9.907712936E0
9.569205730E-1,-9.808072090E0,-6.459302902E0,-9.426499367E0
9.593192710E-1,-9.858347893E0,-6.485638142E0,-9.091324806E0
9.617187500E-1,-9.985235214E0,-6.466485023E0,-8.784880638E0
9.641182810E-1,-1.009775829E1,-6.423391342E0,-8.557440758E0
9.665169270E-1,-1.011690998E1,-6.418603420E0,-8.593353271E0
9.689156250E-1,-1.012169933E1,-6.341992378E0,-8.713058472E0
9.713151560E-1,-1.008099937E1,-6.387480259E0,-8.612505913E0
9.737146350E-1,-1.016239834E1,-6.411420822E0,-8.466465950E0
9.761133330E-1,-1.027731514E1,-6.471273422E0,-8.241420746E0
9.785120310E-1,-1.035632038E1,-6.502396584E0,-8.174386024E0
9.809115620E-1,-1.043772030E1,-6.497608662E0,-8.042710304E0
9.833110410E-1,-1.046405506E1,-6.430573463E0,-7.920611382E0
9.857097390E-1,-1.049996567E1,-6.337203503E0,-7.767388821E0
9.881084370E-1,-1.056700134E1,-6.265380859E0,-7.286175251E0
9.905079680E-1,-1.074655819E1,-6.181587696E0,-5.689311028E0
9.929074480E-1,-1.072501183E1,-5.980483055E0,-5.011781216E0
9.953061460E-1,-1.074416447E1,-5.561515808E0,-4.669425011E0
9.977048430E-1,-1.077528763E1,-5.231130123E0,-4.734065533E0
1.000104323E0,-1.066994667E1,-5.051572800E0,-5.935903549E0
1.002503854E0,-1.062924767E1,-4.929473877E0,-6.304594517E0
1.004902500E0,-1.066515923E1,-4.766674995E0,-6.275865555E0
1.007301198E0,-1.073458767E1,-4.666123390E0,-5.978997231E0
1.009700729E0,-1.085429287E1,-4.639787674E0,-5.715646267E0
1.012100208E0,-1.108412647E1,-4.675699234E0,-4.975869656E0
1.014498906E0,-1.115355492E1,-4.606270790E0,-5.131485939E0
1.016897604E0,-1.121819592E1,-4.544023514E0,-4.954322815E0
1.019297135E0,-1.126607800E1,-4.472201347E0,-5.129092216E0
1.021696614E0,-1.142169380E1,-4.443471909E0,-4.671819210E0
1.024095312E0,-1.169941044E1,-4.465018749E0,-3.802761316E0
1.026494010E0,-1.187896729E1,-4.450654030E0,-2.952856302E0
1.028893489E0,-1.187178516E1,-4.330949306E0,-2.234626532E0
1.031293021E0,-1.202740097E1,-4.216032028E0,-1.535549760E0
1.033691718E0,-1.225962925E1,-4.127450466E0,-3.648354709E-1
1.036090416E0,-1.252776814E1,-3.969439983E0,1.354127288E0
1.038489896E0,-1.269774914E1,-3.835370541E0,2.666093349E0
1.040889427E0,-1.245115662E1,-3.550472736E0,2.041233778E0
1.043288073E0,-1.227159882E1,-3.150658131E0,1.196116805E0
1.045686771E0,-1.212555885E1,-2.758025885E0,5.281633735E-1
1.048086302E0,-1.202979469E1,-2.406093359E0,-1.134550944E-1
1.050485781E0,-1.190769577E1,-2.137954473E0,-3.385003805E-1
1.052884479E0,-1.163955688E1,-1.872209430E0,-2.283718288E-1
1.055283177E0,-1.124453068E1,-1.683075666E0,3.390295804E-1
1.057682708E0,-1.072501183E1,-1.503518224E0,1.169781804E0
1.060082187E0,-1.018155098E1,-1.314384460E0,1.828158975E0
1.062480885E0,-9.748219490E0,-1.072580457E0,2.644546747E0
1.064879583E0,-9.269398689E0,-7.589536309E-1,3.288559198E0
1.067279062E0,-8.757061958E0,-4.525089562E-1,3.820049286E0
1.069678593E0,-8.206419945E0,-2.157118544E-2,4.102552891E0
1.072077291E0,-7.531283855E0,5.003423691E-1,4.104947090E0
1.074475989E0,-6.853754044E0,9.935266972E-1,4.442514896E0
1.076875468E0,-6.192982674E0,1.268848062E0,4.595736980E0
1.079275000E0,-5.742892265E0,1.264059901E0,4.413785458E0
1.081673646E0,-5.496300220E0,1.034226418E0,3.978059769E0
1.084072343E0,-5.149155617E0,8.187574744E-1,3.571062803E0
1.086471875E0,-4.557813168E0,7.062348127E-1,3.451357841E0
1.088871354E0,-3.952106476E0,4.931600392E-1,3.408264160E0
1.091270052E0,-3.509198189E0,1.436216235E-1,3.257436037E0
1.093668750E0,-3.248241186E0,-3.447745144E-1,2.898321152E0
1.096068281E0,-3.183600664E0,-9.049936533E-1,2.412318945E0
1.098467760E0,-3.157265425E0,-1.539429665E0,1.777882814E0
1.100866458E0,-3.092624903E0,-2.106831312E0,1.162599444E0
1.103265156E0,-3.063895702E0,-2.635926962E0,5.401338935E-1
1.105664635E0,-3.027984142E0,-3.119534969E0,1.582623273E-2
1.108064166E0,-3.054319143E0,-3.567231417E0,-4.103233516E-1
1.110462812E0,-3.011225224E0,-3.902405262E0,-7.502853870E-1
1.112861510E0,-3.001649141E0,-4.254338264E0,-1.073488832E0
1.115261041E0,-2.994466782E0,-4.544023514E0,-1.482879639E0
1.117660521E0,-2.956161022E0,-4.809768677E0,-1.980852127E0
1.120059218E0,-2.946584940E0,-4.977355480E0,-2.500371456E0
1.122457916E0,-2.972919941E0,-5.109031200E0,-3.017497063E0
1.124857448E0,-2.905884981E0,-5.240706921E0,-3.563351631E0
1.127256927E0,-2.953767061E0,-5.326894283E0,-3.984712601E0
1.129655625E0,-2.913067341E0,-5.410687923E0,-4.384527683E0
1.132054323E0,-2.956161022E0,-5.487298489E0,-4.602390289E0
1.134453854E0,-2.925037861E0,-5.475327969E0,-4.772371769E0
1.136853333E0,-2.819697618E0,-5.489692688E0,-4.990233898E0
1.139252031E0,-2.764633417E0,-5.604609489E0,-5.133880138E0
1.141650729E0,-2.695204258E0,-5.729102612E0,-5.117121696E0
1.144050208E0,-2.716751337E0,-5.937389374E0,-5.117121696E0
1.146449739E0,-2.704780817E0,-6.095399857E0,-5.291890621E0
1.148848385E0,-2.659292936E0,-6.248622417E0,-5.390048504E0
1.151247083E0,-2.683233738E0,-6.392268181E0,-5.526512623E0
1.153646614E0,-2.762238979E0,-6.622101784E0,-5.574394703E0
1.156046093E0,-2.810121059E0,-6.899816990E0,-5.581576347E0
1.158444791E0,-2.898702860E0,-7.141621113E0,-5.627064705E0
1.160843489E0,-3.087836504E0,-7.285267353E0,-5.842533588E0
1.163243021E0,-3.255423546E0,-7.302025795E0,-5.943085670E0
1.165642500E0,-3.312881947E0,-7.258931637E0,-6.113066673E0
1.168041198E0,-3.317670107E0,-7.230202675E0,-6.340506077E0
1.170439896E0,-3.372734308E0,-7.203867912E0,-6.326141357E0
1.172839427E0,-3.475680590E0,-7.112891674E0,-6.414722919E0
1.175238906E0,-3.557079792E0,-7.038674831E0,-6.601462364E0
1.177637604E0,-3.602567911E0,-7.053039074E0,-6.740320683E0
1.180036302E0,-3.664814234E0,-7.129650593E0,-6.816931725E0
1.182435781E0,-3.885071754E0,-7.254143715E0,-6.857631683E0
1.184835312E0,-4.090964317E0,-7.266114235E0,-6.699621201E0
1.187233958E0,-4.325585365E0,-7.304419518E0,-6.541610241E0
1.189632656E0,-4.440502644E0,-7.402577877E0,-6.563157082E0
1.192032187E0,-3.827613115E0,-7.515100479E0,-6.330929756E0
1.194431666E0,-3.183600664E0,-7.946038246E0,-4.781947613E0
1.196830364E0,-5.185067177E0,-7.838303566E0,-5.662976265E0
1.199229062E0,-5.697403908E0,-7.397789478E0,-6.103489876E0
1.201628593E0,-4.186728001E0,-7.543829918E0,-5.045298576E0
1.204028073E0,-5.637551785E0,-7.400183678E0,-5.804227829E0
1.206426771E0,-6.315081596E0,-7.036280632E0,-6.448240757E0
1.208825468E0,-5.908084869E0,-6.909393787E0,-6.457817078E0
1.211225000E0,-4.833134651E0,-7.038674831E0,-5.976603031E0
1.213624479E0,-4.541054726E0,-7.313996315E0,-4.631119728E0
1.216023177E0,-5.357441902E0,-6.923758030E0,-5.045298576E0
1.218421875E0,-5.321530819E0,-6.641254425E0,-4.868134975E0
1.220821354E0,-5.132397175E0,-6.550278664E0,-4.712519169E0
1.223220885E0,-4.761311531E0,-6.598160744E0,-4.700548649E0
1.225619531E0,-3.966470718E0,-7.041068554E0,-3.594474792E0
1.228018229E0,-4.411773205E0,-6.883058071E0,-3.797973156E0
1.230417760E0,-4.421349525E0,-6.703501225E0,-3.532227993E0
1.232817239E0,-4.409379005E0,-6.483243465E0,-3.513075352E0
1.235215937E0,-4.397408485E0,-6.167222500E0,-3.529834032E0
1.237614635E0,-4.308826923E0,-5.858384132E0,-3.611233234E0
1.240014166E0,-4.251368523E0,-5.527998924E0,-3.680662394E0
1.242413646E0,-4.186728001E0,-5.245494843E0,-3.711785555E0
1.244812343E0,-4.062234402E0,-5.041996479E0,-3.553775072E0
1.247211041E0,-3.995200157E0,-4.872014999E0,-3.388582230E0
1.249610573E0,-3.920982838E0,-4.716399193E0,-3.271271229E0
1.252010052E0,-3.770154953E0,-4.596693993E0,-3.079743624E0
1.254408750E0,-3.612144232E0,-4.572753429E0,-2.857092381E0
1.256807448E0,-3.537927151E0,-4.632605553E0,-2.548253536E0
1.259206927E0,-3.437375069E0,-4.678093433E0,-2.229838610E0
1.261606458E0,-3.502015591E0,-4.678093433E0,-2.220262051E0
1.264005104E0,-3.705514193E0,-4.682881832E0,-2.529100895E0
1.266403802E0,-4.026323318E0,-4.848074913E0,-2.720628738E0
1.268803333E0,-4.222639561E0,-4.994114876E0,-2.871456861E0
1.271202812E0,-4.430926323E0,-5.307741165E0,-2.837939501E0
1.273601510E0,-4.435714245E0,-5.456175804E0,-2.737387419E0
1.276000208E0,-4.474019527E0,-5.626156807E0,-2.833151340E0
1.278399739E0,-4.483596325E0,-6.073853016E0,-2.897792101E0
1.280799218E0,-4.490778446E0,-6.406632900E0,-3.060590744E0
1.283197916E0,-4.509931087E0,-6.713077068E0,-3.189872026E0
1.285596614E0,-4.545842648E0,-6.892634869E0,-3.560957193E0
1.287996146E0,-4.481202126E0,-7.043463230E0,-3.905707598E0
1.290395625E0,-4.476414204E0,-7.258931637E0,-4.303128242E0
1.292794271E0,-4.421349525E0,-7.716204643E0,-4.554508686E0
1.295192968E0,-4.301644802E0,-8.087289810E0,-4.676607609E0
1.297592500E0,-4.150816441E0,-8.384158134E0,-4.573660851E0
1.299992031E0,-4.078993797E0,-8.551744461E0,-4.192999363E0
1.302390677E0,-4.062234402E0,-8.896494865E0,-4.080476761E0
1.304789375E0,-3.976047516E0,-9.174210548E0,-4.063717842E0
1.307188906E0,-4.088570118E0,-9.480654716E0,-3.936830997E0
1.309588385E0,-4.031111717E0,-9.619512558E0,-3.797973156E0
1.311987083E0,-3.751001835E0,-9.545295715E0,-3.795578957E0
1.314385781E0,-3.650449753E0,-9.605147362E0,-3.781214476E0
1.316785312E0,-3.449345589E0,-9.734429359E0,-3.618415833E0
1.319184791E0,-3.243453026E0,-9.913987160E0,-3.716573715E0
1.321583489E0,-3.039954662E0,-9.933139801E0,-3.762061596E0
1.323982187E0,-2.889126301E0,-9.961868286E0,-3.927254677E0
1.326381666E0,-2.446218014E0,-9.954687119E0,-4.401286125E0
1.328781198E0,-2.237931490E0,-1.019888496E1,-4.760401249E0
1.331179843E0,-2.530011654E0,-1.114694786E1,-5.026145458E0
1.333578541E0,-2.948978901E0,-1.200882339E1,-5.392443180E0
1.335978073E0,-3.243453026E0,-1.252594852E1,-5.715646267E0
1.338377552E0,-3.473286629E0,-1.284196949E1,-6.024485111E0
1.340776250E0,-3.719878674E0,-1.305983257E1,-5.995755672E0
1.343174948E0,-3.796489954E0,-1.313404942E1,-6.010120392E0
1.345574479E0,-3.832401276E0,-1.313404942E1,-6.220800877E0
1.347973958E0,-3.650449753E0,-1.303110409E1,-6.541610241E0
1.350372656E0,-3.490045071E0,-1.282999897E1,-6.096308231E0
1.352771354E0,-3.415827990E0,-1.251158333E1,-5.263161659E0
1.355170833E0,-3.106989384E0,-1.219795704E1,-5.593546867E0
1.357570364E0,-2.762238979E0,-1.196572971E1,-5.469054222E0
1.359969062E0,-2.510858774E0,-1.166646671E1,-4.190605640E0
1.362367760E0,-2.182867289E0,-1.121398258E1,-4.726883411E0
1.364767239E0,-1.869240165E0,-1.105118370E1,-5.445113182E0
1.367166771E0,-1.893181205E0,-1.053405857E1,-3.623203754E0
1.369565416E0,-2.321725130E0,-9.882863998E0,-3.285635948E0
1.371964114E0,-2.565922976E0,-1.006242085E1,-2.962432623E0
1.374363646E0,-2.874761820E0,-1.003608608E1,-2.416578054E0
1.376763125E0,-2.781391859E0,-1.018451977E1,-3.266483307E0
1.379161823E0,-2.929826021E0,-1.060109329E1,-3.027073383E0
1.381560521E0,-3.023195744E0,-1.089317417E1,-2.943279743E0
1.383960052E0,-3.001649141E0,-1.106554890E1,-3.096502304E0
1.386359531E0,-3.059107304E0,-1.122834682E1,-3.041437864E0
1.388758229E0,-3.217117786E0,-1.142945194E1,-2.758934259E0
1.391156927E0,-3.406251907E0,-1.154197407E1,-2.361513853E0
1.393556406E0,-3.408645868E0,-1.157549191E1,-2.289690733E0
1.395955937E0,-3.480468750E0,-1.170477295E1,-2.026340008E0
1.398354635E0,-3.552291870E0,-1.173828983E1,-1.564279079E0
1.400753333E0,-3.844371796E0,-1.157788563E1,-1.832418084E0
1.403152812E0,-3.937741756E0,-1.145578671E1,-1.851570845E0
1.405552343E0,-4.035899639E0,-1.147015095E1,-1.255440354E0
1.407950989E0,-4.203486443E0,-1.144620991E1,-1.083065152E0
1.410349687E0,-4.596118450E0,-1.144620991E1,-1.145311713E0
1.412749218E0,-4.754128933E0,-1.146536255E1,-1.205164194E0
1.415148698E0,-4.730187893E0,-1.145818043E1,-1.336839557E0
1.417547396E0,-4.548236370E0,-1.140311718E1,-1.485273719E0
1.419946093E0,-4.485990047E0,-1.125468254E1,-1.633707762E0
1.422345625E0,-4.371073723E0,-1.109188366E1,-1.578643560E0
1.424745104E0,-4.239398003E0,-1.075192165E1,-1.861147165E0
1.427143802E0,-4.196304321E0,-1.041435337E1,-1.906635046E0
1.429542500E0,-3.925771236E0,-1.010551453E1,-1.959305286E0
1.431941979E0,-3.810854435E0,-9.913987160E0,-2.143650770E0
1.434341510E0,-3.899435997E0,-9.818223000E0,-2.220262051E0
1.436740156E0,-4.186728001E0,-9.619512558E0,-2.548253536E0
1.439138854E0,-4.624847889E0,-9.377708435E0,-2.916944742E0
1.441538385E0,-4.828346729E0,-9.147875786E0,-2.919338703E0
1.443937864E0,-4.644000530E0,-8.882130623E0,-2.952856302E0
1.446336562E0,-4.406985283E0,-8.616385460E0,-2.991161823E0
1.448735260E0,-4.414166927E0,-8.331487656E0,-2.768510580E0
1.451134791E0,-4.509931087E0,-8.029830933E0,-2.610500097E0
1.453534271E0,-4.708641529E0,-7.833515644E0,-2.572194576E0
1.455932968E0,-4.881016731E0,-7.720993042E0,-2.335178852E0
1.458331666E0,-5.041420937E0,-7.630017281E0,-2.098163128E0
1.460731198E0,-5.273648739E0,-7.555799961E0,-1.700742722E0
1.463130677E0,-5.560940742E0,-7.481583118E0,-1.006453872E0
1.465529375E0,-5.896114826E0,-7.280478477E0,-1.365568757E0
1.467928073E0,-5.936814308E0,-7.014733791E0,-1.123764753E0
1.470327552E0,-6.087642193E0,-6.715471745E0,-8.699902892E-1
1.472727083E0,-6.370146275E0,-6.461697102E0,-5.156636834E-1
1.475125729E0,-6.956700325E0,-6.298898220E0,-2.355541289E-1
1.477524427E0,-7.452278614E0,-6.200740337E0,3.855742514E-3
1.479923958E0,-7.935886383E0,-6.071458817E0,-2.523128092E-1
1.482323437E0,-8.304577827E0,-5.970906734E0,-3.839882314E-1
1.484722135E0,-8.426676750E0,-5.978089333E0,2.061443403E-2
1.487120833E0,-8.567929268E0,-5.966118813E0,1.953836381E-1
1.489520364E0,-8.651721954E0,-5.961330414E0,2.552361190E-1
1.491919843E0,-8.505681992E0,-5.911054134E0,3.845174313E-1
1.494318541E0,-8.314153671E0,-5.889507294E0,7.651791573E-1
1.496717239E0,-8.251908302E0,-5.853595734E0,1.160205364E0
1.499116718E0,-8.309366226E0,-5.822472572E0,1.299063087E0
1.501516250E0,-8.438647270E0,-5.805714130E0,1.318215966E0
1.503914896E0,-8.443434715E0,-5.765014172E0,1.361309648E0
1.506313593E0,-8.357248306E0,-5.985270977E0,2.565541506E0
1.508713125E0,-9.015625000E0,-5.860778332E0,1.155417204E0
1.511112656E0,-8.891132355E0,-5.848807812E0,5.928040147E-1
1.513511302E0,-8.218390465E0,-5.788955212E0,1.379252672E-1
1.515910000E0,-7.555224895E0,-5.736285210E0,2.504478991E-1
1.518309531E0,-7.212868690E0,-5.618974209E0,1.331370771E-1
1.520709010E0,-6.951911926E0,-5.448993206E0,-1.900662482E-1
1.523107708E0,-6.576038361E0,-5.233524323E0,-1.326078773E-1
1.525506406E0,-6.219317436E0,-4.970173836E0,4.694951698E-2
1.527905937E0,-6.063701153E0,-4.704428673E0,1.259547770E-1
1.530305416E0,-5.831473827E0,-4.462624550E0,2.624184191E-1
1.532704114E0,-5.548970222E0,-4.309401989E0,6.670211554E-1
1.535102812E0,-5.371806622E0,-4.266308784E0,1.052470922E0
1.537502291E0,-5.170702457E0,-4.330949306E0,1.449891329E0
1.539901823E0,-5.036633015E0,-4.498536110E0,1.686907053E0
1.542300468E0,-4.897775173E0,-4.673305035E0,1.804217935E0
1.544699166E0,-4.864258289E0,-4.857650757E0,1.895193696E0
1.547098698E0,-4.773282051E0,-4.943838120E0,1.840129495E0
1.549498177E0,-4.732582569E0,-5.049178600E0,1.660572052E0
1.551896875E0,-4.521901608E0,-5.183248043E0,1.454679608E0
1.554295573E0,-4.289674282E0,-5.288588524E0,1.311033607E0
1.556695104E0,-4.160392761E0,-5.401111126E0,1.153023124E0
1.559094583E0,-4.057446480E0,-5.575880527E0,9.471306205E-1
1.561493281E0,-3.968864918E0,-5.772196770E0,7.795437574E-1
1.563891979E0,-4.062234402E0,-5.927813053E0,6.670211554E-1
1.566291458E0,-4.081387520E0,-6.126523018E0,4.730991125E-1
1.568690989E0,-3.976047516E0,-6.301292419E0,3.821233511E-1
1.571089635E0,-3.947318077E0,-6.459302902E0,3.174826801E-1
1.573488333E0,-3.832401276E0,-6.540702343E0,1.020137891E-1
1.575887864E0,-3.693543673E0,-6.579007626E0,3.019082546E-2
1.578287343E0,-3.516380310E0,-6.619707584E0,3.976722062E-2
1.580686041E0,-3.363157749E0,-6.643648624E0,2.001718283E-1
1.583084739E0,-3.257817507E0,-6.780112267E0,3.653646708E-1
1.585484271E0,-3.166841745E0,-6.930940151E0,7.340558767E-1
1.587883750E0,-3.121354103E0,-7.239778996E0,1.507349730E0
1.590282448E0,-3.097413063E0,-7.613258839E0,2.010110617E0
1.592681146E0,-3.051925182E0,-8.037014008E0,2.737916470E0
1.595080677E0,-2.858003139E0,-8.309940338E0,2.615817547E0
1.597480156E0,-2.855609179E0,-8.515833855E0,2.639758348E0
1.599878854E0,-2.570711374E0,-8.542168617E0,2.105874538E0
1.602277552E0,-2.427065372E0,-8.592444420E0,1.648601532E0
1.604677031E0,-2.103862047E0,-8.372187614E0,7.149030566E-1
1.607076562E0,-2.249902010E0,-8.424858093E0,7.986965179E-1
1.609475208E0,-2.118226528E0,-8.621173859E0,-6.569154859E-1
1.611873906E0,-1.854875684E0,-8.733696938E0,-1.772565603E0
1.614273437E0,-1.567583680E0,-8.922829628E0,-1.815659285E0
1.616672916E0,-1.323385715E0,-9.200545311E0,-1.676801682E0
1.619071614E0,-8.876596689E-1,-9.401649475E0,-1.944940567E0
1.621470312E0,-5.069980621E-1,-9.662607193E0,-2.165197849E0
1.623869843E0,-1.119717658E-1,-9.918774605E0,-2.126892328E0
1.626269323E0,5.128879547E-1,-1.028507233E1,-2.459671736E0
1.628668021E0,9.677667618E-1,-1.065855217E1,-2.646411657E0
1.631066718E0,1.472921610E0,-1.108709526E1,-2.636835337E0
1.633466198E0,1.748242974E0,-1.165928459E1,-3.630386353E0
1.635865729E0,1.781760454E0,-1.219556236E1,-4.863347054E0
1.638264375E0,2.016381979E0,-1.272465897E1,-6.184889317E0
1.640663073E0,2.306067944E0,-1.299040413E1,-7.013247490E0
1.643062604E0,2.509566069E0,-1.327051353E1,-7.568678379E0
1.645462135E0,2.602936268E0,-1.354822826E1,-8.253391266E0
1.647860781E0,2.626877069E0,-1.373257446E1,-8.763334274E0
1.650259479E0,2.904592752E0,-1.401747131E1,-9.414528847E0
1.652659010E0,3.088938236E0,-1.427124691E1,-1.002981186E1
1.655058489E0,3.132031918E0,-1.442207432E1,-1.050384426E1
1.657457187E0,3.108090878E0,-1.456093311E1,-1.087971687E1
1.659855885E0,3.045844316E0,-1.450826263E1,-1.109757996E1
1.662255416E0,3.067391157E0,-1.443643951E1,-1.090126419E1
1.664654896E0,2.971627474E0,-1.430715752E1,-1.073846531E1
1.667053593E0,2.883045673E0,-1.412999439E1,-1.017585182E1
1.669452291E0,2.634059429E0,-1.371581554E1,-9.510293007E0
1.671851771E0,2.617300749E0,-1.352668190E1,-8.686722755E0
1.674251302E0,2.447319746E0,-1.315320301E1,-7.793724060E0
1.676649948E0,2.241427183E0,-1.266720104E1,-6.982124329E0
1.679048646E0,2.104963541E0,-1.191784763E1,-6.091519356E0
1.681448177E0,1.542350531E0,-1.043829441E1,-5.311043739E0
1.683847656E0,9.294612408E-1,-9.890046120E0,-4.374950886E0
1.686246354E0,8.121503592E-1,-9.329826355E0,-3.465193272E0
1.688645052E0,5.894991159E-1,-8.511044502E0,-2.627258778E0
1.691044583E0,3.644538820E-1,-7.867033005E0,-1.880300045E0
1.693444062E0,1.202558130E-1,-7.189503193E0,-1.130947232E0
1.695842760E0,2.688595653E-2,-6.502396584E0,-2.930124998E-1
1.698241458E0,-1.381371915E-2,-5.934995174E0,8.393961787E-1
1.700640937E0,-4.493699968E-2,-5.525604248E0,2.132209539E0
1.703040468E0,-3.296649456E-2,-5.111425400E0,3.099425554E0
1.705439166E0,4.843284935E-2,-4.749916077E0,3.803290367E0
1.707837864E0,9.392073005E-2,-4.445865631E0,4.265351295E0
1.710237343E0,1.370145082E-1,-4.146603584E0,4.595736980E0
1.712636823E0,2.136256695E-1,-3.895222902E0,4.787264824E0
1.715035521E0,2.878427505E-1,-3.691724539E0,4.844723225E0
1.717434218E0,2.495371401E-1,-3.533714056E0,4.619678020E0
1.719833750E0,3.117837310E-1,-3.229663372E0,4.277321815E0
1.722233229E0,3.357247114E-1,-2.944765806E0,4.025941849E0
1.724631927E0,3.141778111E-1,-2.655079603E0,3.685979366E0
1.727030625E0,3.333306015E-1,-2.477916479E0,3.192795277E0
1.729430156E0,2.639017403E-1,-2.358211517E0,2.620605707E0
1.731829635E0,1.944728792E-1,-2.238506556E0,1.943075657E0
1.734228333E0,1.418026984E-1,-2.090072393E0,1.330186486E0
1.736627031E0,1.274381131E-1,-1.927273750E0,9.231896996E-1
1.739026510E0,1.154676154E-1,-1.752504587E0,5.377397537E-1
1.741426041E0,5.082695186E-2,-1.637587786E0,3.055121899E-1
1.743824687E0,-1.694301367E-1,-1.575341225E0,2.145364285E-1
1.746223385E0,-2.843468785E-1,-1.539429665E0,1.451075673E-1
1.748622916E0,-3.681403697E-1,-1.599282265E0,1.139842793E-1
1.751022396E0,-3.657462299E-1,-1.678287506E0,-2.726753801E-2
1.753421093E0,-4.112341106E-1,-1.635193706E0,-2.487344295E-2
1.755819791E0,-5.764269829E-1,-1.604070425E0,1.582623273E-2
1.758219323E0,-7.248610258E-1,-1.721381187E0,5.173771828E-2
1.760618802E0,-8.541423082E-1,-1.927273750E0,-6.557313353E-2
1.763017500E0,-9.786354303E-1,-2.202595234E0,-4.941167831E-1
1.765416198E0,-1.067217112E0,-2.655079603E0,-1.248257875E0
1.767815677E0,-1.373661757E0,-2.995041609E0,-1.913817406E0
1.770215208E0,-1.761505723E0,-3.476255655E0,-2.349543333E0
1.772613854E0,-1.943457246E0,-3.842552662E0,-2.758934259E0
1.775012552E0,-2.029644728E0,-4.041263103E0,-3.132413626E0
1.777412083E0,-2.199625731E0,-4.242367744E0,-3.443646669E0
1.779811562E0,-2.319330931E0,-4.469806671E0,-3.752485275E0
1.782210260E0,-2.372001171E0,-4.833709717E0,-4.094841480E0
1.784608958E0,-2.271448851E0,-4.994114876E0,-4.269610405E0
1.787008489E0,-2.187655687E0,-4.869621277E0,-4.094841480E0
1.789407968E0,-2.123014927E0,-4.625423431E0,-3.781214476E0
1.791806666E0,-2.084709406E0,-4.558388710E0,-3.565745592E0
1.794205364E0,-2.185261250E0,-4.603876114E0,-3.584898233E0
1.796604896E0,-2.216384649E0,-4.757098675E0,-3.637568474E0
1.799004375E0,-2.209202290E0,-4.931867599E0,-3.726150036E0
1.801403073E0,-2.149349928E0,-5.027631760E0,-3.881766558E0
1.803801771E0,-2.010492086E0,-5.257465363E0,-4.116387844E0
1.806201250E0,-1.859663844E0,-5.626156807E0,-4.336645603E0
1.808600781E0,-1.818964124E0,-6.057094097E0,-4.461138725E0
1.810999427E0,-1.912334085E0,-6.507184505E0,-4.717307091E0
1.813398125E0,-2.278631449E0,-6.839964867E0,-5.033328056E0
1.815797656E0,-2.903491020E0,-6.559854984E0,-5.308649540E0
1.818197135E0,-3.087836504E0,-5.353229046E0,-5.150639057E0
1.820595833E0,-2.151744127E0,-3.981410503E0,-4.669425011E0
1.822994531E0,-1.186922073E0,-3.624689817E0,-4.090053082E0
1.825394062E0,-1.074399471E0,-3.933528423E0,-3.996683121E0
1.827793541E0,-1.258745074E0,-4.407560349E0,-3.807549477E0
1.830192239E0,-1.349720836E0,-4.809768677E0,-4.097235680E0
1.832590937E0,-1.361691236E0,-5.207189083E0,-4.176240444E0
1.834990416E0,-1.498154998E0,-5.951754093E0,-4.389315605E0
1.837389948E0,-1.608283520E0,-6.765747547E0,-4.628725529E0
1.839788593E0,-1.852481484E0,-7.486371040E0,-5.016569614E0
1.842187291E0,-2.082315207E0,-8.041801453E0,-5.567212105E0
1.844586823E0,-2.278631449E0,-8.848612785E0,-5.567212105E0
1.846986302E0,-2.429459333E0,-9.485444069E0,-5.710857868E0
1.849385000E0,-2.553952694E0,-9.909198761E0,-5.849715710E0
1.851783698E0,-2.620987415E0,-1.100330162E1,-5.993361473E0
1.854183229E0,-2.642534256E0,-1.229372025E1,-6.311777115E0
1.856582708E0,-3.056713343E0,-1.392410278E1,-6.376417637E0
1.858981406E0,-3.528350830E0,-1.628707695E1,-7.290963173E0
1.861380104E0,-3.494833231E0,-1.831488037E1,-7.518402576E0
1.863779635E0,-3.518774271E0,-1.921027184E1,-7.575860977E0
1.866179114E0,-2.383971691E0,-1.852077103E1,-6.781020164E0
1.868577812E0,-3.489875197E-1,-2.128834915E1,-6.182495594E0
1.870976510E0,-5.907914639E-1,-2.476218796E1,-5.696493626E0
1.873375989E0,-8.828715086E-1,-2.696475792E1,-4.643090248E0
1.875775521E0,-1.026517510E0,-2.870526695E1,-4.437197685E0
1.878174166E0,-7.081023455E-1,-3.007947922E1,-4.674212933E0
1.880572864E0,-2.388589978E-1,-3.150875854E1,-4.604784489E0
1.882972396E0,2.543253303E-1,-3.307210541E1,-4.590420246E0
1.885371875E0,7.259627581E-1,-3.450856400E1,-4.669425011E0
1.887770573E0,1.013254642E0,-3.537283707E1,-4.738853931E0
1.890169271E0,8.456677198E-1,-3.580138016E1,-4.717307091E0
1.892568802E0,-5.451339483E-2,-3.573913193E1,-4.609572411E0
1.894968281E0,-1.155798793E0,-3.499217224E1,-4.564084530E0
1.897366979E0,-1.931486726E0,-3.367302322E1,-4.705336571E0
1.899765677E0,-2.455794573E0,-3.189420700E1,-4.717307091E0
1.902165156E0,-2.939402580E0,-2.973233604E1,-5.014174938E0
1.904564687E0,-3.473286629E0,-2.762553024E1,-5.145850658E0
1.906963333E0,-4.014352798E0,-2.642369080E1,-4.913622856E0
1.909362031E0,-4.294462681E0,-2.522664261E1,-5.176973820E0
1.911761562E0,-4.447684765E0,-2.408705139E1,-5.909567833E0
1.914161041E0,-4.383044243E0,-2.306716537E1,-5.990967751E0
1.916559739E0,-4.342344284E0,-2.196348572E1,-5.636641026E0
1.918958437E0,-4.234610081E0,-2.078558922E1,-5.394836903E0
1.921357968E0,-4.172363281E0,-1.960290337E1,-5.169791698E0
1.923757448E0,-4.071811199E0,-1.845134354E1,-4.942352772E0
1.926156146E0,-3.937741756E0,-1.731653976E1,-4.729277611E0
1.928554843E0,-3.827613115E0,-1.630623055E1,-4.470715046E0
1.930954323E0,-3.693543673E0,-1.531267929E1,-4.228910923E0
1.933353854E0,-3.554685831E0,-1.445319748E1,-4.034988880E0
1.935752500E0,-3.346399307E0,-1.366314602E1,-3.879372597E0
1.938151198E0,-3.109383583E0,-1.287309265E1,-3.742908716E0
1.940550729E0,-2.886732340E0,-1.212613392E1,-3.587292671E0
1.942950260E0,-2.688022137E0,-1.143423939E1,-3.455616951E0
1.945348906E0,-2.503676653E0,-1.078543854E1,-3.307182789E0
1.947747604E0,-2.381577492E0,-1.019409657E1,-3.149172306E0
1.950147135E0,-2.197231770E0,-9.638666153E0,-3.036649704E0
1.952546614E0,-2.029644728E0,-9.047322273E0,-2.825968981E0
1.954945312E0,-1.866846204E0,-8.482316017E0,-2.672746897E0
1.957344010E0,-1.660953641E0,-7.962796688E0,-2.445307255E0
1.959743541E0,-1.526884079E0,-7.421730518E0,-2.234626532E0
1.962143021E0,-1.340144396E0,-6.883058071E0,-1.894664645E0
1.964541718E0,-1.105522752E0,-6.277351379E0,-1.432603598E0
1.966940416E0,-8.421719074E-1,-5.571092129E0,-6.808564663E-1
1.969339896E0,-4.662983716E-1,-4.673305035E0,9.399483800E-1
1.971739427E0,-6.169569492E-2,-3.708483219E0,2.685246229E0
1.974138073E0,3.453010917E-1,-2.784361124E0,3.855960608E0
1.976536771E0,6.421693563E-1,-2.035008192E0,4.564613819E0
1.978936302E0,8.576382399E-1,-1.484365463E0,4.894999504E0
1.981335781E0,9.845254421E-1,-1.125250697E0,5.033856869E0
1.983734479E0,1.006072402E0,-1.043851376E0,4.990763664E0
1.986133177E0,1.058742523E0,-1.039063096E0,5.086527348E0
1.988532708E0,1.061136603E0,-1.041457176E0,5.091315269E0
1.990932187E0,1.123383164E0,-1.288049340E0,4.736989021E0
1.993330885E0,1.274211407E0,-1.786021948E0,4.011577129E0
1.995729583E0,1.324487567E0,-2.633533001E0,2.836074352E0
1.998129062E0,1.413069129E0,-3.090805769E0,7.340558767E-1
2.000528593E0,1.516015410E0,-2.492280960E0,-1.810871124E0
2.002927239E0,1.322093368E0,-2.011067152E0,-4.118782520E0
2.005325937E0,1.001284122E0,-2.264841795E0,-5.500177383E0
2.007725468E0,6.948394775E-1,-2.894489765E0,-6.591886520E0
2.010124948E0,3.883948922E-1,-3.631871939E0,-7.489673615E0
2.012523646E0,1.970365644E-2,-4.290249825E0,-8.023557663E0
2.014922343E0,-4.591160715E-1,-4.965384960E0,-8.262967110E0
2.017321875E0,-8.780833483E-1,-5.724314690E0,-8.260573387E0
2.019721354E0,-1.218045354E0,-6.538308144E0,-8.081015587E0
2.022120052E0,-1.340144396E0,-7.246961117E0,-7.633319378E0
2.024518750E0,-1.392814636E0,-7.847880363E0,-6.826508045E0
2.026918281E0,-1.479002118E0,-8.372187614E0,-5.818592548E0
2.029317760E0,-1.526884079E0,-8.846219063E0,-4.750824451E0
2.031716458E0,-1.538854599E0,-9.224486351E0,-3.716573715E0
2.034115156E0,-1.538854599E0,-9.518960953E0,-2.749357700E0
2.036514635E0,-1.546036839E0,-9.715276718E0,-1.918605566E0
2.038914166E0,-1.507731318E0,-9.846951485E0,-1.231499314E0
2.041312812E0,-1.486184478E0,-9.897229195E0,-7.191620469E-1
2.043711510E0,-1.452666998E0,-9.885257721E0,-4.151115119E-1
2.046111041E0,-1.373661757E0,-9.758370399E0,-3.193475902E-1
2.048510521E0,-1.313809395E0,-9.593177795E0,-3.672295511E-1
2.050909218E0,-1.258745074E0,-9.384890556E0,-5.539692640E-1
2.053307916E0,-1.172557473E0,-9.188574791E0,-8.077437282E-1
2.055707448E0,-1.112704992E0,-8.987470627E0,-1.147705793E0
2.058106927E0,-1.050458431E0,-8.870160103E0,-1.494850159E0
2.060505625E0,-1.033699751E0,-8.728907585E0,-1.889876485E0
2.062904323E0,-1.045670271E0,-8.621173859E0,-2.308843851E0
2.065303802E0,-1.060034871E0,-8.570898056E0,-2.658381939E0
2.067703333E0,-1.086369991E0,-8.525409698E0,-3.005526543E0
2.070101979E0,-1.198892593E0,-8.491892815E0,-3.352670908E0
2.072500677E0,-1.256350994E0,-8.489498138E0,-3.639962435E0
2.074900208E0,-1.371267676E0,-8.532591820E0,-3.934436798E0
2.077299687E0,-1.428726077E0,-8.525409698E0,-4.200181484E0
2.079698385E0,-1.505337238E0,-8.511044502E0,-4.439591408E0
2.082097083E0,-1.574766040E0,-8.511044502E0,-4.578449726E0
2.084496614E0,-1.668136001E0,-8.508650780E0,-4.774765491E0
2.086896093E0,-1.701653361E0,-8.479921341E0,-4.846588612E0
2.089294791E0,-1.787840843E0,-8.427251816E0,-4.925593376E0
2.091693489E0,-1.806993604E0,-8.408099174E0,-4.975869656E0
2.094093021E0,-1.864452004E0,-8.343458176E0,-4.980658054E0
2.096492500E0,-1.926698565E0,-8.285999298E0,-4.966293335E0
2.098891198E0,-1.998521447E0,-8.226147652E0,-4.980658054E0
2.101289896E0,-2.044009686E0,-8.154324532E0,-4.908834934E0
2.103689375E0,-2.120620489E0,-8.094471931E0,-4.901652336E0
2.106088906E0,-2.230749369E0,-8.039407730E0,-4.848982334E0
2.108487552E0,-2.319330931E0,-7.991526127E0,-4.801100731E0
2.110886250E0,-2.379183292E0,-7.919703007E0,-4.760401249E0
2.113285781E0,-2.484523535E0,-7.883791924E0,-4.731671333E0
2.115685260E0,-2.599440336E0,-7.840697765E0,-4.695760250E0
2.118083958E0,-2.664081097E0,-7.740145683E0,-4.700548649E0
2.120482656E0,-2.759845018E0,-7.661140919E0,-4.652666569E0
2.122882187E0,-2.838850260E0,-7.560588360E0,-4.623937130E0
2.125281666E0,-2.917855501E0,-7.488765240E0,-4.580843449E0
2.127680364E0,-2.972919941E0,-7.393001080E0,-4.571267128E0
2.130079062E0,-3.004043102E0,-7.309208393E0,-4.513808727E0
2.132478541E0,-3.044742823E0,-7.227808475E0,-4.475502968E0
2.134878073E0,-3.068683863E0,-7.155985832E0,-4.418044567E0
2.137276718E0,-3.097413063E0,-7.067404270E0,-4.351009846E0
2.139675416E0,-3.145295143E0,-6.983610630E0,-4.288763523E0
2.142074948E0,-3.133324623E0,-6.930940151E0,-4.262428284E0
2.144474427E0,-3.157265425E0,-6.878270149E0,-4.231305122E0
2.146873125E0,-3.169235945E0,-6.768141747E0,-4.157088280E0
2.149271823E0,-3.183600664E0,-6.737018108E0,-4.164269924E0
2.151671354E0,-3.197965145E0,-6.679560184E0,-4.113994122E0
2.154070833E0,-3.183600664E0,-6.617313385E0,-4.109206200E0
2.156469531E0,-3.195571184E0,-6.569431782E0,-4.061324120E0
2.158868229E0,-3.171630144E0,-6.531125546E0,-4.006259918E0
2.161267708E0,-3.205147266E0,-6.514367104E0,-4.011047840E0
2.163667239E0,-3.257817507E0,-6.543096066E0,-3.984712601E0
2.166065885E0,-3.269788027E0,-6.519155025E0,-3.951195717E0
2.168464583E0,-3.312881947E0,-6.509579182E0,-3.955983639E0
2.170864114E0,-3.320064068E0,-6.495213985E0,-3.927254677E0
2.173263593E0,-3.358369827E0,-6.535914421E0,-3.910495758E0
2.175662291E0,-3.372734308E0,-6.602948666E0,-3.891343117E0
2.178060989E0,-3.394281387E0,-6.672377586E0,-3.898525238E0
2.180460521E0,-3.403857708E0,-6.725047588E0,-3.893737078E0
2.182860000E0,-3.387098789E0,-6.777718067E0,-3.922466278E0
2.185258698E0,-3.360763788E0,-6.808841228E0,-3.953589439E0
2.187657396E0,-3.336822748E0,-6.890240669E0,-3.984712601E0
2.190056927E0,-3.284152508E0,-6.947699070E0,-3.987106800E0
2.192456406E0,-3.262605906E0,-7.031492710E0,-4.046959400E0
2.194855104E0,-3.197965145E0,-7.093739033E0,-4.102023602E0
2.197253802E0,-3.150083065E0,-7.196685314E0,-4.159482002E0
2.199653281E0,-3.071077824E0,-7.282872677E0,-4.202576160E0
2.202052812E0,-2.987284422E0,-7.369060040E0,-4.274398327E0
2.204451458E0,-2.937008381E0,-7.486371040E0,-4.341433525E0
2.206850156E0,-2.867579699E0,-7.591711521E0,-4.449168205E0
2.209249687E0,-2.812515259E0,-7.673110962E0,-4.532961369E0
2.211649166E0,-2.743086338E0,-7.792815685E0,-4.614360332E0
2.214047864E0,-2.697598696E0,-7.886185646E0,-4.676607609E0
2.216446562E0,-2.671263456E0,-7.986737728E0,-4.753218651E0
2.218846093E0,-2.654504776E0,-8.056166649E0,-4.798706532E0
2.221245573E0,-2.613805056E0,-8.151929855E0,-4.817859173E0
2.223644271E0,-2.604228497E0,-8.238118172E0,-4.851376534E0
2.226042968E0,-2.575499296E0,-8.302759171E0,-4.875317574E0
2.228442448E0,-2.582681894E0,-8.369792938E0,-4.875317574E0
2.230841979E0,-2.577893496E0,-8.439221382E0,-4.872923374E0
2.233240625E0,-2.582681894E0,-8.499074936E0,-4.872923374E0
2.235639323E0,-2.613805056E0,-8.558926582E0,-4.851376534E0
2.238038854E0,-2.611410856E0,-8.616385460E0,-4.839406013E0
2.240438333E0,-2.618593454E0,-8.690602303E0,-4.786736012E0
2.242837031E0,-2.618593454E0,-8.764820099E0,-4.746036053E0
2.245235729E0,-2.649716616E0,-8.829460144E0,-4.674212933E0
2.247635260E0,-2.671263456E0,-8.934801102E0,-4.597601891E0
2.250034739E0,-2.652110577E0,-9.047322273E0,-4.494656086E0
2.252433437E0,-2.656898737E0,-9.186181068E0,-4.408468246E0
2.254832135E0,-2.664081097E0,-9.351373672E0,-4.274398327E0
2.257231666E0,-2.695204258E0,-9.514172554E0,-4.159482002E0
2.259631146E0,-2.738298178E0,-9.705700874E0,-4.003865719E0
2.262029843E0,-2.838850260E0,-9.959474564E0,-3.886554718E0
2.264428541E0,-2.963343382E0,-1.028267765E1,-3.781214476E0
2.266828021E0,-3.159659624E0,-1.063700485E1,-3.769243956E0
2.269227552E0,-3.480468750E0,-1.101048374E1,-3.716573715E0
2.271626198E0,-3.825219154E0,-1.141987514E1,-3.769243956E0
2.274024896E0,-4.251368523E0,-1.184602451E1,-3.845854998E0
2.276424427E0,-4.749341011E0,-1.230569172E1,-3.960772038E0
2.278823906E0,-5.220978737E0,-1.278451157E1,-4.075688362E0
2.281222604E0,-5.637551785E0,-1.322263145E1,-4.176240444E0
2.283621302E0,-6.066095829E0,-1.373018074E1,-4.207364082E0
2.286020833E0,-6.485062599E0,-1.425927544E1,-4.123570442E0
2.288420312E0,-6.853754044E0,-1.473330784E1,-4.097235680E0
2.290819010E0,-7.133863449E0,-1.517382145E1,-4.018230438E0
2.293217708E0,-7.423549652E0,-1.559278870E1,-3.905707598E0
2.295617239E0,-7.653383255E0,-1.592078114E1,-3.793184757E0
2.298016718E0,-7.830545902E0,-1.614103699E1,-3.699815035E0
2.300415364E0,-7.955039978E0,-1.623201370E1,-3.647144794E0
2.302814062E0,-7.988556862E0,-1.617216110E1,-3.680662394E0
2.305213593E0,-7.787452698E0,-1.589205170E1,-3.723756075E0
2.307613073E0,-7.253568649E0,-1.535816765E1,-3.805155277E0
2.310011771E0,-6.492245197E0,-1.461360264E1,-3.869796038E0
2.312410468E0,-5.568122864E0,-1.379003239E1,-3.912889719E0
2.314810000E0,-4.682306767E0,-1.293773365E1,-3.996683121E0
2.317209479E0,-3.832401276E0,-1.217162132E1,-4.039777279E0
2.319608177E0,-3.051925182E0,-1.138875198E1,-4.020624161E0
2.322006875E0,-2.403124332E0,-1.072319317E1,-3.893737078E0
2.324406406E0,-1.847693324E0,-1.018212605E1,-3.709391594E0
2.326805885E0,-1.378449917E0,-9.722458839E0,-3.508286953E0
2.329204583E0,-9.379358292E-1,-9.358555794E0,-3.240148067E0
2.331603281E0,-5.692446232E-1,-9.092810631E0,-2.940885782E0
2.334002760E0,-2.364649177E-1,-8.908465385E0,-2.608106136E0
2.336402291E0,1.058912203E-1,-8.728907585E0,-2.349543333E0
2.338800937E0,4.482473433E-1,-8.549350739E0,-2.050281048E0
2.341199635E0,7.666624784E-1,-8.391339302E0,-1.794112444E0
2.343599166E0,1.010860562E0,-8.238118172E0,-1.561884880E0
2.345998646E0,1.312517047E0,-8.094471931E0,-1.341627836E0
2.348397343E0,1.609385252E0,-7.948431969E0,-1.188405395E0
2.350796041E0,1.848795176E0,-7.847880363E0,-1.085459352E0
2.353195573E0,2.066658020E0,-7.718598843E0,-1.054335952E0
2.355595052E0,2.243821383E0,-7.689869881E0,-1.152494073E0
2.357993750E0,2.401831865E0,-7.668322563E0,-1.265016675E0
2.360392448E0,2.531113148E0,-7.692263603E0,-1.408662558E0
2.362791927E0,2.622088909E0,-7.740145683E0,-1.602584600E0
2.365191458E0,2.634059429E0,-7.900550365E0,-1.786930203E0
2.367590156E0,2.586177349E0,-8.092077255E0,-2.000005007E0
2.369988854E0,2.547871828E0,-8.338669777E0,-2.177168369E0
2.372388333E0,2.435349226E0,-8.647508621E0,-2.361513853E0
2.374787812E0,2.310856104E0,-8.958742142E0,-2.524312496E0
2.377186510E0,2.145663261E0,-9.308279991E0,-2.691899538E0
2.379585208E0,2.004411459E0,-9.665000916E0,-2.849910021E0
2.381984739E0,1.858371496E0,-1.000017452E1,-2.969614983E0
2.384384218E0,1.743454814E0,-1.033774281E1,-3.043832064E0
2.386782916E0,1.599808931E0,-1.071122169E1,-3.139595985E0
2.389181614E0,1.542350531E0,-1.106076050E1,-3.230571747E0
2.391581146E0,1.513621330E0,-1.142226887E1,-3.288030148E0
2.393980625E0,1.537562251E0,-1.174547291E1,-3.297606468E0
2.396379323E0,1.539956450E0,-1.202797604E1,-3.321547508E0
2.398778021E0,1.508833170E0,-1.234878540E1,-3.369429588E0
2.401177500E0,1.539956450E0,-1.265522957E1,-3.453222752E0
2.403577031E0,1.549532771E0,-1.293773365E1,-3.467587471E0
2.405975677E0,1.537562251E0,-1.316517258E1,-3.548986912E0
2.408374375E0,1.501650810E0,-1.337824726E1,-3.556169033E0
2.410773906E0,1.487286329E0,-1.353865242E1,-3.556169033E0
2.413173385E0,1.530380011E0,-1.366793346E1,-3.529834032E0
2.415572083E0,1.571079612E0,-1.372778702E1,-3.527440071E0
2.417970781E0,1.602203012E0,-1.377806282E1,-3.443646669E0
2.420370312E0,1.640508533E0,-1.376609135E1,-3.328729868E0
2.422769791E0,1.748242974E0,-1.368948078E1,-3.237754107E0
2.425168489E0,1.808095455E0,-1.358653450E1,-3.103684664E0
2.427567187E0,1.887100816E0,-1.337585354E1,-3.005526543E0
2.429966666E0,1.956529498E0,-1.309574413E1,-2.955250263E0
2.432366198E0,2.040323019E0,-1.276535892E1,-2.837939501E0
2.434764843E0,2.109751940E0,-1.238469696E1,-2.761328220E0
2.437163541E0,2.150451422E0,-1.203037071E1,-2.689505339E0
2.439563073E0,2.160027981E0,-1.166886139E1,-2.617682457E0
2.441962552E0,2.126510620E0,-1.132171631E1,-2.519524336E0
2.444361250E0,2.078628540E0,-1.099372578E1,-2.466854334E0
2.446759948E0,2.006805658E0,-1.068009853E1,-2.409395695E0
2.449159479E0,1.908647656E0,-1.039041233E1,-2.330390453E0
2.451558958E0,1.832036376E0,-1.008875561E1,-2.237020731E0
2.453957656E0,1.774577975E0,-9.818223000E0,-2.172379971E0
2.456356354E0,1.714725614E0,-9.585995674E0,-2.083798409E0
2.458755885E0,1.623749852E0,-9.344191551E0,-2.033522367E0
2.461155364E0,1.525591731E0,-9.092810631E0,-1.983246326E0
2.463554062E0,1.463345289E0,-8.877341270E0,-1.920999765E0
2.465952760E0,1.379551768E0,-8.678631783E0,-1.894664645E0
2.468352239E0,1.319699287E0,-8.484709740E0,-1.834812164E0
2.470751771E0,1.228723526E0,-8.324305534E0,-1.803688884E0
2.473150416E0,1.156900644E0,-8.185447693E0,-1.758200884E0
2.475549114E0,1.104230404E0,-8.010678291E0,-1.712713003E0
2.477948646E0,1.039589763E0,-7.821545124E0,-1.729471803E0
2.480348125E0,1.001284122E0,-7.680293083E0,-1.669619322E0
2.482746823E0,1.025225163E0,-7.527070999E0,-1.667225122E0
2.485145521E0,1.020436883E0,-7.428912640E0,-1.595402360E0
2.487545052E0,1.082683444E0,-7.352301598E0,-1.576249480E0
2.489944531E0,1.077895284E0,-7.290055275E0,-1.499638319E0
2.492343229E0,1.087471724E0,-7.270902157E0,-1.423027158E0
2.494741927E0,1.101836324E0,-7.256537914E0,-1.317686796E0
2.497141458E0,1.188023925E0,-7.246961117E0,-1.248257875E0
2.499540937E0,1.259846926E0,-7.290055275E0,-1.164464593E0
2.501939635E0,1.348428488E0,-7.330754757E0,-1.099823833E0
2.504338333E0,1.468133450E0,-7.414548397E0,-1.037577271E0
2.506737812E0,1.520803690E0,-7.522282600E0,-9.801188111E-1
2.509137291E0,1.652479053E0,-7.663534641E0,-9.729364514E-1
2.511535989E0,1.697966933E0,-7.835909843E0,-9.298427701E-1
2.513934687E0,1.762607574E0,-8.037014008E0,-9.705424905E-1
2.516334218E0,1.817671895E0,-8.226147652E0,-1.011242151E0
2.518733698E0,1.867947936E0,-8.432039261E0,-1.068700552E0
2.521132396E0,1.918223977E0,-8.654690742E0,-1.152494073E0
2.523531093E0,1.961317778E0,-8.862977982E0,-1.267410755E0
2.525930625E0,2.004411459E0,-9.061687469E0,-1.370357037E0
2.528330104E0,2.073840380E0,-9.269974709E0,-1.475697279E0
2.530728802E0,2.104963541E0,-9.444744110E0,-1.636101961E0
2.533127500E0,2.176786423E0,-9.619512558E0,-1.813265324E0
2.535526979E0,2.191151142E0,-9.753582954E0,-2.002398968E0
2.537926510E0,2.207909822E0,-9.851740837E0,-2.186744452E0
2.540325156E0,2.253397703E0,-9.957080841E0,-2.368695974E0
2.542723854E0,2.320432425E0,-9.990597725E0,-2.581771135E0
2.545123385E0,2.356343985E0,-9.985809326E0,-2.823575020E0
2.547522864E0,2.380285025E0,-9.981021881E0,-3.022284985E0
2.549921562E0,2.409014225E0,-9.957080841E0,-3.283241749E0
2.552320260E0,2.428166866E0,-9.904410362E0,-3.541804552E0
2.554719791E0,2.452107906E0,-9.839769363E0,-3.807549477E0
2.557119271E0,2.507172108E0,-9.775128365E0,-4.013442039E0
2.559517968E0,2.526324987E0,-9.715276718E0,-4.255246162E0
2.561916666E0,2.540689707E0,-9.650635719E0,-4.511414528E0
2.564316198E0,2.571812868E0,-9.521354675E0,-4.746036053E0
2.566715677E0,2.562236309E0,-9.447137833E0,-4.925593376E0
2.569114375E0,2.583783388E0,-9.303491592E0,-5.129092216E0
2.571513073E0,2.641241550E0,-9.169422150E0,-5.334984779E0
2.573912552E0,2.732217312E0,-9.023382187E0,-5.528906345E0
2.576312083E0,2.794463873E0,-8.889312744E0,-5.859292030E0
2.578710729E0,2.842345953E0,-8.700179100E0,-6.194466114E0
2.581109427E0,2.892622232E0,-8.506257057E0,-6.414722919E0
2.583508958E0,2.914168835E0,-8.355428696E0,-6.529639721E0
2.585908437E0,2.866286993E0,-8.269241333E0,-6.644556522E0
2.588307135E0,2.801646471E0,-8.183053970E0,-6.759472847E0
2.590705833E0,2.705882311E0,-8.082501411E0,-6.831295967E0
2.593105364E0,2.681941509E0,-8.027437210E0,-6.927060127E0
2.595504843E0,2.612512350E0,-7.998708248E0,-7.008459568E0
2.597903541E0,2.600541830E0,-7.912520885E0,-7.101829529E0
2.600302239E0,2.535901308E0,-7.845486164E0,-7.192805290E0
2.602701718E0,2.480837107E0,-7.802392006E0,-7.183228493E0
2.605101250E0,2.382679224E0,-7.776057243E0,-7.231110573E0
2.607499948E0,2.303673744E0,-7.744933605E0,-7.223928452E0
2.609898646E0,2.212697983E0,-7.730569363E0,-7.223928452E0
2.612298125E0,2.126510620E0,-7.732963085E0,-7.228716373E0
2.614697656E0,2.037928820E0,-7.737751484E0,-7.197593689E0
2.617096302E0,1.946953177E0,-7.754510403E0,-7.152105331E0
2.619495000E0,1.877524257E0,-7.744933605E0,-7.113800049E0
2.621894531E0,1.721907854E0,-7.776057243E0,-7.056341648E0
2.624294010E0,1.602203012E0,-7.833515644E0,-6.962971687E0
2.626692708E0,1.465739250E0,-7.855062485E0,-6.898331165E0
2.629091406E0,1.312517047E0,-7.912520885E0,-6.850449085E0
2.631490937E0,1.111412644E0,-7.955614567E0,-6.752291203E0
2.633890416E0,9.749490023E-1,-7.993919849E0,-6.532033920E0
2.636289114E0,8.241208792E-1,-8.051378250E0,-6.249529839E0
2.638687812E0,7.355391979E-1,-8.092077255E0,-6.077155113E0
2.641087291E0,6.158342361E-1,-8.125595093E0,-5.911962509E0
2.643486823E0,5.248584747E-1,-8.175870895E0,-5.792257786E0
2.645885468E0,3.836066723E-1,-8.247694016E0,-5.622276783E0
2.648284166E0,2.998132110E-1,-8.319517136E0,-5.423565865E0
2.650683698E0,1.992610693E-1,-8.441616058E0,-5.272737980E0
2.653083177E0,9.870892763E-2,-8.539774895E0,-5.069239616E0
2.655481875E0,-3.775469959E-2,-8.621173859E0,-4.904046535E0
2.657880573E0,-1.407009363E-1,-8.757637978E0,-4.705336571E0
2.660280104E0,-2.675881982E-1,-8.882130623E0,-4.487473488E0
2.662679583E0,-3.370170295E-1,-8.987470627E0,-4.300734043E0
2.665078281E0,-3.777167499E-1,-9.088023186E0,-4.080476761E0
2.667476979E0,-4.567219913E-1,-9.238850594E0,-3.790790796E0
2.669876510E0,-5.453035831E-1,-9.404044151E0,-3.510681391E0
2.672275989E0,-6.817672253E-1,-9.597966194E0,-2.964826822E0
2.674674687E0,-1.009758711E0,-9.866105080E0,-1.308110476E0
2.677073385E0,-1.993733525E0,-1.049814701E1,4.262957573E0
2.679472864E0,-3.121354103E0,-1.117567635E1,9.472516060E0
2.681872396E0,-4.143634319E0,-1.190587711E1,1.485684395E1
2.684271041E0,-4.739764690E0,-1.245412540E1,1.720545578E1
2.686669739E0,-4.878622532E0,-1.286112309E1,1.709053802E1
2.689069271E0,-4.761311531E0,-1.316517258E1,1.601319504E1
2.691468750E0,-4.373467445E0,-1.327051353E1,1.407876205E1
2.693867448E0,-3.827613115E0,-1.318911362E1,1.164875221E1
2.696266146E0,-3.250635386E0,-1.299040413E1,9.082278252E0
2.698665677E0,-2.625775576E0,-1.272226429E1,6.613962650E0
2.701065156E0,-2.024856806E0,-1.231048012E1,4.092976570E0
2.703463854E0,-1.517307758E0,-1.189869499E1,1.686907053E0
2.705862552E0,-1.172557473E0,-1.148212147E1,-1.852780581E-1
2.708262031E0,-9.163889885E-1,-1.108948994E1,-1.621737361E0
2.710661562E0,-7.009201050E-1,-1.069685650E1,-2.857092381E0
2.713060260E0,-5.931856632E-1,-1.035689449E1,-3.896131039E0
2.715458958E0,-5.716387033E-1,-1.007199764E1,-4.741248131E0
2.717858437E0,-5.046039820E-1,-9.789493561E0,-5.445113182E0
2.720257968E0,-4.136281908E-1,-9.523748398E0,-6.026878834E0
2.722656614E0,-3.561698496E-1,-9.327432632E0,-6.407540321E0
2.725055312E0,-2.699822783E-1,-9.188574791E0,-6.646950722E0
2.727454843E0,-1.622478366E-1,-9.044928551E0,-6.694832325E0
2.729854323E0,-1.095776856E-1,-8.965923309E0,-6.577521324E0
2.732253021E0,-9.760718048E-2,-8.896494865E0,-6.302200317E0
2.734651718E0,-9.760718048E-2,-8.872553825E0,-5.940691471E0
2.737051250E0,-1.694301367E-1,-8.862977982E0,-5.478630543E0
2.739450729E0,-1.837947071E-1,-8.827065468E0,-4.968687534E0
2.741849427E0,-2.221003175E-1,-8.795942307E0,-4.489867687E0
2.744248125E0,-2.388589978E-1,-8.762425423E0,-4.056535721E0
2.746647604E0,-2.843468785E-1,-8.750454903E0,-3.666297913E0
2.749047135E0,-2.484354079E-1,-8.707360268E0,-3.374217510E0
2.751445833E0,-2.101298273E-1,-8.690602303E0,-3.127625465E0
2.753844531E0,-1.311245561E-1,-8.731301308E0,-2.854698420E0
2.756244010E0,-1.143658757E-1,-8.783972740E0,-2.708658218E0
2.758643541E0,-1.843214035E-3,-8.836642265E0,-2.608106136E0
2.761042187E0,1.346203983E-1,-8.898888588E0,-2.581771135E0
2.763440885E0,2.662958503E-1,-9.001835823E0,-2.557830095E0
2.765840416E0,4.075476825E-1,-9.119145393E0,-2.648805857E0
2.768239896E0,5.871050358E-1,-9.236456871E0,-2.706264019E0
2.770638593E0,7.115981579E-1,-9.394467354E0,-2.773298740E0
2.773037291E0,9.246729612E-1,-9.530930519E0,-2.811604500E0
2.775436823E0,1.053954363E0,-9.705700874E0,-2.861880541E0
2.777836302E0,1.173659325E0,-9.868498802E0,-2.928915262E0
2.780235000E0,1.290970206E0,-1.005045033E1,-2.926521301E0
2.782633698E0,1.408280969E0,-1.017973137E1,-2.991161823E0
2.785033177E0,1.480103850E0,-1.034253025E1,-3.000738382E0
2.787432708E0,1.602203012E0,-1.044787025E1,-2.969614983E0
2.789831354E0,1.748242974E0,-1.051011753E1,-2.914550781E0
2.792230052E0,1.858371496E0,-1.057236385E1,-2.790057659E0
2.794629583E0,1.937376738E0,-1.062742901E1,-2.624864817E0
2.797029062E0,2.025958300E0,-1.061545753E1,-2.426154613E0
2.799427760E0,2.095387220E0,-1.064658070E1,-2.186744452E0
2.801826458E0,2.095387220E0,-1.066812801E1,-1.964093447E0
2.804225989E0,2.203121662E0,-1.058912277E1,-1.717501283E0
2.806625468E0,2.248609304E0,-1.050772381E1,-1.430209398E0
2.809024166E0,2.246215343E0,-1.041674805E1,-1.284169436E0
2.811422864E0,2.246215343E0,-1.032577133E1,-1.214740515E0
2.813822396E0,2.239033222E0,-1.022282600E1,-1.193193674E0
2.816221875E0,2.179180622E0,-1.018930912E1,-1.183617353E0
2.818620573E0,2.195939302E0,-1.009115028E1,-1.226711035E0
2.821019271E0,2.131298780E0,-9.997780800E0,-1.324869156E0
2.823418750E0,2.045111179E0,-9.861316681E0,-1.442179918E0
2.825818281E0,2.025958300E0,-9.729641914E0,-1.612160921E0
2.828216927E0,1.982864618E0,-9.629088402E0,-1.794112444E0
2.830615625E0,1.920618176E0,-9.585995674E0,-1.973670006E0
2.833015156E0,1.934982657E0,-9.468685150E0,-2.160409451E0
2.835414635E0,1.848795176E0,-9.380103111E0,-2.395031214E0
2.837813333E0,1.791336775E0,-9.308279991E0,-2.581771135E0
2.840212031E0,1.757819414E0,-9.219698906E0,-2.828362942E0
2.842611562E0,1.666843653E0,-9.167027473E0,-3.031861544E0
2.845011041E0,1.712331533E0,-9.032958984E0,-3.244936228E0
2.847409739E0,1.769789934E0,-8.898888588E0,-3.465193272E0
2.849808437E0,1.757819414E0,-8.874947548E0,-3.616021633E0
2.852207916E0,1.693178773E0,-8.798336983E0,-3.774032116E0
2.854607448E0,1.750637054E0,-8.714543343E0,-3.955983639E0
2.857006146E0,1.702755213E0,-8.654690742E0,-4.099629402E0
2.859404843E0,1.640508533E0,-8.649902344E0,-4.293551445E0
2.861804323E0,1.690784693E0,-8.597232819E0,-4.561690331E0
2.864203854E0,1.676419973E0,-8.563715935E0,-4.722095013E0
2.866602500E0,1.674025893E0,-8.520621300E0,-4.925593376E0
2.869001198E0,1.578261971E0,-8.515833855E0,-5.131485939E0
2.871400729E0,1.475315809E0,-8.530198097E0,-5.294284821E0
2.873800208E0,1.508833170E0,-8.432039261E0,-5.495388985E0
2.876198906E0,1.487286329E0,-8.305152893E0,-5.631852627E0
2.878597604E0,1.401098609E0,-8.269241333E0,-5.801833630E0
2.880997135E0,1.336458087E0,-8.221359253E0,-5.914356709E0
2.883396614E0,1.271817327E0,-8.180659294E0,-6.012514591E0
2.885795312E0,1.106624484E0,-8.161506653E0,-6.101096153E0
2.888194010E0,8.935496807E-1,-8.116018295E0,-6.175312996E0
2.890593489E0,7.020218372E-1,-8.070530891E0,-6.223195076E0
2.892993021E0,5.176762342E-1,-8.025043488E0,-6.137007713E0
2.895391718E0,2.830545306E-1,-7.953220844E0,-6.026878834E0
2.897790416E0,-1.381371915E-2,-7.926885128E0,-5.849715710E0
2.900189896E0,-2.628000081E-1,-7.852668285E0,-5.658187866E0
2.902589375E0,-4.926334321E-1,-7.790421486E0,-5.397231102E0
2.904988073E0,-6.937377453E-1,-7.689869881E0,-5.124303818E0
2.907386771E0,-8.972361088E-1,-7.622834682E0,-4.892076015E0
2.909786302E0,-1.079187632E0,-7.522282600E0,-4.743641853E0
2.912185781E0,-1.210863113E0,-7.414548397E0,-4.628725529E0
2.914584479E0,-1.292262435E0,-7.290055275E0,-4.592813969E0
2.916983177E0,-1.352114797E0,-7.206261635E0,-4.592813969E0
2.919382708E0,-1.383238196E0,-7.134438515E0,-4.640696049E0
2.921782187E0,-1.366479516E0,-7.100921154E0,-4.750824451E0
2.924180885E0,-1.306626916E0,-7.038674831E0,-4.810677052E0
2.926579583E0,-1.210863113E0,-7.029098034E0,-4.971081734E0
2.928979062E0,-1.086369991E0,-7.103315830E0,-5.129092216E0
2.931378593E0,-8.661128283E-1,-7.117680073E0,-5.275132179E0
2.933777239E0,-6.075501442E-1,-7.184714794E0,-5.354137421E0
2.936175937E0,-3.418052495E-1,-7.273296833E0,-5.464265823E0
2.938575468E0,-1.311245561E-1,-7.373848915E0,-5.531300545E0
2.940974948E0,1.226499081E-1,-7.522282600E0,-5.531300545E0
2.943373646E0,2.926309109E-1,-7.656352043E0,-5.562424183E0
2.945772343E0,4.458532631E-1,-7.819151402E0,-5.533694744E0
2.948171875E0,6.014696360E-1,-7.972373009E0,-5.512147903E0
2.950571354E0,7.403273582E-1,-8.089683533E0,-5.435536385E0
2.952970052E0,8.576382399E-1,-8.235723495E0,-5.373290062E0
2.955368750E0,9.653726816E-1,-8.396128654E0,-5.349349022E0
2.957768281E0,1.051560283E0,-8.491892815E0,-5.284708500E0
2.960167760E0,1.111412644E0,-8.609202385E0,-5.217673779E0
2.962566458E0,1.164082885E0,-8.745666504E0,-5.165003777E0
2.964965156E0,1.223935366E0,-8.836642265E0,-5.085998058E0
2.967364635E0,1.276605487E0,-8.953953743E0,-5.071633339E0
2.969764166E0,1.317305326E0,-9.040141106E0,-5.050086498E0
2.972162812E0,1.343640327E0,-9.162240028E0,-5.074027538E0
2.974561510E0,1.355610728E0,-9.320250511E0,-5.119515419E0
2.976961041E0,1.374763489E0,-9.432772636E0,-5.155426979E0
2.979360521E0,1.434615970E0,-9.581206322E0,-5.236826420E0
2.981759218E0,1.453768849E0,-9.720065117E0,-5.323014259E0
2.984157916E0,1.484892130E0,-9.846951485E0,-5.382866383E0
2.986557448E0,1.470527530E0,-9.985809326E0,-5.423565865E0
2.988956927E0,1.499256730E0,-1.009354496E1,-5.449901104E0
2.991355625E0,1.487286329E0,-1.018691349E1,-5.478630543E0
2.993754323E0,1.453768849E0,-1.034971237E1,-5.485812664E0
2.996153854E0,1.432221889E0,-1.049814701E1,-5.481024742E0
2.998553333E0,1.331669807E0,-1.062503433E1,-5.454689503E0
3.000952031E0,1.247876406E0,-1.071361542E1,-5.430748463E0
3.003350729E0,1.154506564E0,-1.081895638E1,-5.406807423E0
3.005750208E0,1.065924764E0,-1.089077854E1,-5.334984779E0
3.008149739E0,9.438258410E-1,-1.098893738E1,-5.346954823E0
3.010548385E0,8.145444393E-1,-1.107033634E1,-5.306255341E0
3.012947083E0,6.852631569E-1,-1.114215946E1,-5.287102699E0
3.015346614E0,5.799227953E-1,-1.120919514E1,-5.251191139E0
3.017746093E0,4.506414235E-1,-1.123074150E1,-5.205703259E0
3.020144791E0,3.117837310E-1,-1.119482994E1,-5.102756977E0
3.022543489E0,2.088374645E-1,-1.117567635E1,-4.942352772E0
3.024943021E0,7.716203481E-2,-1.110385418E1,-4.784342289E0
3.027342500E0,-6.887798011E-2,-1.101527309E1,-4.540143490E0
3.029741198E0,-1.885829270E-1,-1.089317417E1,-4.310309887E0
3.032139896E0,-3.418052495E-1,-1.074713326E1,-4.068506241E0
3.034539375E0,-5.189685822E-1,-1.059151649E1,-3.829096317E0
3.036938906E0,-6.745849848E-1,-1.043111229E1,-3.613627672E0
3.039337552E0,-8.445659876E-1,-1.029464912E1,-3.386188030E0
3.041736250E0,-1.004970551E0,-1.014860916E1,-3.201842546E0
3.044135781E0,-1.177345753E0,-1.000975037E1,-3.024679422E0
3.046535312E0,-1.371267676E0,-9.904410362E0,-2.876245022E0
3.048933958E0,-1.512519479E0,-9.801465034E0,-2.790057659E0
3.051332656E0,-1.632224441E0,-9.741611481E0,-2.725416899E0
3.053732187E0,-1.811781883E0,-9.676970482E0,-2.670352459E0
3.056131666E0,-1.933880925E0,-9.595571518E0,-2.639229298E0
3.058530364E0,-2.041615248E0,-9.583601952E0,-2.610500097E0
3.060929062E0,-2.139773607E0,-9.593177795E0,-2.600923777E0
3.063328593E0,-2.218778849E0,-9.581206322E0,-2.622470617E0
3.065728073E0,-2.266660929E0,-9.631484032E0,-2.677534819E0
3.068126771E0,-2.326513052E0,-9.681759834E0,-2.689505339E0
3.070525468E0,-2.345666170E0,-9.765552521E0,-2.718234539E0
3.072924948E0,-2.290601492E0,-9.832588196E0,-2.758934259E0
3.075324479E0,-2.249902010E0,-9.937927246E0,-2.768510580E0
3.077723177E0,-2.142167568E0,-1.001453876E1,-2.787663460E0
3.080121875E0,-1.957821965E0,-1.012227345E1,-2.792451620E0
3.082521354E0,-1.778264523E0,-1.023479557E1,-2.802027941E0
3.084920885E0,-1.514913559E0,-1.035929012E1,-2.811604500E0
3.087319531E0,-1.313809395E0,-1.049814701E1,-2.792451620E0
3.089718229E0,-1.105522752E0,-1.059391117E1,-2.711052418E0
3.092117760E0,-9.307534695E-1,-1.073037434E1,-2.617682457E0
3.094517239E0,-6.985259056E-1,-1.081895638E1,-2.486006975E0
3.096915937E0,-5.357272625E-1,-1.098414898E1,-2.404607534E0
3.099314635E0,-3.322288394E-1,-1.111343098E1,-2.359119892E0
3.101714166E0,-9.521308541E-2,-1.127383518E1,-2.316025972E0
3.104113646E0,1.226499081E-1,-1.151324463E1,-2.270538092E0
3.106512343E0,4.602178335E-1,-1.174786663E1,-2.282508612E0
3.108911041E0,8.265149593E-1,-1.202079391E1,-2.239414692E0
3.111310521E0,1.262240887E0,-1.227935696E1,-2.186744452E0
3.113710052E0,1.662055373E0,-1.260974216E1,-2.095768690E0
3.116108750E0,1.978076577E0,-1.284436417E1,-1.925787926E0
3.118507448E0,2.236639023E0,-1.300476837E1,-1.782141924E0
3.120906927E0,2.492807627E0,-1.311968517E1,-1.672013402E0
3.123306458E0,2.583783388E0,-1.327769566E1,-1.537943959E0
3.125705104E0,2.571812868E0,-1.339979458E1,-1.382327437E0
3.128103802E0,2.526324987E0,-1.350513458E1,-1.195587754E0
3.130503333E0,2.495201588E0,-1.355780602E1,-1.080671072E0
3.132902812E0,2.514354467E0,-1.355780602E1,-9.537836909E-1
3.135301510E0,2.514354467E0,-1.354583454E1,-8.532316089E-1
3.137700208E0,2.516748667E0,-1.356019974E1,-7.646499276E-1
3.140099739E0,2.533507109E0,-1.351471138E1,-6.688860059E-1
3.142499218E0,2.555054188E0,-1.345007038E1,-6.449449658E-1
3.144897916E0,2.516748667E0,-1.331360626E1,-6.784623861E-1
3.147296614E0,2.502383947E0,-1.315799046E1,-7.000092864E-1
3.149696093E0,2.466472387E0,-1.298322201E1,-8.029555678E-1
3.152095625E0,2.418590307E0,-1.274620533E1,-8.699902892E-1
3.154494271E0,2.368314505E0,-1.241821384E1,-1.030394912E0
3.156892968E0,2.332402945E0,-1.209261703E1,-1.205164194E0
3.159292500E0,2.251003742E0,-1.178138351E1,-1.377539277E0
3.161691979E0,2.229456663E0,-1.148212147E1,-1.523579359E0
3.164090677E0,2.219880342E0,-1.113258266E1,-1.616949201E0
3.166489375E0,2.167210102E0,-1.078304482E1,-1.717501283E0
3.168888906E0,2.219880342E0,-1.047420597E1,-1.717501283E0
3.171288385E0,2.224668503E0,-1.019170284E1,-1.683983922E0
3.173687083E0,2.212697983E0,-9.961868286E0,-1.638496041E0
3.176085781E0,2.207909822E0,-9.760765076E0,-1.518791080E0
3.178485312E0,2.198333502E0,-9.597966194E0,-1.372750998E0
3.180884791E0,2.210304022E0,-9.451925278E0,-1.145311713E0
3.183283489E0,2.224668503E0,-9.332221031E0,-9.082958698E-1
3.185682187E0,2.171998501E0,-9.250822067E0,-7.000092864E-1
3.188081666E0,2.078628540E0,-9.236456871E0,-4.749640226E-1
3.190481198E0,1.992441058E0,-9.238850594E0,-2.140072584E-1
3.192879843E0,1.906253576E0,-9.322645187E0,-1.529704779E-2
3.195278541E0,1.812883615E0,-9.480654716E0,1.115901843E-1
3.197678073E0,1.678814173E0,-9.693729401E0,2.121423483E-1
3.200077552E0,1.559109211E0,-9.890046120E0,2.815712094E-1
3.202476250E0,1.465739250E0,-1.017254925E1,2.600243092E-1
3.204874948E0,1.322093368E0,-1.045744801E1,1.882013381E-1
3.207274479E0,1.216753006E0,-1.075192165E1,6.610231102E-2
3.209673958E0,1.104230404E0,-1.099133205E1,-4.881443828E-2
3.212072656E0,9.988900423E-1,-1.120919514E1,-2.978006899E-1
3.214471354E0,8.432736397E-1,-1.139353943E1,-5.228459835E-1
3.216870833E0,7.115981579E-1,-1.153000355E1,-7.718322277E-1
3.219270364E0,4.913411140E-1,-1.164731503E1,-1.016030431E0
3.221669062E0,3.141778111E-1,-1.173110771E1,-1.205164194E0
3.224067760E0,1.394086033E-1,-1.175504875E1,-1.430209398E0
3.226467239E0,-6.648388505E-2,-1.169759083E1,-1.698348522E0
3.228866771E0,-2.915291488E-1,-1.165928459E1,-1.868329525E0
3.231265416E0,-4.351751506E-1,-1.149409199E1,-1.827629805E0
3.233664114E0,-4.878452718E-1,-1.129777527E1,-1.786930203E0
3.236063646E0,-5.261508226E-1,-1.102006054E1,-1.782141924E0
3.238463125E0,-6.434617043E-1,-1.079501534E1,-1.772565603E0
3.240861823E0,-8.709009886E-1,-1.061545753E1,-1.755806923E0
3.243260521E0,-1.033699751E0,-1.044787025E1,-1.700742722E0
3.245660052E0,-1.172557473E0,-1.023479557E1,-1.590614080E0
3.248059531E0,-1.364085317E0,-9.990597725E0,-1.569067121E0
3.250458229E0,-1.601101041E0,-9.787099838E0,-1.626525521E0
3.252856927E0,-1.845299244E0,-9.617118835E0,-1.767777443E0
3.255256458E0,-1.936274886E0,-9.423196793E0,-1.901846886E0
3.257655937E0,-2.036827326E0,-9.322645187E0,-2.067039728E0
3.260054635E0,-2.041615248E0,-9.243639946E0,-2.186744452E0
3.262453333E0,-2.003309727E0,-9.176604271E0,-2.253779650E0
3.264852812E0,-1.967398286E0,-9.123934746E0,-2.222656012E0
3.267252343E0,-1.936274886E0,-9.114357948E0,-2.117315769E0
3.269650989E0,-1.981763005E0,-9.150269508E0,-2.162803650E0
3.272049687E0,-1.974580407E0,-9.226881027E0,-2.349543333E0
3.274449218E0,-1.979368806E0,-9.305885315E0,-2.687111378E0
3.276848698E0,-1.893181205E0,-9.399255753E0,-3.139595985E0
3.279247396E0,-1.893181205E0,-9.135904312E0,-3.108472824E0
3.281646093E0,-1.924304366E0,-8.872553825E0,-2.938491583E0
3.284045625E0,-1.965004325E0,-8.678631783E0,-2.806816339E0
3.286445104E0,-1.998521447E0,-8.542168617E0,-2.687111378E0
3.288843802E0,-1.988945127E0,-8.482316017E0,-2.497977495E0
3.291242500E0,-1.957821965E0,-8.353034973E0,-2.359119892E0
3.293641979E0,-1.897969365E0,-8.197418213E0,-2.179562330E0
3.296041510E0,-1.818964124E0,-8.056166649E0,-1.980852127E0
3.298440208E0,-1.713623881E0,-7.922097206E0,-1.683983922E0
3.300838906E0,-1.598707080E0,-7.893368244E0,-1.317686796E0
3.303238385E0,-1.543642879E0,-7.902944565E0,-1.039971352E0
3.305637916E0,-1.476607919E0,-7.910126686E0,-8.125319481E-1
3.308036562E0,-1.416755557E0,-7.931673527E0,-7.047975063E-1
3.310435260E0,-1.304232955E0,-7.960402489E0,-6.257922649E-1
3.312834791E0,-1.165375233E0,-8.015466690E0,-6.281862855E-1
3.315234271E0,-1.100734472E0,-8.118412971E0,-6.401568055E-1
3.317632968E0,-1.026517510E0,-8.202206612E0,-6.521273255E-1
3.320031666E0,-9.068124294E-1,-8.274028778E0,-7.335267067E-1
3.322431198E0,-7.535902262E-1,-8.403310776E0,-7.981672883E-1
3.324830677E0,-5.740327835E-1,-8.525409698E0,-9.370250106E-1
3.327229375E0,-3.825049102E-1,-8.678631783E0,-1.107006192E0
3.329628073E0,-2.101298273E-1,-8.812702179E0,-1.296139956E0
3.332027552E0,-7.366618514E-2,-8.918042183E0,-1.485273719E0
3.334427083E0,5.800925195E-2,-9.049717903E0,-1.691166162E0
3.336825781E0,2.112315595E-1,-9.147875786E0,-1.932970285E0
3.339224479E0,3.381187916E-1,-9.243639946E0,-2.244203091E0
3.341623958E0,4.506414235E-1,-9.353767395E0,-2.584165096E0
3.344023437E0,5.487995148E-1,-9.468685150E0,-2.976797342E0
3.346422135E0,7.379332781E-1,-9.550084114E0,-3.379005909E0
3.348820833E0,8.959437609E-1,-9.602753639E0,-3.750091076E0
3.351220364E0,1.053954363E0,-9.619512558E0,-4.116387844E0
3.353619843E0,1.171265244E0,-9.629088402E0,-4.492261410E0
3.356018541E0,1.255058646E0,-9.624300957E0,-4.827435493E0
3.358417239E0,1.305334806E0,-9.593177795E0,-5.095574379E0
3.360816771E0,1.305334806E0,-9.559660912E0,-5.346954823E0
3.363216250E0,1.331669807E0,-9.585995674E0,-5.509753704E0
3.365614948E0,1.355610728E0,-9.516566277E0,-5.641428947E0
3.368013646E0,1.322093368E0,-9.439955711E0,-5.765922070E0
3.370413125E0,1.247876406E0,-9.377708435E0,-5.868868351E0
3.372812656E0,1.192812085E0,-9.332221031E0,-5.959844112E0
3.375211302E0,1.104230404E0,-9.262791634E0,-6.029273033E0
3.377610000E0,1.034801602E0,-9.246033669E0,-6.062790394E0
3.380009531E0,9.438258410E-1,-9.260397911E0,-6.050819874E0
3.382409010E0,8.097562790E-1,-9.404044151E0,-6.019696712E0
3.384807708E0,7.499037981E-1,-9.205333710E0,-6.005331993E0
3.387206406E0,6.589280367E-1,-9.078446388E0,-5.926327229E0
3.389605937E0,6.708985567E-1,-9.028170586E0,-5.806622028E0
3.392005416E0,5.990755558E-1,-8.951560020E0,-5.682128906E0
3.394404114E0,5.799227953E-1,-8.851006508E0,-5.464265823E0
3.396802812E0,5.775287151E-1,-8.776789665E0,-5.253584862E0
3.399202343E0,5.583758354E-1,-8.637932777E0,-4.999810696E0
3.401601823E0,5.679522753E-1,-8.513439178E0,-4.734065533E0
3.404000521E0,5.918933153E-1,-8.400917053E0,-4.461138725E0
3.406399218E0,5.990755558E-1,-8.226147652E0,-4.181028843E0
3.408798698E0,6.445634365E-1,-8.051378250E0,-3.860219717E0
3.411198229E0,7.331451178E-1,-7.879003525E0,-3.520257473E0
3.413596875E0,7.618741989E-1,-7.720993042E0,-3.187478065E0
3.415995573E0,8.193325996E-1,-7.565376759E0,-2.864274502E0
3.418395104E0,8.528500795E-1,-7.395395756E0,-2.553041697E0
3.420794583E0,9.462199211E-1,-7.227808475E0,-2.304055452E0
3.423193281E0,1.015648723E0,-7.091345310E0,-2.016763449E0
3.425591979E0,1.080289483E0,-6.914181709E0,-1.789324284E0
3.427991510E0,1.147324204E0,-6.796870708E0,-1.600190401E0
3.430390989E0,1.259846926E0,-6.715471745E0,-1.446968198E0
3.432789687E0,1.346034408E0,-6.720259666E0,-1.303322196E0
3.435188385E0,1.403492808E0,-6.746594906E0,-1.226711035E0
3.437587916E0,1.451374769E0,-6.763353825E0,-1.154888034E0
3.439987396E0,1.484892130E0,-6.859117031E0,-1.095035672E0
3.442386093E0,1.527985930E0,-7.021916389E0,-1.071094632E0
3.444784791E0,1.571079612E0,-7.213444233E0,-1.078276873E0
3.447184271E0,1.611779451E0,-7.397789478E0,-1.028000951E0
3.449583802E0,1.674025893E0,-7.598893642E0,-9.944834113E-1
3.451982448E0,1.721907854E0,-7.833515644E0,-9.944834113E-1
3.454381146E0,1.772184014E0,-8.013072968E0,-9.681484103E-1
3.456780677E0,1.832036376E0,-8.254877090E0,-9.537836909E-1
3.459180156E0,1.863159776E0,-8.508650780E0,-9.753306508E-1
3.461578854E0,1.901465297E0,-8.724120140E0,-9.418132901E-1
3.463977552E0,1.944558978E0,-8.894101143E0,-9.298427701E-1
3.466377083E0,1.949347258E0,-9.037746429E0,-9.777247310E-1
3.468776562E0,1.992441058E0,-9.195757866E0,-1.011242151E0
3.471175260E0,2.035534859E0,-9.279550552E0,-1.030394912E0
3.473573958E0,1.994835138E0,-9.360949516E0,-1.051941752E0
3.475973489E0,1.970894098E0,-9.339404106E0,-1.090247393E0
3.478372968E0,1.956529498E0,-9.358555794E0,-1.102217913E0
3.480771666E0,1.882312536E0,-9.325038910E0,-1.190799594E0
3.483170364E0,1.743454814E0,-9.279550552E0,-1.288957715E0
3.485569843E0,1.623749852E0,-9.238850594E0,-1.375145197E0
3.487969375E0,1.472921610E0,-9.171816826E0,-1.485273719E0
3.490368021E0,1.288576007E0,-9.102387428E0,-1.626525521E0
3.492766718E0,1.097048163E0,-9.052111626E0,-1.810871124E0
3.495166250E0,8.935496807E-1,-8.965923309E0,-1.940152645E0
3.497565729E0,6.421693563E-1,-8.867765427E0,-2.105345249E0
3.499964427E0,4.554296136E-1,-8.736090660E0,-2.239414692E0
3.502363125E0,2.351725549E-1,-8.635538101E0,-2.399819613E0
3.504762656E0,2.688595653E-2,-8.501468658E0,-2.488400936E0
3.507162135E0,-2.053416371E-1,-8.417675018E0,-2.600923777E0
3.509560833E0,-4.016576707E-1,-8.293182373E0,-2.742175579E0
3.511959531E0,-6.793731451E-1,-8.190236092E0,-2.837939501E0
3.514359062E0,-9.475122690E-1,-8.118412971E0,-2.921733141E0
3.516758541E0,-1.218045354E0,-8.001102448E0,-3.036649704E0
3.519157187E0,-1.452666998E0,-7.886185646E0,-3.139595985E0
3.521555885E0,-1.696865082E0,-7.754510403E0,-3.242542267E0
3.523955416E0,-1.950639367E0,-7.582135201E0,-3.388582230E0
3.526354948E0,-2.204414129E0,-7.414548397E0,-3.601657152E0
3.528753593E0,-2.462976933E0,-7.249355793E0,-3.809943438E0
3.531152291E0,-2.740692377E0,-7.045857430E0,-4.011047840E0
3.533551823E0,-3.006437302E0,-6.883058071E0,-4.226516724E0
3.535951302E0,-3.296123028E0,-6.751383305E0,-4.427620888E0
3.538350000E0,-3.616932392E0,-6.667589664E0,-4.561690331E0
3.540748698E0,-3.923377037E0,-6.610131264E0,-4.693366051E0
3.543148229E0,-4.227427483E0,-6.562249184E0,-4.808282375E0
3.545547708E0,-4.481202126E0,-6.528731823E0,-4.901652336E0
3.547946406E0,-4.703853130E0,-6.511973381E0,-5.004599094E0
3.550345104E0,-4.854681492E0,-6.509579182E0,-5.074027538E0
3.552744635E0,-4.945657253E0,-6.521549702E0,-5.100363255E0
3.555144114E0,-5.058179855E0,-6.521549702E0,-5.095574379E0
3.557542812E0,-5.151549816E0,-6.545490742E0,-5.054874897E0
3.559941510E0,-5.201825619E0,-6.519155025E0,-4.999810696E0
3.562340989E0,-5.149155617E0,-6.466485023E0,-4.901652336E0
3.564740521E0,-5.062968254E0,-6.459302902E0,-5.033328056E0
3.567139166E0,-4.948050976E0,-6.466485023E0,-5.150639057E0
3.569537864E0,-4.943263054E0,-6.540702343E0,-4.932775974E0
3.571937396E0,-5.039027214E0,-6.612524986E0,-4.736460209E0
3.574336875E0,-5.158731937E0,-6.741806507E0,-4.645483971E0
3.576735573E0,-5.266466618E0,-7.024310112E0,-4.298339367E0
3.579134271E0,-5.163519859E0,-7.206261635E0,-3.958377838E0
3.581533802E0,-5.072544575E0,-7.297237873E0,-3.793184757E0
3.583933281E0,-5.151549816E0,-7.534253120E0,-3.735726595E0
3.586331979E0,-5.271254539E0,-7.809574604E0,-3.678268194E0
3.588730677E0,-5.383777142E0,-8.046589851E0,-3.529834032E0
3.591130156E0,-5.472359180E0,-8.269241333E0,-3.493922472E0
3.593529687E0,-5.553758144E0,-8.479921341E0,-3.623203754E0
3.595928385E0,-5.601640224E0,-8.659479141E0,-3.817125797E0
3.598327083E0,-5.604034424E0,-8.822278023E0,-4.075688362E0
3.600726562E0,-5.568122864E0,-8.999441147E0,-4.372557163E0
3.603126093E0,-5.472359180E0,-9.195757866E0,-4.616755009E0
3.605524739E0,-5.376595020E0,-9.358555794E0,-4.846588612E0
3.607923437E0,-5.230555058E0,-9.495019913E0,-5.069239616E0
3.610322968E0,-5.072544575E0,-9.600359917E0,-5.318225861E0
3.612722448E0,-4.907351494E0,-9.744006157E0,-5.636641026E0
3.615121146E0,-4.794828892E0,-9.878075600E0,-5.935903549E0
3.617519843E0,-4.734976768E0,-1.002890396E1,-6.208830357E0
3.619919375E0,-4.663153648E0,-1.020606709E1,-6.397964478E0
3.622318854E0,-4.600907326E0,-1.040956593E1,-6.615827560E0
3.624717552E0,-4.550631046E0,-1.056997013E1,-6.812143326E0
3.627116250E0,-4.507536888E0,-1.078304482E1,-6.994094849E0
3.629515729E0,-4.433320045E0,-1.092429638E1,-7.116194248E0
3.631915260E0,-4.363891125E0,-1.107991314E1,-7.209564209E0
3.634313906E0,-4.258551121E0,-1.120680046E1,-7.278992653E0
3.636712604E0,-4.179545403E0,-1.134086990E1,-7.317297935E0
3.639112135E0,-4.040688038E0,-1.140790462E1,-7.312510014E0
3.641511666E0,-3.918588638E0,-1.146775627E1,-7.307722092E0
3.643910312E0,-3.760578394E0,-1.148451614E1,-7.295751572E0
3.646309010E0,-3.595385551E0,-1.148690987E1,-7.214352131E0
3.648708541E0,-3.475680590E0,-1.141748047E1,-7.161682129E0
3.651108021E0,-3.363157749E0,-1.131214046E1,-7.099434853E0
3.653506718E0,-3.255423546E0,-1.115173531E1,-7.003671646E0
3.655905416E0,-3.123748064E0,-1.092908478E1,-6.903119087E0
3.658304948E0,-3.018407822E0,-1.073037434E1,-6.761867523E0
3.660704427E0,-2.927432060E0,-1.051251125E1,-6.625403404E0
3.663103125E0,-2.877155781E0,-1.029464912E1,-6.453028679E0
3.665501823E0,-2.790968418E0,-1.011509132E1,-6.268682957E0
3.667901302E0,-2.714357138E0,-9.990597725E0,-6.110672474E0
3.670300833E0,-2.649716616E0,-9.837375641E0,-5.933508873E0
3.672699531E0,-2.620987415E0,-9.753582954E0,-5.792257786E0
3.675098229E0,-2.568317175E0,-9.653029442E0,-5.646217346E0
3.677497708E0,-2.501282454E0,-9.559660912E0,-5.490601063E0
3.679897239E0,-2.431853533E0,-9.492626190E0,-5.313437462E0
3.682295885E0,-2.376789331E0,-9.449531555E0,-5.141062737E0
3.684694583E0,-2.328907251E0,-9.413620949E0,-4.963899136E0
3.687094114E0,-2.254690409E0,-9.411225319E0,-4.786736012E0
3.689493593E0,-2.180473089E0,-9.408831596E0,-4.580843449E0
3.691892291E0,-2.113438368E0,-9.463896751E0,-4.374950886E0
3.694290989E0,-2.036827326E0,-9.530930519E0,-4.176240444E0
3.696690521E0,-2.005703926E0,-9.605147362E0,-3.941618919E0
3.699090000E0,-1.948245406E0,-9.732035637E0,-3.757273436E0
3.701488698E0,-1.936274886E0,-9.834981918E0,-3.592080593E0
3.703887396E0,-1.926698565E0,-9.961868286E0,-3.407735109E0
3.706286875E0,-1.972186446E0,-1.011987972E1,-3.249724627E0
3.708686406E0,-2.024856806E0,-1.033055973E1,-3.118049145E0
3.711085052E0,-2.067950487E0,-1.054124069E1,-2.995949984E0
3.713483750E0,-2.125408888E0,-1.079741001E1,-2.893003702E0
3.715883281E0,-2.221172810E0,-1.108709526E1,-2.813998461E0
3.718282812E0,-2.336089611E0,-1.144860458E1,-2.744569540E0
3.720681458E0,-2.467765093E0,-1.186517811E1,-2.632046938E0
3.723080156E0,-2.620987415E0,-1.234399700E1,-2.529100895E0
3.725479687E0,-2.759845018E0,-1.285154533E1,-2.457277775E0
3.727879166E0,-2.946584940E0,-1.338303566E1,-2.373484373E0
3.730277864E0,-3.166841745E0,-1.395761967E1,-2.284902811E0
3.732676562E0,-3.418222427E0,-1.459684372E1,-2.126892328E0
3.735076093E0,-3.590597391E0,-1.525043297E1,-1.959305286E0
3.737475573E0,-3.762972355E0,-1.593754005E1,-1.712713003E0
3.739874271E0,-3.959288597E0,-1.667013359E1,-1.458938718E0
3.742272968E0,-4.098145962E0,-1.742906380E1,-1.195587754E0
3.744672448E0,-4.217851162E0,-1.819277954E1,-8.652021289E-1
3.747071979E0,-4.280097485E0,-1.900437927E1,-4.965108633E-1
3.749470625E0,-4.308826923E0,-1.971303368E1,-1.062727943E-1
3.751869323E0,-4.215456963E0,-2.029719353E1,2.001718283E-1
3.754268854E0,-4.059840679E0,-2.066349030E1,3.462118804E-1
3.756668333E0,-3.739031315E0,-2.079755974E1,3.797292709E-1
3.759067031E0,-3.253029346E0,-2.067785645E1,3.007239699E-1
3.761465729E0,-2.565922976E0,-2.010087776E1,8.764919639E-2
3.763865260E0,-1.852481484E0,-1.921745300E1,-1.397901773E-1
3.766264739E0,-1.158192873E0,-1.825981522E1,-2.930124998E-1
3.768663437E0,-4.734806716E-1,-1.729499435E1,-3.792000711E-1
3.771062135E0,1.274381131E-1,-1.633495903E1,-3.839882314E-1
3.773461666E0,7.211745977E-1,-1.539168453E1,-4.198997617E-1
3.775861146E0,1.216753006E0,-1.446995640E1,-3.863823414E-1
3.778259843E0,1.630932212E0,-1.359850502E1,-3.361062706E-1
3.780658541E0,1.990046859E0,-1.273662949E1,-3.073771000E-1
3.783058021E0,2.284520864E0,-1.193460655E1,-2.954065800E-1
3.785457552E0,2.531113148E0,-1.115173531E1,-2.714656293E-1
3.787856198E0,2.684335470E0,-1.037604809E1,-2.187954187E-1
3.790254896E0,2.753764391E0,-9.665000916E0,-1.661252677E-1
3.792654427E0,2.808828592E0,-9.018593788E0,-8.233181387E-2
3.795053906E0,2.971627474E0,-8.355428696E0,7.807280123E-2
3.797452604E0,3.539028645E0,-7.584529400E0,1.038106322E0
3.799851302E0,4.573279381E0,-6.705895424E0,2.651728868E0
3.802250833E0,5.356149673E0,-5.970906734E0,3.817654848E0
3.804650312E0,5.925945282E0,-5.398717403E0,4.792052746E0
3.807049010E0,6.495740891E0,-4.860045433E0,5.529435635E0
3.809447708E0,6.902737617E0,-4.393195629E0,6.123171806E0
3.811847187E0,7.168482304E0,-4.069992542E0,6.252453327E0
3.814246718E0,7.163694382E0,-3.897616863E0,5.960373402E0
3.816645364E0,6.840490818E0,-3.849735022E0,5.263690472E0
3.819044062E0,6.294636250E0,-3.923952103E0,4.265351295E0
3.821443593E0,5.720052719E0,-4.036475182E0,3.089848995E0
3.823843125E0,5.052098751E0,-4.204061508E0,2.000534058E0
3.826241771E0,4.532579899E0,-4.283067226E0,1.038106322E0
3.828640468E0,3.969966412E0,-4.400378227E0,2.241128385E-1
3.831040000E0,3.407353401E0,-4.527265072E0,-5.396046638E-1
3.833439479E0,2.890227795E0,-4.654152870E0,-1.298534036E0
3.835838177E0,2.452107906E0,-4.721187115E0,-2.040704489E0
3.838236875E0,2.171998501E0,-4.790616035E0,-2.677534819E0
3.840636406E0,1.927800417E0,-4.795404434E0,-3.137201786E0
3.843035885E0,1.700361013E0,-4.771463394E0,-3.340700388E0
3.845434583E0,1.571079612E0,-4.728369713E0,-3.431676149E0
3.847833281E0,1.527985930E0,-4.694852352E0,-3.450828791E0
3.850232760E0,1.530380011E0,-4.687669754E0,-3.393370628E0
3.852632291E0,1.496862650E0,-4.697246075E0,-3.390976191E0
3.855030937E0,1.453768849E0,-4.776251793E0,-3.493922472E0
3.857429635E0,1.429827929E0,-4.838498116E0,-3.687844515E0
3.859829166E0,1.405886889E0,-4.905532837E0,-3.802761316E0
3.862228698E0,1.293364286E0,-5.006085396E0,-3.941618919E0
3.864627343E0,1.216753006E0,-5.214371681E0,-4.099629402E0
3.867026041E0,1.166476965E0,-5.460963726E0,-4.260034084E0
3.869425573E0,1.130565524E0,-5.662068367E0,-4.418044567E0
3.871825052E0,1.171265244E0,-5.863172054E0,-4.585631371E0
3.874223750E0,1.188023925E0,-6.071458817E0,-4.762794971E0
3.876622448E0,1.255058646E0,-6.332415581E0,-4.899258614E0
3.879021979E0,1.348428488E0,-6.586190224E0,-5.018963337E0
3.881421458E0,1.448980689E0,-6.885452747E0,-5.124303818E0
3.883820156E0,1.623749852E0,-7.189503193E0,-5.277525902E0
3.886218854E0,1.891888857E0,-7.476794720E0,-5.495388985E0
3.888618333E0,2.095387220E0,-7.766480923E0,-5.703675747E0
3.891017864E0,2.212697983E0,-8.089683533E0,-5.957449913E0
3.893416510E0,2.296491385E0,-8.388945580E0,-6.153766155E0
3.895815208E0,2.452107906E0,-8.755242348E0,-6.347688198E0
3.898214739E0,2.653212070E0,-9.095204353E0,-6.544004440E0
3.900614218E0,2.885439634E0,-9.449531555E0,-6.718773365E0
3.903012916E0,3.124849558E0,-9.710488319E0,-6.862419605E0
3.905411614E0,3.388200521E0,-9.976233482E0,-6.979730606E0
3.907811146E0,3.644369125E0,-1.025873661E1,-7.018035889E0
3.910210625E0,3.852655649E0,-1.058672905E1,-7.065917969E0
3.912609323E0,3.962784052E0,-1.091232586E1,-6.979730606E0
3.915008021E0,4.053760052E0,-1.122355843E1,-6.883966446E0
3.917407552E0,4.104036331E0,-1.156112671E1,-6.776232243E0
3.919807031E0,4.118400574E0,-1.183165932E1,-6.666103363E0
3.922205729E0,4.195012093E0,-1.209979916E1,-6.532033920E0
3.924604427E0,4.171071053E0,-1.227696228E1,-6.376417637E0
3.927003906E0,4.096853733E0,-1.240863800E1,-6.101096153E0
3.929403437E0,4.005877972E0,-1.241582012E1,-4.884893894E0
3.931802083E0,3.732950687E0,-1.250918961E1,-2.486006975E0
3.934200781E0,3.318771601E0,-1.259058952E1,-4.534171224E-1
3.936600312E0,2.883045673E0,-1.256186008E1,9.758598208E-1
3.938999791E0,2.425772905E0,-1.251637268E1,2.309372663E0
3.941398489E0,2.157633781E0,-1.224105072E1,3.470510721E0
3.943797187E0,1.832036376E0,-1.205910015E1,4.279716015E0
3.946196718E0,1.690784693E0,-1.180771828E1,4.605313301E0
3.948596198E0,1.537562251E0,-1.149409199E1,4.447302818E0
3.950994896E0,1.499256730E0,-1.113018894E1,3.946936369E0
3.953393593E0,1.614173412E0,-1.065855217E1,3.245465517E0
3.955793125E0,1.616567492E0,-1.016057873E1,2.362042904E0
3.958192604E0,1.693178773E0,-9.612330437E0,1.363703847E0
3.960591302E0,1.645296812E0,-9.054505348E0,3.797292709E-1
3.962990000E0,1.630932212E0,-8.511044502E0,-6.928269863E-1
3.965389479E0,1.563897371E0,-8.032225609E0,-1.822841644E0
3.967789010E0,1.444192410E0,-7.539041519E0,-3.300000668E0
3.970187656E0,1.223935366E0,-7.122467995E0,-4.434803486E0
3.972586354E0,9.150966406E-1,-6.921364307E0,-4.925593376E0
3.974985885E0,6.637161970E-1,-6.851935387E0,-5.184155941E0
3.977385364E0,3.931830823E-1,-6.947699070E0,-5.332590580E0
3.979784062E0,1.681377888E-1,-7.151197910E0,-5.490601063E0
3.982182760E0,-5.211929977E-2,-7.390607357E0,-5.500177383E0
3.984582291E0,-2.173120975E-1,-7.665928841E0,-5.454689503E0
3.986981771E0,-2.532235980E-1,-7.936461926E0,-5.241614342E0
3.989380468E0,-2.819527686E-1,-8.245300293E0,-4.949534416E0
3.991779166E0,-3.226524591E-1,-8.515833855E0,-4.616755009E0
3.994178646E0,-3.944754303E-1,-8.776789665E0,-4.185817242E0
3.996578177E0,-3.968695104E-1,-8.999441147E0,-3.728544235E0
3.998976823E0,-2.939232886E-1,-9.171816826E0,-3.256906748E0
4.001375521E0,-6.648388505E-2,-9.231668472E0,-2.804422140E0
4.003775052E0,1.418026984E-1,-9.327432632E0,-2.395031214E0
4.006174583E0,3.860007823E-1,-9.382496834E0,-1.997610807E0
4.008573229E0,6.301988363E-1,-9.408831596E0,-1.777353764E0
4.010971927E0,8.815791607E-1,-9.408831596E0,-1.624131441E0
4.013371458E0,1.113806844E0,-9.389679909E0,-1.521185160E0
4.015770937E0,1.259846926E0,-9.401649475E0,-1.487667799E0
4.018169635E0,1.283787727E0,-9.459107399E0,-1.499638319E0
4.020568333E0,1.278999686E0,-9.516566277E0,-1.535549760E0
4.022967864E0,1.123383164E0,-9.595571518E0,-1.585825920E0
4.025367343E0,9.629786015E-1,-9.696124077E0,-1.648072481E0
4.027766041E0,7.451155186E-1,-9.834981918E0,-1.758200884E0
4.030164739E0,4.865529239E-1,-9.959474564E0,-1.825235844E0
4.032564218E0,2.351725549E-1,-1.011509132E1,-1.882694125E0
4.034963750E0,-4.014879465E-2,-1.025155449E1,-1.873117685E0
4.037362396E0,-2.556176782E-1,-1.033055973E1,-1.743836403E0
4.039761093E0,-4.950275719E-1,-1.038562489E1,-1.681589842E0
4.042160625E0,-7.104964256E-1,-1.036886597E1,-1.667225122E0
4.044560156E0,-9.116007090E-1,-1.038083553E1,-1.597796440E0
4.046958802E0,-1.131857872E0,-1.043829441E1,-1.454150438E0
4.049357500E0,-1.332962155E0,-1.044068909E1,-1.348810077E0
4.051757031E0,-1.476607919E0,-1.043350697E1,-1.193193674E0
4.054156510E0,-1.543642879E0,-1.034253025E1,-1.061518312E0
4.056555208E0,-1.625042081E0,-1.031859016E1,-8.771725893E-1
4.058953906E0,-1.653771400E0,-1.028986073E1,-7.191620469E-1
4.061353437E0,-1.682500482E0,-1.019888496E1,-6.593096256E-1
4.063752916E0,-1.589130759E0,-1.007199764E1,-7.119798064E-1
4.066151614E0,-1.471819878E0,-9.954687119E0,-7.598617673E-1
4.068550312E0,-1.368873596E0,-9.885257721E0,-8.436551690E-1
4.070949791E0,-1.270715475E0,-9.794281960E0,-9.418132901E-1
4.073349323E0,-1.146222353E0,-9.720065117E0,-1.078276873E0
4.075747968E0,-1.012152791E0,-9.617118835E0,-1.276987195E0
4.078146666E0,-8.876596689E-1,-9.533326149E0,-1.451756358E0
4.080546198E0,-7.871075869E-1,-9.485444069E0,-1.616949201E0
4.082945677E0,-6.913436651E-1,-9.413620949E0,-1.820447564E0
4.085344375E0,-6.171265841E-1,-9.360949516E0,-1.988034487E0
4.087743073E0,-5.141804218E-1,-9.332221031E0,-2.126892328E0
4.090142604E0,-4.327810109E-1,-9.313067436E0,-2.217868090E0
4.092542083E0,-4.184163511E-1,-9.327432632E0,-2.275326252E0
4.094940781E0,-3.681403697E-1,-9.368132591E0,-2.318420172E0
4.097339479E0,-3.346229494E-1,-9.406437874E0,-2.272932291E0
4.099739010E0,-2.292825878E-1,-9.416014671E0,-2.234626532E0
4.102138489E0,-1.335186660E-1,-9.461503029E0,-2.217868090E0
4.104537187E0,-6.408978999E-2,-9.506989479E0,-2.110133648E0
4.106935885E0,7.733166218E-3,-9.629088402E0,-2.069433689E0
4.109335364E0,2.449186891E-2,-9.729641914E0,-1.947334766E0
4.111734896E0,1.082853228E-1,-9.806252480E0,-1.882694125E0
4.114133541E0,2.112315595E-1,-9.882863998E0,-1.806082964E0
4.116532239E0,3.046014309E-1,-9.992991447E0,-1.739048123E0
4.118931771E0,3.668479919E-1,-1.010312080E1,-1.705530763E0
4.121331250E0,5.296466947E-1,-1.016057873E1,-1.712713003E0
4.123729948E0,6.493515968E-1,-1.022521973E1,-1.693560362E0
4.126128646E0,7.762389183E-1,-1.026352596E1,-1.681589842E0
4.128528177E0,8.552441597E-1,-1.031619549E1,-1.686378002E0
4.130927656E0,9.366434813E-1,-1.040717125E1,-1.707924962E0
4.133326354E0,1.044377923E0,-1.041435337E1,-1.801294804E0
4.135725052E0,1.118595004E0,-1.044308281E1,-1.906635046E0
4.138124531E0,1.166476965E0,-1.047420597E1,-1.988034487E0
4.140524062E0,1.219147205E0,-1.049335861E1,-2.124498129E0
4.142922760E0,1.262240887E0,-1.049335861E1,-2.253779650E0
4.145321458E0,1.305334806E0,-1.050533009E1,-2.438125134E0
4.147720937E0,1.346034408E0,-1.047899437E1,-2.605711937E0
4.150120416E0,1.348428488E0,-1.042393017E1,-2.787663460E0
4.152519114E0,1.374763489E0,-1.041195965E1,-2.936097622E0
4.154917812E0,1.372369528E0,-1.037125969E1,-3.065378904E0
4.157317343E0,1.420251369E0,-1.032337761E1,-3.259300709E0
4.159716823E0,1.453768849E0,-1.022282600E1,-3.436464310E0
4.162115521E0,1.530380011E0,-1.014621449E1,-3.644750834E0
4.164514218E0,1.516015410E0,-1.004326916E1,-3.800367355E0
4.166913750E0,1.537562251E0,-9.976233482E0,-3.996683121E0
4.169313229E0,1.595020652E0,-9.851740837E0,-4.233698845E0
4.171711927E0,1.638114452E0,-9.748793602E0,-4.465926647E0
4.174110625E0,1.700361013E0,-9.617118835E0,-4.714912891E0
4.176510104E0,1.726696134E0,-9.504595757E0,-4.923199654E0
4.178909635E0,1.781760454E0,-9.375314713E0,-5.188944340E0
4.181308281E0,1.810489535E0,-9.217303276E0,-5.433142662E0
4.183706979E0,1.894283056E0,-9.080841064E0,-5.689311028E0
4.186106510E0,1.937376738E0,-8.920435905E0,-5.895203590E0
4.188505989E0,1.951741457E0,-8.836642265E0,-6.122642994E0
4.190904687E0,1.934982657E0,-8.652297020E0,-6.342900276E0
4.193303385E0,1.899071097E0,-8.460768700E0,-6.517669201E0
4.195702916E0,1.834430575E0,-8.307546616E0,-6.611039162E0
4.198102396E0,1.690784693E0,-8.132777214E0,-6.735532284E0
4.200501093E0,1.518409491E0,-7.965191364E0,-6.800173283E0
4.202899791E0,1.317305326E0,-7.814362526E0,-6.807354927E0
4.205299323E0,1.063530803E0,-7.677899361E0,-6.769049644E0
4.207698802E0,7.738447189E-1,-7.495947838E0,-6.690044403E0
4.210097500E0,4.482473433E-1,-7.309208393E0,-6.546398640E0
4.212496198E0,9.392073005E-2,-7.165562153E0,-6.335717678E0
4.214895677E0,-2.675881982E-1,-6.969245911E0,-6.093914032E0
4.217295208E0,-5.764269829E-1,-6.792082787E0,-5.876050949E0
4.219693854E0,-8.780833483E-1,-6.579007626E0,-5.679734707E0
4.222092552E0,-1.141434193E0,-6.368327141E0,-5.473842144E0
4.224492083E0,-1.397602677E0,-6.119340897E0,-5.282314777E0
4.226891562E0,-1.646588922E0,-5.901477814E0,-5.181762218E0
4.229290260E0,-1.881210685E0,-5.657279491E0,-5.016569614E0
4.231688958E0,-2.067950487E0,-5.417870045E0,-4.894470692E0
4.234088489E0,-2.302572012E0,-5.231130123E0,-4.700548649E0
4.236487968E0,-2.441429853E0,-5.121001720E0,-4.463532448E0
4.238886666E0,-2.532405615E0,-5.058755398E0,-4.140328884E0
4.241285364E0,-2.573105335E0,-5.089878082E0,-3.826702356E0
4.243684843E0,-2.553952694E0,-5.185642242E0,-3.556169033E0
4.246084375E0,-2.453400373E0,-5.324500084E0,-3.350276470E0
4.248483021E0,-2.288207531E0,-5.573486328E0,-3.153960466E0
4.250881718E0,-2.058374166E0,-5.939783573E0,-3.060590744E0
4.253281250E0,-1.842905045E0,-6.387480259E0,-3.067773104E0
4.255680729E0,-1.498154998E0,-6.816023827E0,-3.146778345E0
4.258079427E0,-1.139040112E0,-7.297237873E0,-3.259300709E0
4.260478125E0,-7.009201050E-1,-7.704234123E0,-3.419705629E0
4.262877656E0,-2.651940882E-1,-8.082501411E0,-3.616021633E0
4.265277135E0,1.274381131E-1,-8.405704498E0,-3.831490517E0
4.267675833E0,4.602178335E-1,-8.743272781E0,-4.063717842E0
4.270074531E0,7.858152390E-1,-8.989864349E0,-4.298339367E0
4.272474062E0,1.030013323E0,-9.222092628E0,-4.518597126E0
4.274873541E0,1.190418005E0,-9.451925278E0,-4.755612373E0
4.277272239E0,1.329275608E0,-9.624300957E0,-4.963899136E0
4.279670937E0,1.393916368E0,-9.811040878E0,-5.107544899E0
4.282070416E0,1.439404249E0,-9.913987160E0,-5.294284821E0
4.284469948E0,1.451374769E0,-9.985809326E0,-5.488206863E0
4.286868593E0,1.437010169E0,-1.000975037E1,-5.672552586E0
4.289267291E0,1.384340048E0,-1.001932812E1,-5.801833630E0
4.291666823E0,1.267029166E0,-1.008157349E1,-5.926327229E0
4.294066302E0,1.178447485E0,-1.001932812E1,-6.031667233E0
4.296465000E0,9.869195223E-1,-1.002890396E1,-6.177707195E0
4.298863698E0,8.983379602E-1,-1.000975037E1,-6.295018196E0
4.301263229E0,8.145444393E-1,-9.976233482E0,-6.419510841E0
4.303662708E0,7.355391979E-1,-9.933139801E0,-6.553580761E0
4.306061406E0,6.876572371E-1,-9.878075600E0,-6.654132843E0
4.308460104E0,6.373811960E-1,-9.851740837E0,-6.742714405E0
4.310859583E0,5.368289948E-1,-9.827799797E0,-6.785808563E0
4.313259114E0,4.458532631E-1,-9.808647156E0,-6.852843285E0
4.315657760E0,3.453010917E-1,-9.779917717E0,-6.871995926E0
4.318056458E0,2.160197645E-1,-9.777523994E0,-6.850449085E0
4.320455989E0,9.152662754E-2,-9.722458839E0,-6.824113846E0
4.322855468E0,-9.521308541E-2,-9.660212517E0,-6.778625965E0
4.325254166E0,-2.412531078E-1,-9.621906281E0,-6.654132843E0
4.327652864E0,-4.519338310E-1,-9.533326149E0,-6.529639721E0
4.330052396E0,-7.104964256E-1,-9.466290474E0,-6.385993958E0
4.332451875E0,-9.810296297E-1,-9.358555794E0,-6.213618755E0
4.334850573E0,-1.256350994E0,-9.241244316E0,-6.067578316E0
4.337249271E0,-1.558007360E0,-9.159845352E0,-5.868868351E0
4.339648802E0,-1.792629123E0,-9.023382187E0,-5.631852627E0
4.342048281E0,-2.029644728E0,-8.903677940E0,-5.306255341E0
4.344446979E0,-2.271448851E0,-8.750454903E0,-5.078815937E0
4.346845677E0,-2.448612452E0,-8.578080177E0,-4.899258614E0
4.349245156E0,-2.601834536E0,-8.420069695E0,-4.755612373E0
4.351644687E0,-2.726327658E0,-8.271635056E0,-4.528172970E0
4.354043333E0,-2.800544739E0,-8.180659294E0,-4.351009846E0
4.356442031E0,-2.834062099E0,-8.137565613E0,-4.221728325E0
4.358841562E0,-2.841244459E0,-8.082501411E0,-4.197787762E0
4.361241041E0,-2.810121059E0,-8.118412971E0,-4.238487244E0
4.363639739E0,-2.822091579E0,-8.175870895E0,-4.307916164E0
4.366038437E0,-2.790968418E0,-8.209388733E0,-4.379739285E0
4.368437968E0,-2.767027378E0,-8.271635056E0,-4.410862446E0
4.370837448E0,-2.740692377E0,-8.350640297E0,-4.379739285E0
4.373236146E0,-2.695204258E0,-8.432039261E0,-4.257639885E0
4.375634843E0,-2.582681894E0,-8.501468658E0,-4.159482002E0
4.378034375E0,-2.482129574E0,-8.590050697E0,-4.008653641E0
4.380433854E0,-2.403124332E0,-8.772001266E0,-3.819519997E0
4.382832552E0,-2.264266491E0,-8.937194824E0,-3.596868753E0
4.385231250E0,-2.094285488E0,-9.109569550E0,-3.467587471E0
4.387630729E0,-1.943457246E0,-9.348979950E0,-3.395764589E0
4.390030260E0,-1.704047322E0,-9.605147362E0,-3.307182789E0
4.392428906E0,-1.507731318E0,-9.837375641E0,-3.220995188E0
4.394827604E0,-1.306626916E0,-1.016057873E1,-3.168324947E0
4.397227135E0,-1.014546990E0,-1.041674805E1,-2.950462103E0
4.399626614E0,-7.990781069E-1,-1.079741001E1,-2.804422140E0
4.402025312E0,-6.075501442E-1,-1.118525410E1,-2.620076656E0
4.404424010E0,-3.130760789E-1,-1.162816143E1,-2.359119892E0
4.406823541E0,-4.493699968E-2,-1.210698128E1,-2.146044970E0
4.409223021E0,3.500893116E-1,-1.260495377E1,-2.059857607E0
4.411621718E0,7.259627581E-1,-1.313165569E1,-1.858753204E0
4.414020416E0,9.869195223E-1,-1.369426918E1,-1.710319042E0
4.416419896E0,1.099442244E0,-1.424251747E1,-1.554702520E0
4.418819427E0,1.137747765E0,-1.474048996E1,-1.518791080E0
4.421218073E0,1.247876406E0,-1.515227509E1,-1.492456079E0
4.423616771E0,1.379551768E0,-1.557603073E1,-1.411056638E0
4.426016302E0,1.319699287E0,-1.608836746E1,-1.355992436E0
4.428415781E0,1.317305326E0,-1.655521584E1,-1.291351676E0
4.430814479E0,1.358004928E0,-1.706515884E1,-1.145311713E0
4.433213177E0,1.417857409E0,-1.756791878E1,-1.020818591E0
4.435612708E0,1.410675049E0,-1.801561737E1,-8.628079891E-1
4.438012187E0,1.460951209E0,-1.843218994E1,-7.670440674E-1
4.440410885E0,1.606991172E0,-1.877215195E1,-7.119798064E-1
4.442809583E0,1.719513774E0,-1.908099174E1,-6.880388260E-1
4.445209062E0,1.738666654E0,-1.930124855E1,-6.856446862E-1
4.447608593E0,1.810489535E0,-1.943771172E1,-6.952210665E-1
4.450007291E0,1.834430575E0,-1.953826332E1,-7.287384868E-1
4.452405989E0,1.824854136E0,-1.956699371E1,-8.364729285E-1
4.454805468E0,1.788942695E0,-1.955262756E1,-9.106900096E-1
4.457205000E0,1.791336775E0,-1.955981255E1,-9.992715716E-1
4.459603646E0,1.817671895E0,-1.951193047E1,-1.049547791E0
4.462002343E0,1.841612935E0,-1.943771172E1,-1.071094632E0
4.464401875E0,1.858371496E0,-1.926533508E1,-1.174040914E0
4.466801354E0,1.870342016E0,-1.907141304E1,-1.200375915E0
4.469200052E0,1.815277815E0,-1.876736450E1,-1.334445596E0
4.471598750E0,1.717119694E0,-1.836515617E1,-1.480485559E0
4.473998281E0,1.650084853E0,-1.780493546E1,-1.810871124E0
4.476397760E0,1.578261971E0,-1.714177132E1,-2.304055452E0
4.478796458E0,1.441798449E0,-1.653367043E1,-2.766116619E0
4.481195156E0,1.322093368E0,-1.597823906E1,-3.077349186E0
4.483594687E0,1.209570765E0,-1.548266029E1,-3.321547508E0
4.485994166E0,1.044377923E0,-1.503735828E1,-3.508286953E0
4.488392812E0,9.438258410E-1,-1.468781948E1,-3.575322151E0
4.490791510E0,9.079142809E-1,-1.432152271E1,-3.520257473E0
4.493191041E0,8.408795595E-1,-1.394325447E1,-3.465193272E0
4.495590521E0,8.025739193E-1,-1.364638710E1,-3.426887751E0
4.497989218E0,7.570860386E-1,-1.335430717E1,-3.343094349E0
4.500387916E0,6.206224561E-1,-1.289942741E1,-2.878639221E0
4.502787448E0,4.027594626E-1,-1.245412540E1,-2.416578054E0
4.505186927E0,1.370145082E-1,-1.208543491E1,-2.023946047E0
4.507585625E0,-5.211929977E-2,-1.172631931E1,-1.597796440E0
4.509984323E0,-1.837947071E-1,-1.143902779E1,-1.224316955E0
4.512383854E0,-2.987114787E-1,-1.116849518E1,-8.316847682E-1
4.514783333E0,-5.046039820E-1,-1.098893738E1,-5.180578232E-1
4.517182031E0,-7.511961460E-1,-1.081656170E1,-2.978006899E-1
4.519580729E0,-1.004970551E0,-1.066812801E1,-9.190820903E-2
4.521980208E0,-1.244380474E0,-1.049575233E1,9.004329145E-2
4.524379739E0,-1.392814636E0,-1.026591969E1,2.408715189E-1
4.526778385E0,-1.538854599E0,-9.961868286E0,4.204289317E-1
4.529177083E0,-1.534066319E0,-9.643453598E0,5.928040147E-1
4.531576614E0,-1.567583680E0,-9.344191551E0,7.149030566E-1
4.533976093E0,-1.675318241E0,-9.133510590E0,9.662834406E-1
4.536374791E0,-1.797417164E0,-8.920435905E0,1.059653282E0
4.538773489E0,-1.893181205E0,-8.673843384E0,1.217663646E0
4.541173021E0,-1.993733525E0,-8.465557098E0,1.337368727E0
4.543572500E0,-2.036827326E0,-8.233329773E0,1.454679608E0
4.545971198E0,-2.125408888E0,-8.046589851E0,1.593537211E0
4.548369896E0,-2.316936731E0,-7.826333046E0,1.658177972E0
4.550769375E0,-2.506070614E0,-7.613258839E0,1.639025092E0
4.553168906E0,-2.702386618E0,-7.426518917E0,1.490591049E0
4.555567552E0,-2.970525742E0,-7.294843197E0,1.255969286E0
4.557966250E0,-3.238664865E0,-7.136832714E0,1.083594203E0
4.560365781E0,-3.411039829E0,-6.952486992E0,1.021347642E0
4.562765260E0,-3.482862949E0,-6.753777027E0,9.878303409E-1
4.565163958E0,-3.542715311E0,-6.567037106E0,9.974067807E-1
4.567562656E0,-3.516380310E0,-6.380297661E0,1.059653282E0
4.569962187E0,-3.552291870E0,-6.215104580E0,1.109929323E0
4.572361666E0,-3.595385551E0,-6.028365135E0,1.181752324E0
4.574760364E0,-3.609750032E0,-5.808108330E0,1.191328645E0
4.577159062E0,-3.688755274E0,-5.635732651E0,1.210481405E0
4.579558593E0,-3.734243393E0,-5.463357925E0,1.299063087E0
4.581958073E0,-3.736637354E0,-5.305346966E0,1.325398207E0
4.584356771E0,-3.736637354E0,-5.204795361E0,1.323004127E0
4.586755468E0,-3.660026073E0,-5.085090160E0,1.308639407E0
4.589154948E0,-3.604961872E0,-4.986932278E0,1.191328645E0
4.591554427E0,-3.502015591E0,-4.953414917E0,1.064441442E0
4.593953125E0,-3.355975628E0,-4.939050198E0,8.465784788E-1
4.596351823E0,-3.190782785E0,-4.965384960E0,5.928040147E-1
4.598751354E0,-3.018407822E0,-5.037208080E0,3.342413902E-1
4.601150833E0,-2.786180019E0,-5.209583282E0,3.855742514E-3
4.603549531E0,-2.465370893E0,-5.401111126E0,-3.337121904E-1
4.605948229E0,-2.082315207E0,-5.611792088E0,-6.640977859E-1
4.608347760E0,-1.701653361E0,-5.879930973E0,-1.018424392E0
4.610747239E0,-1.261139154E0,-6.140887737E0,-1.382327437E0
4.613145937E0,-8.589305878E-1,-6.406632900E0,-1.760595083E0
4.615544635E0,-4.734806716E-1,-6.732230186E0,-2.055069208E0
4.617944114E0,-6.648388505E-2,-7.029098034E0,-2.323208332E0
4.620343646E0,3.213601112E-1,-7.299631596E0,-2.620076656E0
4.622742291E0,6.828689575E-1,-7.546223640E0,-2.876245022E0
4.625140989E0,1.063530803E0,-7.725780964E0,-3.153960466E0
4.627540521E0,1.389128208E0,-7.890974045E0,-3.417311192E0
4.629940000E0,1.690784693E0,-8.034619331E0,-3.706997395E0
4.632338698E0,1.958923697E0,-8.178265572E0,-3.920072079E0
4.634737396E0,2.239033222E0,-8.302759171E0,-4.137935162E0
4.637136927E0,2.420984745E0,-8.391339302E0,-4.300734043E0
4.639536406E0,2.574206829E0,-8.525409698E0,-4.446774006E0
4.641935104E0,2.734611750E0,-8.616385460E0,-4.549720287E0
4.644333802E0,2.904592752E0,-8.704966545E0,-4.669425011E0
4.646733281E0,2.995568514E0,-8.793548584E0,-4.755612373E0
4.649132812E0,3.045844316E0,-8.922829628E0,-4.837012291E0
4.651531458E0,3.091332197E0,-9.140692711E0,-4.846588612E0
4.653930156E0,3.170337439E0,-9.076052666E0,-4.837012291E0
4.656329687E0,3.170337439E0,-9.035352707E0,-4.872923374E0
4.658729218E0,3.160761118E0,-9.004229546E0,-4.908834934E0
4.661127864E0,3.110485077E0,-8.999441147E0,-4.858559132E0
4.663526562E0,3.038662195E0,-8.977894783E0,-4.815464973E0
4.665926093E0,2.942898273E0,-8.898888588E0,-4.822647572E0
4.668325573E0,2.811222553E0,-8.831854820E0,-4.753218651E0
4.670724271E0,2.634059429E0,-8.781579018E0,-4.769977093E0
4.673122968E0,2.459290266E0,-8.685814857E0,-4.736460209E0
4.675522500E0,2.274944544E0,-8.628355980E0,-4.688578129E0
4.677921979E0,2.145663261E0,-8.558926582E0,-4.621542931E0
4.680320677E0,1.951741457E0,-8.458374977E0,-4.564084530E0
4.682719375E0,1.827248335E0,-8.355428696E0,-4.434803486E0
4.685118854E0,1.676419973E0,-8.238118172E0,-4.331857204E0
4.687518385E0,1.561503291E0,-8.118412971E0,-4.204969883E0
4.689917031E0,1.508833170E0,-7.984343529E0,-4.099629402E0
4.692315729E0,1.460951209E0,-7.888579845E0,-3.955983639E0
4.694715260E0,1.413069129E0,-7.764086723E0,-3.829096317E0
4.697114739E0,1.367581248E0,-7.598893642E0,-3.649538994E0
4.699513437E0,1.331669807E0,-7.448065758E0,-3.450828791E0
4.701912135E0,1.298152447E0,-7.273296833E0,-3.297606468E0
4.704311666E0,1.257452726E0,-7.203867912E0,-3.125231266E0
4.706711146E0,1.233511806E0,-7.132044792E0,-2.936097622E0
4.709109843E0,1.221541286E0,-7.076980114E0,-2.677534819E0
4.711508541E0,1.238299847E0,-7.041068554E0,-2.486006975E0
4.713908021E0,1.252664566E0,-7.002763271E0,-2.277720213E0
4.716307552E0,1.262240887E0,-6.993186474E0,-2.100557089E0
4.718706250E0,1.288576007E0,-7.029098034E0,-1.885088205E0
4.721104948E0,1.346034408E0,-7.069797993E0,-1.774959683E0
4.723504427E0,1.396310568E0,-7.134438515E0,-1.631313801E0
4.725903906E0,1.401098609E0,-7.223020077E0,-1.521185160E0
4.728302604E0,1.460951209E0,-7.306813717E0,-1.408662558E0
4.730701302E0,1.532774210E0,-7.349907875E0,-1.348810077E0
4.733100833E0,1.571079612E0,-7.472006798E0,-1.303322196E0
4.735500312E0,1.595020652E0,-7.555799961E0,-1.279381156E0
4.737899010E0,1.628538013E0,-7.627623081E0,-1.226711035E0
4.740297708E0,1.674025893E0,-7.680293083E0,-1.188405395E0
4.742697187E0,1.671631813E0,-7.742539883E0,-1.219528794E0
4.745096718E0,1.674025893E0,-7.771269321E0,-1.212346435E0
4.747495364E0,1.697966933E0,-7.804786205E0,-1.193193674E0
4.749894062E0,1.693178773E0,-7.795210361E0,-1.214740515E0
4.752293593E0,1.654873133E0,-7.821545124E0,-1.226711035E0
4.754693073E0,1.575867891E0,-7.843091965E0,-1.238681555E0
4.757091771E0,1.487286329E0,-7.852668285E0,-1.272198915E0
4.759490468E0,1.369975448E0,-7.905338764E0,-1.276987195E0
4.761890000E0,1.226329446E0,-7.972373009E0,-1.296139956E0
4.764289479E0,1.092259884E0,-8.008284569E0,-1.344021916E0
4.766688177E0,9.079142809E-1,-8.063348770E0,-1.420633078E0
4.769086875E0,6.852631569E-1,-8.123201370E0,-1.521185160E0
4.771486406E0,4.650060236E-1,-8.190236092E0,-1.643284321E0
4.773885885E0,2.447489500E-1,-8.190236092E0,-1.803688884E0
4.776284583E0,-1.620781422E-2,-8.151929855E0,-1.940152645E0
4.778683281E0,-2.604058683E-1,-8.101654053E0,-2.119709730E0
4.781082760E0,-5.931856632E-1,-8.015466690E0,-2.311237812E0
4.783482291E0,-9.116007090E-1,-7.900550365E0,-2.493189335E0
4.785880937E0,-1.198892593E0,-7.778450966E0,-2.655987978E0
4.788279635E0,-1.462243438E0,-7.663534641E0,-2.792451620E0
4.790679166E0,-1.763899803E0,-7.570164680E0,-2.897792101E0
4.793078646E0,-2.012886286E0,-7.481583118E0,-3.010314465E0
4.795477343E0,-2.297784090E0,-7.464824200E0,-3.077349186E0
4.797876041E0,-2.551558495E0,-7.481583118E0,-3.199448586E0
4.800275573E0,-2.800544739E0,-7.495947838E0,-3.352670908E0
4.802675052E0,-2.944190502E0,-7.498341560E0,-3.522651911E0
4.805073750E0,-3.128536224E0,-7.479189396E0,-3.678268194E0
4.807472448E0,-3.243453026E0,-7.426518917E0,-3.790790796E0
4.809871927E0,-3.442162991E0,-7.397789478E0,-3.982318878E0
4.812271458E0,-3.739031315E0,-7.426518917E0,-4.377345085E0
4.814670104E0,-4.004776478E0,-7.373848915E0,-4.695760250E0
4.817068802E0,-4.275309563E0,-7.421730518E0,-4.693366051E0
4.819468333E0,-4.677517891E0,-7.534253120E0,-4.777159691E0
4.821867812E0,-5.060574055E0,-7.613258839E0,-5.014174938E0
4.824266510E0,-5.462782383E0,-7.716204643E0,-5.308649540E0
4.826665208E0,-5.984695911E0,-7.936461926E0,-5.464265823E0
4.829064739E0,-6.568856239E0,-8.163900375E0,-5.425960064E0
4.831464218E0,-7.117104530E0,-8.391339302E0,-5.342166901E0
4.833862916E0,-7.624653816E0,-8.625961304E0,-5.131485939E0
4.836261614E0,-8.136991501E0,-8.848612785E0,-4.992628574E0
4.838661093E0,-8.622993469E0,-9.157451630E0,-4.935170174E0
4.841060625E0,-9.077872276E0,-9.305885315E0,-5.057269096E0
4.843459323E0,-9.501626968E0,-9.463896751E0,-5.186550617E0
4.845858021E0,-9.932564735E0,-9.554871559E0,-5.267949581E0
4.848257500E0,-1.036589718E1,-9.645847321E0,-5.425960064E0
4.850656979E0,-1.081598663E1,-9.772734642E0,-5.607911587E0
4.853055677E0,-1.131396008E1,-9.971446037E0,-5.734798908E0
4.855454375E0,-1.175447369E1,-1.022043133E1,-5.938297749E0
4.857853906E0,-1.210880089E1,-1.040956593E1,-6.160948753E0
4.860253385E0,-1.239848709E1,-1.061545753E1,-6.347688198E0
4.862652083E0,-1.242003345E1,-1.064418697E1,-6.484151840E0
4.865050781E0,-1.243918610E1,-1.070164585E1,-6.630192280E0
4.867450312E0,-1.243200397E1,-1.074713326E1,-6.814537525E0
4.869849791E0,-1.236018085E1,-1.081416798E1,-7.070705891E0
4.872248489E0,-1.219019985E1,-1.089077854E1,-7.278992653E0
4.874647187E0,-1.192684937E1,-1.095302582E1,-7.482491016E0
4.877046666E0,-1.168265152E1,-1.105597210E1,-7.635713577E0
4.879446198E0,-1.142408848E1,-1.118285942E1,-7.786541462E0
4.881844843E0,-1.109609699E1,-1.129059410E1,-7.946946144E0
4.884243541E0,-1.081838131E1,-1.141508675E1,-8.102562904E0
4.886643073E0,-1.049038982E1,-1.157070351E1,-8.234237671E0
4.889042552E0,-1.011451626E1,-1.175983715E1,-8.351549149E0
