"Time (s)","Gyroscope x (rad/s)","Gyroscope y (rad/s)","Gyroscope z (rad/s)"
0.000000000E0,3.287096620E-1,-1.006613135E0,-2.610469818E0
2.000000000E-3,3.146597147E-1,-1.045708537E0,-2.619632483E0
4.000000000E-3,2.993881106E-1,-1.077473402E0,-2.627573967E0
6.000000000E-3,2.883925438E-1,-1.097021103E0,-2.629406452E0
8.000000000E-3,2.773969769E-1,-1.131229639E0,-2.632460833E0
1.000000000E-2,2.700665891E-1,-1.148333907E0,-2.637347698E0
1.200000000E-2,2.541840672E-1,-1.181320548E0,-2.642234564E0
1.399971400E-2,2.395233214E-1,-1.211863756E0,-2.639180422E0
1.599946400E-2,2.291386127E-1,-1.229578853E0,-2.637958765E0
1.799924100E-2,2.102017850E-1,-1.261343837E0,-2.633071661E0
1.999904100E-2,1.906540990E-1,-1.293108940E0,-2.626352310E0
2.199885900E-2,1.796585172E-1,-1.309602261E0,-2.621465445E0
2.399869200E-2,1.594999731E-1,-1.339534640E0,-2.609858990E0
2.599853800E-2,1.362870932E-1,-1.368856192E0,-2.596419811E0
2.799839500E-2,1.283458471E-1,-1.382905960E0,-2.592754602E0
2.999812800E-2,1.051329672E-1,-1.404286385E0,-2.575039625E0
3.199787800E-2,9.352651983E-2,-1.415892839E0,-2.567709208E0
3.399764200E-2,7.214623690E-2,-1.436662197E0,-2.546939611E0
3.599741900E-2,5.504200980E-2,-1.449490309E0,-2.531057119E0
3.799720800E-2,4.404643923E-2,-1.454988122E0,-2.523726702E0
3.999700800E-2,2.694221027E-2,-1.461707592E0,-2.507844210E0
4.199681700E-2,1.228144579E-2,-1.465983748E0,-2.491961956E0
4.399663500E-2,3.118467052E-3,-1.465372920E0,-2.482187986E0
4.599637400E-2,-1.398575958E-2,-1.456209898E0,-2.468749046E0
4.799612400E-2,-2.742479555E-2,-1.442770839E0,-2.455309868E0
4.999588400E-2,-3.170085326E-2,-1.432997108E0,-2.452255726E0
5.199565300E-2,-4.452902079E-2,-1.409784198E0,-2.446146965E0
5.399543000E-2,-4.819421470E-2,-1.394512415E0,-2.440649271E0
5.599521500E-2,-5.796805397E-2,-1.361525774E0,-2.432708025E0
5.799500800E-2,-6.529843807E-2,-1.321208596E0,-2.432097197E0
5.999480800E-2,-6.774190068E-2,-1.297384858E0,-2.429042816E0
6.199454100E-2,-7.079622895E-2,-1.248515725E0,-2.425988197E0
6.399427400E-2,-7.079622895E-2,-1.194759488E0,-2.423544884E0
6.599400700E-2,-7.201796025E-2,-1.166659832E0,-2.424155712E0
6.799374000E-2,-6.957449019E-2,-1.108627558E0,-2.422934055E0
6.999347300E-2,-6.468757987E-2,-1.047541022E0,-2.419268847E0
7.199320600E-2,-5.857892334E-2,-1.014554262E0,-2.422934055E0
7.399300600E-2,-4.880508035E-2,-9.565221071E-1,-2.421712399E0
7.599273900E-2,-3.658777103E-2,-9.284223318E-1,-2.420490742E0
7.799247200E-2,-2.925739065E-2,-8.746662140E-1,-2.423544884E0
7.999220500E-2,-1.398575958E-2,-8.215208650E-1,-2.422934055E0
8.199193800E-2,-3.601050703E-3,-7.995297313E-1,-2.422934055E0
8.399167100E-2,1.716836728E-2,-7.543257475E-1,-2.421712399E0
8.599140400E-2,4.160297662E-2,-7.133977413E-1,-2.419879675E0
8.799113700E-2,5.320941657E-2,-6.962935328E-1,-2.421101570E0
8.999093700E-2,7.764402777E-2,-6.614741683E-1,-2.415603876E0
9.199067000E-2,1.039112285E-1,-6.309309602E-1,-2.410716772E0
9.399040300E-2,1.191828623E-1,-6.144375801E-1,-2.408273220E0
9.599013600E-2,1.460609287E-1,-5.832834244E-1,-2.402775526E0
9.798986900E-2,1.729390174E-1,-5.576271415E-1,-2.393612623E0
9.998960200E-2,1.875997782E-1,-5.423554778E-1,-2.388114691E0
1.019893350E-1,2.169213146E-1,-5.240295529E-1,-2.380173683E0
1.039890680E-1,2.315820605E-1,-5.142557025E-1,-2.374675751E0
1.059888680E-1,2.621253431E-1,-5.008166432E-1,-2.364901781E0
1.079886010E-1,2.932794392E-1,-4.934862554E-1,-2.355739117E0
1.099883340E-1,3.054967523E-1,-4.934862554E-1,-2.350241184E0
1.119880670E-1,3.348183036E-1,-4.934862554E-1,-2.339856386E0
1.139877670E-1,3.641398251E-1,-5.008166432E-1,-2.329471588E0
1.159875000E-1,3.775788546E-1,-5.063143969E-1,-2.324584723E0
1.179872330E-1,4.038460553E-1,-5.166991353E-1,-2.317254305E0
1.199869660E-1,4.295023978E-1,-5.295273662E-1,-2.310534954E0
1.219867660E-1,4.411088526E-1,-5.380793810E-1,-2.307480574E0
1.239864990E-1,4.649325907E-1,-5.496858358E-1,-2.300150156E0
1.259862320E-1,4.777607620E-1,-5.564054251E-1,-2.300760984E0
1.279859650E-1,4.979193211E-1,-5.741204619E-1,-2.295263290E0
1.299856980E-1,5.180779099E-1,-5.887812376E-1,-2.292208910E0
1.319854310E-1,5.254082680E-1,-5.967224836E-1,-2.292819738E0
1.339851640E-1,5.449559093E-1,-6.168810129E-1,-2.288543701E0
1.359849640E-1,5.614492893E-1,-6.358178854E-1,-2.292208910E0
1.379847640E-1,5.693905354E-1,-6.413156986E-1,-2.290376186E0
1.399844970E-1,5.840513110E-1,-6.639176607E-1,-2.294041395E0
1.419842300E-1,5.956577659E-1,-6.816327572E-1,-2.296484947E0
1.439839630E-1,6.035990119E-1,-6.920174360E-1,-2.296484947E0
1.459836960E-1,6.127619743E-1,-7.085108161E-1,-2.298928499E0
1.479834290E-1,6.170380116E-1,-7.158411741E-1,-2.300150156E0
1.499831620E-1,6.262009740E-1,-7.286693454E-1,-2.308091402E0
1.519829620E-1,6.329205036E-1,-7.347779870E-1,-2.314199924E0
1.539827620E-1,6.341422796E-1,-7.323346138E-1,-2.315421820E0
1.559824950E-1,6.402509212E-1,-7.274476290E-1,-2.322141409E0
1.579822280E-1,6.445269585E-1,-7.201172709E-1,-2.330082417E0
1.599819610E-1,6.439161301E-1,-7.133977413E-1,-2.336191177E0
1.619816940E-1,6.494138837E-1,-6.969044209E-1,-2.345965147E0
1.639814270E-1,6.524682045E-1,-6.730806231E-1,-2.360625744E0
1.659811600E-1,6.518573761E-1,-6.608633399E-1,-2.369788885E0
1.679809600E-1,6.549116969E-1,-6.345961094E-1,-2.385671377E0
1.699806930E-1,6.561334133E-1,-6.187136173E-1,-2.394223452E0
1.719804260E-1,6.579660177E-1,-5.900030136E-1,-2.414992809E0
1.739801920E-1,6.591877341E-1,-5.612922907E-1,-2.434540510E0
1.759799250E-1,6.610203385E-1,-5.405228734E-1,-2.444925308E0
1.779796580E-1,6.665181518E-1,-5.069252849E-1,-2.469970703E0
1.799793910E-1,6.695724726E-1,-4.757711887E-1,-2.489518404E0
1.819791240E-1,6.720159054E-1,-4.556125998E-1,-2.502957582E0
1.839789240E-1,6.769028306E-1,-4.183498621E-1,-2.524948597E0
1.859786570E-1,6.842331886E-1,-3.786435723E-1,-2.542663574E0
1.879783900E-1,6.878983974E-1,-3.584850430E-1,-2.553048372E0
1.899781230E-1,6.940070987E-1,-3.200005591E-1,-2.567709208E0
1.919778560E-1,6.988939643E-1,-2.992311120E-1,-2.576261282E0
1.939775890E-1,7.068352103E-1,-2.631900609E-1,-2.587256908E0
1.959773220E-1,7.147765160E-1,-2.295924872E-1,-2.591532946E0
1.979770550E-1,7.202742696E-1,-2.149317116E-1,-2.594587088E0
1.999768550E-1,7.282155156E-1,-1.856101900E-1,-2.595197916E0
2.019765880E-1,7.343241572E-1,-1.636190265E-1,-2.590311050E0
2.039763210E-1,7.386001945E-1,-1.526234597E-1,-2.587256908E0
2.059760540E-1,7.453197837E-1,-1.324649006E-1,-2.576261282E0
2.079757870E-1,7.502066493E-1,-1.147498190E-1,-2.559767723E0
2.099755200E-1,7.526501417E-1,-1.055868343E-1,-2.549994230E0
2.119752530E-1,7.605913877E-1,-9.520212561E-2,-2.528002977E0
2.139749860E-1,7.569261789E-1,-8.726087958E-2,-2.515174866E0
2.159747860E-1,7.624239326E-1,-7.504357398E-2,-2.485853195E0
2.179745190E-1,7.660892010E-1,-6.526973099E-2,-2.448590279E0
2.199742520E-1,7.667000294E-1,-5.916107446E-2,-2.430875301E0
2.219739850E-1,7.679217458E-1,-5.610674992E-2,-2.391169071E0
2.239737180E-1,7.679217458E-1,-5.244155973E-2,-2.348408461E0
2.259734510E-1,7.654782534E-1,-5.183069780E-2,-2.325195551E0
2.279731840E-1,7.654782534E-1,-6.038280949E-2,-2.281213284E0
2.299729840E-1,7.673109174E-1,-7.076751441E-2,-2.231733084E0
2.319727840E-1,7.642565966E-1,-7.504357398E-2,-2.207298517E0
2.339725170E-1,7.587587833E-1,-8.665001392E-2,-2.157818556E0
2.359722500E-1,7.563152909E-1,-9.275867045E-2,-2.130940437E0
2.379719830E-1,7.514284253E-1,-1.061976999E-1,-2.085125446E0
2.399717160E-1,7.410436869E-1,-1.123063490E-1,-2.036867142E0
2.419714490E-1,7.324915528E-1,-1.196367368E-1,-2.011821747E0
2.439711820E-1,7.190525532E-1,-1.251345277E-1,-1.965396047E0
2.459709820E-1,7.013374567E-1,-1.324649006E-1,-1.918359399E0
2.479707150E-1,6.940070987E-1,-1.330757737E-1,-1.898200750E0
2.499704480E-1,6.707941890E-1,-1.422387511E-1,-1.853607655E0
2.519701810E-1,6.488030553E-1,-1.520125866E-1,-1.815734029E0
2.539699140E-1,6.365857720E-1,-1.568995267E-1,-1.798018932E0
2.559696470E-1,6.121511459E-1,-1.685059518E-1,-1.757701755E0
2.579693800E-1,6.011555195E-1,-1.764471978E-1,-1.740597606E0
2.599691130E-1,5.736666322E-1,-1.935514361E-1,-1.708221674E0
2.619689130E-1,5.486211777E-1,-2.155425847E-1,-1.674624205E0
2.639686460E-1,5.364038348E-1,-2.283707410E-1,-1.658741713E0
2.659683790E-1,5.070822835E-1,-2.497510314E-1,-1.630030990E0
2.679681120E-1,4.789824784E-1,-2.760182619E-1,-1.603152990E0
2.699678450E-1,4.643217027E-1,-2.906790078E-1,-1.589713812E0
2.719675780E-1,4.350001812E-1,-3.181679249E-1,-1.567722797E0
2.739673110E-1,4.056786597E-1,-3.462677300E-1,-1.546953321E0
2.759670440E-1,3.922396302E-1,-3.584850430E-1,-1.539012074E0
2.779668440E-1,3.604746461E-1,-3.829196393E-1,-1.520075202E0
2.799665770E-1,3.439812660E-1,-3.951369524E-1,-1.515188336E0
2.819663100E-1,3.116053939E-1,-4.183498621E-1,-1.500527620E0
2.839660430E-1,2.804512978E-1,-4.385083914E-1,-1.489531994E0
2.859657760E-1,2.633470893E-1,-4.433953166E-1,-1.485255957E0
2.879655090E-1,2.315820605E-1,-4.592778087E-1,-1.478536367E0
2.899652420E-1,1.943192929E-1,-4.714951217E-1,-1.471206069E0
2.919649750E-1,1.796585172E-1,-4.776037633E-1,-1.468151689E0
2.939647750E-1,1.442283392E-1,-4.879884720E-1,-1.468151689E0
2.959645080E-1,1.118524745E-1,-5.026492476E-1,-1.463875651E0
2.979642410E-1,9.474825114E-2,-5.087578893E-1,-1.463875651E0
2.999639740E-1,6.298325956E-2,-5.166991353E-1,-1.461432099E0
3.019637070E-1,4.648989812E-2,-5.246403813E-1,-1.459599614E0
3.039634400E-1,1.350317709E-2,-5.557944775E-1,-1.461432099E0
3.059631730E-1,-7.266242057E-3,-6.174919009E-1,-1.462653875E0
3.079629730E-1,-1.398575958E-2,-6.700263023E-1,-1.463875651E0
3.099627730E-1,-2.375960350E-2,-8.019732237E-1,-1.468151689E0
3.119625390E-1,-2.925739065E-2,-9.394178987E-1,-1.479758143E0
3.139623050E-1,-3.292258084E-2,-9.895088673E-1,-1.485866785E0
3.159620710E-1,-4.147469625E-2,-1.045708537E0,-1.494418979E0
3.179618370E-1,-3.903123364E-2,-1.022495508E0,-1.501749277E0
3.199616030E-1,-3.719864041E-2,-9.803459048E-1,-1.506636262E0
3.219613690E-1,-2.620306425E-2,-8.630597591E-1,-1.516409993E0
3.239612020E-1,1.896736678E-3,-7.378323078E-1,-1.531070828E0
3.259609680E-1,2.022269368E-2,-6.755241156E-1,-1.538401246E0
3.279607340E-1,5.748547241E-2,-5.820617080E-1,-1.543899059E0
3.299605000E-1,7.642229646E-2,-5.545728207E-1,-1.544509888E0
3.319602660E-1,1.191828623E-1,-5.344142318E-1,-1.542677283E0
3.339600320E-1,1.637760252E-1,-5.637357831E-1,-1.550618529E0
3.359597980E-1,1.869889051E-1,-5.955007076E-1,-1.554894567E0
3.379595640E-1,2.309712023E-1,-6.871305704E-1,-1.581772566E0
3.399593970E-1,2.706774175E-1,-7.860906720E-1,-1.616591930E0
3.419591630E-1,2.841164768E-1,-8.355708122E-1,-1.634307027E0
3.439589290E-1,3.042750359E-1,-9.143724442E-1,-1.667293787E0
3.459586950E-1,3.146597147E-1,-9.534677863E-1,-1.699669719E0
3.479584610E-1,3.152706027E-1,-9.546895027E-1,-1.713719487E0
3.499582270E-1,3.054967523E-1,-9.351418614E-1,-1.725936890E0
3.519579930E-1,3.018315732E-1,-9.143724442E-1,-1.727769375E0
3.539577590E-1,2.908360064E-1,-8.581727743E-1,-1.736932397E0
3.559575920E-1,2.822838724E-1,-8.038057685E-1,-1.736932397E0
3.579573580E-1,2.786186934E-1,-7.744842768E-1,-1.728991270E0
3.599571240E-1,2.706774175E-1,-7.329454422E-1,-1.701502204E0
3.619568900E-1,2.651796639E-1,-7.042347789E-1,-1.670958996E0
3.639566560E-1,2.664014101E-1,-6.962935328E-1,-1.653243899E0
3.659564220E-1,2.664014101E-1,-6.895740628E-1,-1.619035363E0
3.679561880E-1,2.657905221E-1,-6.773566604E-1,-1.576274872E0
3.699559540E-1,2.657905221E-1,-6.639176607E-1,-1.550618529E0
3.719557540E-1,2.554058135E-1,-6.345961094E-1,-1.495029807E0
3.739554870E-1,2.529623508E-1,-6.132158637E-1,-1.463875651E0
3.759552200E-1,2.419667840E-1,-5.606814623E-1,-1.404621720E0
3.779549530E-1,2.291386127E-1,-5.081470609E-1,-1.341091633E0
3.799546860E-1,2.218082249E-1,-4.831015766E-1,-1.308104992E0
3.819544190E-1,2.095909268E-1,-4.397301376E-1,-1.258624911E0
3.839541520E-1,1.955410093E-1,-4.091868699E-1,-1.216475248E0
3.859539520E-1,1.900432259E-1,-4.006347358E-1,-1.201814413E0
3.879537520E-1,1.796585172E-1,-3.847522438E-1,-1.179823279E0
3.899534850E-1,1.686629504E-1,-3.786435723E-1,-1.173714638E0
3.919532180E-1,1.637760252E-1,-3.749784231E-1,-1.176768899E0
3.939529510E-1,1.533913165E-1,-3.700914979E-1,-1.186542869E0
3.959526840E-1,1.503369957E-1,-3.652045727E-1,-1.193262339E0
3.979524170E-1,1.368979514E-1,-3.523764014E-1,-1.212810040E0
3.999521500E-1,1.228480563E-1,-3.297743797E-1,-1.229914308E0
4.019519830E-1,1.142959446E-1,-3.218331337E-1,-1.239077330E0
4.039517830E-1,9.963517636E-2,-2.937333286E-1,-1.253127098E0
4.059515160E-1,8.741787076E-2,-2.583031654E-1,-1.265344501E0
4.079512490E-1,8.192007989E-2,-2.436423749E-1,-1.269009590E0
4.099509820E-1,7.153537869E-2,-2.057687342E-1,-1.275118232E0
4.119507150E-1,6.481585652E-2,-1.599538475E-1,-1.283670425E0
4.139504480E-1,6.237239391E-2,-1.385735571E-1,-1.285502911E0
4.159501810E-1,6.359412521E-2,-8.603914827E-2,-1.291611671E0
4.179499810E-1,6.603758782E-2,-5.916107446E-2,-1.294055104E0
4.199497140E-1,7.642229646E-2,-5.180137232E-4,-1.296498537E0
4.219494470E-1,8.741787076E-2,6.423370540E-2,-1.304439783E0
4.239491800E-1,9.291565418E-2,9.477696568E-2,-1.310548425E0
4.259489130E-1,1.142959446E-1,1.570852250E-1,-1.320322275E0
4.279486460E-1,1.356762201E-1,2.261129916E-1,-1.328874350E0
4.299483790E-1,1.466718018E-1,2.578780055E-1,-1.332539678E0
4.319481120E-1,1.692738235E-1,3.201862574E-1,-1.346589446E0
4.339479120E-1,1.912649721E-1,3.776075840E-1,-1.357585073E0
4.359476450E-1,2.040931433E-1,4.032639265E-1,-1.366137266E0
4.379473780E-1,2.273060083E-1,4.606852531E-1,-1.380187154E0
4.399471110E-1,2.370798439E-1,4.796220660E-1,-1.389960885E0
4.419468440E-1,2.584601343E-1,5.205500722E-1,-1.405232549E0
4.439465770E-1,2.749534845E-1,5.565910935E-1,-1.424780250E0
4.459463100E-1,2.847273648E-1,5.749170780E-1,-1.435164928E0
4.479460430E-1,3.018315732E-1,6.054603457E-1,-1.450436592E0
4.499458430E-1,3.152706027E-1,6.353927255E-1,-1.466319084E0
4.519455760E-1,3.226009905E-1,6.512752175E-1,-1.476703882E0
4.539453090E-1,3.390943706E-1,6.842619181E-1,-1.491975427E0
4.559450420E-1,3.543660045E-1,7.123617530E-1,-1.502360106E0
4.579447750E-1,3.629180789E-1,7.312985063E-1,-1.504803538E0
4.599445080E-1,3.800223172E-1,7.575657368E-1,-1.515799165E0
4.619442080E-1,3.891853094E-1,7.710047364E-1,-1.519464374E0
4.639439410E-1,4.093438387E-1,7.929959297E-1,-1.528627276E0
4.659437410E-1,4.282806814E-1,8.119327426E-1,-1.534125090E0
4.679434740E-1,4.386653602E-1,8.223174214E-1,-1.537179470E0
4.699432070E-1,4.557696283E-1,8.375890851E-1,-1.538401246E0
4.719429400E-1,4.716520905E-1,8.436977267E-1,-1.537790298E0
4.739426730E-1,4.753172994E-1,8.412542939E-1,-1.532292604E0
4.759424060E-1,4.765390456E-1,8.278152347E-1,-1.517020822E0
4.779421390E-1,4.698195159E-1,8.021589518E-1,-1.501138449E0
4.799419390E-1,4.649325907E-1,7.850546837E-1,-1.490142822E0
4.819417390E-1,4.459957480E-1,7.459592819E-1,-1.465097427E0
4.839414720E-1,4.337784648E-1,7.245790362E-1,-1.454712629E0
4.859412050E-1,4.093438387E-1,6.775424480E-1,-1.427834630E0
4.879409380E-1,3.757462800E-1,6.231754422E-1,-1.399123907E0
4.899406710E-1,3.616963923E-1,5.956864357E-1,-1.387517452E0
4.919404040E-1,3.238227367E-1,5.419303179E-1,-1.356974244E0
4.939401370E-1,2.847273648E-1,4.802329540E-1,-1.322154880E0
4.959399370E-1,2.645687759E-1,4.466353357E-1,-1.305661440E0
4.979396700E-1,2.224190831E-1,3.824945092E-1,-1.274507403E0
4.999394030E-1,1.833237112E-1,3.177427649E-1,-1.240298986E0
5.019391360E-1,1.643868834E-1,2.847560346E-1,-1.225027323E0
5.039388690E-1,1.265132427E-1,2.236695290E-1,-1.177990675E0
5.059386020E-1,1.075764224E-1,1.980131865E-1,-1.150501847E0
5.079383350E-1,7.703316212E-2,1.418135762E-1,-1.088804364E0
5.099380680E-1,4.710076377E-2,9.538783133E-2,-1.024663568E0
5.119378680E-1,3.366172686E-2,7.889447361E-2,-9.965637326E-1
5.139376010E-1,1.044884976E-2,3.796649724E-2,-9.452510476E-1
5.159373340E-1,-8.487972431E-3,-5.180137232E-4,-9.134860635E-1
5.179370670E-1,-1.154229883E-2,-1.823310740E-2,-8.969926834E-1
5.199368000E-1,-2.253787220E-2,-5.244155973E-2,-8.756124377E-1
5.219365330E-1,-2.681392990E-2,-7.504357398E-2,-8.554538488E-1
5.239362660E-1,-2.742479555E-2,-8.542828262E-2,-8.475126624E-1
5.259359990E-1,-2.375960350E-2,-9.520212561E-2,-8.340735435E-1
5.279357990E-1,-2.070527896E-2,-9.092607349E-2,-8.261322975E-1
5.299355320E-1,-6.044511683E-3,-8.054135740E-2,-8.108606935E-1
5.319352650E-1,1.472490653E-2,-5.183069780E-2,-7.992542982E-1
5.339349980E-1,3.060740232E-2,-3.167214245E-2,-7.925347090E-1
5.359347310E-1,6.420499086E-2,1.719707809E-2,-7.815392017E-1
5.379344640E-1,1.075764224E-1,8.011619747E-2,-7.760413885E-1
5.399341970E-1,1.350653470E-1,1.155463755E-1,-7.729870677E-1
5.419339300E-1,1.833237112E-1,2.004566491E-1,-7.650457621E-1
5.439337300E-1,2.352472544E-1,3.006385565E-1,-7.607697248E-1
5.459334630E-1,2.602927387E-1,3.531729877E-1,-7.577154040E-1
5.479331960E-1,3.054967523E-1,4.606852531E-1,-7.595480084E-1
5.499329290E-1,3.238227367E-1,5.150522590E-1,-7.626023293E-1
5.519326620E-1,3.641398251E-1,6.329492331E-1,-7.681000829E-1
5.539323950E-1,4.007917345E-1,7.520679832E-1,-7.797065377E-1
5.559321280E-1,4.142307639E-1,8.125436306E-1,-7.876478434E-1
5.579319280E-1,4.429414272E-1,9.298297763E-1,-8.029194474E-1
5.599317280E-1,4.692086577E-1,1.055057168E0,-8.200236559E-1
5.619314610E-1,4.857020080E-1,1.113700151E0,-8.316301107E-1
5.639311940E-1,5.138018131E-1,1.227931976E0,-8.511778116E-1
5.659309270E-1,5.480102301E-1,1.333611727E0,-8.713363409E-1
5.679306600E-1,5.675579906E-1,1.387978673E0,-8.835536242E-1
5.699303930E-1,6.054315567E-1,1.480830193E0,-9.012687206E-1
5.719301260E-1,6.445269585E-1,1.565740466E0,-9.244816303E-1
5.739299260E-1,6.659072638E-1,1.610333562E0,-9.312011600E-1
5.759296590E-1,7.031700611E-1,1.690356970E0,-9.476945400E-1
5.779293920E-1,7.245503068E-1,1.733728409E0,-9.568575025E-1
5.799291250E-1,7.624239326E-1,1.819860458E0,-9.745725989E-1
5.819288580E-1,8.094605803E-1,1.905381560E0,-9.910659194E-1
5.839285910E-1,8.326734900E-1,1.943255305E0,-9.947311282E-1
5.859283240E-1,8.852078915E-1,2.029387236E0,-1.011835337E0
5.879280570E-1,9.383531213E-1,2.098415136E0,-1.022220135E0
5.899278570E-1,9.731724858E-1,2.152781963E0,-1.028328776E0
5.919275900E-1,1.037924170E0,2.240746498E0,-1.036270022E0
5.939273230E-1,1.113671541E0,2.317104816E0,-1.038102508E0
5.959270560E-1,1.152155995E0,2.351313114E0,-1.041767716E0
5.979267890E-1,1.236455441E0,2.419729948E0,-1.049708962E0
5.999265220E-1,1.284102917E0,2.451495171E0,-1.050930738E0
6.019262550E-1,1.384284735E0,2.498531818E0,-1.055206776E0
6.039259880E-1,1.510733843E0,2.495477200E0,-1.055817604E0
6.059257880E-1,1.587702870E0,2.464323282E0,-1.057650328E0
6.079255210E-1,1.770962477E0,2.359254360E0,-1.071089268E0
6.099252540E-1,1.989041328E0,2.199207783E0,-1.086360931E0
6.119249870E-1,2.100218773E0,2.118573427E0,-1.097967386E0
6.139247200E-1,2.324406385E0,1.948752880E0,-1.110795498E0
6.159244530E-1,2.551648140E0,1.775878191E0,-1.116293311E0
6.179241860E-1,2.661603928E0,1.691578746E0,-1.112628222E0
6.199239190E-1,2.874795914E0,1.523590803E0,-1.105908513E0
6.219237190E-1,2.981697559E0,1.438680530E0,-1.098578215E0
6.239234520E-1,3.194278479E0,1.257253528E0,-1.072311044E0
6.259231850E-1,3.404416323E0,1.051391959E0,-1.034437418E0
6.279229180E-1,3.512539387E0,9.273862839E-1,-1.004505038E0
6.299226510E-1,3.706183672E0,5.846909285E-1,-8.927165866E-1
6.319223840E-1,3.889443159E0,1.192115694E-1,-7.277830243E-1
6.339221170E-1,3.973742723E0,-1.190258712E-1,-6.477596164E-1
6.359219170E-1,4.114241600E0,-5.478532910E-1,-4.803825915E-1
6.379217170E-1,4.219310760E0,-8.288512826E-1,-3.197250366E-1
6.399214500E-1,4.261459827E0,-8.991007805E-1,-2.409234196E-1
6.419211830E-1,4.331709385E0,-9.180375934E-1,-8.637451380E-2
6.439209160E-1,4.352478981E0,-8.826074004E-1,-1.123808790E-2
6.459206490E-1,4.359198570E0,-7.414975762E-1,1.262065917E-1
6.479203820E-1,4.315827370E0,-5.521293283E-1,2.398275286E-1
6.499201150E-1,4.276121140E0,-4.470605254E-1,2.850315571E-1
6.519199150E-1,4.182658672E0,-2.662443817E-1,3.565027714E-1
6.539197150E-1,4.119128227E0,-2.014926821E-1,3.943764269E-1
6.559194480E-1,4.127680779E0,-2.515836358E-1,3.986524940E-1
6.579191810E-1,4.241301537E0,-4.959297180E-1,3.699418306E-1
6.599189140E-1,4.361031055E0,-6.626959443E-1,3.235160410E-1
6.619186470E-1,4.416008949E0,-7.207281590E-1,2.972488701E-1
6.639183800E-1,4.504584312E0,-7.848690152E-1,2.636512816E-1
6.659181130E-1,4.538793087E0,-7.983080149E-1,2.453253120E-1
6.679179130E-1,4.585829735E0,-8.093035817E-1,2.190581113E-1
6.699176460E-1,4.621870518E0,-8.202992082E-1,1.964561045E-1
6.719173790E-1,4.641418457E0,-8.374033570E-1,1.866822541E-1
6.739171120E-1,4.684178829E0,-9.052094221E-1,1.653019786E-1
6.759168450E-1,4.736102581E0,-1.006002188E0,1.500303298E-1
6.779165780E-1,4.766645432E0,-1.063423634E0,1.420890987E-1
6.799163110E-1,4.811238766E0,-1.163605452E0,1.365913153E-1
6.819160440E-1,4.846057892E0,-1.246683121E0,1.292609274E-1
6.839158440E-1,4.860107899E0,-1.284556746E0,1.249848604E-1
6.859155770E-1,4.877823353E0,-1.357860565E0,1.127675548E-1
6.879153100E-1,4.883931637E0,-1.392679930E0,1.036045775E-1
6.899150430E-1,4.836894989E0,-1.494694471E0,1.029937118E-1
6.919147760E-1,4.656690121E0,-1.632139087E0,1.243739948E-1
6.939145090E-1,4.566281796E0,-1.591211081E0,1.500303298E-1
6.959142420E-1,4.427004337E0,-1.467816234E0,1.921800375E-1
6.979139750E-1,4.290781975E0,-1.323652148E0,1.958452314E-1
6.999137750E-1,4.221754074E0,-1.263176560E0,1.903474480E-1
7.019135080E-1,4.065372467E0,-1.177044392E0,1.805735976E-1
7.039132410E-1,3.858289003E0,-1.096410275E0,1.976778209E-1
7.059129740E-1,3.732450724E0,-1.054260612E0,2.117277235E-1
7.079127070E-1,3.449009180E0,-9.614090323E-1,2.294428200E-1
7.099124400E-1,3.293238878E0,-9.015442729E-1,2.379949391E-1
7.119121730E-1,2.959706306E0,-7.860906720E-1,2.410492599E-1
7.139119060E-1,2.618843555E0,-6.468133926E-1,2.166146487E-1
7.159117060E-1,2.451466322E0,-5.686227083E-1,1.915691644E-1
7.179114720E-1,2.130762100E0,-3.865848482E-1,1.292609274E-1
7.199112380E-1,1.836325049E0,-1.617864370E-1,5.840054899E-2
7.219110040E-1,1.693993449E0,-3.594819456E-2,2.480296046E-2
7.239107700E-1,1.433764935E0,2.303890586E-1,-4.117048532E-2
7.259105360E-1,1.196749091E0,5.205500722E-1,-9.737008810E-2
7.279103020E-1,1.084349990E0,6.677685380E-1,-1.163069084E-1
7.299101350E-1,8.766557574E-1,9.609838724E-1,-1.566240191E-1
7.319099680E-1,7.844151258E-1,1.106369734E0,-1.712847799E-1
7.339097340E-1,6.188706160E-1,1.386146069E0,-2.030497789E-1
7.359095000E-1,4.777607620E-1,1.649428964E0,-2.262626439E-1
7.379092330E-1,4.172850847E-1,1.776489019E0,-2.378690988E-1
7.399089990E-1,3.128271401E-1,2.008617878E0,-2.543624640E-1
7.419087650E-1,2.309712023E-1,2.210814238E0,-2.604711056E-1
7.439085310E-1,1.961518824E-1,2.303055048E0,-2.574167848E-1
7.459083640E-1,1.430066079E-1,2.463712454E0,-2.488646656E-1
7.479081300E-1,1.094090194E-1,2.589550495E0,-2.262626439E-1
7.499078960E-1,9.902431071E-2,2.642085075E0,-2.128236294E-1
7.519076620E-1,9.535911679E-2,2.720886707E0,-1.767825633E-1
7.539074280E-1,9.719171375E-2,2.745932102E0,-1.523479670E-1
7.559071940E-1,1.191828623E-1,2.773421049E0,-9.981354326E-2
7.579069600E-1,1.540021747E-1,2.770366669E0,-4.483567923E-2
7.599067260E-1,1.772150546E-1,2.756927729E0,-1.429241337E-2
7.619065590E-1,2.328038067E-1,2.713556051E0,4.923757166E-2
7.639063250E-1,2.969446480E-1,2.643917799E0,1.158218831E-1
7.659060910E-1,3.335965574E-1,2.598102808E0,1.518629342E-1
7.679058570E-1,4.093438387E-1,2.490590572E0,2.166146487E-1
7.699056230E-1,4.893671870E-1,2.366584778E0,2.850315571E-1
7.719053890E-1,5.321277380E-1,2.295113564E0,3.186291456E-1
7.739051550E-1,6.207032204E-1,2.149727583E0,3.833808601E-1
7.759049210E-1,6.634638309E-1,2.075202227E0,4.157567024E-1
7.779047210E-1,7.532609701E-1,1.918820500E0,4.792867005E-1
7.799044540E-1,8.400038481E-1,1.762439132E0,5.379297733E-1
7.819041870E-1,8.833752871E-1,1.684859276E0,5.648078322E-1
7.839039200E-1,9.676746726E-1,1.536418915E0,6.185639501E-1
7.859036530E-1,1.052585006E0,1.397141695E0,6.717092395E-1
7.879033860E-1,1.091069460E0,1.330557346E0,6.961438656E-1
7.899031190E-1,1.169260263E0,1.210216880E0,7.444022298E-1
7.919028520E-1,1.241342306E0,1.101482868E0,7.920497060E-1
7.939026520E-1,1.271885633E0,1.054446340E0,8.134300113E-1
7.959023850E-1,1.336026430E0,9.744229317E-1,8.513036370E-1
7.979021510E-1,1.392226100E0,9.383819103E-1,8.714622259E-1
7.999018840E-1,1.416660666E0,8.803496957E-1,9.050597548E-1
8.019016170E-1,1.464918971E0,8.412542939E-1,9.337704182E-1
8.039013500E-1,1.482634068E0,8.278152347E-1,9.484311938E-1
8.059010830E-1,1.516231656E0,8.119327426E-1,9.746984243E-1
8.079008830E-1,1.545553207E0,8.168197274E-1,9.936352372E-1
8.099006830E-1,1.556548834E0,8.265935183E-1,1.002798200E0
8.119004160E-1,1.573652983E0,8.534716368E-1,1.016848087E0
8.139001490E-1,1.590146303E0,8.943995833E-1,1.030287147E0
8.158998820E-1,1.593811512E0,9.194450974E-1,1.032119751E0
8.178996150E-1,1.601752758E0,9.823641181E-1,1.041282773E0
8.198993480E-1,1.609083295E0,1.055057168E0,1.044947863E0
8.218990810E-1,1.609083295E0,1.095374227E0,1.046780467E0
8.238988810E-1,1.613970041E0,1.181506276E0,1.049224019E0
8.258986140E-1,1.616413593E0,1.227321148E0,1.050445676E0
8.278983470E-1,1.621300578E0,1.320172548E0,1.051056504E0
8.298980800E-1,1.624354839E0,1.414245844E0,1.051056504E0
8.318978130E-1,1.627409220E0,1.468002081E0,1.052278280E0
8.338975460E-1,1.632907033E0,1.559631824E0,1.053500056E0
8.358972790E-1,1.639626503E0,1.648818135E0,1.057776093E0
8.378970120E-1,1.644513369E0,1.690356970E0,1.061441302E0
8.398968120E-1,1.656119823E0,1.767325997E0,1.070604205E0
8.418967120E-1,1.673834920E0,1.828412533E0,1.089541197E0
8.438964450E-1,1.687884808E0,1.854068875E0,1.099314928E0
8.458961780E-1,1.715373755E0,1.881557822E0,1.124971271E0
8.478959110E-1,1.731256247E0,1.888277292E0,1.134745121E0
8.498956440E-1,1.769129872E0,1.886444688E0,1.164066672E0
8.518953770E-1,1.807614326E0,1.857733965E0,1.198275089E0
8.538951100E-1,1.828994632E0,1.838186383E0,1.214157581E0
8.558949100E-1,1.869922638E0,1.780765057E0,1.250198603E0
8.578946430E-1,1.914515853E0,1.697076559E0,1.288683057E0
8.598943760E-1,1.935285330E0,1.651261568E0,1.305176497E0
8.618941090E-1,1.978656650E0,1.541305900E0,1.343050122E0
8.638938420E-1,2.015308619E0,1.419132829E0,1.376647711E0
8.658935750E-1,2.036688805E0,1.353159428E0,1.393751979E0
8.678933080E-1,2.070286274E0,1.220601559E0,1.428571343E0
8.698930410E-1,2.085558176E0,1.151573896E0,1.445064664E0
8.718928410E-1,2.108160257E0,1.017794371E0,1.478662252E0
8.738925740E-1,2.126486063E0,8.864583373E-1,1.509816408E0
8.758923070E-1,2.134427309E0,8.278152347E-1,1.522644520E0
8.778920400E-1,2.143590450E0,7.117508650E-1,1.545857430E0
8.798917730E-1,2.144201279E0,6.103472114E-1,1.565405130E0
8.818915060E-1,2.139925003E0,5.620888472E-1,1.573957324E0
8.838912390E-1,2.130762100E0,4.796220660E-1,1.588007092E0
8.858910390E-1,2.113657951E0,4.075399637E-1,1.600835323E0
8.878908390E-1,2.102662325E0,3.800510168E-1,1.599613547E0
8.898905720E-1,2.076395035E0,3.342361450E-1,1.606943965E0
8.918903050E-1,2.059290886E0,3.165210485E-1,1.606333137E0
8.938900380E-1,2.023249865E0,2.969733477E-1,1.609387398E0
8.958897710E-1,1.978045821E0,2.865886390E-1,1.602056980E0
8.978895040E-1,1.956665516E0,2.914755940E-1,1.602056980E0
8.998892370E-1,1.903520226E0,3.036928773E-1,1.594726682E0
9.018888700E-1,1.846098900E0,3.311818242E-1,1.584952712E0
9.038886700E-1,1.817388296E0,3.458425999E-1,1.579454899E0
9.058884030E-1,1.753858328E0,3.800510168E-1,1.566626787E0
9.078881360E-1,1.691550016E0,4.264768064E-1,1.551355243E0
9.098878690E-1,1.661006689E0,4.472462237E-1,1.542192221E0
9.118876020E-1,1.597476840E0,4.973371625E-1,1.523866296E0
9.138873350E-1,1.564489961E0,5.229935050E-1,1.514092445E0
9.158870680E-1,1.505846977E0,5.779713988E-1,1.490268707E0
9.178868680E-1,1.448425651E0,6.421122551E-1,1.468277574E0
9.198866010E-1,1.419714928E0,6.750989556E-1,1.458503604E0
9.218863340E-1,1.365347981E0,7.416833043E-1,1.434069037E0
9.238860670E-1,1.317700386E0,8.064349890E-1,1.415743113E0
9.258858000E-1,1.296931028E0,8.430868983E-1,1.407801867E0
9.278855330E-1,1.256003022E0,9.072276950E-1,1.400471449E0
9.298852660E-1,1.217518568E0,9.664816856E-1,1.394362807E0
9.318849990E-1,1.202857733E0,9.951923490E-1,1.395584583E0
9.338847990E-1,1.172314525E0,1.042229056E0,1.403525829E0
9.358845320E-1,1.159486294E0,1.062387586E0,1.408412695E0
9.378842650E-1,1.136884451E0,1.092930794E0,1.426738620E0
9.398839980E-1,1.120391011E0,1.111867547E0,1.445064664E0
9.418837310E-1,1.114282370E0,1.117976189E0,1.458503604E0
9.438834640E-1,1.099010706E0,1.117976189E0,1.481716514E0
9.458831640E-1,1.090458632E0,1.103315473E0,1.506762028E0
9.478828970E-1,1.085571647E0,1.093541622E0,1.521422863E0
9.498826970E-1,1.075797796E0,1.056889772E0,1.547690034E0
9.518824630E-1,1.068467379E0,1.005576968E0,1.570902944E0
9.538822290E-1,1.061747909E0,9.793097973E-1,1.584952712E0
9.558819950E-1,1.047087193E0,9.157798290E-1,1.606943965E0
9.578817610E-1,1.040978551E0,8.785170913E-1,1.616717815E0
9.598815270E-1,1.025706887E0,8.003262877E-1,1.632600307E0
9.618812930E-1,1.002493978E0,7.209138274E-1,1.649704456E0
9.638810590E-1,9.902767539E-1,6.793749928E-1,1.657645702E0
9.658808920E-1,9.633986354E-1,5.932430029E-1,1.671695709E0
9.678806920E-1,9.310227633E-1,5.101653337E-1,1.686356425E0
9.698804920E-1,9.139184952E-1,4.716808200E-1,1.688799977E0
9.718802920E-1,8.790992498E-1,3.928792179E-1,1.702238917E0
9.738800920E-1,8.387821317E-1,3.189645112E-1,1.708347559E0
9.758798920E-1,8.186236024E-1,2.817017138E-1,1.712012768E0
9.778796920E-1,7.740303874E-1,2.132848203E-1,1.712623715E0
9.798795580E-1,7.557044625E-1,1.833524257E-1,1.713234544E0
9.818794240E-1,7.105004191E-1,1.192115694E-1,1.707736731E0
9.838792900E-1,6.616312265E-1,5.995764583E-2,1.700406313E0
9.858791560E-1,6.384183168E-1,3.491216898E-2,1.696741104E0
9.878790220E-1,5.907708406E-1,-1.578964479E-2,1.686356425E0
9.898788880E-1,5.437341928E-1,-6.526973099E-2,1.672917366E0
9.918787540E-1,5.174669623E-1,-9.031520784E-2,1.664976239E0
9.938786200E-1,4.710412621E-1,-1.361300945E-1,1.649704456E0
9.958785530E-1,4.227828979E-1,-1.819449961E-1,1.631378531E0
9.978784190E-1,3.983482718E-1,-2.039361447E-1,1.623437285E0
9.998782850E-1,3.513116539E-1,-2.552488148E-1,1.605111361E0
1.001878151E0,3.299313784E-1,-2.772399485E-1,1.598391891E0
1.003878017E0,2.902251184E-1,-3.181679249E-1,1.581287622E0
1.005877917E0,2.523514926E-1,-3.572632968E-1,1.569070339E0
1.007877783E0,2.376907170E-1,-3.707023561E-1,1.558685541E0
1.009877649E0,2.083691806E-1,-3.975804150E-1,1.550133467E0
1.011877549E0,1.894323677E-1,-4.122411907E-1,1.540970445E0
1.013877382E0,1.845454425E-1,-4.128520489E-1,1.537305355E0
1.015877215E0,1.753824651E-1,-4.110194743E-1,1.525088072E0
1.017877048E0,1.729390174E-1,-4.085759819E-1,1.519590259E0
1.019876881E0,1.778259277E-1,-4.012455940E-1,1.518368483E0
1.021876714E0,1.906540990E-1,-3.871957064E-1,1.509816408E0
1.023876547E0,2.004279494E-1,-3.762001395E-1,1.509816408E0
1.025876380E0,2.218082249E-1,-3.609285057E-1,1.503096819E0
1.027876246E0,2.499080151E-1,-3.364939094E-1,1.496988177E0
1.029876046E0,2.657905221E-1,-3.242765665E-1,1.495155692E0
1.031875846E0,3.042750359E-1,-2.967876494E-1,1.489657879E0
1.033875646E0,3.458138704E-1,-2.644118071E-1,1.483549237E0
1.035875446E0,3.665832877E-1,-2.466966957E-1,1.481105685E0
1.037875246E0,4.154525101E-1,-2.008818239E-1,1.476218700E0
1.039875046E0,4.631000161E-1,-1.556777805E-1,1.468277574E0
1.041874846E0,4.869237244E-1,-1.312431842E-1,1.465223312E0
1.043874646E0,5.309060812E-1,-7.993049920E-2,1.457892776E0
1.045874379E0,5.687796474E-1,-2.373089269E-2,1.456671119E0
1.047874112E0,5.871056318E-1,3.758043051E-3,1.452394962E0
1.049873845E0,6.115401983E-1,6.117937341E-2,1.446286321E0
1.051873578E0,6.194815040E-1,9.538783133E-2,1.445064664E0
1.053873311E0,6.213141084E-1,1.497548372E-1,1.437123418E0
1.055873044E0,6.097076535E-1,2.053435743E-1,1.427960396E0
1.057872844E0,5.944360495E-1,2.285564542E-1,1.421240926E0
1.059872644E0,5.559515357E-1,2.688735723E-1,1.405969262E0
1.061872377E0,4.991410375E-1,3.006385565E-1,1.391308427E0
1.063872110E0,4.637108743E-1,3.128558695E-1,1.377258658E0
1.065871843E0,3.781897426E-1,3.299600780E-1,1.350991488E0
1.067871576E0,2.828947306E-1,3.421773911E-1,1.316782951E0
1.069871309E0,2.273060083E-1,3.421773911E-1,1.300900459E0
1.071871042E0,1.149068102E-1,3.458425999E-1,1.263637662E0
1.073870842E0,5.259855092E-2,3.470642865E-1,1.241035700E0
1.075870642E0,-7.690487802E-2,3.446208537E-1,1.195831656E0
1.077870375E0,-2.094626278E-1,3.403447866E-1,1.146962404E0
1.079870108E0,-2.742143571E-1,3.403447866E-1,1.121306062E0
1.081869841E0,-4.116590321E-1,3.348470032E-1,1.067549944E0
1.083869574E0,-5.429950356E-1,3.311818242E-1,1.010739446E0
1.085869307E0,-6.083576679E-1,3.299600780E-1,9.820287824E-1
1.087869040E0,-7.323632836E-1,3.256840110E-1,9.191097021E-1
1.089868840E0,-8.551472425E-1,3.269057572E-1,8.568014503E-1
1.091868573E0,-9.113467932E-1,3.287383318E-1,8.274798989E-1
1.093868306E0,-1.018859029E0,3.305709660E-1,7.584521770E-1
1.095868039E0,-1.072004437E0,3.317926824E-1,7.266871333E-1
1.097867772E0,-1.167299271E0,3.336252868E-1,6.631571651E-1
1.099867505E0,-1.253431439E0,3.330143988E-1,5.990163088E-1
1.101867238E0,-1.296191931E0,3.336252868E-1,5.678621531E-1
1.103866971E0,-1.366441369E0,3.287383318E-1,5.092191100E-1
1.105866771E0,-1.428138852E0,3.226296902E-1,4.511868954E-1
1.107866504E0,-1.456849456E0,3.189645112E-1,4.243088365E-1
1.109866237E0,-1.503275275E0,3.159101903E-1,3.729961514E-1
1.111865970E0,-1.539316297E0,3.061363399E-1,3.216834664E-1
1.113865703E0,-1.555809736E0,2.975842357E-1,2.972488701E-1
1.115865436E0,-1.576579094E0,2.841452062E-1,2.550991476E-1
1.117865169E0,-1.583909392E0,2.780365348E-1,2.337188721E-1
1.119864902E0,-1.593072414E0,2.627649009E-1,1.946235001E-1
1.121864702E0,-1.593683243E0,2.456606776E-1,1.616367847E-1
1.123864435E0,-1.588796377E0,2.407737523E-1,1.433108151E-1
1.125864168E0,-1.582076907E0,2.224477977E-1,1.133784279E-1
1.127863901E0,-1.565583467E0,2.114522308E-1,8.588948846E-2
1.129863634E0,-1.555809736E0,2.022892386E-1,7.611563802E-2
1.131863367E0,-1.531985879E0,1.894610822E-1,5.168103427E-2
1.133863100E0,-1.505718589E0,1.711351126E-1,3.518767282E-2
1.135862833E0,-1.490447044E0,1.656373292E-1,2.602469176E-2
1.137862633E0,-1.458682060E0,1.479222476E-1,1.014219597E-2
1.139862366E0,-1.440356135E0,1.399809867E-1,4.644408356E-3
1.141862099E0,-1.401871562E0,1.186007112E-1,3.683517571E-4
1.143861832E0,-1.363387108E0,1.008856222E-1,-2.685974585E-3
1.145861565E0,-1.343839407E0,9.050090611E-2,-2.075109165E-3
1.147861298E0,-1.300467968E0,7.095322013E-2,-3.907705192E-3
1.149861031E0,-1.256485701E0,4.957293719E-2,-8.533787914E-4
1.151860831E0,-1.233272791E0,3.796649724E-2,1.590082305E-3
1.153860631E0,-1.187457919E0,1.658621430E-2,7.698734757E-3
1.155860364E0,-1.139199615E0,-4.794070031E-3,1.625084877E-2
1.157860097E0,-1.116597533E0,-1.884397119E-2,2.235950157E-2
1.159859830E0,-1.070782542E0,-4.083511978E-2,3.335507587E-2
1.161859563E0,-1.046958804E0,-5.244155973E-2,3.518767282E-2
1.163859296E0,-1.001754880E0,-7.626530528E-2,4.679410905E-2
1.165859029E0,-9.596051574E-1,-9.886731952E-2,5.534622073E-2
1.167858829E0,-9.382248521E-1,-1.104737520E-1,6.145487726E-2
1.169858562E0,-8.948534727E-1,-1.318540275E-1,6.756352633E-2
1.171858295E0,-8.533146381E-1,-1.507908702E-1,7.183958590E-2
1.173858028E0,-8.343778253E-1,-1.630081683E-1,7.367218286E-2
1.175857761E0,-7.946715951E-1,-1.849993169E-1,6.878525764E-2
1.177857494E0,-7.525218725E-1,-2.082121968E-1,7.183958590E-2
1.179857227E0,-7.378610969E-1,-2.167643160E-1,6.512007117E-2
1.181856960E0,-7.054852247E-1,-2.295924872E-1,6.512007117E-2
1.183856760E0,-6.889919043E-1,-2.381445915E-1,6.267660856E-2
1.185856493E0,-6.633355021E-1,-2.521944940E-1,5.901141465E-2
1.187856226E0,-6.376792192E-1,-2.613574862E-1,5.778968334E-2
1.189855959E0,-6.272944808E-1,-2.692987323E-1,5.412449315E-2
1.191855692E0,-6.089684963E-1,-2.857920825E-1,4.679410905E-2
1.193855425E0,-5.936968923E-1,-3.065614998E-1,4.251805320E-2
1.195855158E0,-5.875881910E-1,-3.151136041E-1,3.885286301E-2
1.197854891E0,-5.772035122E-1,-3.303852677E-1,3.335507587E-2
1.199854691E0,-5.668187737E-1,-3.450460136E-1,2.785728872E-2
1.201854424E0,-5.619319081E-1,-3.481003344E-1,2.358123101E-2
1.203854157E0,-5.570449829E-1,-3.542089760E-1,2.174863592E-2
1.205853890E0,-5.570449829E-1,-3.542089760E-1,1.869430952E-2
1.207853623E0,-5.503254533E-1,-3.535981178E-1,1.869430952E-2
1.209853356E0,-5.436059833E-1,-3.426025510E-1,1.808344387E-2
1.211853089E0,-5.411624908E-1,-3.328287005E-1,1.686171256E-2
1.213852822E0,-5.332211852E-1,-3.145027459E-1,2.052690461E-2
1.215852622E0,-5.258908272E-1,-2.857920825E-1,2.052690461E-2
1.217852355E0,-5.234473944E-1,-2.735747695E-1,2.174863592E-2
1.219852088E0,-5.173387527E-1,-2.381445915E-1,2.052690461E-2
1.221851821E0,-5.118409395E-1,-2.027144134E-1,2.113777027E-2
1.223851554E0,-5.106192231E-1,-1.788906753E-1,1.808344387E-2
1.225851287E0,-5.038996935E-1,-1.367409676E-1,1.686171256E-2
1.227851020E0,-5.014562607E-1,-1.147498190E-1,1.625084877E-2
1.229850820E0,-4.965693057E-1,-6.893492490E-2,1.014219597E-2
1.231850620E0,-4.910714924E-1,-2.189829573E-2,7.698734757E-3
1.233850353E0,-4.892389178E-1,1.925447257E-3,2.200947609E-3
1.235850086E0,-4.825194180E-1,5.140553415E-2,-2.075109165E-3
1.237849819E0,-4.776324630E-1,1.008856222E-1,-1.245981921E-2
1.239849552E0,-4.770216048E-1,1.271528304E-1,-1.490327902E-2
1.241849285E0,-4.666368961E-1,1.784655005E-1,-1.979020052E-2
1.243849018E0,-4.580847919E-1,2.248912603E-1,-2.589885332E-2
1.245848818E0,-4.562521875E-1,2.468824089E-1,-2.773144841E-2
1.247848551E0,-4.464783669E-1,2.847560346E-1,-3.384010494E-2
1.249848284E0,-4.397588372E-1,3.000276685E-1,-3.384010494E-2
1.251848017E0,-4.287632704E-1,3.305709660E-1,-4.055961967E-2
1.253847750E0,-4.177677035E-1,3.488969207E-1,-4.483567923E-2
1.255847483E0,-4.147133529E-1,3.531729877E-1,-4.605740681E-2
1.257847216E0,-4.012743235E-1,3.629468083E-1,-5.033346266E-2
1.259846949E0,-3.896678686E-1,3.647793829E-1,-5.644211546E-2
1.261846749E0,-3.798940480E-1,3.653902709E-1,-5.888557807E-2
1.263846482E0,-3.652332723E-1,3.611142039E-1,-6.071817502E-2
1.265846215E0,-3.456855714E-1,3.550055623E-1,-6.132903695E-2
1.267845948E0,-3.377443552E-1,3.458425999E-1,-6.132903695E-2
1.269845681E0,-3.188075125E-1,3.415665329E-1,-5.949643999E-2
1.271845414E0,-2.937620580E-1,3.336252868E-1,-5.827471241E-2
1.273845147E0,-2.821556032E-1,3.220188320E-1,-5.155519396E-2
1.275844880E0,-2.564992607E-1,3.073580563E-1,-4.666827247E-2
1.277844680E0,-2.412276268E-1,3.000276685E-1,-4.178135097E-2
1.279844413E0,-2.119060904E-1,2.786473930E-1,-3.384010494E-2
1.281844146E0,-1.831954420E-1,2.584888637E-1,-2.528798953E-2
1.283843879E0,-1.703672707E-1,2.468824089E-1,-2.223366126E-2
1.285843612E0,-1.373805404E-1,2.255021185E-1,-1.490327902E-2
1.287843345E0,-1.062264070E-1,1.986240596E-1,-1.123808790E-2
1.289843078E0,-9.095478058E-2,1.870176196E-1,-6.962031592E-3
1.291842811E0,-5.980065092E-2,1.595286876E-1,-2.425135026E-4
1.293842611E0,-2.803565934E-2,1.344832033E-1,4.033543169E-3
1.295842344E0,-1.398575958E-2,1.228767633E-1,5.866138730E-3
1.297842077E0,1.594663784E-2,9.477696568E-2,1.441825181E-2
1.299841810E0,3.182913363E-2,8.072706312E-2,1.563998312E-2
1.301841543E0,5.931806937E-2,5.629245192E-2,2.358123101E-2
1.303841276E0,8.558527380E-2,3.002524935E-2,2.724642120E-2
1.305841009E0,9.902431071E-2,1.780794375E-2,3.213334456E-2
1.307840809E0,1.271241158E-1,-4.794070031E-3,4.068545997E-2
1.309840609E0,1.478935182E-1,-2.617435530E-2,4.679410905E-2
1.311840342E0,1.607216895E-1,-3.716992959E-2,5.045929924E-2
1.313840075E0,1.808802485E-1,-5.244155973E-2,5.717881769E-2
1.315839808E0,2.034822702E-1,-6.710232794E-2,6.450919807E-2
1.317839541E0,2.114235163E-1,-7.137838006E-2,6.634179503E-2
1.319839274E0,2.297494709E-1,-7.870876044E-2,7.550477237E-2
1.321839007E0,2.401341796E-1,-7.626530528E-2,7.550477237E-2
1.323838807E0,2.578492761E-1,-7.198925316E-2,8.283516020E-2
1.325838607E0,2.743426263E-1,-6.404799968E-2,8.650035411E-2
1.327838340E0,2.822838724E-1,-5.793934688E-2,8.711121231E-2
1.329838073E0,2.969446480E-1,-4.266771674E-2,9.321986884E-2
1.331837806E0,3.103837073E-1,-1.701137610E-2,9.444160014E-2
1.333837539E0,3.146597147E-1,-6.015800871E-3,9.749592841E-2
1.335837272E0,3.219901025E-1,2.697092295E-2,1.005502567E-1
1.337837005E0,3.293204904E-1,6.484456360E-2,1.036045775E-1
1.339836805E0,3.305422366E-1,8.500312269E-2,1.036045775E-1
1.341836571E0,3.348183036E-1,1.259310842E-1,1.066589057E-1
1.343836337E0,3.360400498E-1,1.473113745E-1,1.103240997E-1
1.345836103E0,3.378726244E-1,1.943479925E-1,1.152110249E-1
1.347835869E0,3.329856992E-1,2.413846254E-1,1.139892861E-1
1.349835635E0,3.299313784E-1,2.658192515E-1,1.133784279E-1
1.351835401E0,3.226009905E-1,3.171319366E-1,1.158218831E-1
1.353835167E0,3.146597147E-1,3.666119874E-1,1.139892861E-1
1.355835000E0,3.091619611E-1,3.971552849E-1,1.146001518E-1
1.357834766E0,2.993881106E-1,4.478570819E-1,1.115458310E-1
1.359834532E0,2.865599394E-1,5.083327293E-1,1.097132340E-1
1.361834298E0,2.786186934E-1,5.413194299E-1,1.066589057E-1
1.363834064E0,2.670122683E-1,6.109580398E-1,9.749592841E-2
1.365833830E0,2.572384179E-1,6.500534415E-1,9.077640623E-2
1.367833596E0,2.413559109E-1,7.251898646E-1,7.916996628E-2
1.369833362E0,2.242516726E-1,8.137654066E-1,6.573093683E-2
1.371833195E0,2.218082249E-1,8.638563156E-1,5.412449315E-2
1.373832961E0,2.071474642E-1,9.628164768E-1,3.579853475E-2
1.375832727E0,1.924866885E-1,1.064830899E0,1.869430952E-2
1.377832493E0,1.833237112E-1,1.117365360E0,7.698734757E-3
1.379832259E0,1.686629504E-1,1.227931976E0,-1.062722318E-2
1.381832025E0,1.546130478E-1,1.339109540E0,-2.650971897E-2
1.383831791E0,1.497261226E-1,1.389811277E0,-3.689442948E-2
1.385831557E0,1.338436306E-1,1.497934461E0,-5.338779092E-2
1.387831390E0,1.259023845E-1,1.546803713E0,-6.438336521E-2
1.389831156E0,1.124633476E-1,1.643320322E0,-7.660067081E-2
1.391830922E0,1.008569002E-1,1.734950185E0,-9.003970027E-2
1.393830688E0,9.230479598E-2,1.774045587E0,-9.431575984E-2
1.395830454E0,7.825489342E-2,1.854068875E0,-1.059221998E-1
1.397830220E0,7.336797565E-2,1.921874881E0,-1.144743115E-1
1.399829986E0,6.664845347E-2,1.953639865E0,-1.187503710E-1
1.401829786E0,6.237239391E-2,2.015948057E0,-1.291350871E-1
1.403829586E0,5.931806937E-2,2.069093466E0,-1.401306540E-1
1.405829319E0,5.809634179E-2,2.095971346E0,-1.419632584E-1
1.407829052E0,6.176153198E-2,2.139343023E0,-1.499044895E-1
1.409828785E0,6.603758782E-2,2.162555933E0,-1.566240191E-1
1.411828518E0,7.275710255E-2,2.202261925E0,-1.657869816E-1
1.413828251E0,8.619614691E-2,2.236470461E0,-1.755608320E-1
1.415827984E0,9.596998245E-2,2.257240057E0,-1.767825633E-1
1.417827784E0,1.106307507E-1,2.289004803E0,-1.871672869E-1
1.419827517E0,1.320110261E-1,2.321991682E0,-1.963302642E-1
1.421827250E0,1.381196827E-1,2.336041451E0,-2.012171745E-1
1.423826983E0,1.558347791E-1,2.370860815E0,-2.122127563E-1
1.425826716E0,1.747716069E-1,2.398349762E0,-2.225974649E-1
1.427826449E0,1.821019948E-1,2.411788702E0,-2.268735170E-1
1.429826182E0,1.949301660E-1,2.436223507E0,-2.390908152E-1
1.431825915E0,2.010388076E-1,2.445997238E0,-2.458103448E-1
1.433825715E0,2.095909268E-1,2.461269140E0,-2.574167848E-1
1.435825448E0,2.132561207E-1,2.464323282E0,-2.714666724E-1
1.437825181E0,2.144778371E-1,2.464934111E0,-2.763535976E-1
1.439824914E0,2.150887102E-1,2.467988491E0,-2.928469479E-1
1.441824647E0,2.089800537E-1,2.457603693E0,-3.075077236E-1
1.443824380E0,2.053148597E-1,2.455771208E0,-3.142272532E-1
1.445824113E0,2.004279494E-1,2.443553686E0,-3.301097453E-1
1.447823846E0,1.912649721E-1,2.431947470E0,-3.466031253E-1
1.449823646E0,1.900432259E-1,2.422784328E0,-3.551551998E-1
1.451823379E0,1.863780320E-1,2.408123493E0,-3.679834008E-1
1.453823112E0,1.845454425E-1,2.398960590E0,-3.783681095E-1
1.455822845E0,1.814911216E-1,2.376969576E0,-3.985266387E-1
1.457822578E0,1.808802485E-1,2.360476017E0,-4.095222056E-1
1.459822311E0,1.802693903E-1,2.348258734E0,-4.162417650E-1
1.461822044E0,1.851563156E-1,2.325045824E0,-4.302916527E-1
1.463821777E0,1.882106364E-1,2.296335220E0,-4.486176074E-1
1.465821577E0,1.949301660E-1,2.286561489E0,-4.559479952E-1
1.467821310E0,2.040931433E-1,2.263348579E0,-4.681652784E-1
1.469821043E0,2.150887102E-1,2.245022774E0,-4.834369123E-1
1.471820776E0,2.211973518E-1,2.240746498E0,-4.913781881E-1
1.473820509E0,2.364690006E-1,2.227918386E0,-5.078715086E-1
1.475820242E0,2.437993735E-1,2.223642349E0,-5.145910382E-1
1.477819975E0,2.572384179E-1,2.216311932E0,-5.286409259E-1
1.479819775E0,2.694557309E-1,2.214479208E0,-5.426908731E-1
1.481819575E0,2.773969769E-1,2.212646723E0,-5.481886864E-1
1.483819308E0,2.896142602E-1,2.212646723E0,-5.659037232E-1
1.485819041E0,2.993881106E-1,2.214479208E0,-5.775101781E-1
1.487818774E0,3.073293567E-1,2.215701103E0,-5.842296481E-1
1.489818507E0,3.171032071E-1,2.214479208E0,-5.964470506E-1
1.491818240E0,3.244335949E-1,2.220588207E0,-6.104968786E-1
1.493817973E0,3.305422366E-1,2.224864006E0,-6.159946918E-1
1.495817773E0,3.397052288E-1,2.228529215E0,-6.233250499E-1
1.497817506E0,3.433704078E-1,2.228529215E0,-6.282119751E-1
1.499817239E0,3.531442583E-1,2.230361700E0,-6.343206167E-1
1.501816972E0,3.629180789E-1,2.231583595E0,-6.447052956E-1
1.503816705E0,3.647507131E-1,2.227918386E0,-6.477596164E-1
1.505816438E0,3.745245337E-1,2.218755484E0,-6.550900340E-1
1.507816171E0,3.836874962E-1,2.207759857E0,-6.593660712E-1
1.509815904E0,3.855201006E-1,2.199818611E0,-6.587552428E-1
1.511815704E0,3.946830630E-1,2.177216530E0,-6.630313396E-1
1.513815437E0,4.020134509E-1,2.143618822E0,-6.611987352E-1
1.515815170E0,4.050678015E-1,2.127736568E0,-6.673073769E-1
1.517814903E0,4.117873311E-1,2.084364891E0,-6.624203920E-1
1.519814636E0,4.172850847E-1,2.036717415E0,-6.557009220E-1
1.521814369E0,4.178959727E-1,2.012282848E0,-6.544792056E-1
1.523814102E0,4.264480770E-1,1.954250693E0,-6.447052956E-1
1.525813835E0,4.295023978E-1,1.932259679E0,-6.447052956E-1
1.527813635E0,4.337784648E-1,1.871173143E0,-6.306554675E-1
1.529813368E0,4.411088526E-1,1.813140869E0,-6.196598411E-1
1.531813101E0,4.404979944E-1,1.779543281E0,-6.123294830E-1
1.533812834E0,4.484392405E-1,1.720900297E0,-6.001121998E-1
1.535812567E0,4.521044195E-1,1.657370210E0,-5.848405957E-1
1.537812300E0,4.576022029E-1,1.626827002E0,-5.793427825E-1
1.539812033E0,4.637108743E-1,1.567573071E0,-5.640711188E-1
1.541811766E0,4.728738368E-1,1.508319139E0,-5.487995148E-1
1.543811566E0,4.759281576E-1,1.477775931E0,-5.439125896E-1
1.545811299E0,4.820367992E-1,1.422797918E0,-5.286409259E-1
1.547811032E0,4.857020080E-1,1.397141695E0,-5.237540007E-1
1.549810765E0,4.918106794E-1,1.340331197E0,-5.097041130E-1
1.551810498E0,4.960867167E-1,1.289018512E0,-4.962651134E-1
1.553810231E0,4.954758584E-1,1.259697080E0,-4.889347255E-1
1.555809964E0,4.991410375E-1,1.208995104E0,-4.797717333E-1
1.557809764E0,4.979193211E-1,1.158904195E0,-4.712195992E-1
1.559809564E0,4.997519255E-1,1.136913061E0,-4.669435620E-1
1.561809297E0,4.960867167E-1,1.093541622E0,-4.590023160E-1
1.563809030E0,4.948650002E-1,1.055667996E0,-4.547262490E-1
1.565808763E0,4.899780452E-1,1.041007161E0,-4.535045028E-1
1.567808496E0,4.832585454E-1,1.002522707E0,-4.577805698E-1
1.569808229E0,4.789824784E-1,9.872511029E-1,-4.590023160E-1
1.571807962E0,4.710412621E-1,9.597621560E-1,-4.626675248E-1
1.573807728E0,4.624891281E-1,9.310514927E-1,-4.742739499E-1
1.575807528E0,4.551587403E-1,9.224994183E-1,-4.791608453E-1
1.577807261E0,4.447740614E-1,9.017300010E-1,-4.907673001E-1
1.579806994E0,4.337784648E-1,8.852365613E-1,-5.060389638E-1
1.581806727E0,4.252263606E-1,8.797388077E-1,-5.109258890E-1
1.583806460E0,4.105655849E-1,8.675214648E-1,-5.268083215E-1
1.585806193E0,4.007917345E-1,8.644671440E-1,-5.420799851E-1
1.587805926E0,3.928504884E-1,8.644671440E-1,-5.481886864E-1
1.589805726E0,3.751353920E-1,8.644671440E-1,-5.622385144E-1
1.591805459E0,3.708593547E-1,8.675214648E-1,-5.726232529E-1
1.593805192E0,3.549768329E-1,8.742410541E-1,-5.909492373E-1
1.595804925E0,3.390943706E-1,8.815714121E-1,-6.031665206E-1
1.597804658E0,3.311530948E-1,8.895126581E-1,-6.104968786E-1
1.599804391E0,3.177140951E-1,9.047843218E-1,-6.288228631E-1
1.601804124E0,3.018315732E-1,9.176124334E-1,-6.453162432E-1
1.603803857E0,2.963337600E-1,9.292188883E-1,-6.544792056E-1
1.605803657E0,2.792295516E-1,9.524317384E-1,-6.734160185E-1
1.607803390E0,2.664014101E-1,9.786989689E-1,-6.892985106E-1
1.609803123E0,2.590710223E-1,9.927489161E-1,-7.009049654E-1
1.611802856E0,2.462428212E-1,1.031844258E0,-7.204526663E-1
1.613802589E0,2.395233214E-1,1.053224444E0,-7.283938527E-1
1.615802322E0,2.273060083E-1,1.101482868E0,-7.485524416E-1
1.617802055E0,2.150887102E-1,1.143632531E0,-7.674892545E-1
1.619801788E0,2.108126581E-1,1.168678045E0,-7.760413885E-1
1.621801588E0,2.022605389E-1,1.216936350E0,-7.943673134E-1
1.623801321E0,1.930975616E-1,1.259697080E0,-8.096389771E-1
1.625801054E0,1.894323677E-1,1.282909870E0,-8.133041263E-1
1.627800787E0,1.833237112E-1,1.316507459E0,-8.230779767E-1
1.629800520E0,1.753824651E-1,1.349494100E0,-8.291866183E-1
1.631800253E0,1.729390174E-1,1.358046293E0,-8.297975659E-1
1.633800019E0,1.698846668E-1,1.379426599E0,-8.279649019E-1
1.635799752E0,1.662194878E-1,1.388589621E0,-8.285757899E-1
1.637799552E0,1.656086296E-1,1.399585128E0,-8.188019395E-1
1.639799285E0,1.613325626E-1,1.400806904E0,-8.090280890E-1
1.641799018E0,1.607216895E-1,1.402028561E0,-8.016976714E-1
1.643798751E0,1.607216895E-1,1.394698262E0,-7.839826345E-1
1.645798484E0,1.588891000E-1,1.390422106E0,-7.668784261E-1
1.647798217E0,1.631651670E-1,1.383702636E0,-7.577154040E-1
1.649797950E0,1.625542939E-1,1.367820144E0,-7.369459867E-1
1.651797750E0,1.643868834E-1,1.347661614E0,-7.180091739E-1
1.653797550E0,1.643868834E-1,1.339720368E0,-7.100679278E-1
1.655797283E0,1.674412191E-1,1.320172548E0,-6.947963238E-1
1.657797016E0,1.711064130E-1,1.312231421E0,-6.886876225E-1
1.659796749E0,1.741607338E-1,1.290851116E0,-6.783029437E-1
1.661796482E0,1.790476590E-1,1.265194774E0,-6.679182053E-1
1.663796215E0,1.814911216E-1,1.255420923E0,-6.642530560E-1
1.665795948E0,1.894323677E-1,1.225488544E0,-6.557009220E-1
1.667795748E0,1.924866885E-1,1.196166992E0,-6.508139968E-1
1.669795481E0,1.979844868E-1,1.181506276E0,-6.447052956E-1
1.671795214E0,2.053148597E-1,1.147908688E0,-6.385966539E-1
1.673794947E0,2.138669789E-1,1.111867547E0,-6.282119751E-1
1.675794680E0,2.199756354E-1,1.090487361E0,-6.263793707E-1
1.677794413E0,2.328038067E-1,1.051391959E0,-6.172164083E-1
1.679794146E0,2.389124483E-1,1.029400706E0,-6.098860502E-1
1.681793879E0,2.547949553E-1,9.854184985E-1,-5.982795954E-1
1.683793679E0,2.712883055E-1,9.383819103E-1,-5.903382897E-1
1.685793412E0,2.798404098E-1,9.157798290E-1,-5.860622525E-1
1.687793145E0,3.061076403E-1,8.687432408E-1,-5.732341409E-1
1.689792878E0,3.329856992E-1,8.241500854E-1,-5.585733652E-1
1.691792611E0,3.445921242E-1,7.984937429E-1,-5.536863804E-1
1.693792344E0,3.745245337E-1,7.545114160E-1,-5.463560224E-1
1.695792077E0,4.087330103E-1,7.117508650E-1,-5.463560224E-1
1.697791810E0,4.264480770E-1,6.897597313E-1,-5.451343656E-1
1.699791610E0,4.637108743E-1,6.476100087E-1,-5.494103432E-1
1.701791343E0,4.820367992E-1,6.268405914E-1,-5.512430072E-1
1.703791076E0,5.186887383E-1,5.871343613E-1,-5.616276860E-1
1.705790809E0,5.583949685E-1,5.468172431E-1,-5.707906485E-1
1.707790542E0,5.816078782E-1,5.272695422E-1,-5.787318945E-1
1.709790275E0,6.213141084E-1,4.845089912E-1,-5.897274613E-1
1.711790008E0,6.616312265E-1,4.454136193E-1,-5.970578790E-1
1.713789741E0,6.817897558E-1,4.252550602E-1,-6.025556922E-1
1.715789541E0,7.184416652E-1,3.806619048E-1,-6.056100130E-1
1.717789274E0,7.599805593E-1,3.360687196E-1,-6.068317294E-1
1.719789007E0,7.801390290E-1,3.128558695E-1,-6.037774086E-1
1.721788740E0,8.228995800E-1,2.603214383E-1,-5.988904238E-1
1.723788473E0,8.406147361E-1,2.352759689E-1,-5.933926105E-1
1.725788206E0,8.790992498E-1,1.760220528E-1,-5.805644989E-1
1.727787939E0,9.139184952E-1,1.131029204E-1,-5.671254992E-1
1.729787739E0,9.310227633E-1,7.767273486E-2,-5.585733652E-1
1.731787539E0,9.652311802E-1,6.812369451E-3,-5.390256643E-1
1.733787305E0,9.914984107E-1,-7.504357398E-2,-5.164236426E-1
1.735787071E0,1.005548358E0,-1.171932742E-1,-5.103150010E-1
1.737786837E0,1.031204700E0,-2.118773907E-1,-4.858803749E-1
1.739786603E0,1.050752282E0,-3.132809997E-1,-4.620566368E-1
1.741786369E0,1.056250095E0,-3.713132441E-1,-4.498393238E-1
1.743786135E0,1.073965192E0,-4.898210764E-1,-4.211286604E-1
1.745785968E0,1.081906438E0,-5.527401567E-1,-4.058570266E-1
1.747785734E0,1.096567273E0,-6.865197420E-1,-3.753137887E-1
1.749785500E0,1.106341124E0,-8.312947154E-1,-3.478248417E-1
1.751785266E0,1.102065086E0,-8.856617212E-1,-3.258336782E-1
1.753785032E0,1.022041678E0,-8.899378181E-1,-2.531407177E-1
1.755784798E0,7.899128795E-1,-6.749132872E-1,-1.401306540E-1
1.757784564E0,6.017664075E-1,-4.641647339E-1,-7.171374559E-2
1.759784330E0,1.314001679E-1,6.179024279E-2,5.473535880E-2
1.761784163E0,-3.591246307E-1,5.877452493E-1,1.323152483E-1
1.763783929E0,-5.820904374E-1,8.210957646E-1,1.616367847E-1
1.765783695E0,-9.455552101E-1,1.181506276E0,2.361623347E-1
1.767783461E0,-1.176462293E0,1.372707009E0,3.448963761E-1
1.769783227E0,-1.236938000E0,1.413635015E0,4.053720236E-1
1.771782993E0,-1.269313812E0,1.409358978E0,5.269342065E-1
1.773782759E0,-1.244879246E0,1.376983166E0,5.751925707E-1
1.775782525E0,-1.145919085E0,1.275579453E0,6.503289938E-1
1.777782358E0,-1.008474350E0,1.144243360E0,7.016416788E-1
1.779782124E0,-9.382248521E-1,1.083156943E0,7.175241709E-1
1.781781890E0,-8.111649156E-1,9.640381932E-1,7.480673790E-1
1.783781656E0,-6.963222623E-1,8.430868983E-1,7.889953852E-1
1.785781389E0,-6.486747265E-1,7.868872881E-1,8.103756905E-1
1.787781155E0,-5.839230418E-1,6.989226937E-1,8.464167118E-1
1.789780921E0,-5.625427365E-1,6.396687627E-1,8.732947707E-1
1.791780687E0,-5.668187737E-1,6.152341366E-1,8.806251884E-1
1.793780487E0,-5.857555866E-1,5.749170780E-1,8.977293968E-1
1.795780220E0,-5.985838175E-1,5.529258847E-1,8.995620012E-1
1.797779953E0,-6.150771379E-1,5.003914833E-1,8.958967924E-1
1.799779686E0,-6.193532348E-1,4.295311272E-1,8.873446584E-1
1.801779419E0,-6.193532348E-1,3.867705464E-1,8.781816959E-1
1.803779152E0,-6.004163623E-1,2.933081686E-1,8.598557711E-1
1.805778885E0,-5.692622662E-1,2.016783804E-1,8.287016153E-1
1.807778685E0,-5.478819609E-1,1.564743519E-1,8.067104220E-1
1.809778485E0,-4.996236265E-1,7.706187665E-2,7.578412294E-1
1.811778218E0,-4.428131580E-1,1.780794375E-2,7.004199028E-1
1.813777951E0,-4.116590321E-1,-7.848396897E-3,6.698766351E-1
1.815777684E0,-3.450747430E-1,-4.816550389E-2,6.118444800E-1
1.817777417E0,-3.114771545E-1,-6.404799968E-2,5.819120407E-1
1.819777150E0,-2.473362833E-1,-6.526973099E-2,5.012778640E-1
1.821776883E0,-1.905258149E-1,-4.633290693E-2,3.974307477E-1
1.823776683E0,-1.563173681E-1,-3.533733264E-2,3.424528837E-1
1.825776483E0,-9.645257145E-2,1.925447257E-3,2.300536782E-1
1.827776216E0,-5.124853924E-2,7.034235448E-2,9.993938357E-2
1.829775949E0,-3.231171891E-2,1.100485995E-1,2.663555741E-2
1.831775682E0,6.172793452E-3,1.827415675E-1,-1.205829680E-1
1.833775448E0,5.198768526E-2,2.389411628E-1,-2.549733222E-1
1.835775181E0,7.703316212E-2,2.615431845E-1,-3.148381114E-1
1.837774914E0,1.289567053E-1,2.926973104E-1,-4.217395186E-1
1.839774714E0,1.558347791E-1,3.073580563E-1,-4.687761664E-1
1.841774447E0,1.967627555E-1,3.372904658E-1,-5.536863804E-1
1.843774180E0,2.273060083E-1,3.678337336E-1,-6.227141619E-1
1.845773946E0,2.389124483E-1,3.824945092E-1,-6.526466012E-1
1.847773679E0,2.584601343E-1,3.965443969E-1,-7.051810026E-1
1.849773412E0,2.712883055E-1,3.965443969E-1,-7.595480084E-1
1.851773145E0,2.786186934E-1,3.959335387E-1,-7.900912762E-1
1.853772878E0,2.908360064E-1,3.727206290E-1,-8.609516621E-1
1.855772678E0,2.932794392E-1,3.409556448E-1,-9.342554808E-1
1.857772411E0,2.969446480E-1,3.256840110E-1,-9.739617109E-1
1.859772144E0,2.932794392E-1,2.743713260E-1,-1.049098134E0
1.861771877E0,2.969446480E-1,2.432172298E-1,-1.087582588E0
1.863771610E0,2.975555062E-1,1.717459857E-1,-1.164551616E0
1.865771343E0,3.061076403E-1,6.973148882E-2,-1.234801173E0
1.867771076E0,3.097728193E-1,1.414275169E-2,-1.269620538E0
1.869770809E0,3.250444531E-1,-1.110846251E-1,-1.319711447E0
1.871770609E0,3.445921242E-1,-2.485293001E-1,-1.344146013E0
1.873770342E0,3.519225121E-1,-3.138918877E-1,-1.345367789E0
1.875770075E0,3.574203253E-1,-4.317888916E-1,-1.327041864E0
1.877769808E0,3.543660045E-1,-5.331925154E-1,-1.278172612E0
1.879769541E0,3.519225121E-1,-5.790073872E-1,-1.242742419E0
1.881769274E0,3.403160572E-1,-6.553655267E-1,-1.166995168E0
1.883769007E0,3.317639828E-1,-6.901848912E-1,-1.124234676E0
1.885768740E0,3.171032071E-1,-7.451627254E-1,-1.036270022E0
1.887768540E0,2.963337600E-1,-7.824255228E-1,-9.464727640E-1
1.889768273E0,2.883925438E-1,-7.928102612E-1,-9.024904966E-1
1.891768006E0,2.657905221E-1,-8.056384325E-1,-8.206345439E-1
1.893767706E0,2.431885004E-1,-7.946428061E-1,-7.375568748E-1
1.895767439E0,2.297494709E-1,-7.830363512E-1,-7.002940774E-1
1.897767172E0,2.053148597E-1,-7.488279343E-1,-6.214925051E-1
1.899766905E0,1.796585172E-1,-6.901848912E-1,-5.500212312E-1
1.901766705E0,1.686629504E-1,-6.504786611E-1,-5.158128142E-1
1.903766505E0,1.472826749E-1,-5.631248951E-1,-4.516719282E-1
1.905766238E0,1.332327574E-1,-5.142557025E-1,-4.211286604E-1
1.907765971E0,1.100198850E-1,-4.024673402E-1,-3.704268634E-1
1.909765704E0,9.352651983E-2,-2.845703363E-1,-3.270554245E-1
1.911765437E0,8.619614691E-2,-2.259272933E-1,-3.056751490E-1
1.913765170E0,7.092450559E-2,-1.043651029E-1,-2.751318812E-1
1.915764903E0,6.542672217E-2,1.169929095E-2,-2.464212030E-1
1.917764703E0,5.931806937E-2,6.423370540E-2,-2.366473675E-1
1.919764436E0,5.992893502E-2,1.656373292E-1,-2.128236294E-1
1.921764169E0,6.603758782E-2,2.548236549E-1,-1.926650703E-1
1.923763902E0,6.909190863E-2,2.908647060E-1,-1.835020930E-1
1.925763635E0,8.253095299E-2,3.611142039E-1,-1.688413173E-1
1.927763368E0,8.925046772E-2,3.892140090E-1,-1.639544070E-1
1.929763101E0,1.063546911E-1,4.405266941E-1,-1.602892131E-1
1.931762834E0,1.307893097E-1,4.747351408E-1,-1.663978547E-1
1.933762634E0,1.375088245E-1,4.869524539E-1,-1.706739217E-1
1.935762367E0,1.649977565E-1,5.046675205E-1,-1.920541972E-1
1.937762100E0,1.937084198E-1,5.113870502E-1,-2.262626439E-1
1.939761833E0,2.102017850E-1,5.083327293E-1,-2.439777553E-1
1.941761566E0,2.407450378E-1,4.973371625E-1,-2.836839855E-1
1.943761299E0,2.743426263E-1,4.735134244E-1,-3.294988573E-1
1.945761032E0,2.926685810E-1,4.557982981E-1,-3.496574461E-1
1.947760765E0,3.299313784E-1,4.209789932E-1,-3.942506015E-1
1.949760565E0,3.476464450E-1,4.050965011E-1,-4.144091606E-1
1.951760298E0,3.910178840E-1,3.647793829E-1,-4.571697116E-1
1.953760031E0,4.350001812E-1,3.269057572E-1,-5.017628670E-1
1.955759764E0,4.551587403E-1,3.085798025E-1,-5.231431723E-1
1.957759497E0,4.997519255E-1,2.719278932E-1,-5.628494024E-1
1.959759230E0,5.412907600E-1,2.340542376E-1,-6.049990654E-1
1.961758963E0,5.632818937E-1,2.169500142E-1,-6.251576543E-1
1.963758696E0,6.011555195E-1,1.857958883E-1,-6.697508097E-1
1.965758496E0,6.329205036E-1,1.528091580E-1,-7.137330770E-1
1.967758229E0,6.488030553E-1,1.350940764E-1,-7.387785912E-1
1.969757962E0,6.775136590E-1,1.076051295E-1,-7.803174257E-1
1.971757695E0,6.909527779E-1,9.416610003E-2,-7.998651266E-1
1.973757428E0,7.147765160E-1,7.339668274E-2,-8.414039016E-1
1.975757161E0,7.331024408E-1,5.140553415E-2,-8.774449825E-1
1.977756894E0,7.440980077E-1,3.979909047E-2,-8.969926834E-1
1.979756694E0,7.624239326E-1,2.697092295E-2,-9.250924587E-1
1.981756494E0,7.795282006E-1,1.841880754E-2,-9.483053684E-1
1.983756227E0,7.880803347E-1,2.208399959E-2,-9.562466145E-1
1.985755960E0,8.015193343E-1,3.002524935E-2,-9.739617109E-1
1.987755693E0,8.167909384E-1,4.774034023E-2,-9.849572778E-1
1.989755426E0,8.235105276E-1,6.056851149E-2,-9.922876358E-1
1.991755159E0,8.314517140E-1,9.416610003E-2,-1.000229001E0
1.993754892E0,8.412255645E-1,1.363157928E-1,-1.007559299E0
1.995754692E0,8.430581689E-1,1.570852250E-1,-1.011224508E0
1.997754492E0,8.455016613E-1,2.065653056E-1,-1.016722322E0
1.999754258E0,8.448907733E-1,2.322216481E-1,-1.017943978E0
2.001754024E0,8.436690569E-1,2.804799974E-1,-1.019776583E0
2.003753790E0,8.369495273E-1,3.269057572E-1,-1.017943978E0
2.005753556E0,8.332843781E-1,3.482860327E-1,-1.013057113E0
2.007753322E0,8.247322440E-1,3.855488300E-1,-1.002061486E0
2.009753088E0,8.088497519E-1,4.191464186E-1,-9.928985834E-1
2.011752921E0,8.021301627E-1,4.313637018E-1,-9.843464494E-1
2.013752787E0,7.844151258E-1,4.588526487E-1,-9.696856737E-1
2.015752653E0,7.630348802E-1,4.875633121E-1,-9.470835924E-1
2.017752519E0,7.526501417E-1,4.997805953E-1,-9.354772568E-1
2.019752385E0,7.349350452E-1,5.315455794E-1,-9.183729887E-1
2.021752251E0,7.251611948E-1,5.492606759E-1,-9.110426307E-1
2.023752117E0,7.080569267E-1,5.840800405E-1,-8.939383626E-1
2.025751983E0,6.927853227E-1,6.213428378E-1,-8.829427958E-1
2.027751916E0,6.866766810E-1,6.366144419E-1,-8.762232661E-1
2.029751849E0,6.805680394E-1,6.738771796E-1,-8.695037961E-1
2.031751782E0,6.750702262E-1,7.038096189E-1,-8.621733785E-1
2.033751715E0,6.738485098E-1,7.190812230E-1,-8.585081697E-1
2.035751648E0,6.793463230E-1,7.477919459E-1,-8.554538488E-1
2.037751581E0,6.793463230E-1,7.838329673E-1,-8.475126624E-1
2.039751514E0,6.830114722E-1,7.984937429E-1,-8.432365656E-1
2.041751447E0,6.903418303E-1,8.241500854E-1,-8.352952600E-1
2.043751447E0,6.958396435E-1,8.375890851E-1,-8.322409391E-1
2.045751413E0,7.098895311E-1,8.620237708E-1,-8.261322975E-1
2.047751379E0,7.263829112E-1,8.803496957E-1,-8.188019395E-1
2.049751345E0,7.367676497E-1,8.901235461E-1,-8.151367903E-1
2.051751311E0,7.532609701E-1,9.102820158E-1,-8.059737682E-1
2.053751277E0,7.746412754E-1,9.249427915E-1,-7.943673134E-1
2.055751243E0,7.813608050E-1,9.279971123E-1,-7.839826345E-1
2.057751209E0,8.009084463E-1,9.359384179E-1,-7.644349337E-1
2.059751209E0,8.222887516E-1,9.371601343E-1,-7.448872924E-1
2.061751175E0,8.265648484E-1,9.322732091E-1,-7.308373451E-1
2.063751141E0,8.430581689E-1,9.163907766E-1,-6.984614730E-1
2.065751107E0,8.497776985E-1,8.980647326E-1,-6.819681525E-1
2.067751073E0,8.522211313E-1,8.656889200E-1,-6.404292583E-1
2.069751039E0,8.479451537E-1,8.210957646E-1,-5.866731405E-1
2.071751005E0,8.400038481E-1,7.954393625E-1,-5.616276860E-1
2.073750938E0,8.125149012E-1,7.349637747E-1,-5.072606802E-1
2.075750871E0,7.764738798E-1,6.732663512E-1,-4.461741447E-1
2.077750804E0,7.508174777E-1,6.384470463E-1,-4.162417650E-1
2.079750737E0,6.976722479E-1,5.706409812E-1,-3.521008790E-1
2.081750670E0,6.408617496E-1,5.046675205E-1,-2.855165601E-1
2.083750603E0,6.103185415E-1,4.771786332E-1,-2.549733222E-1
2.085750536E0,5.516754985E-1,4.270876348E-1,-1.902216077E-1
2.087750469E0,5.217430592E-1,4.093725681E-1,-1.609000713E-1
2.089750402E0,4.600456953E-1,3.849379718E-1,-1.022570133E-1
2.091750268E0,4.081221223E-1,3.721097708E-1,-4.605740681E-2
2.093750134E0,3.812440634E-1,3.672228754E-1,-2.284452878E-2
2.095750000E0,3.305422366E-1,3.672228754E-1,1.625084877E-2
2.097749866E0,2.822838724E-1,3.696663082E-1,4.923757166E-2
2.099749732E0,2.602927387E-1,3.763858378E-1,6.206574291E-2
2.101749598E0,2.187538892E-1,3.831053376E-1,8.405689150E-2
2.103749464E0,1.802693903E-1,3.947117925E-1,9.871765971E-2
2.105749364E0,1.619434357E-1,4.002096057E-1,1.011611149E-1
2.107749197E0,1.283458471E-1,4.099834263E-1,1.084915027E-1
2.109749030E0,1.155176684E-1,4.118160307E-1,1.091023609E-1
2.111748863E0,8.925046772E-2,4.197572768E-1,1.121566892E-1
2.113748696E0,6.725931913E-2,4.313637018E-1,1.091023609E-1
2.115748529E0,5.626374483E-2,4.325854480E-1,1.072697714E-1
2.117748362E0,3.977038339E-2,4.429701567E-1,1.048263088E-1
2.119748195E0,3.060740232E-2,4.551874697E-1,1.060480401E-1
2.121748061E0,2.327702008E-2,4.564091861E-1,1.060480401E-1
2.123747861E0,1.900096238E-2,4.680156112E-1,1.060480401E-1
2.125747661E0,1.777923293E-2,4.747351408E-1,1.091023609E-1
2.127747461E0,1.716836728E-2,4.796220660E-1,1.091023609E-1
2.129747261E0,2.327702008E-2,4.851198494E-1,1.133784279E-1
2.131747061E0,2.755307779E-2,4.918393791E-1,1.152110249E-1
2.133746861E0,3.488346189E-2,5.040566921E-1,1.176544800E-1
2.135746661E0,4.038124904E-2,5.229935050E-1,1.194870770E-1
2.137746461E0,4.404643923E-2,5.352107882E-1,1.182653457E-1
2.139746194E0,5.076595768E-2,5.657541156E-1,1.170436144E-1
2.141745927E0,5.320941657E-2,6.054603457E-1,1.139892861E-1
2.143745660E0,5.382028222E-2,6.274514794E-1,1.121566892E-1
2.145745393E0,5.198768526E-2,6.720446348E-1,1.109349579E-1
2.147745126E0,4.710076377E-2,7.203029990E-1,1.121566892E-1
2.149744859E0,4.099211097E-2,7.453484535E-1,1.121566892E-1
2.151744659E0,2.755307779E-2,7.948285341E-1,1.164327487E-1
2.153744459E0,1.961182803E-2,8.174305558E-1,1.146001518E-1
2.155744192E0,6.172793452E-3,8.675214648E-1,1.188762113E-1
2.157743925E0,-7.877106778E-3,9.078386426E-1,1.249848604E-1
2.159743658E0,-1.276402920E-2,9.255537391E-1,1.310935169E-1
2.161743391E0,-1.887268201E-2,9.615947008E-1,1.396456361E-1
2.163743124E0,-2.070527896E-2,9.841967821E-1,1.469760090E-1
2.165742857E0,-2.009441145E-2,9.927489161E-1,1.530846506E-1
2.167742657E0,-1.032056846E-2,1.001911879E0,1.689671576E-1
2.169742390E0,4.340197425E-3,1.002522707E0,1.909583062E-1
2.171742123E0,9.837985039E-3,9.994683862E-1,2.037864774E-1
2.173741856E0,2.205529064E-2,9.970248938E-1,2.257776409E-1
2.175741589E0,2.633134648E-2,9.970248938E-1,2.355514616E-1
2.177741322E0,3.182913363E-2,1.000690103E0,2.642621398E-1
2.179741055E0,3.427259624E-2,1.003133655E0,2.917510569E-1
2.181740788E0,3.732692078E-2,1.005576968E0,3.051900864E-1
2.183740588E0,4.099211097E-2,1.013518333E0,3.332899213E-1
2.185740321E0,4.282470793E-2,1.023292065E0,3.620005846E-1
2.187740087E0,4.282470793E-2,1.034898520E0,3.809373975E-1
2.189739820E0,3.671605512E-2,1.061776638E0,4.169784486E-1
2.191739553E0,2.510961518E-2,1.099039435E0,4.585172832E-1
2.193739286E0,1.350317709E-2,1.117365360E0,4.829519093E-1
2.195739019E0,-1.154229883E-2,1.165623784E0,5.305993557E-1
2.197738752E0,-3.170085326E-2,1.190669179E0,5.574774742E-1
2.199738552E0,-7.140708715E-2,1.244425416E0,6.087901592E-1
2.201738285E0,-1.153893918E-1,1.298792362E0,6.527724862E-1
2.203738018E0,-1.355479360E-1,1.320783615E0,6.704875231E-1
2.205737751E0,-1.758650541E-1,1.366598368E0,7.034742236E-1
2.207737484E0,-2.125169635E-1,1.405693769E0,7.272979617E-1
2.209737217E0,-2.271777391E-1,1.420965433E0,7.389044166E-1
2.211736950E0,-2.467254251E-1,1.456395626E0,7.584521770E-1
2.213736683E0,-2.632187903E-1,1.483884573E0,7.749454975E-1
2.215736483E0,-2.687165439E-1,1.497934461E0,7.816649675E-1
2.217736183E0,-2.717708945E-1,1.529088497E0,7.920497060E-1
2.219735916E0,-2.656622231E-1,1.553523183E0,7.981584072E-1
2.221735649E0,-2.601644695E-1,1.563297033E0,7.944931388E-1
2.223735382E0,-2.412276268E-1,1.592007637E0,7.847192883E-1
2.225735115E0,-2.332863808E-1,1.603614092E0,7.779998183E-1
2.227734848E0,-2.112952322E-1,1.638433456E0,7.535651922E-1
2.229734648E0,-1.886932254E-1,1.683026552E0,7.224110961E-1
2.231734448E0,-1.715889871E-1,1.705628633E0,7.046959996E-1
2.233734181E0,-1.471543908E-1,1.764271736E0,6.619354486E-1
2.235733914E0,-1.141676605E-1,1.833910227E0,6.094009876E-1
2.237733647E0,-6.896363199E-2,1.908435941E0,5.745816827E-1
2.239733380E0,-5.467243609E-4,2.004341602E0,5.049430728E-1
2.241733113E0,4.343557358E-2,2.075813055E0,4.444673657E-1
2.243732846E0,5.137681961E-2,2.100247622E0,4.230870903E-1
2.245732646E0,5.198768526E-2,2.122238874E0,3.803265393E-1
2.247732412E0,4.526817054E-2,2.125293016E0,3.620005846E-1
2.249732145E0,2.816394158E-2,2.134456158E0,3.216834664E-1
2.251731878E0,1.105971541E-2,2.143007994E0,2.862533033E-1
2.253731611E0,1.896736678E-3,2.142397165E0,2.648730278E-1
2.255731344E0,-8.487972431E-3,2.143007994E0,2.239450365E-1
2.257731077E0,-1.520748995E-2,2.139343023E0,1.879039705E-1
2.259730810E0,-1.642921939E-2,2.133234262E0,1.738540828E-1
2.261730610E0,-1.337489393E-2,2.122238874E0,1.518629342E-1
2.263730343E0,-4.211916123E-3,2.098415136E0,1.420890987E-1
2.265730076E0,6.414084783E-5,2.085587025E0,1.378130317E-1
2.267729809E0,2.507601632E-3,2.054432631E0,1.365913153E-1
2.269729542E0,1.896736678E-3,2.039160967E0,1.402564943E-1
2.271729275E0,6.750060711E-4,2.000065565E0,1.463651359E-1
2.273729008E0,6.414084783E-5,1.956694245E0,1.549172550E-1
2.275728741E0,-3.601050703E-3,1.940811753E0,1.579715908E-1
2.277728574E0,-1.154229883E-2,1.907824993E0,1.701888889E-1
2.279728307E0,-1.826181635E-2,1.889499068E0,1.805735976E-1
2.281728040E0,-2.253787220E-2,1.880946875E0,1.854605228E-1
2.283727773E0,-3.842036799E-2,1.869340420E0,1.964561045E-1
2.285727506E0,-5.002680793E-2,1.856512308E0,2.007321417E-1
2.287727239E0,-5.308113620E-2,1.847349405E0,2.043973356E-1
2.289726972E0,-5.980065092E-2,1.830855966E0,2.141711861E-1
2.291726705E0,-5.735719204E-2,1.818027854E0,2.196689695E-1
2.293726505E0,-5.552459881E-2,1.783819318E0,2.251667678E-1
2.295726238E0,-5.735719204E-2,1.745334864E0,2.355514616E-1
2.297725971E0,-5.980065092E-2,1.723954558E0,2.404384017E-1
2.299725704E0,-6.407671422E-2,1.689746141E0,2.496013641E-1
2.301725437E0,-6.774190068E-2,1.656759381E0,2.550991476E-1
2.303725170E0,-6.529843807E-2,1.643320322E0,2.569317520E-1
2.305724903E0,-5.735719204E-2,1.621940017E0,2.612078190E-1
2.307724636E0,-4.208555818E-2,1.610333562E0,2.673164606E-1
2.309724436E0,-3.597690910E-2,1.604224920E0,2.673164606E-1
2.311724169E0,-2.253787220E-2,1.601781487E0,2.697599232E-1
2.313723902E0,-1.459662523E-2,1.599949002E0,2.667056024E-1
2.315723635E0,-2.990185283E-3,1.596894622E0,2.636512816E-1
2.317723368E0,2.507601632E-3,1.595672846E0,2.599860728E-1
2.319723101E0,6.414084783E-5,1.591396809E0,2.575426400E-1
2.321722834E0,1.285871374E-3,1.577346921E0,2.483796328E-1
2.323722634E0,-6.044511683E-3,1.551690578E0,2.441035956E-1
2.325722434E0,-7.877106778E-3,1.532142997E0,2.410492599E-1
2.327722167E0,-1.337489393E-2,1.484495401E0,2.355514616E-1
2.329721900E0,-1.459662523E-2,1.427684903E0,2.288319618E-1
2.331721633E0,-1.765095070E-2,1.389811277E0,2.300536782E-1
2.333721366E0,-2.070527896E-2,1.319561720E0,2.324971408E-1
2.335721099E0,-2.375960350E-2,1.279855609E0,2.349406183E-1
2.337720832E0,-4.147469625E-2,1.169288993E0,2.453253120E-1
2.339720632E0,-5.002680793E-2,1.138745785E0,2.538774312E-1
2.341720365E0,-5.796805397E-2,1.105758905E0,2.587643564E-1
2.343720098E0,-7.262882590E-2,1.049559355E0,2.648730278E-1
2.345719798E0,-8.912218362E-2,9.976357818E-1,2.697599232E-1
2.347719531E0,-9.523083270E-2,9.683142900E-1,2.715925276E-1
2.349719264E0,-1.129459292E-1,9.188341498E-1,2.764794230E-1
2.351718997E0,-1.227197722E-1,8.620237708E-1,2.770903111E-1
2.353718730E0,-1.276066899E-1,8.327022195E-1,2.734251022E-1
2.355718530E0,-1.269958317E-1,7.612309456E-1,2.618186772E-1
2.357718263E0,-1.239415035E-1,7.215247154E-1,2.520448267E-1
2.359717996E0,-1.160002574E-1,6.451665759E-1,2.245558947E-1
2.361717729E0,-1.117241979E-1,5.712518096E-1,2.037864774E-1
2.363717462E0,-1.092807353E-1,5.358216763E-1,1.909583062E-1
2.365717195E0,-1.166111231E-1,4.869524539E-1,1.793518662E-1
2.367716928E0,-1.269958317E-1,4.588526487E-1,1.775192767E-1
2.369716661E0,-1.337153465E-1,4.557982981E-1,1.762975454E-1
2.371716461E0,-1.502087116E-1,4.594635069E-1,1.836279333E-1
2.373716194E0,-1.648694724E-1,4.851198494E-1,1.866822541E-1
2.375715927E0,-1.697563976E-1,5.022240877E-1,1.872931272E-1
2.377715660E0,-1.838063002E-1,5.407086015E-1,1.854605228E-1
2.379715393E0,-1.893040985E-1,5.602563024E-1,1.836279333E-1
2.381715126E0,-2.045757174E-1,6.103472114E-1,1.781301349E-1
2.383714859E0,-2.180147618E-1,6.549403667E-1,1.769084036E-1
2.385714592E0,-2.296211869E-1,6.775424480E-1,1.744649559E-1
2.387714392E0,-2.455036938E-1,7.117508650E-1,1.714106202E-1
2.389714125E0,-2.601644695E-1,7.398506403E-1,1.665236950E-1
2.391713858E0,-2.729926109E-1,7.496244907E-1,1.640802324E-1
2.393713591E0,-2.913185656E-1,7.679504156E-1,1.665236950E-1
2.395713324E0,-3.108662665E-1,7.752808332E-1,1.646911055E-1
2.397713057E0,-3.206401169E-1,7.752808332E-1,1.665236950E-1
2.399712790E0,-3.450747430E-1,7.740591168E-1,1.677454263E-1
2.401712590E0,-3.615680933E-1,7.697830796E-1,1.707997620E-1
2.403712390E0,-3.963873982E-1,7.593984008E-1,1.714106202E-1
2.405712156E0,-4.330393076E-1,7.392398119E-1,1.756866723E-1
2.407711889E0,-4.495326877E-1,7.276333570E-1,1.775192767E-1
2.409711589E0,-4.886280596E-1,7.031987309E-1,1.811844707E-1
2.411711322E0,-5.246691108E-1,6.726554632E-1,1.836279333E-1
2.413711055E0,-5.436059833E-1,6.604381800E-1,1.842387915E-1
2.415710921E0,-5.765926242E-1,6.335601211E-1,1.885148436E-1
2.417710721E0,-6.071359515E-1,6.188993454E-1,1.921800375E-1
2.419710454E0,-6.199641228E-1,6.231754422E-1,1.952343583E-1
2.421710187E0,-6.480638981E-1,6.372252703E-1,1.940126270E-1
2.423709920E0,-6.602811813E-1,6.469991207E-1,1.964561045E-1
2.425709653E0,-6.834940910E-1,6.897597313E-1,1.988995522E-1
2.427709386E0,-6.999874115E-1,7.490136623E-1,1.988995522E-1
2.429709119E0,-7.054852247E-1,7.856655121E-1,1.988995522E-1
2.431708852E0,-7.183133960E-1,8.681324124E-1,2.001212984E-1
2.433708652E0,-7.238111496E-1,9.542643428E-1,1.995104253E-1
2.435708385E0,-7.262546420E-1,1.001911879E0,1.952343583E-1
2.437708118E0,-7.305306792E-1,1.097206831E0,1.921800375E-1
2.439707851E0,-7.335850000E-1,1.189447522E0,1.854605228E-1
2.441707584E0,-7.335850000E-1,1.238316655E0,1.799627393E-1
2.443707317E0,-7.335850000E-1,1.323837876E0,1.701888889E-1
2.445707050E0,-7.354176044E-1,1.370263577E0,1.659128219E-1
2.447706783E0,-7.396936417E-1,1.459450006E0,1.640802324E-1
2.449706583E0,-7.506892681E-1,1.537640572E0,1.598041803E-1
2.451706316E0,-7.531327009E-1,1.573681712E0,1.561389863E-1
2.453706049E0,-7.622957230E-1,1.634768248E0,1.457542777E-1
2.455705782E0,-7.690151930E-1,1.692189574E0,1.512520611E-1
2.457705515E0,-7.769564390E-1,1.720900297E0,1.543063968E-1
2.459705248E0,-7.928389311E-1,1.766104221E0,1.628585011E-1
2.461704981E0,-8.129975200E-1,1.799701929E0,1.677454263E-1
2.463704714E0,-8.209387064E-1,1.816195250E0,1.738540828E-1
2.465704514E0,-8.441516161E-1,1.835132122E0,1.848496497E-1
2.467704280E0,-8.679754138E-1,1.839408040E0,1.988995522E-1
2.469704080E0,-8.838578463E-1,1.837575555E0,2.050082088E-1
2.471703846E0,-9.070707560E-1,1.837575555E0,2.172255069E-1
2.473703612E0,-9.217315316E-1,1.831466794E0,2.202798426E-1
2.475703245E0,-9.455552101E-1,1.823525667E0,2.312754244E-1
2.477703011E0,-9.614377618E-1,1.814362645E0,2.434927225E-1
2.479702844E0,-9.693790078E-1,1.811308384E0,2.508231103E-1
2.481702677E0,-9.809854031E-1,1.808254004E0,2.703707814E-1
2.483702443E0,-9.913702011E-1,1.800923586E0,2.929728031E-1
2.485702209E0,-9.950353503E-1,1.799090981E0,2.996923327E-1
2.487702075E0,-1.001143932E0,1.786873698E0,3.192400336E-1
2.489701841E0,-1.004809260E0,1.773434639E0,3.314573169E-1
2.491701607E0,-1.004198313E0,1.763660789E0,3.406203091E-1
2.493701373E0,-9.999222159E-1,1.748389125E0,3.522267342E-1
2.495701206E0,-9.974788427E-1,1.734339237E0,3.565027714E-1
2.497701039E0,-9.889267087E-1,1.709904671E0,3.607788384E-1
2.499700805E0,-9.779310822E-1,1.681804895E0,3.668875098E-1
2.501700571E0,-9.675464034E-1,1.670198441E0,3.693309724E-1
2.503700337E0,-9.541073442E-1,1.637211680E0,3.693309724E-1
2.505700103E0,-9.357814193E-1,1.607890129E0,3.711635470E-1
2.507699869E0,-9.272292852E-1,1.593840361E0,3.736070395E-1
2.509699635E0,-9.125685692E-1,1.557799220E0,3.760504723E-1
2.511699468E0,-9.058489799E-1,1.512595177E0,3.821591139E-1
2.513699201E0,-8.985186219E-1,1.492436647E0,3.803265393E-1
2.515698967E0,-8.954643011E-1,1.441124082E0,3.778830767E-1
2.517698733E0,-8.936316967E-1,1.412413359E0,3.766613603E-1
2.519698499E0,-8.936316967E-1,1.355602741E0,3.699418306E-1
2.521698265E0,-8.887448311E-1,1.301846623E0,3.644440174E-1
2.523698031E0,-8.844687343E-1,1.275579453E0,3.613896966E-1
2.525697797E0,-8.734731674E-1,1.226710200E0,3.516158760E-1
2.527697597E0,-8.563689590E-1,1.184560537E0,3.387876749E-1
2.529697330E0,-8.441516161E-1,1.164402008E0,3.351224959E-1
2.531697063E0,-8.184952736E-1,1.122863173E0,3.259595335E-1
2.533696796E0,-7.861194611E-1,1.083767772E0,3.155748248E-1
2.535696529E0,-7.684043646E-1,1.067885280E0,3.100770116E-1
2.537696262E0,-7.317524552E-1,1.031844258E0,3.027466536E-1
2.539695995E0,-7.134264708E-1,1.020848751E0,2.996923327E-1
2.541695728E0,-6.761636734E-1,9.945814610E-1,2.886967361E-1
2.543695528E0,-6.364574432E-1,9.677034020E-1,2.813663781E-1
2.545695261E0,-6.211857796E-1,9.536535144E-1,2.764794230E-1
2.547694894E0,-5.863665342E-1,9.292188883E-1,2.667056024E-1
2.549694627E0,-5.503254533E-1,9.041733742E-1,2.605969608E-1
2.551694360E0,-5.350538492E-1,8.943995833E-1,2.526557148E-1
2.553694093E0,-5.045105815E-1,8.736301064E-1,2.459361851E-1
2.555693826E0,-4.751890302E-1,8.559150100E-1,2.410492599E-1
2.557693559E0,-4.617499709E-1,8.498063684E-1,2.379949391E-1
2.559693359E0,-4.397588372E-1,8.381999731E-1,2.324971408E-1
2.561693092E0,-4.293741286E-1,8.314804435E-1,2.306645513E-1
2.563692825E0,-4.098264575E-1,8.174305558E-1,2.257776409E-1
2.565692558E0,-3.921113610E-1,7.948285341E-1,2.147820592E-1
2.567692291E0,-3.798940480E-1,7.862764001E-1,2.111168653E-1
2.569692024E0,-3.621789515E-1,7.624527216E-1,1.988995522E-1
2.571691757E0,-3.432421386E-1,7.367963195E-1,1.872931272E-1
2.573691590E0,-3.334682882E-1,7.227464318E-1,1.787409931E-1
2.575691390E0,-3.096445203E-1,6.995335817E-1,1.646911055E-1
2.577691123E0,-2.803229988E-1,6.702120304E-1,1.481977403E-1
2.579690856E0,-2.626079023E-1,6.586055756E-1,1.439216882E-1
2.581690589E0,-2.320646495E-1,6.341709495E-1,1.317043751E-1
2.583690322E0,-2.137386948E-1,6.195101738E-1,1.213196740E-1
2.585690055E0,-1.789193749E-1,5.804148316E-1,1.011611149E-1
2.587689788E0,-1.379914135E-1,5.370433927E-1,8.039169759E-2
2.589689588E0,-1.196654439E-1,5.101653337E-1,7.183958590E-2
2.591689321E0,-8.362440020E-2,4.441919029E-1,4.373978451E-2
2.593689054E0,-4.819421470E-2,3.641685545E-1,1.319652144E-2
2.595688787E0,-2.925739065E-2,3.189645112E-1,-4.518570378E-3
2.597688520E0,1.289231144E-2,2.212260813E-1,-4.239221662E-2
2.599688253E0,5.809634179E-2,1.198224425E-1,-8.698537946E-2
2.601687986E0,7.886575907E-2,6.179024279E-2,-1.047004685E-1
2.603687719E0,1.301784366E-1,-4.755463824E-2,-1.468501687E-1
2.605687519E0,1.503369957E-1,-1.019216478E-1,-1.694521755E-1
2.607687252E0,1.955410093E-1,-2.106556594E-1,-2.097692937E-1
2.609686985E0,2.413559109E-1,-3.163353503E-1,-2.488646656E-1
2.611686718E0,2.590710223E-1,-3.707023561E-1,-2.684123516E-1
2.613686451E0,2.981663942E-1,-4.653864801E-1,-3.068968952E-1
2.615686184E0,3.274879158E-1,-5.509076118E-1,-3.435487747E-1
2.617685917E0,3.360400498E-1,-5.857269168E-1,-3.606530130E-1
2.619685650E0,3.519225121E-1,-6.370396018E-1,-3.881419301E-1
2.621685450E0,3.555877209E-1,-6.730806231E-1,-4.137982726E-1
2.623685183E0,3.568094373E-1,-6.846870780E-1,-4.266264737E-1
2.625684916E0,3.598637581E-1,-6.950717568E-1,-4.608348906E-1
2.627684649E0,3.610855043E-1,-6.907957196E-1,-4.748848081E-1
2.629684382E0,3.598637581E-1,-6.694154739E-1,-5.029846430E-1
2.631684115E0,3.616963923E-1,-6.284874678E-1,-5.255866051E-1
2.633683848E0,3.561985791E-1,-6.003876925E-1,-5.353604555E-1
2.635683581E0,3.568094373E-1,-5.270838737E-1,-5.585733652E-1
2.637683381E0,3.549768329E-1,-4.391192496E-1,-5.787318945E-1
2.639683114E0,3.555877209E-1,-3.896391690E-1,-5.860622525E-1
2.641682847E0,3.494790792E-1,-2.876246572E-1,-5.976687074E-1
2.643682580E0,3.452030122E-1,-1.929405630E-1,-6.098860502E-1
2.645682313E0,3.476464450E-1,-1.422387511E-1,-6.214925051E-1
2.647682046E0,3.421486914E-1,-4.999810085E-2,-6.282119751E-1
2.649681779E0,3.397052288E-1,-6.626666058E-3,-6.337097883E-1
2.651681579E0,3.384834826E-1,6.728802621E-2,-6.379858255E-1
2.653681379E0,3.409269452E-1,1.234876364E-1,-6.440944672E-1
2.655681112E0,3.415378034E-1,1.460896432E-1,-6.563117504E-1
2.657680845E0,3.421486914E-1,1.796872467E-1,-6.642530560E-1
2.659680578E0,3.415378034E-1,2.004566491E-1,-6.660856605E-1
2.661680311E0,3.433704078E-1,2.053435743E-1,-6.648638844E-1
2.663680044E0,3.470356166E-1,2.151174098E-1,-6.636421680E-1
2.665679777E0,3.543660045E-1,2.059544325E-1,-6.703616977E-1
2.667679577E0,3.574203253E-1,2.010675222E-1,-6.691399813E-1
2.669679310E0,3.702484667E-1,1.864067465E-1,-6.685290933E-1
2.671679043E0,3.763571084E-1,1.778546423E-1,-6.654747725E-1
2.673678776E0,3.885744214E-1,1.534200311E-1,-6.502031088E-1
2.675678509E0,4.062895179E-1,1.302071512E-1,-6.349315047E-1
2.677678242E0,4.154525101E-1,1.149355173E-1,-6.306554675E-1
2.679677975E0,4.331676066E-1,8.927917480E-2,-6.196598411E-1
2.681677708E0,4.527153075E-1,6.056851149E-2,-6.074425578E-1
2.683677508E0,4.637108743E-1,4.651861265E-2,-6.025556922E-1
2.685677241E0,4.826476872E-1,2.269486710E-2,-5.885057449E-1
2.687676974E0,5.028062463E-1,-2.961474704E-3,-5.756775737E-1
2.689676707E0,5.101366043E-1,-1.151358802E-2,-5.671254992E-1
2.691676440E0,5.284625888E-1,-3.533733264E-2,-5.481886864E-1
2.693676173E0,5.480102301E-1,-4.816550389E-2,-5.384147763E-1
2.695675906E0,5.590058565E-1,-7.198925316E-2,-5.133693218E-1
2.697675639E0,5.834404230E-1,-1.000890508E-1,-4.871021211E-1
2.699675439E0,5.974903703E-1,-1.141389459E-1,-4.724413455E-1
2.701675172E0,6.371966004E-1,-1.495691389E-1,-4.608348906E-1
2.703674905E0,6.793463230E-1,-1.929405630E-1,-4.706087708E-1
2.705674638E0,7.001157403E-1,-2.100448012E-1,-4.785499871E-1
2.707674371E0,7.324915528E-1,-2.424206585E-1,-4.968759418E-1
2.709674104E0,7.502066493E-1,-2.595248818E-1,-5.139801502E-1
2.711673837E0,7.544827461E-1,-2.625792027E-1,-5.200888515E-1
2.713673570E0,7.550935745E-1,-2.528053522E-1,-5.359712839E-1
2.715673370E0,7.410436869E-1,-2.234838307E-1,-5.518538356E-1
2.717673103E0,7.318806648E-1,-2.008818239E-1,-5.567407012E-1
2.719672836E0,7.105004191E-1,-1.410170197E-1,-5.744558573E-1
2.721672569E0,6.970614195E-1,-1.061976999E-1,-5.811753273E-1
2.723672302E0,6.726267934E-1,-1.945483498E-2,-5.903382897E-1
2.725672035E0,6.402509212E-1,8.133792877E-2,-5.940035582E-1
2.727671768E0,6.200923324E-1,1.405918598E-1,-5.903382897E-1
2.729671568E0,5.785535574E-1,2.652083635E-1,-5.848405957E-1
2.731671368E0,5.333495140E-1,3.947117925E-1,-5.744558573E-1
2.733671101E0,5.119692087E-1,4.606852531E-1,-5.707906485E-1
2.735670834E0,4.722629786E-1,5.822474360E-1,-5.579624772E-1
2.737670567E0,4.276697934E-1,7.013661265E-1,-5.433017015E-1
2.739670300E0,4.038460553E-1,7.569549084E-1,-5.329169631E-1
2.741670033E0,3.494790792E-1,8.632454276E-1,-5.042062998E-1
2.743669766E0,3.189357817E-1,9.127255082E-1,-4.883238673E-1
2.745669566E0,2.517406046E-1,1.002522707E0,-4.516719282E-1
2.747669366E0,1.766041964E-1,1.086211324E0,-4.034135640E-1
2.749669099E0,1.411740184E-1,1.120419621E0,-3.795898557E-1
2.751668832E0,6.542672217E-2,1.174786687E0,-3.307206035E-1
2.753668565E0,-2.990185283E-3,1.214492917E0,-2.849057317E-1
2.755668298E0,-3.597690910E-2,1.226710200E0,-2.598602176E-1
2.757668031E0,-9.584170580E-2,1.235262275E0,-2.103801519E-1
2.759667764E0,-1.441000551E-1,1.230375528E0,-1.602892131E-1
2.761667564E0,-1.709781289E-1,1.221212506E0,-1.321894079E-1
2.763667297E0,-2.064083070E-1,1.189447522E0,-7.293547690E-2
2.765667030E0,-2.259559929E-1,1.169899821E0,-4.055961967E-2
2.767666763E0,-2.638296485E-1,1.129582644E0,2.907901816E-2
2.769666496E0,-2.955946326E-1,1.078270078E0,9.749592841E-2
2.771666229E0,-3.108662665E-1,1.047726750E0,1.329261214E-1
2.773665962E0,-3.389660716E-1,9.774772525E-1,1.952343583E-1
2.775665695E0,-3.743962348E-1,8.980647326E-1,2.642621398E-1
2.777665495E0,-3.939439356E-1,8.577476740E-1,2.923619449E-1
2.779665228E0,-4.299849868E-1,7.691721916E-1,3.442854881E-1
2.781664961E0,-4.794650972E-1,6.909814477E-1,4.078154564E-1
2.783664694E0,-5.026779771E-1,6.518860459E-1,4.334717989E-1
2.785664427E0,-5.460493565E-1,5.596454144E-1,4.866170883E-1
2.787664160E0,-5.698730946E-1,5.205500722E-1,5.122734308E-1
2.789663893E0,-6.108011007E-1,4.527439773E-1,5.593100786E-1
2.791663626E0,-6.517290473E-1,3.947117925E-1,6.051249504E-1
2.793663426E0,-6.706659198E-1,3.721097708E-1,6.313921213E-1
2.795663159E0,-7.030417323E-1,3.348470032E-1,6.863700151E-1
2.797662892E0,-7.305306792E-1,3.207971156E-1,7.382935882E-1
2.799662625E0,-7.427479625E-1,3.189645112E-1,7.682259679E-1
2.801662358E0,-7.739021182E-1,3.391230702E-1,8.201495409E-1
2.803662091E0,-8.032236099E-1,3.824945092E-1,8.769599795E-1
2.805661824E0,-8.209387064E-1,4.044856429E-1,8.995620012E-1
2.807661557E0,-8.484276533E-1,4.557982981E-1,9.331595898E-1
2.809661357E0,-8.649210334E-1,4.838981330E-1,9.508746862E-1
2.811661090E0,-8.942425251E-1,5.272695422E-1,9.704223871E-1
2.813660823E0,-9.113467932E-1,5.712518096E-1,9.850831032E-1
2.815660556E0,-9.192880392E-1,5.932430029E-1,9.918026924E-1
2.817660289E0,-9.253967404E-1,6.384470463E-1,1.002187371E0
2.819660022E0,-9.247858524E-1,6.909814477E-1,1.008296013E0
2.821659755E0,-9.284510612E-1,7.178595066E-1,1.013182878E0
2.823659555E0,-9.241749644E-1,7.758917212E-1,1.022956729E0
2.825659355E0,-9.144011140E-1,8.363673687E-1,1.027843714E0
2.827659088E0,-9.076816440E-1,8.656889200E-1,1.030287147E0
2.829658821E0,-8.917991519E-1,9.316623807E-1,1.038839221E0
2.831658554E0,-8.801926970E-1,9.603730440E-1,1.041282773E0
2.833658287E0,-8.569797873E-1,1.008020520E0,1.041893601E0
2.835658020E0,-8.423190117E-1,1.063609242E0,1.052278280E0
2.837657753E0,-8.362103701E-1,1.091098189E0,1.055943489E0
2.839657553E0,-8.319343328E-1,1.138745785E0,1.068160772E0
2.841657286E0,-8.343778253E-1,1.177841067E0,1.082210660E0
2.843657019E0,-8.362103701E-1,1.196166992E0,1.089541197E0
2.845656752E0,-8.514819741E-1,1.218769073E0,1.106645226E0
2.847656485E0,-8.728622794E-1,1.245647073E0,1.128025651E0
2.849656218E0,-8.838578463E-1,1.251755714E0,1.137188554E0
2.851655951E0,-9.027946591E-1,1.252977371E0,1.149405837E0
2.853655684E0,-9.107359648E-1,1.247479677E0,1.159179688E0
2.855655484E0,-9.315053821E-1,1.238316655E0,1.169564486E0
2.857655217E0,-9.449443817E-1,1.217547297E0,1.176283956E0
2.859654950E0,-9.492204785E-1,1.202886462E0,1.178116560E0
2.861654683E0,-9.571616650E-1,1.164402008E0,1.174451351E0
2.863654416E0,-9.644920826E-1,1.117365360E0,1.174451351E0
2.865654149E0,-9.669355750E-1,1.085600376E0,1.174451351E0
2.867653882E0,-9.626594782E-1,1.013518333E0,1.172618747E0
2.869653615E0,-9.522747993E-1,9.328840971E-1,1.165899277E0
2.871653415E0,-9.467769861E-1,8.852365613E-1,1.162234068E0
2.873653181E0,-9.272292852E-1,7.862764001E-1,1.162234068E0
2.875652947E0,-9.174554348E-1,7.319093943E-1,1.162234068E0
2.877652713E0,-8.930208683E-1,6.286731958E-1,1.162845016E0
2.879652479E0,-8.661427498E-1,5.260478258E-1,1.164677501E0
2.881652245E0,-8.533146381E-1,4.765677452E-1,1.167731762E0
2.883652011E0,-8.227713704E-1,3.782184422E-1,1.175062299E0
2.885651777E0,-7.952824235E-1,2.829234600E-1,1.184225202E0
2.887651610E0,-7.818433642E-1,2.401628941E-1,1.190944672E0
2.889651376E0,-7.513000965E-1,1.583069414E-1,1.198886037E0
2.891651142E0,-6.883809566E-1,7.423234638E-3,1.194609880E0
2.893650908E0,-6.065250039E-1,-1.581212431E-1,1.181781769E0
2.895650674E0,-3.603463471E-1,-5.936681628E-1,1.140242934E0
2.897650440E0,-2.375624329E-1,-7.738733888E-1,1.121917009E0
2.899650206E0,-9.098838083E-3,-1.080527663E0,1.101147532E0
2.901650039E0,1.882106364E-1,-1.330371737E0,1.098093152E0
2.903649872E0,2.676230967E-1,-1.420168877E0,1.096260667E0
2.905649638E0,3.733027875E-1,-1.530124664E0,1.089541197E0
2.907649404E0,4.056786597E-1,-1.550894022E0,1.064495564E0
2.909649170E0,4.014026225E-1,-1.529513717E0,1.038839221E0
2.911648936E0,3.610855043E-1,-1.443992496E0,9.527072906E-1
2.913648702E0,3.140488863E-1,-1.274171948E0,8.109865189E-1
2.915648468E0,2.896142602E-1,-1.173990130E0,7.285197377E-1
2.917648301E0,2.694557309E-1,-9.223136306E-1,5.305993557E-1
2.919648067E0,2.566275299E-1,-7.970862985E-1,4.255305529E-1
2.921647833E0,2.425776422E-1,-5.118122101E-1,2.312754244E-1
2.923647599E0,2.224190831E-1,-2.466966957E-1,5.778968334E-2
2.925647365E0,2.095909268E-1,-1.196367368E-1,-2.834231593E-2
2.927647131E0,2.095909268E-1,1.503657103E-1,-1.682304591E-1
2.929646897E0,2.181430310E-1,3.623359501E-1,-2.952904403E-1
2.931646663E0,2.297494709E-1,4.606852531E-1,-3.521008790E-1
2.933646463E0,2.517406046E-1,5.761387944E-1,-4.699978828E-1
2.935646196E0,2.767860889E-1,6.476100087E-1,-5.799536109E-1
2.937645929E0,3.018315732E-1,6.824293137E-1,-6.221033335E-1
2.939645662E0,3.610855043E-1,6.842619181E-1,-6.899093390E-1
2.941645395E0,4.325567186E-1,6.305058002E-1,-7.400003076E-1
2.943645128E0,4.716520905E-1,5.773605108E-1,-7.589371204E-1
2.945644861E0,5.553406477E-1,4.564091861E-1,-7.717652917E-1
2.947644594E0,6.017664075E-1,3.843270838E-1,-7.644349337E-1
2.949644394E0,6.860657930E-1,1.998457760E-1,-7.467198372E-1
2.951644127E0,7.599805593E-1,3.758043051E-3,-7.149548531E-1
2.953643860E0,8.002976179E-1,-7.931963354E-2,-6.947963238E-1
2.955643593E0,8.778774738E-1,-2.754073739E-1,-6.453162432E-1
2.957643326E0,9.438509345E-1,-4.611104131E-1,-6.001121998E-1
2.959643059E0,9.798919559E-1,-5.454097986E-1,-5.775101781E-1
2.961642792E0,1.035480738E0,-7.127868533E-1,-5.365822315E-1
2.963642525E0,1.080073833E0,-8.557293415E-1,-5.017628670E-1
2.965642325E0,1.096567273E0,-9.247571230E-1,-4.871021211E-1
2.967642058E0,1.119169354E0,-1.029215097E0,-4.590023160E-1
2.969641791E0,1.128332257E0,-1.057314992E0,-4.370111823E-1
2.971641524E0,1.141771197E0,-1.099464655E0,-3.850876093E-1
2.973641257E0,1.149101734E0,-1.120844841E0,-3.276662827E-1
2.975640990E0,1.143603921E0,-1.120844841E0,-2.995665073E-1
2.977640723E0,1.131386638E0,-1.091523290E0,-2.451994717E-1
2.979640523E0,1.105730176E0,-1.024939060E0,-1.993845850E-1
2.981640323E0,1.088626027E0,-9.797349572E-1,-1.847238094E-1
2.983640056E0,1.039145827E0,-8.819965720E-1,-1.596783400E-1
2.985639789E0,9.762268066E-1,-7.671538591E-1,-1.431849897E-1
2.987639522E0,9.340770841E-1,-7.054564953E-1,-1.358546019E-1
2.989639255E0,8.448907733E-1,-5.686227083E-1,-1.193612367E-1
2.991638988E0,7.929672003E-1,-4.989840388E-1,-1.108091176E-1
2.993638721E0,6.805680394E-1,-3.578741848E-1,-9.981354326E-2
2.995638521E0,5.583949685E-1,-2.240946889E-1,-8.454191685E-2
2.997638321E0,4.973084331E-1,-1.544560492E-1,-7.965499908E-2
2.999638054E0,3.702484667E-1,-2.983954549E-2,-6.743769348E-2
3.001637787E0,2.437993735E-1,7.889447361E-2,-4.605740681E-2
3.003637520E0,1.814911216E-1,1.259310842E-1,-3.628356010E-2
3.005637253E0,6.359412521E-2,2.059544325E-1,-2.040106617E-2
3.007636986E0,-5.552459881E-2,2.700952888E-1,1.590082305E-3
3.009636719E0,-1.105024740E-1,2.975842357E-1,1.014219597E-2
3.011636519E0,-2.186256051E-1,3.421773911E-1,2.480296046E-2
3.013636252E0,-2.681057155E-1,3.574489951E-1,3.763113171E-2
3.015635985E0,-3.560702801E-1,3.776075840E-1,5.290276185E-2
3.017635718E0,-4.299849868E-1,3.867705464E-1,7.611563802E-2
3.019635451E0,-4.580847919E-1,3.879922926E-1,8.894380927E-2
3.021635184E0,-5.069540143E-1,3.824945092E-1,1.097132340E-1
3.023634917E0,-5.374972820E-1,3.660011292E-1,1.268174648E-1
3.025634650E0,-5.497146249E-1,3.550055623E-1,1.372021586E-1
3.027634450E0,-5.607101321E-1,3.360687196E-1,1.506412029E-1
3.029634183E0,-5.613210201E-1,3.091906607E-1,1.646911055E-1
3.031633916E0,-5.600993037E-1,2.933081686E-1,1.683562994E-1
3.033633649E0,-5.552123189E-1,2.627649009E-1,1.775192767E-1
3.035633382E0,-5.497146249E-1,2.468824089E-1,1.775192767E-1
3.037633115E0,-5.338320732E-1,2.157282829E-1,1.842387915E-1
3.039632848E0,-5.124517679E-1,1.784655005E-1,1.860713810E-1
3.041632581E0,-4.971801639E-1,1.638047397E-1,1.872931272E-1
3.043632381E0,-4.678586423E-1,1.381483972E-1,1.897365749E-1
3.045632114E0,-4.299849868E-1,1.179898456E-1,2.019538879E-1
3.047631847E0,-4.122698903E-1,1.131029204E-1,2.098951191E-1
3.049631580E0,-3.750071228E-1,1.118811965E-1,2.269993573E-1
3.051631313E0,-3.475181758E-1,1.253202260E-1,2.502122223E-1
3.053631046E0,-3.322465420E-1,1.381483972E-1,2.648730278E-1
3.055630779E0,-3.096445203E-1,1.772437692E-1,2.984705865E-1
3.057630512E0,-3.017032743E-1,2.065653056E-1,3.137422204E-1
3.059630312E0,-2.980380952E-1,2.823126018E-1,3.271812499E-1
3.061630045E0,-3.139205873E-1,3.751641214E-1,3.314573169E-1
3.063629778E0,-3.261379004E-1,4.160920680E-1,3.302356005E-1
3.065629511E0,-3.481290638E-1,4.918393791E-1,3.259595335E-1
3.067629244E0,-3.695093393E-1,5.675866604E-1,3.253486753E-1
3.069628977E0,-3.817266226E-1,6.121798158E-1,3.277921081E-1
3.071628710E0,-4.098264575E-1,6.891488433E-1,3.497832716E-1
3.073628510E0,-4.269306660E-1,7.685613632E-1,3.913221061E-1
3.075628310E0,-4.336501658E-1,8.021589518E-1,4.175893366E-1
3.077628043E0,-4.403696954E-1,8.528606892E-1,4.634042084E-1
3.079627776E0,-4.440348744E-1,8.724084496E-1,4.915039837E-1
3.081627509E0,-4.501435459E-1,8.968430161E-1,5.397623777E-1
3.083627242E0,-4.422022998E-1,8.956212997E-1,5.794686079E-1
3.085626975E0,-4.391479790E-1,8.919560909E-1,6.014598012E-1
3.087626708E0,-4.244872034E-1,8.632454276E-1,6.301704049E-1
3.089626508E0,-4.086047113E-1,8.235391974E-1,6.552158594E-1
3.091626274E0,-4.031069279E-1,8.046023846E-1,6.649897695E-1
3.093626040E0,-3.835592270E-1,7.697830796E-1,6.851482987E-1
3.095625806E0,-3.658441603E-1,7.459592819E-1,7.034742236E-1
3.097625572E0,-3.609572053E-1,7.343528867E-1,7.150806785E-1
3.099625538E0,-3.475181758E-1,7.129725814E-1,7.291306257E-1
3.101625304E0,-3.420203924E-1,7.080857158E-1,7.370718122E-1
3.103625070E0,-3.334682882E-1,7.117508650E-1,7.547869086E-1
3.105624903E0,-3.310248256E-1,7.203029990E-1,7.706694603E-1
3.107624703E0,-3.267487884E-1,7.270225286E-1,7.779998183E-1
3.109624503E0,-3.273596168E-1,7.447376251E-1,7.883844972E-1
3.111624303E0,-3.304139674E-1,7.820003629E-1,7.932714224E-1
3.113624103E0,-3.328574300E-1,7.905524969E-1,7.951040864E-1
3.115623903E0,-3.249161541E-1,8.210957646E-1,7.908279896E-1
3.117623703E0,-3.181966543E-1,8.614128232E-1,7.853301764E-1
3.119623503E0,-3.145314753E-1,8.809605241E-1,7.804433107E-1
3.121623369E0,-3.065901995E-1,9.163907766E-1,7.718911767E-1
3.123623235E0,-3.023141623E-1,9.267754555E-1,7.670041919E-1
3.125623101E0,-2.968163788E-1,9.573186636E-1,7.541760802E-1
3.127622967E0,-2.943728864E-1,9.774772525E-1,7.401261330E-1
3.129622833E0,-2.913185656E-1,9.780881405E-1,7.321849465E-1
3.131622699E0,-2.864316702E-1,9.768663645E-1,7.163024545E-1
3.133622565E0,-2.876533866E-1,9.695360065E-1,7.022525072E-1
3.135622431E0,-2.870424986E-1,9.646490216E-1,6.949220896E-1
3.137622364E0,-2.845990658E-1,9.322732091E-1,6.833156943E-1
3.139622230E0,-2.845990658E-1,8.980647326E-1,6.656005979E-1
3.141622096E0,-2.864316702E-1,8.772953749E-1,6.576593518E-1
3.143646558E0,-2.845990658E-1,8.320913315E-1,6.515507102E-1
3.145646424E0,-2.833773196E-1,8.088784218E-1,6.460528970E-1
3.147646290E0,-2.815447450E-1,7.728374004E-1,6.503289938E-1
3.149646156E0,-2.760469317E-1,7.380180955E-1,6.546050310E-1
3.151646056E0,-2.760469317E-1,7.203029990E-1,6.539941430E-1
3.153645956E0,-2.687165439E-1,6.769315004E-1,6.527724862E-1
3.155645789E0,-2.681057155E-1,6.402795911E-1,6.521615386E-1
3.157645622E0,-2.711600363E-1,6.250079870E-1,6.521615386E-1
3.159645255E0,-2.766578197E-1,6.036276817E-1,6.521615386E-1
3.161645088E0,-2.766578197E-1,5.846909285E-1,6.436094642E-1
3.163644921E0,-2.791012824E-1,5.785822272E-1,6.466637850E-1
3.165644754E0,-2.888751328E-1,5.675866604E-1,6.472746730E-1
3.167644620E0,-2.998706996E-1,5.639214516E-1,6.497181058E-1
3.169644486E0,-3.059793413E-1,5.523150563E-1,6.503289938E-1
3.171644286E0,-3.163640499E-1,5.364325643E-1,6.491072178E-1
3.173644086E0,-3.249161541E-1,5.309347510E-1,6.448311806E-1
3.175643886E0,-3.377443552E-1,5.187174678E-1,6.454420686E-1
3.177643686E0,-3.530159593E-1,5.040566921E-1,6.491072178E-1
3.179643486E0,-3.609572053E-1,4.948936999E-1,6.503289938E-1
3.181643286E0,-3.743962348E-1,4.784003198E-1,6.497181058E-1
3.183643086E0,-3.853918016E-1,4.600743651E-1,6.527724862E-1
3.185642819E0,-3.939439356E-1,4.503005445E-1,6.521615386E-1
3.187642552E0,-4.055503905E-1,4.228116274E-1,6.539941430E-1
3.189642285E0,-4.226545990E-1,3.995987177E-1,6.546050310E-1
3.191642018E0,-4.299849868E-1,3.818836510E-1,6.564376354E-1
3.193641751E0,-4.391479790E-1,3.550055623E-1,6.552158594E-1
3.195641484E0,-4.428131580E-1,3.409556448E-1,6.558268070E-1
3.197641217E0,-4.458674788E-1,3.140775859E-1,6.521615386E-1
3.199641017E0,-4.550304711E-1,2.951407731E-1,6.497181058E-1
3.201640750E0,-4.611391425E-1,2.890321016E-1,6.491072178E-1
3.203640483E0,-4.733564258E-1,2.652083635E-1,6.411660314E-1
3.205640216E0,-4.886280596E-1,2.371085733E-1,6.301704049E-1
3.207639949E0,-4.990127683E-1,2.218369246E-1,6.210074425E-1
3.209639682E0,-5.155060887E-1,1.931262612E-1,5.971837044E-1
3.211639415E0,-5.393298864E-1,1.552526206E-1,5.672512650E-1
3.213639148E0,-5.478819609E-1,1.326505989E-1,5.532014370E-1
3.215638948E0,-5.668187737E-1,7.889447361E-2,5.299885273E-1
3.217638681E0,-5.747600794E-1,5.629245192E-2,5.177712440E-1
3.219638414E0,-5.839230418E-1,1.780794375E-2,5.055539012E-1
3.221638147E0,-5.900316834E-1,-1.212445367E-2,4.994452596E-1
3.223637880E0,-5.894208550E-1,-2.067656629E-2,4.957800508E-1
3.225637613E0,-5.857555866E-1,-4.022425413E-2,5.012778640E-1
3.227637346E0,-5.784252286E-1,-4.877636582E-2,5.086082220E-1
3.229637079E0,-5.747600794E-1,-4.999810085E-2,5.122734308E-1
3.231636879E0,-5.607101321E-1,-5.610674992E-2,5.202146769E-1
3.233636612E0,-5.436059833E-1,-6.465886533E-2,5.208255649E-1
3.235636345E0,-5.326103568E-1,-7.076751441E-2,5.202146769E-1
3.237636078E0,-5.118409395E-1,-8.054135740E-2,5.116625428E-1
3.239635811E0,-5.020670891E-1,-7.626530528E-2,5.055539012E-1
3.241635544E0,-4.904606640E-1,-5.488502234E-2,4.853953421E-1
3.243635277E0,-4.849628508E-1,-1.273531839E-2,4.517977536E-1
3.245635077E0,-4.843519926E-1,2.574919164E-2,4.298066199E-1
3.247634877E0,-4.867954850E-1,1.222658977E-1,3.705527186E-1
3.249634610E0,-4.898498058E-1,2.285564542E-1,3.112987578E-1
3.251634343E0,-4.892389178E-1,2.737604678E-1,2.917510569E-1
3.253634076E0,-4.880171716E-1,3.256840110E-1,2.660947144E-1
3.255633809E0,-4.874063134E-1,2.884212434E-1,2.612078190E-1
3.257633542E0,-4.874063134E-1,2.621540427E-1,2.630403936E-1
3.259633275E0,-4.929041266E-1,2.456606776E-1,2.777011693E-1
3.261633075E0,-4.922932386E-1,2.572671175E-1,2.825880945E-1
3.263632808E0,-4.910714924E-1,2.731496394E-1,2.996923327E-1
3.265632541E0,-4.886280596E-1,2.713170052E-1,3.345116377E-1
3.267632274E0,-4.819085300E-1,2.688735723E-1,3.595571220E-1
3.269632007E0,-4.751890302E-1,2.645975053E-1,4.072045982E-1
3.271631740E0,-4.531978667E-1,2.865886390E-1,4.499651790E-1
3.273631473E0,-4.348719120E-1,3.299600780E-1,4.689020216E-1
3.275631206E0,-3.530159593E-1,5.846909285E-1,5.110517144E-1
3.277631006E0,-2.552775145E-1,8.620237708E-1,6.014598012E-1
3.279630739E0,-2.076300383E-1,9.854184985E-1,6.515507102E-1
3.281630472E0,-1.392131299E-1,1.176619291E0,7.560086846E-1
3.283630205E0,-1.178328544E-1,1.254199266E0,8.036561012E-1
3.285629938E0,-8.973304927E-2,1.370263577E0,8.897881508E-1
3.287629671E0,-7.079622895E-2,1.474721551E0,9.508746862E-1
3.289629404E0,-5.735719204E-2,1.532142997E0,9.801962376E-1
3.291629137E0,4.465730116E-2,1.754497766E0,1.049834847E0
3.293628937E0,2.230299562E-1,2.172329664E0,1.182392597E0
3.295628670E0,3.232118487E-1,2.380634785E0,1.250809431E0
3.297628403E0,5.034171343E-1,2.802131891E0,1.372982502E0
3.299628136E0,6.616312265E-1,3.229737282E0,1.495155692E0
3.301627869E0,7.355458736E-1,3.458811760E0,1.547690034E0
3.303627602E0,8.039628267E-1,4.270040989E0,1.588007092E0
3.305627335E0,8.228995800E-1,4.746515751E0,1.600835323E0
3.307627068E0,8.375603557E-1,5.596229553E0,1.651537061E0
3.309626868E0,8.381712437E-1,6.202207565E0,1.699795365E0
3.311626601E0,7.734195590E-1,6.126460552E0,1.672917366E0
3.313626334E0,5.932142735E-1,5.668922424E0,1.571513772E0
3.315626067E0,4.380545318E-1,5.263307571E0,1.485992670E0
3.317625800E0,3.488681912E-1,4.960929871E0,1.431625605E0
3.319625533E0,1.442283392E-1,4.219950199E0,1.288683057E0
3.321625266E0,-5.613546073E-2,3.475915909E0,1.134134293E0
3.323625066E0,-1.550956219E-1,3.111229420E0,1.058997750E0
3.325624866E0,-3.444638550E-1,2.463712454E0,9.166662097E-1
3.327624599E0,-4.330393076E-1,2.183325291E0,8.458058238E-1
3.329624332E0,-5.906425714E-1,1.697687387E0,7.169132829E-1
3.331624065E0,-7.403045893E-1,1.331168175E0,5.990163088E-1
3.333623798E0,-8.129975200E-1,1.194945335E0,5.507579446E-1
3.335623531E0,-9.370031953E-1,1.014129162E0,4.585172832E-1
3.337623264E0,-1.043904543E0,9.432687759E-1,3.870460391E-1
3.339623064E0,-1.094606280E0,9.353275299E-1,3.540593386E-1
3.341622797E0,-1.179516554E0,9.976357818E-1,3.076335788E-1
3.343622530E0,-1.250377059E0,1.133247972E0,2.722033858E-1
3.345622263E0,-1.274811625E0,1.234040618E0,2.630403936E-1
3.347621996E0,-1.336508989E0,1.408748031E0,2.147820592E-1
3.349621729E0,-1.371328354E0,1.468002081E0,1.720214784E-1
3.351621462E0,-1.422641039E0,1.662257195E0,1.231522709E-1
3.353621195E0,-1.453795195E0,1.918209672E0,1.292609274E-1
3.355620995E0,-1.462958097E0,2.047102213E0,1.500303298E-1
3.357620728E0,-1.478229761E0,2.260905027E0,2.043973356E-1
3.359620461E0,-1.494112253E0,2.466155767E0,2.831989825E-1
3.361620194E0,-1.498999119E0,2.560229063E0,3.296247125E-1
3.363619927E0,-1.502664328E0,2.751430035E0,4.377478659E-1
3.365619660E0,-1.496555686E0,2.942019701E0,5.538122654E-1
3.367619393E0,-1.493501306E0,3.036704063E0,6.148988008E-1
3.369619126E0,-1.487392664E0,3.218130827E0,7.364609838E-1
3.371618926E0,-1.485560179E0,3.308539152E0,7.957149148E-1
3.373618659E0,-1.484949231E0,3.476526737E0,9.081141353E-1
3.375618392E0,-1.484949231E0,3.650623560E0,1.010739446E0
3.377618125E0,-1.489225388E0,3.731868744E0,1.058386922E0
3.379617858E0,-1.511216402E0,3.891304493E0,1.135966778E0
3.381617591E0,-1.546035767E0,4.026916504E0,1.187890410E0
3.383617324E0,-1.570470452E0,4.090446472E0,1.203161955E0
3.385617057E0,-1.621172190E0,4.180243492E0,1.212935925E0
3.387616857E0,-1.672484875E0,4.224225998E0,1.197664142E0
3.389616590E0,-1.693254232E0,4.223004341E0,1.186057687E0
3.391616323E0,-1.727462769E0,4.196125984E0,1.161623120E0
3.393616056E0,-1.743345261E0,4.170469761E0,1.150016665E0
3.395615789E0,-1.750064850E0,4.083116055E0,1.126803875E0
3.397615522E0,-1.737847567E0,3.951780081E0,1.105423570E0
3.399615255E0,-1.722575784E0,3.872367620E0,1.098704100E0
3.401615055E0,-1.676150203E0,3.677501678E0,1.091984510E0
3.403614855E0,-1.610176682E0,3.449038029E0,1.093817115E0
3.405614588E0,-1.566805124E0,3.314647675E0,1.101147532E0
3.407614321E0,-1.462958097E0,3.009215117E0,1.126803875E0
3.409614054E0,-1.346282840E0,2.681180477E0,1.167120934E0
3.411613787E0,-1.274811625E0,2.498531818E0,1.196442485E0
3.413613520E0,-1.137977839E0,2.131401539E0,1.263637662E0
3.415613253E0,-9.938135743E-1,1.759384751E0,1.354656577E0
3.417613053E0,-9.235640764E-1,1.564518809E0,1.402914882E0
3.419612853E0,-7.812324762E-1,1.163791180E0,1.507983804E0
3.421612586E0,-7.073178291E-1,9.567078352E-1,1.559296489E0
3.423612319E0,-5.772035122E-1,5.443737507E-1,1.655202270E0
3.425612052E0,-4.611391425E-1,1.497548372E-1,1.738890886E0
3.427611785E0,-4.122698903E-1,-2.861781418E-2,1.770044923E0
3.429611518E0,-3.243052959E-1,-3.572632968E-1,1.816470742E0
3.431611251E0,-2.687165439E-1,-6.584198475E-1,1.844570518E0
3.433611051E0,-2.534449399E-1,-7.891449928E-1,1.847014070E0
3.435610784E0,-2.436710894E-1,-1.026771665E0,1.851289988E0
3.437610517E0,-2.632187903E-1,-1.211863756E0,1.844570518E0
3.439610250E0,-2.815447450E-1,-1.286389351E0,1.836629272E0
3.441609983E0,-3.438529968E-1,-1.405508041E0,1.814638138E0
3.443609716E0,-3.841701150E-1,-1.454988122E0,1.801199079E0
3.445609449E0,-4.929041266E-1,-1.537454963E0,1.784094810E0
3.447609182E0,-6.285161972E-1,-1.617478251E0,1.772488356E0
3.449608982E0,-7.042635083E-1,-1.645578146E0,1.765768886E0
3.451608715E0,-8.722513914E-1,-1.716438532E0,1.757827640E0
3.453608448E0,-1.066506624E0,-1.814787865E0,1.763325453E0
3.455608181E0,-1.169742823E0,-1.881982923E0,1.775542736E0
3.457607914E0,-1.360943556E0,-2.064020634E0,1.804864287E0
3.459607647E0,-1.516103387E0,-2.313864708E0,1.850679159E0
3.461607380E0,-1.575357318E0,-2.465359449E0,1.878168106E0
3.463607113E0,-1.693865180E0,-2.815995932E0,1.961856723E0
3.465606913E0,-1.750064850E0,-2.997422934E0,2.012558460E0
3.467606646E0,-1.876513958E0,-3.385322332E0,2.127401114E0
3.469606379E0,-2.013347626E0,-3.774443626E0,2.225750446E0
3.471606112E0,-2.084208012E0,-3.966255188E0,2.252017498E0
3.473605845E0,-2.227761507E0,-4.332163811E0,2.226361275E0
3.475605578E0,-2.395749331E0,-4.639428616E0,2.005228043E0
3.477605311E0,-2.491655350E0,-4.763434410E0,1.824411988E0
3.479605044E0,-2.684688807E0,-4.947304726E0,1.367484689E0
3.481604844E0,-2.891161203E0,-5.012667656E0,8.378646374E-1
3.483604577E0,-2.977293015E0,-5.041378021E0,5.623643994E-1
3.485604310E0,-3.170326471E0,-4.964409351E0,3.946372494E-2
3.487604043E0,-3.269897461E0,-4.874001026E0,-1.957193911E-1
3.489603776E0,-3.448881149E0,-4.645536900E0,-5.854514241E-1
3.491603509E0,-3.557615042E0,-4.455558300E0,-8.572864532E-1
3.493603242E0,-3.595488787E0,-4.369426250E0,-9.464727640E-1
3.495603042E0,-3.635805845E0,-4.199605465E0,-1.049098134E0
3.497602842E0,-3.607706070E0,-4.095758438E0,-1.045432925E0
3.499602608E0,-3.564945221E0,-4.065215111E0,-1.013057113E0
3.501602374E0,-3.414061785E0,-4.053608894E0,-8.878297210E-1
3.503602140E0,-3.201480627E0,-4.092093468E0,-7.192308903E-1
3.505601906E0,-3.085416317E0,-4.110419273E0,-6.196598411E-1
3.507601672E0,-2.840459347E0,-4.117750168E0,-4.040244520E-1
3.509601438E0,-2.709734201E0,-4.111030102E0,-3.013990819E-1
3.511601271E0,-2.446451187E0,-4.098813057E0,-1.040896103E-1
3.513601037E0,-2.142240286E0,-4.134853840E0,6.023314595E-2
3.515600803E0,-1.965089321E0,-4.166619301E0,1.268174648E-1
3.517600569E0,-1.588185549E0,-4.209990025E0,2.324971408E-1
3.519600335E0,-1.239992261E0,-4.172116756E0,3.131313622E-1
3.521600101E0,-1.086665154E0,-4.107365131E0,3.424528837E-1
3.523599867E0,-8.343778253E-1,-3.881955862E0,3.760504723E-1
3.525599633E0,-6.505073309E-1,-3.545979977E0,3.638331592E-1
3.527599466E0,-5.772035122E-1,-3.339507341E0,3.400094211E-1
3.529599232E0,-4.605282545E-1,-2.877693415E0,2.697599232E-1
3.531598998E0,-4.134916365E-1,-2.626016855E0,2.184472531E-1
3.533598764E0,-3.310248256E-1,-2.090898991E0,1.017719805E-1
3.535598530E0,-2.607753277E-1,-1.530735493E0,-2.956404537E-2
3.537598296E0,-2.265668660E-1,-1.244850516E0,-9.187229723E-2
3.539598062E0,-1.557064950E-1,-6.736915112E-1,-2.109910250E-1
3.541597828E0,-8.667872846E-2,-1.269671172E-1,-3.044534028E-1
3.543597661E0,-4.575075209E-2,1.283745617E-1,-3.423270583E-1
3.545597427E0,3.671605512E-2,5.761387944E-1,-3.960831761E-1
3.547597193E0,1.295675635E-1,9.438796639E-1,-4.266264737E-1
3.549596959E0,1.735498607E-1,1.095374227E0,-4.357894361E-1
3.551596725E0,2.664014101E-1,1.340331197E0,-4.461741447E-1
3.553596491E0,3.164923489E-1,1.430739284E0,-4.461741447E-1
3.555596257E0,4.050678015E-1,1.560853481E0,-4.473958611E-1
3.557596023E0,4.942541122E-1,1.625605226E0,-4.370111823E-1
3.559595823E0,5.388472676E-1,1.632324815E0,-4.357894361E-1
3.561595556E0,6.176488996E-1,1.613387942E0,-4.144091606E-1
3.563595289E0,6.940070987E-1,1.550468922E0,-3.850876093E-1
3.565595022E0,7.239394784E-1,1.508930087E0,-3.661507964E-1
3.567594755E0,7.764738798E-1,1.402639389E0,-3.233902156E-1
3.569594488E0,8.149583936E-1,1.294516325E0,-2.763535976E-1
3.571594221E0,8.247322440E-1,1.241981983E0,-2.561950386E-1
3.573594021E0,8.314517140E-1,1.144243360E0,-2.164888084E-1
3.575593821E0,8.277865648E-1,1.103926420E0,-2.006063014E-1
3.577593554E0,8.094605803E-1,1.036731243E0,-1.700630486E-1
3.579593287E0,7.831933498E-1,9.738120437E-1,-1.413523853E-1
3.581593020E0,7.654782534E-1,9.451013803E-1,-1.285242140E-1
3.583592753E0,7.233285904E-1,8.919560909E-1,-1.114199907E-1
3.585592486E0,6.726267934E-1,8.430868983E-1,-8.881796896E-2
3.587592219E0,6.457487345E-1,8.186522722E-1,-7.965499908E-2
3.589592019E0,5.871056318E-1,7.703939080E-1,-6.804855168E-2
3.591591752E0,5.260190964E-1,7.227464318E-1,-6.010730565E-2
3.593591485E0,4.942541122E-1,7.007552981E-1,-5.949643999E-2
3.595591218E0,4.319458604E-1,6.512752175E-1,-5.888557807E-2
3.597590951E0,3.995700181E-1,6.256188154E-1,-5.888557807E-2
3.599590684E0,3.390943706E-1,5.718627572E-1,-5.522038788E-2
3.601590517E0,2.847273648E-1,5.150522590E-1,-5.216605589E-2
3.603590250E0,2.572384179E-1,4.826763868E-1,-5.094432831E-2
3.605590050E0,2.047040015E-1,4.179246724E-1,-4.300308228E-2
3.607589783E0,1.594999731E-1,3.507294953E-1,-4.239221662E-2
3.609589483E0,1.387305409E-1,3.183536232E-1,-3.994875401E-2
3.611589216E0,9.902431071E-2,2.615431845E-1,-3.567269817E-2
3.613588949E0,6.420499086E-2,2.181717306E-1,-3.628356010E-2
3.615588682E0,4.648989812E-2,1.937371343E-1,-3.445096686E-2
3.617588415E0,2.022269368E-2,1.515874267E-1,-4.422480986E-2
3.619588148E0,8.005389012E-3,1.295962781E-1,-4.300308228E-2
3.621587948E0,-1.398575958E-2,9.294436872E-2,-4.972260073E-2
3.623587681E0,-3.231171891E-2,5.018379912E-2,-5.827471241E-2
3.625587414E0,-3.658777103E-2,2.758178674E-2,-6.193990260E-2
3.627587147E0,-4.758334905E-2,-1.212445367E-2,-6.132903695E-2
3.629586880E0,-4.819421470E-2,-5.488502234E-2,-5.766384676E-2
3.631586613E0,-5.002680793E-2,-8.115223050E-2,-4.911173135E-2
3.633586346E0,-4.330729321E-2,-1.324649006E-1,-3.567269817E-2
3.635586079E0,-3.292258084E-2,-1.935514361E-1,-1.429241337E-2
3.637585879E0,-2.620306425E-2,-2.234838307E-1,-2.075109165E-3
3.639585612E0,-6.655376870E-3,-2.833486199E-1,2.724642120E-2
3.641585345E0,3.118467052E-3,-3.206113875E-1,4.496151209E-2
3.643585078E0,2.572048269E-2,-3.853631318E-1,8.527861536E-2
3.645584811E0,5.504200980E-2,-4.611104131E-1,1.359804422E-1
3.647584544E0,7.336797565E-2,-5.057035685E-1,1.689671576E-1
3.649584277E0,1.112416163E-1,-6.217679381E-1,2.471579164E-1
3.651584077E0,1.711064130E-1,-8.148013949E-1,3.247377872E-1
3.653583877E0,2.047040015E-1,-9.174267650E-1,3.308464289E-1
3.655583610E0,2.743426263E-1,-1.102518916E0,3.143530786E-1
3.657583343E0,2.761752307E-1,-1.367634416E0,3.088552952E-1
3.659583076E0,2.328038067E-1,-1.724379778E0,3.094661534E-1
3.661582709E0,1.558347791E-1,-2.412214041E0,3.656657636E-1
3.663582442E0,1.533913165E-1,-2.731085777E0,4.316392243E-1
3.665582175E0,1.405631453E-1,-2.837986946E0,4.548520744E-1
3.667581975E0,1.204045936E-1,-3.029187918E0,4.927257299E-1
3.669581808E0,1.216263250E-1,-3.094550610E0,4.951691926E-1
3.671581541E0,1.350653470E-1,-3.135478497E0,4.682911336E-1
3.673581274E0,1.698846668E-1,-3.114708900E0,3.992633522E-1
3.675581007E0,1.900432259E-1,-3.101269960E0,3.583353758E-1
3.677580740E0,2.321929336E-1,-3.064007282E0,2.599860728E-1
3.679580473E0,2.749534845E-1,-3.009029388E0,1.628585011E-1
3.681580206E0,2.969446480E-1,-2.968101263E0,1.103240997E-1
3.683580006E0,3.403160572E-1,-2.870973825E0,-2.075109165E-3
3.685579739E0,3.824657798E-1,-2.746968269E0,-1.108091176E-1
3.687579472E0,4.007917345E-1,-2.680383682E0,-1.651761383E-1
3.689579205E0,4.423305690E-1,-2.539273977E0,-2.616928518E-1
3.691578938E0,4.582130611E-1,-2.462304831E0,-3.075077236E-1
3.693578671E0,4.857020080E-1,-2.300425768E0,-3.936397433E-1
3.695578404E0,5.028062463E-1,-2.116555214E0,-4.626675248E-1
3.697578137E0,5.113583207E-1,-2.015151501E0,-4.944325089E-1
3.699577937E0,5.107474923E-1,-1.801348805E0,-5.469669104E-1
3.701577670E0,5.052496791E-1,-1.574106932E0,-5.921709538E-1
3.703577403E0,4.954758584E-1,-1.458653331E0,-6.098860502E-1
3.705577136E0,4.747064412E-1,-1.227135420E0,-6.385966539E-1
3.707576869E0,4.514935613E-1,-9.931740165E-1,-6.648638844E-1
3.709576602E0,4.356110394E-1,-8.813856840E-1,-6.770811677E-1
3.711576335E0,4.026243389E-1,-6.694154739E-1,-6.984614730E-1
3.713576068E0,3.879635632E-1,-5.686227083E-1,-7.088462114E-1
3.715575868E0,3.586420417E-1,-3.835305274E-1,-7.265613079E-1
3.717575601E0,3.232118487E-1,-2.143208534E-1,-7.436655164E-1
3.719575334E0,3.073293567E-1,-1.385735571E-1,-7.516067624E-1
3.721575067E0,2.712883055E-1,5.590638611E-3,-7.632132173E-1
3.723574800E0,2.401341796E-1,1.259310842E-1,-7.723761797E-1
3.725574533E0,2.260842770E-1,1.778546423E-1,-7.766522169E-1
3.727574266E0,1.961518824E-1,2.737604678E-1,-7.821500301E-1
3.729573999E0,1.674412191E-1,3.446208537E-1,-7.845935225E-1
3.731573799E0,1.546130478E-1,3.788293004E-1,-7.809282541E-1
3.733573532E0,1.338436306E-1,4.270876348E-1,-7.790957093E-1
3.735573265E0,1.222371906E-1,4.472462237E-1,-7.790957093E-1
3.737572998E0,1.026894972E-1,4.729025662E-1,-7.681000829E-1
3.739572731E0,8.986132592E-2,4.820655286E-1,-7.583262920E-1
3.741572464E0,8.375267684E-2,4.820655286E-1,-7.546610832E-1
3.743572197E0,7.397883385E-2,4.771786332E-1,-7.400003076E-1
3.745571997E0,6.359412521E-2,4.612961113E-1,-7.228960991E-1
3.747571797E0,6.542672217E-2,4.515222907E-1,-7.082353234E-1
3.749571530E0,6.909190863E-2,4.246442020E-1,-6.795246601E-1
3.751571263E0,7.886575907E-2,3.928792179E-1,-6.483705640E-1
3.753570996E0,8.741787076E-2,3.733315170E-1,-6.300445795E-1
3.755570729E0,1.045220941E-1,3.421773911E-1,-5.946143866E-1
3.757570462E0,1.136850715E-1,3.177427649E-1,-5.720123649E-1
3.759570195E0,1.338436306E-1,2.774256468E-1,-5.304735899E-1
3.761569995E0,1.527804583E-1,2.261129916E-1,-4.846586585E-1
3.763569728E0,1.601108462E-1,2.077870369E-1,-4.675544202E-1
3.765569461E0,1.753824651E-1,1.631938815E-1,-4.223504066E-1
3.767569194E0,1.851563156E-1,1.204333007E-1,-3.765355051E-1
3.769568927E0,1.857671887E-1,1.021073461E-1,-3.533226252E-1
3.771568660E0,1.894323677E-1,6.728802621E-2,-3.111729026E-1
3.773568393E0,1.875997782E-1,3.796649724E-2,-2.714666724E-1
3.775568126E0,1.839345843E-1,2.758178674E-2,-2.494755387E-1
3.777567926E0,1.753824651E-1,8.644965477E-3,-2.042714953E-1
3.779567659E0,1.686629504E-1,4.368908238E-3,-1.865564138E-1
3.781567392E0,1.540021747E-1,2.536312677E-3,-1.425741166E-1
3.783567125E0,1.320110261E-1,6.201503798E-3,-1.040896103E-1
3.785566858E0,1.185719967E-1,8.034099825E-3,-8.820711076E-2
3.787566591E0,9.169392288E-2,2.636005729E-2,-5.399865285E-2
3.789566324E0,5.870720372E-2,5.140553415E-2,-2.895317972E-2
3.791566057E0,4.099211097E-2,6.973148882E-2,-2.101193182E-2
3.793565857E0,5.561928265E-3,1.137137935E-1,-1.062722318E-2
3.795565590E0,-3.597690910E-2,1.656373292E-1,-1.245981921E-2
3.797565323E0,-5.491372943E-2,1.943479925E-1,-1.612501033E-2
3.799565056E0,-9.339823574E-2,2.517693341E-1,-2.223366126E-2
3.801564789E0,-1.123350710E-1,2.804799974E-1,-2.345539257E-2
3.803564522E0,-1.483761072E-1,3.299600780E-1,-3.139664233E-2
3.805564255E0,-1.795302480E-1,3.727206290E-1,-3.445096686E-2
3.807563988E0,-1.880823523E-1,3.886031508E-1,-3.445096686E-2
3.809563788E0,-2.100735009E-1,4.118160307E-1,-2.895317972E-2
3.811563521E0,-2.241234034E-1,4.228116274E-1,-2.895317972E-2
3.813563254E0,-2.314537764E-1,4.222007394E-1,-2.589885332E-2
3.815562987E0,-2.345081121E-1,4.185355604E-1,-1.917933673E-2
3.817562720E0,-2.345081121E-1,4.081508517E-1,-1.795760542E-2
3.819562453E0,-2.338972539E-1,4.020421803E-1,-1.734674163E-2
3.821562186E0,-2.290103287E-1,3.837162256E-1,-1.551414467E-2
3.823561986E0,-2.277885824E-1,3.751641214E-1,-1.368154865E-2
3.825561786E0,-2.186256051E-1,3.537838161E-1,-1.490327902E-2
3.827561519E0,-2.070191801E-1,3.269057572E-1,-1.795760542E-2
3.829561252E0,-1.978562027E-1,3.122449815E-1,-1.612501033E-2
3.831560985E0,-1.825845689E-1,2.810908556E-1,-1.551414467E-2
3.833560718E0,-1.660912037E-1,2.462715507E-1,-1.917933673E-2
3.835560451E0,-1.563173681E-1,2.285564542E-1,-1.734674163E-2
3.837560184E0,-1.343262196E-1,1.876284778E-1,-2.040106617E-2
3.839559984E0,-1.135567948E-1,1.442570537E-1,-2.284452878E-2
3.841559717E0,-1.019503549E-1,1.216550395E-1,-2.284452878E-2
3.843559450E0,-7.934834063E-2,7.889447361E-2,-2.284452878E-2
3.845559183E0,-6.590931118E-2,5.690332130E-2,-2.467712387E-2
3.847558916E0,-4.269642755E-2,1.353188697E-2,-2.223366126E-2
3.849558649E0,-2.253787220E-2,-2.617435530E-2,-2.040106617E-2
3.851558382E0,-1.032056846E-2,-4.511117563E-2,-1.856846921E-2
3.853558115E0,1.411404088E-2,-7.993049920E-2,-1.429241337E-2
3.855557915E0,3.182913363E-2,-1.141389459E-1,-6.962031592E-3
3.857557648E0,4.099211097E-2,-1.287997067E-1,-3.907705192E-3
3.859557381E0,5.870720372E-2,-1.514017284E-1,-2.685974585E-3
3.861557114E0,7.458969951E-2,-1.740037352E-1,2.200947609E-3
3.863556847E0,8.130922168E-2,-1.825558692E-1,4.644408356E-3
3.865556580E0,9.230479598E-2,-1.966057569E-1,5.866138730E-3
3.867556313E0,9.474825114E-2,-2.027144134E-1,1.075306162E-2
3.869556046E0,1.020786390E-1,-2.118773907E-1,1.380738709E-2
3.871555846E0,1.112416163E-1,-2.185969055E-1,1.808344387E-2
3.873555579E0,1.118524745E-1,-2.234838307E-1,2.297036536E-2
3.875555312E0,1.149068102E-1,-2.289816141E-1,2.663555741E-2
3.877555045E0,1.204045936E-1,-2.289816141E-1,3.091161326E-2
3.879554778E0,1.228480563E-1,-2.302033454E-1,3.152247891E-2
3.881554511E0,1.240697876E-1,-2.326468080E-1,3.640940040E-2
3.883554244E0,1.289567053E-1,-2.308142036E-1,4.190718755E-2
3.885553977E0,1.283458471E-1,-2.302033454E-1,4.312891886E-2
3.887553777E0,1.320110261E-1,-2.265381515E-1,4.618324712E-2
3.889553510E0,1.326218992E-1,-2.234838307E-1,4.923757166E-2
3.891553243E0,1.314001679E-1,-2.185969055E-1,4.984843731E-2
3.893552976E0,1.320110261E-1,-2.161534429E-1,5.229189619E-2
3.895552709E0,1.307893097E-1,-2.106556594E-1,5.229189619E-2
3.897552442E0,1.301784366E-1,-2.045470178E-1,4.923757166E-2
3.899552175E0,1.277349740E-1,-2.002709508E-1,5.351363122E-2
3.901551975E0,1.271241158E-1,-1.941622943E-1,5.107016861E-2
3.903551775E0,1.222371906E-1,-1.880536526E-1,5.351363122E-2
3.905551541E0,1.173502654E-1,-1.825558692E-1,5.107016861E-2
3.907551307E0,1.130742133E-1,-1.795015186E-1,5.229189619E-2
3.909551073E0,1.069655642E-1,-1.758363396E-1,4.923757166E-2
3.911550839E0,9.963517636E-2,-1.709494144E-1,4.862670600E-2
3.913550605E0,9.658084810E-2,-1.691168249E-1,4.923757166E-2
3.915550371E0,8.802873641E-2,-1.636190265E-1,4.557238147E-2
3.917550204E0,8.497440815E-2,-1.599538475E-1,4.373978451E-2
3.919550037E0,7.581143081E-2,-1.544560492E-1,4.129632190E-2
3.921549803E0,6.481585652E-2,-1.495691389E-1,4.129632190E-2
3.923549569E0,5.748547241E-2,-1.465148032E-1,4.068545997E-2
3.925549335E0,4.832249507E-2,-1.428496093E-1,3.824199736E-2
3.927549101E0,3.793778643E-2,-1.306323111E-1,3.640940040E-2
3.929548867E0,3.243999928E-2,-1.275779903E-1,3.579853475E-2
3.931548633E0,2.205529064E-2,-1.214693263E-1,3.274421021E-2
3.933548466E0,1.289231144E-2,-1.104737520E-1,2.785728872E-2
3.935548232E0,5.561928265E-3,-1.074194312E-1,2.785728872E-2
3.937547998E0,-5.467243609E-4,-1.006999165E-1,2.113777027E-2
3.939547764E0,-6.655376870E-3,-9.642385691E-2,2.235950157E-2
3.941547530E0,-1.398575958E-2,-8.542828262E-2,1.747257821E-2
3.943547296E0,-2.559219860E-2,-8.054135740E-2,1.686171256E-2
3.945547062E0,-2.864652686E-2,-7.565443963E-2,1.075306162E-2
3.947546828E0,-3.414431214E-2,-6.282626837E-2,8.309599943E-3
3.949546661E0,-4.269642755E-2,-5.855021253E-2,5.255274009E-3
3.951546427E0,-4.391815513E-2,-5.244155973E-2,4.033543169E-3
3.953546193E0,-4.941594228E-2,-4.327857867E-2,2.200947609E-3
3.955545959E0,-5.308113620E-2,-3.716992959E-2,-2.075109165E-3
3.957545725E0,-5.613546073E-2,-2.861781418E-2,9.792170022E-4
3.959545491E0,-5.857892334E-2,-2.495262399E-2,-2.685974585E-3
3.961545257E0,-6.224411353E-2,-2.189829573E-2,-5.740300752E-3
3.963545023E0,-6.407671422E-2,-1.517877914E-2,-6.351165939E-3
3.965544823E0,-6.774190068E-2,-7.848396897E-3,-1.184895355E-2
3.967544556E0,-6.590931118E-2,-5.404935684E-3,-1.368154865E-2
3.969544289E0,-6.774190068E-2,-1.128878910E-3,-1.123808790E-2
3.971544022E0,-7.262882590E-2,5.590638611E-3,-1.123808790E-2
3.973543755E0,-7.262882590E-2,6.812369451E-3,-1.429241337E-2
3.975543488E0,-7.201796025E-2,1.231015660E-2,-1.490327902E-2
3.977543221E0,-7.446141541E-2,1.658621430E-2,-1.490327902E-2
3.979542954E0,-7.323968410E-2,1.902967505E-2,-1.368154865E-2
3.981542754E0,-7.507228106E-2,2.574919164E-2,-1.307068393E-2
3.983542487E0,-7.385055721E-2,2.758178674E-2,-1.307068393E-2
3.985542220E0,-7.812660933E-2,3.369044140E-2,-1.184895355E-2
3.987541953E0,-7.751574367E-2,3.979909047E-2,-1.184895355E-2
3.989541686E0,-7.507228106E-2,3.796649724E-2,-1.123808790E-2
3.991541419E0,-7.446141541E-2,4.224255309E-2,-7.572896313E-3
3.993541152E0,-7.262882590E-2,4.529687762E-2,-6.351165939E-3
3.995540952E0,-7.385055721E-2,4.896207154E-2,-7.572896313E-3
3.997540752E0,-7.201796025E-2,5.201639608E-2,-5.129435565E-3
3.999540485E0,-7.079622895E-2,5.507072434E-2,-1.464243978E-3
4.001540218E0,-7.018536329E-2,5.323812738E-2,-2.075109165E-3
4.003539951E0,-6.529843807E-2,5.690332130E-2,2.200947609E-3
4.005539684E0,-6.407671422E-2,5.873591453E-2,-2.425135026E-4
4.007539417E0,-6.102238595E-2,5.751418322E-2,5.255274009E-3
4.009539150E0,-5.796805397E-2,5.690332130E-2,5.866138730E-3
4.011538950E0,-5.980065092E-2,5.629245192E-2,1.014219597E-2
4.013538683E0,-5.369200185E-2,5.507072434E-2,9.531330317E-3
