"Time (s)","Gyroscope x (rad/s)","Gyroscope y (rad/s)","Gyroscope z (rad/s)"
4.637234300E-2,3.071184158E0,-2.266712189E0,7.196027637E-1
4.888088500E-2,3.082901955E0,-2.301866293E0,7.153417468E-1
5.138942700E-2,3.131904125E0,-2.383891344E0,7.174727917E-1
5.389796800E-2,3.184101105E0,-2.461655378E0,7.132107615E-1
5.640651000E-2,3.226711988E0,-2.529832363E0,7.100157738E-1
5.891505200E-2,3.266126156E0,-2.588421345E0,7.014937997E-1
6.142364600E-2,3.302345037E0,-2.636358261E0,6.961667538E-1
6.393218700E-2,3.332173109E0,-2.671511412E0,6.919057965E-1
6.661838500E-2,3.347085953E0,-2.690686226E0,6.833837628E-1
6.912692700E-2,3.354542971E0,-2.691751242E0,6.801877618E-1
7.163546800E-2,3.352411985E0,-2.690686226E0,6.791227460E-1
7.414401000E-2,3.338564157E0,-2.683229208E0,6.801877618E-1
7.665255200E-2,3.312998056E0,-2.662989378E0,6.759267449E-1
7.916109300E-2,3.275714159E0,-2.629966259E0,6.716657877E-1
8.166963500E-2,3.221385002E0,-2.582029343E0,6.588827968E-1
8.417817700E-2,3.156404972E0,-2.534093380E0,6.407737732E-1
8.668671800E-2,3.071184158E0,-2.497874260E0,6.247947812E-1
8.919526000E-2,2.968919039E0,-2.475503206E0,6.077507734E-1
9.170385400E-2,2.862393141E0,-2.475503206E0,5.917717814E-1
9.421239600E-2,2.751605988E0,-2.490417242E0,5.789887905E-1
9.691921800E-2,2.636558056E0,-2.513853312E0,5.651397705E-1
9.942776000E-2,2.522575140E0,-2.542615414E0,5.480957627E-1
1.019363020E-1,2.416049004E0,-2.563920259E0,5.289217830E-1
1.044448430E-1,2.312719107E0,-2.563920259E0,5.150727630E-1
1.069533850E-1,2.211519003E0,-2.538354397E0,5.001587868E-1
1.094619270E-1,2.118841171E0,-2.491482258E0,4.905717671E-1
1.119704680E-1,2.030425072E0,-2.436089277E0,4.852457643E-1
1.144790100E-1,1.943073153E0,-2.372173309E0,4.852457643E-1
1.169875520E-1,1.854657173E0,-2.305062294E0,4.905717671E-1
1.194960930E-1,1.767306209E0,-2.235820293E0,5.012247562E-1
1.220046870E-1,1.677824140E0,-2.163382292E0,5.161377788E-1
1.245132290E-1,1.586211205E0,-2.093075275E0,5.331827998E-1
1.272122910E-1,1.490338206E0,-2.030225277E0,5.534217954E-1
1.297208330E-1,1.391269207E0,-1.962048292E0,5.715317726E-1
1.322293750E-1,1.297526121E0,-1.891741276E0,5.907067657E-1
1.347379160E-1,1.203783154E0,-1.819303274E0,6.066847444E-1
1.372464580E-1,1.107910156E0,-1.751127243E0,6.237297654E-1
1.397550000E-1,1.017363191E0,-1.688276291E0,6.375777721E-1
1.422635410E-1,9.289461374E-1,-1.625426292E0,6.450347900E-1
1.447720830E-1,8.415951133E-1,-1.563641310E0,6.567527652E-1
1.472806250E-1,7.531781197E-1,-1.502921343E0,6.642097831E-1
1.497891660E-1,6.743491292E-1,-1.443267345E0,6.737967730E-1
1.522977600E-1,5.997810960E-1,-1.385742307E0,6.801877618E-1
1.548063020E-1,5.273430943E-1,-1.329284310E0,6.865797639E-1
1.574978120E-1,4.559711516E-1,-1.279216290E0,6.897757649E-1
1.600063540E-1,3.867291510E-1,-1.231280327E0,6.940367818E-1
1.625148960E-1,3.142911494E-1,-1.190800309E0,6.993627548E-1
1.650234370E-1,2.471801341E-1,-1.158842325E0,7.046887875E-1
1.675319790E-1,1.811331362E-1,-1.125819325E0,7.110807896E-1
1.700405210E-1,1.204141304E-1,-1.101318359E0,7.164067626E-1
1.725490620E-1,6.395512819E-2,-1.078948259E0,7.217337489E-1
1.750576040E-1,2.170131076E-3,-1.056577325E0,7.249287963E-1
1.775661460E-1,-4.789586738E-2,-1.033141255E0,7.313207984E-1
1.800746870E-1,-9.476786852E-2,-1.013967276E0,7.387777567E-1
1.825832810E-1,-1.416388750E-1,-9.979882240E-1,7.504957914E-1
1.850917710E-1,-1.874458641E-1,-9.820092320E-1,7.590177655E-1
1.877822910E-1,-2.321858704E-1,-9.713562131E-1,7.686047554E-1
1.902908330E-1,-2.747968435E-1,-9.596382380E-1,7.792577744E-1
1.927993750E-1,-3.174068630E-1,-9.479212165E-1,7.899097800E-1
1.953079160E-1,-3.568218648E-1,-9.404642582E-1,8.048237562E-1
1.978164580E-1,-3.983668685E-1,-9.436602592E-1,8.176067472E-1
2.003250000E-1,-4.409768581E-1,-9.500512481E-1,8.250637650E-1
2.028335410E-1,-4.846528471E-1,-9.543122649E-1,8.293247819E-1
2.053420830E-1,-5.304588675E-1,-9.575082660E-1,8.303897977E-1
2.078506250E-1,-5.762648582E-1,-9.564432502E-1,8.271937966E-1
2.103591660E-1,-6.242018938E-1,-9.489862323E-1,8.250637650E-1
2.128677600E-1,-6.774649024E-1,-9.436602592E-1,8.208027482E-1
2.153763020E-1,-7.360538840E-1,-9.308762550E-1,8.154757619E-1
2.180796350E-1,-7.914478779E-1,-9.063752294E-1,8.112147450E-1
2.205881770E-1,-8.511028886E-1,-8.797442317E-1,8.101497889E-1
2.230967180E-1,-9.139528871E-1,-8.488512635E-1,8.069537878E-1
2.256052600E-1,-9.746729136E-1,-8.115672469E-1,8.026927710E-1
2.281138020E-1,-1.042848825E0,-7.678922415E-1,8.016277552E-1
2.306223430E-1,-1.109960794E0,-7.188902497E-1,8.005627990E-1
2.331308850E-1,-1.178136826E0,-6.677572131E-1,8.016277552E-1
2.356394270E-1,-1.246313810E0,-6.155592203E-1,8.016277552E-1
2.381479680E-1,-1.314490795E0,-5.559052229E-1,8.016277552E-1
2.406565100E-1,-1.383732796E0,-4.941202700E-1,8.005627990E-1
2.431651040E-1,-1.444451809E0,-4.334002733E-1,7.984317541E-1
2.456736460E-1,-1.508367777E0,-3.694842756E-1,8.026927710E-1
2.483651040E-1,-1.570152879E0,-3.045042753E-1,8.080197573E-1
2.508736460E-1,-1.630872846E0,-2.427182645E-1,8.080197573E-1
2.533821870E-1,-1.687331796E0,-1.819992661E-1,8.112147450E-1
2.558907290E-1,-1.746985793E0,-1.234092712E-1,8.176067472E-1
2.583992710E-1,-1.805574775E0,-7.227727026E-2,8.250637650E-1
2.609078120E-1,-1.860968828E0,-3.179726750E-2,8.303897977E-1
2.634163540E-1,-1.916362882E0,-1.971268561E-3,8.367817998E-1
2.659248960E-1,-1.973886847E0,1.933373138E-2,8.378467560E-1
2.684334370E-1,-2.028214931E0,2.679073066E-2,8.378467560E-1
2.709419790E-1,-2.079346895E0,2.252973244E-2,8.346507549E-1
2.734505210E-1,-2.125153065E0,4.420731217E-3,8.261287808E-1
2.759591140E-1,-2.169893980E0,-3.073226660E-2,8.112147450E-1
2.786293230E-1,-2.201851845E0,-7.653827220E-2,7.888447642E-1
2.811378640E-1,-2.224222898E0,-1.191482693E-1,7.728657722E-1
2.836464580E-1,-2.228483915E0,-1.670852751E-1,7.430387735E-1
2.861549480E-1,-2.202916861E0,-2.065002769E-1,7.153417468E-1
2.886635410E-1,-2.141131878E0,-2.331312746E-1,6.833837628E-1
2.911720310E-1,-2.052716017E0,-2.331312746E-1,6.407737732E-1
2.936806250E-1,-1.937667847E0,-2.065002769E-1,5.981627703E-1
2.961891660E-1,-1.789596796E0,-1.457802653E-1,5.480957627E-1
2.986977080E-1,-1.622350812E0,-6.801626831E-2,4.873757660E-1
3.012062500E-1,-1.441256881E0,1.507273223E-2,4.234607816E-1
3.037147910E-1,-1.245248795E0,9.922873229E-2,3.542187810E-1
3.062232810E-1,-1.038587809E0,1.737967283E-1,2.807157636E-1
3.089166140E-1,-8.276668787E-1,2.302557230E-1,2.018867731E-1
3.114251560E-1,-6.146149039E-1,2.686047256E-1,1.187957749E-1
3.139337500E-1,-4.079538584E-1,2.718007267E-1,3.037976846E-2
3.164422910E-1,-2.225988656E-1,2.355817258E-1,-5.377523229E-2
3.189508330E-1,-5.322286859E-2,1.759277284E-1,-1.368652284E-1
3.214593750E-1,9.697812796E-2,1.322517246E-1,-2.114332318E-1
3.239679160E-1,2.301351279E-1,9.070672840E-2,-2.689572275E-1
3.264764580E-1,3.483791351E-1,4.490073398E-2,-3.083722293E-1
3.289850000E-1,4.485141337E-1,-1.971268561E-3,-3.296772242E-1
3.314935410E-1,5.209510922E-1,-3.925426677E-2,-3.254162371E-1
3.340020830E-1,5.774101019E-1,-6.695127487E-2,-3.041112423E-1
3.365106250E-1,6.168251038E-1,-9.784327447E-2,-2.689572275E-1
3.392099480E-1,6.423910856E-1,-1.340622753E-1,-2.220862210E-1
3.417184890E-1,6.636961102E-1,-1.819992661E-1,-1.645622253E-1
3.442270310E-1,6.839361191E-1,-2.405882776E-1,-1.038422287E-1
3.467356250E-1,7.041761279E-1,-2.970472574E-1,-3.992623091E-2
3.492441660E-1,7.286770940E-1,-3.598972857E-1,2.079176717E-2
3.517527080E-1,7.606351376E-1,-4.206172824E-1,7.938177139E-2
3.542612500E-1,7.957881093E-1,-4.813372791E-1,1.283837706E-1
3.567697910E-1,8.330731392E-1,-5.388612151E-1,1.688637733E-1
3.592783330E-1,8.735521436E-1,-5.772102475E-1,2.018867731E-1
3.617868750E-1,9.161630869E-1,-6.102332473E-1,2.189307660E-1
3.642954160E-1,9.491860867E-1,-6.411262155E-1,2.231917679E-1
3.668039580E-1,9.747521281E-1,-6.656272411E-1,2.008207738E-1
3.695217180E-1,9.875351191E-1,-6.837362647E-1,1.656677723E-1
3.720302600E-1,9.864701033E-1,-6.933232546E-1,1.177307740E-1
3.745388020E-1,9.683611393E-1,-6.848012209E-1,6.127176806E-2
3.770473430E-1,9.353381395E-1,-6.634962559E-1,-1.578231342E-3
3.795558850E-1,8.863360882E-1,-6.357992291E-1,-6.868822873E-2
3.820644270E-1,8.224201202E-1,-6.049072146E-1,-1.347342283E-1
3.845729680E-1,7.435911298E-1,-5.654922128E-1,-2.018462270E-1
3.870815100E-1,6.605001092E-1,-5.441872478E-1,-2.657612264E-1
3.895900520E-1,5.731490850E-1,-5.367302299E-1,-3.115682304E-1
3.920985930E-1,4.794061482E-1,-5.495132208E-1,-3.477862179E-1
3.946071870E-1,3.856631517E-1,-5.761452317E-1,-3.690922260E-1
3.971157290E-1,2.897901535E-1,-6.144942641E-1,-3.818752170E-1
3.998257290E-1,1.960471272E-1,-6.475172639E-1,-3.872012198E-1
4.023342710E-1,1.001741290E-1,-6.794752479E-1,-3.850712180E-1
4.048428120E-1,1.069213171E-2,-7.018462420E-1,-3.701572418E-1
4.073513540E-1,-8.304987103E-2,-7.135632634E-1,-3.392642140E-1
4.098598960E-1,-1.735968739E-1,-7.103682160E-1,-3.094372153E-1
4.123684370E-1,-2.577528656E-1,-6.911932230E-1,-2.689572275E-1
4.148769790E-1,-3.344508708E-1,-6.560392380E-1,-2.263472229E-1
4.173855210E-1,-4.015628695E-1,-6.176902652E-1,-1.890632212E-1
4.198940620E-1,-4.526948631E-1,-5.644272566E-1,-1.571052223E-1
4.224026040E-1,-4.867838621E-1,-5.037072301E-1,-1.347342283E-1
4.249111980E-1,-4.963708520E-1,-4.451182783E-1,-1.144952253E-1
4.274197390E-1,-4.835878611E-1,-3.822682798E-1,-1.017112285E-1
4.300804680E-1,-4.622828662E-1,-3.045042753E-1,-9.212423116E-2
4.325890100E-1,-4.228678644E-1,-2.086302638E-1,-9.105923027E-2
4.350976040E-1,-3.834528625E-1,-9.038627148E-2,-8.786322922E-2
4.376061460E-1,-3.461688459E-1,5.022673309E-2,-8.040622622E-2
4.401146870E-1,-3.024938703E-1,2.121467292E-1,-6.229723245E-2
4.426232290E-1,-2.641438544E-1,3.911097348E-1,-3.566523269E-2
4.451317710E-1,-2.332518697E-1,5.732697845E-1,5.527687026E-4
4.476403120E-1,-2.066198736E-1,7.447767854E-1,3.890176862E-2
4.501488540E-1,-1.874458641E-1,8.917817473E-1,8.151177317E-2
4.526573960E-1,-1.778578758E-1,1.010025740E0,1.294487715E-1
4.551659370E-1,-1.842498779E-1,1.085659742E0,1.848427653E-1
4.576744790E-1,-2.225988656E-1,1.119747758E0,2.455617785E-1
4.603685410E-1,-2.875798643E-1,1.111225724E0,3.062817752E-1
4.628770830E-1,-3.866488636E-1,1.072876692E0,3.648707569E-1
4.653856770E-1,-5.176758766E-1,1.006830692E0,4.255907834E-1
4.678942180E-1,-6.636168957E-1,9.258707762E-1,4.756587744E-1
4.704027600E-1,-8.138178587E-1,8.566287756E-1,5.161377788E-1
4.729112500E-1,-9.565628767E-1,8.268017769E-1,5.523567796E-1
4.754198430E-1,-1.073741794E0,8.502367735E-1,5.864457488E-1
4.779283850E-1,-1.161092877E0,9.301317334E-1,6.045547724E-1
4.804369270E-1,-1.204768777E0,1.057962656E0,6.141417623E-1
4.829454680E-1,-1.206898808E0,1.210294724E0,6.141417623E-1
4.854540100E-1,-1.174941778E0,1.353039742E0,5.907067657E-1
4.879625520E-1,-1.102503777E0,1.451043725E0,5.544877648E-1
4.906973960E-1,-9.970428944E-1,1.495784640E0,5.076157451E-1
4.932059370E-1,-8.638858795E-1,1.480870724E0,4.522227645E-1
4.957144790E-1,-7.104879022E-1,1.399910688E0,3.851107657E-1
4.982230210E-1,-5.528298616E-1,1.262492657E0,3.105427623E-1
5.007315620E-1,-4.154108465E-1,1.070745707E0,2.263877690E-1
5.032401040E-1,-3.163418472E-1,8.608897328E-1,1.443627775E-1
5.057486460E-1,-2.758618593E-1,7.011007667E-1,6.233776733E-2
5.082571870E-1,-3.088848591E-1,5.913787484E-1,-3.708231263E-3
5.107657290E-1,-4.122148454E-1,5.317247510E-1,-4.844823107E-2
5.132742710E-1,-5.688089132E-1,5.232017636E-1,-6.975422800E-2
5.157828640E-1,-7.658818960E-1,5.551597476E-1,-6.336223334E-2
5.182914060E-1,-9.789338708E-1,6.222717762E-1,-3.566523269E-2
5.209875520E-1,-1.190919876E0,7.245367765E-1,-1.578231342E-3
5.234992710E-1,-1.383732796E0,8.662157655E-1,3.144476935E-2
5.260110410E-1,-1.546716809E0,1.038787723E0,5.488076806E-2
5.285227600E-1,-1.682004809E0,1.224143744E0,6.553277373E-2
5.310344790E-1,-1.784269810E0,1.414824724E0,7.085977495E-2
5.335462500E-1,-1.855642796E0,1.610832691E0,6.872877479E-2
5.360579680E-1,-1.898252845E0,1.786600709E0,5.807676911E-2
5.385697390E-1,-1.919557810E0,1.933606744E0,4.209776968E-2
5.410814580E-1,-1.925949812E0,2.050784588E0,2.292276733E-2
5.435932290E-1,-1.925949812E0,2.131744623E0,9.074768983E-3
5.461050000E-1,-1.932340860E0,2.174354792E0,-3.708231263E-3
5.486166660E-1,-1.936601877E0,2.191399813E0,-2.075223252E-2
5.512782810E-1,-1.946189880E0,2.183942795E0,-3.566523269E-2
5.537900000E-1,-1.957907796E0,2.164767742E0,-5.164423212E-2
5.563017710E-1,-1.979212880E0,2.139201641E0,-6.336223334E-2
5.588134890E-1,-2.002648830E0,2.107243776E0,-6.868822873E-2
5.613252080E-1,-2.023953915E0,2.060372591E0,-6.229723245E-2
5.638369790E-1,-2.052716017E0,1.992195725E0,-4.951423034E-2
5.663487500E-1,-2.083607912E0,1.901648641E0,-2.607823163E-2
5.688604680E-1,-2.117697001E0,1.790861726E0,6.943768822E-3
5.713721870E-1,-2.146458864E0,1.669421673E0,3.783676773E-2
5.738839580E-1,-2.175220966E0,1.545851707E0,6.340277195E-2
5.763956770E-1,-2.200786829E0,1.433999658E0,9.429477155E-2
5.789073960E-1,-2.225287914E0,1.333864689E0,1.283837706E-1
5.815706770E-1,-2.249789000E0,1.233730674E0,1.656677723E-1
5.840823960E-1,-2.276419878E0,1.141052723E0,2.104087770E-1
5.865941660E-1,-2.299855947E0,1.066484690E0,2.604757845E-1
5.891058850E-1,-2.315834999E0,1.012156725E0,3.073467612E-1
5.916176040E-1,-2.328618050E0,9.759377837E-1,3.595447838E-1
5.941293750E-1,-2.331814051E0,9.514367580E-1,4.106777608E-1
5.966410930E-1,-2.327553034E0,9.418497682E-1,4.596797824E-1
5.991528640E-1,-2.322227001E0,9.461107850E-1,5.076157451E-1
6.016645830E-1,-2.304116964E0,9.631547332E-1,5.587487817E-1
6.041763540E-1,-2.282811880E0,9.972427487E-1,6.002937555E-1
6.066880730E-1,-2.266832829E0,1.035592675E0,6.354478002E-1
6.091997910E-1,-2.247658014E0,1.089920640E0,6.620787978E-1
6.118601560E-1,-2.226352930E0,1.168749690E0,6.791227460E-1
6.143718750E-1,-2.216765881E0,1.256100655E0,6.876447797E-1
6.168836460E-1,-2.217830896E0,1.337060690E0,6.951017976E-1
6.193953640E-1,-2.230613947E0,1.406302691E0,7.014937997E-1
6.219070830E-1,-2.247658014E0,1.459565639E0,7.089497447E-1
6.244188540E-1,-2.271093845E0,1.502175689E0,7.046887875E-1
6.269305730E-1,-2.306247950E0,1.517089725E0,7.036237717E-1
6.294423430E-1,-2.345661879E0,1.497914672E0,7.025587559E-1
6.319540620E-1,-2.387207031E0,1.460630655E0,6.919057965E-1
6.344658330E-1,-2.435143948E0,1.416955709E0,6.727317572E-1
6.369775520E-1,-2.477754831E0,1.369018674E0,6.514257789E-1
6.394892710E-1,-2.517168999E0,1.320016742E0,6.237297654E-1
6.421158850E-1,-2.555518866E0,1.264622688E0,5.885757804E-1
6.446276560E-1,-2.589607000E0,1.199642658E0,5.480957627E-1
6.471393750E-1,-2.617303848E0,1.131465673E0,5.033547878E-1
6.496511460E-1,-2.634347916E0,1.072876692E0,4.500917792E-1
6.521628640E-1,-2.632216930E0,1.024939656E0,4.074817598E-1
6.546745830E-1,-2.619433880E0,9.780677557E-1,3.627407849E-1
6.571863540E-1,-2.605586052E0,9.343927503E-1,3.137387633E-1
6.596980730E-1,-2.585345984E0,9.152177572E-1,2.658017576E-1
6.622098430E-1,-2.554452896E0,9.216097593E-1,2.199957669E-1
6.647215620E-1,-2.513972998E0,9.461107850E-1,1.720587760E-1
6.672333330E-1,-2.472427845E0,9.801987410E-1,1.230567694E-1
6.697450520E-1,-2.430882931E0,1.015352726E0,7.405477017E-2
6.724414060E-1,-2.384011984E0,1.055831671E0,2.718376741E-2
6.749531770E-1,-2.341400862E0,1.089920640E0,-2.820823155E-2
6.774648960E-1,-2.304116964E0,1.105899692E0,-8.360222727E-2
6.799766140E-1,-2.275354862E0,1.103768706E0,-1.347342283E-1
6.824883330E-1,-2.248723984E0,1.073941708E0,-1.816062331E-1
6.850001040E-1,-2.229548931E0,1.019613743E0,-2.252822220E-1
6.875118230E-1,-2.206112862E0,9.812637568E-1,-2.689572275E-1
6.900235930E-1,-2.181612015E0,9.759377837E-1,-3.179592192E-1
6.925353120E-1,-2.157110929E0,1.002568722E0,-3.637652397E-1
6.950470830E-1,-2.132609844E0,1.045179725E0,-4.042452276E-1
6.975588020E-1,-2.108108997E0,1.090985656E0,-4.362032413E-1
7.000705210E-1,-2.084673882E0,1.132530689E0,-4.553782344E-1
7.027297390E-1,-2.065498829E0,1.170880675E0,-4.649652243E-1
7.052415100E-1,-2.053781033E0,1.211359739E0,-4.660302401E-1
7.077532290E-1,-2.045258999E0,1.249709725E0,-4.575082362E-1
7.102649480E-1,-2.031410933E0,1.281667709E0,-4.393992424E-1
7.127766660E-1,-2.020757914E0,1.302972674E0,-4.106372297E-1
7.152884370E-1,-2.012235880E0,1.301907659E0,-3.744182289E-1
7.178001560E-1,-2.003713846E0,1.295515656E0,-3.339382410E-1
7.203119270E-1,-1.997321844E0,1.297645688E0,-2.913282216E-1
7.228236460E-1,-1.989864826E0,1.308298707E0,-2.401952296E-1
7.253354160E-1,-1.984538794E0,1.320016742E0,-1.922592223E-1
7.278471350E-1,-1.973886847E0,1.314690709E0,-1.475182325E-1
7.303588540E-1,-1.963233829E0,1.300841689E0,-9.532022476E-2
7.330211460E-1,-1.950450778E0,1.292319655E0,-4.951423034E-2
7.355328640E-1,-1.936601877E0,1.283797741E0,-1.009923127E-2
7.380446350E-1,-1.920623779E0,1.267818689E0,2.398776822E-2
7.405563540E-1,-1.902513862E0,1.246513724E0,5.381576717E-2
7.430680730E-1,-1.878012776E0,1.230534673E0,6.979376823E-2
7.455798430E-1,-1.862033844E0,1.206033707E0,7.725077122E-2
7.480915620E-1,-1.839663863E0,1.184728742E0,7.512076944E-2
7.506033330E-1,-1.822619796E0,1.171945691E0,6.766377389E-2
7.531150520E-1,-1.803444862E0,1.161292672E0,5.594576895E-2
7.556268230E-1,-1.780008793E0,1.153835654E0,4.103176668E-2
7.581385410E-1,-1.755507827E0,1.158096671E0,2.824876830E-2
7.606502600E-1,-1.733137846E0,1.163423657E0,1.546576899E-2
7.633106770E-1,-1.708636880E0,1.169814706E0,-1.578231342E-3
7.658223960E-1,-1.687331796E0,1.180467725E0,-1.862123236E-2
7.683341660E-1,-1.664960861E0,1.184728742E0,-3.033923171E-2
7.708458850E-1,-1.647916794E0,1.183663726E0,-4.525323212E-2
7.733576040E-1,-1.633002877E0,1.168749690E0,-6.123223156E-2
7.758693750E-1,-1.620219827E0,1.143183708E0,-7.827623188E-2
7.783810930E-1,-1.611697793E0,1.109094739E0,-9.532022476E-2
7.808928640E-1,-1.605306864E0,1.067549706E0,-1.091682315E-1
7.834045830E-1,-1.597849846E0,1.023874640E0,-1.230172291E-1
7.859163540E-1,-1.591457844E0,9.748727679E-1,-1.368652284E-1
7.884280730E-1,-1.580805779E0,9.258707762E-1,-1.464522332E-1
7.909397910E-1,-1.570152879E0,8.726077676E-1,-1.528442353E-1
7.935695310E-1,-1.559499860E0,8.246707320E-1,-1.603012234E-1
7.960813020E-1,-1.547782779E0,7.756687403E-1,-1.698882282E-1
7.985930210E-1,-1.536064863E0,7.245367765E-1,-1.826712340E-1
8.011047390E-1,-1.519020796E0,6.755347848E-1,-1.986502260E-1
8.036165100E-1,-1.492388844E0,6.190757751E-1,-2.178252339E-1
8.061282810E-1,-1.463626862E0,5.615517497E-1,-2.444562316E-1
8.086400000E-1,-1.433799863E0,5.018967390E-1,-2.721532285E-1
8.111517180E-1,-1.399710774E0,4.465037286E-1,-2.966542244E-1
8.136634890E-1,-1.365622878E0,3.932407200E-1,-3.286122382E-1
8.161752080E-1,-1.332599878E0,3.431737423E-1,-3.605702221E-1
8.186869790E-1,-1.299576879E0,2.920407355E-1,-3.925272226E-1
8.211986980E-1,-1.269749880E0,2.430387288E-1,-4.244852364E-1
8.238595830E-1,-1.250574827E0,1.908407360E-1,-4.521822333E-1
8.263713540E-1,-1.229269862E0,1.343827248E-1,-4.777482152E-1
8.288830730E-1,-1.215420842E0,8.005373180E-2,-5.054452419E-1
8.313947910E-1,-1.211159825E0,3.531273082E-2,-5.267502069E-1
8.339065620E-1,-1.212225795E0,-5.166268442E-3,-5.416642427E-1
8.364182810E-1,-1.218616843E0,-3.392826766E-2,-5.512512326E-1
8.389300520E-1,-1.231399775E0,-5.949426815E-2,-5.587082505E-1
8.414417710E-1,-1.247378826E0,-7.653827220E-2,-5.619042516E-1
8.439535410E-1,-1.271879792E0,-8.932127059E-2,-5.629692078E-1
8.464652600E-1,-1.301706791E0,-9.038627148E-2,-5.587082505E-1
8.489770310E-1,-1.340056777E0,-7.973427325E-2,-5.512512326E-1
8.514887500E-1,-1.378405809E0,-6.482026726E-2,-5.459252000E-1
8.541495310E-1,-1.423146844E0,-4.564526677E-2,-5.320762396E-1
8.566613020E-1,-1.472148776E0,-2.434026822E-2,-5.182282329E-1
8.591730210E-1,-1.523281813E0,5.485731177E-3,-5.033142567E-1
8.616847390E-1,-1.573348880E0,3.424773365E-2,-4.905312359E-1
8.641965100E-1,-1.619154811E0,6.300973147E-2,-4.788132310E-1
8.667082290E-1,-1.658569813E0,9.390272945E-2,-4.713572264E-1
8.692200000E-1,-1.694787860E0,1.258597225E-1,-4.724222422E-1
8.717317180E-1,-1.722484827E0,1.535567343E-1,-4.702912271E-1
8.742434890E-1,-1.738463879E0,1.823187321E-1,-4.702912271E-1
8.767552600E-1,-1.745920777E0,2.068197280E-1,-4.724222422E-1
8.792669790E-1,-1.745920777E0,2.291907221E-1,-4.777482152E-1
8.817786980E-1,-1.739528775E0,2.430387288E-1,-4.841402173E-1
8.844755210E-1,-1.723549843E0,2.600827217E-1,-4.894662201E-1
8.869872390E-1,-1.700114846E0,2.792577147E-1,-4.873362184E-1
8.894990100E-1,-1.670286775E0,2.931057215E-1,-4.830752313E-1
8.920107810E-1,-1.633002877E0,3.058887422E-1,-4.809442163E-1
8.945224480E-1,-1.586131811E0,3.239987195E-1,-4.809442163E-1
8.970342180E-1,-1.528607845E0,3.410427272E-1,-4.915972352E-1
8.995459370E-1,-1.462561846E0,3.655437231E-1,-5.011842251E-1
9.020577080E-1,-1.386927843E0,4.028277397E-1,-5.118372440E-1
9.045694270E-1,-1.300641775E0,4.379817247E-1,-5.342072248E-1
9.070811980E-1,-1.210094810E0,4.805917144E-1,-5.576432347E-1
9.095929160E-1,-1.118482828E0,5.327897668E-1,-5.832092166E-1
9.121046350E-1,-1.026869774E0,5.828567743E-1,-6.130362153E-1
9.147644790E-1,-9.384539127E-1,6.414457560E-1,-6.428642273E-1
9.172761980E-1,-8.542978764E-1,7.000357509E-1,-6.673642397E-1
9.197879680E-1,-7.754688859E-1,7.522327304E-1,-6.876042485E-1
9.222996870E-1,-7.072919011E-1,8.033657670E-1,-7.067792416E-1
9.248114060E-1,-6.518988609E-1,8.491717577E-1,-7.248892188E-1
9.273231770E-1,-6.018319130E-1,8.907167315E-1,-7.312802076E-1
9.298348960E-1,-5.560249090E-1,9.301317334E-1,-7.195622325E-1
9.323466660E-1,-5.134148598E-1,9.738067389E-1,-6.886702180E-1
9.348583850E-1,-4.739998579E-1,9.983077645E-1,-6.492552161E-1
9.373701560E-1,-4.441728592E-1,9.993737340E-1,-6.013182402E-1
9.398818750E-1,-4.218028486E-1,9.940467477E-1,-5.480552316E-1
9.423935930E-1,-4.132808447E-1,9.876557589E-1,-4.979882240E-1
9.450213020E-1,-4.058238566E-1,9.823297858E-1,-4.468562305E-1
9.475330730E-1,-3.962358534E-1,9.823297858E-1,-3.989192247E-1
9.500447910E-1,-3.855838478E-1,9.908517599E-1,-3.573742211E-1
9.525565100E-1,-3.642788529E-1,1.002568722E0,-3.318082392E-1
9.550682810E-1,-3.387118578E-1,1.012156725E0,-3.179592192E-1
9.575800000E-1,-3.014278710E-1,1.024939656E0,-3.073072135E-1
9.600917710E-1,-2.566868663E-1,1.034526706E0,-3.062412143E-1
9.626034890E-1,-2.023588717E-1,1.034526706E0,-3.190242350E-1
9.651152600E-1,-1.363128722E-1,1.023874640E0,-3.328732252E-1
9.676270310E-1,-6.707087159E-2,1.006830692E0,-3.520482183E-1
9.701387500E-1,4.300130997E-3,9.812637568E-1,-3.712222278E-1
9.726504680E-1,7.567312568E-2,9.439797401E-1,-3.957232237E-1
9.753458330E-1,1.534371227E-1,9.034997821E-1,-4.148982167E-1
9.778576040E-1,2.280051261E-1,8.523677588E-1,-4.308772385E-1
9.803693230E-1,3.025731444E-1,7.927127481E-1,-4.447252154E-1
9.828810410E-1,3.728801310E-1,7.383847833E-1,-4.532472193E-1
9.853927600E-1,4.389261305E-1,6.904477477E-1,-4.596392214E-1
9.879045310E-1,4.985811412E-1,6.489027739E-1,-4.681612253E-1
9.904162500E-1,5.550401211E-1,6.244017482E-1,-4.713572264E-1
9.929280210E-1,6.114981174E-1,6.233367324E-1,-4.681612253E-1
9.954397390E-1,6.636961102E-1,6.382507682E-1,-4.692262411E-1
9.979515100E-1,7.158941031E-1,6.734037399E-1,-4.713572264E-1
1.000463229E0,7.734181285E-1,7.224057317E-1,-4.734872282E-1
1.002974948E0,8.298771381E-1,7.852557302E-1,-4.713572264E-1
1.005636198E0,8.916621208E-1,8.630197644E-1,-4.681612253E-1
1.008147916E0,9.630340934E-1,9.461107850E-1,-4.617692232E-1
1.010659687E0,1.040798187E0,1.026004672E0,-4.436602294E-1
1.013171406E0,1.124954224E0,1.111225724E0,-4.180942178E-1
1.015683125E0,1.216566205E0,1.187924743E0,-3.872012198E-1
1.018194896E0,1.316701174E0,1.256100655E0,-3.413952291E-1
1.020706614E0,1.425357223E0,1.312559724E0,-2.828062177E-1
1.023218385E0,1.539340138E0,1.355170727E0,-2.178252339E-1
1.025730104E0,1.655453205E0,1.380736709E0,-1.464522332E-1
1.028241875E0,1.779023170E0,1.392454743E0,-7.508023083E-2
1.030753593E0,1.905789137E0,1.393519640E0,-5.838231184E-3
1.033265312E0,2.037882090E0,1.382866740E0,6.553277373E-2
1.035927031E0,2.175300121E0,1.361561656E0,1.369057745E-1
1.038441250E0,2.316980124E0,1.323212743E0,2.008207738E-1
1.040955468E0,2.459725142E0,1.274210691E0,2.594107687E-1
1.043469739E0,2.599274158E0,1.212425709E0,3.105427623E-1
1.045983958E0,2.733495951E0,1.147444725E0,3.616757691E-1
1.048498177E0,2.861328125E0,1.075006723E0,4.053507745E-1
1.051012448E0,2.983833075E0,9.919167757E-1,4.405047596E-1
1.053526666E0,3.092489004E0,9.056307673E-1,4.692667723E-1
1.056040885E0,3.189428091E0,8.225407600E-1,4.884417653E-1
1.058555156E0,3.277843952E0,7.405157685E-1,5.044207573E-1
1.061069375E0,3.358803988E0,6.563597322E-1,5.150727630E-1
1.063583593E0,3.437633038E0,5.796607733E-1,5.172037482E-1
1.066179583E0,3.510071039E0,5.189407468E-1,5.161377788E-1
1.068693802E0,3.580378056E0,4.667437375E-1,5.076157451E-1
1.071208021E0,3.651751041E0,4.188067317E-1,4.958977699E-1
1.073722291E0,3.715666056E0,3.921747208E-1,4.831147790E-1
1.076236510E0,3.779582024E0,3.836527169E-1,4.767237604E-1
1.078750781E0,3.844563007E0,3.975017369E-1,4.692667723E-1
1.081265000E0,3.897825956E0,4.305247366E-1,4.692667723E-1
1.083779218E0,3.938305140E0,4.827227294E-1,4.692667723E-1
1.086293437E0,3.961740971E0,5.572907329E-1,4.799197614E-1
1.088807708E0,3.957479954E0,6.478377581E-1,5.012247562E-1
1.091321927E0,3.929783106E0,7.383847833E-1,5.299867988E-1
1.093836198E0,3.886108160E0,8.129527569E-1,5.630097985E-1
1.096510208E0,3.818995953E0,8.534327745E-1,6.024237871E-1
1.099024427E0,3.731645107E0,8.555637598E-1,6.471647620E-1
1.101538646E0,3.627249956E0,8.289317489E-1,6.865797639E-1
1.104052916E0,3.507940054E0,7.895167470E-1,7.238637805E-1
1.106567135E0,3.377979040E0,7.458417416E-1,7.526257634E-1
1.109081354E0,3.235234022E0,7.000357509E-1,7.686047554E-1
1.111595625E0,3.091423988E0,6.616857648E-1,7.813877463E-1
1.114109843E0,2.947613955E0,6.371847391E-1,7.792577744E-1
1.116624062E0,2.813390970E0,6.126837730E-1,7.675397992E-1
1.119138333E0,2.702604055E0,5.945747495E-1,7.568867803E-1
1.121652552E0,2.610991955E0,5.903137326E-1,7.398427725E-1
1.124166771E0,2.546010971E0,6.084227562E-1,7.185377479E-1
1.126785312E0,2.508727074E0,6.467727423E-1,6.919057965E-1
1.129299531E0,2.502335072E0,7.085577846E-1,6.716657877E-1
1.131813750E0,2.517249107E0,7.788647413E-1,6.503607631E-1
1.134328021E0,2.548141003E0,8.395847678E-1,6.311857700E-1
1.136842239E0,2.600338936E0,8.779337406E-1,6.066847444E-1
1.139356458E0,2.659993172E0,8.885867596E-1,5.832497478E-1
1.141870729E0,2.726040125E0,8.566287756E-1,5.587487817E-1
1.144384948E0,2.796347141E0,7.863217592E-1,5.331827998E-1
1.146899166E0,2.878371954E0,6.819257736E-1,5.118767619E-1
1.149413437E0,2.964658022E0,5.498337746E-1,4.937677681E-1
1.151927656E0,3.050944090E0,3.921747208E-1,4.767237604E-1
1.154441875E0,3.135099173E0,2.217337340E-1,4.575487673E-1
1.157088489E0,3.213928938E0,5.235773325E-2,4.341127574E-1
1.159602708E0,3.278910160E0,-1.159532741E-1,4.160037637E-1
1.162116927E0,3.343889952E0,-2.736112773E-1,3.904377818E-1
1.164631198E0,3.396088123E0,-4.248782694E-1,3.670017719E-1
1.167145416E0,3.435503006E0,-5.665582418E-1,3.467617631E-1
1.169659635E0,3.451482058E0,-6.911932230E-1,3.329137862E-1
1.172173906E0,3.451482058E0,-7.987842560E-1,3.275867701E-1
1.174688125E0,3.433372021E0,-8.999842405E-1,3.329137862E-1
1.177202343E0,3.398219109E0,-1.005445242E0,3.552837670E-1
1.179716614E0,3.346020937E0,-1.104514360E0,3.840457797E-1
1.182230833E0,3.279974937E0,-1.186539292E0,4.106777608E-1
1.184745052E0,3.217123985E0,-1.241932273E0,4.458307624E-1
1.187382239E0,3.151077986E0,-1.266433358E0,4.724627733E-1
1.189896458E0,3.088227987E0,-1.258977294E0,5.012247562E-1
1.192410677E0,3.031769037E0,-1.220627308E0,5.363777876E-1
1.194924948E0,2.984898090E0,-1.139667273E0,5.683357716E-1
1.197439166E0,2.943352938E0,-1.028880358E0,5.970977545E-1
1.199953385E0,2.905003071E0,-8.946582675E-1,6.311857700E-1
1.202467656E0,2.866654158E0,-7.401952147E-1,6.663397551E-1
1.204981875E0,2.832566023E0,-5.793412328E-1,7.068197727E-1
1.207496093E0,2.791020155E0,-4.238132834E-1,7.494297624E-1
1.210010364E0,2.753736019E0,-2.725462615E-1,7.941707969E-1
1.212524583E0,2.718583107E0,-1.340622753E-1,8.431727886E-1
1.215038802E0,2.683429003E0,-8.361268789E-3,8.847177625E-1
1.217636979E0,2.649341106E0,9.390272945E-2,9.198717475E-1
1.220151250E0,2.616317987E0,1.737967283E-1,9.433077574E-1
1.222665468E0,2.583295107E0,2.398427278E-1,9.571557641E-1
1.225179687E0,2.542814970E0,2.792577147E-1,9.667427540E-1
1.227693958E0,2.501270056E0,2.696707249E-1,9.710037708E-1
1.230208177E0,2.463986158E0,2.206687331E-1,9.678087831E-1
1.232722396E0,2.432028055E0,1.429047287E-1,9.539597631E-1
1.235236666E0,2.410722971E0,2.572572976E-2,9.326547980E-1
1.237750885E0,2.401134968E0,-1.212792695E-1,9.049577713E-1
1.240265104E0,2.399004936E0,-2.917202711E-1,8.708697557E-1
1.242779375E0,2.397940159E0,-4.909242690E-1,8.399767876E-1
1.245293593E0,2.397940159E0,-7.029112577E-1,8.112147450E-1
1.247927396E0,2.403265953E0,-9.170282483E-1,7.813877463E-1
1.250441666E0,2.411787987E0,-1.121558309E0,7.536907792E-1
1.252955885E0,2.430963039E0,-1.306913257E0,7.334507704E-1
1.255470104E0,2.463986158E0,-1.488007307E0,7.078847885E-1
1.257984375E0,2.499139071E0,-1.677624345E0,6.801877618E-1
1.260498593E0,2.533228159E0,-1.881088257E0,6.482307911E-1
1.263012812E0,2.572642088E0,-2.077096224E0,6.152077913E-1
1.265527083E0,2.620579004E0,-2.267778397E0,5.917717814E-1
1.268041302E0,2.666384935E0,-2.461655378E0,5.757927895E-1
1.270555521E0,2.712191105E0,-2.642749310E0,5.587487817E-1
1.273069791E0,2.760128021E0,-2.789755344E0,5.512917638E-1
1.275584010E0,2.814455986E0,-2.898412228E0,5.438347459E-1
1.278250521E0,2.865589142E0,-2.979371309E0,5.395737886E-1
1.280764739E0,2.918852091E0,-3.040091276E0,5.310517550E-1
1.283278958E0,2.968919039E0,-3.077375412E0,5.172037482E-1
1.285793229E0,3.017920971E0,-3.089093208E0,5.012247562E-1
1.288307448E0,3.059466124E0,-3.083767414E0,4.852457643E-1
1.290821666E0,3.095685005E0,-3.062462330E0,4.671357572E-1
1.293335937E0,3.121251106E0,-3.032634258E0,4.479617774E-1
1.295850156E0,3.135099173E0,-3.002807379E0,4.309177697E-1
1.298364375E0,3.132969141E0,-2.980437279E0,4.128077626E-1
1.300878646E0,3.115925074E0,-2.966588259E0,3.978947699E-1
1.303392864E0,3.088227987E0,-2.960197210E0,3.872417808E-1
1.305907083E0,3.042422056E0,-2.962327242E0,3.819157779E-1
1.308507760E0,2.979571104E0,-2.976176262E0,3.797847629E-1
1.311022031E0,2.896481037E0,-3.004938364E0,3.872417808E-1
1.313536250E0,2.803804159E0,-3.036895275E0,3.925677836E-1
1.316050468E0,2.711126089E0,-3.058201313E0,3.925677836E-1
1.318564739E0,2.615252972E0,-3.066723347E0,3.925677836E-1
1.321078958E0,2.519379139E0,-3.066723347E0,3.776547611E-1
1.323593177E0,2.414983988E0,-3.050744295E0,3.627407849E-1
1.326107448E0,2.308458090E0,-3.009199381E0,3.478267789E-1
1.328621666E0,2.199800968E0,-2.934631348E0,3.307827711E-1
1.331135885E0,2.083688021E0,-2.827039242E0,3.211957812E-1
1.333650156E0,1.966509223E0,-2.693882227E0,3.126737773E-1
1.336164375E0,1.848265171E0,-2.561790228E0,3.052167594E-1
1.338799010E0,1.726826191E0,-2.432893276E0,3.062817752E-1
1.341313281E0,1.600060225E0,-2.321041346E0,3.062817752E-1
1.343827500E0,1.471163154E0,-2.218776226E0,3.105427623E-1
1.346341771E0,1.343332171E0,-2.118641376E0,3.137387633E-1
1.348855989E0,1.220827222E0,-2.028094292E0,3.179997802E-1
1.351370208E0,1.099388123E0,-1.940743327E0,3.254567683E-1
1.353884427E0,9.800781012E-1,-1.861914277E0,3.393047750E-1
1.356398698E0,8.629001379E-1,-1.792672276E0,3.499577641E-1
1.358912916E0,7.467871308E-1,-1.733017325E0,3.627407849E-1
1.361427135E0,6.338691115E-1,-1.671232343E0,3.755237758E-1
1.363941406E0,5.273430943E-1,-1.613708258E0,3.893717825E-1
1.366455625E0,4.293391407E-1,-1.564706326E0,4.064167738E-1
1.369100260E0,3.302701414E-1,-1.519965291E0,4.191997647E-1
1.371614479E0,2.375921309E-1,-1.473094344E0,4.319827855E-1
1.374128698E0,1.449151337E-1,-1.430483341E0,4.373087585E-1
1.376642968E0,5.010613427E-2,-1.402787328E0,4.383737743E-1
1.379157187E0,-4.256986827E-2,-1.391069293E0,4.596797824E-1
1.381671458E0,-1.288558692E-1,-1.377220273E0,5.001587868E-1
1.384185677E0,-2.108808756E-1,-1.358046293E0,5.459657907E-1
1.386699896E0,-2.907758653E-1,-1.333545327E0,5.864457488E-1
1.389214114E0,-3.685398698E-1,-1.312240243E0,6.269247532E-1
1.391728385E0,-4.537608624E-1,-1.288804293E0,6.588827968E-1
1.394242604E0,-5.389809012E-1,-1.261107326E0,6.844487786E-1
1.396756823E0,-6.199408770E-1,-1.223823309E0,7.014937997E-1
1.399380989E0,-7.030308843E-1,-1.184408307E0,7.164067626E-1
1.401895260E0,-7.829259038E-1,-1.146059275E0,7.227987647E-1
1.404409479E0,-8.606898785E-1,-1.104514360E0,7.249287963E-1
1.406923698E0,-9.352579117E-1,-1.058708310E0,7.227987647E-1
1.409437968E0,-1.006629825E0,-1.017163277E0,7.132107615E-1
1.411952187E0,-1.071610808E0,-9.745522141E-1,6.982977986E-1
1.414466406E0,-1.134461880E0,-9.330072403E-1,6.865797639E-1
1.416980677E0,-1.193050861E0,-8.861362338E-1,6.748617887E-1
1.419494896E0,-1.250574827E0,-8.424602151E-1,6.642097831E-1
1.422009114E0,-1.303837776E0,-7.945232391E-1,6.535567641E-1
1.424523385E0,-1.350708842E0,-7.476522326E-1,6.492957473E-1
1.427037604E0,-1.402906775E0,-7.093022466E-1,6.418387890E-1
1.429669635E0,-1.450843811E0,-6.720182300E-1,6.343817711E-1
1.432183906E0,-1.498780847E0,-6.304732561E-1,6.311857700E-1
1.434698125E0,-1.545651793E0,-5.953202248E-1,6.290557981E-1
1.437212343E0,-1.587196827E0,-5.633622408E-1,6.247947812E-1
1.439726614E0,-1.627676845E0,-5.431222320E-1,6.205337644E-1
1.442240833E0,-1.663895845E0,-5.292732120E-1,6.120117903E-1
1.444755052E0,-1.690526843E0,-5.186212659E-1,6.002937555E-1
1.447269323E0,-1.696918845E0,-5.090332627E-1,5.885757804E-1
1.449783541E0,-1.690526843E0,-5.037072301E-1,5.672707558E-1
1.452297760E0,-1.661764860E0,-4.845332801E-1,5.427697897E-1
1.454812031E0,-1.603175879E0,-4.536402822E-1,5.203987956E-1
1.457326250E0,-1.517954826E0,-4.078342617E-1,4.980287850E-1
1.459960625E0,-1.408232808E0,-3.439182639E-1,4.756587744E-1
1.462474896E0,-1.281467795E0,-2.661542594E-1,4.522227645E-1
1.464989114E0,-1.145113826E0,-1.926512718E-1,4.245257676E-1
1.467503385E0,-1.004499793E0,-1.308662742E-1,3.872417808E-1
1.470017604E0,-8.745378852E-1,-9.784327447E-2,3.393047750E-1
1.472531823E0,-7.584248781E-1,-1.042352691E-1,2.817807794E-1
1.475046041E0,-6.561598778E-1,-1.479102671E-1,2.157347649E-1
1.477560312E0,-5.677428842E-1,-2.310012728E-1,1.432967782E-1
1.480074531E0,-4.910448492E-1,-3.428532779E-1,7.512076944E-2
1.482588802E0,-4.186068475E-1,-4.696192741E-1,1.013976894E-2
1.485103021E0,-3.461688459E-1,-6.038422585E-1,-4.205723107E-2
1.487617239E0,-2.726658583E-1,-7.274122238E-1,-8.360222727E-2
1.490286041E0,-1.991628706E-1,-8.350032568E-1,-1.049072295E-1
1.492800260E0,-1.288558692E-1,-9.244852662E-1,-1.166252270E-1
1.495314479E0,-6.920187175E-2,-9.979882240E-1,-1.283432245E-1
1.497828750E0,-2.765686996E-2,-1.056577325E0,-1.240822300E-1
1.500342968E0,2.170131076E-3,-1.097057343E0,-1.134292260E-1
1.502857187E0,1.495313179E-2,-1.126884341E0,-1.017112285E-1
1.505371458E0,8.561131544E-3,-1.140733242E0,-8.040622622E-2
1.507885677E0,-1.274286862E-2,-1.135406256E0,-5.377523229E-2
1.510399896E0,-4.470086843E-2,-1.100253344E0,-2.501323260E-2
1.512914166E0,-8.944187313E-2,-1.035272360E0,1.226976886E-2
1.515428385E0,-1.341828704E-1,-9.489862323E-1,5.168476701E-2
1.517942604E0,-1.799888760E-1,-8.541782498E-1,8.896876872E-2
1.520578021E0,-2.183378786E-1,-7.604352236E-1,1.337097734E-1
1.523092239E0,-2.513608634E-1,-6.805402637E-1,1.763197780E-1
1.525606510E0,-2.726658583E-1,-6.198212504E-1,2.199957669E-1
1.528120729E0,-2.929058671E-1,-5.708192587E-1,2.594107687E-1
1.530634948E0,-3.067548573E-1,-5.346002579E-1,2.903027833E-1
1.533149166E0,-3.067548573E-1,-5.143602490E-1,3.169347644E-1
1.535663437E0,-3.035588562E-1,-5.111642480E-1,3.361087739E-1
1.538177656E0,-2.929058671E-1,-5.111642480E-1,3.488927782E-1
1.540691875E0,-2.769268453E-1,-5.186212659E-1,3.520877659E-1
1.543206146E0,-2.609478533E-1,-5.399262309E-1,3.488927782E-1
1.545720364E0,-2.439038754E-1,-6.059722304E-1,3.286527693E-1
1.548234583E0,-2.268598676E-1,-6.720182300E-1,3.009557724E-1
1.550869323E0,-2.162078768E-1,-7.220852375E-1,2.615407705E-1
1.553385573E0,-2.055548728E-1,-7.977192402E-1,2.050817758E-1
1.555901823E0,-2.002288699E-1,-8.882662654E-1,1.315797716E-1
1.558418073E0,-2.034238726E-1,-9.873352647E-1,4.848876968E-2
1.560934271E0,-2.044898719E-1,-1.094926357E0,-4.418723285E-2
1.563450521E0,-2.087508738E-1,-1.193996310E0,-1.411262304E-1
1.565966771E0,-2.119468749E-1,-1.268564343E0,-2.401952296E-1
1.568482968E0,-2.087508738E-1,-1.317566276E0,-3.264812231E-1
1.570999218E0,-2.130118757E-1,-1.330349326E0,-3.989192247E-1
1.573515468E0,-2.215338647E-1,-1.294130325E0,-4.543122351E-1
1.576031666E0,-2.407088727E-1,-1.208909273E0,-4.947922230E-1
1.578547916E0,-2.758618593E-1,-1.066164255E0,-5.160982013E-1
1.581158229E0,-3.301898539E-1,-8.765482306E-1,-5.288812518E-1
1.583674479E0,-4.068888426E-1,-6.443222165E-1,-5.405992270E-1
1.586190729E0,-4.995668530E-1,-3.801372647E-1,-5.512512326E-1
1.588706979E0,-5.997008681E-1,-7.973427325E-2,-5.619042516E-1
1.591223177E0,-6.955748796E-1,2.590177357E-1,-5.832092166E-1
1.593739427E0,-7.669469118E-1,6.446417570E-1,-6.119711995E-1
1.596255677E0,-8.042308688E-1,1.057962656E0,-6.428642273E-1
1.598771875E0,-8.031659126E-1,1.476609707E0,-6.886702180E-1
1.601288125E0,-7.594898939E-1,1.875016689E0,-7.312802076E-1
1.603804375E0,-6.902478933E-1,2.222291708E0,-7.728252411E-1
1.606320573E0,-6.082229018E-1,2.496063709E0,-8.069142103E-1
1.608836823E0,-5.219368935E-1,2.653721809E0,-8.271532059E-1
1.611449323E0,-4.313898683E-1,2.676092625E0,-8.250232339E-1
1.613965573E0,-3.482998610E-1,2.549326658E0,-7.930652499E-1
1.616481823E0,-2.694708705E-1,2.252118587E0,-7.248892188E-1
1.618998073E0,-2.012938708E-1,1.804709673E0,-6.258192062E-1
1.621514271E0,-1.533568650E-1,1.283797741E0,-5.011842251E-1
1.624030521E0,-1.373778731E-1,7.650157809E-1,-3.488522172E-1
1.626546771E0,-1.554878652E-1,3.229337335E-1,-1.890632212E-1
1.629062968E0,-2.247298658E-1,6.550731137E-3,-3.353523090E-2
1.631579218E0,-3.482998610E-1,-1.606932729E-1,1.081437692E-1
1.634095468E0,-5.230019093E-1,-1.905212700E-1,2.455617785E-1
1.636611666E0,-7.371199131E-1,-1.116922721E-1,3.872417808E-1
1.639127916E0,-9.821288586E-1,3.531273082E-2,5.321167707E-1
1.641737760E0,-1.247378826E0,2.291907221E-1,6.769927740E-1
1.644254010E0,-1.520085812E0,4.315897226E-1,8.239987493E-1
1.646770260E0,-1.782139778E0,6.169447303E-1,9.624817967E-1
1.649286510E0,-2.015431881E0,7.980397344E-1,1.090313792E0
1.651802708E0,-2.215700865E0,1.011091709E0,1.205361724E0
1.654318958E0,-2.375489950E0,1.167684674E0,1.294842720E0
1.656835208E0,-2.488406897E0,1.249709725E0,1.361954808E0
1.659351406E0,-2.553387880E0,1.299776673E0,1.403499722E0
1.661867656E0,-2.570431948E0,1.354104757E0,1.413086772E0
1.664383906E0,-2.542734861E0,1.416955709E0,1.386455774E0
1.666900104E0,-2.473492861E0,1.481935740E0,1.317213774E0
1.669416354E0,-2.381880999E0,1.543721676E0,1.211752772E0
1.671998593E0,-2.271093845E0,1.601245642E0,1.072203755E0
1.674514791E0,-2.152849913E0,1.656638741E0,9.038927555E-1
1.677031041E0,-2.039932966E0,1.701379657E0,7.174727917E-1
1.679547291E0,-1.947254777E0,1.729076743E0,5.214647651E-1
1.682063489E0,-1.872686863E0,1.751446724E0,3.254567683E-1
1.684579739E0,-1.819423795E0,1.780208707E0,1.294487715E-1
1.687095989E0,-1.797052860E0,1.819623709E0,-5.270923302E-2
1.689612239E0,-1.808770776E0,1.866494656E0,-2.082372308E-1
1.692128437E0,-1.854576826E0,1.908039689E0,-3.232862353E-1
1.694644687E0,-1.924884796E0,1.944258690E0,-3.978542387E-1
1.697160937E0,-2.017561913E0,1.967694640E0,-4.447252154E-1
1.699677135E0,-2.115566015E0,1.971955657E0,-4.617692232E-1
1.702321771E0,-2.216765881E0,1.954911709E0,-4.543122351E-1
1.704838021E0,-2.305181980E0,1.911235690E0,-4.276812375E-1
1.707354271E0,-2.374423981E0,1.829210758E0,-3.861362338E-1
1.709870521E0,-2.427686930E0,1.700314641E0,-3.307422400E-1
1.712386718E0,-2.460710049E0,1.521350741E0,-2.774792314E-1
1.714902968E0,-2.459645033E0,1.314690709E0,-2.220862210E-1
1.717419218E0,-2.431947947E0,1.097377658E0,-1.666922271E-1
1.719935416E0,-2.378684998E0,8.768687844E-1,-1.198212281E-1
1.722451666E0,-2.309442997E0,6.574247479E-1,-8.147122711E-2
1.724967916E0,-2.232744932E0,4.465037286E-1,-4.418723285E-2
1.727484114E0,-2.151784897E0,2.409087270E-1,-1.116423123E-2
1.730000364E0,-2.074020863E0,5.022673309E-2,2.185776830E-2
1.732611510E0,-2.003713846E0,-1.031692699E-1,5.168476701E-2
1.735127760E0,-1.947254777E0,-2.107612640E-1,8.470777422E-2
1.737644010E0,-1.907839775E0,-2.842642665E-1,1.209267750E-1
1.740160260E0,-1.891861796E0,-3.268742859E-1,1.592757702E-1
1.742676458E0,-1.888665795E0,-3.353962600E-1,2.050817758E-1
1.745192708E0,-1.900383830E0,-3.098302782E-1,2.530187666E-1
1.747708958E0,-1.921688795E0,-2.597632706E-1,2.988247573E-1
1.750225156E0,-1.952580810E0,-1.915862709E-1,3.425007761E-1
1.752741406E0,-1.991995811E0,-9.890826792E-2,3.797847629E-1
1.755257656E0,-2.034605980E0,2.466073260E-2,4.138727784E-1
1.757773854E0,-2.082542896E0,1.737967283E-1,4.415697753E-1
1.760290104E0,-2.140066862E0,3.378467262E-1,4.639407694E-1
1.762900416E0,-2.203982830E0,5.050927401E-1,4.884417653E-1
1.765416666E0,-2.275354862E0,6.606207490E-1,5.012247562E-1
1.767932916E0,-2.354183912E0,8.076267838E-1,5.150727630E-1
1.770449166E0,-2.436208963E0,9.450447559E-1,5.235947967E-1
1.772965364E0,-2.511842966E0,1.065419674E0,5.278557539E-1
1.775481614E0,-2.590672016E0,1.168749690E0,5.331827998E-1
1.777997864E0,-2.663110018E0,1.249709725E0,5.299867988E-1
1.780514062E0,-2.725960016E0,1.318951726E0,5.182687640E-1
1.783030312E0,-2.778157949E0,1.380736709E0,5.012247562E-1
1.785546562E0,-2.819702864E0,1.429738641E0,4.777887762E-1
1.788062760E0,-2.849529982E0,1.469152689E0,4.490267634E-1
1.790579010E0,-2.870834827E0,1.494719744E0,4.128077626E-1
1.793160000E0,-2.885748863E0,1.509632707E0,3.765887618E-1
1.795676198E0,-2.883618832E0,1.516024709E0,3.382397592E-1
1.798192448E0,-2.872966051E0,1.512828708E0,2.977597713E-1
1.800708698E0,-2.856987000E0,1.509632707E0,2.540837824E-1
1.803224896E0,-2.843138933E0,1.502175689E0,2.082777768E-1
1.805741146E0,-2.826094866E0,1.486197710E0,1.656677723E-1
1.808257396E0,-2.803724051E0,1.479805708E0,1.315797716E-1
1.810773646E0,-2.781353951E0,1.471283674E0,9.216476977E-2
1.813289843E0,-2.754721880E0,1.463826656E0,5.488076806E-2
1.815806093E0,-2.722764015E0,1.455304742E0,1.866176724E-2
1.818322343E0,-2.691871881E0,1.438260674E0,-1.116423123E-2
1.820838541E0,-2.652456999E0,1.412694693E0,-3.779623285E-2
1.823451041E0,-2.609846830E0,1.379671693E0,-5.803623050E-2
1.825967239E0,-2.569366932E0,1.331734657E0,-7.508023083E-2
1.828483489E0,-2.537408829E0,1.268883705E0,-8.679822832E-2
1.830999739E0,-2.504385948E0,1.203903675E0,-9.425523132E-2
1.833515937E0,-2.467102051E0,1.152770758E0,-9.851622581E-2
1.836032187E0,-2.433013916E0,1.114421725E0,-9.851622581E-2
1.838548437E0,-2.395730019E0,1.077137709E0,-9.318923205E-2
1.841064687E0,-2.355249882E0,1.047309756E0,-8.040622622E-2
1.843580885E0,-2.319031000E0,1.011091709E0,-6.549322605E-2
1.846097135E0,-2.281746864E0,9.748727679E-1,-4.312223196E-2
1.848613333E0,-2.246592999E0,9.365227818E-1,-1.436023135E-2
1.851129583E0,-2.215700865E0,8.917817473E-1,1.333576906E-2
1.853741562E0,-2.188004017E0,8.363887668E-1,4.209776968E-2
1.856257812E0,-2.160306931E0,7.809947729E-1,7.725077122E-2
1.858774062E0,-2.137936831E0,7.319927812E-1,1.060127690E-1
1.861290312E0,-2.118762016E0,6.915137768E-1,1.358407736E-1
1.863806510E0,-2.099586964E0,6.606207490E-1,1.614067703E-1
1.866322760E0,-2.085738897E0,6.446417570E-1,1.848427653E-1
1.868839010E0,-2.074020863E0,6.595557332E-1,1.997557729E-1
1.871355260E0,-2.068694830E0,6.947087646E-1,2.008207738E-1
1.873871458E0,-2.067628860E0,7.447767854E-1,1.976257712E-1
1.876387708E0,-2.068694830E0,8.033657670E-1,1.901687682E-1
1.878903958E0,-2.076151848E0,8.672807813E-1,1.773857772E-1
1.881420156E0,-2.087868929E0,9.354577661E-1,1.582107693E-1
1.884028333E0,-2.102782965E0,1.000438690E0,1.326447725E-1
1.886544531E0,-2.117697001E0,1.067549706E0,9.855577350E-2
1.889060781E0,-2.131544828E0,1.136791706E0,6.340277195E-2
1.891577031E0,-2.142197847E0,1.206033707E0,2.824876830E-2
1.894093229E0,-2.146458864E0,1.272079706E0,-4.773231223E-3
1.896609479E0,-2.146458864E0,1.331734657E0,-3.566523269E-2
1.899125729E0,-2.142197847E0,1.378605723E0,-6.123223156E-2
1.901641979E0,-2.128348827E0,1.412694693E0,-8.466722816E-2
1.904158177E0,-2.108108997E0,1.428672671E0,-1.038422287E-1
1.906674427E0,-2.075085878E0,1.432934642E0,-1.208862290E-1
1.909190677E0,-2.036736965E0,1.421216726E0,-1.389962286E-1
1.911706875E0,-1.988799810E0,1.389258742E0,-1.624312252E-1
1.914324635E0,-1.928079844E0,1.341321707E0,-1.901282221E-1
1.916840885E0,-1.858837843E0,1.276340723E0,-2.146292329E-1
1.919357135E0,-1.776812792E0,1.192185640E0,-2.508482337E-1
1.921873385E0,-1.689461827E0,1.096311688E0,-2.923932374E-1
1.924389583E0,-1.602110863E0,9.887207747E-1,-3.339382410E-1
1.926905833E0,-1.510497808E0,8.672807813E-1,-3.733532429E-1
1.929422083E0,-1.432733774E0,7.330587506E-1,-4.148982167E-1
1.931938333E0,-1.360296845E0,5.903137326E-1,-4.511172175E-1
1.934454531E0,-1.292119861E0,4.390467405E-1,-4.830752313E-1
1.936970781E0,-1.234595776E0,2.813877165E-1,-4.979882240E-1
1.939487031E0,-1.191985846E0,1.130767316E-1,-5.129022002E-1
1.942003229E0,-1.157896876E0,-5.523326620E-2,-5.214242339E-1
1.944612396E0,-1.134461880E0,-2.182182670E-1,-5.278152227E-1
1.947128593E0,-1.118482828E0,-3.716152608E-1,-5.310112238E-1
1.949644843E0,-1.112090826E0,-5.132952332E-1,-5.342072248E-1
1.952161093E0,-1.113155842E0,-6.400602460E-1,-5.342072248E-1
1.954677291E0,-1.118482828E0,-7.455212474E-1,-5.299462080E-1
1.957193541E0,-1.133395791E0,-8.243502378E-1,-5.235542059E-1
1.959709791E0,-1.149374843E0,-8.733522296E-1,-5.129022002E-1
1.962226041E0,-1.170680881E0,-8.935922384E-1,-4.926622212E-1
1.964742239E0,-1.196246862E0,-8.808092475E-1,-4.756182432E-1
1.967258489E0,-1.230334878E0,-8.413952589E-1,-4.564432204E-1
1.969774739E0,-1.270814776E0,-7.668262124E-1,-4.383342266E-1
1.972290937E0,-1.313424826E0,-6.666922569E-1,-4.148982167E-1
1.974935416E0,-1.359231830E0,-5.484482646E-1,-3.946582377E-1
1.977451666E0,-1.406102777E0,-4.142252803E-1,-3.722872138E-1
1.979967916E0,-1.458300829E0,-2.704152763E-1,-3.552432358E-1
1.982484114E0,-1.508367777E0,-1.127572730E-1,-3.360692263E-1
1.985000364E0,-1.560565829E0,4.916173220E-2,-3.158292174E-1
1.987516614E0,-1.609567881E0,2.142767310E-1,-2.977192402E-1
1.990032864E0,-1.654308796E0,3.804577291E-1,-2.817402184E-1
1.992549062E0,-1.695853829E0,5.402467847E-1,-2.625662386E-1
1.995065312E0,-1.734202862E0,6.851217747E-1,-2.508482337E-1
1.997581562E0,-1.762964845E0,8.172137737E-1,-2.380652279E-1
2.000097760E0,-1.788530827E0,9.322617650E-1,-2.263472229E-1
2.002614010E0,-1.795987844E0,1.029200673E0,-2.199552357E-1
2.005228646E0,-1.790661812E0,1.104833722E0,-2.124982327E-1
2.007744896E0,-1.771486878E0,1.158096671E0,-2.103682309E-1
2.010261146E0,-1.734202862E0,1.191119671E0,-2.146292329E-1
2.012777396E0,-1.677743793E0,1.195381641E0,-2.242162228E-1
2.015293593E0,-1.605306864E0,1.171945691E0,-2.455222309E-1
2.017809843E0,-1.516889811E0,1.133595705E0,-2.721532285E-1
2.020326093E0,-1.411428809E0,1.061158657E0,-3.083722293E-1
2.022842291E0,-1.297445774E0,9.652847648E-1,-3.573742211E-1
2.025358541E0,-1.177071810E0,8.513027430E-1,-4.127672315E-1
2.027874791E0,-1.058827877E0,7.309277654E-1,-4.798792303E-1
2.030390989E0,-9.384539127E-1,6.180107594E-1,-5.523162484E-1
2.032907239E0,-8.287318945E-1,5.168107748E-1,-6.119711995E-1
2.035518906E0,-7.222058773E-1,4.528947175E-1,-6.567122340E-1
2.038035156E0,-6.242018938E-1,4.220027328E-1,-6.897352338E-1
2.040551406E0,-5.475028753E-1,3.932407200E-1,-7.099752426E-1
2.043067656E0,-4.899788499E-1,3.751307428E-1,-7.216932178E-1
2.045583854E0,-4.505648613E-1,3.783267140E-1,-7.248892188E-1
2.048100104E0,-4.260638654E-1,3.932407200E-1,-7.174322009E-1
2.050616354E0,-4.111498594E-1,4.230677187E-1,-7.025182247E-1
2.053132552E0,-4.068888426E-1,4.614167213E-1,-6.812132001E-1
2.055648802E0,-4.079538584E-1,5.146797299E-1,-6.535162330E-1
2.058165052E0,-4.090198576E-1,5.796607733E-1,-6.236892343E-1
2.060681250E0,-4.100848436E-1,6.531637311E-1,-5.842742324E-1
2.063197500E0,-4.111498594E-1,7.298627496E-1,-5.427291989E-1
2.065750729E0,-4.068888426E-1,8.129527569E-1,-4.958582222E-1
2.068268489E0,-3.919748664E-1,8.960427642E-1,-4.479212165E-1
2.070786250E0,-3.770618439E-1,9.748727679E-1,-4.063762426E-1
2.073304062E0,-3.504298627E-1,1.044114709E0,-3.690922260E-1
2.075821823E0,-3.163418472E-1,1.099507689E0,-3.381992280E-1
2.078339583E0,-2.705358565E-1,1.130400658E0,-3.168942332E-1
2.080857343E0,-2.162078768E-1,1.128269672E0,-3.009152412E-1
2.083375156E0,-1.480308771E-1,1.100572705E0,-2.998502254E-1
2.085892916E0,-7.026687264E-2,1.046244740E0,-3.073072135E-1
2.088410677E0,1.814913005E-2,9.695457816E-1,-3.222202361E-1
2.090928437E0,1.108261272E-1,8.768687844E-1,-3.413952291E-1
2.093446250E0,2.130911350E-1,7.650157809E-1,-3.541782200E-1
2.096099791E0,3.185521364E-1,6.393157840E-1,-3.595042229E-1
2.098617552E0,4.197521508E-1,5.178757310E-1,-3.509822190E-1
2.101135364E0,5.156251192E-1,4.028277397E-1,-3.307422400E-1
2.103653125E0,6.051071286E-1,3.037587404E-1,-3.030462265E-1
2.106170885E0,6.871321201E-1,2.227987349E-1,-2.657612264E-1
2.108688646E0,7.595701218E-1,1.737967283E-1,-2.231512219E-1
2.111206458E0,8.266811371E-1,1.631447226E-1,-1.826712340E-1
2.113724218E0,8.831400871E-1,2.014937252E-1,-1.475182325E-1
2.116241979E0,9.353381395E-1,2.877797186E-1,-1.198212281E-1
2.118759739E0,9.896661043E-1,4.145457149E-1,-1.049072295E-1
2.121277552E0,1.040798187E0,5.658127666E-1,-1.027772278E-1
2.123795312E0,1.098322153E0,7.479717731E-1,-1.017112285E-1
2.126363385E0,1.163303137E0,9.386537671E-1,-1.017112285E-1
2.128881146E0,1.236806154E0,1.133595705E0,-1.049072295E-1
2.131398958E0,1.318831205E0,1.321081758E0,-1.038422287E-1
2.133916718E0,1.416835189E0,1.496849656E0,-9.532022476E-2
2.136434479E0,1.531883121E0,1.657703757E0,-7.827623188E-2
2.138952239E0,1.650127172E0,1.788730741E0,-5.377523229E-2
2.141470052E0,1.782219172E0,1.896322727E0,-2.714323252E-2
2.143987812E0,1.923899174E0,1.970890641E0,8.008768782E-3
2.146505573E0,2.062382936E0,2.013500690E0,4.209776968E-2
2.149023333E0,2.209388018E0,2.019892693E0,8.044677228E-2
2.151541146E0,2.354264021E0,1.988999724E0,1.113397703E-1
2.154058906E0,2.495943069E0,1.924018741E0,1.486237645E-1
2.156680989E0,2.625905037E0,1.827080727E0,1.859077662E-1
2.159198750E0,2.743083954E0,1.704575658E0,2.199957669E-1
2.161716562E0,2.850675106E0,1.571417689E0,2.572797835E-1
2.164234323E0,2.950809002E0,1.415889740E0,2.934987843E-1
2.166752083E0,3.044552088E0,1.253970742E0,3.243917823E-1
2.169269843E0,3.140426159E0,1.090985656E0,3.542187810E-1
2.171787656E0,3.233103037E0,9.386537671E-1,3.819157779E-1
2.174305416E0,3.324716091E0,7.969737649E-1,3.968287706E-1
2.176823177E0,3.421653986E0,6.638167500E-1,4.085467756E-1
2.179340937E0,3.520724058E0,5.540947318E-1,4.170687795E-1
2.181858750E0,3.616596937E0,4.646127224E-1,4.234607816E-1
2.184376510E0,3.712470055E0,4.049587250E-1,4.202647805E-1
2.186938125E0,3.805148125E0,3.730007410E-1,4.223957658E-1
2.189455885E0,3.894629955E0,3.708697259E-1,4.234607816E-1
2.191973646E0,3.976655006E0,3.985667229E-1,4.330477715E-1
2.194491458E0,4.038440228E0,4.496997297E-1,4.543527663E-1
2.197009218E0,4.075724125E0,5.125497580E-1,4.863107800E-1
2.199526979E0,4.083180904E0,5.732697845E-1,5.331827998E-1
2.202044739E0,4.067202091E0,6.201407313E-1,5.917717814E-1
2.204562552E0,4.027787209E0,6.393157840E-1,6.546217799E-1
2.207080312E0,3.957479954E0,6.254667640E-1,7.217337489E-1
2.209598073E0,3.865868092E0,5.764647722E-1,7.877797484E-1
2.212115833E0,3.763602972E0,5.072237849E-1,8.463687897E-1
2.214633646E0,3.649620056E0,4.326547384E-1,8.964357972E-1
2.217230000E0,3.535637140E0,3.644787371E-1,9.326547980E-1
2.219747760E0,3.417392969E0,3.048237264E-1,9.539597631E-1
2.222265521E0,3.302345037E0,2.579527199E-1,9.582207799E-1
2.224783333E0,3.194754124E0,2.291907221E-1,9.433077574E-1
2.227301093E0,3.092489004E0,2.142767310E-1,9.209367633E-1
2.229818854E0,2.997681141E0,2.100157291E-1,8.879137635E-1
2.232336614E0,2.917786121E0,2.196027339E-1,8.399767876E-1
2.234854427E0,2.847479105E0,2.462347299E-1,7.867137790E-1
2.237372187E0,2.791020155E0,2.803227305E-1,7.281247973E-1
2.239889948E0,2.744148970E0,3.165417314E-1,6.631437540E-1
2.242407708E0,2.714322090E0,3.484997153E-1,5.875107646E-1
2.244925521E0,2.696212053E0,3.783267140E-1,5.076157451E-1
2.247519635E0,2.684494019E0,3.953707218E-1,4.362437725E-1
2.250037396E0,2.683429003E0,3.985667229E-1,3.701977730E-1
2.252555156E0,2.689821005E0,3.634127378E-1,3.211957812E-1
2.255072968E0,2.698343039E0,2.931057215E-1,2.828457654E-1
2.257590729E0,2.715387106E0,1.951017231E-1,2.519537807E-1
2.260108489E0,2.750540972E0,7.685872912E-2,2.253217697E-1
2.262626250E0,2.794216156E0,-5.203726888E-2,2.029517740E-1
2.265144062E0,2.844283104E0,-1.777382642E-1,1.891037673E-1
2.267661771E0,2.907134056E0,-2.906552851E-1,1.869727671E-1
2.270179583E0,2.974245071E0,-3.854632676E-1,1.944297701E-1
2.272697343E0,3.034965038E0,-4.621622860E-1,2.093437761E-1
2.275215156E0,3.091423988E0,-5.122292638E-1,2.327787727E-1
2.277808385E0,3.130838156E0,-5.377962589E-1,2.530187666E-1
2.280326146E0,3.156404972E0,-5.527092218E-1,2.817807794E-1
2.282843906E0,3.169188023E0,-5.569702387E-1,3.158697784E-1
2.285361718E0,3.172384024E0,-5.441872478E-1,3.488927782E-1
2.287879479E0,3.164927006E0,-5.239472389E-1,3.765887618E-1
2.290397239E0,3.147882938E0,-4.866632819E-1,4.096117616E-1
2.292915000E0,3.120186090E0,-4.429872632E-1,4.426347613E-1
2.295432812E0,3.093554020E0,-3.993122578E-1,4.820497632E-1
2.297950573E0,3.065858126E0,-3.556362689E-1,5.225297809E-1
2.300468333E0,3.041357040E0,-3.108952641E-1,5.598137975E-1
2.302986093E0,3.021116972E0,-2.682852745E-1,5.960327983E-1
2.305503854E0,3.009398937E0,-2.267402709E-1,6.269247532E-1
2.308099896E0,2.996616125E0,-1.915862709E-1,6.524917483E-1
2.310617656E0,2.980637074E0,-1.713462770E-1,6.748617887E-1
2.313135416E0,2.963593006E0,-1.745422781E-1,6.993627548E-1
2.315653229E0,2.949743986E0,-1.788032651E-1,7.206677794E-1
2.318170989E0,2.935896158E0,-1.713462770E-1,7.462347746E-1
2.320688750E0,2.920982122E0,-1.489762664E-1,7.675397992E-1
2.323206510E0,2.902873039E0,-1.319312751E-1,7.824527621E-1
2.325724323E0,2.881567955E0,-1.319312751E-1,8.037588000E-1
2.328242083E0,2.848544121E0,-1.660202742E-1,8.261287808E-1
2.330759843E0,2.808064938E0,-2.512412667E-1,8.495647907E-1
2.333277604E0,2.768650055E0,-3.822682798E-1,8.719347715E-1
2.335795416E0,2.730301142E0,-5.367302299E-1,8.889787793E-1
2.338393177E0,2.697278023E0,-7.018462420E-1,9.006967545E-1
2.340910989E0,2.672776937E0,-8.627002239E-1,9.006967545E-1
2.343428750E0,2.657863140E0,-1.001184225E0,8.932397962E-1
2.345946562E0,2.646145105E0,-1.121558309E0,8.836527467E-1
2.348464323E0,2.648276091E0,-1.227019310E0,8.708697557E-1
2.350982083E0,2.663189173E0,-1.327153325E0,8.676737547E-1
2.353499843E0,2.682363987E0,-1.419831276E0,8.612827659E-1
2.356017656E0,2.711126089E0,-1.511443257E0,8.570217490E-1
2.358535416E0,2.745213985E0,-1.605186343E0,8.538257480E-1
2.361053177E0,2.777172089E0,-1.714908242E0,8.495647907E-1
2.363570937E0,2.811259985E0,-1.831021309E0,8.431727886E-1
2.366088698E0,2.835761070E0,-1.959918261E0,8.367817998E-1
2.368676198E0,2.852806091E0,-2.098401308E0,8.250637650E-1
2.371193958E0,2.866654158E0,-2.246473312E0,8.112147450E-1
2.373711771E0,2.884763002E0,-2.396674395E0,7.931057811E-1
2.376229531E0,2.902873039E0,-2.538354397E0,7.771267891E-1
2.378747291E0,2.920982122E0,-2.667250395E0,7.526257634E-1
2.381265052E0,2.940156937E0,-2.768450260E0,7.334507704E-1
2.383782864E0,2.963593006E0,-2.849410295E0,7.174727917E-1
2.386300625E0,2.979571104E0,-2.921847343E0,7.025587559E-1
2.388818385E0,2.990224123E0,-2.987894297E0,6.887107491E-1
2.391336146E0,2.997681141E0,-3.047548294E0,6.887107491E-1
2.393853958E0,3.001942158E0,-3.098681211E0,6.887107491E-1
2.396371718E0,2.997681141E0,-3.145552397E0,6.855147481E-1
2.398970781E0,2.994485140E0,-3.178575277E0,6.887107491E-1
2.401488541E0,2.987028122E0,-3.205207348E0,6.865797639E-1
2.404006302E0,2.974245071E0,-3.227577209E0,6.887107491E-1
2.406524114E0,2.957201004E0,-3.247817278E0,6.876447797E-1
2.409041875E0,2.932700157E0,-3.260600328E0,6.833837628E-1
2.411559635E0,2.907134056E0,-3.272318363E0,6.801877618E-1
2.414077396E0,2.869850159E0,-3.278709412E0,6.716657877E-1
2.416595208E0,2.824043989E0,-3.288297415E0,6.620787978E-1
2.419112968E0,2.762258053E0,-3.280840397E0,6.567527652E-1
2.421630729E0,2.682363987E0,-3.258470297E0,6.546217799E-1
2.424148489E0,2.595013142E0,-3.220120192E0,6.514257789E-1
2.426666302E0,2.500204086E0,-3.162596226E0,6.492957473E-1
2.429264687E0,2.402200937E0,-3.095485210E0,6.429037452E-1
2.431782448E0,2.302066088E0,-3.019851208E0,6.460997462E-1
2.434300208E0,2.196604967E0,-2.944218397E0,6.429037452E-1
2.436818021E0,2.092210054E0,-2.872845411E0,6.397087574E-1
2.439335781E0,1.992075205E0,-2.804669380E0,6.343817711E-1
2.441853541E0,1.895137191E0,-2.729035378E0,6.279907823E-1
2.444371302E0,1.795002222E0,-2.659793377E0,6.194687486E-1
2.446889114E0,1.696998119E0,-2.585225344E0,6.141417623E-1
2.449406823E0,1.597929120E0,-2.515983343E0,6.077507734E-1
2.451924635E0,1.491403222E0,-2.449937344E0,6.024237871E-1
2.454442396E0,1.387008190E0,-2.375369310E0,6.002937555E-1
2.456960208E0,1.284743190E0,-2.306127310E0,6.024237871E-1
2.459575677E0,1.183543205E0,-2.237950325E0,6.034897566E-1
2.462093437E0,1.081278205E0,-2.163382292E0,6.088157892E-1
2.464611250E0,9.822090864E-1,-2.096271276E0,6.184027791E-1
2.467129010E0,8.863360882E-1,-2.029160261E0,6.311857700E-1
2.469646771E0,7.947230935E-1,-1.969505310E0,6.418387890E-1
2.472164531E0,6.999151111E-1,-1.911981344E0,6.535567641E-1
2.474682343E0,6.083031297E-1,-1.856587291E0,6.663397551E-1
2.477200104E0,5.209510922E-1,-1.812912345E0,6.823187470E-1
2.479717864E0,4.367961586E-1,-1.772432327E0,6.972327828E-1
2.482235625E0,3.526401520E-1,-1.733017325E0,7.089497447E-1
2.484753437E0,2.727461457E-1,-1.697864294E0,7.185377479E-1
2.487271198E0,1.971121281E-1,-1.663775325E0,7.313207984E-1
2.489844427E0,1.236091256E-1,-1.632883310E0,7.430387735E-1
2.492362187E0,4.478013143E-2,-1.607317328E0,7.483647466E-1
2.494879948E0,-3.085186891E-2,-1.581750274E0,7.526257634E-1
2.497397760E0,-1.022248715E-1,-1.550858259E0,7.558217645E-1
2.499915468E0,-1.778578758E-1,-1.522096276E0,7.526257634E-1
2.502433281E0,-2.513608634E-1,-1.498660326E0,7.504957914E-1
2.504951041E0,-3.248638511E-1,-1.474159360E0,7.654087543E-1
2.507468854E0,-3.919748664E-1,-1.432614326E0,7.941707969E-1
2.509986614E0,-4.569558501E-1,-1.383612275E0,8.208027482E-1
2.512504375E0,-5.251328945E-1,-1.336741328E0,8.399767876E-1
2.515022135E0,-5.911788940E-1,-1.293065310E0,8.527607918E-1
2.517539948E0,-6.625508666E-1,-1.241932273E0,8.538257480E-1
2.520135364E0,-7.360538840E-1,-1.186539292E0,8.453037739E-1
2.522653125E0,-8.095569015E-1,-1.123689294E0,8.346507549E-1
2.525170885E0,-8.809298873E-1,-1.048055291E0,8.122807741E-1
2.527688698E0,-9.523018599E-1,-9.639002681E-1,7.824527621E-1
2.530206458E0,-1.019413829E0,-8.861362338E-1,7.536907792E-1
2.532724218E0,-1.086524844E0,-8.147632480E-1,7.217337489E-1
2.535241979E0,-1.155766845E0,-7.391302586E-1,6.929717660E-1
2.537759791E0,-1.219681859E0,-6.624312401E-1,6.674047709E-1
2.540277552E0,-1.279336810E0,-5.825362206E-1,6.407737732E-1
2.542795312E0,-1.340056777E0,-5.090332627E-1,6.205337644E-1
2.545313073E0,-1.399710774E0,-4.387262762E-1,6.013587713E-1
2.547830885E0,-1.455104828E0,-3.652232587E-1,5.821847916E-1
2.550425937E0,-1.511563778E0,-2.949162722E-1,5.694007874E-1
2.552943698E0,-1.565891862E0,-2.246092707E-1,5.576837659E-1
2.555461458E0,-1.618089795E0,-1.585632712E-1,5.502267480E-1
2.557979271E0,-1.659634829E0,-9.677827358E-2,5.438347459E-1
2.560497031E0,-1.699048877E0,-4.884126782E-2,5.395737886E-1
2.563014791E0,-1.729941845E0,-5.166268442E-3,5.321167707E-1
2.565532552E0,-1.749116778E0,3.637873381E-2,5.225297809E-1
2.568050312E0,-1.758703828E0,5.768373236E-2,5.108117461E-1
2.570568125E0,-1.748050809E0,7.579272985E-2,4.969637692E-1
2.573085885E0,-1.712897778E0,8.218473196E-2,4.831147790E-1
2.575603646E0,-1.645785809E0,8.964172751E-2,4.607447684E-1
2.578121458E0,-1.563760877E0,9.603273124E-2,4.351787865E-1
2.580717083E0,-1.464691877E0,1.066857278E-1,4.000247717E-1
2.583236146E0,-1.347513795E0,1.109467298E-1,3.616757691E-1
2.585755260E0,-1.225008845E0,1.120117307E-1,3.158697784E-1
2.588274323E0,-1.101438880E0,1.024247259E-1,2.594107687E-1
2.590793437E0,-9.799988866E-1,6.407473236E-2,1.976257712E-1
2.593312500E0,-8.649508953E-1,1.597316004E-4,1.347747743E-1
2.595831562E0,-7.552288771E-1,-9.677827358E-2,7.405477017E-2
2.598350677E0,-6.614859104E-1,-2.139562666E-1,1.120476890E-2
2.600869739E0,-5.783959031E-1,-3.343312740E-1,-5.910123140E-2
2.603388854E0,-5.070238709E-1,-4.419222772E-1,-1.219512299E-1
2.605907916E0,-4.356508553E-1,-5.452522635E-1,-1.784102321E-1
2.608427031E0,-3.664088547E-1,-6.485832334E-1,-2.263472229E-1
2.611028541E0,-3.056888580E-1,-7.380642295E-1,-2.657612264E-1
2.613547656E0,-2.375128716E-1,-8.083722591E-1,-2.902622223E-1
2.616066718E0,-1.789228767E-1,-8.818742633E-1,-3.126332164E-1
2.618585833E0,-1.309868693E-1,-9.607042670E-1,-3.211552203E-1
2.621104896E0,-8.837587386E-2,-1.029946327E0,-3.073072135E-1
2.623624010E0,-5.748386681E-2,-1.075752258E0,-2.849362195E-1
2.626143073E0,-3.511286899E-2,-1.105579257E0,-2.465872318E-1
2.628662187E0,-2.019986883E-2,-1.117297292E0,-1.911932230E-1
2.631181250E0,-1.167786866E-2,-1.111971259E0,-1.389962286E-1
2.633700364E0,-3.155868733E-3,-1.103449345E0,-8.040622622E-2
2.636219427E0,1.708313078E-2,-1.099188328E0,-1.116423123E-2
2.638738541E0,4.265013337E-2,-1.048055291E0,5.807676911E-2
2.641332187E0,7.567312568E-2,-9.884002209E-1,1.315797716E-1
2.643851302E0,1.204141304E-1,-9.532472491E-1,2.050817758E-1
2.646370364E0,1.715461314E-1,-9.330072403E-1,2.743237615E-1
2.648889427E0,2.248091251E-1,-9.170282483E-1,3.297177851E-1
2.651408541E0,2.791371346E-1,-9.170282483E-1,3.808497787E-1
2.653927656E0,3.238781393E-1,-9.266152382E-1,4.117427766E-1
2.656446718E0,3.590321541E-1,-9.319422245E-1,4.245257676E-1
2.658965833E0,3.803371489E-1,-9.266152382E-1,4.245257676E-1
2.661484896E0,3.845981359E-1,-9.223542213E-1,4.085467756E-1
2.664004010E0,3.739461303E-1,-9.117022157E-1,3.819157779E-1
2.666523073E0,3.430531323E-1,-8.999842405E-1,3.425007761E-1
2.669042187E0,3.057691455E-1,-8.882662654E-1,2.934987843E-1
2.671588541E0,2.557021379E-1,-8.776132464E-1,2.444967777E-1
2.674107604E0,1.885901242E-1,-8.627002239E-1,1.922987700E-1
2.676626718E0,1.086961254E-1,-8.477862477E-1,1.486237645E-1
2.679145781E0,2.667113021E-2,-8.254162669E-1,1.134697720E-1
2.681664896E0,-6.174486876E-2,-7.955882549E-1,9.216476977E-2
2.684183958E0,-1.533568650E-1,-7.583042383E-1,7.618577033E-2
2.686703021E0,-2.439038754E-1,-7.114332318E-1,7.298976928E-2
2.689222135E0,-3.291248679E-1,-6.592352390E-1,7.192476839E-2
2.691741198E0,-4.004978538E-1,-5.921242237E-1,7.192476839E-2
2.694260312E0,-4.505648613E-1,-5.090332627E-1,6.659877300E-2
2.696779375E0,-4.750658572E-1,-4.014422596E-1,5.168476701E-2
2.699298489E0,-4.686738551E-1,-2.746762633E-1,2.611876838E-2
2.701911771E0,-4.313898683E-1,-1.287362725E-1,-1.968623139E-2
2.704430885E0,-3.855838478E-1,4.490073398E-2,-7.827623188E-2
2.706949948E0,-3.195378482E-1,2.441037297E-1,-1.571052223E-1
2.709469062E0,-2.449698746E-1,4.667437375E-1,-2.433912307E-1
2.711988125E0,-1.533568650E-1,7.224057317E-1,-3.381992280E-1
2.714507239E0,-4.043986648E-2,1.032396674E0,-4.340732396E-1
2.717026302E0,8.419512957E-2,1.375409722E0,-5.363382101E-1
2.719545416E0,2.194831222E-1,1.723749757E0,-6.460592151E-1
2.722064479E0,3.494451344E-1,2.015631676E0,-7.579122186E-1
2.724583593E0,4.431871474E-1,2.195660591E0,-8.580462337E-1
2.727102656E0,4.815371335E-1,2.248923779E0,-9.304842353E-1
2.729621771E0,4.549051523E-1,2.172224760E0,-9.730942249E-1
2.732204479E0,3.899241388E-1,1.962368727E0,-9.709642529E-1
2.734723593E0,2.993771434E-1,1.647051692E0,-9.198312163E-1
2.737242656E0,1.939171255E-1,1.273145676E0,-8.356762528E-1
2.739761771E0,8.419512957E-2,8.885867596E-1,-7.227582335E-1
2.742280833E0,-4.363486916E-2,5.445077419E-1,-5.938622355E-1
2.744799948E0,-1.927718669E-1,2.845837176E-1,-4.564432204E-1
2.747319010E0,-3.738658428E-1,1.226647347E-1,-3.222202361E-1
2.749838125E0,-5.858528614E-1,4.383473098E-2,-1.922592223E-1
2.752357187E0,-8.297969103E-1,2.679073066E-2,-6.655822694E-2
2.754876302E0,-1.099307775E0,5.448773131E-2,6.340277195E-2
2.757395364E0,-1.387993813E0,1.013597324E-1,1.986907721E-1
2.759914479E0,-1.683070779E0,1.556877345E-1,3.371747732E-1
2.762493593E0,-1.965363860E0,2.036237270E-1,4.660707712E-1
2.765012708E0,-2.217830896E0,2.419737279E-1,5.843147635E-1
2.767531771E0,-2.420229912E0,2.739317417E-1,6.982977986E-1
2.770050885E0,-2.560844898E0,3.122807145E-1,7.931057811E-1
2.772569948E0,-2.636477947E0,3.751307428E-1,8.772617579E-1
2.775089062E0,-2.650326967E0,4.742007256E-1,9.379807711E-1
2.777608125E0,-2.613042831E0,6.158797741E-1,9.582207799E-1
2.780127239E0,-2.546995878E0,8.033657670E-1,9.475687742E-1
2.782646302E0,-2.477754831E0,1.034526706E0,9.060238004E-1
2.785165416E0,-2.421295881E0,1.298711658E0,8.271937966E-1
2.787684479E0,-2.393599033E0,1.595918655E0,7.217337489E-1
2.790203593E0,-2.398924828E0,1.908039689E0,5.907067657E-1
2.792751823E0,-2.436208963E0,2.223356724E0,4.426347613E-1
2.795270885E0,-2.499059916E0,2.526956797E0,2.945637703E-1
2.797790000E0,-2.580018997E0,2.810315609E0,1.443627775E-1
2.800309062E0,-2.681218863E0,3.054259777E0,2.682768740E-3
2.802828177E0,-2.787744999E0,3.260920763E0,-1.219512299E-1
2.805347239E0,-2.902792931E0,3.413252592E0,-2.167602330E-1
2.807866302E0,-3.015710831E0,3.501668692E0,-2.828062177E-1
2.810385416E0,-3.117975950E0,3.529365778E0,-3.179592192E-1
2.812904479E0,-3.201066017E0,3.497407675E0,-3.232862353E-1
2.815423593E0,-3.252198935E0,3.412187815E0,-2.977192402E-1
2.817942656E0,-3.270308018E0,3.269442797E0,-2.476522326E-1
2.820461771E0,-3.246871948E0,3.084087610E0,-1.837362349E-1
2.823042239E0,-3.179760933E0,2.844403744E0,-1.102342308E-1
2.825561302E0,-3.072170019E0,2.559979677E0,-4.099223390E-2
2.828080416E0,-2.931555033E0,2.222291708E0,2.718376741E-2
2.830599479E0,-2.761113882E0,1.849450707E0,9.003376961E-2
2.833118593E0,-2.569366932E0,1.471283674E0,1.358407736E-1
2.835637656E0,-2.360575914E0,1.096311688E0,1.699287742E-1
2.838156718E0,-2.153914928E0,7.213407755E-1,1.997557729E-1
2.840675833E0,-1.958972812E0,3.474347293E-1,2.370397747E-1
2.843194896E0,-1.789596796E0,-7.296268363E-3,2.764547765E-1
2.845714010E0,-1.652177811E0,-3.076992631E-1,3.179997802E-1
2.848233073E0,-1.550977826E0,-5.282082558E-1,3.627407849E-1
2.850752187E0,-1.491323829E0,-6.762792468E-1,4.106777608E-1
2.853333802E0,-1.473213792E0,-7.487172484E-1,4.671357572E-1
2.855852864E0,-1.496649861E0,-7.753482461E-1,5.289217830E-1
2.858371979E0,-1.549912810E0,-7.636312246E-1,5.939017534E-1
2.860891041E0,-1.625546813E0,-6.965192556E-1,6.439697742E-1
2.863410156E0,-1.718223810E0,-5.931892395E-1,6.833837628E-1
2.865929218E0,-1.825814843E0,-4.664232731E-1,7.153417468E-1
2.868448281E0,-1.942993879E0,-3.066342771E-1,7.377117872E-1
2.870967396E0,-2.068694830E0,-1.170182675E-1,7.462347746E-1
2.873486458E0,-2.202916861E0,9.709773213E-2,7.483647466E-1
2.876005573E0,-2.339270830E0,3.208027184E-1,7.387777567E-1
2.878524635E0,-2.475623846E0,5.498337746E-1,7.259947658E-1
2.881043750E0,-2.600258827E0,7.873867750E-1,7.089497447E-1
2.883657864E0,-2.721698999E0,1.033461690E0,6.844487786E-1
2.886176979E0,-2.825028896E0,1.279536724E0,6.620787978E-1
2.888696041E0,-2.914510965E0,1.518154740E0,6.386427879E-1
2.891215156E0,-2.985883951E0,1.737598658E0,6.173377633E-1
2.893734218E0,-3.034885883E0,1.922953725E0,5.960327983E-1
2.896253333E0,-3.071104050E0,2.088068724E0,5.683357716E-1
2.898772396E0,-3.095604897E0,2.234009743E0,5.374437571E-1
2.901291510E0,-3.109453917E0,2.352253675E0,5.054857731E-1
2.903810573E0,-3.106257915E0,2.436408758E0,4.724627733E-1
2.906329687E0,-3.093474865E0,2.484345675E0,4.362437725E-1
2.908848750E0,-3.077496052E0,2.496063709E0,4.010897577E-1
2.911367864E0,-3.051929951E0,2.485410690E0,3.670017719E-1
2.913914791E0,-3.017840862E0,2.447061777E0,3.361087739E-1
2.916433854E0,-2.981622934E0,2.383145809E0,3.052167594E-1
2.918952968E0,-2.942208052E0,2.304316759E0,2.796507776E-1
2.921472031E0,-2.898531914E0,2.219095707E0,2.530187666E-1
2.923991146E0,-2.852725983E0,2.130679607E0,2.285177708E-1
2.926510208E0,-2.798398018E0,2.047589779E0,2.104087770E-1
2.929029271E0,-2.734482050E0,1.974086642E0,1.933647692E-1
2.931548385E0,-2.670567036E0,1.900583744E0,1.763197780E-1
2.934067448E0,-2.619433880E0,1.812166691E0,1.603417695E-1
2.936586562E0,-2.560844898E0,1.726945758E0,1.539497674E-1
2.939105625E0,-2.493732929E0,1.633202672E0,1.550147682E-1
2.941624739E0,-2.428752899E0,1.526676655E0,1.560807675E-1
2.944203906E0,-2.363771915E0,1.398845673E0,1.603417695E-1
2.946722968E0,-2.298790932E0,1.265688658E0,1.624717712E-1
2.949242083E0,-2.237005949E0,1.139987707E0,1.614067703E-1
2.951761146E0,-2.177350998E0,1.030265689E0,1.550147682E-1
2.954280260E0,-2.118762016E0,9.311967492E-1,1.518187672E-1
2.956799323E0,-2.066563845E0,8.395847678E-1,1.454277784E-1
2.959318385E0,-2.011170864E0,7.650157809E-1,1.379707754E-1
2.961837500E0,-1.966429830E0,7.042967677E-1,1.379707754E-1
2.964356562E0,-1.931275845E0,6.606207490E-1,1.347747743E-1
2.966875677E0,-1.898252845E0,6.222717762E-1,1.315797716E-1
2.969394739E0,-1.874816775E0,5.775307417E-1,1.262527704E-1
2.971913854E0,-1.860968828E0,5.391807556E-1,1.177307740E-1
2.974493646E0,-1.852446795E0,5.136147738E-1,1.156007722E-1
2.977012708E0,-1.841793776E0,5.157457590E-1,1.060127690E-1
2.979531823E0,-1.835402846E0,5.295937657E-1,9.322977066E-2
2.982050885E0,-1.839663863E0,5.434417725E-1,8.683877438E-2
2.984570000E0,-1.840728879E0,5.753997564E-1,8.257777244E-2
2.987089062E0,-1.848185778E0,6.307937503E-1,7.831677049E-2
2.989608125E0,-1.858837843E0,6.968397498E-1,8.257777244E-2
2.992127239E0,-1.871621847E0,7.660817504E-1,8.577277511E-2
2.994646302E0,-1.880143881E0,8.395847678E-1,8.044677228E-2
2.997165416E0,-1.895056844E0,9.152177572E-1,7.512076944E-2
2.999684479E0,-1.903578877E0,9.844597578E-1,6.979376823E-2
3.002203593E0,-1.915296793E0,1.038787723E0,6.446777284E-2
3.004818906E0,-1.921688795E0,1.085659742E0,5.594576895E-2
3.007338021E0,-1.921688795E0,1.125073671E0,4.742376879E-2
3.009857083E0,-1.912100792E0,1.167684674E0,4.103176668E-2
3.012376198E0,-1.893991828E0,1.206033707E0,3.357576951E-2
3.014895260E0,-1.864164829E0,1.236926675E0,2.292276733E-2
3.017414375E0,-1.829010844E0,1.257166743E0,1.333576906E-2
3.019933437E0,-1.789596796E0,1.266753674E0,3.747768700E-3
3.022452552E0,-1.740594864E0,1.269949675E0,-1.009923127E-2
3.024971614E0,-1.686265826E0,1.265688658E0,-2.288223244E-2
3.027490677E0,-1.626611829E0,1.243317723E0,-3.886123374E-2
3.030009791E0,-1.564826846E0,1.201772690E0,-6.549322605E-2
3.032528906E0,-1.503041863E0,1.141052723E0,-9.212423116E-2
3.035110104E0,-1.446582794E0,1.061158657E0,-1.272782236E-1
3.037629218E0,-1.392254829E0,9.631547332E-1,-1.666922271E-1
3.040148281E0,-1.340056777E0,8.491717577E-1,-2.029112279E-1
3.042667396E0,-1.294250846E0,7.234707475E-1,-2.369992286E-1
3.045186458E0,-1.251639843E0,5.892487764E-1,-2.732182145E-1
3.047705573E0,-1.212225795E0,4.454377294E-1,-3.041112423E-1
3.050224635E0,-1.178136826E0,2.952367365E-1,-3.307422400E-1
3.052743750E0,-1.150440812E0,1.354477257E-1,-3.531132340E-1
3.055262812E0,-1.127004862E0,-2.540526912E-2,-3.722872138E-1
3.057781927E0,-1.105699778E0,-1.798682660E-1,-3.925272226E-1
3.060300989E0,-1.085459828E0,-3.279392719E-1,-4.148982167E-1
3.062820104E0,-1.073741794E0,-4.653582573E-1,-4.330072403E-1
3.065401979E0,-1.062023878E0,-5.814712644E-1,-4.479212165E-1
3.067921093E0,-1.051370859E0,-6.762792468E-1,-4.607042372E-1
3.070440156E0,-1.044979811E0,-7.487172484E-1,-4.713572264E-1
3.072959271E0,-1.042848825E0,-8.009152412E-1,-4.777482152E-1
3.075478333E0,-1.043914795E0,-8.275462389E-1,-4.830752313E-1
3.077997448E0,-1.051370859E0,-8.264812231E-1,-4.852052331E-1
3.080516510E0,-1.059892774E0,-8.019802570E-1,-4.862702191E-1
3.083035625E0,-1.075871825E0,-7.508482337E-1,-4.894662201E-1
3.085554687E0,-1.097177863E0,-6.837362647E-1,-4.926622212E-1
3.088073750E0,-1.125939846E0,-5.963852406E-1,-4.884012341E-1
3.090592864E0,-1.161092877E0,-4.994462729E-1,-4.862702191E-1
3.093111979E0,-1.202637792E0,-3.929202855E-1,-4.820092320E-1
3.095690989E0,-1.252705812E0,-2.842642665E-1,-4.713572264E-1
3.098211146E0,-1.305968881E0,-1.788032651E-1,-4.617692232E-1
3.100731250E0,-1.362426877E0,-7.760327309E-2,-4.500512183E-1
3.103251406E0,-1.417820811E0,1.294273231E-2,-4.393992424E-1
3.105771562E0,-1.468952775E0,9.496773034E-2,-4.330072403E-1
3.108291718E0,-1.516889811E0,1.727317274E-1,-4.287462234E-1
3.110811875E0,-1.560565829E0,2.504957318E-1,-4.255502224E-1
3.113332031E0,-1.592522860E0,3.239987195E-1,-4.244852364E-1
3.115852135E0,-1.618089795E0,3.889797330E-1,-4.298122227E-1
3.118372291E0,-1.635133862E0,4.518297315E-1,-4.362032413E-1
3.120892448E0,-1.642590880E0,5.018967390E-1,-4.457902312E-1
3.123412604E0,-1.636198878E0,5.413117409E-1,-4.585742354E-1
3.125944843E0,-1.617023826E0,5.753997564E-1,-4.702912271E-1
3.128465000E0,-1.590392828E0,5.924437642E-1,-4.852052331E-1
3.130985104E0,-1.548847795E0,5.913787484E-1,-5.011842251E-1
3.133505260E0,-1.488127828E0,5.785957575E-1,-5.203592181E-1
3.136025416E0,-1.415689826E0,5.413117409E-1,-5.384682417E-1
3.138545573E0,-1.324077845E0,4.880487323E-1,-5.555122495E-1
3.141065729E0,-1.220747828E0,4.166757166E-1,-5.778832436E-1
3.143585885E0,-1.107829809E0,3.303897381E-1,-6.066452265E-1
3.146105989E0,-9.906519055E-1,2.419737279E-1,-6.386022568E-1
3.148626146E0,-8.734728694E-1,1.556877345E-1,-6.726912260E-1
3.151146302E0,-7.584248781E-1,7.579272985E-2,-7.078442574E-1
3.153666458E0,-6.593558788E-1,1.720373333E-2,-7.429982424E-1
3.156272187E0,-5.730698705E-1,-6.231268402E-3,-7.834782004E-1
3.158792343E0,-4.985008538E-1,-3.036268521E-3,-8.165012002E-1
3.161312448E0,-4.441728592E-1,3.531273082E-2,-8.367412090E-1
3.163832604E0,-4.079538584E-1,9.816373140E-2,-8.516542315E-1
3.166352760E0,-3.887798488E-1,1.833847314E-1,-8.559162021E-1
3.168872916E0,-3.877138495E-1,2.920407355E-1,-8.441982269E-1
3.171393073E0,-4.047588706E-1,4.198717177E-1,-8.133051991E-1
3.173913229E0,-4.335208535E-1,5.562257767E-1,-7.664342523E-1
3.176433333E0,-4.761308432E-1,6.979047656E-1,-7.110401988E-1
3.178953489E0,-5.208718777E-1,8.395847678E-1,-6.481902003E-1
3.181473646E0,-5.688089132E-1,9.716767669E-1,-5.842742324E-1
3.183993802E0,-6.103538871E-1,1.093116641E0,-5.192932487E-1
3.186551093E0,-6.401808858E-1,1.196446657E0,-4.585742354E-1
3.189071250E0,-6.604208946E-1,1.281667709E0,-4.170282185E-1
3.191591354E0,-6.561598778E-1,1.337060690E0,-3.872012198E-1
3.194111510E0,-6.316589117E-1,1.371148705E0,-3.669612408E-1
3.196631666E0,-5.869178772E-1,1.383932710E0,-3.701572418E-1
3.199151823E0,-5.230019093E-1,1.378605723E0,-3.818752170E-1
3.201671979E0,-4.409768581E-1,1.350908756E0,-3.978542387E-1
3.204192135E0,-3.451038599E-1,1.315755725E0,-4.266162217E-1
3.206712239E0,-2.396428734E-1,1.253970742E0,-4.617692232E-1
3.209232396E0,-1.224648729E-1,1.179402709E0,-4.937272370E-1
3.211752552E0,-2.089868765E-3,1.088855743E0,-5.160982013E-1
3.214272708E0,1.214791313E-1,9.770027399E-1,-5.352722406E-1
3.216818073E0,2.450491339E-1,8.534327745E-1,-5.363382101E-1
3.219338229E0,3.611621559E-1,7.149487734E-1,-5.246202350E-1
3.221858333E0,4.751451313E-1,5.700737834E-1,-5.022492409E-1
3.224378489E0,5.742141008E-1,4.347857237E-1,-4.734872282E-1
3.226898646E0,6.668921113E-1,3.154767156E-1,-4.479212165E-1
3.229418802E0,7.457211018E-1,2.217337340E-1,-4.212892354E-1
3.231938958E0,8.096371293E-1,1.503607333E-1,-3.967882395E-1
3.234459114E0,8.650301099E-1,1.120117307E-1,-3.701572418E-1
3.236979218E0,9.108371139E-1,1.045547277E-1,-3.456562161E-1
3.239499375E0,9.566431046E-1,1.386437267E-1,-3.211552203E-1
3.242019531E0,1.001384139E0,2.164077312E-1,-2.987852395E-1
3.244539687E0,1.049320221E0,3.271947205E-1,-2.721532285E-1
3.247144427E0,1.103649139E0,4.678087234E-1,-2.401952296E-1
3.249664583E0,1.172891140E0,6.393157840E-1,-2.071722299E-1
3.252184687E0,1.251720190E0,8.236057758E-1,-1.688232273E-1
3.254704843E0,1.342267156E0,1.005764723E0,-1.230172291E-1
3.257225000E0,1.444532156E0,1.190054655E0,-8.040622622E-2
3.259745156E0,1.564906120E0,1.362626672E0,-3.779623285E-2
3.262265312E0,1.690607190E0,1.516024709E0,3.747768700E-3
3.264785468E0,1.824830174E0,1.643855691E0,4.103176668E-2
3.267305573E0,1.968640208E0,1.745055676E0,7.512076944E-2
3.269825729E0,2.115646124E0,1.810036659E0,1.038827747E-1
3.272345885E0,2.265846968E0,1.846254706E0,1.294487715E-1
3.274866041E0,2.416049004E0,1.848385692E0,1.528847665E-1
3.277434010E0,2.557729006E0,1.826014757E0,1.741897762E-1
3.279954166E0,2.701539040E0,1.789796710E0,1.944297701E-1
3.282474271E0,2.834696054E0,1.734402657E0,2.157347649E-1
3.284994427E0,2.961462021E0,1.667291641E0,2.359747738E-1
3.287514583E0,3.082901955E0,1.594853640E0,2.487577796E-1
3.290034739E0,3.199015141E0,1.514959693E0,2.615407705E-1
3.292554896E0,3.311933041E0,1.432934642E0,2.689977586E-1
3.295075052E0,3.418458939E0,1.350908756E0,2.668677568E-1
3.297595156E0,3.530311108E0,1.269949675E0,2.551497817E-1
3.300115312E0,3.638967037E0,1.192185640E0,2.338437736E-1
3.302635468E0,3.742298126E0,1.117617726E0,2.072127759E-1
3.305155625E0,3.846693039E0,1.052636743E0,1.763197780E-1
3.307688854E0,3.947893143E0,1.001503706E0,1.475577652E-1
3.310209010E0,4.039505005E0,9.706117511E-1,1.241227686E-1
3.312729114E0,4.110877991E0,9.588937759E-1,1.113397703E-1
3.315249271E0,4.164141178E0,9.780677557E-1,1.081437692E-1
3.317769427E0,4.188642025E0,1.026004672E0,1.262527704E-1
3.320289583E0,4.175858021E0,1.098442674E0,1.550147682E-1
3.322809739E0,4.126855850E0,1.182597756E0,1.954947710E-1
3.325329896E0,4.044831276E0,1.262492657E0,2.444967777E-1
3.327850000E0,3.934044123E0,1.334930658E0,3.052167594E-1
3.330370156E0,3.800887108E0,1.388193727E0,3.733937740E-1
3.332890312E0,3.662403107E0,1.415889740E0,4.415697753E-1
3.335410468E0,3.517528057E0,1.409498692E0,5.097467899E-1
3.338016562E0,3.374783039E0,1.374344707E0,5.800537467E-1
3.340536718E0,3.229907990E0,1.324277639E0,6.429037452E-1
3.343056823E0,3.091423988E0,1.276340723E0,6.993627548E-1
3.345576979E0,2.962527037E0,1.242252707E0,7.377117872E-1
3.348097135E0,2.845349073E0,1.220947742E0,7.611477971E-1
3.350617291E0,2.742017984E0,1.206033707E0,7.632787824E-1
3.353137448E0,2.653602123E0,1.199642658E0,7.494297624E-1
3.355657604E0,2.583295107E0,1.200707674E0,7.302557826E-1
3.358177708E0,2.533228159E0,1.195381641E0,7.036237717E-1
3.360697864E0,2.490617037E0,1.173010707E0,6.695357561E-1
3.363218021E0,2.463986158E0,1.122943640E0,6.322517991E-1
3.365738177E0,2.445876122E0,1.049440742E0,6.002937555E-1
3.368272187E0,2.438419104E0,9.578287601E-1,5.800537467E-1
3.370792343E0,2.451203108E0,8.672807813E-1,5.694007874E-1
3.373312448E0,2.482095003E0,7.809947729E-1,5.619447827E-1
3.375832604E0,2.526836157E0,7.000357509E-1,5.608787537E-1
3.378352760E0,2.586491108E0,6.233367324E-1,5.640747547E-1
3.380872916E0,2.654667139E0,5.562257767E-1,5.704667568E-1
3.383393073E0,2.732431173E0,4.859177172E-1,5.800537467E-1
3.385913229E0,2.809129953E0,4.209377170E-1,5.907067657E-1
3.388433333E0,2.892220020E0,3.580867350E-1,5.949677825E-1
3.390953489E0,2.975310087E0,2.952367365E-1,5.960327983E-1
3.393473646E0,3.053074121E0,2.281247228E-1,5.843147635E-1
3.395993802E0,3.129773140E0,1.482307315E-1,5.651397705E-1
3.398599375E0,3.192623138E0,5.874873325E-2,5.427697897E-1
3.401119531E0,3.241625071E0,-5.203726888E-2,5.193337798E-1
3.403639635E0,3.269322157E0,-1.894552708E-1,4.990937710E-1
3.406159791E0,3.279974937E0,-3.332662582E-1,4.937677681E-1
3.408679948E0,3.273582935E0,-4.728152752E-1,4.937677681E-1
3.411200104E0,3.256539106E0,-6.017112136E-1,5.044207573E-1
3.413720260E0,3.230973005E0,-7.018462420E-1,5.257257819E-1
3.416240416E0,3.200080156E0,-7.636312246E-1,5.566177964E-1
3.418760521E0,3.174514055E0,-7.881322503E-1,5.896407962E-1
3.421280677E0,3.139359951E0,-7.891972661E-1,6.258597970E-1
3.423800833E0,3.098881006E0,-7.753482461E-1,6.706007719E-1
3.426320989E0,3.056270123E0,-7.465862632E-1,7.142767906E-1
3.428881510E0,3.012594938E0,-7.082372308E-1,7.536907792E-1
3.431401666E0,2.968919039E0,-6.560392380E-1,7.909747958E-1
3.433921771E0,2.929504156E0,-5.921242237E-1,8.303897977E-1
3.436441927E0,2.893285036E0,-5.175562501E-1,8.655437827E-1
3.438962083E0,2.862393141E0,-4.429872632E-1,8.943057656E-1
3.441482239E0,2.833631039E0,-3.694842756E-1,9.124147892E-1
3.444002396E0,2.800608158E0,-3.108952641E-1,9.230677485E-1
3.446522552E0,2.770781040E0,-2.704152763E-1,9.326547980E-1
3.449042656E0,2.744148970E0,-2.533712685E-1,9.390468001E-1
3.451562812E0,2.717518091E0,-2.586972713E-1,9.411767721E-1
3.454082968E0,2.689821005E0,-2.917202711E-1,9.390468001E-1
3.456603125E0,2.666384935E0,-3.439182639E-1,9.305247664E-1
3.459144010E0,2.644015074E0,-4.312702715E-1,9.283937812E-1
3.461664166E0,2.622709036E0,-5.665582418E-1,9.283937812E-1
3.464184271E0,2.603534937E0,-7.444562316E-1,9.305247664E-1
3.466704427E0,2.582229137E0,-9.479212165E-1,9.326547980E-1
3.469224583E0,2.571577072E0,-1.154581308E0,9.390468001E-1
3.471744739E0,2.566251040E0,-1.349524260E0,9.433077574E-1
3.474264896E0,2.563055038E0,-1.528487325E0,9.433077574E-1
3.476785052E0,2.573707104E0,-1.682950258E0,9.422417879E-1
3.479305156E0,2.595013142E0,-1.828891277E0,9.390468001E-1
3.481825312E0,2.617383003E0,-1.957787275E0,9.358507991E-1
3.484345468E0,2.652537107E0,-2.077096224E0,9.294587970E-1
3.486865625E0,2.685559988E0,-2.186818361E0,9.209367633E-1
3.489470781E0,2.715387106E0,-2.299736261E0,9.113497734E-1
3.491990937E0,2.745213985E0,-2.423306227E0,9.081537724E-1
3.494511041E0,2.776107073E0,-2.541550398E0,9.038927555E-1
3.497031198E0,2.812325954E0,-2.650206327E0,9.028277993E-1
3.499551354E0,2.847479105E0,-2.740753412E0,9.006967545E-1
3.502071510E0,2.880501986E0,-2.813191414E0,9.006967545E-1
3.504591666E0,2.918852091E0,-2.869650364E0,9.049577713E-1
3.507111823E0,2.954005003E0,-2.921847343E0,9.070887566E-1
3.509631927E0,2.988094091E0,-2.965523243E0,9.049577713E-1
3.512152083E0,3.020051003E0,-3.007068396E0,9.049577713E-1
3.514672239E0,3.049879074E0,-3.046483278E0,9.017627835E-1
3.517192396E0,3.073313951E0,-3.080571413E0,9.017627835E-1
3.519760260E0,3.087162971E0,-3.112529278E0,9.060238004E-1
3.522280416E0,3.087162971E0,-3.131704330E0,9.092187881E-1
3.524800521E0,3.066923141E0,-3.142356396E0,9.092187881E-1
3.527320677E0,3.032834053E0,-3.147683382E0,9.156107903E-1
3.529840833E0,2.981702089E0,-3.153009415E0,9.177407622E-1
3.532360989E0,2.907134056E0,-3.171118259E0,9.166757464E-1
3.534881146E0,2.816586971E0,-3.207337379E0,9.081537724E-1
3.537401302E0,2.706865072E0,-3.236099243E0,8.911097646E-1
3.539921406E0,2.588621140E0,-3.247817278E0,8.719347715E-1
3.542441562E0,2.459725142E0,-3.252078295E0,8.453037739E-1
3.544961718E0,2.328698158E0,-3.244621277E0,8.154757619E-1
3.547481875E0,2.196604967E0,-3.213729382E0,7.803227901E-1
3.550052760E0,2.070904970E0,-3.177510262E0,7.494297624E-1
3.552572916E0,1.944139123E0,-3.139160395E0,7.238637805E-1
3.555093021E0,1.823764205E0,-3.083767414E0,6.993627548E-1
3.557613177E0,1.711912155E0,-3.011329412E0,6.759267449E-1
3.560133333E0,1.607517123E0,-2.923978329E0,6.588827968E-1
3.562653489E0,1.504186153E0,-2.832366228E0,6.482307911E-1
3.565173646E0,1.402987123E0,-2.741818190E0,6.418387890E-1
3.567693802E0,1.308179140E0,-2.657663345E0,6.386427879E-1
3.570213906E0,1.214436173E0,-2.573507309E0,6.450347900E-1
3.572734062E0,1.118562222E0,-2.495743275E0,6.514257789E-1
3.575254218E0,1.031211138E0,-2.416914225E0,6.631437540E-1
3.577774375E0,9.438601136E-1,-2.341281414E0,6.759267449E-1
3.580342031E0,8.511821032E-1,-2.261386395E0,6.897757649E-1
3.582862187E0,7.680920959E-1,-2.180426359E0,7.078847885E-1
3.585382291E0,6.860671043E-1,-2.093075275E0,7.313207984E-1
3.587902448E0,6.019111276E-1,-2.008920193E0,7.547567487E-1
3.590422604E0,5.230821371E-1,-1.923699260E0,7.771267891E-1
3.592942760E0,4.463831484E-1,-1.837413311E0,8.048237562E-1
3.595462916E0,3.750111461E-1,-1.760714293E0,8.282597661E-1
3.597983073E0,3.004431427E-1,-1.681885242E0,8.516947627E-1
3.600503177E0,2.312011272E-1,-1.600925326E0,8.761957884E-1
3.603023333E0,1.651551276E-1,-1.521030307E0,8.985667825E-1
3.605543489E0,1.001741290E-1,-1.445397258E0,9.188067913E-1
3.608063646E0,3.306213394E-2,-1.368698359E0,9.369157553E-1
3.610633385E0,-2.872186899E-2,-1.295195341E0,9.582207799E-1
3.613154323E0,-9.050687402E-2,-1.223823309E0,9.741997719E-1
3.615675312E0,-1.512268782E-1,-1.152451277E0,9.880487919E-1
3.618196250E0,-2.076848745E-1,-1.084274292E0,9.955047965E-1
3.620717239E0,-2.630788684E-1,-1.017163277E0,9.923097491E-1
3.623238177E0,-3.184728622E-1,-9.511162639E-1,9.741997719E-1
3.625759166E0,-3.706698418E-1,-8.935922384E-1,9.560907483E-1
3.628280104E0,-4.281938672E-1,-8.413952589E-1,9.486337900E-1
3.630801093E0,-4.899788499E-1,-7.934582233E-1,9.475687742E-1
3.633322031E0,-5.517638922E-1,-7.455212474E-1,9.443727732E-1
3.635843021E0,-6.146149039E-1,-7.061072588E-1,9.379807711E-1
3.638363958E0,-6.827908754E-1,-6.730842590E-1,9.294587970E-1
3.640922187E0,-7.520328760E-1,-6.389952302E-1,9.124147892E-1
3.643443125E0,-8.223398924E-1,-6.112982631E-1,8.868487477E-1
3.645964114E0,-8.915818930E-1,-5.772102475E-1,8.570217490E-1
3.648485052E0,-9.608238935E-1,-5.346002579E-1,8.208027482E-1
3.651006041E0,-1.030065775E0,-5.026422739E-1,7.835187912E-1
3.653526979E0,-1.101438880E0,-4.717492759E-1,7.409077883E-1
3.656047968E0,-1.174941778E0,-4.461832643E-1,6.961667538E-1
3.658568906E0,-1.246313810E0,-4.227472842E-1,6.524917483E-1
3.661089896E0,-1.315555811E0,-4.035732746E-1,6.024237871E-1
3.663610833E0,-1.383732796E0,-3.812022805E-1,5.566177964E-1
3.666131771E0,-1.454039812E0,-3.524402678E-1,5.118767619E-1
3.668652760E0,-1.520085812E0,-3.290052712E-1,4.777887762E-1
3.671214843E0,-1.589327812E0,-3.076992631E-1,4.522227645E-1
3.673735781E0,-1.657503843E0,-2.906552851E-1,4.309177697E-1
3.676256771E0,-1.722484827E0,-2.768072784E-1,4.181337655E-1
3.678777708E0,-1.788530827E0,-2.693502605E-1,4.106777608E-1
3.681298698E0,-1.848185778E0,-2.714812756E-1,4.053507745E-1
3.683819687E0,-1.905709863E0,-2.810682654E-1,4.021557570E-1
3.686340625E0,-1.956841826E0,-2.981122732E-1,3.989597857E-1
3.688861562E0,-1.999452829E0,-3.258092701E-1,3.946987689E-1
3.691382552E0,-2.030344963E0,-3.684192598E-1,3.861767650E-1
3.693903489E0,-2.040997982E0,-4.120952785E-1,3.861767650E-1
3.696424479E0,-2.030344963E0,-4.621622860E-1,3.904377818E-1
3.698945416E0,-2.003713846E0,-5.100992322E-1,3.893717825E-1
3.701503802E0,-1.960037827E0,-5.431222320E-1,3.829807639E-1
3.704024739E0,-1.893991828E0,-5.654922128E-1,3.659367859E-1
3.706545729E0,-1.808770776E0,-5.686882138E-1,3.414357603E-1
3.709066666E0,-1.692657828E0,-5.473832488E-1,3.126737773E-1
3.711587656E0,-1.554173827E0,-4.930552840E-1,2.785847783E-1
3.714108593E0,-1.390123844E0,-4.184862673E-1,2.487577796E-1
3.716629583E0,-1.212225795E0,-3.471142650E-1,2.157347649E-1
3.719150521E0,-1.037522793E0,-3.045042753E-1,1.699287742E-1
3.721671510E0,-8.606898785E-1,-2.842642665E-1,1.156007722E-1
3.724192448E0,-6.977049112E-1,-2.917202711E-1,4.955476895E-2
3.726713437E0,-5.475028753E-1,-3.194172680E-1,-3.673123196E-2
3.729234375E0,-4.058238566E-1,-3.801372647E-1,-1.315392256E-1
3.731795468E0,-2.747968435E-1,-4.674882591E-1,-2.242162228E-1
3.734316406E0,-1.522918642E-1,-5.825362206E-1,-3.126332164E-1
3.736837396E0,-3.511286899E-2,-7.188902497E-1,-3.872012198E-1
3.739358333E0,6.928113103E-2,-8.563082218E-1,-4.404642284E-1
3.741879323E0,1.576981246E-1,-9.809442163E-1,-4.745522141E-1
3.744400260E0,2.280051261E-1,-1.091731310E0,-4.734872282E-1
3.746921250E0,2.759421468E-1,-1.190800309E0,-4.532472193E-1
3.749442187E0,2.972471416E-1,-1.262172341E0,-4.095722139E-1
3.751963177E0,2.972471416E-1,-1.265368342E0,-3.509822190E-1
3.754484114E0,2.780721486E-1,-1.230215311E0,-2.774792314E-1
3.757005104E0,2.493101358E-1,-1.173756242E0,-1.965202242E-1
3.759526041E0,2.173521221E-1,-1.101318359E0,-9.745022655E-2
3.762087708E0,1.885901242E-1,-1.035272360E0,1.226976886E-2
3.764608646E0,1.704811305E-1,-9.873352647E-1,1.273177713E-1
3.767129635E0,1.587631255E-1,-9.681612253E-1,2.381057739E-1
3.769650573E0,1.545021236E-1,-9.852052331E-1,3.339787722E-1
3.772171562E0,1.587631255E-1,-1.041663289E0,4.149387777E-1
3.774692500E0,1.726111323E-1,-1.118362308E0,4.756587744E-1
3.777213489E0,1.907211244E-1,-1.201452255E0,5.140077472E-1
3.779734427E0,2.152221352E-1,-1.286673307E0,5.299867988E-1
3.782255416E0,2.439841330E-1,-1.387873292E0,5.299867988E-1
3.784776354E0,2.748761475E-1,-1.497595310E0,5.065507889E-1
3.787297343E0,3.036381304E-1,-1.595599294E0,4.628747702E-1
3.789818281E0,3.206831515E-1,-1.689342260E0,4.064167738E-1
3.792341198E0,3.270741403E-1,-1.773497343E0,3.350437582E-1
3.794862135E0,3.292051554E-1,-1.838478327E0,2.583447695E-1
3.797383073E0,3.217481375E-1,-1.878958344E0,1.720587760E-1
3.799904062E0,3.089651465E-1,-1.902394295E0,8.683877438E-2
3.802425000E0,2.887251377E-1,-1.903459311E0,5.878768861E-3
3.804945989E0,2.567671537E-1,-1.874697328E0,-7.508023083E-2
3.807466927E0,2.226791233E-1,-1.811846256E0,-1.421912313E-1
3.809987916E0,1.747421324E-1,-1.698929310E0,-1.965202242E-1
3.812508854E0,1.150871292E-1,-1.537009358E0,-2.359342277E-1
3.815029843E0,4.904113337E-2,-1.331414342E0,-2.423262298E-1
3.817550781E0,-2.446086891E-2,-1.088535309E0,-2.359342277E-1
3.820071771E0,-9.902887046E-2,-7.913272381E-1,-2.114332318E-1
3.822667187E0,-1.831838638E-1,-4.312702715E-1,-1.773452312E-1
3.825188125E0,-2.652098536E-1,-2.647126839E-2,-1.549742222E-1
3.827709114E0,-3.355168700E-1,4.156107306E-1,-1.432572305E-1
3.830230052E0,-3.834528625E-1,8.736727834E-1,-1.507132351E-1
3.832751041E0,-4.058238566E-1,1.315755725E0,-1.869322211E-1
3.835271979E0,-4.090198576E-1,1.724815726E0,-2.625662386E-1
3.837792968E0,-4.015628695E-1,2.077416658E0,-3.744182289E-1
3.840313906E0,-3.866488636E-1,2.354383707E0,-5.065102577E-1
3.842834896E0,-3.653438687E-1,2.542934656E0,-6.481902003E-1
3.845355833E0,-3.312558532E-1,2.634547710E0,-7.813472152E-1
3.847876823E0,-2.929058671E-1,2.633482695E0,-8.974612355E-1
3.850397760E0,-2.428388745E-1,2.514172792E0,-9.858772159E-1
3.852961250E0,-1.757278740E-1,2.268097639E0,-1.040205240E0
3.855482187E0,-9.583286941E-2,1.912301660E0,-1.049793243E0
3.858003177E0,-5.285868887E-3,1.469152689E0,-1.018900275E0
3.860524114E0,8.739113063E-2,9.801987410E-1,-9.517892003E-1
3.863045104E0,1.651551276E-1,4.955057204E-1,-8.399372101E-1
3.865566093E0,2.088301331E-1,6.514073163E-2,-6.908002496E-1
3.868087031E0,2.067001313E-1,-2.789372802E-1,-5.299462080E-1
3.870607968E0,1.417191327E-1,-5.122292638E-1,-3.701572418E-1
3.873128958E0,1.069213171E-2,-6.517782211E-1,-2.146292329E-1
3.875649896E0,-1.949018687E-1,-7.114332318E-1,-6.123223156E-2
3.878170885E0,-4.654778540E-1,-7.029112577E-1,9.109976888E-2
3.880691823E0,-7.744038701E-1,-6.464522481E-1,2.519537807E-1
3.883249062E0,-1.105699778E0,-5.644272566E-1,4.149387777E-1
3.885770000E0,-1.436995864E0,-4.632272720E-1,5.768577456E-1
3.888290989E0,-1.750181794E0,-3.417882621E-1,7.419737577E-1
3.890811927E0,-2.028214931E0,-1.926512718E-1,9.028277993E-1
3.893332916E0,-2.263636827E0,-6.231268402E-3,1.059420824E0
3.895853906E0,-2.451122999E0,2.334517241E-1,1.196839809E0
3.898374843E0,-2.591737032E0,5.327897668E-1,1.305495739E0
3.900895781E0,-2.691871881E0,8.885867596E-1,1.373672724E0
3.903416771E0,-2.757917881E0,1.279536724E0,1.398173809E0
3.905937708E0,-2.795202017E0,1.690726757E0,1.374737740E0
3.908458698E0,-2.809049845E0,2.099786758E0,1.303365827E0
3.910979635E0,-2.800528049E0,2.483280659E0,1.191512823E0
3.913506666E0,-2.777092934E0,2.827359676E0,1.054094791E0
3.916027604E0,-2.735546827E0,3.140545607E0,8.943057656E-1
3.918548541E0,-2.682283878E0,3.431361675E0,7.174727917E-1
3.921069531E0,-2.631151915E0,3.679567814E0,5.353127718E-1
3.923590468E0,-2.592803001E0,3.846813679E0,3.574147820E-1
3.926111458E0,-2.575757980E0,3.934164762E0,1.976257712E-1
3.928632396E0,-2.573627949E0,3.956534624E0,6.020676717E-2
3.931153385E0,-2.583214998E0,3.920316696E0,-6.336223334E-2
3.933674323E0,-2.597064018E0,3.841486692E0,-1.656272262E-1
3.936195312E0,-2.602390051E0,3.717916727E0,-2.508482337E-1
3.938716250E0,-2.597064018E0,3.549605608E0,-3.083722293E-1
3.941237239E0,-2.569366932E0,3.333357811E0,-3.371342421E-1
3.943795312E0,-2.521430016E0,3.068108797E0,-3.296772242E-1
3.946316250E0,-2.451122999E0,2.742138624E0,-2.977192402E-1
3.948837187E0,-2.354183912E0,2.361840725E0,-2.529782355E-1
3.951358177E0,-2.240201950E0,1.926149726E0,-1.943892241E-1
3.953879114E0,-2.119827032E0,1.437195659E0,-1.326042265E-1
3.956400104E0,-1.991995811E0,9.205437303E-1,-7.188422978E-2
3.958921041E0,-1.864164829E0,4.006977379E-1,-1.755623147E-2
3.961442031E0,-1.737398863E0,-1.021042690E-1,3.144476935E-2
3.963962968E0,-1.625546813E0,-5.601662397E-1,7.405477017E-2
3.966483958E0,-1.539259791E0,-9.287462234E-1,1.070787683E-1
3.969004896E0,-1.472148776E0,-1.186539292E0,1.454277784E-1
3.971525885E0,-1.425277829E0,-1.323957324E0,1.933647692E-1
3.974122343E0,-1.402906775E0,-1.359111309E0,2.487577796E-1
3.976643281E0,-1.406102777E0,-1.322892308E0,3.116077781E-1
3.979164271E0,-1.422081828E0,-1.222758293E0,3.829807639E-1
3.981685260E0,-1.451908827E0,-1.090665340E0,4.639407694E-1
3.984206198E0,-1.499845862E0,-9.287462234E-1,5.395737886E-1
3.986727135E0,-1.554173827E0,-7.465862632E-1,6.034897566E-1
3.989248125E0,-1.620219827E0,-5.516442657E-1,6.471647620E-1
3.991769062E0,-1.701179862E0,-3.449832797E-1,6.748617887E-1
3.994290052E0,-1.798118830E0,-1.404542774E-1,6.887107491E-1
3.996810989E0,-1.911035776E0,6.087973341E-2,6.940367818E-1
3.999331979E0,-2.029279947E0,2.579527199E-1,6.897757649E-1
4.001852916E0,-2.152849913E0,4.496997297E-1,6.801877618E-1
4.004413541E0,-2.287072897E0,6.361197829E-1,6.663397551E-1
4.006934479E0,-2.412773848E0,8.097567558E-1,6.556867957E-1
4.009455468E0,-2.527822018E0,9.791337848E-1,6.407737732E-1
4.011976406E0,-2.634347916E0,1.141052723E0,6.194687486E-1
4.014497396E0,-2.727025032E0,1.291254640E0,6.013587713E-1
4.017018333E0,-2.797333002E0,1.423346758E0,5.843147635E-1
4.019539323E0,-2.853790998E0,1.524546742E0,5.704667568E-1
4.022060260E0,-2.902792931E0,1.591657758E0,5.523567796E-1
4.024581250E0,-2.935816050E0,1.638529658E0,5.374437571E-1
4.027102187E0,-2.949664831E0,1.655573726E0,5.278557539E-1
4.029623177E0,-2.957121849E0,1.660899758E0,5.182687640E-1
4.032144114E0,-2.953925848E0,1.670486689E0,5.054857731E-1
4.034702500E0,-2.943272829E0,1.682204723E0,4.831147790E-1
4.037223489E0,-2.930490017E0,1.698183656E0,4.703317583E-1
4.039744427E0,-2.912380934E0,1.710966706E0,4.586137831E-1
4.042265364E0,-2.898531914E0,1.707771659E0,4.522227645E-1
4.044786354E0,-2.884683847E0,1.683270693E0,4.522227645E-1
4.047307291E0,-2.867640018E0,1.652377725E0,4.468957782E-1
4.049828281E0,-2.842072964E0,1.624680758E0,4.405047596E-1
4.052349271E0,-2.813310862E0,1.605506659E0,4.298517704E-1
4.054870208E0,-2.781353951E0,1.582070708E0,4.117427766E-1
4.057391146E0,-2.743003845E0,1.554373741E0,3.904377818E-1
4.059912135E0,-2.700393915E0,1.528807640E0,3.712627590E-1
4.062433073E0,-2.658849001E0,1.519220710E0,3.488927782E-1
4.064992448E0,-2.614107847E0,1.523481727E0,3.275867701E-1
4.067513385E0,-2.564040899E0,1.529872656E0,3.105427623E-1
4.070034375E0,-2.515038967E0,1.530937672E0,3.052167594E-1
4.072555312E0,-2.466037035E0,1.536264658E0,3.094777763E-1
4.075076302E0,-2.412773848E0,1.540525675E0,3.105427623E-1
4.077597239E0,-2.361640930E0,1.538394690E0,3.116077781E-1
4.080118229E0,-2.314769983E0,1.520285726E0,3.126737773E-1
4.082639166E0,-2.272158861E0,1.489392757E0,3.116077781E-1
4.085160156E0,-2.233809948E0,1.453173757E0,3.062817752E-1
4.087681093E0,-2.198655844E0,1.409498692E0,3.020207584E-1
4.090202083E0,-2.172024965E0,1.356235743E0,2.945637703E-1
4.092723021E0,-2.149653912E0,1.297645688E0,2.871067822E-1
4.095249010E0,-2.130480051E0,1.237991691E0,2.828457654E-1
4.097769948E0,-2.113435984E0,1.178336740E0,2.807157636E-1
4.100290885E0,-2.100651979E0,1.125073671E0,2.796507776E-1
4.102811875E0,-2.093195915E0,1.082463741E0,2.711287737E-1
4.105332812E0,-2.082542896E0,1.048375726E0,2.615407705E-1
4.107853802E0,-2.072955847E0,1.013221741E0,2.476927787E-1
4.110374739E0,-2.068694830E0,9.855247736E-1,2.338437736E-1
4.112895729E0,-2.059106827E0,9.695457816E-1,2.146697789E-1
4.115416666E0,-2.050585032E0,9.546327591E-1,1.912337691E-1
4.117937656E0,-2.046324015E0,9.397187829E-1,1.741897762E-1
4.120458593E0,-2.035671949E0,9.290667772E-1,1.550147682E-1
4.122979583E0,-2.023953915E0,9.248047471E-1,1.358407736E-1
4.125574166E0,-2.002648830E0,9.333277345E-1,1.187957749E-1
4.128095781E0,-1.978147864E0,9.450447559E-1,9.642577171E-2
4.130617396E0,-1.948319793E0,9.610237479E-1,7.512076944E-2
4.133139010E0,-1.919557810E0,9.855247736E-1,5.274976790E-2
4.135660625E0,-1.885469794E0,1.011091709E0,3.037976846E-2
4.138182239E0,-1.849250793E0,1.032396674E0,9.074768983E-3
4.140703854E0,-1.806640863E0,1.044114709E0,-1.009923127E-2
4.143225468E0,-1.768290877E0,1.043048739E0,-3.566523269E-2
4.145747083E0,-1.729941845E0,1.024939656E0,-5.270923302E-2
4.148268698E0,-1.692657828E0,1.002568722E0,-7.188422978E-2
4.150790312E0,-1.655373812E0,9.620897770E-1,-9.105923027E-2
4.153311927E0,-1.613828778E0,9.088267684E-1,-1.017112285E-1
4.155862968E0,-1.568021774E0,8.513027430E-1,-1.144952253E-1
4.158384583E0,-1.523281813E0,7.884517312E-1,-1.219512299E-1
4.160906198E0,-1.478540778E0,7.202757597E-1,-1.262122393E-1
4.163427812E0,-1.433799863E0,6.574247479E-1,-1.304732263E-1
4.165949427E0,-1.382666826E0,5.924437642E-1,-1.294082254E-1
4.168471041E0,-1.337925792E0,5.253327489E-1,-1.400612295E-1
4.170992656E0,-1.294250846E0,4.656777382E-1,-1.517792344E-1
4.173514271E0,-1.260161877E0,4.166757166E-1,-1.666922271E-1
4.176035885E0,-1.231399775E0,3.719357252E-1,-1.837362349E-1
4.178557500E0,-1.203703880E0,3.410427272E-1,-1.986502260E-1
4.181079114E0,-1.189854860E0,3.101497293E-1,-2.146292329E-1
4.183600729E0,-1.179202795E0,2.867147326E-1,-2.316732258E-1
4.186118437E0,-1.174941778E0,2.707357407E-1,-2.497832328E-1
4.188640052E0,-1.179202795E0,2.600827217E-1,-2.710882425E-1
4.191161666E0,-1.182397842E0,2.536917329E-1,-2.987852395E-1
4.193683281E0,-1.190919876E0,2.494307160E-1,-3.232862353E-1
4.196204896E0,-1.202637792E0,2.430387288E-1,-3.520482183E-1
4.198726510E0,-1.213290811E0,2.387777269E-1,-3.850712180E-1
4.201248125E0,-1.220747828E0,2.259947360E-1,-4.127672315E-1
4.203769739E0,-1.232465863E0,2.057547271E-1,-4.479212165E-1
4.206291354E0,-1.246313810E0,1.844497323E-1,-4.777482152E-1
4.208812968E0,-1.259096861E0,1.610137224E-1,-5.107712150E-1
4.211334583E0,-1.271879792E0,1.397087276E-1,-5.405992270E-1
4.213856198E0,-1.284662843E0,1.173377261E-1,-5.608382225E-1
4.216447760E0,-1.300641775E0,9.390272945E-2,-5.842742324E-1
4.218969375E0,-1.316620827E0,7.685872912E-2,-5.991882086E-1
4.221490989E0,-1.336860776E0,6.194473431E-2,-6.098402143E-1
4.224012604E0,-1.362426877E0,5.448773131E-2,-6.172972322E-1
4.226534218E0,-1.390123844E0,5.555273220E-2,-6.279502511E-1
4.229055833E0,-1.418885827E0,6.514073163E-2,-6.332762241E-1
4.231577448E0,-1.448712826E0,8.857572824E-2,-6.354072094E-1
4.234099062E0,-1.481735826E0,1.258597225E-1,-6.343412399E-1
4.236620677E0,-1.516889811E0,1.674057245E-1,-6.258192062E-1
4.239142291E0,-1.550977826E0,2.132117301E-1,-6.077102423E-1
4.241663906E0,-1.581870794E0,2.675397396E-1,-5.853392482E-1
4.244185521E0,-1.609567881E0,3.208027184E-1,-5.512512326E-1
4.246726302E0,-1.621284842E0,3.719357252E-1,-5.150322318E-1
4.249247916E0,-1.620219827E0,4.220027328E-1,-4.724222422E-1
4.251769531E0,-1.603175879E0,4.699387252E-1,-4.308772385E-1
4.254291146E0,-1.569087863E0,5.136147738E-1,-3.946582377E-1
4.256812760E0,-1.521150827E0,5.530297756E-1,-3.690922260E-1
4.259334375E0,-1.455104828E0,5.860527754E-1,-3.616352379E-1
4.261855989E0,-1.383732796E0,6.094887853E-1,-3.680262268E-1
4.264377604E0,-1.301706791E0,6.222717762E-1,-3.935932219E-1
4.266899218E0,-1.217551827E0,6.244017482E-1,-4.330072403E-1
4.269420833E0,-1.132330775E0,6.169447303E-1,-4.830752313E-1
4.271942448E0,-1.053501844E0,6.116187572E-1,-5.416642427E-1
4.274464062E0,-9.821288586E-1,6.169447303E-1,-6.002532244E-1
4.276993177E0,-9.118219018E-1,6.244017482E-1,-6.503202319E-1
4.279514791E0,-8.500368595E-1,6.414457560E-1,-6.929312348E-1
4.282036406E0,-7.999699116E-1,6.574247479E-1,-7.248892188E-1
4.284558021E0,-7.530989051E-1,6.808607578E-1,-7.387372255E-1
4.287079635E0,-7.147488594E-1,6.947087646E-1,-7.387372255E-1
4.289601250E0,-6.870518923E-1,7.000357509E-1,-7.291502357E-1
4.292122864E0,-6.625508666E-1,7.064267397E-1,-7.089102268E-1
4.294644479E0,-6.412459016E-1,7.053617835E-1,-6.780171990E-1
4.297166093E0,-6.263328791E-1,7.074917555E-1,-6.396682262E-1
4.299687656E0,-6.060928702E-1,7.138837576E-1,-6.087752581E-1
4.302209323E0,-5.890488625E-1,7.234707475E-1,-5.768172145E-1
4.304730937E0,-5.688089132E-1,7.437107563E-1,-5.501862168E-1
4.307318906E0,-5.464378595E-1,7.692777514E-1,-5.342072248E-1
4.309840521E0,-5.230019093E-1,7.959087491E-1,-5.278152227E-1
4.312362135E0,-4.921098650E-1,8.225407600E-1,-5.299462080E-1
4.314883750E0,-4.580218494E-1,8.502367735E-1,-5.427291989E-1
4.317405364E0,-4.154108465E-1,8.758037686E-1,-5.576432347E-1
4.319926979E0,-3.696048558E-1,8.971087337E-1,-5.810782313E-1
4.322448593E0,-3.184728622E-1,9.184137583E-1,-6.002532244E-1
4.324970208E0,-2.598828673E-1,9.333277345E-1,-6.172972322E-1
4.327491823E0,-1.938368678E-1,9.439797401E-1,-6.311462522E-1
4.330013437E0,-1.245948747E-1,9.535677433E-1,-6.417982578E-1
4.332535052E0,-5.535286665E-2,9.556977749E-1,-6.492552161E-1
4.335056666E0,1.814913005E-2,9.471757412E-1,-6.439292431E-1
4.337608854E0,9.484712780E-2,9.354577661E-1,-6.300802231E-1
4.340130468E0,1.683501303E-1,9.141527414E-1,-6.130362153E-1
4.342652083E0,2.471801341E-1,8.821947575E-1,-5.885352492E-1
4.345173698E0,3.238781393E-1,8.481067419E-1,-5.608382225E-1
4.347695312E0,3.963161409E-1,8.097567558E-1,-5.310112238E-1
4.350216927E0,4.655581415E-1,7.639507651E-1,-5.022492409E-1
4.352738541E0,5.348001122E-1,7.287977338E-1,-4.724222422E-1
4.355260156E0,6.072371006E-1,7.053617835E-1,-4.330072403E-1
4.357781771E0,6.764791012E-1,6.957747340E-1,-4.031802416E-1
4.360303385E0,7.478520870E-1,6.989697814E-1,-3.786792159E-1
4.362825000E0,8.277460933E-1,7.202757597E-1,-3.520482183E-1
4.365346614E0,9.065760970E-1,7.596897483E-1,-3.296772242E-1
4.367848646E0,9.917961359E-1,8.140177727E-1,-3.030462265E-1
4.370370260E0,1.081278205E0,8.800647855E-1,-2.764142156E-1
4.372891875E0,1.180347204E0,9.556977749E-1,-2.423262298E-1
4.375413489E0,1.280482173E0,1.035592675E0,-2.039762288E-1
4.377935104E0,1.391269207E0,1.118682742E0,-1.677582264E-1
4.380456718E0,1.507382154E0,1.202837706E0,-1.315392256E-1
4.382978333E0,1.632018209E0,1.286993742E0,-9.318923205E-2
4.385499948E0,1.763045192E0,1.366887689E0,-6.123223156E-2
4.388021562E0,1.903659225E0,1.443586707E0,-2.820823155E-2
4.390543177E0,2.047469139E0,1.509632707E0,3.747768700E-3
4.393064791E0,2.195539951E0,1.559699655E0,3.144476935E-2
4.395586406E0,2.348937988E0,1.590592742E0,6.233776733E-2
4.398189062E0,2.501270056E0,1.601245642E0,9.109976888E-2
4.400710677E0,2.651471138E0,1.585266709E0,1.177307740E-1
4.403232291E0,2.791020155E0,1.547982693E0,1.507537663E-1
4.405753906E0,2.923113108E0,1.498980641E0,1.827117652E-1
4.408275521E0,3.046683073E0,1.444651723E0,2.136047781E-1
4.410797135E0,3.161731005E0,1.388193727E0,2.413007766E-1
4.413318750E0,3.267192125E0,1.328538656E0,2.679327726E-1
4.415840364E0,3.368391037E0,1.269949675E0,2.945637703E-1
4.418361979E0,3.469591141E0,1.211359739E0,3.222607672E-1
4.420883593E0,3.564399004E0,1.153835654E0,3.456967771E-1
4.423405208E0,3.661338091E0,1.099507689E0,3.616757691E-1
4.425926823E0,3.751884937E0,1.044114709E0,3.765887618E-1
4.428448021E0,3.830713987E0,9.908517599E-1,3.904377818E-1
4.430969635E0,3.904217005E0,9.397187829E-1,4.074817598E-1
4.433491250E0,3.964936972E0,9.003047347E-1,4.234607816E-1
4.436012864E0,4.013938904E0,8.758037686E-1,4.511577785E-1
4.438534427E0,4.042701244E0,8.768687844E-1,4.777887762E-1
4.441056093E0,4.048027039E0,9.024347663E-1,5.129427910E-1
4.443577708E0,4.023526192E0,9.407837391E-1,5.608787537E-1
4.446099271E0,3.971328974E0,9.855247736E-1,6.120117903E-1
4.448620937E0,3.889304161E0,1.024939656E0,6.652747989E-1
4.451142552E0,3.783843040E0,1.048375726E0,7.206677794E-1
4.453664166E0,3.659207106E0,1.047309756E0,7.718007565E-1
4.456185781E0,3.522854090E0,1.019613743E0,8.176067472E-1
4.458738333E0,3.380109072E0,9.780677557E-1,8.495647907E-1
4.461259948E0,3.225646973E0,9.343927503E-1,8.687387705E-1
4.463781510E0,3.071184158E0,9.045657516E-1,8.847177625E-1
4.466303177E0,2.923113108E0,8.747377396E-1,8.868487477E-1
4.468824739E0,2.784629107E0,8.449107409E-1,8.868487477E-1
4.471346406E0,2.658928156E0,8.172137737E-1,8.868487477E-1
4.473868021E0,2.548141003E0,7.884517312E-1,8.825877905E-1
4.476389635E0,2.455464125E0,7.522327304E-1,8.729997873E-1
4.478911250E0,2.379830122E0,7.128187418E-1,8.623477817E-1
4.481432864E0,2.318045139E0,6.702077389E-1,8.548907638E-1
4.483954479E0,2.275434971E0,6.254667640E-1,8.495647907E-1
4.486476093E0,2.249868155E0,5.785957575E-1,8.484997749E-1
4.489028958E0,2.240281105E0,5.349197388E-1,8.495647907E-1
4.491550573E0,2.248803139E0,4.997667372E-1,8.570217490E-1
4.494072187E0,2.282891035E0,4.603517354E-1,8.612827659E-1
4.496593802E0,2.334023952E0,4.337207377E-1,8.602167964E-1
4.499115416E0,2.402200937E0,4.209377170E-1,8.612827659E-1
4.501636979E0,2.488487005E0,4.177417159E-1,8.506297469E-1
4.504158646E0,2.583295107E0,4.188067317E-1,8.399767876E-1
4.506680260E0,2.685559988E0,4.134807289E-1,8.271937966E-1
4.509201875E0,2.793151140E0,4.006977379E-1,8.090847731E-1
4.511723489E0,2.910330057E0,3.687397242E-1,7.835187912E-1
4.514245104E0,3.029639006E0,3.239987195E-1,7.547567487E-1
4.516766718E0,3.143622160E0,2.568867207E-1,7.227987647E-1
4.519318021E0,3.254409075E0,1.769927293E-1,6.801877618E-1
4.521839635E0,3.348150969E0,9.070672840E-2,6.386427879E-1
4.524361250E0,3.424849987E0,-7.296268363E-3,5.939017534E-1
4.526882864E0,3.472787142E0,-1.148872748E-1,5.470307469E-1
4.529404479E0,3.488765955E0,-2.224792689E-1,5.086817741E-1
4.531926093E0,3.477048159E0,-3.290052712E-1,4.873757660E-1
4.534447708E0,3.432307005E0,-4.312702715E-1,4.809847772E-1
4.536969323E0,3.358803988E0,-5.260782242E-1,4.863107800E-1
4.539490937E0,3.266126156E0,-6.187552214E-1,5.033547878E-1
4.542012552E0,3.163861036E0,-6.997152567E-1,5.385087729E-1
4.544534166E0,3.054140091E0,-7.615002394E-1,5.875107646E-1
4.547055781E0,2.943352938E0,-7.945232391E-1,6.439697742E-1
4.549643854E0,2.836827040E0,-7.966542244E-1,7.036237717E-1
4.552165468E0,2.744148970E0,-7.678922415E-1,7.664737701E-1
4.554687083E0,2.663189173E0,-7.167592645E-1,8.250637650E-1
4.557208698E0,2.589686155E0,-6.528442502E-1,8.847177625E-1
4.559730312E0,2.523640156E0,-5.953202248E-1,9.528947473E-1
4.562251927E0,2.474637985E0,-5.377962589E-1,1.028527737E0
4.564773541E0,2.437354088E0,-4.802712798E-1,1.106291771E0
4.567295156E0,2.406461954E0,-4.174212813E-1,1.179794788E0
4.569816771E0,2.391548157E0,-3.588322699E-1,1.238384724E0
4.572338385E0,2.385156155E0,-3.076992631E-1,1.285255790E0
4.574860000E0,2.381961107E0,-2.736112773E-1,1.320409775E0
4.577381614E0,2.379830122E0,-2.523062527E-1,1.339583755E0
4.579935885E0,2.376634121E0,-2.640242577E-1,1.343844771E0
4.582457500E0,2.374504089E0,-3.226132691E-1,1.337453723E0
4.584979114E0,2.374504089E0,-4.216822684E-1,1.320409775E0
4.587500729E0,2.383026123E0,-5.516442657E-1,1.296973825E0
4.590022343E0,2.405395985E0,-7.252812386E-1,1.266080737E0
4.592543958E0,2.438419104E0,-9.362032413E-1,1.227731824E0
4.595065573E0,2.487421036E0,-1.171625257E0,1.177664757E0
4.597587187E0,2.528965950E0,-1.414504290E0,1.111618757E0
4.600108802E0,2.573707104E0,-1.619034290E0,1.044506788E0
4.602630416E0,2.623775005E0,-1.784150243E0,9.752647877E-1
4.605152031E0,2.678102970E0,-1.952461243E0,9.188067913E-1
4.607673646E0,2.737756968E0,-2.129294395E0,8.687387705E-1
4.610226666E0,2.802737951E0,-2.305062294E0,8.229327798E-1
4.612748281E0,2.875175953E0,-2.458459377E0,7.845837474E-1
4.615269896E0,2.956135988E0,-2.586290359E0,7.419737577E-1
4.617791510E0,3.040291071E0,-2.697078228E0,7.057547569E-1
4.620313125E0,3.123382092E0,-2.791886330E0,6.716657877E-1
4.622834739E0,3.206472158E0,-2.876041412E0,6.322517991E-1
4.625356354E0,3.285300970E0,-2.934631348E0,5.960327983E-1
4.627877968E0,3.363065004E0,-2.967654228E0,5.672707558E-1
4.630399583E0,3.430176020E0,-2.979371309E0,5.342477560E-1
4.632921198E0,3.484504938E0,-2.970849276E0,5.033547878E-1
4.635442812E0,3.527115107E0,-2.948479414E0,4.724627733E-1
4.637964427E0,3.555876970E0,-2.933565378E0,4.405047596E-1
4.640514166E0,3.570791006E0,-2.932500362E0,4.160037637E-1
4.643036302E0,3.570791006E0,-2.949544191E0,3.957637846E-1
4.645558437E0,3.555876970E0,-2.983632326E0,3.744587600E-1
4.648080573E0,3.533507109E0,-3.034765244E0,3.520877659E-1
4.650602708E0,3.490895987E0,-3.096550226E0,3.403697610E-1
4.653124843E0,3.434437037E0,-3.164727211E0,3.286527693E-1
4.655646979E0,3.361999989E0,-3.241425276E0,3.094777763E-1
4.658169114E0,3.261865139E0,-3.325581312E0,2.956297696E-1
4.660691250E0,3.138294935E0,-3.383105278E0,2.903027833E-1
4.663213333E0,3.001942158E0,-3.411867380E0,2.860417664E-1
4.665735468E0,2.865589142E0,-3.400149345E0,2.860417664E-1
4.668257604E0,2.722844124E0,-3.354343414E0,2.871067822E-1
4.670773073E0,2.579034090E0,-3.286166191E0,2.924337685E-1
4.673295208E0,2.433093071E0,-3.211598396E0,3.073467612E-1
4.675817343E0,2.297805071E0,-3.125312328E0,3.233257830E-1
4.678339479E0,2.163582087E0,-3.043287277E0,3.393047750E-1
4.680861614E0,2.032555103E0,-2.966588259E0,3.574147820E-1
4.683383750E0,1.911116123E0,-2.898412228E0,3.776547611E-1
4.685905885E0,1.792872190E0,-2.836627245E0,3.978947699E-1
4.688428021E0,1.676758170E0,-2.780168295E0,4.160037637E-1
4.690950156E0,1.565971136E0,-2.730101347E0,4.330477715E-1
4.693472291E0,1.460511208E0,-2.682164192E0,4.511577785E-1
4.695994427E0,1.355050206E0,-2.627836227E0,4.639407694E-1
4.698516562E0,1.250654221E0,-2.578834295E0,4.820497632E-1
4.701098489E0,1.151585221E0,-2.524505377E0,4.969637692E-1
4.703620573E0,1.055712223E0,-2.471242189E0,5.086817741E-1
4.706142708E0,9.577081203E-1,-2.413718224E0,5.214647651E-1
4.708664896E0,8.607690930E-1,-2.351933241E0,5.374437571E-1
4.711187031E0,7.680920959E-1,-2.292279243E0,5.512917638E-1
4.713709166E0,6.764791012E-1,-2.235820293E0,5.683357716E-1
4.716231302E0,5.880631208E-1,-2.184687376E0,5.800537467E-1
4.718753437E0,4.985811412E-1,-2.135686398E0,5.789887905E-1
4.721275573E0,4.176211357E-1,-2.089879274E0,5.811187625E-1
4.723797656E0,3.377271295E-1,-2.056856394E0,6.056197882E-1
4.726319791E0,2.588971555E-1,-2.023833275E0,6.429037452E-1
4.728841927E0,1.896561235E-1,-1.970570326E0,6.823187470E-1
4.731389375E0,1.150871292E-1,-1.908785343E0,7.217337489E-1
4.733911510E0,4.584513232E-2,-1.854457259E0,7.611477971E-1
4.736433646E0,-2.552586980E-2,-1.791607261E0,7.931057811E-1
4.738955781E0,-1.032898724E-1,-1.728756309E0,8.239987493E-1
4.741477916E0,-1.789228767E-1,-1.666971326E0,8.484997749E-1
4.744000052E0,-2.502958477E-1,-1.600925326E0,8.687387705E-1
4.746522187E0,-3.227338493E-1,-1.528487325E0,8.847177625E-1
4.749044323E0,-3.973018527E-1,-1.459245324E0,8.953707814E-1
4.751566458E0,-4.729348421E-1,-1.395330310E0,8.996317983E-1
4.754088541E0,-5.485689044E-1,-1.329284310E0,9.028277993E-1
4.756610677E0,-6.252669096E-1,-1.264303327E0,9.124147892E-1
4.759132812E0,-7.083578706E-1,-1.201452255E0,9.198717475E-1
4.761678437E0,-7.903828621E-1,-1.137537360E0,9.220017791E-1
4.764200573E0,-8.734728694E-1,-1.070426345E0,9.315897822E-1
4.766722708E0,-9.640198946E-1,-1.003314257E0,9.390468001E-1
4.769244843E0,-1.052436829E0,-9.340722561E-1,9.379807711E-1
4.771766979E0,-1.138722777E0,-8.669612408E-1,9.369157553E-1
4.774289114E0,-1.222877860E0,-7.913272381E-1,9.262627959E-1
4.776811250E0,-1.307033777E0,-7.093022466E-1,9.113497734E-1
4.779333385E0,-1.390123844E0,-6.464522481E-1,8.932397962E-1
4.781855468E0,-1.471083879E0,-5.899932384E-1,8.729997873E-1
4.784377604E0,-1.554173827E0,-5.388612151E-1,8.516947627E-1
4.786899739E0,-1.633002877E0,-4.866632819E-1,8.314547539E-1
4.789421875E0,-1.708636880E0,-4.355312586E-1,8.112147450E-1
4.791938698E0,-1.782139778E0,-3.918552697E-1,7.909747958E-1
4.794460833E0,-1.853511810E0,-3.471142650E-1,7.718007565E-1
4.796982968E0,-1.918492794E0,-3.045042753E-1,7.579517961E-1
4.799505104E0,-1.983473778E0,-2.597632706E-1,7.419737577E-1
4.802027239E0,-2.046324015E0,-2.182182670E-1,7.313207984E-1
4.804549375E0,-2.101717949E0,-1.734772772E-1,7.206677794E-1
4.807071510E0,-2.149653912E0,-1.276702732E-1,7.089497447E-1
4.809593646E0,-2.186939001E0,-7.973427325E-2,6.940367818E-1
4.812115781E0,-2.213569880E0,-3.286226839E-2,6.727317572E-1
4.814637916E0,-2.209308863E0,1.187773142E-2,6.492957473E-1
4.817160052E0,-2.162437916E0,5.661873147E-2,6.258597970E-1
4.819682187E0,-2.080412865E0,1.120117307E-1,6.002937555E-1
4.822260208E0,-1.957907796E0,1.748617291E-1,5.736617446E-1
4.824782343E0,-1.799183846E0,2.600827217E-1,5.342477560E-1
4.827304479E0,-1.611697793E0,3.559567332E-1,4.873757660E-1
4.829826614E0,-1.414624810E0,4.369157255E-1,4.266567826E-1
4.832348750E0,-1.216486812E0,4.805917144E-1,3.584797680E-1
4.834870885E0,-1.031130791E0,4.891137183E-1,2.721937597E-1
4.837393021E0,-8.766688704E-1,4.528947175E-1,1.688637733E-1
4.839915156E0,-7.499029040E-1,3.708697259E-1,5.274976790E-2
4.842437291E0,-6.540288925E-1,2.483647168E-1,-7.401522994E-2
4.844959375E0,-5.741348863E-1,1.045547277E-1,-2.082372308E-1
4.847481510E0,-5.006318688E-1,-4.138426855E-2,-3.424602151E-1
4.850003646E0,-4.249988496E-1,-1.926512718E-1,-4.692262411E-1
4.852553906E0,-3.397778571E-1,-3.428532779E-1,-5.789481997E-1
4.855076041E0,-2.449698746E-1,-4.909242690E-1,-6.599082351E-1
4.857598177E0,-1.490958780E-1,-6.368652582E-1,-7.184972167E-1
4.860120312E0,-6.174486876E-2,-7.721532583E-1,-7.504552007E-1
4.862642448E0,4.300130997E-3,-8.850702643E-1,-7.515202165E-1
4.865164583E0,5.223713070E-2,-9.649652243E-1,-7.270192504E-1
4.867686718E0,7.886812836E-2,-1.009706259E0,-6.748212576E-1
4.870208854E0,8.952113241E-2,-1.020358324E0,-5.981232524E-1
4.872730989E0,8.952113241E-2,-9.947922230E-1,-5.086412430E-1
4.875253073E0,8.099912852E-2,-9.415292144E-1,-4.170282185E-1
4.877775208E0,7.141213119E-2,-8.712222576E-1,-3.211552203E-1
4.880297343E0,6.715112925E-2,-8.030452132E-1,-2.231512219E-1
4.882843073E0,7.460712641E-2,-7.476522326E-1,-1.187562272E-1
4.885365208E0,9.058612585E-2,-7.178242207E-1,-1.009923127E-2
4.887887343E0,1.246751323E-1,-7.103682160E-1,9.536077082E-2
4.890409479E0,1.651551276E-1,-7.263472676E-1,1.944297701E-1
4.892931614E0,2.194831222E-1,-7.615002394E-1,2.785847783E-1
4.895453750E0,2.727461457E-1,-8.083722591E-1,3.478267789E-1
4.897975885E0,3.270741403E-1,-8.552432656E-1,4.010897577E-1
4.900498021E0,3.760761321E-1,-8.946582675E-1,4.341127574E-1
4.903020156E0,4.122951329E-1,-9.330072403E-1,4.490267634E-1
4.905542239E0,4.389261305E-1,-9.734872580E-1,4.351787865E-1
4.908064375E0,4.495791495E-1,-1.016097307E0,4.010897577E-1
4.910586510E0,4.463831484E-1,-1.062969327E0,3.435657620E-1
4.913135521E0,4.378611445E-1,-1.111971259E0,2.711287737E-1
4.915657656E0,4.090991318E-1,-1.157777309E0,1.880377680E-1
4.918179791E0,3.664891422E-1,-1.190800309E0,9.216476977E-2
4.920701927E0,3.217481375E-1,-1.206779242E0,1.617768663E-3
4.923224062E0,2.706151307E-1,-1.218497276E0,-7.827623188E-2
4.925746146E0,2.216131240E-1,-1.213170290E0,-1.549742222E-1
4.928268333E0,1.832641214E-1,-1.193996310E0,-2.199552357E-1
4.930790468E0,1.449151337E-1,-1.153516293E0,-2.689572275E-1
4.933312604E0,1.161531284E-1,-1.078948259E0,-3.030462265E-1
4.935834687E0,8.313012868E-2,-9.649652243E-1,-3.126332164E-1
4.938356823E0,4.051913321E-2,-7.987842560E-1,-3.019802272E-1
4.940878958E0,-1.487286855E-2,-5.910592675E-1,-2.785452306E-1
4.943424375E0,-8.731087297E-2,-3.375272751E-1,-2.465872318E-1
4.945946458E0,-1.778578758E-1,-3.818926588E-2,-2.146292329E-1
4.948468646E0,-2.694708705E-1,3.069547415E-1,-1.826712340E-1
4.950990781E0,-3.536258638E-1,7.021657825E-1,-1.592352241E-1
4.953512916E0,-4.100848436E-1,1.141052723E0,-1.485832334E-1
4.956035052E0,-4.345858693E-1,1.604440689E0,-1.517792344E-1
4.958557187E0,-4.228678644E-1,2.047589779E0,-1.762802303E-1
4.961079323E0,-3.887798488E-1,2.418299675E0,-2.178252339E-1
4.963601458E0,-3.429728448E-1,2.677157640E0,-2.774792314E-1
4.966123541E0,-2.939718664E-1,2.798597813E0,-3.392642140E-1
4.968645677E0,-2.481648773E-1,2.774096727E0,-3.935932219E-1
4.971167812E0,-2.044898719E-1,2.610046625E0,-4.255502224E-1
4.973679948E0,-1.522918642E-1,2.317099810E0,-4.298122227E-1
4.976202083E0,-8.624587208E-2,1.922953725E0,-3.978542387E-1
4.978724218E0,-6.350868847E-3,1.473413706E0,-3.381992280E-1
4.981246354E0,6.928113103E-2,1.022808671E0,-2.444562316E-1
4.983768489E0,1.321311295E-1,6.339897513E-1,-1.379302293E-1
4.986290625E0,1.694161296E-1,3.527607322E-1,-2.607823163E-2
4.988812760E0,1.694161296E-1,1.972327232E-1,9.216476977E-2
4.991334896E0,1.246751323E-1,1.524917334E-1,2.029517740E-1
4.993857031E0,2.454013005E-2,1.844497323E-1,3.105427623E-1
4.996379166E0,-1.277908683E-1,2.515607178E-1,4.245257676E-1
4.998901302E0,-3.259288669E-1,3.144117296E-1,5.406387448E-1
5.001423437E0,-5.602868795E-1,3.421077430E-1,6.524917483E-1
5.003970104E0,-8.084918857E-1,3.271947205E-1,7.686047554E-1
5.006492239E0,-1.055631876E0,2.920407355E-1,8.719347715E-1
5.009014375E0,-1.288923860E0,2.441037297E-1,9.560907483E-1
5.011536510E0,-1.491323829E0,1.993627250E-1,1.012549758E0
5.014058646E0,-1.659634829E0,1.737967283E-1,1.045572758E0
5.016580781E0,-1.793857813E0,1.993627250E-1,1.055159807E0
5.019102916E0,-1.895056844E0,2.813877165E-1,1.040245771E0
5.021625052E0,-1.968559861E0,4.198717177E-1,1.002961755E0
5.024147187E0,-2.027149916E0,6.116187572E-1,9.486337900E-1
5.026669323E0,-2.076151848E0,8.395847678E-1,8.857837915E-1
5.029191458E0,-2.114500999E0,1.095246673E0,8.058887720E-1
5.031713593E0,-2.151784897E0,1.350908756E0,7.110807896E-1
5.034264843E0,-2.188004017E0,1.598049641E0,6.034897566E-1
5.036786979E0,-2.211439848E0,1.819623709E0,4.863107800E-1
5.039309114E0,-2.234874964E0,2.019892693E0,3.691327572E-1
5.041831250E0,-2.258311033E0,2.196725607E0,2.519537807E-1
5.044353385E0,-2.292398930E0,2.344796658E0,1.379707754E-1
5.046875521E0,-2.335010052E0,2.469431639E0,3.677076846E-2
5.049397656E0,-2.382946014E0,2.564240694E0,-5.057923123E-2
5.051919791E0,-2.438339949E0,2.617503643E0,-1.272782236E-1
5.054441927E0,-2.501189947E0,2.627090693E0,-1.922592223E-1
5.056964062E0,-2.555518866E0,2.595132589E0,-2.401952296E-1
5.059486198E0,-2.601325035E0,2.531217813E0,-2.732182145E-1
5.062008333E0,-2.626890898E0,2.433213711E0,-2.923932374E-1
5.064556093E0,-2.629020929E0,2.302186728E0,-2.977192402E-1
5.067078229E0,-2.598129034E0,2.141331673E0,-2.902622223E-1
5.069600364E0,-2.545930862E0,1.951715708E0,-2.796102166E-1
5.072122500E0,-2.464970827E0,1.733337641E0,-2.657612264E-1
5.074644635E0,-2.356314898E0,1.483001709E0,-2.433912307E-1
5.077166771E0,-2.233809948E0,1.203903675E0,-2.220862210E-1
5.079688906E0,-2.110239983E0,9.088267684E-1,-2.039762288E-1
5.082211041E0,-1.982408881E0,6.137497425E-1,-1.901282221E-1
5.084733177E0,-1.864164829E0,3.229337335E-1,-1.762802303E-1
5.087255312E0,-1.766160846E0,5.129173398E-2,-1.517792344E-1
5.089777448E0,-1.694787860E0,-1.894552708E-1,-1.155602261E-1
5.092299583E0,-1.657503843E0,-3.833332658E-1,-7.188422978E-2
5.094845781E0,-1.640459776E0,-5.143602490E-1,-1.968623139E-2
5.097367916E0,-1.648981810E0,-5.654922128E-1,3.250976652E-2
5.099890052E0,-1.680939794E0,-5.559052229E-1,9.003376961E-2
5.102412187E0,-1.731006861E0,-5.079682469E-1,1.507537663E-1
5.104934323E0,-1.798118830E0,-4.163562655E-1,2.093437761E-1
5.107456458E0,-1.876947880E0,-2.853292823E-1,2.636717856E-1
5.109978593E0,-1.967494845E0,-1.212792695E-1,3.084127605E-1
5.112500729E0,-2.069759846E0,6.514073163E-2,3.510227799E-1
5.115022864E0,-2.180546999E0,2.675397396E-1,3.925677836E-1
5.117545000E0,-2.301986933E0,4.784617424E-1,4.319827855E-1
5.120067135E0,-2.425556898E0,6.893827319E-1,4.607447684E-1
5.122589271E0,-2.551256895E0,8.949777484E-1,4.895067811E-1
5.125132812E0,-2.670567036E0,1.084593654E0,5.172037482E-1
5.127654948E0,-2.783483982E0,1.253970742E0,5.363777876E-1
5.130177083E0,-2.882552862E0,1.402041674E0,5.491607785E-1
5.132699218E0,-2.965643883E0,1.533068657E0,5.523567796E-1
5.135221354E0,-3.028493881E0,1.641724706E0,5.512917638E-1
5.137743489E0,-3.073235035E0,1.725880742E0,5.459657907E-1
