"Time (s)","Acceleration x (m/s^2)","Acceleration y (m/s^2)","Acceleration z (m/s^2)"
0.000000000E0,-3.998316824E-1,-1.286883450E1,1.122880578E0
1.983642000E-3,-1.795651317E-1,-1.304600525E1,1.434126854E0
4.028320000E-3,7.182604820E-2,-1.322317600E1,1.640028119E0
6.011963000E-3,4.022258818E-1,-1.336443424E1,1.790862918E0
8.361816000E-3,7.709329724E-1,-1.348414421E1,1.934514999E0
9.979248000E-3,1.185129881E0,-1.356554699E1,2.023100376E0
1.199340800E-2,1.604115129E0,-1.358230591E1,2.066195965E0
1.397705000E-2,1.972822189E0,-1.346020222E1,2.097320795E0
1.596069300E-2,2.272097349E0,-1.322556973E1,2.102109194E0
1.794433600E-2,2.487575531E0,-1.294544888E1,2.082955360E0
1.995849600E-2,2.573766708E0,-1.269884586E1,2.054224968E0
2.194213800E-2,2.636016130E0,-1.242830086E1,2.042253971E0
2.395629800E-2,2.834734917E0,-1.208114147E1,2.080561161E0
2.597045900E-2,2.978386879E0,-1.171243477E1,2.181117773E0
2.795410100E-2,3.059789658E0,-1.133175659E1,2.315192938E0
2.993774400E-2,3.059789658E0,-1.097741508E1,2.363077164E0
3.195190400E-2,2.959233284E0,-1.061828423E1,2.360682964E0
3.396606400E-2,2.748543501E0,-1.027591324E1,2.401384354E0
3.594970700E-2,2.499546528E0,-9.923966408E0,2.501940727E0
3.793334900E-2,2.535459518E0,-9.516951561E0,2.616862535E0
3.991699200E-2,2.521094322E0,-9.196128845E0,2.650381327E0
4.193115200E-2,2.336740971E0,-8.916007042E0,2.604891539E0
4.391479500E-2,2.099714994E0,-8.640673637E0,2.619256735E0
4.592895500E-2,1.814804912E0,-8.389283180E0,2.674323320E0
4.791259700E-2,1.544260144E0,-8.207323074E0,2.705447912E0
4.989624000E-2,1.132457376E0,-8.128314972E0,2.683900118E0
5.191040000E-2,9.528923035E-1,-7.967903137E0,2.722207308E0
5.389404300E-2,1.060631394E0,-7.862558365E0,2.858676910E0
5.590820300E-2,1.072602391E0,-7.857769966E0,3.009511471E0
5.789184500E-2,8.475474119E-1,-7.910442352E0,3.145981073E0
5.987548800E-2,5.793967843E-1,-8.020575523E0,3.256114244E0
6.185913000E-2,3.208230138E-1,-8.173804283E0,3.318363667E0
6.384277300E-2,4.548983276E-2,-8.303091049E0,3.320757866E0
6.585693300E-2,-2.202665508E-1,-8.398859978E0,3.320757866E0
6.784057600E-2,-4.118026793E-1,-8.461109161E0,3.318363667E0
6.982421800E-2,-5.626373887E-1,-8.492233276E0,3.335123062E0
7.183837900E-2,-6.272808313E-1,-8.506598473E0,3.354276657E0
7.382202100E-2,-7.398083210E-1,-8.532935143E0,3.392583847E0
7.583618100E-2,-8.379706144E-1,-8.564059258E0,3.426102638E0
7.785034100E-2,-9.050082564E-1,-8.597578049E0,3.459621429E0
7.983398400E-2,-8.690952063E-1,-8.647856712E0,3.603273630E0
8.181762700E-2,-9.050082564E-1,-8.674192429E0,3.857059002E0
8.380126900E-2,-6.991068721E-1,-8.501810074E0,4.012681961E0
8.575439400E-2,-4.405331016E-1,-8.336610794E0,3.981557369E0
8.779907200E-2,-4.189853072E-1,-8.257601738E0,3.823540211E0
8.978271400E-2,-6.488286853E-1,-8.240841866E0,3.562572241E0
9.176635700E-2,-1.051054597E0,-8.271966934E0,3.222595453E0
9.375000000E-2,-1.379060149E0,-8.386888504E0,2.928108692E0
9.576416000E-2,-1.539471745E0,-8.585607529E0,2.712630510E0
9.774780200E-2,-1.587355733E0,-8.769960403E0,2.571372509E0
9.973144500E-2,-1.668758631E0,-8.906430244E0,2.482787132E0
1.017150880E-1,-1.874659896E0,-8.997409821E0,2.485181332E0
1.037292480E-1,-1.752555609E0,-8.954314232E0,2.540247917E0
1.057128900E-1,-1.312022567E0,-8.901641846E0,2.626439333E0
1.077270500E-1,-8.283938169E-1,-8.858546257E0,2.731784105E0
1.097106930E-1,-3.280056417E-1,-8.789113998E0,2.837129116E0
1.117248530E-1,4.070143029E-2,-8.741230011E0,2.942473888E0
1.137084960E-1,2.729389966E-1,-8.700529099E0,2.999934673E0
1.157226560E-1,4.884171486E-1,-8.659827232E0,3.002328873E0
1.177368160E-1,7.661445141E-1,-8.614337921E0,2.961627483E0
1.197204590E-1,9.361328483E-1,-8.621520042E0,2.863465309E0
1.217041010E-1,8.523358107E-1,-8.722076416E0,2.705447912E0
1.236877440E-1,9.504981041E-1,-8.671798706E0,2.631227732E0
1.257019040E-1,1.230619669E0,-8.511386871E0,2.657563925E0
1.276855470E-1,1.625662923E0,-8.379706383E0,2.614468336E0
1.296997070E-1,2.092532396E0,-8.365341187E0,2.449268341E0
1.316833490E-1,2.482787132E0,-8.398859978E0,2.264914751E0
1.336975090E-1,2.647987127E0,-8.463502884E0,2.104503393E0
1.356811520E-1,2.523488522E0,-8.611943245E0,1.893813491E0
1.376953120E-1,2.264914751E0,-8.611943245E0,1.762132406E0
1.396789550E-1,2.047042370E0,-8.456320763E0,1.817199111E0
1.416625970E-1,2.018311977E0,-8.322244644E0,1.872265697E0
1.436462400E-1,2.032677174E0,-8.259995461E0,1.831564307E0
1.456298820E-1,2.037465572E0,-8.271966934E0,1.742978811E0
1.476135250E-1,2.111685991E0,-8.319850922E0,1.628057122E0
1.496276850E-1,2.250549555E0,-8.360552788E0,1.532289028E0
1.516113280E-1,2.312798738E0,-8.396465302E0,1.482010841E0
1.536254880E-1,2.370259762E0,-8.406042099E0,1.467645645E0
1.556091300E-1,2.461239338E0,-8.372523308E0,1.580173135E0
1.575927730E-1,2.717418909E0,-8.391676903E0,1.592144132E0
1.596069330E-1,2.985569477E0,-8.470685959E0,1.479616642E0
1.615905760E-1,3.105279684E0,-8.566453934E0,1.374271750E0
1.636047360E-1,3.095702887E0,-8.647856712E0,1.309628367E0
1.655883790E-1,3.009511471E0,-8.760383606E0,1.230619669E0
1.676025390E-1,2.928108692E0,-8.884882927E0,1.163581967E0
1.695861810E-1,2.853888512E0,-9.038111687E0,1.063025594E0
1.715698240E-1,2.468421936E0,-9.035717010E0,1.098938584E0
1.735534660E-1,2.023100376E0,-8.908824921E0,1.297657371E0
1.755676270E-1,1.774103403E0,-8.796297073E0,1.429338455E0
1.775512690E-1,1.687912226E0,-8.755595207E0,1.496376038E0
1.795349120E-1,1.759738207E0,-8.793902397E0,1.551442742E0
1.815185540E-1,1.896207690E0,-8.829815865E0,1.651999116E0
1.835327140E-1,2.090138197E0,-8.841787338E0,1.778891921E0
1.855163570E-1,2.214636564E0,-8.927978516E0,1.855506301E0
1.875305170E-1,2.310404539E0,-9.021351814E0,1.936909199E0
1.895141600E-1,2.353500366E0,-9.062053680E0,2.039859772E0
1.915283200E-1,2.317587137E0,-9.074024200E0,2.183511972E0
1.935119630E-1,2.231395960E0,-9.050082207E0,2.339135170E0
1.955261230E-1,2.104503393E0,-9.002198219E0,2.458845139E0
1.975402830E-1,1.889025092E0,-8.963891029E0,2.528276920E0
1.995239250E-1,1.654393315E0,-8.942343712E0,2.549824715E0
2.015075680E-1,1.505952835E0,-8.932766914E0,2.528276920E0
2.034912110E-1,1.477222443E0,-8.942343712E0,2.489969730E0
2.055053710E-1,1.496376038E0,-8.971074104E0,2.432508945E0
2.074890130E-1,1.484405041E0,-8.999804497E0,2.384624958E0
2.094726560E-1,1.453280449E0,-9.011775017E0,2.363077164E0
2.114868160E-1,1.355118155E0,-9.030928612E0,2.360682964E0
2.134704590E-1,1.237802267E0,-9.078812599E0,2.348711967E0
2.154541010E-1,1.125274777E0,-9.126696587E0,2.339135170E0
2.174377440E-1,9.983820915E-1,-9.162610054E0,2.353500366E0
2.194213860E-1,9.816226959E-1,-9.193734169E0,2.358288765E0
2.214355470E-1,1.005564690E0,-9.212887764E0,2.355894566E0
2.234191890E-1,9.768342972E-1,-9.236829758E0,2.341529369E0
2.254333490E-1,9.121908545E-1,-9.354146004E0,2.286462545E0
2.274169920E-1,8.619126081E-1,-9.538499832E0,2.178723574E0
2.294006340E-1,4.165911078E-1,-9.402029991E0,2.336740971E0
2.313842770E-1,2.537853718E-1,-9.332598686E0,2.197877169E0
2.333679200E-1,5.219359994E-1,-9.342175484E0,2.059013367E0
2.353515620E-1,7.398083210E-1,-9.217676163E0,2.231395960E0
2.373657220E-1,8.930372596E-1,-9.155426979E0,2.250549555E0
2.393493650E-1,1.015141487E0,-9.234436035E0,2.090138197E0
2.413635250E-1,1.122880578E0,-9.351752281E0,1.917755604E0
2.433776850E-1,1.211466074E0,-9.397241592E0,1.836352706E0
2.453613280E-1,1.271321058E0,-9.351752281E0,1.790862918E0
2.473449700E-1,1.218648672E0,-9.282320023E0,1.707065821E0
2.493591300E-1,1.194706678E0,-9.236829758E0,1.589749932E0
2.513427730E-1,1.323993564E0,-9.224859238E0,1.460463047E0
2.533569330E-1,1.414973259E0,-9.255983353E0,1.331176162E0
2.553710930E-1,1.455674648E0,-9.318233490E0,1.189918280E0
2.573547360E-1,1.568202138E0,-9.301473618E0,1.084573388E0
2.593383790E-1,1.697489023E0,-9.246406555E0,1.036689281E0
2.613525390E-1,1.781286120E0,-9.234436035E0,9.672574997E-1
2.633361810E-1,1.781286120E0,-9.248801231E0,8.906430602E-1
2.653198240E-1,1.812410712E0,-9.265560150E0,8.307880163E-1
2.673034660E-1,2.061407566E0,-9.270348549E0,7.781155705E-1
2.693176270E-1,2.217030764E0,-9.277531624E0,7.565677166E-1
2.713317870E-1,2.207453966E0,-9.289502144E0,7.422025204E-1
2.733154290E-1,2.183511972E0,-9.299078941E0,7.445967197E-1
2.752990720E-1,2.221819162E0,-9.327810287E0,7.398083210E-1
2.772827140E-1,2.126051188E0,-9.423578262E0,7.278373241E-1
2.792968750E-1,1.994369984E0,-9.466673851E0,7.182605267E-1
2.812805170E-1,2.054224968E0,-9.406818390E0,7.517793179E-1
2.832946770E-1,2.085349798E0,-9.378087997E0,7.876923680E-1
2.852783200E-1,2.056619167E0,-9.385271072E0,8.044517636E-1
2.872924800E-1,2.001552582E0,-9.428366661E0,8.259995580E-1
2.892761230E-1,1.968033791E0,-9.478644371E0,8.523358107E-1
2.912902830E-1,1.944091797E0,-9.543288231E0,9.026140571E-1
2.932739250E-1,1.874659896E0,-9.607931137E0,9.576807022E-1
2.952880860E-1,1.771709204E0,-9.651026726E0,1.015141487E0
2.973022460E-1,1.685518026E0,-9.706093788E0,1.070208192E0
2.992858880E-1,1.630451322E0,-9.756371498E0,1.132457376E0
3.012695310E-1,1.587355733E0,-9.785101891E0,1.194706678E0
3.032531730E-1,1.561019540E0,-9.792284966E0,1.244984865E0
3.052062980E-1,1.544260144E0,-9.806650162E0,1.273715258E0
3.072204590E-1,1.326387763E0,-9.907206535E0,1.331176162E0
3.092041010E-1,9.193734527E-1,-1.004367638E1,1.431732655E0
3.112182610E-1,9.768342972E-1,-1.002452278E1,1.484405041E0
3.132019040E-1,1.369483352E0,-9.940725327E0,1.489193439E0
3.152160640E-1,1.505952835E0,-9.871294022E0,1.498770237E0
3.171997070E-1,1.383848548E0,-9.852140427E0,1.510741234E0
3.191833490E-1,1.283292055E0,-9.856928825E0,1.527500629E0
3.211669920E-1,1.175553083E0,-9.883264542E0,1.561019540E0
3.231506340E-1,1.118092179E0,-9.914389610E0,1.620874524E0
3.251647950E-1,1.130063176E0,-9.969455719E0,1.678335428E0
3.271484370E-1,1.051054597E0,-1.001733971E1,1.721431017E0
3.291625970E-1,8.499416113E-1,-1.000536919E1,1.781286120E0
3.311462400E-1,5.386953950E-1,-1.003409958E1,1.783680320E0
3.331604000E-1,-1.316810995E-1,-1.027591324E1,2.061407566E0
3.351745600E-1,-4.596867263E-1,-1.028309631E1,2.370259762E0
3.371582030E-1,-8.140286058E-2,-1.029506683E1,2.427720547E0
3.391418450E-1,4.548983276E-1,-1.034055710E1,2.482787132E0
3.411254880E-1,7.350199223E-1,-1.039083576E1,2.592920542E0
3.431091300E-1,7.254431248E-1,-1.040280628E1,2.731784105E0
3.450927730E-1,6.177040339E-1,-1.039083576E1,2.849100113E0
3.470764160E-1,5.865794420E-1,-1.040998936E1,2.940079689E0
3.490905760E-1,6.440402865E-1,-1.041956615E1,3.011905670E0
3.510742180E-1,7.972691655E-1,-1.043632507E1,3.102885485E0
3.530578610E-1,9.169792533E-1,-1.044350815E1,3.222595453E0
3.550415040E-1,1.000776291E0,-1.042914295E1,3.344699860E0
3.570251460E-1,9.050082564E-1,-1.034774017E1,3.351882458E0
3.590393060E-1,7.038952708E-1,-1.028788471E1,3.354276657E0
3.610229490E-1,5.865794420E-1,-1.016338634E1,3.636792421E0
3.630371090E-1,7.230489254E-1,-1.003649330E1,3.749319792E0
3.650207520E-1,9.792284966E-1,-9.991003990E0,3.730166197E0
3.670349120E-1,1.012747288E0,-9.940725327E0,3.732560396E0
3.690185540E-1,8.379706144E-1,-9.816226959E0,3.773261786E0
3.710021970E-1,6.655880809E-1,-9.634267807E0,3.830722809E0
3.729858390E-1,4.764461517E-1,-9.500192642E0,3.881000996E0
3.750000000E-1,-1.436520964E-1,-9.598354340E0,4.017470360E0
3.769836420E-1,-4.644751251E-1,-9.473855972E0,4.118026733E0
3.789978020E-1,-1.244984865E-1,-9.193734169E0,4.034229755E0
3.809814450E-1,2.681505978E-1,-8.901641846E0,3.919308186E0
3.829650880E-1,3.950432837E-1,-8.638279915E0,3.797203779E0
3.849182130E-1,2.920926213E-1,-8.403648376E0,3.526659012E0
3.869323730E-1,2.154781520E-1,-8.202534676E0,3.303998232E0
3.889160150E-1,2.633621991E-1,-7.996633530E0,3.397372246E0
3.909301750E-1,5.410895944E-1,-7.900865555E0,3.411737442E0
3.929138180E-1,1.058237195E0,-7.931990147E0,3.356670856E0
3.949279780E-1,1.259350061E0,-8.013393402E0,3.287238836E0
3.969116210E-1,1.261744261E0,-8.044517517E0,3.220201254E0
3.988952630E-1,1.340752959E0,-8.049305916E0,3.181894064E0
4.008789060E-1,1.362300754E0,-8.063671112E0,3.126827478E0
4.028625480E-1,1.316810966E0,-8.097189903E0,3.019088268E0
4.048767090E-1,1.213860273E0,-8.123526573E0,2.734178305E0
4.068603510E-1,1.077390790E0,-8.104372978E0,2.755726099E0
4.088439940E-1,1.070208192E0,-8.140285492E0,2.894589901E0
4.108581540E-1,1.149216771E0,-8.317456245E0,2.899378300E0
4.128417970E-1,1.189918280E0,-8.473079681E0,2.849100113E0
4.148254390E-1,1.345541358E0,-8.568847656E0,2.791639090E0
4.168395990E-1,1.343147159E0,-8.700529099E0,2.829946518E0
4.188232420E-1,1.084573388E0,-8.856152534E0,2.935291290E0
4.208068840E-1,8.331822157E-1,-9.021351814E0,3.035847664E0
4.227905270E-1,6.847416759E-1,-9.222464561E0,3.134010077E0
4.248046870E-1,5.793967843E-1,-9.466673851E0,3.244143248E0
4.267883300E-1,5.698199868E-1,-9.706093788E0,3.354276657E0
4.288024900E-1,3.854664862E-1,-9.938331604E0,3.433285236E0
4.307861320E-1,0.000000000E0,-1.019929886E1,3.476380825E0
4.328002930E-1,-5.961562395E-1,-1.046266174E1,3.823540211E0
4.348144530E-1,-9.816226959E-1,-1.073081207E1,4.034229755E0
4.367980950E-1,-8.858546019E-1,-1.101811600E1,4.103661537E0
4.387817380E-1,-4.477157295E-1,-1.127908421E1,4.201824188E0
4.407653800E-1,5.602431893E-1,-1.138203526E1,4.333505154E0
4.427795410E-1,1.091755986E0,-1.131739140E1,4.572925091E0
4.447631830E-1,5.793967843E-1,-1.140597725E1,4.659116745E0
4.467468260E-1,-2.849099934E-1,-1.156638813E1,4.644751072E0
4.487609860E-1,-6.727706790E-1,-1.151611042E1,4.539406300E0
4.507446290E-1,-1.168370485E0,-1.151850414E1,4.290409565E0
4.527282710E-1,-1.719036818E0,-1.157117653E1,4.206612587E0
4.547119140E-1,-1.642422318E0,-1.167173290E1,4.185064793E0
4.566955560E-1,-1.175553083E0,-1.173637676E1,4.161122322E0
4.587097160E-1,-7.972691655E-1,-1.160469532E1,4.388571739E0
4.606933590E-1,-3.998316824E-1,-1.150892735E1,4.424484730E0
4.627075190E-1,-9.576806426E-2,-1.143710136E1,4.402936935E0
4.646911620E-1,8.140286058E-2,-1.132457447E1,4.436455727E0
4.667053220E-1,2.633621991E-1,-1.115697956E1,4.467580318E0
4.686889640E-1,5.267243981E-1,-1.094150162E1,4.448426723E0
4.707031250E-1,7.445967197E-1,-1.071165848E1,4.436455727E0
4.726867670E-1,9.576807022E-1,-1.047942066E1,4.503493309E0
4.747009270E-1,1.072602391E0,-1.035971069E1,4.539406300E0
4.767150880E-1,1.288080573E0,-1.011789608E1,4.625597477E0
4.786987300E-1,1.508347034E0,-9.885659218E0,4.728548527E0
4.806823730E-1,1.762132406E0,-9.667786598E0,4.848258495E0
4.826660150E-1,2.044648170E0,-9.430760384E0,4.965574265E0
4.846801750E-1,2.291250944E0,-9.198522568E0,5.058948040E0
4.866638180E-1,2.497152328E0,-8.961497307E0,5.169081688E0
4.886779780E-1,2.614468336E0,-8.714894295E0,5.260061264E0
4.906616210E-1,2.640804529E0,-8.511386871E0,5.355829239E0
4.926452630E-1,2.755726099E0,-8.327033043E0,5.446808815E0
4.946289060E-1,2.870647907E0,-8.176198959E0,5.554547787E0
4.966430660E-1,2.940079689E0,-8.061277390E0,5.691017628E0
4.986267090E-1,3.114856482E0,-7.989450932E0,5.777208805E0
5.006408690E-1,3.409343243E0,-7.910442352E0,5.767632008E0
5.026245110E-1,3.708618402E0,-7.807491779E0,5.714959621E0
5.046386720E-1,3.983951569E0,-7.685387611E0,5.621585369E0
5.066223140E-1,4.206612587E0,-7.544129372E0,5.528211594E0
5.086364740E-1,4.422090530E0,-7.431602001E0,5.528211594E0
5.106201170E-1,4.642356873E0,-7.357381821E0,5.509057999E0
5.126342770E-1,4.833893299E0,-7.278373241E0,5.284003258E0
5.146179200E-1,5.078101635E0,-7.153874874E0,5.178658485E0
5.166320800E-1,5.228936672E0,-7.041347027E0,5.212177277E0
5.186157220E-1,5.228936672E0,-6.938396454E0,5.039794445E0
5.205993650E-1,5.293580055E0,-6.840234280E0,4.754884720E0
5.225830070E-1,5.475539207E0,-6.766014099E0,4.663905144E0
5.245666500E-1,5.714959621E0,-6.732495308E0,4.723760128E0
5.265808100E-1,5.846640587E0,-6.715735912E0,4.781220913E0
5.285644530E-1,5.853823185E0,-6.722918510E0,4.814739704E0
5.305786130E-1,5.920860767E0,-6.763619900E0,4.829104900E0
5.325622550E-1,6.054935932E0,-6.842628479E0,4.987122059E0
5.345764160E-1,5.877765179E0,-6.955155849E0,4.912901878E0
5.365905760E-1,5.741295815E0,-7.055712223E0,4.611232281E0
5.385742180E-1,5.741295815E0,-7.177816868E0,4.422090530E0
5.405578610E-1,5.793968201E0,-7.357381821E0,4.314351559E0
5.425415040E-1,5.942408562E0,-7.618350029E0,4.254496574E0
5.445556640E-1,6.083666325E0,-7.884106159E0,4.242525578E0
5.465393060E-1,5.729324818E0,-8.111555099E0,4.029441357E0
5.485229490E-1,5.056553841E0,-8.350975990E0,3.632004023E0
5.505371090E-1,4.639962673E0,-8.559270859E0,3.349488258E0
5.525207520E-1,4.508281708E0,-8.710105896E0,3.258508444E0
5.545043940E-1,4.455609322E0,-8.841787338E0,3.301604033E0
5.564880370E-1,4.716577530E0,-9.002198219E0,3.442862034E0
5.584716790E-1,4.529829502E0,-9.157821655E0,3.488351822E0
5.604858390E-1,3.655946016E0,-9.258378029E0,3.213018656E0
5.624694820E-1,2.849100113E0,-9.236829758E0,2.899378300E0
5.644836420E-1,2.475604534E0,-9.179368973E0,2.829946518E0
5.664672850E-1,2.707842112E0,-9.109937668E0,2.856282711E0
5.684509270E-1,3.349488258E0,-9.174580574E0,2.985569477E0
5.704345700E-1,3.265691042E0,-9.284713745E0,3.205836058E0
5.724487300E-1,2.387019157E0,-9.358934402E0,3.083731890E0
5.744323730E-1,1.905784607E0,-9.442731857E0,2.901772499E0
5.764465330E-1,1.659181833E0,-9.533711433E0,2.844311714E0
5.784301750E-1,1.259350061E0,-9.634267807E0,2.705447912E0
5.804443360E-1,9.744400978E-1,-9.763554573E0,2.580949545E0
5.824279780E-1,1.027112484E0,-9.959878922E0,2.578555346E0
5.844421380E-1,1.039083481E0,-1.019929886E1,2.521094322E0
5.864257810E-1,7.278373241E-1,-1.041717148E1,2.260126352E0
5.884399410E-1,4.668693244E-1,-1.062307262E1,2.001552582E0
5.904235840E-1,4.908113480E-1,-1.087207031E1,1.824381709E0
5.924377440E-1,4.908113480E-1,-1.112346077E1,1.663970232E0
5.943908690E-1,2.466027737E-1,-1.126950741E1,1.453280449E0
5.964050290E-1,1.149216816E-1,-1.142752457E1,1.244984865E0
5.983886720E-1,1.412578970E-1,-1.162624359E1,1.074996591E0
6.003723140E-1,1.221042871E-1,-1.179383755E1,9.265560508E-1
6.023559570E-1,-1.675941236E-2,-1.195185471E1,8.044517636E-1
6.043395990E-1,-1.556231081E-1,-1.213620853E1,6.727706790E-1
6.063232420E-1,-1.388636976E-1,-1.232774448E1,6.248866320E-1
6.083374020E-1,-3.351882473E-2,-1.248097324E1,6.272808313E-1
6.103515620E-1,3.112462163E-2,-1.266053867E1,6.081272364E-1
6.123352050E-1,5.506663769E-2,-1.287122822E1,5.482721925E-1
6.143188470E-1,1.388636976E-1,-1.308431244E1,4.548983276E-1
6.163024900E-1,3.136404157E-1,-1.325190639E1,3.351882398E-1
6.183166500E-1,4.812345505E-1,-1.339316463E1,2.274491638E-1
6.203002930E-1,5.937620401E-1,-1.357512379E1,1.771709323E-1
6.223144530E-1,6.536170840E-1,-1.377384281E1,1.651999205E-1
6.242980950E-1,6.847416759E-1,-1.399650288E1,1.987187415E-1
6.263122550E-1,6.991068721E-1,-1.420240402E1,2.729389966E-1
6.282958980E-1,5.698199868E-1,-1.433408546E1,3.160346150E-1
6.303100580E-1,3.830722570E-1,-1.449689102E1,3.663128614E-1
6.322937010E-1,1.699883193E-1,-1.465730286E1,4.429273009E-1
6.343078610E-1,-7.182604820E-2,-1.478658962E1,5.195417404E-1
6.363220210E-1,-2.920926213E-1,-1.492305946E1,6.248866320E-1
6.383056640E-1,-5.003881454E-1,-1.505952835E1,7.637503147E-1
6.402893060E-1,-7.110779285E-1,-1.518402672E1,9.050082564E-1
6.422729490E-1,-9.481038451E-1,-1.530373764E1,1.048660398E0
6.442871090E-1,-1.189918280E0,-1.541626453E1,1.170764685E0
6.463012690E-1,-1.391031146E0,-1.552639771E1,1.266532660E0
6.482849120E-1,-1.568202138E0,-1.560780048E1,1.347935557E0
6.502990720E-1,-1.752555609E0,-1.570835781E1,1.458068848E0
6.522827140E-1,-1.893813491E0,-1.581849098E1,1.561019540E0
6.542968750E-1,-1.972822189E0,-1.590707588E1,1.647210717E0
6.562805170E-1,-2.073378563E0,-1.597171974E1,1.766920805E0
6.582946770E-1,-2.178723574E0,-1.601721001E1,1.903390408E0
6.602783200E-1,-2.212242365E0,-1.603636360E1,1.970427990E0
6.622924800E-1,-2.147598982E0,-1.606030464E1,1.929726601E0
6.642456050E-1,-1.970427990E0,-1.612015915E1,1.853112102E0
6.662597650E-1,-1.769315004E0,-1.618959236E1,1.802833915E0
6.682434080E-1,-1.565807939E0,-1.624705315E1,1.666364431E0
6.702575680E-1,-1.376665950E0,-1.632366753E1,1.517923832E0
6.722412110E-1,-1.240196466E0,-1.640985870E1,1.417367458E0
6.742553710E-1,-1.125274777E0,-1.647689629E1,1.309628367E0
6.762695310E-1,-1.010353088E0,-1.650323296E1,1.213860273E0
6.782531730E-1,-8.762778044E-1,-1.646013641E1,1.079784989E0
6.802368160E-1,-7.182605267E-1,-1.635239792E1,8.954314590E-1
6.822204590E-1,-5.698199868E-1,-1.622071648E1,7.302315235E-1
6.842346190E-1,-4.668693244E-1,-1.609142876E1,5.937620401E-1
6.862182610E-1,-3.639186621E-1,-1.596693134E1,4.620809257E-1
6.882324220E-1,-2.298433632E-1,-1.582088470E1,3.615244627E-1
6.902160640E-1,-7.182604820E-2,-1.563413715E1,3.208230138E-1
6.921997070E-1,9.816227108E-2,-1.540429401E1,3.423708379E-1
6.941833490E-1,1.987187415E-1,-1.512656593E1,4.118026793E-1
6.961975090E-1,2.537853718E-1,-1.480813789E1,5.123591423E-1
6.981811520E-1,2.729389966E-1,-1.444661331E1,5.817909837E-1
7.001953120E-1,2.944868207E-1,-1.396298409E1,6.368576288E-1
7.021789550E-1,4.070142806E-1,-1.335725117E1,6.320692301E-1
7.041931150E-1,4.764461517E-1,-1.302206326E1,5.913678408E-1
7.061767570E-1,7.374141216E-1,-1.225113010E1,4.764461517E-1
7.081909180E-1,1.137245774E0,-1.138682365E1,3.351882398E-1
7.101745600E-1,1.606509328E0,-1.056561184E1,1.412578970E-1
7.121887200E-1,1.996764183E0,-9.873687744E0,-3.112462163E-2
7.142028800E-1,2.341529369E0,-9.176975250E0,-2.394201607E-2
7.161865230E-1,2.767697096E0,-8.858546257E0,-2.011129409E-1
7.181701660E-1,3.004723072E0,-8.858546257E0,-7.613561153E-1
7.201538080E-1,2.942473888E0,-8.741230011E0,-1.122880578E0
7.221679680E-1,2.801215887E0,-8.458714485E0,-1.053448796E0
7.241210930E-1,2.868253708E0,-8.034940720E0,-6.847416759E-1
7.261352540E-1,3.169923067E0,-7.941566944E0,-4.644751251E-1
7.281188960E-1,3.433285236E0,-8.195352554E0,-5.602431893E-1
7.301330560E-1,3.447650433E0,-8.410830498E0,-5.865794420E-1
7.321166990E-1,3.260902643E0,-8.374917984E0,-3.663128614E-1
7.341308590E-1,3.093308687E0,-8.188169479E0,-3.591302410E-2
7.361145020E-1,3.136404276E0,-8.020575523E0,1.699883193E-1
7.381286620E-1,3.383007050E0,-8.133103371E0,-3.351882473E-2
7.401123040E-1,3.701435804E0,-8.329427719E0,-2.777273953E-1
7.421264640E-1,4.005499363E0,-8.516175270E0,-4.836287498E-1
7.440795890E-1,4.185064793E0,-8.590395927E0,-5.985504389E-1
7.460937500E-1,4.185064793E0,-8.607154846E0,-6.009446383E-1
7.480773920E-1,4.029441357E0,-8.578424454E0,-5.650315881E-1
7.500915520E-1,3.962403774E0,-8.518569946E0,-6.009446383E-1
7.520751950E-1,4.015076160E0,-8.434772491E0,-7.445967197E-1
7.540588380E-1,4.115632534E0,-8.379706383E0,-9.504981041E-1
7.560424800E-1,4.185064793E0,-8.449137688E0,-1.261744261E0
7.580261230E-1,4.110844135E0,-8.446743965E0,-1.482010841E0
7.600402830E-1,3.916913986E0,-8.317456245E0,-1.501164436E0
7.620239250E-1,3.708618402E0,-8.140285492E0,-1.462857246E0
7.640380860E-1,3.591302633E0,-7.884106159E0,-1.364694953E0
7.660217280E-1,3.679888010E0,-7.706935406E0,-1.240196466E0
7.680053710E-1,3.837905407E0,-7.785943985E0,-1.414973259E0
7.699890130E-1,3.806780815E0,-7.778761387E0,-1.642422318E0
7.719726560E-1,3.734954596E0,-7.438784599E0,-1.465251446E0
7.739562980E-1,3.677493811E0,-7.175422668E0,-1.283292055E0
7.759704590E-1,3.620033026E0,-7.220912457E0,-1.491587639E0
7.779541010E-1,3.574543238E0,-7.374141216E0,-1.692700624E0
7.799682610E-1,3.514688015E0,-7.481880188E0,-1.769315004E0
7.819519040E-1,3.519476414E0,-7.496245384E0,-1.747767210E0
7.839660640E-1,3.617638826E0,-7.457938194E0,-1.666364431E0
7.859497070E-1,3.567360640E0,-7.491456985E0,-1.596932530E0
7.879333490E-1,3.323152065E0,-7.522581577E0,-1.546654344E0
7.899169920E-1,2.997540474E0,-7.431602001E0,-1.362300754E0
7.919311520E-1,2.765302896E0,-7.295132637E0,-1.134851575E0
7.939147950E-1,2.729389906E0,-7.211335659E0,-8.930372596E-1
7.959289550E-1,2.827552319E0,-7.177816868E0,-5.985504389E-1
7.979431150E-1,2.923320293E0,-6.974309444E0,-1.340752989E-1
7.999267570E-1,3.023876667E0,-6.955155849E0,3.184288144E-1
8.019104000E-1,2.964021683E0,-7.208941460E0,4.094084799E-1
8.038940430E-1,2.695871115E0,-7.345410824E0,6.105214357E-1
8.058776850E-1,2.456450939E0,-7.343016624E0,1.000776291E0
8.078918450E-1,2.312798738E0,-7.256825447E0,1.453280449E0
8.099060050E-1,2.334346771E0,-6.995857239E0,2.051830769E0
8.118896480E-1,2.387019157E0,-6.900089264E0,2.521094322E0
8.138732910E-1,2.324769735E0,-6.952761650E0,2.750937700E0
8.158569330E-1,2.090138197E0,-7.070077419E0,2.741360903E0
8.178405760E-1,1.781286120E0,-7.170634270E0,2.671929121E0
8.198547360E-1,1.426944256E0,-7.323863029E0,2.564189911E0
8.218383790E-1,9.457096457E-1,-7.524975777E0,2.430114746E0
8.238220210E-1,4.261679053E-1,-7.632715225E0,2.372653961E0
8.258361810E-1,6.703764945E-2,-7.553706169E0,2.504334927E0
8.278198240E-1,-1.053448766E-1,-7.400477409E0,2.707842112E0
8.298339840E-1,-1.364694983E-1,-7.280767441E0,2.841917515E0
8.318176270E-1,-1.221042871E-1,-7.230489254E0,2.894589901E0
8.338317870E-1,-7.182604820E-2,-7.146692276E0,2.901772499E0
8.358154290E-1,2.442085743E-1,-6.847416878E0,3.086126089E0
8.377990720E-1,4.094084799E-1,-6.830657482E0,3.033453465E0
8.397827140E-1,2.585737705E-1,-6.919242859E0,2.825158119E0
8.417663570E-1,1.268926859E-1,-6.864176273E0,2.786850691E0
8.437194820E-1,-2.394201700E-3,-6.861782074E0,2.609679937E0
8.457336420E-1,-2.753331959E-1,-7.072471619E0,2.262520552E0
8.477172850E-1,-8.259995580E-1,-7.290344238E0,1.991975784E0
8.497314450E-1,-1.426944256E0,-7.311892033E0,1.932120800E0
8.517456050E-1,-1.747767210E0,-7.204153061E0,1.965639591E0
8.537292480E-1,-1.752555609E0,-6.979097843E0,2.075772762E0
8.557128900E-1,-1.654393315E0,-6.734889507E0,2.149993181E0
8.576965330E-1,-1.539471745E0,-6.581660271E0,2.094926596E0
8.597106930E-1,-1.462857246E0,-6.543353081E0,1.929726601E0
8.616943360E-1,-1.462857246E0,-6.500257492E0,1.843535304E0
8.637084960E-1,-1.422155857E0,-6.356605530E0,1.853112102E0
8.656921380E-1,-1.328781962E0,-6.033388138E0,2.037465572E0
8.676757810E-1,-1.362300754E0,-5.975927353E0,1.999158382E0
8.696594230E-1,-1.594538331E0,-6.210559368E0,1.637633920E0
8.716430660E-1,-1.869871497E0,-6.318298340E0,1.414973259E0
8.736267090E-1,-2.018311977E0,-6.241683960E0,1.395819545E0
8.756408690E-1,-1.958456993E0,-6.155492783E0,1.400607944E0
8.776245110E-1,-1.891419291E0,-6.117185116E0,1.438915253E0
8.796386720E-1,-1.917755604E0,-6.047753334E0,1.592144132E0
8.816528320E-1,-1.929726601E0,-5.966350555E0,1.747767210E0
8.836364740E-1,-1.862688899E0,-5.829881191E0,1.891419291E0
8.856201170E-1,-1.604115129E0,-5.585672379E0,2.164358377E0
8.876342770E-1,-1.479616642E0,-5.681440830E0,2.082955360E0
8.896179200E-1,-1.673547029E0,-5.920860767E0,1.841141105E0
8.916320800E-1,-1.932120800E0,-6.014234543E0,1.814804912E0
8.936462400E-1,-1.910573006E0,-6.009446144E0,1.958456993E0
8.956298820E-1,-1.649604917E0,-5.959167957E0,2.205059767E0
8.976135250E-1,-1.261744261E0,-5.916072369E0,2.389413357E0
8.996276850E-1,-9.433154464E-1,-5.851428986E0,2.573766708E0
9.016113280E-1,-9.074024558E-1,-5.772420406E0,2.760514498E0
9.036254880E-1,-9.385270476E-1,-5.729324818E0,2.851494312E0
9.056091300E-1,-7.517793179E-1,-5.523423195E0,3.131615877E0
9.076232910E-1,-2.011129409E-1,-5.420472622E0,3.371036053E0
9.096069330E-1,-4.548983276E-2,-5.681440830E0,3.239354849E0
9.116210930E-1,-2.705447972E-1,-5.932831764E0,3.055001259E0
9.136047360E-1,-4.094084799E-1,-5.978321552E0,3.069366693E0
9.155883790E-1,-1.771709323E-1,-5.918466568E0,3.215412855E0
9.175720210E-1,2.849099934E-1,-5.872976780E0,3.359065056E0
9.195556640E-1,7.278373241E-1,-5.904101372E0,3.445256233E0
9.215698240E-1,1.089361787E0,-5.908889771E0,3.581725836E0
9.235229490E-1,1.455674648E0,-5.786785603E0,3.835511208E0
9.255371090E-1,2.128445387E0,-5.726930618E0,4.039018154E0
9.275207520E-1,2.552218914E0,-5.913678169E0,3.960009575E0
9.295349120E-1,2.624045134E0,-6.198588371E0,3.840299606E0
9.315185540E-1,2.523488522E0,-6.445190907E0,3.744531393E0
9.335327140E-1,2.535459518E0,-6.543353081E0,3.816357613E0
9.355163570E-1,2.832340717E0,-6.591237068E0,3.960009575E0
9.375000000E-1,3.181894064E0,-6.667851925E0,4.096478939E0
9.395141600E-1,3.514688015E0,-6.787561893E0,4.232948780E0
9.414978020E-1,3.833117008E0,-6.924031258E0,4.364629745E0
9.435119630E-1,4.213795185E0,-6.916848660E0,4.599261284E0
9.454956050E-1,4.747702122E0,-7.055712223E0,4.766855717E0
9.474792480E-1,4.912901878E0,-7.419631004E0,4.683058739E0
9.494628900E-1,4.795586109E0,-7.656657219E0,4.683058739E0
9.514770500E-1,4.721365929E0,-7.752425194E0,4.819528103E0
9.534606930E-1,4.893748283E0,-7.855375767E0,4.989516258E0
9.554748530E-1,5.181052685E0,-8.001421928E0,5.128379822E0
9.574584960E-1,5.477933407E0,-8.147468567E0,5.212177277E0
9.594726560E-1,5.691017628E0,-8.281543732E0,5.245696068E0
9.614562980E-1,5.872976780E0,-8.413225174E0,5.240907669E0
9.634399410E-1,6.059724331E0,-8.530540466E0,5.207388878E0
9.654235840E-1,6.227318764E0,-8.621520042E0,5.159504890E0
9.674377440E-1,6.416460514E0,-8.690952301E0,5.104437828E0
9.694213860E-1,6.763619900E0,-8.734047890E0,5.013458252E0
9.714355470E-1,7.481880188E0,-8.614337921E0,4.972756863E0
9.734191890E-1,7.702147007E0,-8.757989883E0,4.831499100E0
9.754028320E-1,7.467514992E0,-9.076418877E0,4.575319290E0
9.773864740E-1,7.429207802E0,-9.241618156E0,4.455609322E0
9.794006340E-1,7.642292023E0,-9.248801231E0,4.510675907E0
9.813842770E-1,7.960720539E0,-9.224859238E0,4.654327869E0
9.833984370E-1,8.271966934E0,-9.248801231E0,4.812345505E0
9.853820800E-1,8.736441612E0,-9.165003777E0,5.027823448E0
9.873962400E-1,9.332598686E0,-9.038111687E0,5.312733650E0
9.894104000E-1,9.306262016E0,-9.253589630E0,5.384559631E0
9.913940430E-1,9.028534889E0,-9.514557838E0,5.434837818E0
9.933776850E-1,8.913613319E0,-9.574412346E0,5.702988625E0
9.953613280E-1,9.272743225E0,-9.239224434E0,6.232107162E0
9.973754880E-1,1.007480049E1,-8.975862503E0,6.727706909E0
9.993591300E-1,1.038844109E1,-9.090784073E0,6.950367451E0
1.001373291E0,1.022324085E1,-9.306262016E0,7.115567684E0
1.003356933E0,9.933543205E0,-9.452308655E0,7.283161640E0
1.005340576E0,9.809044838E0,-9.469067574E0,7.529764175E0
1.007354736E0,9.787496567E0,-9.483432770E0,7.764396191E0
1.009368896E0,9.888052940E0,-9.454702377E0,8.027758598E0
1.011352539E0,1.001494598E1,-9.435548782E0,8.288725853E0
1.013336181E0,1.010592556E1,-9.404424667E0,8.511386871E0
1.015319824E0,1.013465595E1,-9.387664795E0,8.681375504E0
1.017333984E0,1.013465595E1,-9.394847870E0,8.784325600E0
1.019317627E0,1.011071396E1,-9.418789864E0,8.834604263E0
1.021331787E0,9.981427193E0,-9.473855972E0,8.829815865E0
1.023315429E0,9.756371498E0,-9.545681953E0,8.772355080E0
1.025329589E0,9.469067574E0,-9.634267807E0,8.652645111E0
1.027313232E0,9.258378029E0,-9.718064308E0,8.497021675E0
1.029327392E0,9.038111687E0,-9.806650162E0,8.286332130E0
1.031311035E0,8.793902397E0,-9.854534149E0,8.051700592E0
1.033325195E0,8.456320763E0,-9.959878922E0,7.726089001E0
1.035308838E0,8.135497093E0,-1.005325317E1,7.354987621E0
1.037292480E0,7.814674377E0,-1.009874249E1,6.983886242E0
1.039276123E0,7.469909191E0,-1.017056847E1,6.564900875E0
1.041259765E0,7.137115479E0,-1.018493366E1,6.177040577E0
1.043273925E0,6.818686485E0,-1.018253994E1,5.767632008E0
1.045257568E0,6.904877663E0,-1.002691650E1,5.413290024E0
1.047271728E0,6.866570473E0,-9.883264542E0,5.140350819E0
1.049255371E0,6.239289761E0,-9.804255486E0,4.908113480E0
1.051239013E0,5.374982834E0,-9.825803757E0,4.680664539E0
1.053222656E0,4.853046894E0,-9.732429504E0,4.489128113E0
1.055236816E0,4.594472885E0,-9.569623947E0,4.276044369E0
1.057250976E0,4.374206543E0,-9.473855972E0,4.039018154E0
1.059234619E0,4.022258759E0,-9.540893555E0,3.835511208E0
1.061218261E0,3.833117008E0,-9.445125580E0,3.876212597E0
1.063171386E0,3.799597979E0,-9.162610054E0,4.046200752E0
1.065185547E0,3.902548790E0,-8.767566681E0,4.259284973E0
1.067169189E0,3.952826977E0,-8.420407295E0,4.414907932E0
1.069183349E0,3.943250179E0,-8.171410561E0,4.491522312E0
1.071166992E0,3.835511208E0,-8.037335396E0,4.486733913E0
1.073150634E0,3.782838583E0,-7.881711960E0,4.563348293E0
1.075134277E0,3.828328609E0,-7.637503624E0,4.742913723E0
1.077117920E0,3.821146011E0,-7.445967197E0,4.881777287E0
1.079132080E0,3.739742994E0,-7.340622425E0,4.946420670E0
1.081115722E0,3.591302633E0,-7.295132637E0,4.984727859E0
1.083129882E0,3.421314240E0,-7.283161640E0,5.001487255E0
1.085113525E0,3.299209833E0,-7.261613846E0,4.987122059E0
1.087097168E0,3.234566450E0,-7.211335659E0,4.929661274E0
1.089080810E0,3.193865061E0,-7.161057472E0,4.836287498E0
1.091064453E0,3.177105665E0,-7.125144482E0,4.695029736E0
1.093048095E0,3.181894064E0,-7.103596210E0,4.479551315E0
1.095062255E0,3.208230257E0,-7.086836815E0,4.187458992E0
1.097045898E0,3.268085241E0,-7.065289021E0,3.797203779E0
1.099060058E0,3.373430252E0,-7.079654217E0,3.318363667E0
1.101043701E0,3.500322819E0,-7.156269073E0,2.817975283E0
1.103057861E0,3.600879431E0,-7.208941460E0,2.568978310E0
1.105041504E0,3.828328609E0,-7.338228226E0,2.078166962E0
1.107055664E0,3.739742994E0,-7.548917770E0,1.592144132E0
1.109039306E0,3.555389643E0,-7.802703381E0,1.216254473E0
1.111053466E0,3.483563423E0,-8.090007782E0,9.600749016E-1
1.113067627E0,3.533841610E0,-8.394071579E0,8.331822157E-1
1.115051269E0,3.612850428E0,-8.724471092E0,7.805097699E-1
1.117034912E0,3.873818398E0,-9.062053680E0,8.236053586E-1
1.119018554E0,3.986345768E0,-9.457097054E0,8.786720037E-1
1.121032714E0,3.574543238E0,-9.959878922E0,9.289502501E-1
1.123016357E0,3.236960649E0,-1.041477776E1,1.041477680E0
1.125030517E0,3.294421434E0,-1.083376312E1,1.170764685E0
1.127014160E0,3.643975019E0,-1.125993061E1,1.304839969E0
1.129028320E0,3.979163170E0,-1.159990692E1,1.575384736E0
1.131011963E0,3.986345768E0,-1.200692177E1,1.735796213E0
1.133026123E0,3.718195200E0,-1.258152962E1,1.850717902E0
1.135009765E0,3.677493811E0,-1.310107136E1,1.987187386E0
1.137023925E0,3.962403774E0,-1.348174953E1,2.082955360E0
1.139007568E0,4.546588898E0,-1.383130360E1,2.085349798E0
1.141021728E0,4.673481941E0,-1.417846203E1,2.188300371E0
1.142974853E0,4.604049683E0,-1.455195808E1,2.394201756E0
1.144989013E0,4.800374508E0,-1.497812557E1,2.540247917E0
1.146972656E0,5.056553841E0,-1.528937244E1,2.669534922E0
1.148986816E0,5.166687489E0,-1.544260120E1,2.983175278E0
1.150970459E0,5.322310448E0,-1.560301208E1,3.244143248E0
1.152984619E0,5.710171223E0,-1.572032833E1,3.392583847E0
1.154968261E0,5.784391403E0,-1.572511673E1,3.641580820E0
1.156951904E0,5.377377033E0,-1.570356941E1,3.998316765E0
1.158935547E0,5.152322292E0,-1.569878101E1,4.309563160E0
1.160919189E0,5.109226227E0,-1.570356941E1,4.414907932E0
1.162933349E0,5.109226227E0,-1.551203251E1,4.491522312E0
1.164916992E0,4.795586109E0,-1.517205620E1,4.570530891E0
1.166900634E0,4.417302132E0,-1.488714600E1,4.489128113E0
1.168914795E0,4.185064793E0,-1.466927338E1,4.235342979E0
1.170898437E0,3.833117008E0,-1.426465416E1,4.017470360E0
1.172882080E0,3.344699860E0,-1.374750614E1,3.828328609E0
1.174865722E0,2.810792685E0,-1.321359921E1,3.462015629E0
1.176849365E0,2.305616140E0,-1.254322243E1,3.165134668E0
1.178863525E0,1.848323703E0,-1.192312431E1,2.813186884E0
1.180847168E0,1.350329757E0,-1.135569859E1,2.336740971E0
1.182861328E0,9.097966552E-1,-1.069968700E1,2.018311977E0
1.184844970E0,5.458779931E-1,-1.014662647E1,1.711854219E0
1.186828613E0,1.388636976E-1,-9.665391922E0,1.352723956E0
1.188812255E0,-1.101332754E-1,-9.179368973E0,1.070208192E0
1.190826416E0,-2.729389966E-1,-8.746018410E0,8.283938169E-1
1.192810058E0,-3.711012602E-1,-8.370129585E0,6.224924326E-1
1.194824218E0,-4.525041282E-1,-8.121131897E0,3.375824392E-1
1.196838379E0,-6.177040339E-1,-7.912836552E0,1.675941236E-2
1.198822021E0,-8.092401624E-1,-7.726089001E0,-2.729389966E-1
1.200805664E0,-9.313444495E-1,-7.551311970E0,-5.099649429E-1
1.202789306E0,-8.164227605E-1,-7.400477409E0,-6.512228847E-1
1.204772949E0,-7.589619160E-1,-7.323863029E0,-7.613561153E-1
1.206787109E0,-9.983820915E-1,-7.321468830E0,-8.714894056E-1
1.208801269E0,-1.381454349E0,-7.338228226E0,-9.840168953E-1
1.210784912E0,-1.649604917E0,-7.292738438E0,-1.007958889E0
1.212768554E0,-1.747767210E0,-7.230489254E0,-9.217676520E-1
1.214752197E0,-1.874659896E0,-7.225700855E0,-7.948749661E-1
1.216735839E0,-2.082955360E0,-7.228095055E0,-6.105214357E-1
1.218750000E0,-2.214636564E0,-7.218518257E0,-3.351882398E-1
1.220733642E0,-2.284068346E0,-7.261613846E0,-1.675941236E-2
1.222717285E0,-2.485181332E0,-7.328651428E0,3.232172430E-1
1.224700927E0,-2.736572504E0,-7.362170219E0,7.206547260E-1
1.226715088E0,-2.973598480E0,-7.417236805E0,1.142034173E0
1.228698730E0,-3.124433279E0,-7.469909191E0,1.551442742E0
1.230682373E0,-3.260902643E0,-7.359776020E0,2.020706177E0
1.232666015E0,-3.339911461E0,-7.175422668E0,2.549824715E0
1.234649658E0,-3.162740469E0,-7.297526836E0,2.877830505E0
1.236663818E0,-3.040636063E0,-7.527369976E0,3.119644880E0
1.238647461E0,-2.865859509E0,-7.754819393E0,3.332728863E0
1.240661621E0,-2.487575531E0,-7.979874134E0,3.500322819E0
1.242645263E0,-2.018311977E0,-8.214506149E0,3.402160645E0
1.244659423E0,-1.630451322E0,-8.413225174E0,3.062183857E0
1.246643066E0,-1.455674648E0,-8.585607529E0,2.885013103E0
1.248657226E0,-1.661576033E0,-8.765172005E0,3.045424461E0
1.250640869E0,-1.968033791E0,-8.978256226E0,3.277662039E0
1.252655029E0,-2.090138197E0,-9.260771751E0,3.308786631E0
1.254669189E0,-2.054224968E0,-9.641449928E0,3.026270866E0
1.256652832E0,-1.781286120E0,-9.986215591E0,2.590526342E0
1.258636474E0,-1.302445769E0,-1.029506683E1,2.157175779E0
1.260620117E0,-8.164227605E-1,-1.069729328E1,1.697489023E0
1.262634277E0,-3.782838583E-1,-1.114979744E1,1.216254473E0
1.264617920E0,-4.788403213E-2,-1.161906052E1,7.206547260E-1
1.266632080E0,2.082955539E-1,-1.211705494E1,2.130839527E-1
1.268615722E0,5.770025849E-1,-1.251928043E1,-2.178723514E-1
1.270599365E0,1.048660398E0,-1.282095051E1,-5.961562395E-1
1.272583007E0,1.479616642E0,-1.315853214E1,-9.959878922E-1
1.274597168E0,1.841141105E0,-1.351526833E1,-1.235408068E0
1.276580810E0,2.111685991E0,-1.380736160E1,-1.261744261E0
1.278594970E0,2.334346771E0,-1.406114674E1,-1.168370485E0
1.280609130E0,2.545036316E0,-1.426944256E1,-1.031900883E0
1.282592773E0,2.935291290E0,-1.435323906E1,-8.738836050E-1
1.284576416E0,3.450044632E0,-1.439394093E1,-7.086837292E-1
1.286590576E0,3.924096584E0,-1.442027664E1,-5.530605912E-1
1.288574218E0,4.252102375E0,-1.436042213E1,-3.734954596E-1
1.290588379E0,4.443638325E0,-1.426225948E1,-1.843535304E-1
1.292602539E0,4.529829502E0,-1.415212631E1,-2.873042040E-2
1.294586181E0,4.788403511E0,-1.392707157E1,1.268926859E-1
1.296569824E0,5.118803024E0,-1.364934349E1,3.447650373E-1
1.298583984E0,5.286397457E0,-1.328063679E1,6.440402865E-1
1.300567627E0,5.185841084E0,-1.278743172E1,9.959878922E-1
1.302581787E0,4.920084476E0,-1.224394703E1,1.338358760E0
1.304565429E0,4.647145271E0,-1.165976238E1,1.628057122E0
1.306579589E0,4.388571739E0,-1.106839466E1,1.886630893E0
1.308563232E0,4.192247391E0,-1.050575733E1,2.173935175E0
1.310577392E0,4.041412354E0,-9.988609314E0,2.504334927E0
1.312561035E0,3.885789394E0,-9.514557838E0,2.839523315E0
1.314544677E0,3.730166197E0,-9.062053680E0,3.117250681E0
1.316528320E0,3.675099611E0,-8.846575737E0,3.215412855E0
1.318511963E0,3.564966440E0,-8.470685959E0,3.399766445E0
1.320526123E0,3.349488258E0,-8.178592682E0,3.550601006E0
1.322479248E0,2.990357876E0,-7.931990147E0,3.655946016E0
1.324493408E0,2.528276920E0,-7.704541206E0,3.701435804E0
1.326477050E0,2.073378563E0,-7.513004780E0,3.610456228E0
1.328491211E0,1.544260144E0,-7.453149796E0,3.476380825E0
1.330474853E0,6.847416759E-1,-7.513004780E0,3.447650433E0
1.332489013E0,2.059013397E-1,-7.498639584E0,3.481169224E0
1.334472656E0,1.532289088E-1,-7.493851185E0,3.555389643E0
1.336456298E0,2.537853718E-1,-7.594407558E0,3.545812607E0
1.338439941E0,2.394201756E-1,-7.754819393E0,3.473986626E0
1.340423584E0,1.005564705E-1,-7.872135162E0,3.464409828E0
1.342437744E0,-9.576806426E-2,-7.977479935E0,3.617638826E0
1.344421386E0,-1.340752989E-1,-8.111555099E0,3.715801001E0
1.346405029E0,-1.508347094E-1,-8.248024940E0,3.687070608E0
1.348419189E0,-3.280056417E-1,-8.355764389E0,3.495534420E0
1.350433349E0,-8.834604025E-1,-8.497021675E0,3.222595453E0
1.352416992E0,-1.213860273E0,-8.556877136E0,2.858676910E0
1.354400634E0,-1.096544385E0,-8.580819130E0,2.585737944E0
1.356384277E0,-7.110779285E-1,-8.566453934E0,2.475604534E0
1.358398437E0,-2.274491638E-1,-8.489839554E0,2.449268341E0
1.360382080E0,1.101332754E-1,-8.422801971E0,2.425326347E0
1.362396240E0,1.388636976E-1,-8.365341187E0,2.406172752E0
1.364379882E0,1.915361360E-2,-8.319850922E0,2.408566952E0
1.366363525E0,-3.830722719E-2,-8.267178535E0,2.422932148E0
1.368347168E0,-7.422025502E-2,-8.224082947E0,2.437297344E0
1.370361328E0,-1.436520964E-1,-8.190564156E0,2.470816135E0
1.372344970E0,-3.543418646E-1,-8.212111473E0,2.542642117E0
1.374359130E0,-7.517793179E-1,-8.276755333E0,2.557007313E0
1.376342773E0,-9.050082564E-1,-8.224082947E0,2.528276920E0
1.378356933E0,-6.967126727E-1,-8.142680168E0,2.588132143E0
1.380340576E0,-3.399766386E-1,-8.111555099E0,2.770091295E0
1.382354736E0,-7.422025502E-2,-8.109161377E0,2.983175278E0
1.384338379E0,5.506663769E-2,-8.092401505E0,3.122039080E0
1.386352539E0,1.149216816E-1,-8.063671112E0,3.160346270E0
1.388336181E0,1.867477298E-1,-8.013393402E0,3.160346270E0
1.390350341E0,3.184288144E-1,-7.982268333E0,3.165134668E0
1.392333984E0,5.195417404E-1,-7.977479935E0,3.213018656E0
1.394317627E0,7.015010715E-1,-7.972691536E0,3.275267839E0
1.396301269E0,8.619126081E-1,-7.953537941E0,3.306392431E0
1.398284912E0,9.935936928E-1,-7.939172745E0,3.284844637E0
1.400299072E0,1.139639974E0,-7.929595947E0,3.213018656E0
1.402282714E0,1.316810966E0,-7.915230751E0,3.095702887E0
1.404266357E0,1.544260144E0,-7.924807549E0,2.928108692E0
1.406280517E0,1.800439715E0,-7.972691536E0,2.691082716E0
1.408264160E0,1.984793186E0,-8.056488991E0,2.425326347E0
1.410247802E0,2.087743998E0,-8.145073891E0,2.157175779E0
1.412261963E0,2.200271368E0,-8.219294548E0,1.922544003E0
1.414245605E0,2.343923569E0,-8.281543732E0,1.731007814E0
1.416259765E0,2.492363930E0,-8.336610794E0,1.572990537E0
1.418273925E0,2.616862535E0,-8.389283180E0,1.438915253E0
1.420257568E0,2.750937700E0,-8.432378769E0,1.331176162E0
1.422210693E0,2.870647907E0,-8.485051155E0,1.271321058E0
1.424224853E0,2.954444885E0,-8.547300339E0,1.249773264E0
1.426208496E0,3.011905670E0,-8.599972725E0,1.247379065E0
1.428222656E0,3.026270866E0,-8.650250435E0,1.259350061E0
1.430206298E0,3.019088268E0,-8.714894295E0,1.283292055E0
1.432220459E0,2.978386879E0,-8.779537201E0,1.292868972E0
1.434204101E0,2.947262287E0,-8.844181061E0,1.271321058E0
1.436187744E0,2.978386879E0,-8.904036522E0,1.221042871E0
1.438171386E0,3.038241863E0,-8.959102631E0,1.158793569E0
1.440155029E0,3.095702887E0,-9.021351814E0,1.084573388E0
1.442169189E0,3.098097086E0,-9.102754593E0,1.012747288E0
1.444152832E0,3.052607059E0,-9.167398453E0,9.768342972E-1
1.446166992E0,3.002328873E0,-9.220070839E0,9.935936928E-1
1.448150634E0,2.908955097E0,-9.275136948E0,1.041477680E0
1.450134277E0,2.798821688E0,-9.318233490E0,1.098938584E0
1.452117920E0,2.743755102E0,-9.366117477E0,1.180341482E0
1.454132080E0,2.731784105E0,-9.399636269E0,1.292868972E0
1.456115722E0,2.693476915E0,-9.409213066E0,1.422155857E0
1.458099365E0,2.607285738E0,-9.402029991E0,1.556231141E0
1.460083007E0,2.549824715E0,-9.382876396E0,1.697489023E0
1.462097168E0,2.535459518E0,-9.284713745E0,1.853112102E0
1.464080810E0,2.616862535E0,-9.196128845E0,1.980004787E0
1.466064453E0,2.810792685E0,-9.155426979E0,2.042253971E0
1.468048095E0,2.959233284E0,-9.141061783E0,2.080561161E0
1.470062255E0,2.844311714E0,-9.119514465E0,2.104503393E0
1.472045898E0,2.659958124E0,-9.059659004E0,2.116474390E0
1.474060058E0,2.614468336E0,-8.968679428E0,2.147598982E0
1.476074218E0,2.636016130E0,-8.901641846E0,2.178723574E0
1.478057861E0,2.552218914E0,-8.882488251E0,2.171540976E0
1.480041504E0,2.157175779E0,-8.983044624E0,2.135627985E0
1.482025146E0,1.625662923E0,-9.074024200E0,2.147598982E0
1.484008789E0,1.608903527E0,-9.026140213E0,2.157175779E0
1.486022949E0,2.039859772E0,-8.927978516E0,2.183511972E0
1.488006591E0,2.655169725E0,-8.755595207E0,2.224213362E0
1.490020752E0,3.275267839E0,-8.628703117E0,2.097320795E0
1.492004394E0,3.586514235E0,-8.602366447E0,1.936909199E0
1.493988037E0,3.263296843E0,-8.590395927E0,1.975216389E0
1.495971679E0,2.688688517E0,-8.547300339E0,2.047042370E0
1.497955322E0,2.410961151E0,-8.504204750E0,2.109291792E0
1.499969482E0,2.425326347E0,-8.506598473E0,2.140416384E0
1.501953125E0,2.549824715E0,-8.530540466E0,2.102109194E0
1.503967285E0,2.729389906E0,-8.547300339E0,2.015917778E0
1.505950927E0,2.916137695E0,-8.564059258E0,1.886630893E0
1.507934570E0,2.892195702E0,-8.568847656E0,1.845929503E0
1.509918213E0,2.707842112E0,-8.576030731E0,1.821987510E0
1.511932373E0,2.566584110E0,-8.590395927E0,1.824381709E0
1.513916015E0,2.607285738E0,-8.597578049E0,1.814804912E0
1.515930175E0,3.090914488E0,-8.556877136E0,1.707065821E0
1.517944336E0,3.390189648E0,-8.566453934E0,1.599326730E0
1.519927978E0,2.695871115E0,-8.571242332E0,1.640028119E0
1.521911621E0,1.936909199E0,-8.556877136E0,1.690306425E0
1.523895263E0,1.735796213E0,-8.592789650E0,1.726219416E0
1.525878906E0,1.994369984E0,-8.662221909E0,1.678335428E0
1.527862548E0,2.279279947E0,-8.734047890E0,1.594538331E0
1.529846191E0,2.454056740E0,-8.781931877E0,1.513135433E0
1.531829834E0,2.722207308E0,-8.784325600E0,1.426944256E0
1.533843994E0,3.038241863E0,-8.791508675E0,1.314416766E0
1.535827636E0,2.631227732E0,-8.844181061E0,1.309628367E0
1.537811279E0,2.020706177E0,-8.887276649E0,1.355118155E0
1.539794922E0,2.274491549E0,-8.880094528E0,1.326387763E0
1.541809082E0,2.410961151E0,-8.968679428E0,1.221042871E0
1.543792724E0,1.656787634E0,-9.236829758E0,1.230619669E0
1.545776367E0,8.092401624E-1,-9.416395187E0,1.321599364E0
1.547760009E0,9.528923035E-1,-9.488221169E0,1.314416766E0
1.549774170E0,1.414973259E0,-9.557653427E0,1.237802267E0
1.551757812E0,1.640028119E0,-9.631873131E0,1.118092179E0
1.553771972E0,1.680729628E0,-9.670180321E0,1.003170490E0
1.555786132E0,2.039859772E0,-9.583989143E0,1.039083481E0
1.557769775E0,2.542642117E0,-9.483432770E0,1.156399369E0
1.559753418E0,2.403778553E0,-9.548076630E0,1.070208192E0
1.561737060E0,1.836352706E0,-9.579200745E0,9.672574997E-1
1.563720703E0,1.362300754E0,-9.639056206E0,9.385270476E-1
1.565734863E0,9.576807022E-1,-9.727641106E0,9.026140571E-1
1.567718505E0,7.829039693E-1,-9.842563629E0,8.379706144E-1
1.569732666E0,8.810662031E-1,-9.921571732E0,8.331822157E-1
1.571716308E0,1.084573388E0,-9.938331604E0,9.864110947E-1
1.573699951E0,1.273715258E0,-9.952696800E0,1.005564690E0
1.575683593E0,1.783680320E0,-9.854534149E0,1.180341482E0
1.577667236E0,1.948880196E0,-9.888052940E0,1.350329757E0
1.579650879E0,1.256955862E0,-9.957485199E0,1.273715258E0
1.581634521E0,6.919242740E-1,-9.935936928E0,1.300051570E0
1.583618164E0,6.607996821E-1,-9.933543205E0,1.391031146E0
1.585632324E0,7.876923680E-1,-9.981427193E0,1.379060149E0
1.587646484E0,1.024718285E0,-9.907206535E0,1.391031146E0
1.589630127E0,1.484405041E0,-9.806650162E0,1.651999116E0
1.591613769E0,1.431732655E0,-9.849745750E0,1.788468719E0
1.593597412E0,1.120486379E0,-9.828198433E0,1.869871497E0
1.595611572E0,7.302315235E-1,-9.837775230E0,2.023100376E0
1.597595214E0,3.423708379E-1,-9.907206535E0,2.109291792E0
1.599609375E0,2.130839527E-1,-1.001255131E1,2.126051188E0
1.601593017E0,2.705447972E-1,-1.006282997E1,2.238578558E0
1.603607177E0,5.219359994E-1,-1.003888798E1,2.434903145E0
1.605590820E0,8.882488012E-1,-1.003170490E1,2.578555346E0
1.607604980E0,1.012747288E0,-9.979032516E0,2.707842112E0
1.609588623E0,1.163581967E0,-9.830592155E0,3.028665066E0
1.611602783E0,1.596932530E0,-9.847352028E0,3.098097086E0
1.613586425E0,1.400607944E0,-9.976638794E0,3.177105665E0
1.615600586E0,7.996633649E-1,-9.950302124E0,3.387795448E0
1.617584228E0,4.932055473E-1,-9.935936928E0,3.552995205E0
1.619598388E0,5.530605912E-1,-1.001015759E1,3.567360640E0
1.621582031E0,6.440402865E-1,-1.005325317E1,3.569754839E0
1.623565673E0,7.637503147E-1,-9.983820915E0,3.734954596E0
1.625579834E0,9.528923035E-1,-9.844957352E0,3.940855980E0
1.627563476E0,1.556231141E0,-9.691728592E0,4.115632534E0
1.629547119E0,1.898601890E0,-9.809044838E0,4.161122322E0
1.631530761E0,1.496376038E0,-9.873687744E0,4.307168961E0
1.633544922E0,9.672574997E-1,-9.902418137E0,4.407725334E0
1.635528564E0,7.613561153E-1,-9.955090523E0,4.402936935E0
1.637542724E0,8.667010069E-1,-1.003888798E1,4.333505154E0
1.639526367E0,1.264138460E0,-1.012268448E1,4.103661537E0
1.641540527E0,1.453280449E0,-9.943120003E0,4.197035789E0
1.643524170E0,1.283292055E0,-9.895236015E0,4.297592163E0
1.645538330E0,8.379706144E-1,-9.995792389E0,4.295197964E0
1.647521972E0,5.770025849E-1,-9.976638794E0,4.153939724E0
1.649536132E0,5.793967843E-1,-9.859322548E0,4.125209332E0
1.651550293E0,7.805097699E-1,-9.830592155E0,4.022258759E0
1.653533935E0,1.259350061E0,-9.797073364E0,3.885789394E0
1.655517578E0,1.582567334E0,-9.634267807E0,3.837905407E0
1.657501220E0,1.340752959E0,-9.615114212E0,3.512293816E0
1.659484863E0,7.158663273E-1,-9.555258751E0,3.418920040E0
1.661468505E0,3.543418646E-1,-9.385271072E0,3.327940464E0
1.663452148E0,6.081272364E-1,-9.222464561E0,3.234566450E0
1.665466308E0,1.070208192E0,-9.093177795E0,3.105279684E0
1.667480468E0,1.314416766E0,-9.018958092E0,2.947262287E0
1.669464111E0,1.668758631E0,-8.875306129E0,2.877830505E0
1.671447754E0,1.769315004E0,-8.755595207E0,3.071760893E0
1.673431396E0,1.594538331E0,-8.887276649E0,3.181894064E0
1.675445556E0,1.551442742E0,-8.985439301E0,3.145981073E0
1.677429199E0,1.625662923E0,-9.062053680E0,3.102885485E0
1.679443359E0,1.572990537E0,-9.188945770E0,3.205836058E0
1.681427002E0,1.371877551E0,-9.387664795E0,3.347094059E0
1.683441162E0,1.041477680E0,-9.636661530E0,3.701435804E0
1.685424804E0,8.331822157E-1,-9.911994934E0,4.067748547E0
1.687438964E0,8.307880163E-1,-1.020887566E1,4.311957359E0
1.689422607E0,1.156399369E0,-1.053448772E1,4.280832767E0
1.691436767E0,1.007958889E0,-1.077630138E1,3.993528366E0
1.693420410E0,3.926490843E-1,-1.061589050E1,4.742913723E0
1.695434570E0,4.237737060E-1,-1.072362900E1,5.171475887E0
1.697418213E0,4.070142806E-1,-1.096304989E1,5.193023682E0
1.699432373E0,1.939303428E-1,-1.109233665E1,5.267243862E0
1.701416015E0,-9.576806799E-3,-1.110909557E1,5.353435040E0
1.703399658E0,-1.484405100E-1,-1.105642319E1,5.358223438E0
1.705383300E0,-4.548983276E-2,-1.094868469E1,5.339069843E0
1.707397461E0,1.963245422E-1,-1.085770512E1,5.042188644E0
1.709381103E0,-2.082955539E-1,-1.074517727E1,5.068524837E0
1.711364746E0,-3.423708379E-1,-1.066377449E1,5.281609058E0
1.713348388E0,-2.609679997E-1,-1.049378586E1,5.623979568E0
1.715332031E0,-7.422025502E-2,-1.037407589E1,5.643133640E0
1.717346191E0,8.140286058E-2,-1.029985619E1,5.540182590E0
1.719329834E0,3.543418646E-1,-1.030464458E1,5.434837818E0
1.721343994E0,6.799532771E-1,-1.044111347E1,5.066130638E0
1.723327636E0,6.607996821E-1,-1.028788471E1,4.999093056E0
1.725341797E0,8.595184088E-1,-1.000536919E1,5.355829239E0
1.727325439E0,1.280897856E0,-9.639056206E0,5.798756599E0
1.729339599E0,1.704671621E0,-9.399636269E0,6.062118530E0
1.731323242E0,2.042253971E0,-9.289502144E0,6.064512730E0
1.733306884E0,2.269703150E0,-9.160215378E0,5.932831764E0
1.735290527E0,2.485181332E0,-9.011775017E0,5.813121796E0
1.737274170E0,2.777273893E0,-8.841787338E0,5.779603004E0
1.739288330E0,3.066972494E0,-8.650250435E0,5.839457989E0
1.741271972E0,3.315969467E0,-8.477868080E0,5.937620163E0
1.743225097E0,3.581725836E0,-8.312667847E0,5.975927353E0
1.745239257E0,3.816357613E0,-8.145073891E0,5.971138954E0
1.747222900E0,4.012681961E0,-7.982268333E0,5.968744755E0
1.749206543E0,4.228160381E0,-7.855375767E0,5.949591160E0
1.751190185E0,4.477157116E0,-7.747636795E0,5.899312973E0
1.753173828E0,4.697423935E0,-7.623138428E0,5.935225964E0
1.755187988E0,4.893748283E0,-7.501033783E0,6.272808552E0
1.757171630E0,5.066130638E0,-7.474697590E0,6.124367714E0
1.759185791E0,5.331887245E0,-7.393294811E0,5.667075634E0
1.761169433E0,5.583278179E0,-7.268796444E0,5.427655220E0
1.763183593E0,5.746084213E0,-7.137115479E0,5.480327606E0
1.765167236E0,5.940014362E0,-7.060500622E0,5.573701382E0
1.767181396E0,6.193799973E0,-7.010222435E0,5.724536419E0
1.769165039E0,6.339846134E0,-6.983886242E0,5.765237808E0
1.771179199E0,6.461950302E0,-6.940790653E0,5.509057999E0
1.773162841E0,6.643909931E0,-6.919242859E0,5.322310448E0
1.775177002E0,6.519411087E0,-6.758831501E0,5.573701382E0
1.777160644E0,6.538564682E0,-6.689399719E0,5.928043365E0
1.779174804E0,6.710947514E0,-6.739677906E0,5.904101372E0
1.781127929E0,6.720524311E0,-6.813898087E0,5.592854977E0
1.783142089E0,6.672640324E0,-6.928819656E0,5.394136429E0
1.785125732E0,6.706159115E0,-7.015010834E0,5.396530628E0
1.787139892E0,6.770802498E0,-7.094019413E0,5.240907669E0
1.789154052E0,6.756437302E0,-7.228095055E0,4.857835293E0
1.791137695E0,6.464344501E0,-7.266402245E0,4.611232281E0
1.793121338E0,6.315904140E0,-7.335834026E0,4.410119534E0
1.795104980E0,6.351817131E0,-7.520187378E0,4.161122322E0
1.797119140E0,6.205770969E0,-7.723694801E0,3.892971992E0
1.799102783E0,5.817910194E0,-7.881711960E0,3.485957623E0
1.801116943E0,5.501875401E0,-7.965508938E0,3.193865061E0
1.803100586E0,5.317522049E0,-8.034940720E0,3.069366693E0
1.805084228E0,5.284003258E0,-8.142680168E0,3.038241863E0
1.807067871E0,5.032611847E0,-8.152256966E0,3.107673883E0
1.809082031E0,4.592078686E0,-8.068459511E0,2.990357876E0
1.811065673E0,4.326322556E0,-7.994239330E0,2.607285738E0
1.813079834E0,4.199429989E0,-7.977479935E0,2.291250944E0
1.815093994E0,3.967192173E0,-8.027758598E0,2.284068346E0
1.817077636E0,3.993528366E0,-8.087613106E0,2.454056740E0
1.819061279E0,4.273650169E0,-8.058882713E0,2.523488522E0
1.821044922E0,3.928884983E0,-8.152256966E0,2.252943754E0
1.823059082E0,3.114856482E0,-8.305485725E0,1.939303398E0
1.825042724E0,2.645592928E0,-8.458714485E0,1.719036818E0
1.827026367E0,2.602497339E0,-8.662221909E0,1.582567334E0
1.829010009E0,2.719813108E0,-8.925583839E0,1.510741234E0
1.831024170E0,2.616862535E0,-9.210494041E0,1.441309452E0
1.833007812E0,2.245761156E0,-9.490615845E0,1.273715258E0
1.835021972E0,1.968033791E0,-9.751583099E0,1.240196466E0
1.837036132E0,1.580173135E0,-1.004367638E1,1.084573388E0
1.839019775E0,1.177947283E0,-1.035971069E1,8.547300100E-1
1.841003418E0,8.667010069E-1,-1.064462090E1,7.278373241E-1
1.843017578E0,7.182605267E-1,-1.090798283E1,7.445967197E-1
1.845001220E0,6.105214357E-1,-1.122162342E1,8.499416113E-1
1.847015380E0,4.955997467E-1,-1.154244614E1,9.888052940E-1
1.849029541E0,2.849099934E-1,-1.190157700E1,9.672574997E-1
1.851013183E0,7.661445439E-2,-1.230380249E1,8.523358107E-1
1.852996826E0,-7.661445439E-2,-1.274672985E1,7.230489254E-1
1.855010986E0,-1.939303428E-1,-1.319923401E1,6.129156351E-1
1.856994629E0,-1.915361285E-1,-1.365892029E1,4.908113480E-1
1.859008789E0,-7.422025502E-2,-1.411142445E1,3.782838583E-1
1.860961914E0,1.077390760E-1,-1.456632328E1,3.064578176E-1
1.862976074E0,1.819593310E-1,-1.503558636E1,2.729389966E-1
1.864959716E0,1.963245422E-1,-1.547851372E1,3.136404157E-1
1.866973877E0,2.035071403E-1,-1.585679817E1,4.525041282E-1
1.868988037E0,2.513911724E-1,-1.625662994E1,5.482721925E-1
1.870971679E0,1.149216816E-1,-1.660618210E1,5.410895944E-1
1.872955322E0,-1.843535304E-1,-1.698207283E1,4.620809257E-1
1.874938964E0,-4.094084799E-1,-1.731965446E1,4.405331016E-1
1.876953125E0,-5.602431893E-1,-1.753513336E1,5.075707436E-1
1.878936767E0,-6.464344859E-1,-1.770272827E1,6.655880809E-1
1.880950927E0,-7.589619160E-1,-1.780807304E1,8.092401624E-1
1.882934570E0,-8.738836050E-1,-1.782483101E1,9.241618514E-1
1.884918213E0,-9.959878922E-1,-1.778652382E1,1.003170490E0
1.886901855E0,-1.096544385E0,-1.772188187E1,1.034295082E0
1.888916015E0,-1.144428372E0,-1.760695839E1,1.053448796E0
1.890899658E0,-1.158793569E0,-1.747048950E1,1.017535686E0
1.892913818E0,-1.132457376E0,-1.730768394E1,9.648633003E-1
1.894927978E0,-1.067813993E0,-1.715445518E1,8.930372596E-1
1.896911621E0,-9.313444495E-1,-1.700362015E1,8.116343617E-1
1.898895263E0,-7.781155705E-1,-1.684081459E1,7.469909191E-1
1.900878906E0,-6.368576288E-1,-1.670673943E1,7.206547260E-1
1.902862548E0,-4.381389022E-1,-1.661815453E1,7.302315235E-1
1.904876709E0,-1.771709323E-1,-1.652478027E1,7.565677166E-1
1.906860351E0,7.422025502E-2,-1.644337654E1,8.140285611E-1
1.908874511E0,2.849099934E-1,-1.639309883E1,9.002198577E-1
1.910858154E0,4.955997467E-1,-1.633085060E1,9.816226959E-1
1.912841797E0,6.368576288E-1,-1.627338982E1,1.106121182E0
1.914825439E0,7.398083210E-1,-1.620395660E1,1.244984865E0
1.916809082E0,9.792284966E-1,-1.611297798E1,1.295263171E0
1.918823242E0,1.352723956E0,-1.599087334E1,1.259350061E0
1.920776367E0,1.553836942E0,-1.592144108E1,1.233013868E0
1.922790527E0,1.845929503E0,-1.579933739E1,1.233013868E0
1.924774170E0,1.984793186E0,-1.570596313E1,1.309628367E0
1.926788330E0,2.085349798E0,-1.557667637E1,1.381454349E0
1.928771972E0,2.171540976E0,-1.539711094E1,1.395819545E0
1.930786132E0,2.183511972E0,-1.517205620E1,1.304839969E0
1.932769775E0,2.090138197E0,-1.489193439E1,1.233013868E0
1.934753418E0,2.008735180E0,-1.458787060E1,1.228225470E0
1.936737060E0,1.984793186E0,-1.430056667E1,1.175553083E0
1.938751220E0,2.075772762E0,-1.400847435E1,9.935936928E-1
1.940734863E0,2.209848166E0,-1.370441055E1,7.613561153E-1
1.942749023E0,2.341529369E0,-1.339795303E1,6.057330370E-1
1.944732666E0,2.420537949E0,-1.306276417E1,5.626373887E-1
1.946746826E0,2.444479942E0,-1.267969227E1,5.410895944E-1
1.948730468E0,2.413355350E0,-1.224155331E1,4.764461517E-1
1.950744629E0,2.384624958E0,-1.172440529E1,3.471592367E-1
1.952758789E0,2.370259762E0,-1.116176796E1,2.035071403E-1
1.954742431E0,2.398990154E0,-1.060391903E1,7.422025502E-2
1.956726074E0,2.499546528E0,-1.003409958E1,-5.267243832E-2
1.958709716E0,2.712630510E0,-9.265560150E0,-7.182604820E-2
1.960723877E0,3.119644880E0,-8.631096840E0,-7.900865376E-2
1.962707519E0,3.450044632E0,-8.456320763E0,-4.596867263E-1
1.964691162E0,3.562572241E0,-8.355764389E0,-8.978256583E-1
1.966705322E0,3.533841610E0,-8.066065788E0,-1.015141487E0
1.968688964E0,3.485957623E0,-7.922413349E0,-1.048660398E0
1.970672607E0,3.361459255E0,-7.857769966E0,-1.082179189E0
1.972656250E0,3.275267839E0,-7.802703381E0,-1.070208192E0
1.974639892E0,3.318363667E0,-7.793126583E0,-1.113303781E0
1.976654052E0,3.411737442E0,-7.807491779E0,-1.144428372E0
1.978637695E0,3.440467834E0,-7.898471355E0,-1.142034173E0
1.980651855E0,3.418920040E0,-8.013393402E0,-1.115697980E0
1.982635498E0,3.450044632E0,-8.104372978E0,-1.122880578E0
1.984619140E0,3.485957623E0,-8.173804283E0,-1.142034173E0
1.986602783E0,3.536235809E0,-8.231265068E0,-1.211466074E0
1.988586425E0,3.641580820E0,-8.291120529E0,-1.319205165E0
1.990570068E0,3.737348795E0,-8.307879448E0,-1.419761658E0
1.992584228E0,3.816357613E0,-8.269572258E0,-1.527500629E0
1.994567871E0,3.871424198E0,-8.221688271E0,-1.613691926E0
1.996582031E0,3.928884983E0,-8.176198959E0,-1.642422318E0
1.998565673E0,3.916913986E0,-8.087613106E0,-1.620874524E0
2.000579834E0,3.821146011E0,-8.027758598E0,-1.575384736E0
2.002563476E0,3.663128614E0,-8.068459511E0,-1.592144132E0
2.004547119E0,3.452438831E0,-8.061277390E0,-1.649604917E0
2.006530761E0,3.236960649E0,-7.984662533E0,-1.699883223E0
2.008544922E0,3.126827478E0,-7.920019150E0,-1.738190413E0
2.010528564E0,3.208230257E0,-7.881711960E0,-1.776497602E0
2.012542724E0,3.390189648E0,-7.848193169E0,-1.781286120E0
2.014526367E0,3.667917013E0,-7.656657219E0,-1.651999116E0
2.016540527E0,4.029441357E0,-7.496245384E0,-1.424550056E0
2.018493652E0,4.192247391E0,-7.429207802E0,-1.283292055E0
2.020507812E0,4.192247391E0,-7.326257229E0,-1.163581967E0
2.022491455E0,4.070142746E0,-7.350199223E0,-1.235408068E0
2.024505615E0,3.878606796E0,-7.453149796E0,-1.340752959E0
2.026489257E0,3.677493811E0,-7.539340973E0,-1.398213744E0
2.028503418E0,3.488351822E0,-7.570465565E0,-1.338358760E0
2.030487060E0,3.248931646E0,-7.546523571E0,-1.177947283E0
2.032470703E0,3.050212860E0,-7.496245384E0,-1.034295082E0
2.034454345E0,2.906560898E0,-7.414842606E0,-9.121908545E-1
2.036437988E0,2.758120298E0,-7.364564419E0,-7.781155705E-1
2.038452148E0,2.571372509E0,-7.350199223E0,-6.153098345E-1
2.040435791E0,2.394201756E0,-7.287950039E0,-3.639186621E-1
2.042449951E0,2.250549555E0,-7.280767441E0,-1.556231081E-1
2.044433593E0,2.152387381E0,-7.287950039E0,4.070143029E-2
2.046417236E0,2.063801765E0,-7.299921036E0,2.825157940E-1
2.048400879E0,2.018311977E0,-7.275979042E0,5.219359994E-1
2.050415039E0,1.996764183E0,-7.223306656E0,7.757213712E-1
2.052398681E0,1.929726601E0,-7.177816868E0,1.029506683E0
2.054412841E0,1.814804912E0,-7.127538681E0,1.288080573E0
2.056427002E0,1.671152830E0,-7.125144482E0,1.534683347E0
2.058410644E0,1.477222443E0,-7.218518257E0,1.656787634E0
2.060363769E0,1.197100878E0,-7.259219646E0,1.759738207E0
2.062377929E0,9.361328483E-1,-7.161057472E0,1.939303398E0
2.064361572E0,7.685387731E-1,-7.036558628E0,2.118868589E0
2.066375732E0,6.799532771E-1,-6.955155849E0,2.267308950E0
2.068359375E0,6.967126727E-1,-6.758831501E0,2.466027737E0
2.070373535E0,9.768342972E-1,-6.490680695E0,2.655169725E0
2.072357177E0,1.142034173E0,-6.526593685E0,2.525882721E0
2.074340820E0,1.134851575E0,-6.505045891E0,2.420537949E0
2.076354980E0,9.935936928E-1,-6.536170483E0,2.193088770E0
2.078338623E0,7.996633649E-1,-6.667851925E0,1.920149803E0
2.080352783E0,5.339069963E-1,-6.799532890E0,1.745373011E0
2.082336425E0,2.202665508E-1,-6.888118267E0,1.623268723E0
2.084320068E0,-7.422025502E-2,-6.921637058E0,1.525106430E0
2.086303711E0,-3.423708379E-1,-6.945579052E0,1.431732655E0
2.088287353E0,-6.200982332E-1,-7.010222435E0,1.328781962E0
2.090270996E0,-9.145850539E-1,-7.070077419E0,1.189918280E0
2.092285156E0,-1.137245774E0,-7.017405033E0,1.120486379E0
2.094299316E0,-1.223437071E0,-6.912060261E0,1.132457376E0
2.096282959E0,-1.225831270E0,-6.725312710E0,1.216254473E0
2.098266601E0,-1.134851575E0,-6.375759125E0,1.410184860E0
2.100280761E0,-9.121908545E-1,-6.148310184E0,1.453280449E0
2.102264404E0,-8.427590132E-1,-6.184223175E0,1.242590666E0
2.104248047E0,-9.600749016E-1,-6.361393929E0,9.720458984E-1
2.106231689E0,-1.098938584E0,-6.584054470E0,7.852981687E-1
2.108215332E0,-1.180341482E0,-6.660669327E0,7.613561153E-1
2.110198974E0,-1.426944256E0,-6.660669327E0,8.403648138E-1
2.112213134E0,-1.671152830E0,-6.545747280E0,9.600749016E-1
2.114196777E0,-1.821987510E0,-6.318298340E0,1.115697980E0
2.116210937E0,-1.666364431E0,-5.956773758E0,1.422155857E0
2.118225097E0,-1.556231141E0,-5.920860767E0,1.426944256E0
2.120208740E0,-1.616086125E0,-6.045359135E0,1.333570361E0
2.122192382E0,-1.661576033E0,-5.947196960E0,1.503558636E0
2.124206543E0,-1.551442742E0,-6.040570736E0,1.458068848E0
2.126190185E0,-1.434126854E0,-6.287173748E0,1.331176162E0
2.128173828E0,-1.654393315E0,-6.430825710E0,1.223437071E0
2.130157470E0,-1.999158382E0,-6.548141479E0,1.130063176E0
2.132141113E0,-2.296039343E0,-6.533776283E0,1.187524080E0
2.134155273E0,-2.387019157E0,-6.315904140E0,1.482010841E0
2.136138916E0,-2.269703150E0,-6.086060524E0,1.829170108E0
2.138153076E0,-1.958456993E0,-6.002263546E0,2.035071373E0
2.140136718E0,-1.503558636E0,-5.999869347E0,2.138022184E0
2.142150879E0,-1.228225470E0,-5.995080948E0,2.221819162E0
2.144134521E0,-1.170764685E0,-5.992686749E0,2.293645144E0
2.146148681E0,-1.142034173E0,-6.004657745E0,2.367865562E0
2.148132324E0,-8.092401624E-1,-5.808333397E0,2.609679937E0
2.150146484E0,-3.687070608E-1,-5.724536419E0,2.813186884E0
2.152160644E0,-4.309563041E-1,-6.021417141E0,2.616862535E0
2.154144287E0,-6.129156351E-1,-6.277596951E0,2.410961151E0
2.156127929E0,-4.932055473E-1,-6.430825710E0,2.410961151E0
2.158111572E0,-3.112462163E-1,-6.318298340E0,2.652775526E0
2.160064697E0,-2.035071403E-1,-6.071695328E0,2.861071110E0
2.162078857E0,-3.112462163E-2,-5.959167957E0,2.928108692E0
2.164062500E0,3.471592367E-1,-5.899312973E0,2.983175278E0
2.166076660E0,1.187524080E0,-5.695806026E0,3.268085241E0
2.168090820E0,1.644816518E0,-5.870582581E0,3.227383852E0
2.170074463E0,1.549048543E0,-6.315904140E0,2.935291290E0
2.172058105E0,1.532289028E0,-6.687005520E0,2.741360903E0
2.174072265E0,1.549048543E0,-6.689399719E0,2.789244890E0
2.176055908E0,1.620874524E0,-6.540958881E0,2.906560898E0
2.178070068E0,1.865083098E0,-6.497863293E0,2.980781078E0
2.180053711E0,2.159569979E0,-6.562506676E0,3.021482468E0
2.182037353E0,2.468421936E0,-6.517016888E0,3.129221678E0
2.184051513E0,3.172317266E0,-6.366182327E0,3.347094059E0
2.186035156E0,3.524264812E0,-6.679822922E0,3.184288263E0
2.188018798E0,3.332728863E0,-7.170634270E0,2.899378300E0
2.190002441E0,3.150769472E0,-7.441178799E0,2.870647907E0
2.192016601E0,3.280056238E0,-7.524975777E0,3.062183857E0
2.194000244E0,3.615244627E0,-7.560888767E0,3.306392431E0
2.196014404E0,4.015076160E0,-7.623138428E0,3.526659012E0
2.198028564E0,4.407725334E0,-7.721300602E0,3.703830004E0
2.200012207E0,4.766855717E0,-7.824251175E0,3.888183594E0
2.201995849E0,5.111620426E0,-7.884106159E0,4.086902142E0
2.204010009E0,5.805939198E0,-7.656657219E0,4.390965939E0
2.205993652E0,6.339846134E0,-7.632715225E0,4.604049683E0
2.208007812E0,6.093243122E0,-8.061277390E0,4.577713490E0
2.210021972E0,5.748478413E0,-8.456320763E0,4.644751072E0
2.212005615E0,5.724536419E0,-8.623914719E0,4.886565685E0
2.213989257E0,5.995080948E0,-8.667010307E0,5.183446884E0
2.215972900E0,6.358999729E0,-8.695740700E0,5.425261021E0
2.217987060E0,6.701370716E0,-8.746018410E0,5.583278179E0
2.219970703E0,7.012616634E0,-8.817844391E0,5.702988625E0
2.221923828E0,7.513004780E0,-8.722076416E0,5.858611584E0
2.223937988E0,8.432378769E0,-8.432378769E0,6.081272125E0
2.225921630E0,8.683769226E0,-8.564059258E0,6.062118530E0
2.227905273E0,8.497021675E0,-8.913613319E0,6.038176537E0
2.229888916E0,8.255207062E0,-9.255983353E0,6.133944988E0
2.231872558E0,8.365341187E0,-9.409213066E0,6.344634533E0
2.233886718E0,8.554482460E0,-9.550470352E0,6.533776283E0
2.235870361E0,8.659827232E0,-9.746794701E0,6.591237068E0
2.237884521E0,8.949525833E0,-9.832986832E0,6.694188118E0
2.239868164E0,9.394847870E0,-9.789890289E0,6.871358871E0
2.241882324E0,1.001494598E1,-9.516951561E0,7.139509678E0
2.243865966E0,1.098699188E1,-9.129091263E0,7.513004780E0
2.245880127E0,1.142513084E1,-9.169792175E0,7.515398979E0
2.247863769E0,1.167891598E1,-9.452308655E0,7.369352818E0
2.249877929E0,1.180820274E1,-9.703699112E0,7.297526836E0
2.251861572E0,1.188481712E1,-9.859322548E0,7.311892033E0
2.253845214E0,1.199255657E1,-9.998186111E0,7.335834026E0
2.255828857E0,1.220085144E1,-1.001973438E1,7.467514992E0
2.257843017E0,1.235647488E1,-9.991003990E0,7.642292023E0
2.259826660E0,1.237562847E1,-9.971850395E0,7.817068577E0
2.261810302E0,1.230380249E1,-9.979032516E0,7.960720539E0
2.263824463E0,1.214099693E1,-1.001255131E1,8.066065788E0
2.265838623E0,1.191354752E1,-1.003170490E1,8.157045364E0
2.267822265E0,1.163342571E1,-1.004128170E1,8.238448143E0
2.269805908E0,1.134612179E1,-1.004128170E1,8.329427719E0
2.271789550E0,1.104205799E1,-1.007240677E1,8.398859978E0
2.273773193E0,1.070208168E1,-1.011310768E1,8.439560890E0
2.275756836E0,1.038125896E1,-1.013704967E1,8.451532364E0
2.277770996E0,1.004607010E1,-1.019690514E1,8.391676903E0
2.279754638E0,9.710882187E0,-1.028309631E1,8.243236542E0
2.281768798E0,9.385271072E0,-1.031182671E1,8.082824707E0
2.283752441E0,9.006986618E0,-1.027830791E1,7.891288757E0
2.285736084E0,8.561665535E0,-1.024718285E1,7.625532627E0
2.287719726E0,8.169015884E0,-1.022084713E1,7.314286232E0
2.289733886E0,7.881711960E0,-1.019929886E1,6.991068840E0
2.291717529E0,7.479485989E0,-1.006043530E1,6.742072105E0
2.293731689E0,6.974309444E0,-9.821015358E0,6.447585106E0
2.295745849E0,6.497863293E0,-9.600749016E0,6.124367714E0
2.297729492E0,6.117185116E0,-9.452308655E0,5.798756599E0
2.299682617E0,5.789179802E0,-9.291896820E0,5.516240597E0
2.301696777E0,5.389348030E0,-9.145850182E0,5.255272865E0
2.303680420E0,5.181052685E0,-9.179368973E0,4.910507679E0
2.305694580E0,5.015852451E0,-9.105149269E0,4.750096321E0
2.307708740E0,4.525041103E0,-8.602366447E0,4.876988888E0
2.309692382E0,4.197035789E0,-8.008605003E0,4.982333660E0
2.311676025E0,4.477157116E0,-7.422025204E0,4.979939461E0
2.313659668E0,4.695029736E0,-7.161057472E0,4.958391666E0
2.315673828E0,4.285621166E0,-7.065289021E0,4.845864296E0
2.317657470E0,3.351882458E0,-7.283161640E0,4.829104900E0
2.319671630E0,2.928108692E0,-7.357381821E0,5.037400246E0
2.321655273E0,2.928108692E0,-7.225700855E0,5.300762653E0
2.323669433E0,2.959233284E0,-7.055712223E0,5.470750809E0
2.325653076E0,2.885013103E0,-6.962338448E0,5.535394192E0
2.327667236E0,2.784456491E0,-6.947973251E0,5.521028996E0
2.329650879E0,2.717418909E0,-6.950367451E0,5.427655220E0
2.331634521E0,2.703053713E0,-6.926425457E0,5.238513470E0
2.333618164E0,2.729389906E0,-6.897695065E0,4.977545261E0
2.335632324E0,2.774879694E0,-6.888118267E0,4.661510944E0
2.337615966E0,2.849100113E0,-6.890512466E0,4.295197964E0
2.339599609E0,2.952050686E0,-6.945579052E0,3.928884983E0
2.341583252E0,3.045424461E0,-7.077260017E0,3.598485231E0
2.343597412E0,3.112462282E0,-7.268796444E0,3.318363667E0
2.345581054E0,3.138798475E0,-7.498639584E0,3.086126089E0
2.347564697E0,3.177105665E0,-7.797914982E0,2.880224705E0
2.349578857E0,3.272873640E0,-8.164227486E0,2.686294317E0
2.351562500E0,3.394978046E0,-8.578424454E0,2.461239338E0
2.353576660E0,3.485957623E0,-9.026140213E0,2.202665567E0
2.355590820E0,3.591302633E0,-9.493009567E0,1.939303398E0
2.357574463E0,3.722983599E0,-9.967061996E0,1.654393315E0
2.359527588E0,4.043806553E0,-1.044829655E1,1.383848548E0
2.361541748E0,4.232948780E0,-1.100135708E1,1.027112484E0
2.363525390E0,4.280832767E0,-1.160469532E1,7.134721279E-1
2.365539550E0,4.374206543E0,-1.217690945E1,4.788403511E-1
2.367523193E0,4.639962673E0,-1.267969227E1,3.184288144E-1
2.369537353E0,5.269638062E0,-1.310825443E1,2.226607651E-1
2.371520996E0,5.571307182E0,-1.359667110E1,1.053448766E-1
2.373504638E0,5.628767967E0,-1.417127991E1,2.394201607E-2
2.375518798E0,5.753266811E0,-1.465490818E1,1.891419291E-1
2.377502441E0,6.074089527E0,-1.508107662E1,5.315127969E-1
2.379516601E0,6.536170483E0,-1.553597450E1,8.906430602E-1
2.381500244E0,6.892906666E0,-1.591186428E1,1.467645645E0
2.383483886E0,7.187393665E0,-1.622550583E1,2.140416384E0
2.385467529E0,7.383718014E0,-1.647689629E1,2.789244890E0
2.387451172E0,7.484274387E0,-1.667322159E1,3.430891037E0
2.389434814E0,7.491456985E0,-1.674983597E1,3.881000996E0
2.391448974E0,7.376535416E0,-1.665406609E1,4.357447147E0
2.393432617E0,7.261613846E0,-1.657027054E1,4.647145271E0
2.395446777E0,7.046135426E0,-1.645055962E1,4.639962673E0
2.397460937E0,6.536170483E0,-1.607467079E1,4.668693542E0
2.399444580E0,5.884947777E0,-1.563174248E1,4.558559895E0
2.401428222E0,5.319916248E0,-1.510262394E1,4.297592163E0
2.403442382E0,4.472368717E0,-1.428380775E1,4.089296341E0
2.405426025E0,3.423708439E0,-1.353681660E1,3.675099611E0
2.407440185E0,2.829946518E0,-1.307473564E1,3.076549292E0
2.409423828E0,2.432508945E0,-1.265096188E1,2.454056740E0
2.411407470E0,1.972822189E0,-1.217451572E1,1.886630893E0
2.413391113E0,1.441309452E0,-1.175553036E1,1.304839969E0
2.415405273E0,8.714894056E-1,-1.122401714E1,8.140285611E-1
2.417358398E0,4.022258818E-1,-1.054166985E1,5.698199868E-1
2.419372558E0,-2.394201700E-3,-9.900024414E0,3.663128614E-1
2.421356201E0,-3.399766386E-1,-9.346963882E0,1.364694983E-1
2.423370361E0,-5.458779931E-1,-8.872911453E0,-9.337386489E-2
2.425384521E0,-7.517793179E-1,-8.487444878E0,-3.567360640E-1
2.427368164E0,-1.000776291E0,-8.113949776E0,-6.224924326E-1
2.429351806E0,-1.254561663E0,-7.776367188E0,-8.834604025E-1
2.431335449E0,-1.470039845E0,-7.491456985E0,-1.137245774E0
2.433319091E0,-1.637633920E0,-7.242460251E0,-1.338358760E0
2.435302734E0,-1.879448295E0,-7.053318024E0,-1.505952835E0
2.437316894E0,-2.118868589E0,-6.878541470E0,-1.580173135E0
2.439300537E0,-2.387019157E0,-6.703764915E0,-1.517923832E0
2.441253662E0,-2.700659513E0,-6.548141479E0,-1.328781962E0
2.443267822E0,-3.021482468E0,-6.418854713E0,-1.043871999E0
2.445251464E0,-3.330334663E0,-6.370970726E0,-7.302315235E-1
2.447235107E0,-3.600879431E0,-6.342240334E0,-3.495534360E-1
2.449218750E0,-3.845088005E0,-6.354211330E0,9.816227108E-2
2.451202392E0,-3.952826977E0,-6.363788128E0,6.033388376E-1
2.453216552E0,-4.017470360E0,-6.373364925E0,1.089361787E0
2.455200195E0,-4.144362926E0,-6.394912720E0,1.398213744E0
2.457214355E0,-4.292803764E0,-6.335057735E0,1.817199111E0
2.459197998E0,-4.544194698E0,-6.311115742E0,2.585737944E0
2.461212158E0,-4.884171486E0,-6.418854713E0,3.648763418E0
2.463195800E0,-5.197812080E0,-6.655880928E0,4.707000732E0
2.465209961E0,-5.453991413E0,-6.955155849E0,5.497087002E0
2.467193603E0,-5.588066578E0,-7.311892033E0,5.849034786E0
2.469207763E0,-5.444414616E0,-7.738059998E0,5.784391403E0
2.471191406E0,-5.018246651E0,-8.276755333E0,5.415684223E0
2.473175048E0,-4.510675907E0,-8.865729332E0,4.944026470E0
2.475158691E0,-3.979163170E0,-9.306262016E0,4.580107689E0
2.477142334E0,-3.457227230E0,-9.715670586E0,4.252102375E0
2.479156494E0,-3.004723072E0,-1.016578007E1,3.881000996E0
2.481140136E0,-2.626439333E0,-1.061110210E1,3.426102638E0
2.483154297E0,-2.312798738E0,-1.087207031E1,2.966415882E0
2.485137939E0,-1.877054095E0,-1.127668953E1,2.353500366E0
2.487121582E0,-1.343147159E0,-1.189200020E1,1.510741234E0
2.489105224E0,-8.331822157E-1,-1.251209831E1,6.727706790E-1
2.491088867E0,-4.022258818E-1,-1.313219643E1,-5.267243832E-2
2.493103027E0,-3.351882473E-2,-1.378341961E1,-6.967126727E-1
2.495086670E0,4.477157295E-1,-1.431493187E1,-1.228225470E0
2.497100830E0,1.139639974E0,-1.473391724E1,-1.651999116E0
2.499053955E0,1.898601890E0,-1.511459541E1,-1.939303398E0
2.501068115E0,2.272097349E0,-1.528937244E1,-2.023100376E0
2.503051757E0,3.043030262E0,-1.558385849E1,-2.047042370E0
2.505065918E0,3.835511208E0,-1.581609631E1,-2.001552582E0
2.507019043E0,4.584896088E0,-1.597411346E1,-1.965639591E0
2.509033203E0,5.269638062E0,-1.604594040E1,-1.905784607E0
2.511016845E0,5.856217384E0,-1.601721001E1,-1.817199111E0
2.513000488E0,6.291962147E0,-1.589989376E1,-1.716642618E0
2.515014648E0,6.615179062E0,-1.571075153E1,-1.608903527E0
2.516998291E0,6.871358871E0,-1.541865921E1,-1.410184860E0
2.519012451E0,6.928819656E0,-1.491587639E1,-1.063025594E0
2.520996093E0,6.744466305E0,-1.420479870E1,-6.057330370E-1
2.523010254E0,6.380547523E0,-1.337879944E1,-1.628057212E-1
2.524993896E0,5.937620163E0,-1.250491524E1,2.609679997E-1
2.527008056E0,5.487510204E0,-1.161427212E1,7.206547260E-1
2.528991699E0,5.099649429E0,-1.077869606E1,1.240196466E0
2.530975341E0,4.831499100E0,-1.002691650E1,1.790862918E0
2.532958984E0,4.644751072E0,-9.363722801E0,2.360682964E0
2.534942627E0,4.501099110E0,-8.779537201E0,2.925714493E0
2.536956787E0,4.381389141E0,-8.250418663E0,3.409343243E0
2.538940429E0,4.256890774E0,-7.776367188E0,3.821146011E0
2.540954589E0,4.017470360E0,-7.366958618E0,4.156333923E0
2.542938232E0,3.694253206E0,-7.017405033E0,4.412513733E0
2.544921875E0,3.445256233E0,-6.730101109E0,4.568136692E0
2.546905517E0,3.248931646E0,-6.538564682E0,4.575319290E0
2.548919677E0,3.062183857E0,-6.404489517E0,4.520252705E0
2.550903320E0,2.784456491E0,-6.318298340E0,4.551377296E0
2.552917480E0,2.351106167E0,-6.301538944E0,4.680664539E0
2.554931640E0,1.848323703E0,-6.335057735E0,4.829104900E0
2.556915283E0,1.381454349E0,-6.426037312E0,4.924872875E0
2.558868408E0,9.720458984E-1,-6.598419666E0,4.908113480E0
2.560882568E0,6.296750307E-1,-6.816292286E0,4.833893299E0
2.562866211E0,2.825157940E-1,-7.074865818E0,4.733336926E0
2.564880371E0,-1.675941199E-1,-7.366958618E0,4.577713490E0
2.566864013E0,-5.865794420E-1,-7.639897823E0,4.323928356E0
2.568878173E0,-6.943184733E-1,-7.817068577E0,3.921702385E0
2.570861816E0,-6.967126727E-1,-7.908048153E0,3.509899616E0
2.572875976E0,-7.996633649E-1,-7.934384346E0,3.136404276E0
2.574859619E0,-1.199495077E0,-7.943961143E0,2.992752075E0
2.576873779E0,-1.680729628E0,-7.970297337E0,2.983175278E0
2.578857422E0,-1.630451322E0,-7.965508938E0,2.913743496E0
2.580841064E0,-1.350329757E0,-8.020575523E0,2.837129116E0
2.582824707E0,-1.233013868E0,-8.073247910E0,2.726995707E0
2.584838867E0,-1.280897856E0,-8.109161377E0,2.518700123E0
2.586822509E0,-1.391031146E0,-8.140285492E0,2.274491549E0
2.588806152E0,-1.728613615E0,-8.264783859E0,2.157175779E0
2.590789795E0,-2.054224968E0,-8.396465302E0,2.092532396E0
2.592773437E0,-1.821987510E0,-8.441955566E0,1.984793186E0
2.594787597E0,-1.295263171E0,-8.475474358E0,1.908178806E0
2.596771240E0,-7.661445141E-1,-8.477868080E0,1.927332401E0
2.598785400E0,-3.758896589E-1,-8.413225174E0,2.013523579E0
2.600769043E0,-1.460463107E-1,-8.274360657E0,2.181117773E0
2.602752685E0,-5.746084079E-2,-8.140285492E0,2.370259762E0
2.604736328E0,-7.661445439E-2,-8.063671112E0,2.454056740E0
2.606719970E0,-9.097966552E-2,-8.042123795E0,2.391807556E0
2.608703613E0,7.182604820E-2,-8.054094315E0,2.257732153E0
2.610717773E0,3.734954596E-1,-8.101978302E0,2.138022184E0
2.612701416E0,6.799532771E-1,-8.171410561E0,2.085349798E0
2.614715576E0,9.576807022E-1,-8.226476669E0,2.068590164E0
2.616699218E0,1.280897856E0,-8.240841866E0,2.059013367E0
2.618682861E0,1.553836942E0,-8.252813339E0,2.063801765E0
2.620666504E0,1.702277422E0,-8.293514252E0,2.078166962E0
2.622680664E0,1.790862918E0,-8.372523308E0,2.164358377E0
2.624664306E0,1.900996208E0,-8.432378769E0,2.281674147E0
2.626678466E0,2.094926596E0,-8.453926086E0,2.346317768E0
2.628662109E0,2.351106167E0,-8.456320763E0,2.331952572E0
2.630645752E0,2.592920542E0,-8.463502884E0,2.303221941E0
2.632629394E0,2.817975283E0,-8.482656479E0,2.286462545E0
2.634613037E0,3.028665066E0,-8.492233276E0,2.236184359E0
2.636627197E0,3.179499865E0,-8.501810074E0,2.123656988E0
2.638610839E0,3.306392431E0,-8.506598473E0,1.980004787E0
2.640594482E0,3.392583847E0,-8.523358345E0,1.819593310E0
2.642608642E0,3.469198227E0,-8.530540466E0,1.666364431E0
2.644592285E0,3.533841610E0,-8.556877136E0,1.510741234E0
2.646575927E0,3.569754839E0,-8.585607529E0,1.338358760E0
2.648559570E0,3.639186621E0,-8.635885239E0,1.165976286E0
2.650543213E0,3.785232782E0,-8.698134422E0,1.067813993E0
2.652557373E0,3.928884983E0,-8.767566681E0,1.077390790E0
2.654541015E0,4.034229755E0,-8.827422142E0,1.139639974E0
2.656524658E0,4.139574528E0,-8.875306129E0,1.211466074E0
2.658508300E0,4.220977783E0,-8.916007042E0,1.285686255E0
2.660491943E0,4.268861771E0,-8.956708908E0,1.321599364E0
2.662506103E0,4.278438568E0,-8.997409821E0,1.350329757E0
2.664489746E0,4.249708176E0,-9.026140213E0,1.374271750E0
2.666473388E0,4.163516521E0,-9.054870605E0,1.371877551E0
2.668457031E0,4.067748547E0,-9.081207275E0,1.383848548E0
2.670440673E0,4.036623955E0,-9.124302864E0,1.371877551E0
2.672454834E0,3.991134167E0,-9.150638580E0,1.323993564E0
2.674438476E0,3.900154591E0,-9.176975250E0,1.295263171E0
2.676452636E0,3.792415380E0,-9.200917244E0,1.312022567E0
2.678436279E0,3.746925592E0,-9.217676163E0,1.340752959E0
2.680450439E0,3.646369219E0,-9.236829758E0,1.407790542E0
2.682434082E0,3.519476414E0,-9.255983353E0,1.453280449E0
2.684448242E0,3.495534420E0,-9.282320023E0,1.539471745E0
2.686431884E0,3.464409828E0,-9.287108421E0,1.616086125E0
2.688446045E0,3.375824451E0,-9.279925346E0,1.721431017E0
2.690429687E0,3.251325846E0,-9.265560150E0,1.819593310E0
2.692413330E0,3.165134668E0,-9.220070839E0,1.898601890E0
2.694396972E0,3.169923067E0,-9.165003777E0,1.953668594E0
2.696380615E0,3.157952070E0,-9.138668060E0,2.082955360E0
2.698394775E0,3.131615877E0,-9.133879662E0,2.152387381E0
2.700378418E0,3.076549292E0,-9.145850182E0,2.149993181E0
2.702362060E0,2.899378300E0,-9.157821655E0,2.123656988E0
2.704376220E0,2.693476915E0,-9.157821655E0,1.994369984E0
2.706359863E0,2.413355350E0,-9.071630478E0,1.910573006E0
2.708343505E0,2.329558372E0,-8.978256226E0,1.929726601E0
2.710327148E0,2.394201756E0,-8.959102631E0,1.956062794E0
2.712310791E0,2.602497339E0,-8.860940933E0,2.044648170E0
2.714324951E0,3.016694069E0,-8.760383606E0,2.051830769E0
2.716308593E0,3.313575268E0,-8.741230011E0,1.946485996E0
2.718322754E0,3.392583847E0,-8.767566681E0,1.754949808E0
2.720306396E0,3.153163671E0,-8.762778282E0,1.740584612E0
2.722320556E0,2.815581083E0,-8.719682693E0,1.764526606E0
2.724304199E0,2.578555346E0,-8.688557625E0,1.774103403E0
2.726318359E0,2.564189911E0,-8.693346024E0,1.716642618E0
2.728302002E0,2.741360903E0,-8.664615631E0,1.690306425E0
2.730285644E0,2.858676910E0,-8.602366447E0,1.642422318E0
2.732269287E0,2.889801502E0,-8.592789650E0,1.611297727E0
2.734283447E0,2.626439333E0,-8.781931877E0,1.716642618E0
2.736267089E0,2.643198729E0,-8.906430244E0,1.795651317E0
2.738250732E0,3.160346270E0,-8.817844391E0,1.505952835E0
2.740234375E0,3.153163671E0,-8.588001251E0,1.505952835E0
2.742248535E0,2.779668093E0,-8.384494781E0,1.711854219E0
2.744262695E0,2.549824715E0,-8.341399193E0,1.800439715E0
2.746246338E0,2.525882721E0,-8.365341187E0,1.774103403E0
2.748229980E0,2.674323320E0,-8.391676903E0,1.668758631E0
2.750213623E0,2.779668093E0,-8.432378769E0,1.479616642E0
2.752227783E0,2.643198729E0,-8.449137688E0,1.391031146E0
2.754211425E0,2.549824715E0,-8.360552788E0,1.599326730E0
2.756225586E0,2.516305923E0,-8.329427719E0,1.774103403E0
2.758178711E0,2.588132143E0,-8.348581314E0,1.793257117E0
2.760192871E0,2.762908697E0,-8.389283180E0,1.690306425E0
2.762176513E0,2.710236311E0,-8.475474358E0,1.561019540E0
2.764190673E0,2.410961151E0,-8.588001251E0,1.460463047E0
2.766174316E0,2.226607561E0,-8.561665535E0,1.601720929E0
2.768188476E0,2.336740971E0,-8.537723541E0,1.704671621E0
2.770172119E0,2.580949545E0,-8.657433510E0,1.714248419E0
2.772155761E0,2.542642117E0,-8.755595207E0,1.699883223E0
2.774139404E0,2.540247917E0,-8.719682693E0,1.781286120E0
2.776123047E0,2.535459518E0,-8.726864815E0,1.860294700E0
2.778137207E0,2.394201756E0,-8.808267593E0,1.898601890E0
2.780120849E0,2.281674147E0,-8.904036522E0,1.903390408E0
2.782135009E0,2.121262789E0,-9.042900085E0,1.819593310E0
2.784118652E0,1.934514999E0,-9.145850182E0,1.697489023E0
2.786102295E0,1.862688899E0,-9.105149269E0,1.728613615E0
2.788085937E0,1.829170108E0,-9.078812599E0,1.850717902E0
2.790100097E0,1.977610588E0,-9.200917244E0,1.972822189E0
2.792083740E0,2.075772762E0,-9.246406555E0,2.051830769E0
2.794097900E0,2.149993181E0,-9.193734169E0,2.214636564E0
2.796081543E0,2.130839586E0,-9.229647636E0,2.331952572E0
2.798095703E0,2.001552582E0,-9.306262016E0,2.377442360E0
2.800079345E0,1.853112102E0,-9.402029991E0,2.327163935E0
2.802093505E0,1.589749932E0,-9.540893555E0,2.157175779E0
2.804077148E0,1.271321058E0,-9.576807022E0,2.214636564E0
2.806091308E0,1.089361787E0,-9.550470352E0,2.360682964E0
2.808074951E0,1.304839969E0,-9.670180321E0,2.566584110E0
2.810089111E0,1.498770237E0,-9.742006302E0,2.779668093E0
2.812103271E0,1.728613615E0,-9.758766174E0,3.023876667E0
2.814086914E0,1.774103403E0,-9.825803757E0,3.172317266E0
2.816070556E0,1.654393315E0,-9.911994934E0,3.232172251E0
2.818054199E0,1.347935557E0,-1.001973438E1,3.253720045E0
2.820068359E0,9.457096457E-1,-1.014423275E1,3.117250681E0
2.822052002E0,5.650315881E-1,-1.009874249E1,3.148375273E0
2.824066162E0,4.357447028E-1,-1.001494598E1,3.351882458E0
2.826049804E0,6.584054828E-1,-9.969455719E0,3.742137194E0
2.828063964E0,8.523358107E-1,-9.976638794E0,3.933673382E0
2.830047607E0,7.900865674E-1,-9.909601212E0,4.118026733E0
2.832031250E0,6.655880809E-1,-9.765948296E0,4.364629745E0
2.834014892E0,5.817909837E-1,-9.684545517E0,4.493916512E0
2.835998535E0,5.458779931E-1,-9.701305389E0,4.414907932E0
2.838012695E0,2.944868207E-1,-9.710882187E0,4.402936935E0
2.839996338E0,-1.484405100E-1,-9.691728592E0,4.331110954E0
2.842010498E0,-6.440402865E-1,-9.598354340E0,4.256890774E0
2.843994140E0,-8.595184088E-1,-9.435548782E0,4.280832767E0
2.845977783E0,-4.692635238E-1,-9.354146004E0,4.508281708E0
2.847961425E0,5.985504389E-2,-9.337387085E0,4.668693542E0
2.849975586E0,2.801215947E-1,-9.277531624E0,4.860229492E0
2.851959228E0,3.830722570E-1,-9.200917244E0,5.023035049E0
2.853973388E0,4.548983276E-1,-9.248801231E0,4.924872875E0
2.855987548E0,3.256114423E-1,-9.332598686E0,4.757278919E0
2.857971191E0,5.267243832E-2,-9.327810287E0,4.690241337E0
2.859954834E0,-1.556231081E-1,-9.339780807E0,4.537012100E0
2.861968994E0,-3.926490843E-1,-9.361329079E0,4.266467571E0
2.863952636E0,-5.219359994E-1,-9.251194954E0,4.244919777E0
2.865966797E0,-5.626373887E-1,-9.105149269E0,4.261679173E0
2.867980957E0,-2.585737705E-1,-9.105149269E0,4.268861771E0
2.869964599E0,2.418143749E-1,-9.167398453E0,4.220977783E0
2.871948242E0,5.267243981E-1,-9.208099365E0,4.055777550E0
2.873931884E0,7.829039693E-1,-9.217676163E0,3.828328609E0
2.875946045E0,1.070208192E0,-9.150638580E0,3.574543238E0
2.877929687E0,1.000776291E0,-9.119514465E0,3.469198227E0
2.879943847E0,8.164227605E-1,-9.172186852E0,3.512293816E0
2.881927490E0,7.996633649E-1,-9.294290543E0,3.576937437E0
2.883911132E0,1.041477680E0,-9.454702377E0,3.608062029E0
2.885894775E0,1.302445769E0,-9.519346237E0,3.679888010E0
2.887908935E0,1.462857246E0,-9.533711433E0,3.730166197E0
2.889892578E0,1.733402014E0,-9.543288231E0,3.804386616E0
2.891876220E0,1.965639591E0,-9.612719536E0,3.842693806E0
2.893859863E0,2.094926596E0,-9.818621635E0,3.806780815E0
2.895874023E0,2.047042370E0,-1.006522369E1,3.751713991E0
2.897857666E0,1.838746905E0,-1.033098030E1,3.986345768E0
2.899871826E0,1.824381709E0,-1.059434223E1,4.276044369E0
2.901855468E0,1.972822189E0,-1.084094524E1,4.438849926E0
2.903869629E0,2.049436569E0,-1.103966427E1,4.400542736E0
2.905853271E0,2.090138197E0,-1.120965195E1,4.355052948E0
2.907867431E0,2.073378563E0,-1.131260300E1,4.062960148E0
2.909851074E0,1.742978811E0,-1.128626728E1,4.295197964E0
2.911865234E0,1.728613615E0,-1.123120022E1,4.750096321E0
2.913848877E0,1.774103403E0,-1.118570995E1,4.833893299E0
2.915832519E0,1.848323703E0,-1.114979744E1,4.699818134E0
2.917816162E0,2.025494576E0,-1.112824917E1,4.582501888E0
2.919799804E0,2.298433542E0,-1.120725822E1,4.371812344E0
2.921813964E0,2.248155355E0,-1.111388397E1,4.295197964E0
2.923797607E0,2.288856745E0,-1.100135708E1,4.151545525E0
2.925811767E0,2.293645144E0,-1.064701462E1,4.405331135E0
2.927825927E0,2.406172752E0,-1.022324085E1,5.015852451E0
2.929809570E0,2.832340717E0,-1.014902115E1,5.231330872E0
2.931793213E0,3.050212860E0,-1.017535686E1,5.135562420E0
2.933776855E0,3.129221678E0,-1.007958889E1,5.046977043E0
2.935791015E0,3.217807055E0,-9.902418137E0,5.018246651E0
2.937774658E0,3.404554844E0,-9.722852707E0,5.008669853E0
2.939788818E0,3.562572241E0,-9.536105156E0,5.035006046E0
2.941772461E0,3.667917013E0,-9.370905876E0,5.128379822E0
2.943756103E0,3.790021181E0,-9.212887764E0,5.173870087E0
2.945739746E0,3.936067581E0,-9.040505409E0,5.178658485E0
2.947753906E0,4.074931145E0,-8.868123055E0,5.161899090E0
2.949737548E0,4.232948780E0,-8.707711220E0,5.085284233E0
2.951751709E0,4.381389141E0,-8.523358345E0,5.046977043E0
2.953765869E0,4.496310711E0,-8.350975990E0,5.066130638E0
2.955749511E0,4.661510944E0,-8.185775757E0,5.015852451E0
2.957702636E0,4.829104900E0,-7.994239330E0,4.934449673E0
2.959716797E0,4.944026470E0,-7.790732384E0,5.003881454E0
2.961700439E0,5.092466831E0,-7.635109425E0,5.027823448E0
2.963714599E0,5.238513470E0,-7.493851185E0,5.001487255E0
2.965698242E0,5.329493046E0,-7.350199223E0,5.099649429E0
2.967712402E0,5.453991413E0,-7.261613846E0,5.152322292E0
2.969696045E0,5.640739441E0,-7.275979042E0,5.181052685E0
2.971710205E0,5.746084213E0,-7.374141216E0,5.358223438E0
2.973724365E0,5.691017628E0,-7.244854450E0,5.650316238E0
2.975708007E0,5.753266811E0,-7.098807812E0,5.786785603E0
2.977691650E0,5.877765179E0,-7.079654217E0,5.904101372E0
2.979705810E0,6.033388138E0,-7.199364662E0,5.992686749E0
2.981689453E0,5.990292549E0,-7.295132637E0,5.880159378E0
2.983673095E0,6.028599739E0,-7.438784599E0,5.686229229E0
2.985656738E0,6.241683960E0,-7.702147007E0,5.461174011E0
2.987670898E0,6.165069580E0,-7.869740963E0,5.446808815E0
2.989654541E0,6.133944988E0,-8.032546997E0,5.540182590E0
2.991668701E0,6.100425720E0,-8.259995461E0,5.264849663E0
2.993652343E0,6.009446144E0,-8.468291283E0,4.786009312E0
2.995666504E0,5.916072369E0,-8.619126320E0,4.469974518E0
2.997619629E0,5.841852188E0,-8.719682693E0,4.493916512E0
2.999633789E0,5.722142220E0,-8.753201485E0,4.469974518E0
3.001617431E0,5.468356609E0,-8.714894295E0,4.223371983E0
3.003631591E0,5.255272865E0,-8.578424454E0,4.034229755E0
3.005615234E0,5.063736439E0,-8.350975990E0,4.000710964E0
3.007629394E0,4.807557106E0,-8.123526573E0,3.842693806E0
3.009613037E0,4.699818134E0,-7.912836552E0,3.485957623E0
3.011596679E0,4.671087742E0,-7.769184589E0,3.246537447E0
3.013580322E0,4.733336926E0,-7.682993412E0,3.217807055E0
3.015563964E0,4.692635536E0,-7.570465565E0,3.129221678E0
3.017578125E0,4.484339714E0,-7.503427982E0,2.734178305E0
3.019561767E0,4.218583584E0,-7.489062786E0,2.410961151E0
3.021545410E0,3.995922565E0,-7.481880188E0,2.252943754E0
3.023529052E0,3.919308186E0,-7.524975777E0,2.166752577E0
3.025512695E0,4.022258759E0,-7.642292023E0,2.121262789E0
3.027496338E0,4.182670593E0,-7.836222172E0,2.094926596E0
3.029510498E0,3.974374771E0,-8.027758598E0,1.867477298E0
3.031494140E0,3.387795448E0,-8.185775757E0,1.453280449E0
3.033508300E0,2.944868088E0,-8.386888504E0,1.137245774E0
3.035491943E0,2.710236311E0,-8.645462036E0,1.022324085E0
3.037506103E0,2.731784105E0,-8.918401718E0,1.039083481E0
3.039489746E0,2.602497339E0,-9.200917244E0,1.017535686E0
3.041503906E0,2.351106167E0,-9.488221169E0,8.475474119E-1
3.043487548E0,2.188300371E0,-9.787496567E0,6.536170840E-1
3.045501709E0,2.047042370E0,-1.012747288E1,5.099649429E-1
3.047515869E0,1.881842494E0,-1.046505547E1,4.908113480E-1
3.049499511E0,1.790862918E0,-1.080742645E1,5.650315881E-1
3.051483154E0,1.678335428E0,-1.118570995E1,5.937620401E-1
3.053497314E0,1.403002143E0,-1.163582039E1,4.836287498E-1
3.055480957E0,1.228225470E0,-1.218169785E1,2.896983922E-1
3.057464599E0,1.233013868E0,-1.276348972E1,1.029506698E-1
3.059448242E0,1.333570361E0,-1.337161636E1,-4.548983276E-2
3.061462402E0,1.493981838E0,-1.399171448E1,-1.939303428E-1
3.063476562E0,1.651999116E0,-1.458787060E1,-2.753331959E-1
3.065460205E0,1.678335428E0,-1.517444992E1,-2.394201756E-1
3.067443847E0,1.529894829E0,-1.573948193E1,-1.723825186E-1
3.069427490E0,1.400607944E0,-1.631409073E1,-9.337386489E-2
3.071441650E0,1.369483352E0,-1.688391113E1,7.182605099E-3
3.073425293E0,1.101332784E0,-1.742021179E1,-3.591302410E-2
3.075439453E0,7.445967197E-1,-1.787750435E1,-1.651999205E-1
3.077423095E0,4.548983276E-1,-1.825578880E1,-1.580173075E-1
3.079437255E0,9.097966552E-2,-1.854548645E1,-1.197100803E-2
3.081420898E0,-2.418143749E-1,-1.872505188E1,2.011129409E-1
3.083435058E0,-5.578489900E-1,-1.878011894E1,3.208230138E-1
3.085418701E0,-8.164227605E-1,-1.873223495E1,4.213795066E-1
3.087432861E0,-1.029506683E0,-1.861970711E1,5.219359994E-1
3.089447021E0,-1.182735682E0,-1.845450592E1,5.889736414E-1
3.091430664E0,-1.307234168E0,-1.825818253E1,6.272808313E-1
3.093414306E0,-1.386242747E0,-1.804988670E1,6.488286853E-1
3.095397949E0,-1.403002143E0,-1.783440781E1,6.727706790E-1
3.097412109E0,-1.364694953E0,-1.764287186E1,6.727706790E-1
3.099395752E0,-1.290474772E0,-1.744894218E1,6.368576288E-1
3.101409912E0,-1.216254473E0,-1.728853035E1,6.607996821E-1
3.103393554E0,-1.118092179E0,-1.716403198E1,7.733271718E-1
3.105377197E0,-1.039083481E0,-1.711135864E1,8.403648138E-1
3.107360839E0,-8.116343617E-1,-1.701798630E1,9.600749016E-1
3.109375000E0,-4.955997467E-1,-1.691742897E1,1.051054597E0
3.111358642E0,-9.576806426E-2,-1.681687355E1,1.127668977E0
3.113372802E0,3.303998411E-1,-1.672589302E1,1.189918280E0
3.115386963E0,7.086837292E-1,-1.662533569E1,1.280897856E0
3.117370605E0,1.154005170E0,-1.650562668E1,1.383848548E0
3.119354248E0,1.666364431E0,-1.637633896E1,1.462857246E0
3.121368408E0,2.149993181E0,-1.623987007E1,1.520318031E0
3.123352050E0,2.523488522E0,-1.606988144E1,1.584961534E0
3.125335693E0,2.738966703E0,-1.587116337E1,1.673547029E0
3.127319336E0,2.863465309E0,-1.561737728E1,1.735796213E0
3.129302978E0,2.911349297E0,-1.527021885E1,1.707065821E0
3.131286621E0,2.834734917E0,-1.489432907E1,1.640028119E0
3.133300781E0,2.712630510E0,-1.451604462E1,1.584961534E0
3.135314941E0,2.669534922E0,-1.411860752E1,1.520318031E0
3.137298584E0,2.700659513E0,-1.369004536E1,1.467645645E0
3.139282226E0,2.691082716E0,-1.326148319E1,1.359906554E0
3.141296386E0,2.691082716E0,-1.285446930E1,1.163581967E0
3.143310547E0,2.755726099E0,-1.243069553E1,9.217676520E-1
3.145294189E0,2.892195702E0,-1.196382618E1,7.206547260E-1
3.147277832E0,3.126827478E0,-1.150413895E1,4.788403511E-1
3.149261474E0,3.363853455E0,-1.105402946E1,1.771709323E-1
3.151275634E0,3.612850428E0,-1.061349583E1,-1.412578970E-1
3.153259277E0,3.782838583E0,-1.018732834E1,-4.189853072E-1
3.155273437E0,3.739742994E0,-9.770736694E0,-5.578489900E-1
3.157257080E0,3.641580820E0,-9.404424667E0,-6.368576288E-1
3.159271240E0,3.531447411E0,-9.112331390E0,-7.852981687E-1
3.161254882E0,3.426102638E0,-8.868123055E0,-9.888052940E-1
3.163269043E0,3.383007050E0,-8.671798706E0,-1.197100878E0
3.165252685E0,3.342305660E0,-8.530540466E0,-1.398213744E0
3.167266845E0,3.248931646E0,-8.410830498E0,-1.551442742E0
3.169250488E0,3.124433279E0,-8.300697327E0,-1.647210717E0
3.171234130E0,2.961627483E0,-8.224082947E0,-1.690306425E0
3.173217773E0,2.832340717E0,-8.180987358E0,-1.716642618E0
3.175201416E0,2.806004286E0,-8.152256966E0,-1.800439715E0
3.177215576E0,2.829946518E0,-8.149862289E0,-1.889025092E0
3.179199218E0,2.841917515E0,-8.152256966E0,-1.927332401E0
3.181182861E0,2.940079689E0,-8.135497093E0,-1.939303398E0
3.183197021E0,3.143586874E0,-8.094796181E0,-1.965639591E0
3.185180664E0,3.330334663E0,-8.056488991E0,-2.001552582E0
3.187164306E0,3.438073635E0,-8.006210327E0,-2.063801765E0
3.189147949E0,3.399766445E0,-7.948749542E0,-2.138022184E0
3.191131591E0,3.318363667E0,-7.917624950E0,-2.164358377E0
3.193145752E0,3.282450438E0,-7.912836552E0,-2.200271368E0
3.195129394E0,3.311181068E0,-7.896077156E0,-2.238578558E0
3.197143554E0,3.409343243E0,-7.860164165E0,-2.214636564E0
3.199127197E0,3.514688015E0,-7.797914982E0,-2.073378563E0
3.201110839E0,3.483563423E0,-7.776367188E0,-1.891419291E0
3.203094482E0,3.265691042E0,-7.745242596E0,-1.709460020E0
3.205108642E0,2.966415882E0,-7.608773232E0,-1.484405041E0
3.207092285E0,2.892195702E0,-7.450755596E0,-1.304839969E0
3.209106445E0,3.007117271E0,-7.302315235E0,-1.218648672E0
3.211090088E0,3.057395458E0,-7.165845871E0,-1.242590666E0
3.213104248E0,2.992752075E0,-7.060500622E0,-1.323993564E0
3.215057373E0,2.904166698E0,-6.880935669E0,-1.307234168E0
3.217071533E0,2.928108692E0,-6.682217121E0,-1.098938584E0
3.219055175E0,2.767697096E0,-6.742072105E0,-1.029506683E0
3.221069336E0,2.796427488E0,-6.821080685E0,-1.067813993E0
3.223052978E0,3.181894064E0,-6.842628479E0,-1.110909581E0
3.225067138E0,3.605667830E0,-6.840234280E0,-1.134851575E0
3.227050781E0,3.797203779E0,-6.859387875E0,-1.142034173E0
3.229034423E0,3.912125587E0,-6.883329868E0,-1.106121182E0
3.231018066E0,3.866635799E0,-6.892906666E0,-1.086967587E0
3.233001709E0,3.584120035E0,-6.801927090E0,-1.019929886E0
3.235015869E0,3.138798475E0,-6.667851925E0,-8.906430602E-1
3.236999511E0,2.576161146E0,-6.584054470E0,-7.182605267E-1
3.239013672E0,2.054224968E0,-6.536170483E0,-4.812345505E-1
3.240997314E0,1.685518026E0,-6.598419666E0,-2.896983922E-1
3.242980957E0,1.448492050E0,-6.665457726E0,-1.364694983E-1
3.244964599E0,1.276109457E0,-6.646304131E0,9.576806426E-2
3.246978759E0,1.034295082E0,-6.617573261E0,3.782838583E-1
3.248962402E0,7.924807668E-1,-6.607996464E0,6.224924326E-1
3.250976562E0,7.062895298E-1,-6.562506676E0,8.523358107E-1
3.252990722E0,7.996633649E-1,-6.521805286E0,1.036689281E0
3.254974365E0,9.528923035E-1,-6.483498096E0,1.209071875E0
3.256927490E0,1.206677675E0,-6.301538944E0,1.443703651E0
3.258941650E0,1.869871497E0,-5.839457989E0,1.908178806E0
3.260925293E0,2.257732153E0,-5.647922039E0,2.193088770E0
3.262939453E0,2.118868589E0,-5.770026207E0,2.094926596E0
3.264923095E0,1.793257117E0,-5.997475147E0,1.881842494E0
3.266937255E0,1.410184860E0,-6.169857979E0,1.740584612E0
3.268920898E0,1.012747288E0,-6.236895561E0,1.757344007E0
3.270904541E0,6.488286853E-1,-6.227318764E0,1.826775908E0
3.272888183E0,3.303998411E-1,-6.198588371E0,1.879448295E0
3.274871826E0,7.661445439E-2,-6.186617374E0,1.905784607E0
3.276885986E0,-1.149216816E-1,-6.198588371E0,1.917755604E0
3.278869629E0,-3.375824392E-1,-6.217741966E0,1.927332401E0
3.280883789E0,-6.177040339E-1,-6.232107162E0,1.929726601E0
3.282867431E0,-8.643068075E-1,-6.227318764E0,1.932120800E0
3.284851074E0,-9.409212470E-1,-6.196194172E0,1.924938202E0
3.286834716E0,-8.906430602E-1,-6.110002518E0,1.934514999E0
3.288879394E0,-7.781155705E-1,-6.023811340E0,1.900996208E0
3.290863037E0,-6.416460276E-1,-5.961562157E0,1.824381709E0
3.292846679E0,-2.777273953E-1,-5.655104637E0,1.972822189E0
3.294830322E0,1.819593310E-1,-5.422866821E0,2.068590164E0
3.296844482E0,2.657563984E-1,-5.559336185E0,1.889025092E0
3.298828125E0,1.819593310E-1,-5.772420406E0,1.721431017E0
3.300811767E0,-7.422025502E-2,-5.923254967E0,1.515529633E0
3.302795410E0,-4.118026793E-1,-6.141127586E0,1.228225470E0
3.304779052E0,-6.344634295E-1,-6.246472359E0,1.103726983E0
3.306762695E0,-1.079784989E0,-6.318298340E0,1.000776291E0
3.308776855E0,-1.304839969E0,-6.198588371E0,1.082179189E0
3.310760498E0,-1.438915253E0,-6.126761913E0,1.187524080E0
3.312774658E0,-1.520318031E0,-6.232107162E0,1.113303781E0
3.314788818E0,-1.453280449E0,-6.430825710E0,9.409212470E-1
3.316772461E0,-1.288080573E0,-6.545747280E0,9.241618514E-1
3.318786621E0,-1.254561663E0,-6.445190907E0,9.888052940E-1
3.320770263E0,-1.280897856E0,-6.241683960E0,1.036689281E0
3.322753906E0,-1.031900883E0,-5.817910194E0,1.249773264E0
3.324737548E0,-6.703764796E-1,-5.607220173E0,1.343147159E0
3.326721191E0,-7.134721279E-1,-5.803544998E0,1.125274777E0
3.328704834E0,-9.145850539E-1,-6.047753334E0,9.552865028E-1
3.330718994E0,-9.313444495E-1,-6.217741966E0,9.576807022E-1
3.332702636E0,-3.998316824E-1,-6.294356346E0,1.180341482E0
3.334716797E0,-1.819593310E-1,-6.224924564E0,1.434126854E0
3.336700439E0,-4.213795066E-1,-6.351817131E0,1.271321058E0
3.338714599E0,-8.667010069E-1,-6.524199486E0,1.065419793E0
3.340698242E0,-1.180341482E0,-6.457161903E0,1.122880578E0
3.342712402E0,-1.039083481E0,-6.258443356E0,1.405396342E0
3.344696045E0,-8.307880163E-1,-6.186617374E0,1.675941229E0
3.346710205E0,-7.637503147E-1,-6.174646378E0,1.819593310E0
3.348693847E0,-5.051765442E-1,-6.150704384E0,1.975216389E0
3.350677490E0,-2.154781483E-2,-6.174646378E0,2.121262789E0
3.352661132E0,4.141969085E-1,-6.189011574E0,2.293645144E0
3.354644775E0,8.140285611E-1,-6.186617374E0,2.439691544E0
3.356658935E0,1.295263171E0,-6.256049156E0,2.547430515E0
3.358642578E0,2.111685991E0,-5.901707172E0,2.928108692E0
3.360656738E0,2.995146275E0,-5.571307182E0,3.150769472E0
3.362640380E0,3.236960649E0,-5.767632008E0,2.999934673E0
3.364624023E0,3.129221678E0,-6.064512730E0,2.882618904E0
3.366607666E0,2.894589901E0,-6.200982571E0,2.906560898E0
3.368621826E0,2.885013103E0,-6.229712963E0,3.004723072E0
3.370635986E0,3.119644880E0,-6.268020153E0,3.126827478E0
3.372619629E0,3.438073635E0,-6.347028732E0,3.272873640E0
3.374603271E0,3.830722809E0,-6.433219910E0,3.452438831E0
3.376586914E0,4.268861771E0,-6.548141479E0,3.624821424E0
3.378570556E0,4.587290287E0,-6.749254704E0,3.766079187E0
3.380554199E0,4.750096321E0,-6.986280441E0,3.881000996E0
3.382568359E0,4.967968464E0,-7.139509678E0,4.058171749E0
3.384552002E0,5.363011837E0,-7.220912457E0,4.285621166E0
3.386535644E0,5.793968201E0,-7.283161640E0,4.486733913E0
3.388519287E0,6.246472359E0,-7.357381821E0,4.613626480E0
3.390502929E0,6.775590897E0,-7.366958618E0,4.678270340E0
3.392517089E0,7.800309181E0,-7.043741226E0,4.841075897E0
3.394500732E0,8.384494781E0,-7.055712223E0,4.757278919E0
3.396514892E0,8.178592682E0,-7.448361397E0,4.515464306E0
3.398498535E0,7.735665798E0,-7.881711960E0,4.410119534E0
3.400482177E0,7.390900612E0,-8.183381081E0,4.477157116E0
3.402465820E0,7.151480675E0,-8.379706383E0,4.594472885E0
3.404449463E0,6.995857239E0,-8.535328865E0,4.642356873E0
3.406433105E0,7.062894821E0,-8.602366447E0,4.599261284E0
3.408447265E0,7.266402245E0,-8.635885239E0,4.539406300E0
3.410430908E0,7.240066051E0,-8.769960403E0,4.496310711E0
3.412445068E0,7.252037048E0,-8.899248123E0,4.580107689E0
3.414428711E0,7.486668587E0,-8.923190117E0,4.838681698E0
3.416442871E0,7.860164165E0,-8.868123055E0,5.190629482E0
3.418426513E0,8.267178535E0,-8.805873871E0,5.588066578E0
3.420440673E0,8.681375504E0,-8.719682693E0,6.021417141E0
3.422424316E0,9.665391922E0,-8.384494781E0,6.581660271E0
3.424438476E0,1.038604736E1,-8.238448143E0,7.029376030E0
3.426422119E0,1.043871975E1,-8.370129585E0,7.366958618E0
3.428436279E0,1.032858658E1,-8.552088737E0,7.795520782E0
3.430419922E0,1.035731697E1,-8.669404030E0,8.327033043E0
3.432403564E0,1.052012253E1,-8.726864815E0,8.872911453E0
3.434417724E0,1.071884060E1,-8.791508675E0,9.337387085E0
3.436401367E0,1.103008747E1,-8.822632790E0,9.773131371E0
3.438415527E0,1.157117653E1,-8.719682693E0,1.021127033E1
3.440399170E0,1.191115379E1,-8.635885239E0,1.057997704E1
3.442413330E0,1.222958183E1,-8.602366447E0,1.083136845E1
3.444396972E0,1.258631802E1,-8.652645111E0,1.097262669E1
3.446411132E0,1.285925770E1,-8.690952301E0,1.109233665E1
3.448394775E0,1.305558205E1,-8.712499619E0,1.120246983E1
3.450378418E0,1.316571522E1,-8.769960403E0,1.127908421E1
3.452362060E0,1.316810894E1,-8.848969460E0,1.129584408E1
3.454376220E0,1.308431244E1,-8.961497307E0,1.122880554E1
3.456359863E0,1.300290966E1,-9.050082207E0,1.107078838E1
3.458343505E0,1.284968090E1,-9.141061783E0,1.078348446E1
3.460327148E0,1.261504841E1,-9.220070839E0,1.041477776E1
3.462310791E0,1.229183197E1,-9.346963882E0,9.907206535E0
3.464294433E0,1.191354752E1,-9.572018623E0,9.270348549E0
3.466278076E0,1.154484081E1,-9.911994934E0,8.525752068E0
3.468292236E0,1.113303757E1,-1.006761837E1,7.867346764E0
3.470275879E0,1.058955383E1,-1.004128170E1,7.275979042E0
3.472290039E0,9.959878922E0,-1.005085850E1,6.643909931E0
3.474273681E0,9.356540680E0,-1.020169353E1,5.961562157E0
3.476257324E0,8.896853447E0,-1.040759468E1,5.374982834E0
3.478240966E0,8.475474358E0,-1.048660374E1,4.967968464E0
3.480255127E0,7.678205013E0,-1.029027843E1,4.589684486E0
3.482238769E0,6.907271862E0,-9.974244118E0,4.278438568E0
3.484252929E0,6.306327343E0,-9.730035782E0,4.053383350E0
3.486267089E0,5.861005783E0,-9.543288231E0,3.916913986E0
3.488250732E0,5.482721806E0,-9.394847870E0,3.806780815E0
3.490234375E0,5.250484467E0,-9.402029991E0,3.658340216E0
3.492218017E0,5.078101635E0,-9.586383820E0,3.667917013E0
3.494232177E0,4.570530891E0,-9.308655739E0,3.876212597E0
3.496215820E0,4.096478939E0,-8.528146744E0,4.122815132E0
3.498229980E0,3.991134167E0,-8.123526573E0,4.237737179E0
3.500213623E0,3.969586372E0,-7.513004780E0,4.458003521E0
3.502227783E0,3.940855980E0,-7.158663273E0,4.683058739E0
3.504211425E0,3.739742994E0,-6.940790653E0,4.874594688E0
3.506225586E0,3.402160645E0,-6.792350292E0,5.037400246E0
3.508209228E0,3.110068083E0,-6.725312710E0,5.135562420E0
3.510223388E0,2.997540474E0,-6.706159115E0,5.082890034E0
3.512207031E0,3.040636063E0,-6.660669327E0,4.793191910E0
3.514190673E0,3.186682463E0,-6.584054470E0,4.395754337E0
3.516204834E0,3.356670856E0,-6.514622688E0,3.921702385E0
3.518188476E0,3.500322819E0,-6.478709698E0,3.380612850E0
3.520172119E0,3.612850428E0,-6.483498096E0,2.853888512E0
3.522155761E0,3.734954596E0,-6.562506676E0,2.370259762E0
3.524169922E0,3.881000996E0,-6.751648903E0,1.956062794E0
3.526153564E0,4.003105164E0,-7.024587631E0,1.620874524E0
3.528167724E0,4.084507942E0,-7.364564419E0,1.379060149E0
3.530151367E0,4.173093796E0,-7.766790390E0,1.216254473E0
3.532165527E0,4.283226967E0,-8.228871346E0,1.122880578E0
3.534149170E0,4.460397720E0,-8.743624687E0,1.063025594E0
3.536163330E0,4.721365929E0,-9.303867340E0,9.864110947E-1
3.538146972E0,5.111620426E0,-9.892841339E0,9.026140571E-1
3.540161132E0,5.255272865E0,-1.052969933E1,7.757213712E-1
3.542144775E0,5.221754074E0,-1.120007515E1,6.536170840E-1
3.544158935E0,5.391742229E0,-1.188002872E1,5.889736414E-1
3.546173095E0,5.846640587E0,-1.252167511E1,5.722141862E-1
3.548156738E0,6.100425720E0,-1.323035812E1,5.051765442E-1
3.550140380E0,6.042964935E0,-1.402044487E1,5.458779931E-1
3.552124023E0,6.327875137E0,-1.477940750E1,5.865794420E-1
3.554138183E0,6.531382084E0,-1.546893692E1,7.350199223E-1
3.556121826E0,6.584054470E0,-1.622311020E1,9.002198577E-1
3.558105468E0,6.770802498E0,-1.689588165E1,1.144428372E0
3.560119629E0,7.240066051E0,-1.739626884E1,1.489193439E0
3.562103271E0,7.673416615E0,-1.777455330E1,1.865083098E0
3.564086914E0,7.776367188E0,-1.816959763E1,2.181117773E0
3.566070556E0,7.884106159E0,-1.842338181E1,2.533065319E0
3.568054199E0,8.109161377E0,-1.862449455E1,2.628833532E0
3.570068359E0,8.125920296E0,-1.863886070E1,2.636016130E0
3.572052002E0,7.924807549E0,-1.857182312E1,2.535459518E0
3.574066162E0,7.527369976E0,-1.838028717E1,2.415749550E0
3.576049804E0,6.971915245E0,-1.813607788E1,2.214636564E0
3.578063964E0,6.232107162E0,-1.782004356E1,2.015917778E0
3.580047607E0,5.420472622E0,-1.746091270E1,1.774103403E0
3.582061767E0,4.498704910E0,-1.699643707E1,1.558625340E0
3.584045410E0,3.347094059E0,-1.648407936E1,1.273715258E0
3.586059570E0,2.214636564E0,-1.589749908E1,9.002198577E-1
3.588073730E0,1.254561663E0,-1.521515179E1,5.003881454E-1
3.590057373E0,3.926490843E-1,-1.449689102E1,2.633621916E-2
3.592041015E0,-3.351882398E-1,-1.372595787E1,-4.237737060E-1
3.594024658E0,-7.996633649E-1,-1.291671848E1,-7.637503147E-1
3.596038818E0,-1.211466074E0,-1.218409252E1,-1.115697980E0
3.598022461E0,-1.711854219E0,-1.149695683E1,-1.462857246E0
3.600036621E0,-2.118868589E0,-1.080503273E1,-1.733402014E0
3.602020263E0,-2.343923569E0,-1.012986755E1,-1.877054095E0
3.604003906E0,-2.444479942E0,-9.507374763E0,-1.920149803E0
3.605987548E0,-2.691082716E0,-9.033323288E0,-2.013523579E0
3.608001709E0,-2.983175278E0,-8.607154846E0,-2.082955360E0
3.609985351E0,-3.112462282E0,-8.166622162E0,-2.003946781E0
3.611968994E0,-3.236960649E0,-7.769184589E0,-1.833958507E0
3.613952636E0,-3.521870613E0,-7.424419403E0,-1.647210717E0
3.615966797E0,-3.878606796E0,-7.105990410E0,-1.458068848E0
3.617950439E0,-4.252102375E0,-6.828263283E0,-1.259350061E0
3.619964599E0,-4.556165695E0,-6.596025467E0,-1.043871999E0
3.621948242E0,-4.764461517E0,-6.416460514E0,-7.924807668E-1
3.623962402E0,-4.939238071E0,-6.265625954E0,-4.836287498E-1
3.625976562E0,-5.090072632E0,-6.129156113E0,-1.029506698E-1
3.627960205E0,-5.147533417E0,-6.066906929E0,3.303998411E-1
3.629943847E0,-5.169081688E0,-6.038176537E0,8.236053586E-1
3.631927490E0,-5.130774021E0,-6.033388138E0,1.362300754E0
3.633941650E0,-5.080495834E0,-6.042964935E0,1.946485996E0
3.635925293E0,-4.910507679E0,-6.042964935E0,2.607285738E0
3.637939453E0,-4.635174274E0,-6.069301128E0,3.299209833E0
3.639923095E0,-4.364629745E0,-6.210559368E0,3.919308186E0
3.641906738E0,-4.101267338E0,-6.409277916E0,4.419696331E0
3.643890380E0,-3.758896589E0,-6.603208065E0,4.805162907E0
3.645904541E0,-3.351882458E0,-6.830657482E0,4.910507679E0
3.647888183E0,-2.985569477E0,-7.038952827E0,4.637568474E0
3.649902343E0,-2.643198729E0,-7.223306656E0,4.299986362E0
3.651885986E0,-2.329558372E0,-7.484274387E0,4.089296341E0
3.653900146E0,-2.217030764E0,-7.788338184E0,4.029441357E0
3.655853271E0,-2.149993181E0,-8.248024940E0,4.074931145E0
3.657867431E0,-2.006340981E0,-8.851364136E0,4.065354347E0
3.659851074E0,-1.762132406E0,-9.536105156E0,3.773261786E0
3.661865234E0,-1.458068848E0,-1.029027843E1,3.292027235E0
3.663848877E0,-1.134851575E0,-1.118331623E1,2.873042107E0
3.665863037E0,-8.355764151E-1,-1.214817905E1,2.671929121E0
3.667846679E0,-4.141969085E-1,-1.292868900E1,2.674323320E0
3.669830322E0,-2.394201700E-3,-1.362540150E1,2.621650934E0
3.671813964E0,4.572925270E-1,-1.436521053E1,2.262520552E0
3.673797607E0,1.063025594E0,-1.507868195E1,1.613691926E0
3.675811767E0,1.728613615E0,-1.567723274E1,8.523358107E-1
3.677795410E0,2.375048161E0,-1.614170837E1,1.173158810E-1
3.679779052E0,2.935291290E0,-1.646971321E1,-4.620809257E-1
3.681793213E0,3.414131641E0,-1.672349930E1,-8.355764151E-1
3.683776855E0,3.792415380E0,-1.693658257E1,-1.043871999E0
3.685760498E0,4.177882195E0,-1.705629349E1,-1.127668977E0
3.687744140E0,4.539406300E0,-1.704911041E1,-1.146822572E0
3.689758300E0,4.809951305E0,-1.693179512E1,-1.137245774E0
3.691772461E0,5.066130638E0,-1.673307610E1,-1.065419793E0
3.693756103E0,5.252878666E0,-1.638831139E1,-8.810662031E-1
3.695739746E0,5.262455463E0,-1.580412579E1,-5.410895944E-1
3.697723388E0,5.087678432E0,-1.504755783E1,-1.005564705E-1
3.699707031E0,4.812345505E0,-1.416888523E1,3.806780577E-1
3.701721191E0,4.534617901E0,-1.321838760E1,8.738836050E-1
3.703704834E0,4.374206543E0,-1.226070690E1,1.386242747E0
3.705688476E0,4.359841347E0,-1.135091019E1,1.896207690E0
3.707672119E0,4.371812344E0,-1.091755962E1,2.121262789E0
3.709655761E0,4.395754337E0,-1.010353088E1,2.528276920E0
3.711669922E0,4.424484730E0,-9.373299599E0,2.923320293E0
3.713653564E0,4.438849926E0,-8.731653214E0,3.292027235E0
3.715667724E0,4.479551315E0,-8.180987358E0,3.610456228E0
3.717651367E0,4.467580318E0,-7.723694801E0,3.869029999E0
3.719665527E0,4.378994942E0,-7.357381821E0,4.048594952E0
3.721649170E0,4.175487995E0,-7.050923824E0,4.194641590E0
3.723663330E0,3.912125587E0,-6.804321289E0,4.340687752E0
3.725646972E0,3.627215624E0,-6.631938934E0,4.460397720E0
3.727630615E0,3.351882458E0,-6.521805286E0,4.517858505E0
3.729644775E0,3.026270866E0,-6.485892296E0,4.525041103E0
3.731628418E0,2.724601507E0,-6.517016888E0,4.525041103E0
3.733642578E0,2.504334927E0,-6.610390663E0,4.505887508E0
3.735626220E0,2.286462545E0,-6.756437302E0,4.462791920E0
3.737640380E0,2.018311977E0,-6.916848660E0,4.381389141E0
3.739624023E0,1.740584612E0,-7.079654217E0,4.218583584E0
3.741638183E0,1.412579060E0,-7.280767441E0,3.986345768E0
3.743621826E0,1.003170490E0,-7.477091789E0,3.761290789E0
3.745635986E0,5.003881454E-1,-7.656657219E0,3.438073635E0
3.747619629E0,7.661445439E-2,-7.809885979E0,3.038241863E0
3.749603271E0,-4.429273009E-1,-8.006210327E0,2.681505919E0
3.751586914E0,-1.067813993E0,-8.133103371E0,2.370259762E0
3.753570556E0,-1.357512355E0,-8.133103371E0,2.205059767E0
3.755584716E0,-1.460463047E0,-8.145073891E0,2.217030764E0
3.757568359E0,-1.460463047E0,-8.185775757E0,2.209848166E0
3.759582519E0,-1.453280449E0,-8.190564156E0,2.123656988E0
3.761566162E0,-1.520318031E0,-8.147468567E0,2.013523579E0
3.763549804E0,-1.640028119E0,-8.113949776E0,1.900996208E0
3.765533447E0,-1.733402014E0,-8.109161377E0,1.879448295E0
3.767547607E0,-1.793257117E0,-8.183381081E0,1.826775908E0
3.769531250E0,-1.793257117E0,-8.257601738E0,1.793257117E0
3.771514892E0,-1.769315004E0,-8.327033043E0,1.783680320E0
3.773498535E0,-1.687912226E0,-8.367734909E0,1.843535304E0
3.775512695E0,-1.510741234E0,-8.391676903E0,1.922544003E0
3.777496338E0,-1.297657371E0,-8.398859978E0,2.025494576E0
3.779479980E0,-1.063025594E0,-8.401253700E0,2.097320795E0
3.781463623E0,-7.661445141E-1,-8.401253700E0,2.145204782E0
3.783477783E0,-5.099649429E-1,-8.410830498E0,2.214636564E0
3.785461425E0,-2.801215947E-1,-8.406042099E0,2.286462545E0
3.787475586E0,-1.101332754E-1,-8.408436775E0,2.372653961E0
3.789459228E0,1.101332754E-1,-8.441955566E0,2.497152328E0
3.791473388E0,3.998316824E-1,-8.468291283E0,2.662352324E0
3.793457031E0,7.613561153E-1,-8.475474358E0,2.813186884E0
3.795440673E0,1.103726983E0,-8.482656479E0,2.928108692E0
3.797424316E0,1.443703651E0,-8.494627953E0,3.021482468E0
3.799438476E0,1.738190413E0,-8.501810074E0,3.069366693E0
3.801422119E0,1.991975784E0,-8.528146744E0,3.033453465E0
3.803436279E0,2.183511972E0,-8.566453934E0,2.990357876E0
3.805419922E0,2.308010340E0,-8.607154846E0,2.923320293E0
3.807403564E0,2.427720547E0,-8.611943245E0,2.822763920E0
3.809387207E0,2.571372509E0,-8.607154846E0,2.734178305E0
3.811370849E0,2.750937700E0,-8.609549522E0,2.669534922E0
3.813385009E0,2.942473888E0,-8.595184326E0,2.609679937E0
3.815368652E0,3.155557871E0,-8.580819130E0,2.533065319E0
3.817382812E0,3.383007050E0,-8.588001251E0,2.454056740E0
3.819366455E0,3.636792421E0,-8.607154846E0,2.327163935E0
3.821380615E0,3.902548790E0,-8.645462036E0,2.128445387E0
3.823364257E0,4.127603531E0,-8.676587105E0,1.948880196E0
3.825378418E0,4.295197964E0,-8.683769226E0,1.850717902E0
3.827362060E0,4.443638325E0,-8.688557625E0,1.819593310E0
3.829345703E0,4.572925091E0,-8.671798706E0,1.793257117E0
3.831329345E0,4.699818134E0,-8.659827232E0,1.778891921E0
3.833312988E0,4.774038315E0,-8.659827232E0,1.778891921E0
3.835327148E0,4.778826714E0,-8.664615631E0,1.776497602E0
3.837310791E0,4.795586109E0,-8.671798706E0,1.776497602E0
3.839324951E0,4.829104900E0,-8.678980827E0,1.759738207E0
3.841308593E0,4.692635536E0,-8.659827232E0,1.711854219E0
3.843292236E0,4.613626480E0,-8.650250435E0,1.632845521E0
3.845275879E0,4.563348293E0,-8.650250435E0,1.594538331E0
3.847290039E0,4.501099110E0,-8.633491516E0,1.572990537E0
3.849273681E0,4.405331135E0,-8.635885239E0,1.549048543E0
3.851257324E0,4.290409565E0,-8.652645111E0,1.532289028E0
3.853240966E0,4.256890774E0,-8.674192429E0,1.541865945E0
3.855255127E0,4.264073372E0,-8.710105896E0,1.582567334E0
3.857238769E0,4.213795185E0,-8.741230011E0,1.635239720E0
3.859222412E0,4.151545525E0,-8.777143478E0,1.714248419E0
3.861206054E0,4.084507942E0,-8.786720276E0,1.814804912E0
3.863220214E0,3.943250179E0,-8.796297073E0,1.893813491E0
3.865203857E0,3.840299606E0,-8.810662270E0,1.927332401E0
3.867218017E0,3.909731388E0,-8.810662270E0,2.087743998E0
3.869232177E0,4.017470360E0,-8.815450668E0,2.260126352E0
3.871215820E0,4.060565948E0,-8.858546257E0,2.406172752E0
3.873199463E0,4.043806553E0,-8.839392662E0,2.621650934E0
3.875183105E0,4.091690540E0,-8.815450668E0,2.712630510E0
3.877166748E0,4.101267338E0,-8.762778282E0,2.760514498E0
3.879180908E0,4.079719543E0,-8.652645111E0,2.901772499E0
3.881195068E0,4.101267338E0,-8.554482460E0,3.009511471E0
3.883178711E0,4.115632534E0,-8.477868080E0,3.035847664E0
3.885162353E0,4.137180328E0,-8.418013573E0,3.004723072E0
3.887145996E0,4.108449936E0,-8.420407295E0,2.875436306E0
3.889160156E0,3.981557369E0,-8.406042099E0,2.679111719E0
3.891143798E0,3.639186621E0,-8.166622162E0,2.729389906E0
3.893157959E0,3.452438831E0,-7.946355343E0,2.798821688E0
3.895141601E0,3.445256233E0,-7.800309181E0,2.992752075E0
3.897155761E0,3.560178041E0,-7.671022415E0,3.165134668E0
3.899139404E0,3.615244627E0,-7.625532627E0,3.131615877E0
3.901153564E0,3.509899616E0,-7.615955830E0,3.004723072E0
3.903137207E0,3.462015629E0,-7.584830761E0,2.858676910E0
3.905151367E0,3.483563423E0,-7.534552574E0,2.695871115E0
3.907165527E0,3.296815634E0,-7.515398979E0,2.571372509E0
3.909149170E0,3.098097086E0,-7.534552574E0,2.482787132E0
3.911163330E0,3.081337690E0,-7.541735172E0,2.322375536E0
3.913146972E0,3.122039080E0,-7.508216381E0,2.051830769E0
3.915161132E0,3.172317266E0,-7.467514992E0,1.857900500E0
3.917144775E0,3.591302633E0,-7.371747017E0,1.642422318E0
3.919158935E0,3.517082214E0,-7.402871609E0,1.539471745E0
3.921142578E0,2.959233284E0,-7.575253963E0,1.599326730E0
3.923156738E0,2.530671120E0,-7.826645374E0,1.613691926E0
3.925140380E0,2.422932148E0,-7.965508938E0,1.549048543E0
3.927124023E0,2.384624958E0,-8.128314972E0,1.561019540E0
3.929107666E0,2.487575531E0,-8.204929352E0,1.759738207E0
3.931091308E0,2.545036316E0,-8.324639320E0,1.860294700E0
3.933074951E0,2.291250944E0,-8.640673637E0,1.857900500E0
3.935058593E0,1.711854219E0,-9.076418877E0,1.989581585E0
3.937042236E0,1.807622313E0,-9.275136948E0,1.766920805E0
3.939056396E0,2.312798738E0,-9.253589630E0,1.343147159E0
3.941040039E0,2.281674147E0,-9.066842079E0,1.230619669E0
3.943023681E0,2.219424963E0,-8.992621422E0,1.264138460E0
3.945007324E0,2.408566952E0,-8.942343712E0,1.496376038E0
3.946990966E0,2.504334927E0,-8.971074104E0,1.616086125E0
3.949005127E0,2.454056740E0,-9.102754593E0,1.484405041E0
3.950988769E0,2.420537949E0,-9.198522568E0,1.283292055E0
3.953002929E0,2.408566952E0,-9.191340446E0,1.225831270E0
3.954986572E0,2.406172752E0,-9.217676163E0,1.271321058E0
3.957000732E0,2.391807556E0,-9.349357605E0,1.199495077E0
3.958984375E0,2.264914751E0,-9.569623947E0,9.720458984E-1
3.960998535E0,2.099714994E0,-9.696516991E0,8.379706144E-1
3.962982177E0,1.798045516E0,-9.694122314E0,8.116343617E-1
3.964996338E0,1.798045516E0,-9.780313492E0,9.672574997E-1
3.967010498E0,1.980004787E0,-9.900024414E0,1.074996591E0
3.968994140E0,2.430114746E0,-9.923966408E0,1.175553083E0
3.970977783E0,2.559401512E0,-1.001973438E1,1.221042871E0
3.972961425E0,2.300827742E0,-1.008677197E1,1.233013868E0
3.974914550E0,2.097320795E0,-1.010831928E1,1.292868972E0
3.976928711E0,2.001552582E0,-1.023521233E1,1.240196466E0
3.978912353E0,1.795651317E0,-1.035971069E1,1.197100878E0
3.980926513E0,1.450886250E0,-1.035252857E1,1.333570361E0
3.982940673E0,1.431732655E0,-1.035731697E1,1.529894829E0
3.984924316E0,1.505952835E0,-1.047463226E1,1.570596337E0
3.986907959E0,1.273715258E0,-1.045308495E1,1.616086125E0
3.988891601E0,1.391031146E0,-1.052491093E1,1.714248419E0
3.990905761E0,1.702277422E0,-1.058476543E1,1.994369984E0
3.992889404E0,1.711854219E0,-1.052012253E1,2.394201756E0
3.994903564E0,1.611297727E0,-1.062307262E1,2.585737944E0
3.996887207E0,1.496376038E0,-1.070208168E1,2.705447912E0
3.998870849E0,1.532289028E0,-1.071644688E1,2.889801502E0
4.000854492E0,1.563413739E0,-1.076911926E1,3.167528868E0
4.002868652E0,1.537077546E0,-1.090319443E1,3.337517262E0
4.004852295E0,1.264138460E0,-1.086488724E1,3.653551817E0
4.006866455E0,1.177947283E0,-1.086249352E1,4.031835556E0
4.008850097E0,1.041477680E0,-1.085770512E1,4.134786129E0
4.010864257E0,1.067813993E0,-1.072362900E1,4.331110954E0
4.012817382E0,1.405396342E0,-1.055603504E1,4.726154327E0
4.014831543E0,1.680729628E0,-1.044350815E1,4.999093056E0
4.016815185E0,1.426944256E0,-1.030464458E1,5.097255230E0
4.018829345E0,9.552865028E-1,-9.974244118E0,5.286397457E0
4.020812988E0,8.523358107E-1,-9.832986832E0,5.281609058E0
4.022827148E0,8.547300100E-1,-9.725247383E0,5.042188644E0
4.024810791E0,9.433154464E-1,-9.354146004E0,5.080495834E0
4.026794433E0,7.565677166E-1,-8.892065048E0,5.068524837E0
4.028778076E0,5.171475410E-1,-8.537723541E0,4.989516258E0
4.030761718E0,6.296750307E-1,-8.315062523E0,5.070919037E0
4.032775879E0,9.265560508E-1,-8.130708694E0,5.135562420E0
4.034759521E0,1.290474772E0,-7.941566944E0,5.118803024E0
4.036773681E0,1.757344007E0,-7.771578789E0,4.833893299E0
4.038757324E0,1.594538331E0,-7.491456985E0,4.616020679E0
4.040740966E0,1.517923832E0,-7.249642849E0,4.639962673E0
4.042724609E0,1.953668594E0,-7.127538681E0,4.513070107E0
4.044738769E0,1.872265697E0,-7.067683220E0,4.307168961E0
4.046722412E0,1.323993564E0,-7.125144482E0,4.225766182E0
4.048736572E0,1.177947283E0,-7.486668587E0,3.943250179E0
4.050750732E0,1.082179189E0,-7.773972988E0,3.593696833E0
4.052734375E0,1.034295082E0,-7.754819393E0,3.653551817E0
4.054687500E0,1.340752959E0,-7.656657219E0,3.778050184E0
4.056701660E0,1.663970232E0,-7.575253963E0,3.579331636E0
4.058685302E0,2.051830769E0,-7.757213593E0,3.462015629E0
4.060699463E0,2.240972757E0,-7.908048153E0,3.641580820E0
4.062713623E0,2.142810583E0,-7.893682957E0,3.957615376E0
4.064697265E0,2.099714994E0,-7.931990147E0,4.062960148E0
4.066680908E0,2.190694571E0,-8.090007782E0,3.940855980E0
4.068664550E0,2.116474390E0,-8.310274124E0,3.885789394E0
4.070678711E0,1.891419291E0,-8.602366447E0,4.005499363E0
4.072662353E0,1.668758631E0,-8.985439301E0,4.242525578E0
4.074676513E0,1.745373011E0,-9.411606789E0,4.395754337E0
4.076660156E0,1.860294700E0,-9.806650162E0,4.436455727E0
4.078643798E0,1.462857246E0,-1.026633644E1,4.575319290E0
4.080627441E0,1.266532660E0,-1.078108978E1,4.467580318E0
4.082611084E0,1.046266198E0,-1.110191345E1,4.465186119E0
4.084594726E0,9.193734527E-1,-1.131260300E1,4.917690277E0
4.086608886E0,1.063025594E0,-1.151371574E1,5.307945251E0
4.088623047E0,1.185129881E0,-1.168609810E1,5.295974255E0
4.090606689E0,1.161187768E0,-1.181299114E1,5.068524837E0
4.092590332E0,1.223437071E0,-1.204044056E1,4.807557106E0
4.094543457E0,1.254561663E0,-1.228464890E1,4.206612587E0
4.096557617E0,8.834604025E-1,-1.201171017E1,4.211400986E0
4.098541259E0,8.547300100E-1,-1.149935055E1,4.891354084E0
4.100524902E0,9.696516991E-1,-1.125753593E1,5.193023682E0
4.102508545E0,1.278503656E0,-1.098459721E1,5.317522049E0
4.104522705E0,1.496376038E0,-1.090558910E1,5.044582844E0
4.106506347E0,1.640028119E0,-1.085770512E1,4.833893299E0
4.108520507E0,1.810016513E0,-1.078587818E1,4.795586109E0
4.110534668E0,2.061407566E0,-1.069011021E1,4.910507679E0
4.112518310E0,2.442085743E0,-1.053927612E1,5.025429249E0
4.114501953E0,2.801215887E0,-1.034774017E1,5.161899090E0
4.116485595E0,3.112462282E0,-1.015620327E1,5.295974255E0
4.118499755E0,3.416525841E0,-9.955090523E0,5.360617638E0
4.120483398E0,3.655946016E0,-9.718064308E0,5.540182590E0
4.122467041E0,3.921702385E0,-9.502586365E0,5.707777023E0
4.124450683E0,4.185064793E0,-9.253589630E0,5.817910194E0
4.126464843E0,4.357447147E0,-8.963891029E0,6.040570736E0
