"Time (s)","Acceleration x (m/s^2)","Acceleration y (m/s^2)","Acceleration z (m/s^2)"
0.000000000E0,9.345622659E-1,2.351556063E0,9.921821594E0
3.964062000E-3,1.039696455E0,2.245799541E0,9.456885338E0
7.934375000E-3,1.254092455E0,2.038729668E0,9.010673523E0
1.190468700E-2,1.369263053E0,1.842769146E0,8.738999367E0
1.587500000E-2,1.436693311E0,1.650639296E0,8.275855064E0
1.984687500E-2,1.480143428E0,1.567933917E0,7.914924145E0
2.381562500E-2,1.459227681E0,1.600696206E0,7.851928234E0
2.778750000E-2,1.404668570E0,1.670300364E0,7.974511147E0
3.175781200E-2,1.366897583E0,1.770397186E0,8.217685699E0
3.572812500E-2,1.356650352E0,1.816854358E0,8.564222336E0
3.970000000E-2,1.407924652E0,1.850938201E0,8.902580261E0
4.366875000E-2,1.470671892E0,1.921883225E0,9.343248367E0
4.763906200E-2,1.540142059E0,2.024824142E0,9.803777695E0
5.161093700E-2,1.536273122E0,2.136595249E0,1.024690533E1
5.558125000E-2,1.632424235E0,2.243271351E0,1.062633896E1
5.955156200E-2,1.838469267E0,2.314733505E0,1.094125271E1
6.352187500E-2,2.057960033E0,2.381119967E0,1.099347591E1
6.749218700E-2,2.266829967E0,2.412139177E0,1.089662457E1
7.146250000E-2,2.470931053E0,2.401834488E0,1.058318520E1
7.543437500E-2,2.616536856E0,2.336147308E0,1.016355896E1
7.940468700E-2,2.710514069E0,2.254342079E0,9.619490623E0
8.337500000E-2,2.780999184E0,2.147493601E0,9.045006752E0
8.734531200E-2,2.779897928E0,2.004167080E0,8.504999161E0
9.131562500E-2,2.865591288E0,1.860352159E0,8.629593849E0
9.528593700E-2,3.078924417E0,1.842261553E0,9.358791351E0
9.925781200E-2,3.362656355E0,1.859844565E0,9.441850662E0
1.032265620E-1,3.139315605E0,2.029181719E0,9.333968163E0
1.071984370E-1,3.062308550E0,2.184038639E0,9.104191780E0
1.111687500E-1,3.188588142E0,2.378438234E0,8.615802765E0
1.151390620E-1,3.326456070E0,2.591464758E0,7.907214642E0
1.191093750E-1,3.363106489E0,2.746053457E0,7.186511993E0
1.230796870E-1,3.104494333E0,2.887895823E0,6.734869957E0
1.270531250E-1,2.674342632E0,3.085254431E0,6.803679466E0
1.310218750E-1,2.380918741E0,3.183819056E0,7.184386253E0
1.349921870E-1,2.200290442E0,3.274147511E0,8.157390594E0
1.389625000E-1,2.167863607E0,3.352437735E0,9.264803886E0
1.429328120E-1,2.206074953E0,3.356565475E0,1.025510311E1
1.469031250E-1,2.294363499E0,3.283053875E0,1.078768826E1
1.508734370E-1,2.341902733E0,3.155337572E0,1.104720116E1
1.548437500E-1,2.256286144E0,3.007643938E0,1.095277309E1
1.588140620E-1,2.191575766E0,2.906560898E0,1.078194237E1
1.627843750E-1,2.141766548E0,2.874401808E0,1.047032356E1
1.667562500E-1,2.100280046E0,2.912326097E0,1.022356606E1
1.707265620E-1,2.004281998E0,3.063859940E0,1.020898151E1
1.746968750E-1,1.948774815E0,3.494280100E0,1.092467594E1
1.786671870E-1,2.248567104E0,3.782446146E0,1.158788872E1
1.826375000E-1,2.582759619E0,3.649318933E0,1.090276337E1
1.866078120E-1,2.788498163E0,3.369043827E0,9.627391815E0
1.905796870E-1,2.821030617E0,3.136212587E0,8.360342026E0
1.945484370E-1,2.700515985E0,3.051218510E0,7.932890415E0
1.985187500E-1,2.699558020E0,3.074289083E0,8.026331902E0
2.024906250E-1,2.900096416E0,3.193271160E0,8.286351204E0
2.064609370E-1,3.218707323E0,3.365845442E0,8.630082130E0
2.104312500E-1,3.500466585E0,3.545985222E0,8.770477295E0
2.144015620E-1,3.754070044E0,3.738775969E0,8.822719574E0
2.183718750E-1,3.901083469E0,3.850805283E0,8.691804886E0
2.223421870E-1,3.924422026E0,3.778634548E0,8.608793259E0
2.263140620E-1,3.697691441E0,3.809347153E0,8.349242210E0
2.302843750E-1,3.518461466E0,3.795834541E0,7.657997608E0
2.342546870E-1,3.675607204E0,3.568787575E0,7.253013611E0
2.382250000E-1,3.606003046E0,3.415300131E0,7.428489685E0
2.421953120E-1,3.537270308E0,3.188952208E0,7.628798485E0
2.461656250E-1,3.659949303E0,2.754720688E0,7.631728649E0
2.501375000E-1,3.765495062E0,2.556633949E0,7.483144760E0
2.541078120E-1,3.876882792E0,2.426868200E0,7.615945816E0
2.580781250E-1,3.979268551E0,2.329615831E0,8.007158279E0
2.620484370E-1,3.920399904E0,2.415912390E0,8.424746513E0
2.660187500E-1,3.741639137E0,2.674495697E0,8.717747688E0
2.699890620E-1,2.473421097E0,3.256689072E0,9.555699348E0
2.739593750E-1,2.185226202E0,3.724123240E0,9.599781036E0
2.779312500E-1,2.687050819E0,4.045673847E0,8.972816467E0
2.819015620E-1,2.987379551E0,4.509574890E0,8.297459602E0
2.858718750E-1,2.982466459E0,4.955796242E0,7.686833382E0
2.898421870E-1,3.003736734E0,5.290314674E0,7.219945431E0
2.938125000E-1,3.850221157E0,5.144009113E0,6.733950615E0
2.977828120E-1,4.542748451E0,4.930178165E0,5.858238220E0
3.017531250E-1,4.934708595E0,4.871415138E0,5.266343594E0
3.057250000E-1,5.126388073E0,4.899302959E0,5.226264477E0
3.096953120E-1,5.137171268E0,5.065556049E0,5.568482399E0
3.136640620E-1,5.083502769E0,5.377003193E0,6.777707577E0
3.176359370E-1,6.077144623E0,5.839294910E0,1.074549294E1
3.216062500E-1,5.113085747E0,5.850136280E0,1.031689262E1
3.255765620E-1,4.146441460E0,5.489636421E0,9.261097908E0
3.295468750E-1,3.229921579E0,5.844332695E0,8.551342010E0
3.335171870E-1,3.793957233E0,5.423115730E0,8.326343536E0
3.374890620E-1,4.585690975E0,4.809683323E0,7.760871887E0
3.414593750E-1,5.072528362E0,4.168123245E0,6.956094265E0
3.454296870E-1,5.334578037E0,3.789255142E0,6.708227634E0
3.494000000E-1,5.648486614E0,3.634024620E0,7.013823032E0
3.533703120E-1,6.420281887E0,3.812900305E0,7.836825848E0
3.573406250E-1,7.936290264E0,4.287028790E0,8.110109329E0
3.613109370E-1,8.383689880E0,4.894667625E0,8.250859261E0
3.652890620E-1,8.073094368E0,5.579619884E0,8.464106560E0
3.692531250E-1,7.662288189E0,6.115998268E0,8.681624413E0
3.732218750E-1,7.476498127E0,6.347909451E0,8.819252968E0
3.771937500E-1,7.387414455E0,6.235861301E0,8.880936623E0
3.811640620E-1,7.210703850E0,5.846085072E0,8.828781128E0
3.851343750E-1,6.956525326E0,5.426228523E0,8.599627495E0
3.891062500E-1,6.660697937E0,4.933108807E0,8.131101608E0
3.930750000E-1,6.620657444E0,4.568069935E0,7.608791828E0
3.970468750E-1,6.752175331E0,4.422760963E0,7.327530861E0
4.010171870E-1,6.933503151E0,4.501740932E0,7.168527126E0
4.049875000E-1,6.867834568E0,4.723626137E0,7.273546219E0
4.089578120E-1,6.592922688E0,4.989669323E0,7.489857674E0
4.129281250E-1,6.271084309E0,5.267416000E0,7.598142624E0
4.168984370E-1,6.004744053E0,5.584695816E0,7.589073658E0
4.208687500E-1,5.954810619E0,5.783788204E0,7.600230694E0
4.248406250E-1,5.903325558E0,5.867728710E0,7.730398655E0
4.288109370E-1,5.664346218E0,5.924547672E0,8.177711487E0
4.327812500E-1,5.499318123E0,5.871099472E0,8.605440140E0
4.367515620E-1,5.500257015E0,5.754511833E0,8.619930267E0
4.407218750E-1,5.536084175E0,5.560485363E0,8.276170731E0
4.446921870E-1,5.597116470E0,5.357830524E0,7.820679188E0
4.486640620E-1,5.634820938E0,5.142534733E0,7.394137859E0
4.526328120E-1,5.783060074E0,5.010001183E0,7.158050060E0
4.566046870E-1,6.041011333E0,4.957252026E0,7.043482780E0
4.605750000E-1,6.223909378E0,5.004158974E0,6.979040623E0
4.645453120E-1,6.408234119E0,5.026999950E0,6.908584118E0
4.685156250E-1,6.646236897E0,4.991728306E0,6.804081917E0
4.724875000E-1,6.931549549E0,4.913141251E0,6.776394844E0
4.764562500E-1,7.145198345E0,4.787005424E0,6.884948254E0
4.804281250E-1,7.267675877E0,4.618405342E0,7.120356083E0
4.844000000E-1,7.342116356E0,4.404114723E0,7.298388481E0
4.883687500E-1,7.364803791E0,4.185428619E0,7.460658073E0
4.923390620E-1,7.308942318E0,4.017317295E0,7.573913574E0
4.963093750E-1,7.296846867E0,3.829745770E0,7.737590790E0
5.002796870E-1,7.398868561E0,3.572694778E0,7.792953968E0
5.042515620E-1,7.526077271E0,3.343301535E0,7.774863720E0
5.082218750E-1,7.624929428E0,3.089640617E0,7.669777393E0
5.121906250E-1,7.753382683E0,2.966473341E0,7.418500900E0
5.161625000E-1,7.839870930E0,2.889102221E0,7.189251423E0
5.201328120E-1,7.845798969E0,2.798390865E0,6.905979156E0
5.241031250E-1,7.788932323E0,2.706941843E0,6.571374893E0
5.280734370E-1,7.541428566E0,2.774391413E0,6.115835190E0
5.320437500E-1,7.334733009E0,2.882542133E0,5.700191975E0
5.360140620E-1,7.030391216E0,3.034717798E0,5.220585346E0
5.399859370E-1,6.660190582E0,3.175736189E0,4.808936119E0
5.439562500E-1,6.289366722E0,3.296624184E0,4.522464752E0
5.479250000E-1,5.720035076E0,3.529005289E0,4.168295383E0
5.518968750E-1,5.029872894E0,3.804635525E0,3.795575857E0
5.558671870E-1,4.336694241E0,4.138569355E0,3.511240482E0
5.598375000E-1,3.663559675E0,4.614584446E0,3.201823473E0
5.638093750E-1,3.031078577E0,5.100942612E0,2.946476936E0
5.677796870E-1,2.418852329E0,5.522494316E0,2.735298872E0
5.717484370E-1,1.969336271E0,5.759089470E0,2.630097628E0
5.757203120E-1,1.587355733E0,5.906457424E0,2.526869059E0
5.796906250E-1,1.437354207E0,5.940311432E0,2.511153460E0
5.836609370E-1,1.439135551E0,5.882563114E0,2.532758951E0
5.876328120E-1,1.546012640E0,5.805661678E0,2.614305496E0
5.916015620E-1,1.847586274E0,5.609825134E0,2.725166559E0
5.955734370E-1,2.262271643E0,5.346759796E0,2.840950251E0
5.995437500E-1,2.884160757E0,5.068323612E0,3.099476099E0
6.035125000E-1,3.689962864E0,4.761377335E0,3.312674999E0
6.074843750E-1,4.681985855E0,4.434109211E0,3.432250977E0
6.114546870E-1,5.529437542E0,4.148165226E0,3.514908552E0
6.154250000E-1,6.424189091E0,3.875724077E0,3.666978598E0
6.193968750E-1,7.259353638E0,3.580040216E0,3.787866354E0
6.233656250E-1,7.880812168E0,3.312521696E0,3.894877672E0
6.273375000E-1,8.430510521E0,3.034162283E0,4.023110867E0
6.313078120E-1,8.825592995E0,2.763167143E0,4.201144218E0
6.352781250E-1,9.056699753E0,2.503779650E0,4.404488087E0
6.392484370E-1,9.182979584E0,2.226674557E0,4.638516426E0
6.432187500E-1,9.207429886E0,2.030014992E0,4.870687485E0
6.471890620E-1,9.144672394E0,1.888278246E0,5.021732807E0
6.511593750E-1,9.081666946E0,1.831229091E0,5.135629654E0
6.551312500E-1,8.888080597E0,1.838842630E0,5.261430740E0
6.591015620E-1,8.681413651E0,1.903102994E0,5.295724869E0
6.630718750E-1,8.482254982E0,1.969039321E0,5.311076641E0
6.670421870E-1,8.223058701E0,2.091699123E0,5.287661552E0
6.710125000E-1,7.899199009E0,2.234862804E0,5.160271168E0
6.749828120E-1,7.564825058E0,2.393387794E0,5.009512901E0
6.789546870E-1,7.129367828E0,2.560972214E0,4.883797646E0
6.829250000E-1,6.651772499E0,2.785892963E0,4.791736126E0
6.868937500E-1,6.189844608E0,3.034315348E0,4.677073479E0
6.908656250E-1,5.807289600E0,3.288263559E0,4.603466034E0
6.948359370E-1,5.428229809E0,3.672073126E0,4.525625706E0
6.988062500E-1,4.989650249E0,4.102196217E0,4.224080563E0
7.027765620E-1,4.526103973E0,4.562582493E0,4.197475910E0
7.067468750E-1,3.744550467E0,5.098835468E0,4.131577969E0
7.107171870E-1,2.922793388E0,5.685865402E0,4.175707817E0
7.146890620E-1,2.248078823E0,6.152945518E0,4.211122990E0
7.186593750E-1,1.505579352E0,6.658179283E0,4.186558723E0
7.226296870E-1,7.529668808E-1,7.169389248E0,3.891631126E0
7.266000000E-1,2.696062624E-1,7.513991356E0,3.658713579E0
7.305703120E-1,-1.267777681E-1,7.825026989E0,3.450169086E0
7.345406250E-1,-5.334664583E-1,8.173488617E0,3.314523220E0
7.385125000E-1,-8.088954091E-1,8.424122810E0,3.234135389E0
7.424828120E-1,-9.308751822E-1,8.595988274E0,3.265154839E0
7.464531250E-1,-9.040888548E-1,8.656092644E0,3.370853901E0
7.504234370E-1,-6.866762042E-1,8.579047203E0,3.297055244E0
7.543937500E-1,-3.587567508E-1,8.484303474E0,3.126492262E0
7.583656250E-1,7.502565980E-1,8.488296509E0,5.122557163E0
7.623359370E-1,2.298002720E0,8.632351875E0,9.014379501E0
7.663062500E-1,2.968446255E0,8.647933960E0,9.970844269E0
7.702765620E-1,2.980302334E0,8.698604584E0,8.531057358E0
7.742468750E-1,2.930301666E0,9.064438820E0,6.574525833E0
7.782171870E-1,2.979641438E0,9.727468491E0,5.262340546E0
7.821875000E-1,3.116896152E0,1.028979969E1,4.715006828E0
7.861578120E-1,3.154676676E0,1.070940781E1,4.443188667E0
7.901281250E-1,2.972679138E0,1.087368870E1,4.348272324E0
7.941000000E-1,2.663980484E0,1.093049812E1,4.411077023E0
7.980687500E-1,2.382613659E0,1.092593956E1,4.617840290E0
8.020406250E-1,2.035674810E0,1.089774513E1,4.990502834E0
8.060109370E-1,1.698264718E0,1.090126991E1,5.417647362E0
8.099812500E-1,1.458404064E0,1.094194221E1,5.813887596E0
8.139515620E-1,1.222565532E0,1.097429276E1,6.174090862E0
8.179218750E-1,9.591075778E-1,1.094679832E1,6.172673225E0
8.218921870E-1,6.474208832E-1,1.077291203E1,5.788365841E0
8.258625000E-1,2.002510428E-1,1.049174595E1,5.157177925E0
8.298343750E-1,-6.343676895E-2,1.021102142E1,4.561260700E0
8.338046870E-1,8.931329846E-2,9.906727791E0,4.128973007E0
8.377750000E-1,5.539703965E-1,9.672680855E0,3.808858871E0
8.417453120E-1,1.490649223E0,9.390020370E0,3.541551113E0
8.457156250E-1,2.725894213E0,9.104526520E0,3.317856073E0
8.496859370E-1,3.904090643E0,8.882181168E0,3.041038275E0
8.536578120E-1,5.320864201E0,8.701352119E0,2.363661289E0
8.576281250E-1,6.291847229E0,8.520925522E0,1.466314435E0
8.615984370E-1,6.436782837E0,8.387185097E0,8.507460356E-1
8.655687500E-1,6.422934532E0,8.316460609E0,2.477041036E-1
8.695390620E-1,6.407257557E0,8.376335144E0,-1.772954315E-1
8.735093750E-1,6.348771572E0,8.539513588E0,-4.997943938E-1
8.774812500E-1,5.720398903E0,8.747178078E0,-2.224021852E-1
8.814515620E-1,4.927132607E0,9.066104889E0,3.413652778E-1
8.854218750E-1,4.077976704E0,9.437991142E0,9.600557089E-1
8.893921870E-1,3.248347521E0,9.779671669E0,1.455157518E0
8.933625000E-1,2.078138351E0,1.015058231E1,1.915045261E0
8.973328120E-1,8.061851859E-1,1.053829861E1,2.333570957E0
9.013031250E-1,-1.618576050E-1,1.085611534E1,2.588812113E0
9.052734370E-1,-1.169481277E0,1.116421032E1,2.799712420E0
9.092437500E-1,-1.995729923E0,1.137170124E1,2.875512838E0
9.132156250E-1,-2.672484636E0,1.148273563E1,2.867736578E0
9.171859370E-1,-3.067901373E0,1.150757694E1,2.835136890E0
9.211546870E-1,-3.243836880E0,1.133958149E1,2.648293495E0
9.251265620E-1,-3.152378321E0,1.089578247E1,2.403060198E0
9.290968750E-1,-2.603522062E0,1.035546780E1,2.033338070E0
9.330671870E-1,-1.558280468E0,9.626893997E0,1.377135277E0
9.370390620E-1,-7.440029979E-1,8.693729401E0,4.675875902E-1
9.410093750E-1,-3.103843033E-1,7.777602673E0,-4.914242625E-1
9.449796870E-1,7.271381617E-1,7.277358055E0,-1.699222445E0
9.489500000E-1,1.623029351E0,7.415330887E0,-2.671967268E0
9.529203120E-1,2.545917511E0,8.114006996E0,-3.230094194E0
9.568906250E-1,3.279845715E0,8.785408020E0,-3.285122633E0
9.608609370E-1,3.786429882E0,9.433221817E0,-2.712649584E0
9.648312500E-1,4.119530201E0,9.868277550E0,-1.789359212E0
9.688031250E-1,4.088769913E0,1.012866116E1,-1.076107383E0
9.727734370E-1,3.746111631E0,1.038774204E1,-3.985675275E-1
9.767437500E-1,3.151171684E0,1.062083244E1,-8.459193259E-2
9.807140620E-1,2.551989317E0,1.078965187E1,2.035454512E-1
9.846843750E-1,1.921145797E0,1.093039227E1,5.769930482E-1
9.886843750E-1,1.184967041E0,1.085657406E1,2.213295698E-1
9.926250000E-1,9.164716601E-1,1.071135139E1,8.072290570E-2
9.965968750E-1,7.123612165E-1,1.060576725E1,2.280525118E-1
1.000567187E0,2.874478400E-1,1.037709236E1,2.706692815E-1
1.004537500E0,-2.893536389E-1,1.023649502E1,2.208028585E-1
1.008507812E0,-8.976820111E-1,1.017129707E1,2.815102339E-1
1.012478125E0,-1.571075201E0,1.001889133E1,5.202983618E-1
1.016448437E0,-2.234029531E0,9.863067627E0,7.975372672E-1
1.020418750E0,-2.705486298E0,9.730084419E0,9.134645462E-1
1.024389062E0,-3.166800976E0,9.613936424E0,9.219208956E-1
1.028360937E0,-3.438408852E0,9.517880440E0,1.136278510E0
1.032331250E0,-3.465798616E0,9.387770653E0,1.289220214E0
1.036301562E0,-3.431111336E0,9.261844635E0,1.175543427E0
1.040271875E0,-3.321744204E0,9.204115868E0,1.009002805E0
1.044242187E0,-3.167730093E0,9.069666862E0,4.877084792E-1
1.048212500E0,-2.864691257E0,8.992630959E0,3.368450403E-1
1.052184375E0,-2.633152485E0,8.855367661E0,-8.579861373E-2
1.056154687E0,-2.570941687E0,8.721722603E0,-4.237162471E-1
1.060125000E0,-2.640689373E0,8.630129814E0,-6.433890462E-1
1.064095312E0,-2.727082014E0,8.479123116E0,-8.335652351E-1
1.068064062E0,-2.693266153E0,8.326956749E0,-1.030234575E0
1.072035937E0,-2.514850378E0,8.220922470E0,-1.168705583E0
1.076006250E0,-2.465970278E0,8.222780228E0,-1.317768574E0
1.079976562E0,-2.702230215E0,8.330748558E0,-1.787932396E0
1.083946875E0,-3.152225018E0,8.494867325E0,-2.508022070E0
1.087918750E0,-3.591043949E0,8.552069664E0,-3.031614780E0
1.091889062E0,-4.167242050E0,8.382101059E0,-3.511690617E0
1.095859375E0,-4.835013866E0,7.894506931E0,-3.905594349E0
1.099829687E0,-5.640978336E0,7.071227074E0,-4.207149029E0
1.103800000E0,-6.377521515E0,6.171696186E0,-4.155357361E0
1.107770312E0,-6.410839081E0,5.937438488E0,-3.516603470E0
1.111742187E0,-5.894544125E0,6.384694099E0,-2.967881203E0
1.115712500E0,-5.382203579E0,7.047639370E0,-2.648523331E0
1.119682812E0,-4.787426949E0,7.794017315E0,-2.056628942E0
1.123653125E0,-4.159178257E0,8.342892647E0,-1.103123665E0
1.127623437E0,-3.529484272E0,8.609099388E0,-8.044517785E-2
1.131593750E0,-2.750698328E0,8.740139008E0,9.162514210E-1
1.135565625E0,-2.010229349E0,8.776099205E0,1.614467621E0
1.139535937E0,-1.461880326E0,8.720716476E0,1.913857818E0
1.143506250E0,-9.944939017E-1,8.596544266E0,1.758177280E0
1.147476562E0,-6.935810447E-1,8.465829849E0,1.155920506E0
1.151446875E0,-5.106257796E-1,8.259133339E0,2.627780139E-1
1.155417187E0,-3.416621685E-1,7.996815205E0,-6.376908422E-1
1.159387500E0,-1.478275955E-1,7.690597057E0,-1.709479094E0
1.163357812E0,-2.126242667E-1,7.480080128E0,-2.673777342E0
1.167328125E0,-1.341997981E-1,7.492816925E0,-3.561212063E0
1.171300000E0,-1.286548227E-1,7.625685692E0,-4.240035534E0
1.175270312E0,-8.731174469E-2,7.799820900E0,-4.530777931E0
1.179240625E0,-7.443093508E-2,7.948625088E0,-4.486724377E0
1.183210937E0,-1.441501081E-1,8.169868469E0,-4.226350307E0
1.187181250E0,-2.857432067E-1,8.410006523E0,-3.928071022E0
1.191153125E0,-4.086519182E-1,8.654895782E0,-3.706377506E0
1.195123437E0,-4.049361348E-1,8.887736320E0,-3.561499596E0
1.199092187E0,-2.664746344E-1,9.208099365E0,-3.514812469E0
1.203064062E0,6.966169178E-2,9.557777405E0,-3.598484993E0
1.207034375E0,4.120229483E-1,9.762032509E0,-3.746341467E0
1.211004687E0,7.157896757E-1,9.820709229E0,-3.919969082E0
1.214975000E0,9.318520427E-1,9.714760780E0,-4.040310860E0
1.218945312E0,1.010401011E0,9.527371407E0,-4.108172417E0
1.222915625E0,9.852905869E-1,9.374248505E0,-4.131329060E0
1.226887500E0,1.042760968E0,9.247373581E0,-4.229117870E0
1.230857812E0,1.264272571E0,9.245612144E0,-4.395083904E0
1.234828125E0,1.587279081E0,9.321708679E0,-4.382777691E0
1.238798437E0,2.166158676E0,9.425827980E0,-4.149132252E0
1.242768750E0,2.451049566E0,9.458658218E0,-3.801992178E0
1.246739062E0,2.044437647E0,9.423683167E0,-3.429808855E0
1.250710937E0,1.188338041E0,9.400842667E0,-2.908121824E0
1.254681250E0,3.895462155E-1,9.134827614E0,-2.388963223E0
1.258651562E0,-3.646464944E-1,8.699408531E0,-2.070237637E0
1.262621875E0,-1.378801584E0,8.715124130E0,-1.973348856E0
1.266592187E0,-1.189784169E0,9.429802895E0,-1.552362084E0
1.270562500E0,-7.211527228E-1,1.014228821E1,-1.263688326E0
1.274532812E0,-8.073056936E-1,1.052397156E1,-1.325918436E0
1.278503125E0,-1.441242456E0,1.052478600E1,-1.524704218E0
1.282475000E0,-2.155921221E0,1.038063622E1,-1.800889730E0
1.286445312E0,-2.812344313E0,1.012907219E1,-1.966970801E0
1.290415625E0,-3.176904440E0,9.813727379E0,-2.161236286E0
1.294385937E0,-2.864939928E0,9.569422722E0,-2.487604141E0
1.298356250E0,-2.399966955E0,9.408781052E0,-2.919049025E0
1.302326562E0,-2.485430479E0,9.231294632E0,-3.178704977E0
1.306296875E0,-2.632443905E0,9.071256638E0,-3.601951838E0
1.310268750E0,-2.634857178E0,8.891768456E0,-3.964635372E0
1.314239062E0,-2.335754395E0,8.732583046E0,-4.283638477E0
1.318209375E0,-1.588543177E0,8.626356125E0,-4.750278473E0
1.322179687E0,-7.505056262E-1,8.643230438E0,-5.099227905E0
1.326150000E0,9.549034387E-2,8.747617722E0,-5.432242870E0
1.330120312E0,9.214611650E-1,8.951844215E0,-5.728500843E0
1.334090625E0,1.317289829E0,9.179886818E0,-5.847473621E0
1.338060937E0,1.298413992E0,9.404385567E0,-5.678931713E0
1.342032812E0,1.022563577E0,9.551370621E0,-5.382960320E0
1.346003125E0,4.561433196E-1,9.681088448E0,-4.990742207E0
1.349973437E0,-1.884428263E-1,9.813641548E0,-4.630712032E0
1.353943750E0,-5.810919404E-1,1.000396061E1,-4.251231194E0
1.357914062E0,-8.903174400E-1,1.033915901E1,-3.820140362E0
1.361884375E0,-8.635502458E-1,1.063475704E1,-3.475863695E0
1.365854687E0,-5.021502972E-1,1.081756878E1,-3.225439787E0
1.369826562E0,2.102971077E-1,1.093698120E1,-3.109187126E0
1.373796875E0,1.040807366E0,1.104342747E1,-3.354190350E0
1.377767187E0,1.780788064E0,1.105840588E1,-3.812364101E0
1.381737500E0,2.193031311E0,1.100819397E1,-4.246748924E0
1.385707812E0,2.391893864E0,1.086491585E1,-4.806226254E0
1.389678125E0,2.429722071E0,1.070024300E1,-5.370941639E0
1.393648437E0,2.417042494E0,1.059533882E1,-5.834669590E0
1.397618750E0,2.403213263E0,1.056397438E1,-6.315013885E0
1.401590625E0,2.325181723E0,1.061773872E1,-6.680789948E0
1.405559375E0,2.212405205E0,1.066641808E1,-6.870104313E0
1.409531250E0,2.007260323E0,1.064398861E1,-6.850213528E0
1.413501562E0,1.692968726E0,1.047379875E1,-6.595777035E0
1.417471875E0,1.347245932E0,1.034506702E1,-6.163498878E0
1.421442187E0,1.041305304E0,1.036851215E1,-5.723942280E0
1.425412500E0,3.447746336E-1,1.109839821E1,-5.053048611E0
1.429384375E0,-2.143097818E-1,1.167760372E1,-4.291280746E0
1.433354687E0,-4.113813043E-1,1.162933731E1,-3.609182358E0
1.437325000E0,-4.539789557E-1,1.147002602E1,-2.893593788E0
1.441295312E0,-3.056054711E-1,1.138556862E1,-2.252618074E0
1.445265625E0,-3.237918392E-2,1.138461113E1,-1.800612092E0
1.449237500E0,4.754788876E-1,1.141006660E1,-1.396978378E0
1.453206250E0,9.835380912E-1,1.147400093E1,-9.714329839E-1
1.457178125E0,1.509333491E0,1.139047146E1,-5.462132096E-1
1.461148437E0,1.785538197E0,1.129865932E1,-2.163209021E-1
1.465117187E0,1.831707954E0,1.116059113E1,1.558529437E-1
1.469089062E0,1.598349810E0,1.100624084E1,3.722504973E-1
1.473059375E0,1.238712072E0,1.082989311E1,5.397201180E-1
1.477029687E0,7.438880801E-1,1.058608723E1,5.436274409E-1
1.481000000E0,3.303806782E-1,1.039963627E1,4.866071045E-1
1.484971875E0,1.406449825E-1,1.026442146E1,5.179232955E-1
1.488942187E0,1.407790580E-3,1.007869816E1,4.890971184E-1
1.492912500E0,-2.807632387E-1,9.953367233E0,1.430296004E-1
1.496882812E0,-8.326842189E-1,9.989633560E0,-3.900824785E-1
1.500853125E0,-1.266800880E0,9.973296165E0,-8.418396115E-1
1.504823437E0,-1.472548962E0,9.759167671E0,-1.465759039E0
1.508795312E0,-1.238702536E0,9.330184937E0,-2.220842361E0
1.512764062E0,-7.554280758E-1,8.868113518E0,-3.012748480E0
1.516735937E0,1.173158828E-2,8.490288734E0,-4.133273602E0
1.520706250E0,6.891565919E-1,8.319726944E0,-5.185266018E0
1.524676562E0,1.059999228E0,8.218652725E0,-5.841220379E0
1.528646875E0,1.000029325E0,8.302325249E0,-6.176417828E0
1.532617187E0,4.223946631E-1,8.481621742E0,-5.981596470E0
1.536587500E0,-2.826881707E-1,8.546715736E0,-5.519113541E0
1.540559375E0,-7.746870518E-1,8.548037529E0,-5.216256618E0
1.544529687E0,-1.142407656E0,8.443477631E0,-5.143520832E0
1.548500000E0,-1.253632665E0,8.178018570E0,-5.321391106E0
1.552470312E0,-1.047942162E0,8.115539551E0,-5.616749287E0
1.556440625E0,-5.405532718E-1,8.440039635E0,-5.930686474E0
1.560410937E0,-3.108152747E-1,8.601734161E0,-6.279521942E0
1.564381250E0,-3.030197322E-1,8.703354836E0,-6.184270859E0
1.568351562E0,-6.622936130E-1,8.655900955E0,-5.906888008E0
1.572321875E0,-8.153309822E-1,8.711868286E0,-5.454432011E0
1.576293750E0,-8.238831162E-1,8.664979935E0,-4.949121475E0
1.580264062E0,-1.200577259E0,8.212044716E0,-4.586677551E0
1.584232812E0,-2.640287399E0,6.783300400E0,-4.608311653E0
1.588204687E0,-3.751091480E0,5.317598820E0,-5.608312130E0
1.592175000E0,-4.015641212E0,4.411920071E0,-6.570915699E0
1.596146875E0,-3.961714268E0,3.804597139E0,-7.382195473E0
1.600117187E0,-3.450772524E0,3.614066601E0,-7.457258224E0
1.604085937E0,-2.673164606E0,3.655524731E0,-6.741947174E0
1.608057812E0,-1.028855443E0,3.913600445E0,-5.159466267E0
1.612028125E0,1.312539697E0,4.536408901E0,-7.313902974E-1
1.615998437E0,4.036911488E0,5.652221680E0,6.519430161E0
1.619968750E0,5.569066525E0,7.238112450E0,1.102987671E1
1.623939062E0,5.771625519E0,8.722133636E0,7.898165226E0
1.627909375E0,5.109925270E0,9.327388763E0,2.814661980E0
1.631881250E0,4.688325882E0,9.275501251E0,5.035772324E-1
1.635851562E0,3.690518379E0,8.644666672E0,-1.469752550E0
1.639820312E0,2.371112108E0,7.925056458E0,-3.196766853E0
1.643792187E0,1.054894924E0,7.217225075E0,-4.339404106E0
1.647762500E0,-2.699223161E-1,6.218048573E0,-4.939324379E0
1.651732812E0,-7.198981047E-1,5.523375511E0,-4.422904968E0
1.655703125E0,-5.158163905E-1,5.415052414E0,-3.076625824E0
1.659673437E0,-1.026154831E-1,5.794130802E0,-2.437278032E0
1.663643750E0,6.062118709E-2,6.164111614E0,-2.762008429E0
1.667614062E0,1.698092341E0,4.142035961E0,-1.877456307E0
1.671585937E0,2.680069208E-1,3.836095333E0,-4.427759647E0
1.675556250E0,3.081816435E-2,3.632252932E0,-5.969942093E0
1.679526562E0,6.665457506E-3,3.525078773E0,-6.262580395E0
1.683496875E0,-1.322269738E-1,3.331330538E0,-6.009006023E0
1.687467187E0,-8.217762113E-1,2.907403469E0,-6.240160942E0
1.691439062E0,-1.044829607E0,2.259954214E0,-5.750048637E0
1.695409375E0,-1.075264812E0,1.384145498E0,-4.715658188E0
1.699378125E0,-1.120831132E0,1.546596766E0,-4.235438347E0
1.703350000E0,-8.242183328E-1,2.227325916E0,-5.302438259E0
1.707320312E0,1.658702828E-2,3.032515049E0,-6.479839802E0
1.711290625E0,9.710499048E-1,3.706530809E0,-7.946106434E0
1.715262500E0,2.222192526E0,4.606913567E0,-9.007130623E0
1.719232812E0,2.257952452E0,5.603973866E0,-9.107313156E0
1.723203125E0,1.020265102E0,6.505438328E0,-8.345498085E0
1.727173437E0,-1.692509055E-1,7.252066135E0,-7.202122688E0
1.731143750E0,-2.152626753E0,8.501848221E0,-6.426928043E0
1.735114062E0,-3.191260338E0,8.660058022E0,-4.069070339E0
1.739085937E0,-4.011590481E0,9.014025688E0,-2.326579809E0
1.743054687E0,-4.088157177E0,9.063691139E0,-8.308166862E-1
1.747025000E0,-3.573662043E0,9.433662415E0,2.002893388E-1
1.750996875E0,-4.512744427E0,1.025212479E1,4.317990839E-1
1.754965625E0,-3.163688421E0,9.461856842E0,1.592316508E0
1.758937500E0,-2.637864590E0,9.206644058E0,2.005977154E0
1.762907812E0,-1.604756832E0,8.701543808E0,2.283790827E0
1.766878125E0,-1.660340548E0,8.813746452E0,3.266093254E0
1.770850000E0,-7.763917744E-2,1.002356434E1,4.245609283E0
1.774820312E0,1.546252131E0,1.470783997E1,6.972758293E0
1.778790625E0,5.702902317E0,1.607758141E1,6.047715187E0
1.782760937E0,1.049804783E1,2.123195267E1,5.892379284E0
1.786731250E0,1.471752167E1,2.690984917E1,2.704825401E0
1.790701562E0,1.597257233E1,3.157496071E1,-7.863708138E-1
1.794671875E0,1.410317898E1,3.375776672E1,-2.701473713E0
1.798642187E0,1.040067101E1,3.103501129E1,-3.502209425E0
1.802612500E0,5.695642948E0,2.634102631E1,-3.378007889E0
1.806584375E0,2.271953821E0,2.206178284E1,-3.566307068E0
1.810554687E0,-3.186874092E-1,1.606178093E1,-4.925371170E0
1.814525000E0,-3.582300186E0,5.465876579E0,-3.387850189E1
1.818495312E0,-1.243421936E1,-3.092350662E-1,-4.805879211E1
1.822465625E0,-1.662965584E1,2.269521236E0,-2.972984505E1
1.826435937E0,-1.563844585E1,7.047907352E0,-2.442799187E1
1.830407812E0,-1.213269329E1,8.744410515E0,-1.837138939E1
1.834378125E0,-8.750538826E0,1.004362774E1,-1.075499344E1
1.838348437E0,-5.052694321E0,1.425968361E1,1.014571667E1
1.842318750E0,-1.827245116E0,1.700919342E1,1.952228355E1
1.846289062E0,2.574245632E-2,1.780289078E1,1.969435883E1
1.850259375E0,1.390983224E0,1.854616547E1,1.870268059E1
1.854229687E0,1.838162661E0,1.871996689E1,1.750829887E1
1.858200000E0,2.204916000E0,1.798974419E1,1.478558445E1
1.862170312E0,1.900086284E0,1.588288498E1,9.961803436E0
1.866142187E0,7.193139791E-1,1.384321690E1,5.284778595E0
1.870110937E0,4.560475424E-2,1.260056877E1,2.078684330E0
1.874082812E0,-2.530767024E-1,1.162322617E1,-8.577371240E-1
1.878053125E0,-2.277460545E-1,1.108047104E1,-3.009061575E0
1.882023437E0,-5.798756331E-2,1.081393814E1,-4.245436668E0
1.885993750E0,9.194692224E-2,1.067350483E1,-4.658149242E0
1.889965625E0,2.119155824E-1,1.054860306E1,-4.454737663E0
1.893935937E0,2.934908271E-1,1.042855835E1,-3.841994524E0
1.897906250E0,3.393445611E-1,1.029569912E1,-3.251680136E0
1.901876562E0,3.880139291E-1,1.007299137E1,-2.710877895E0
1.905846875E0,4.741381109E-1,9.846805573E0,-2.412751913E0
1.909817187E0,5.851812363E-1,9.680993080E0,-2.342113495E0
1.913787500E0,7.069789767E-1,9.575293541E0,-2.413096666E0
1.917759375E0,7.941949964E-1,9.551571846E0,-2.516813517E0
1.921729687E0,8.735867143E-1,9.547501564E0,-2.696972370E0
1.925700000E0,9.278106093E-1,9.542818069E0,-2.818904400E0
1.929670312E0,9.572114348E-1,9.515093803E0,-2.900766850E0
1.933640625E0,9.346101880E-1,9.495490074E0,-2.983884096E0
1.937610937E0,8.662987947E-1,9.470868111E0,-2.998900414E0
1.941581250E0,7.665371895E-1,9.454377174E0,-2.967823744E0
1.945553125E0,5.957731605E-1,9.473492622E0,-2.832972765E0
1.949521875E0,4.278438389E-1,9.527869225E0,-2.672800541E0
1.953493750E0,2.903687656E-1,9.574690819E0,-2.408193350E0
1.957464062E0,9.278010577E-2,9.623149872E0,-2.167930365E0
1.961434375E0,-7.268796675E-3,9.648403168E0,-1.980244279E0
1.965404687E0,-1.824477613E-1,9.711811066E0,-1.907077432E0
1.969376562E0,-2.659862339E-1,9.758507729E0,-1.937512517E0
1.973346875E0,-2.304084003E-1,9.834892273E0,-2.022861004E0
1.977317187E0,-1.464485377E-1,9.909102440E0,-2.093154669E0
1.981317187E0,-5.815994740E-2,9.945772171E0,-2.128694296E0
1.985257812E0,1.396298409E-2,9.952054977E0,-2.130513906E0
1.989228125E0,1.165880412E-1,9.933513641E0,-2.137169600E0
1.993198437E0,2.124710381E-1,9.906545639E0,-2.080015421E0
1.997170312E0,2.873808146E-1,9.860979080E0,-2.027007818E0
2.001139062E0,3.715800941E-1,9.824941635E0,-1.981278539E0
2.005110937E0,4.180659056E-1,9.808507919E0,-1.962536693E0
2.009081250E0,4.761492610E-1,9.784508705E0,-1.942875504E0
2.013051562E0,5.222998857E-1,9.790532112E0,-1.962077022E0
2.017021875E0,5.622830987E-1,9.782803535E0,-2.009501457E0
2.020992187E0,6.110864878E-1,9.788205147E0,-2.035100222E0
2.024962500E0,6.025726795E-1,9.820057869E0,-2.085943460E0
2.028934375E0,5.620627999E-1,9.821723938E0,-2.120908499E0
2.032903125E0,4.681143165E-1,9.795971870E0,-2.195703030E0
2.036875000E0,5.031079650E-1,9.788924217E0,-2.186241388E0
2.040845312E0,5.294824839E-1,9.754925728E0,-2.138136864E0
2.044815625E0,4.886565506E-1,9.751400948E0,-2.044102430E0
2.048785937E0,4.846534729E-1,9.718888283E0,-1.962718606E0
2.052757812E0,4.763886631E-1,9.695808411E0,-1.928778410E0
2.056728125E0,3.761290908E-1,9.659885406E0,-1.915035725E0
2.060696875E0,3.319991827E-1,9.611551285E0,-1.940308928E0
2.064668750E0,2.417664975E-1,9.573502541E0,-1.949684739E0
2.068639062E0,2.340763062E-1,9.554397583E0,-2.003870249E0
2.072609375E0,1.881076396E-1,9.541018486E0,-2.023090839E0
2.076579687E0,1.571362466E-1,9.541267395E0,-2.066761017E0
2.080550000E0,1.401852965E-1,9.565956116E0,-2.069930792E0
2.084520312E0,9.561483562E-2,9.590856552E0,-2.074298143E0
2.088490625E0,8.560708165E-2,9.623895645E0,-2.093978167E0
2.092460937E0,9.331640601E-2,9.674145699E0,-2.093892097E0
2.096432812E0,9.731951356E-2,9.708707809E0,-2.083970785E0
2.100403125E0,1.082466543E-1,9.758152962E0,-2.057739735E0
2.104373437E0,8.120174706E-2,9.799639702E0,-2.036996365E0
2.108343750E0,1.312501431E-1,9.813468933E0,-2.031949520E0
2.112314062E0,1.703905463E-1,9.838445663E0,-1.984898567E0
2.116285937E0,1.250156313E-1,9.873199463E0,-1.942971349E0
2.120256250E0,1.162337065E-1,9.903308868E0,-1.919623017E0
2.124226562E0,7.665276527E-2,9.901728630E0,-1.923951745E0
2.128196875E0,1.371781826E-1,9.915288925E0,-1.910381436E0
2.132167187E0,1.283675283E-1,9.929376602E0,-1.874736547E0
2.136137500E0,1.233492717E-1,9.969254494E0,-1.900402308E0
2.140107812E0,1.396011263E-1,9.963191986E0,-1.886381984E0
2.144078125E0,1.546079665E-1,9.972290993E0,-1.894273162E0
2.148050000E0,1.941314489E-1,9.974952698E0,-1.884619713E0
2.152021875E0,2.149035484E-1,9.987996101E0,-1.880156994E0
2.155990625E0,2.338560522E-1,9.995130539E0,-1.870197177E0
2.159960937E0,2.589089572E-1,1.002395725E1,-1.887780190E0
2.163931250E0,2.849291563E-1,1.003015327E1,-1.878050208E0
2.167901562E0,3.006446958E-1,1.001732063E1,-1.863828659E0
2.171873437E0,2.996008396E-1,9.992286682E0,-1.863522053E0
2.175842187E0,3.200377226E-1,9.957005501E0,-1.847787380E0
2.179814062E0,3.343263268E-1,9.939528465E0,-1.841007113E0
2.183784375E0,3.208230138E-1,9.907006264E0,-1.837712646E0
2.187754687E0,3.046286702E-1,9.877710342E0,-1.830137372E0
2.191725000E0,2.777657211E-1,9.854380608E0,-1.827915549E0
2.195695312E0,2.652871311E-1,9.830419540E0,-1.819880605E0
2.199665625E0,2.549250126E-1,9.806056976E0,-1.836563349E0
2.203635937E0,2.462867498E-1,9.794726372E0,-1.854797602E0
2.207607812E0,2.481733710E-1,9.781683922E0,-1.898439050E0
2.211576562E0,2.208124399E-1,9.775467873E0,-1.912076592E0
2.215548437E0,2.278801054E-1,9.766705513E0,-1.918560028E0
2.219518750E0,2.431838512E-1,9.772920609E0,-1.916386127E0
2.223489062E0,2.272001654E-1,9.795646667E0,-1.913963079E0
2.227460937E0,2.227278054E-1,9.828628540E0,-1.908274531E0
2.231429687E0,2.128541172E-1,9.860605240E0,-1.917726755E0
2.235401562E0,1.800056547E-1,9.903395653E0,-1.964423299E0
2.239371875E0,1.650275439E-1,9.932326317E0,-1.994465828E0
2.243340625E0,1.488523036E-1,9.947017670E0,-2.010957003E0
2.247310937E0,1.306851059E-1,9.944240570E0,-2.042330742E0
2.251282812E0,1.391510069E-1,9.951863289E0,-2.075102568E0
2.255253125E0,1.341710687E-1,9.928840637E0,-2.071884871E0
2.259223437E0,1.701511294E-1,9.902523041E0,-2.048900366E0
2.263195312E0,2.315480411E-1,9.878677368E0,-2.022861004E0
2.267165625E0,2.404640317E-1,9.868669510E0,-1.991276741E0
2.271135937E0,2.339422256E-1,9.863210678E0,-1.998085856E0
2.275106250E0,2.286558449E-1,9.862186432E0,-2.016310453E0
2.279076562E0,2.097512186E-1,9.834911346E0,-2.014232397E0
2.283048437E0,2.253901511E-1,9.806947708E0,-2.007279634E0
2.287018750E0,2.337794304E-1,9.786663055E0,-1.991133094E0
2.290987500E0,2.350052595E-1,9.787812233E0,-2.012843609E0
2.294959375E0,2.483457476E-1,9.759552002E0,-2.001993179E0
2.298929687E0,2.871797085E-1,9.753508568E0,-1.947548985E0
2.302900000E0,2.550207973E-1,9.779442787E0,-1.938336015E0
2.306870312E0,2.533257008E-1,9.785955429E0,-1.932532549E0
2.310840625E0,2.593973875E-1,9.791882515E0,-1.938795805E0
2.314810937E0,2.586025000E-1,9.803795815E0,-1.906110048E0
2.318781250E0,2.394393384E-1,9.800061226E0,-1.923329234E0
2.322753125E0,2.619735301E-1,9.804630280E0,-1.940873981E0
2.326723437E0,2.814719379E-1,9.812684059E0,-1.956627846E0
2.330693750E0,2.711385489E-1,9.805817604E0,-1.978865147E0
2.334664062E0,2.698935568E-1,9.785610199E0,-1.971529245E0
2.338634375E0,2.790298462E-1,9.763717651E0,-1.983950496E0
2.342606250E0,2.432125807E-1,9.737860680E0,-1.990424275E0
2.346575000E0,2.242121994E-1,9.713630676E0,-2.016626358E0
2.350546875E0,2.479052246E-1,9.712433815E0,-2.029804230E0
2.354517187E0,2.556816041E-1,9.725429535E0,-2.039610863E0
2.358487500E0,2.477041036E-1,9.739000320E0,-2.060564995E0
2.362457812E0,2.546951771E-1,9.750636101E0,-2.066004753E0
2.366428125E0,2.585738003E-1,9.761074066E0,-2.058678150E0
2.370398437E0,2.533161044E-1,9.764081001E0,-2.044542789E0
2.374368750E0,2.625385821E-1,9.774816513E0,-2.037772179E0
2.378340625E0,2.652966976E-1,9.790265083E0,-2.020916939E0
2.382310937E0,2.468134612E-1,9.793022156E0,-1.993536830E0
2.386281250E0,2.591771185E-1,9.807023048E0,-1.969384193E0
2.390251562E0,2.618490458E-1,9.801795006E0,-1.958150506E0
2.394221875E0,2.298433632E-1,9.802627563E0,-1.939131021E0
2.398192187E0,2.213104218E-1,9.811370850E0,-1.922017217E0
2.402164062E0,2.149993181E-1,9.845225334E0,-1.927610159E0
2.406134375E0,2.224596441E-1,9.853567123E0,-1.927150369E0
2.410103125E0,2.501653433E-1,9.864733696E0,-1.923472881E0
2.414075000E0,2.322854400E-1,9.897706032E0,-1.920188069E0
2.418045312E0,2.249496132E-1,9.940141678E0,-1.924210310E0
2.422015625E0,2.591196597E-1,9.952935219E0,-1.910410166E0
2.425985937E0,2.971012890E-1,9.953672409E0,-1.909787655E0
2.429956250E0,3.008266687E-1,9.966439247E0,-1.913838625E0
2.433928125E0,3.200281560E-1,9.991663933E0,-1.896849394E0
2.437898437E0,3.152972162E-1,9.968335152E0,-1.896303415E0
2.441868750E0,3.188310564E-1,9.961688995E0,-1.894024253E0
2.445839062E0,3.346136212E-1,9.924263000E0,-1.872849822E0
2.449809375E0,3.377165198E-1,9.904840469E0,-1.887215137E0
2.453779687E0,3.141575754E-1,9.862348557E0,-1.889082670E0
2.457750000E0,3.019471467E-1,9.847887993E0,-1.903265834E0
2.461721875E0,2.854462862E-1,9.818200111E0,-1.922065020E0
2.465692187E0,2.728528082E-1,9.800415993E0,-1.931546092E0
2.469662500E0,2.668864429E-1,9.770880699E0,-1.966223717E0
2.473632812E0,2.534406185E-1,9.754312515E0,-1.956445813E0
2.477603125E0,2.393244058E-1,9.725381851E0,-1.947443604E0
2.481573437E0,2.429540157E-1,9.731299400E0,-1.973684072E0
2.485545312E0,2.039189488E-1,9.748969078E0,-1.980273008E0
2.489514062E0,1.499153227E-1,9.743213654E0,-1.993134618E0
2.493485937E0,1.714439988E-1,9.698058128E0,-2.014308929E0
2.497456250E0,2.735040188E-1,9.635972977E0,-1.988422871E0
2.501426562E0,3.393924534E-1,9.599571228E0,-1.908360720E0
2.505396875E0,3.972842395E-1,9.627985001E0,-1.810323000E0
2.509371875E0,3.175477684E-1,9.718648911E0,-1.698216796E0
2.513337500E0,1.849281490E-1,9.815298080E0,-1.696761131E0
2.517309375E0,6.666415185E-2,9.898626328E0,-1.817668319E0
2.521279687E0,1.893334836E-2,9.936234474E0,-1.952145815E0
2.525250000E0,5.030696467E-2,9.935123444E0,-2.078952312E0
2.529220312E0,9.481996298E-2,9.929606438E0,-2.089084625E0
2.533190625E0,1.193557456E-1,9.929712296E0,-2.034056187E0
2.537159375E0,1.242399141E-1,9.924348831E0,-1.985386968E0
2.541132812E0,1.207922697E-1,9.924109459E0,-1.976480603E0
2.545101562E0,1.142896116E-1,9.926388741E0,-1.990759492E0
2.549071875E0,9.347920865E-2,9.929233551E0,-2.045730352E0
2.553043750E0,9.408254921E-2,9.906249046E0,-2.086460590E0
2.557014062E0,7.358817756E-2,9.906430244E0,-2.116895676E0
2.560984375E0,6.754522026E-2,9.897543907E0,-2.118638754E0
2.564976562E0,8.546342701E-2,9.903605461E0,-2.134430885E0
2.568925000E0,6.314946711E-2,9.878236771E0,-2.136212111E0
2.572895312E0,4.506845027E-2,9.863191605E0,-2.137198448E0
2.576867187E0,6.466259807E-2,9.839210510E0,-2.131500244E0
2.580837500E0,9.293333441E-2,9.778848648E0,-2.096363068E0
2.584807812E0,1.296603829E-1,9.736759186E0,-2.047387123E0
2.588778125E0,1.765292883E-1,9.700519562E0,-2.015889168E0
2.592748437E0,2.281003892E-1,9.675898552E0,-1.971347451E0
2.596718750E0,2.731975615E-1,9.669395447E0,-1.933327436E0
2.600690625E0,3.009511530E-1,9.669414520E0,-1.929017901E0
2.604660937E0,3.330526054E-1,9.663161278E0,-1.918971777E0
2.608631250E0,3.601070940E-1,9.678397179E0,-1.916635156E0
2.612601562E0,3.855718076E-1,9.688855171E0,-1.917487383E0
2.616571875E0,3.961829245E-1,9.702991486E0,-1.900067091E0
2.620542187E0,4.119367599E-1,9.733607292E0,-1.903045535E0
2.624512500E0,4.219636917E-1,9.764158249E0,-1.926326752E0
2.628482812E0,4.174817502E-1,9.779442787E0,-1.934294701E0
2.632453125E0,4.242812693E-1,9.785226822E0,-1.957259893E0
2.636425000E0,4.290984273E-1,9.801622391E0,-1.990127444E0
2.640395312E0,4.248846173E-1,9.810193062E0,-2.029957294E0
2.644365625E0,3.796246350E-1,9.814464569E0,-2.067747593E0
2.648335937E0,3.425144851E-1,9.798854828E0,-2.103545666E0
2.652306250E0,3.514401019E-1,9.800980568E0,-2.157156467E0
2.656276562E0,3.368354440E-1,9.799860001E0,-2.189018488E0
2.660248437E0,3.389136195E-1,9.799620628E0,-2.205155611E0
2.664218750E0,3.915573061E-1,9.802522659E0,-2.234297752E0
2.668189062E0,4.175775051E-1,9.785168648E0,-2.234096766E0
2.672159375E0,4.394030571E-1,9.776388168E0,-2.194487095E0
2.676129687E0,4.739370048E-1,9.766485214E0,-2.128761292E0
2.680100000E0,5.173007846E-1,9.762740135E0,-2.101620674E0
2.684070312E0,5.305263400E-1,9.759791374E0,-2.064098597E0
2.688040625E0,5.103958845E-1,9.753652573E0,-2.020246506E0
2.692012500E0,4.999571741E-1,9.725314140E0,-2.013600111E0
2.695982812E0,4.504929781E-1,9.709790230E0,-1.996687651E0
2.699953125E0,4.120708406E-1,9.678771019E0,-2.006743193E0
2.703923437E0,4.284759164E-1,9.631299019E0,-2.043412924E0
2.707893750E0,4.210347235E-1,9.617431641E0,-2.046745539E0
2.711864062E0,3.823635876E-1,9.590912819E0,-2.023138762E0
2.715834375E0,3.635547459E-1,9.570159912E0,-2.001983404E0
2.719806250E0,3.359543681E-1,9.558793068E0,-1.980684757E0
2.723776562E0,2.628259063E-1,9.596208572E0,-1.983232141E0
2.727746875E0,2.464208156E-1,9.621205330E0,-2.025226355E0
2.731717187E0,2.568020523E-1,9.662921906E0,-2.062777042E0
2.735685937E0,2.760993242E-1,9.686135292E0,-2.119577169E0
2.739657812E0,3.276033998E-1,9.722431183E0,-2.113390684E0
2.743628125E0,3.530106843E-1,9.777125359E0,-2.084822893E0
2.747598437E0,3.783413470E-1,9.844756126E0,-2.051323175E0
2.751570312E0,3.795097172E-1,9.904870033E0,-2.045261145E0
2.755539062E0,3.752671778E-1,9.967664719E0,-2.060095787E0
2.759510937E0,3.624151051E-1,1.000646114E1,-2.096334219E0
2.763481250E0,3.532022238E-1,1.003312206E1,-2.084688902E0
2.767451562E0,3.538725972E-1,1.002638054E1,-2.085349560E0
2.771423437E0,3.232459724E-1,1.003176308E1,-2.077793598E0
2.775392187E0,3.151918650E-1,1.002657223E1,-2.082093477E0
2.779362500E0,3.070228696E-1,1.002774048E1,-2.070017338E0
2.783334375E0,2.795757055E-1,9.998837471E0,-2.093959332E0
2.787304687E0,2.770569921E-1,9.979569435E0,-2.114195108E0
2.791275000E0,2.623374760E-1,9.965423584E0,-2.118581295E0
2.795245312E0,2.542929649E-1,9.917607307E0,-2.126903534E0
2.799217187E0,2.431359738E-1,9.867051125E0,-2.109780073E0
2.803185937E0,2.488437444E-1,9.825984955E0,-2.100490808E0
2.807156250E0,2.941994965E-1,9.777067184E0,-2.084143162E0
2.811128125E0,3.172125816E-1,9.725342751E0,-2.064596653E0
2.815098437E0,3.410204947E-1,9.702559471E0,-2.027467489E0
2.819068750E0,3.540449739E-1,9.677076340E0,-2.029526472E0
2.823039062E0,4.074835479E-1,9.664099693E0,-2.043795824E0
2.827009375E0,4.206612110E-1,9.667498589E0,-2.026107550E0
2.830979687E0,4.320767820E-1,9.680993080E0,-2.036019564E0
2.834950000E0,4.582980871E-1,9.689698219E0,-2.024431705E0
2.838921875E0,4.604911804E-1,9.706046104E0,-2.019576073E0
2.842892187E0,4.607401788E-1,9.731568336E0,-2.020821095E0
2.846862500E0,4.462696314E-1,9.743787766E0,-2.035014153E0
2.850832812E0,4.686793387E-1,9.788799286E0,-2.046036959E0
2.854803125E0,4.513261616E-1,9.788311005E0,-2.069816113E0
2.858773437E0,4.304104447E-1,9.802905083E0,-2.102904081E0
2.862743750E0,4.304487407E-1,9.849907875E0,-2.118447065E0
2.866715625E0,4.030686319E-1,9.874866486E0,-2.148844004E0
2.870685937E0,3.868359625E-1,9.901326180E0,-2.155432940E0
2.874656250E0,3.704787493E-1,9.903164864E0,-2.167518854E0
2.878626562E0,3.580001891E-1,9.903031349E0,-2.179786682E0
2.882596875E0,3.583353758E-1,9.883982658E0,-2.170315266E0
2.886567187E0,3.756502271E-1,9.862531662E0,-2.162615538E0
2.890539062E0,3.988931477E-1,9.853059769E0,-2.151305199E0
2.894507812E0,4.076559544E-1,9.850167274E0,-2.159646511E0
2.898479687E0,4.200387597E-1,9.839097023E0,-2.162127018E0
2.902450000E0,4.131817520E-1,9.836442947E0,-2.137610435E0
2.906420312E0,4.213028848E-1,9.833743095E0,-2.125859737E0
2.910390625E0,4.230458736E-1,9.832632065E0,-2.122230053E0
2.914360937E0,4.408970475E-1,9.834212303E0,-2.110479355E0
2.918331250E0,4.450820982E-1,9.851067543E0,-2.111839056E0
2.922303125E0,4.496789575E-1,9.841050148E0,-2.114798307E0
2.926273437E0,4.539406300E-1,9.859399796E0,-2.128416538E0
2.930243750E0,4.447564781E-1,9.859839439E0,-2.138070107E0
2.934214062E0,4.441052675E-1,9.863766670E0,-2.122469425E0
2.938184375E0,4.627034366E-1,9.871216774E0,-2.130149841E0
2.942154687E0,4.597154558E-1,9.843070030E0,-2.127296209E0
2.946126562E0,4.493629038E-1,9.856861115E0,-2.130226612E0
2.950096875E0,4.541704655E-1,9.833580017E0,-2.109119415E0
2.954065625E0,4.737741947E-1,9.827700615E0,-2.105882406E0
2.958037500E0,4.813781977E-1,9.821111679E0,-2.101994038E0
2.962007812E0,4.891832769E-1,9.795416832E0,-2.121406317E0
2.965978125E0,5.045157671E-1,9.774471283E0,-2.107711315E0
2.969948437E0,5.138244033E-1,9.771560669E0,-2.097330332E0
2.973950000E0,5.249717832E-1,9.754600525E0,-2.111484766E0
2.977889062E0,5.150598288E-1,9.767748833E0,-2.118092775E0
2.981860937E0,5.268105268E-1,9.773245811E0,-2.111599684E0
2.985837500E0,5.270404220E-1,9.783665657E0,-2.106389999E0
2.989801562E0,5.059427023E-1,9.787296295E0,-2.129422188E0
2.993771875E0,5.182009935E-1,9.788780212E0,-2.139899254E0
2.997742187E0,5.174157023E-1,9.802952766E0,-2.159953117E0
3.001712500E0,5.056074858E-1,9.822825432E0,-2.168744564E0
3.005684375E0,5.003210902E-1,9.833072662E0,-2.174212933E0
3.009654687E0,4.893173575E-1,9.850961685E0,-2.176492214E0
3.013623437E0,4.937322736E-1,9.875564575E0,-2.196890831E0
3.017595312E0,4.821730554E-1,9.877862930E0,-2.188089609E0
3.021565625E0,4.742722213E-1,9.863938332E0,-2.184574842E0
3.025535937E0,4.647720158E-1,9.859552383E0,-2.173552036E0
3.029507812E0,4.520540237E-1,9.853365898E0,-2.167480469E0
3.033476562E0,4.398244321E-1,9.852906227E0,-2.171588898E0
3.037446875E0,4.489127994E-1,9.853260994E0,-2.170755625E0
3.041418750E0,4.499183893E-1,9.838837624E0,-2.171435595E0
3.045389062E0,4.626076519E-1,9.829931259E0,-2.152109623E0
3.049359375E0,4.743009210E-1,9.807119370E0,-2.155777693E0
3.053329687E0,4.788690805E-1,9.807502747E0,-2.135263920E0
3.057300000E0,4.710831344E-1,9.802560806E0,-2.154072762E0
3.061270312E0,4.936652184E-1,9.796786308E0,-2.150615692E0
3.065242187E0,4.920467436E-1,9.788818359E0,-2.150041103E0
3.069212500E0,4.979843795E-1,9.795665741E0,-2.135867357E0
3.073182812E0,5.100128651E-1,9.805108070E0,-2.134852409E0
3.077153125E0,5.219551325E-1,9.790522575E0,-2.128148556E0
3.081123437E0,5.226350427E-1,9.799870491E0,-2.116043568E0
3.085093750E0,5.088157058E-1,9.806161880E0,-2.142580509E0
3.089064062E0,5.008861423E-1,9.822500229E0,-2.140368462E0
3.093034375E0,4.827955663E-1,9.810787201E0,-2.146430731E0
3.097006250E0,4.846247137E-1,9.798346519E0,-2.139065981E0
3.100976562E0,4.780263007E-1,9.795215607E0,-2.153613329E0
3.104946875E0,4.695795476E-1,9.793578148E0,-2.159512520E0
3.108917187E0,4.580682516E-1,9.798385620E0,-2.175007820E0
3.112887500E0,4.697423577E-1,9.782909393E0,-2.184278011E0
3.116857812E0,4.775857925E-1,9.780514717E0,-2.199773550E0
3.120829687E0,4.890109003E-1,9.783388138E0,-2.212184906E0
3.124800000E0,5.153854489E-1,9.794746399E0,-2.215804815E0
3.128770312E0,5.212273002E-1,9.814685822E0,-2.210528135E0
3.132740625E0,5.249143839E-1,9.822403908E0,-2.200357676E0
3.136710937E0,5.310818553E-1,9.844038010E0,-2.212625504E0
3.140681250E0,5.623309612E-1,9.857244492E0,-2.198643208E0
3.144651562E0,5.485211611E-1,9.877786636E0,-2.202790022E0
3.148623437E0,5.487893224E-1,9.889335632E0,-2.208842516E0
3.152592187E0,5.344337225E-1,9.884614944E0,-2.190847874E0
3.156564062E0,5.319341421E-1,9.885946274E0,-2.194419861E0
3.160534375E0,5.266382098E-1,9.890035629E0,-2.206505775E0
3.164504687E0,5.065460801E-1,9.909916878E0,-2.191872597E0
3.168475000E0,4.920563400E-1,9.890466690E0,-2.153402567E0
3.172445312E0,4.739944637E-1,9.897073746E0,-2.153488874E0
3.176415625E0,4.573691487E-1,9.886253357E0,-2.128464460E0
3.180387500E0,4.483190477E-1,9.875354767E0,-2.118226767E0
3.184357812E0,4.361852407E-1,9.870547295E0,-2.107625246E0
3.188328125E0,4.216668010E-1,9.837813377E0,-2.130054235E0
3.192298437E0,4.001860321E-1,9.800376892E0,-2.137236834E0
3.196268750E0,3.687166572E-1,9.779701233E0,-2.123857975E0
3.200239062E0,3.526946306E-1,9.752828598E0,-2.111733913E0
3.204209375E0,3.296432793E-1,9.720622063E0,-2.102243185E0
3.208181250E0,3.071665168E-1,9.682860374E0,-2.097933531E0
3.212150000E0,2.896696925E-1,9.653508186E0,-2.103746891E0
3.216121875E0,2.750841975E-1,9.634928703E0,-2.113045931E0
3.220092187E0,2.731401026E-1,9.623340607E0,-2.110038519E0
3.224062500E0,2.665225267E-1,9.586277962E0,-2.112164736E0
3.228032812E0,2.683708370E-1,9.597272873E0,-2.114319563E0
3.232003125E0,2.512475252E-1,9.587503433E0,-2.104723692E0
3.235973437E0,2.448502183E-1,9.589056015E0,-2.102262259E0
3.239945312E0,2.469379604E-1,9.580368996E0,-2.104876757E0
3.243915625E0,2.495045513E-1,9.582715988E0,-2.110460043E0
3.247885937E0,2.164549828E-1,9.586603165E0,-2.092570543E0
3.251856250E0,2.071942091E-1,9.584957123E0,-2.090569019E0
3.255826562E0,1.853495240E-1,9.579631805E0,-2.093844175E0
3.259796875E0,1.825243682E-1,9.588577271E0,-2.107836008E0
3.263768750E0,1.593772173E-1,9.585033417E0,-2.100337505E0
3.267739062E0,1.486703455E-1,9.592828751E0,-2.110162973E0
3.271709375E0,1.444469690E-1,9.618475914E0,-2.118945122E0
3.275679687E0,1.547420472E-1,9.634363174E0,-2.153948307E0
3.279650000E0,1.491779238E-1,9.650452614E0,-2.147196770E0
3.283620312E0,1.452227086E-1,9.674173355E0,-2.139650106E0
3.287590625E0,1.625854522E-1,9.717365265E0,-2.134680033E0
3.291560937E0,1.544547379E-1,9.737476349E0,-2.113285065E0
3.295532812E0,1.770943105E-1,9.773581505E0,-2.092714310E0
3.299503125E0,1.992454678E-1,9.806612015E0,-2.065870285E0
3.303471875E0,2.217892706E-1,9.816811562E0,-2.082572460E0
3.307443750E0,2.527606785E-1,9.831081390E0,-2.075112104E0
3.311414062E0,2.719238698E-1,9.849247932E0,-2.063887835E0
3.315384375E0,3.148662448E-1,9.864962578E0,-2.067996502E0
3.319356250E0,3.272969425E-1,9.869032860E0,-2.038088083E0
3.323326562E0,3.130753636E-1,9.869905472E0,-2.030273438E0
3.327296875E0,3.371132016E-1,9.871159554E0,-2.032399654E0
3.331267187E0,3.501376212E-1,9.867347717E0,-2.049177885E0
3.335237500E0,3.410013616E-1,9.885629654E0,-2.066636801E0
3.339207812E0,3.562859595E-1,9.892668724E0,-2.063102722E0
3.343178125E0,3.624342680E-1,9.890235901E0,-2.063935995E0
3.347148437E0,3.865295053E-1,9.886281013E0,-2.053976059E0
3.351118750E0,4.176541269E-1,9.875038147E0,-2.078751326E0
3.355090625E0,4.369705617E-1,9.863085747E0,-2.059396505E0
3.359060937E0,4.230554402E-1,9.844229698E0,-2.073905468E0
3.363031250E0,4.518145919E-1,9.835255623E0,-2.077467918E0
3.367001562E0,4.594089985E-1,9.826483727E0,-2.053181171E0
3.370971875E0,4.679611027E-1,9.821733475E0,-2.066981554E0
3.374942187E0,4.707287848E-1,9.838636398E0,-2.043317080E0
3.378914062E0,4.735347927E-1,9.847456932E0,-2.027429104E0
3.382884375E0,4.795873463E-1,9.858574867E0,-2.016942501E0
3.386854687E0,4.797692895E-1,9.871456146E0,-1.996620655E0
3.390825000E0,4.820485711E-1,9.875095367E0,-1.988576055E0
3.394795312E0,4.703935981E-1,9.911238670E0,-1.994216800E0
3.398765625E0,4.521497786E-1,9.911717415E0,-1.985339165E0
3.402735937E0,4.386560619E-1,9.906900406E0,-1.985272050E0
3.406706250E0,4.183819592E-1,9.885860443E0,-1.973253131E0
3.410676562E0,4.129327834E-1,9.878638268E0,-1.976164579E0
3.414648437E0,4.063056111E-1,9.866984367E0,-1.986239314E0
3.418618750E0,4.037103057E-1,9.859246254E0,-1.974536538E0
3.422589062E0,3.939036131E-1,9.844938278E0,-1.979248285E0
3.426559375E0,4.216285050E-1,9.829030991E0,-1.995816112E0
3.430529687E0,4.175679386E-1,9.813995361E0,-2.011234760E0
3.434501562E0,4.315309227E-1,9.808728218E0,-2.019173861E0
3.438471875E0,4.522838295E-1,9.807330132E0,-2.013619423E0
3.442442187E0,4.715715349E-1,9.810278893E0,-2.023607969E0
3.446412500E0,4.820773005E-1,9.807636261E0,-2.030072451E0
3.450382812E0,4.878233969E-1,9.811161041E0,-2.027007818E0
3.454353125E0,5.019779205E-1,9.805740356E0,-2.028520823E0
3.458323437E0,5.064885616E-1,9.796336174E0,-2.007719994E0
3.462293750E0,5.196854472E-1,9.781798363E0,-2.009281158E0
3.466264062E0,5.100415945E-1,9.780936241E0,-2.011703968E0
3.470234375E0,5.173773766E-1,9.765804291E0,-2.006178141E0
3.474206250E0,5.166878700E-1,9.761121750E0,-1.996247053E0
3.478176562E0,5.388677120E-1,9.756860733E0,-1.972630620E0
3.482146875E0,5.396051407E-1,9.756486893E0,-1.957777023E0
3.486117187E0,5.244929790E-1,9.771321297E0,-1.968656301E0
3.490087500E0,5.039028525E-1,9.780323029E0,-1.964375496E0
3.494059375E0,5.128188729E-1,9.784345627E0,-1.953055620E0
3.498029687E0,5.109130740E-1,9.790206909E0,-1.936890006E0
3.501998437E0,5.148970485E-1,9.789507866E0,-1.932513475E0
3.505970312E0,5.355254412E-1,9.797753334E0,-1.916012526E0
3.509940625E0,5.171571374E-1,9.786414146E0,-1.904415011E0
3.513910937E0,5.101947784E-1,9.757951736E0,-1.888785720E0
3.517882812E0,5.075516105E-1,9.745426178E0,-1.875282526E0
3.521851562E0,5.072738528E-1,9.733511925E0,-1.874248147E0
3.525821875E0,5.140925646E-1,9.696976662E0,-1.879256845E0
3.529793750E0,5.331791639E-1,9.696775436E0,-1.854060173E0
3.533764062E0,5.169464946E-1,9.678397179E0,-1.881210446E0
3.537732812E0,5.291377306E-1,9.671684265E0,-1.894148707E0
3.541704687E0,5.296644568E-1,9.657155991E0,-1.914106846E0
3.545675000E0,5.193023682E-1,9.663697243E0,-1.902537942E0
3.549645312E0,5.377663970E-1,9.682055473E0,-1.906100631E0
3.553617187E0,5.345103145E-1,9.691622734E0,-1.896140695E0
3.557587500E0,5.463759899E-1,9.706534386E0,-1.879266381E0
3.561557812E0,5.521029234E-1,9.726185799E0,-1.873769283E0
3.565528125E0,5.699540973E-1,9.739612579E0,-1.874200225E0
3.569498437E0,5.575999618E-1,9.768447876E0,-1.882809758E0
3.573468750E0,5.697721243E-1,9.767567635E0,-1.882216096E0
3.577440625E0,5.667458773E-1,9.792793274E0,-1.884361148E0
3.581409375E0,5.640547276E-1,9.818181038E0,-1.884246349E0
3.585381250E0,5.395094156E-1,9.823160172E0,-1.893756151E0
3.589351562E0,5.276916623E-1,9.848682404E0,-1.893669963E0
3.593321875E0,5.221849680E-1,9.863115311E0,-1.871863484E0
3.597292187E0,5.014990568E-1,9.897984505E0,-1.871988058E0
3.601262500E0,4.851227105E-1,9.920154572E0,-1.849252701E0
3.605232812E0,4.801428020E-1,9.946049690E0,-1.858570933E0
3.609203125E0,4.765131772E-1,9.961478233E0,-1.832521915E0
3.613175000E0,4.865018129E-1,9.990122795E0,-1.820282817E0
3.617145312E0,4.594568908E-1,1.002049065E1,-1.825550079E0
3.621115625E0,4.356010556E-1,1.002933979E1,-1.816250920E0
3.625085937E0,4.255549908E-1,1.004675961E1,-1.797059059E0
3.629056250E0,4.108641744E-1,1.004753494E1,-1.770349383E0
3.633026562E0,3.846907616E-1,1.003422356E1,-1.764248848E0
3.636998437E0,3.652211130E-1,1.002143002E1,-1.763310432E0
3.640967187E0,3.498694897E-1,9.979099274E0,-1.753886819E0
3.644939062E0,3.668970466E-1,9.947984695E0,-1.738889575E0
3.648909375E0,3.491033316E-1,9.913766861E0,-1.744424939E0
3.652879687E0,3.499461114E-1,9.874061584E0,-1.740306854E0
3.656850000E0,3.534607887E-1,9.824060440E0,-1.751119137E0
3.660820312E0,3.558070958E-1,9.777336121E0,-1.758656144E0
3.664790625E0,3.508367240E-1,9.768333435E0,-1.746445656E0
3.668760937E0,3.449278474E-1,9.773849487E0,-1.764507413E0
3.672732812E0,3.280439377E-1,9.757559776E0,-1.779763341E0
3.676703125E0,3.112462163E-1,9.778780937E0,-1.792797327E0
3.680673437E0,3.067355454E-1,9.813258171E0,-1.786457539E0
3.684643750E0,2.772964537E-1,9.838349342E0,-1.778365135E0
3.688614062E0,2.636973858E-1,9.883599281E0,-1.762027144E0
3.692585937E0,2.437010109E-1,9.919867516E0,-1.756338477E0
3.696556250E0,2.246910334E-1,9.969848633E0,-1.734235287E0
3.700525000E0,2.099906504E-1,9.970452309E0,-1.725137234E0
3.704496875E0,2.137830555E-1,9.978036880E0,-1.720205188E0
3.708467187E0,1.912967265E-1,9.984759331E0,-1.704125762E0
3.712437500E0,1.646636128E-1,9.971189499E0,-1.695994973E0
3.716409375E0,1.578257680E-1,9.955694199E0,-1.680835009E0
3.720379687E0,1.447725892E-1,9.930076599E0,-1.662351727E0
3.724348437E0,1.451173574E-1,9.889441490E0,-1.645276189E0
3.728320312E0,1.304552555E-1,9.857263565E0,-1.644672990E0
3.732290625E0,1.227842420E-1,9.855166435E0,-1.629388332E0
3.736260937E0,1.133510843E-1,9.826369286E0,-1.621631145E0
3.740231250E0,1.024718359E-1,9.803518295E0,-1.624963880E0
3.744201562E0,9.708009660E-2,9.815375328E0,-1.606902003E0
3.748171875E0,6.834009290E-2,9.830717087E0,-1.609037638E0
3.752143750E0,6.370491534E-2,9.819990158E0,-1.612686396E0
3.756114062E0,5.364927277E-2,9.805979729E0,-1.616948128E0
3.760084375E0,5.889736116E-2,9.814004898E0,-1.596539974E0
3.764054687E0,5.868667364E-2,9.816428185E0,-1.594653249E0
3.768025000E0,6.721960753E-2,9.828312874E0,-1.602458358E0
3.771995312E0,6.768887490E-2,9.826004982E0,-1.621449232E0
3.775967187E0,7.342537493E-2,9.834193230E0,-1.632749796E0
3.779935937E0,8.033025265E-2,9.851449966E0,-1.651290536E0
3.783907812E0,8.389282972E-2,9.836586952E0,-1.629072309E0
3.787878125E0,6.752606481E-2,9.824252129E0,-1.640765667E0
3.791848437E0,7.852023840E-2,9.817252159E0,-1.638189435E0
3.795818750E0,9.004113823E-2,9.785245895E0,-1.642929912E0
3.799789062E0,1.145386100E-1,9.763219833E0,-1.642795920E0
3.803759375E0,1.341231912E-1,9.737591743E0,-1.647210836E0
3.807729687E0,1.496280432E-1,9.708277702E0,-1.646406412E0
3.811701562E0,1.607850045E-1,9.690014839E0,-1.635345101E0
3.815671875E0,1.609669626E-1,9.674020767E0,-1.648609042E0
3.819648437E0,1.600380242E-1,9.672689438E0,-1.615454078E0
3.823612500E0,1.622694135E-1,9.646333694E0,-1.632788062E0
3.827582812E0,1.609382331E-1,9.659358025E0,-1.641857266E0
3.831553125E0,1.670386642E-1,9.660221100E0,-1.627578378E0
3.835525000E0,1.630259901E-1,9.676731110E0,-1.632797718E0
3.839493750E0,1.682453454E-1,9.669194221E0,-1.601347446E0
3.843465625E0,1.922927052E-1,9.690684319E0,-1.600887656E0
3.847435937E0,2.115995437E-1,9.705643654E0,-1.626381278E0
3.851406250E0,2.152004242E-1,9.729786873E0,-1.630269408E0
3.855376562E0,2.237525135E-1,9.766513824E0,-1.628679633E0
3.859346875E0,2.320268750E-1,9.810069084E0,-1.671555042E0
3.863317187E0,2.328121811E-1,9.856191635E0,-1.734982133E0
3.867287500E0,2.260796875E-1,9.906440735E0,-1.767179489E0
3.871259375E0,2.259934843E-1,9.951757431E0,-1.793726325E0
3.875229687E0,2.055565864E-1,1.001217747E1,-1.827676177E0
3.879200000E0,1.829361618E-1,1.005442047E1,-1.828078389E0
3.883170312E0,1.565999389E-1,1.012571049E1,-1.848352432E0
3.887140625E0,1.313171685E-1,1.020195198E1,-1.894493580E0
3.891112500E0,1.202559695E-1,1.022800064E1,-1.889178395E0
3.895081250E0,7.420109212E-2,1.026761055E1,-1.921710849E0
3.899051562E0,7.891288400E-2,1.027353859E1,-1.944752574E0
3.903023437E0,6.727706641E-2,1.026551342E1,-1.957087517E0
3.906993750E0,7.167281955E-2,1.023287582E1,-1.946035862E0
3.910964062E0,9.244491905E-2,1.020616627E1,-1.951781988E0
3.914934375E0,1.276205331E-1,1.018888950E1,-1.929697871E0
3.918904687E0,1.696148217E-1,1.015099430E1,-1.913120389E0
3.922876562E0,2.054129392E-1,1.011065578E1,-1.865782261E0
3.926845312E0,2.347945720E-1,1.007164097E1,-1.822475910E0
3.930815625E0,2.834734917E-1,1.002677345E1,-1.812018037E0
3.934785937E0,3.181223869E-1,9.977079391E0,-1.784254909E0
3.938764062E0,3.181989789E-1,9.930640221E0,-1.765043855E0
3.942728125E0,3.311659992E-1,9.883293152E0,-1.736591101E0
3.946698437E0,3.436253965E-1,9.827383995E0,-1.698571205E0
3.950668750E0,3.658627570E-1,9.763803482E0,-1.647047997E0
3.954640625E0,3.407044709E-1,9.723283768E0,-1.592239857E0
3.958610937E0,3.297486305E-1,9.664836884E0,-1.548607945E0
3.962581250E0,3.134297132E-1,9.626826286E0,-1.514935970E0
3.966581250E0,2.902155519E-1,9.614673615E0,-1.497352958E0
3.970521875E0,2.664650679E-1,9.621874809E0,-1.477040529E0
3.974492187E0,2.178148925E-1,9.640435219E0,-1.467846751E0
3.978462500E0,1.915169805E-1,9.674193382E0,-1.481292605E0
3.982434375E0,1.711088121E-1,9.704916000E0,-1.516659737E0
3.986403125E0,1.387775093E-1,9.743156433E0,-1.549757242E0
3.990375000E0,1.314416826E-1,9.778867722E0,-1.554095507E0
3.994345312E0,1.378677040E-1,9.818640709E0,-1.566315413E0
3.998315625E0,1.248528287E-1,9.843386650E0,-1.586043715E0
4.002285937E0,1.278120577E-1,9.882939339E0,-1.591071486E0
4.006256250E0,1.313842237E-1,9.916285515E0,-1.596693158E0
4.010226562E0,1.351095885E-1,9.952514648E0,-1.625797033E0
4.014198437E0,1.421676874E-1,9.957685471E0,-1.638802409E0
4.018168750E0,1.202368066E-1,9.947257042E0,-1.665387630E0
4.022139062E0,1.163965091E-1,9.968852997E0,-1.681237221E0
4.026109375E0,1.144236922E-1,9.942497253E0,-1.660359740E0
4.030079687E0,1.222096309E-1,9.903356552E0,-1.657218456E0
4.034050000E0,1.239430308E-1,9.889863014E0,-1.645735979E0
4.038020312E0,1.133127734E-1,9.841902733E0,-1.607744694E0
4.041992187E0,1.400608122E-1,9.796469688E0,-1.605350614E0
4.045960937E0,1.337592602E-1,9.753881454E0,-1.581427693E0
4.049932812E0,1.339699626E-1,9.709157944E0,-1.569054484E0
4.053903125E0,1.182927191E-1,9.689822197E0,-1.561325908E0
4.057873437E0,9.975202382E-2,9.680666924E0,-1.531522989E0
4.061843750E0,1.017822996E-1,9.666177750E0,-1.529703379E0
4.065814062E0,8.768524230E-2,9.654273033E0,-1.519331694E0
4.069785937E0,8.501331508E-2,9.653573990E0,-1.514897585E0
4.073754687E0,7.504386455E-2,9.668035507E0,-1.524618030E0
4.077726562E0,8.207323402E-2,9.676463127E0,-1.528793573E0
4.081696875E0,6.739199162E-2,9.708517075E0,-1.536981702E0
4.085667187E0,4.797022790E-2,9.723380089E0,-1.530239582E0
4.089637500E0,5.470272154E-2,9.762510300E0,-1.517502427E0
4.093607812E0,4.717535153E-2,9.813134193E0,-1.533917069E0
4.097578125E0,3.793372959E-2,9.854275703E0,-1.538533211E0
4.101550000E0,2.868253738E-2,9.913210869E0,-1.540439010E0
4.105518750E0,1.628057100E-2,9.955732346E0,-1.551605463E0
4.109490625E0,1.627099328E-2,1.001143074E1,-1.553903937E0
4.113460937E0,1.134851668E-2,1.006953335E1,-1.569906712E0
4.117431250E0,2.138501033E-2,1.008707809E1,-1.554114580E0
4.121401562E0,1.395340730E-2,1.010801315E1,-1.527922153E0
4.125371875E0,3.332728753E-3,1.009224987E1,-1.517454624E0
4.129343750E0,2.456451021E-2,1.009838867E1,-1.530584455E0
4.133314062E0,2.415270545E-2,1.007574940E1,-1.525499105E0
4.137284375E0,3.433285281E-2,1.003677177E1,-1.515692472E0
4.141254687E0,6.788998097E-2,1.000185490E1,-1.501729488E0
4.145225000E0,7.324341685E-2,9.974273682E0,-1.481187224E0
4.149195312E0,9.028055519E-2,9.931186676E0,-1.460539699E0
4.153165625E0,1.032092422E-1,9.910433769E0,-1.451096892E0
4.157137500E0,1.125849411E-1,9.885457993E0,-1.434768438E0
4.161107812E0,1.245080680E-1,9.872738838E0,-1.435793161E0
4.165078125E0,1.568106413E-1,9.857694626E0,-1.397964835E0
4.169048437E0,1.587930322E-1,9.854993820E0,-1.375200629E0
4.173018750E0,1.640698612E-1,9.836941719E0,-1.326014280E0
4.176989062E0,1.819880456E-1,9.833809853E0,-1.318161249E0
4.180960937E0,1.745373011E-1,9.822988510E0,-1.300472856E0
4.184929687E0,1.649796516E-1,9.813123703E0,-1.283608198E0
4.188901562E0,1.438244730E-1,9.819387436E0,-1.285839558E0
4.192871875E0,1.076337248E-1,9.826684952E0,-1.292160273E0
4.196842187E0,6.189490110E-2,9.871188164E0,-1.312194943E0
4.200812500E0,4.842991382E-2,9.901393890E0,-1.358307242E0
4.204782812E0,-7.201758679E-3,9.921236038E0,-1.379577279E0
4.208753125E0,-1.608903520E-2,9.919542313E0,-1.396537900E0
4.212723437E0,-4.113238677E-2,9.926101685E0,-1.427652955E0
4.216695312E0,-6.539043784E-2,9.951259613E0,-1.439853787E0
4.220665625E0,-7.334876060E-2,9.953817368E0,-1.462311387E0
4.224635937E0,-6.583096832E-2,9.976696014E0,-1.484749913E0
4.228606250E0,-8.286811411E-2,9.976743698E0,-1.489365816E0
4.232576562E0,-6.362830102E-2,1.000013924E1,-1.491788864E0
4.236546875E0,-5.012500659E-2,9.996577263E0,-1.467760563E0
4.240518750E0,-3.625778854E-2,1.000878811E1,-1.432508349E0
4.244487500E0,-3.540545702E-2,9.996951103E0,-1.411113739E0
4.248459375E0,-8.504204452E-3,9.959687233E0,-1.397859454E0
4.252429687E0,-2.758120187E-3,9.933733940E0,-1.335581422E0
4.256400000E0,-2.135627903E-3,9.904065132E0,-1.298212767E0
4.260370312E0,1.002691686E-2,9.871744156E0,-1.279624104E0
4.264340625E0,3.909252584E-2,9.840782166E0,-1.226243019E0
4.268310937E0,4.794149473E-2,9.794258118E0,-1.213592172E0
4.272282812E0,6.304412335E-2,9.776962280E0,-1.200002551E0
4.276253125E0,5.314170197E-2,9.750281334E0,-1.173905849E0
4.280223437E0,8.164227754E-2,9.743855476E0,-1.171683908E0
4.284193750E0,9.277053177E-2,9.744361877E0,-1.169088721E0
4.288164062E0,9.544245899E-2,9.742514610E0,-1.172794938E0
4.292134375E0,1.122976393E-1,9.759072304E0,-1.183300614E0
4.296107812E0,1.272374541E-1,9.768237114E0,-1.173762202E0
4.300076562E0,1.220468283E-1,9.798902512E0,-1.168523669E0
4.304046875E0,1.267298758E-1,9.834651947E0,-1.202664971E0
4.308017187E0,1.347169280E-1,9.884749413E0,-1.227813721E0
4.311987500E0,1.387391984E-1,9.921734810E0,-1.261954904E0
4.315957812E0,1.571458280E-1,9.948884964E0,-1.280217886E0
4.319928125E0,1.485745907E-1,9.992996216E0,-1.329423547E0
4.323898437E0,1.667322069E-1,1.002444649E1,-1.387123942E0
4.327868750E0,1.668567061E-1,1.004749680E1,-1.428045511E0
4.331840625E0,1.710226089E-1,1.003602409E1,-1.481733203E0
4.335810937E0,1.713482141E-1,1.002065372E1,-1.516276598E0
4.339781250E0,1.385572404E-1,1.001601887E1,-1.541971207E0
4.343751562E0,1.008246243E-1,9.984971046E0,-1.573498011E0
4.347721875E0,6.409756839E-2,9.966754913E0,-1.619457126E0
4.351692187E0,1.784159057E-2,9.921877861E0,-1.658013463E0
4.355664062E0,-2.391328663E-2,9.890332222E0,-1.705160022E0
4.359634375E0,-9.976159781E-2,9.849880219E0,-1.762936831E0
4.363604687E0,-1.386242807E-1,9.804524422E0,-1.823883653E0
4.367575000E0,-1.708885282E-1,9.782191277E0,-1.864451051E0
4.371545312E0,-1.988336593E-1,9.750482559E0,-1.872466803E0
4.375515625E0,-2.149418443E-1,9.712491035E0,-1.892846346E0
4.379487500E0,-2.322375625E-1,9.664884567E0,-1.897720814E0
4.383456250E0,-2.024919987E-1,9.644572258E0,-1.888086677E0
4.387426562E0,-1.796704680E-1,9.620860100E0,-1.902212381E0
4.391398437E0,-1.616277546E-1,9.600260735E0,-1.907431722E0
4.395368750E0,-1.364886463E-1,9.576346397E0,-1.900929093E0
4.399339062E0,-9.984778613E-2,9.585128784E0,-1.887186408E0
4.403309375E0,-7.479485869E-2,9.592311859E0,-1.874401331E0
4.407279687E0,-4.797022790E-2,9.595596313E0,-1.860313892E0
4.411250000E0,-3.687070310E-2,9.603536606E0,-1.851608515E0
4.415234375E0,-2.670013718E-2,9.598143578E0,-1.843066096E0
4.419192187E0,-1.022802945E-2,9.586200714E0,-1.821278811E0
4.423162500E0,8.465897292E-3,9.578080177E0,-1.809987783E0
4.427132812E0,4.599740356E-2,9.546276093E0,-1.780989170E0
4.431103125E0,8.143159002E-2,9.510419846E0,-1.759087086E0
4.435073437E0,1.350042373E-1,9.473109245E0,-1.750831842E0
4.439045312E0,1.917564124E-1,9.426038742E0,-1.769315004E0
4.443014062E0,2.641091943E-1,9.402393341E0,-1.806195259E0
4.446985937E0,2.940750122E-1,9.378269196E0,-1.786898017E0
4.450956250E0,3.247686625E-1,9.321776390E0,-1.796206832E0
4.454926562E0,3.385975957E-1,9.244070053E0,-1.798284888E0
4.458896875E0,3.352744281E-1,9.187796593E0,-1.803255200E0
4.462867187E0,2.990262210E-1,9.096845627E0,-1.802316785E0
4.466837500E0,2.572713196E-1,9.018449783E0,-1.798016667E0
4.470807812E0,2.517742515E-1,8.943243027E0,-1.779839993E0
4.474779687E0,2.483074516E-1,8.882038116E0,-1.763818026E0
4.478750000E0,2.478573322E-1,8.862329483E0,-1.762927413E0
4.482720312E0,2.683421373E-1,8.850865364E0,-1.767907262E0
4.486690625E0,2.629886866E-1,8.844640732E0,-1.784398556E0
4.490660937E0,2.576352656E-1,8.856698036E0,-1.824956298E0
4.494631250E0,2.599719763E-1,8.875114441E0,-1.852231026E0
4.498603125E0,2.586025000E-1,8.879576683E0,-1.860007405E0
4.502571875E0,2.930407226E-1,8.901660919E0,-1.903840423E0
4.506543750E0,3.232363760E-1,8.893798828E0,-1.934591532E0
4.510514062E0,3.789542615E-1,8.916954994E0,-1.957422733E0
4.514484375E0,3.789925575E-1,8.958126068E0,-2.029564857E0
4.518456250E0,3.858878613E-1,9.027356148E0,-2.081624269E0
4.522425000E0,3.890386224E-1,9.113135338E0,-2.141172886E0
4.526395312E0,4.298262298E-1,9.207141876E0,-2.182132721E0
4.530367187E0,4.654998481E-1,9.303033829E0,-2.175036430E0
4.534345312E0,4.708149731E-1,9.417142868E0,-2.097770691E0
4.538307812E0,4.623203576E-1,9.527629852E0,-2.035732269E0
4.542278125E0,4.751053751E-1,9.655988693E0,-1.901580334E0
4.546248437E0,4.402649403E-1,9.831665039E0,-1.775271893E0
4.550218750E0,4.092648327E-1,9.996711731E0,-1.639999390E0
4.554190625E0,3.842214942E-1,1.015280342E1,-1.560349107E0
4.558160937E0,4.278821349E-1,1.035750771E1,-1.515788198E0
4.562129687E0,4.412609637E-1,1.055909920E1,-1.493732929E0
4.566101562E0,4.040071666E-1,1.071678257E1,-1.511469126E0
4.570071875E0,3.776709735E-1,1.082744217E1,-1.477040529E0
4.574042187E0,3.739168346E-1,1.086437988E1,-1.515884042E0
4.578012500E0,3.993815482E-1,1.087087345E1,-1.565137625E0
4.581982812E0,4.445074797E-1,1.083941269E1,-1.740852833E0
4.585954687E0,5.766674280E-1,1.078121471E1,-1.985836983E0
4.589925000E0,7.952676415E-1,1.067863750E1,-2.236510038E0
4.593895312E0,1.028874636E0,1.056395531E1,-2.683469296E0
4.597865625E0,1.226741076E0,1.025106144E1,-2.966090441E0
4.601835937E0,1.312941909E0,9.765163422E0,-3.436464787E0
4.605806250E0,1.452274919E0,9.520590782E0,-3.657804012E0
4.609776562E0,1.742768168E0,9.412353516E0,-3.831182480E0
4.613748437E0,1.994417906E0,9.600029945E0,-3.816347837E0
4.617718750E0,2.086250067E0,9.744832039E0,-3.771432638E0
4.621689062E0,2.126367092E0,9.864350319E0,-3.565071821E0
4.625659375E0,2.202177286E0,9.946672440E0,-3.376772404E0
4.629629687E0,2.300368071E0,1.009415531E1,-3.258604288E0
4.633600000E0,2.355377436E0,1.020821476E1,-3.226071835E0
4.637570312E0,2.395140171E0,1.029272079E1,-3.219980955E0
4.641540625E0,2.467215300E0,1.040452003E1,-3.247925997E0
4.645512500E0,2.560522318E0,1.052631855E1,-3.351336479E0
4.649482812E0,2.642231464E0,1.064757061E1,-3.492546558E0
4.653453125E0,2.657381773E0,1.078651047E1,-3.615273237E0
4.657423437E0,2.596013784E0,1.093743134E1,-3.673912048E0
4.661393750E0,2.483438492E0,1.112329769E1,-3.679974079E0
4.665364062E0,2.313823462E0,1.124422455E1,-3.686677933E0
4.669335937E0,2.069509506E0,1.132420063E1,-3.694080830E0
4.673306250E0,1.863292217E0,1.136550522E1,-3.645957232E0
4.677276562E0,1.590602279E0,1.138601875E1,-3.591599464E0
4.681246875E0,1.338425756E0,1.135500908E1,-3.569065094E0
4.685217187E0,1.160776019E0,1.128641987E1,-3.575922012E0
4.689187500E0,9.758670926E-1,1.118198490E1,-3.620722294E0
4.693157812E0,7.872614264E-1,1.101553059E1,-3.693094492E0
4.697129687E0,6.941460967E-1,1.081978035E1,-3.747030973E0
4.701098437E0,6.504854560E-1,1.053889275E1,-3.797778606E0
4.705070312E0,6.299049258E-1,1.021334839E1,-3.781440496E0
4.709040625E0,6.421536207E-1,9.865299225E0,-3.741725445E0
4.713010937E0,6.900568008E-1,9.578539848E0,-3.691236496E0
4.716981250E0,7.631087303E-1,9.263099670E0,-3.614124060E0
4.720951562E0,8.549215794E-1,8.931320190E0,-3.517455816E0
4.724921875E0,9.025949240E-1,8.681548119E0,-3.482280254E0
4.728893750E0,9.615114331E-1,8.408599854E0,-3.456825018E0
4.732864062E0,1.047922969E0,8.213912010E0,-3.403654575E0
4.736832812E0,1.210106254E0,8.148359299E0,-3.460550308E0
4.740804687E0,1.152568698E0,7.915833950E0,-3.571689129E0
4.744775000E0,1.092972279E0,7.747588634E0,-3.571564674E0
4.748745312E0,1.158525467E0,7.608572006E0,-3.551032066E0
4.752715625E0,1.240474224E0,7.527101994E0,-3.588946581E0
4.756687500E0,1.368133068E0,7.469104767E0,-3.701196194E0
4.760657812E0,1.482575893E0,7.495565414E0,-3.819728613E0
4.764628125E0,1.533361673E0,7.519478798E0,-3.885195494E0
4.768598437E0,1.585698962E0,7.555650234E0,-3.958783627E0
4.772575000E0,1.660963058E0,7.631278515E0,-3.984755993E0
4.776539062E0,1.713252425E0,7.679018974E0,-4.004493713E0
4.780509375E0,1.714104772E0,7.682208061E0,-4.033492565E0
4.784481250E0,1.777503133E0,7.659405708E0,-4.104897022E0
4.788451562E0,1.799328685E0,7.636708260E0,-4.180726051E0
4.792420312E0,1.818204761E0,7.642205715E0,-4.243243694E0
4.796392187E0,1.873932123E0,7.618263721E0,-4.315883636E0
4.800362500E0,1.953850627E0,7.606436253E0,-4.345820904E0
4.804332812E0,2.053602457E0,7.600268364E0,-4.399115562E0
4.808303125E0,2.091191769E0,7.637656689E0,-4.458098888E0
4.812275000E0,2.171023607E0,7.685176849E0,-4.481629372E0
4.816243750E0,2.307081461E0,7.746285915E0,-4.511739254E0
4.820215625E0,2.456604242E0,7.780379772E0,-4.573451996E0
4.824185937E0,2.584559917E0,7.815593719E0,-4.575702667E0
4.828156250E0,2.776278019E0,7.817337036E0,-4.582138062E0
4.832128125E0,2.906407833E0,7.829010963E0,-4.573815823E0
4.836096875E0,2.933825970E0,7.900338650E0,-4.613502026E0
4.840067187E0,3.012432337E0,7.997371197E0,-4.656511784E0
4.844039062E0,3.059866428E0,8.066860199E0,-4.687904358E0
4.848009375E0,3.061044455E0,8.146568298E0,-4.743009090E0
4.851979687E0,3.146392822E0,8.141080856E0,-4.781517506E0
4.855950000E0,3.219502211E0,8.152237892E0,-4.848421574E0
4.859920312E0,3.274137974E0,8.183238029E0,-4.897416115E0
4.863890625E0,3.378630400E0,8.165271759E0,-4.932256699E0
4.867862500E0,3.497583866E0,8.165395737E0,-4.945462704E0
4.871831250E0,3.580739260E0,8.159841537E0,-4.932878971E0
4.875801562E0,3.625597239E0,8.144461632E0,-4.892436028E0
4.879773437E0,3.748170614E0,8.086607933E0,-4.854330063E0
4.883743750E0,3.830148220E0,7.995656967E0,-4.833060265E0
4.887714062E0,3.860439539E0,7.955788612E0,-4.834851265E0
4.891687500E0,3.931815386E0,7.894200325E0,-4.850556850E0
4.895654687E0,3.939208746E0,7.829882145E0,-4.860842228E0
4.899625000E0,3.943508863E0,7.787122250E0,-4.922162533E0
4.903596875E0,4.008611679E0,7.709578514E0,-4.942666531E0
4.907567187E0,4.034833431E0,7.666377544E0,-4.949178696E0
4.911537500E0,4.094851017E0,7.532484531E0,-4.959225178E0
4.915507812E0,4.002635956E0,7.454432964E0,-4.936728954E0
4.919478125E0,4.021684170E0,7.362208366E0,-4.912403584E0
4.923450000E0,4.014214516E0,7.325740337E0,-4.849407673E0
4.927420312E0,3.854262352E0,7.449165821E0,-4.788700104E0
4.931389062E0,3.856206656E0,7.497318268E0,-4.736908913E0
4.935360937E0,3.710734844E0,7.582331657E0,-4.652555943E0
4.939331250E0,3.688373089E0,7.682102680E0,-4.559814453E0
4.943301562E0,3.733604193E0,7.707624912E0,-4.468212605E0
4.947271875E0,3.507438421E0,7.799083710E0,-4.415865898E0
4.951242187E0,3.455723524E0,7.776012897E0,-4.373517036E0
4.955212500E0,3.434875011E0,7.835705280E0,-4.306172848E0
4.959214062E0,3.351240635E0,7.911399841E0,-4.241529465E0
4.963154687E0,3.253806353E0,8.014896393E0,-4.213871479E0
4.967125000E0,3.111877918E0,8.125106812E0,-4.257704735E0
4.971095312E0,2.869086981E0,8.274112701E0,-4.265902519E0
4.975065625E0,2.664985895E0,8.457680702E0,-4.337029457E0
4.979035937E0,2.539750099E0,8.655690193E0,-4.390448570E0
4.983006250E0,2.335131884E0,8.879509926E0,-4.442958355E0
4.986978125E0,2.156754494E0,9.062924385E0,-4.487998009E0
4.990946875E0,2.005507708E0,9.223441124E0,-4.483439445E0
4.994918750E0,1.854874253E0,9.437455177E0,-4.497804642E0
4.998889062E0,1.768462777E0,9.657299995E0,-4.491924763E0
5.002859375E0,1.805027008E0,9.795513153E0,-4.499787331E0
5.006829687E0,1.891064882E0,9.915069580E0,-4.520990372E0
5.010806250E0,2.001025915E0,1.003409958E1,-4.516278267E0
5.014770312E0,2.054694414E0,1.012733841E1,-4.489750385E0
5.018742187E0,2.090386868E0,1.017683220E1,-4.466431141E0
5.022712500E0,2.124624252E0,1.027790546E1,-4.430872440E0
5.026682812E0,2.102731705E0,1.045466518E1,-4.364830971E0
5.030653125E0,2.063332558E0,1.070981979E1,-4.305234432E0
5.034623437E0,1.942636132E0,1.117071247E1,-4.237076283E0
5.038593750E0,1.730844975E0,1.179489040E1,-4.174884319E0
5.042565625E0,1.409332514E0,1.243711090E1,-4.147101879E0
5.046535937E0,8.984864354E-1,1.330183029E1,-4.115613937E0
5.050504687E0,3.187735975E-1,1.421355152E1,-4.199630737E0
5.054476562E0,-2.645784318E-1,1.511797523E1,-4.372338772E0
5.058446875E0,-7.612795234E-1,1.576554966E1,-4.548619270E0
5.062417187E0,-1.048066497E0,1.615149498E1,-4.755823135E0
5.066387500E0,-1.008313179E0,1.607554245E1,-4.996890545E0
5.070357812E0,-7.631853223E-1,1.566450500E1,-5.130046368E0
5.074328125E0,-3.712544739E-1,1.495914459E1,-5.178400040E0
5.078300000E0,5.974011868E-2,1.407051277E1,-5.181349277E0
5.082268750E0,3.870753646E-1,1.325308418E1,-5.227576733E0
5.086240625E0,7.904695868E-1,1.241770935E1,-5.346587181E0
5.090209375E0,1.348117590E0,1.171699333E1,-5.711234093E0
5.094181250E0,2.034879923E0,1.111771488E1,-6.224512577E0
5.098151562E0,2.701827765E0,1.064672756E1,-6.620254993E0
5.102123437E0,3.573231220E0,1.013944435E1,-6.913046837E0
5.106093750E0,4.372195244E0,9.690541267E0,-6.924270630E0
5.110064062E0,4.879325867E0,9.430607796E0,-6.765276432E0
5.114034375E0,5.281110764E0,9.194471359E0,-6.447585106E0
5.118004687E0,5.631344318E0,8.834364891E0,-6.088646412E0
5.121975000E0,5.810823441E0,8.463837624E0,-5.761138439E0
5.125945312E0,5.608896255E0,8.247105598E0,-5.260760307E0
5.129925000E0,4.983224392E0,8.333661079E0,-4.811205387E0
5.133887500E0,4.200214863E0,8.471250534E0,-4.438035965E0
5.137856250E0,3.530940056E0,8.558725357E0,-4.076310158E0
5.141828125E0,2.941200256E0,8.606322289E0,-3.592997551E0
5.145798437E0,2.446376324E0,8.605173111E0,-3.059473515E0
5.149768750E0,2.048632383E0,8.612431526E0,-2.727886438E0
5.153739062E0,1.586187363E0,8.601342201E0,-2.498081207E0
5.157709375E0,1.139898539E0,8.565093994E0,-2.170975924E0
5.161679687E0,7.282586694E-1,8.507758141E0,-1.761883378E0
5.165651562E0,2.488054335E-1,8.386055946E0,-1.137140512E0
5.169621875E0,-2.961052954E-1,8.244710922E0,-3.791266084E-1
5.173592187E0,-9.390537739E-1,8.097630501E0,4.936939776E-1
5.177562500E0,-1.511622310E0,8.085286140E0,1.351316214E0
5.181534375E0,-1.917056441E0,8.078036308E0,1.736552835E0
5.185503125E0,-2.179949522E0,8.128056526E0,1.312424779E0
5.189473437E0,-2.391022205E0,8.184769630E0,6.826922894E-1
5.193445312E0,-2.796370029E0,8.422973633E0,-5.979758129E-2
5.197415625E0,-3.167672634E0,8.759024620E0,-7.012999654E-1
5.201385937E0,-3.415750027E0,9.221105576E0,-1.110765934E0
5.205356250E0,-3.642806530E0,9.864503860E0,-1.492890120E0
5.209326562E0,-3.672188282E0,1.046245956E1,-1.829629779E0
5.213296875E0,-3.480240345E0,1.104682732E1,-2.092158794E0
5.217267187E0,-3.136701107E0,1.145279789E1,-2.253144979E0
5.221239062E0,-2.613357306E0,1.190032196E1,-2.301095963E0
5.225209375E0,-2.025647879E0,1.222305107E1,-2.249649525E0
5.229179687E0,-1.515079618E0,1.243892193E1,-2.179154634E0
5.233150000E0,-1.004156947E0,1.269521618E1,-2.144160986E0
5.237120312E0,-8.129080534E-1,1.282579613E1,-2.198949814E0
5.241090625E0,-1.010439277E0,1.275207329E1,-2.261591434E0
5.245060937E0,-9.362094998E-1,1.254730320E1,-2.307244301E0
5.249031250E0,-4.593419433E-1,1.229977036E1,-2.292208672E0
5.253003125E0,1.043871976E-2,1.206852913E1,-2.140444994E0
5.256973437E0,2.990932763E-1,1.188579369E1,-1.852719426E0
5.260943750E0,3.719152808E-1,1.166905212E1,-1.615004063E0
5.264914062E0,2.740403116E-1,1.150627422E1,-1.678584337E0
5.268884375E0,1.937100738E-1,1.137540817E1,-1.952567220E0
5.272854687E0,7.101202756E-2,1.110959339E1,-2.135819435E0
5.276825000E0,-3.649721146E-1,1.085243797E1,-2.167652845E0
5.280796875E0,-4.366257489E-1,1.067616653E1,-2.420231342E0
5.284767187E0,-2.542163432E-1,1.038301086E1,-2.952079296E0
5.288737500E0,-2.219424993E-1,1.016637421E1,-3.051237822E0
5.292707812E0,-2.395733893E-1,1.000642204E1,-3.211572409E0
5.296678125E0,-3.129509091E-1,9.896116257E0,-3.376935244E0
5.300648437E0,-5.114398003E-1,9.700902939E0,-3.489721537E0
5.304618750E0,-7.749935389E-1,9.504597664E0,-3.493628740E0
5.308590625E0,-9.562345743E-1,9.371920586E0,-3.392430782E0
5.312560937E0,-1.098344803E0,9.225692749E0,-3.176406384E0
5.316531250E0,-1.289277554E0,9.028802872E0,-3.098451376E0
5.320501562E0,-1.477021337E0,8.817308426E0,-2.992503166E0
5.324471875E0,-1.682510853E0,8.565773010E0,-2.872237444E0
5.328442187E0,-1.909845114E0,8.382042885E0,-2.696474314E0
5.332414062E0,-2.131260872E0,8.202659607E0,-2.529828310E0
5.336382812E0,-2.279375792E0,8.036980629E0,-2.396997929E0
5.340354687E0,-2.277862549E0,7.949678898E0,-2.249553680E0
5.344325000E0,-2.398166418E0,7.901803970E0,-2.113141537E0
5.348295312E0,-2.467741966E0,7.937602043E0,-1.921672463E0
5.352265625E0,-2.609766006E0,7.882114410E0,-1.861080050E0
5.356235937E0,-2.701483250E0,7.754714012E0,-2.050145149E0
5.360207812E0,-2.458347082E0,7.703104496E0,-2.135771513E0
5.364176562E0,-2.026768208E0,7.558916092E0,-2.002108097E0
5.368148437E0,-1.742011547E0,7.443908215E0,-1.981019855E0
5.372118750E0,-1.600466490E0,7.363549232E0,-3.777533293E0
5.376089062E0,-9.861142039E-1,7.353072166E0,-3.344575167E0
5.380059375E0,-6.025822759E-1,7.716866016E0,-2.248136282E0
5.384029687E0,-2.197685689E-1,8.113307953E0,-1.494661808E0
5.388000000E0,-2.348999232E-1,8.455238342E0,-1.264933348E0
5.391971875E0,-2.215498537E-1,8.619796753E0,-1.337487340E0
5.395940625E0,-3.973895907E-1,8.713821411E0,-1.861501336E0
5.399912500E0,-5.421525836E-1,8.697617531E0,-2.451164484E0
5.403882812E0,-5.462132096E-1,8.641880989E0,-2.975188255E0
5.407853125E0,-4.325460494E-1,8.494119644E0,-3.521296024E0
5.411823437E0,-3.137936294E-1,8.428806305E0,-4.015459061E0
5.415793750E0,-2.387593687E-1,8.397681236E0,-4.288158894E0
5.419765625E0,-1.687337607E-1,8.395200729E0,-4.335477829E0
5.423735937E0,-2.368535846E-1,8.432120323E0,-4.315041065E0
5.427706250E0,-2.425517887E-1,8.483710289E0,-4.296059608E0
5.431676562E0,-1.749969870E-1,8.473788261E0,-4.241883755E0
5.435646875E0,-8.510908484E-2,8.535376549E0,-4.155395508E0
5.439617187E0,-8.538681269E-2,8.651083946E0,-4.091824532E0
5.443587500E0,-6.645346433E-2,8.585788727E0,-4.017058372E0
5.447559375E0,-6.821559370E-2,8.571624756E0,-3.806359291E0
5.451529687E0,1.598752141E-1,8.487358093E0,-3.420184135E0
5.455498437E0,2.661873400E-1,8.415944099E0,-3.099217415E0
5.459470312E0,3.844034374E-1,8.375396729E0,-2.777829409E0
5.463440625E0,4.345093071E-1,8.418980598E0,-2.602190733E0
5.467410937E0,4.919892848E-1,8.478175163E0,-2.527127743E0
5.471381250E0,5.128092766E-1,8.594005585E0,-2.506719589E0
5.475351562E0,5.488659739E-1,8.654618263E0,-2.523230076E0
5.479321875E0,5.903047919E-1,8.707088470E0,-2.534884930E0
5.483293750E0,6.165643930E-1,8.818524361E0,-2.544519186E0
5.487264062E0,6.252313852E-1,8.924061775E0,-2.450838804E0
5.491234375E0,6.657795906E-1,8.934968948E0,-2.399133682E0
5.495204687E0,6.649655700E-1,8.922308922E0,-2.343070984E0
5.499175000E0,6.494798660E-1,8.956756592E0,-2.295072317E0
5.503145312E0,5.058469176E-1,8.947524071E0,-2.279701471E0
5.507117187E0,3.929076493E-1,8.904783249E0,-2.238770008E0
5.511087500E0,3.111887574E-1,8.819980621E0,-2.196143866E0
5.515056250E0,2.012278587E-1,8.786720276E0,-2.239057302E0
5.519028125E0,8.784804493E-2,8.714041710E0,-2.262089491E0
5.522998437E0,-3.472550213E-2,8.702262878E0,-2.377653122E0
5.526968750E0,-1.632558256E-1,8.699284554E0,-2.581907272E0
5.530940625E0,-2.416132689E-1,8.780044556E0,-2.841247082E0
5.534909375E0,-2.580662370E-1,8.800329208E0,-3.076223612E0
5.538881250E0,-1.120199114E-1,8.958317757E0,-3.370729446E0
5.542851562E0,-1.229278967E-1,9.015634537E0,-3.391080379E0
5.546821875E0,-1.129967421E-1,9.033906937E0,-3.482146025E0
5.550792187E0,-1.058332920E-1,9.066534996E0,-3.727063417E0
5.554762500E0,-9.298121929E-2,9.037747383E0,-3.984162331E0
5.558732812E0,-8.948568255E-2,8.907923698E0,-4.227968693E0
5.562703125E0,-1.132074371E-1,8.736154556E0,-4.348980904E0
5.566675000E0,-1.253412515E-1,8.482245445E0,-4.463356972E0
5.570645312E0,-2.690986991E-1,8.287806511E0,-4.544932365E0
5.574615625E0,-4.078953564E-1,8.128419876E0,-4.724976063E0
5.578585937E0,-5.847311020E-1,7.944641113E0,-4.916052818E0
5.582556250E0,-7.779240012E-1,7.935744286E0,-5.088262558E0
5.586526562E0,-9.546735883E-1,7.892686844E0,-5.014128685E0
5.590496875E0,-1.050355434E0,7.887199879E0,-4.850144863E0
5.594467187E0,-1.046476841E0,7.933876991E0,-4.757681370E0
5.598439062E0,-1.025005579E0,7.965011120E0,-4.633211613E0
5.602409375E0,-1.087139964E0,8.010022163E0,-4.353989601E0
5.606385937E0,-1.155594945E0,8.023889542E0,-3.865946293E0
5.610350000E0,-1.249179602E0,8.080047607E0,-3.267184973E0
5.614320312E0,-1.287965536E0,8.070030212E0,-2.773634672E0
5.618290625E0,-1.256036520E0,8.095945358E0,-2.307206154E0
5.622262500E0,-1.152923107E0,8.218106270E0,-1.974756718E0
5.626232812E0,-1.051408887E0,8.361299515E0,-1.831851602E0
5.630201562E0,-8.826943040E-1,8.487875938E0,-1.834293723E0
5.634173437E0,-6.370779276E-1,8.577524185E0,-2.006197453E0
5.638143750E0,-4.054915905E-1,8.707165718E0,-2.297064304E0
5.642114062E0,-1.928194314E-1,8.814214706E0,-2.529943466E0
5.646084375E0,4.509718344E-2,8.877106667E0,-2.885233402E0
5.650054687E0,1.831277013E-1,8.944900513E0,-3.276283026E0
5.654025000E0,3.104417622E-1,9.021409035E0,-3.586284399E0
5.657995312E0,3.835128248E-1,9.110358238E0,-3.865371466E0
5.661967187E0,3.166954219E-1,9.169102669E0,-3.983846188E0
5.665937500E0,1.736179292E-1,9.175270081E0,-3.874766350E0
5.669907812E0,2.803131379E-2,9.127989769E0,-3.546023369E0
5.673878125E0,-1.240866855E-1,9.020892143E0,-3.168141842E0
5.677848437E0,-2.115229368E-1,8.865192413E0,-2.770646811E0
5.681820312E0,-2.722111642E-1,8.674901009E0,-2.345245123E0
5.685789062E0,-3.668779135E-1,8.410983086E0,-1.787549257E0
5.689760937E0,-4.092552364E-1,8.135018349E0,-1.134813309E0
5.693731250E0,-3.655754328E-1,7.940858364E0,-5.820687413E-1
5.697701562E0,-2.784073353E-1,7.722976685E0,1.977610588E-2
5.701671875E0,-1.951753199E-1,7.496216774E0,5.054543018E-1
5.705643750E0,-1.515625417E-1,7.263538361E0,7.381228209E-1
5.709614062E0,-1.475115567E-1,7.016495705E0,6.941748857E-1
5.713582812E0,-2.963064015E-1,6.839774609E0,5.103480220E-1
5.717554687E0,-6.214677095E-1,6.866599083E0,2.098182589E-1
5.721525000E0,-8.597386479E-1,6.906438828E0,-1.431541145E-1
5.725493750E0,-9.950589538E-1,7.020364285E0,-6.958315969E-1
5.729465625E0,-1.152970910E0,7.266526699E0,-1.200807095E0
5.733435937E0,-1.404342890E0,7.497298717E0,-1.609631300E0
5.737406250E0,-1.843688607E0,7.946183205E0,-2.148901463E0
5.741378125E0,-2.420643330E0,8.459423065E0,-2.647431612E0
5.745348437E0,-3.038730383E0,8.900177002E0,-2.938269854E0
5.749318750E0,-3.859836102E0,9.586087227E0,-3.167653322E0
5.753289062E0,-4.521363735E0,1.029980755E1,-3.438552380E0
5.757259375E0,-5.018266201E0,1.111387539E1,-4.211668968E0
5.761231250E0,-5.085370541E0,1.164703560E1,-5.051842213E0
5.765201562E0,-4.866808414E0,1.186017609E1,-5.734419346E0
5.769171875E0,-4.429522038E0,1.192894745E1,-6.268977642E0
5.773142187E0,-4.180141926E0,1.215601349E1,-6.590748787E0
5.777112500E0,-4.215528488E0,1.255826759E1,-6.382654190E0
5.781082812E0,-4.454421997E0,1.329598808E1,-5.723568916E0
5.785053125E0,-4.907519341E0,1.444674683E1,-5.021492958E0
5.789023437E0,-5.386149406E0,1.572163105E1,-4.383457661E0
5.792993750E0,-5.975707054E0,1.724534988E1,-3.686237574E0
5.796964062E0,-6.111065865E0,1.843230820E1,-3.147197247E0
5.800935937E0,-6.068381786E0,1.931220436E1,-2.659757137E0
5.804904687E0,-5.695518494E0,2.032282639E1,-1.910343170E0
5.808876562E0,-5.049543858E0,2.142588234E1,-1.420958757E0
5.812846875E0,-4.496109962E0,2.255126381E1,-9.385366440E-1
5.816817187E0,-3.322931528E0,2.367928696E1,-1.117613353E-2
5.820789062E0,-1.963436842E0,2.445842743E1,5.451118350E-1
5.824759375E0,-3.661213517E-1,2.474011993E1,9.393123984E-1
5.828729687E0,1.195424914E0,2.456864738E1,1.602439165E0
5.832700000E0,3.252819777E0,2.365387917E1,2.582223177E0
5.836670312E0,4.853775024E0,2.141890144E1,3.151717424E0
5.840640625E0,5.546953678E0,1.909187126E1,3.466861486E0
5.844610937E0,5.789112568E0,1.667901421E1,4.424647331E0
5.848582812E0,5.906553268E0,1.468471146E1,5.472762108E0
5.852551562E0,5.654280663E0,1.283727837E1,7.322062492E0
5.856523437E0,5.248655319E0,1.142873192E1,7.835379601E0
5.860493750E0,5.910862923E0,1.065481091E1,6.040503979E0
5.864464062E0,7.071495056E0,9.872883797E0,4.184384823E0
5.868434375E0,8.314994812E0,9.151682854E0,2.654211998E0
5.872404687E0,9.739698410E0,8.151480675E0,9.316413403E-1
5.876375000E0,9.574364662E0,6.820276260E0,-1.266954064E0
5.880346875E0,8.533720016E0,5.997159004E0,-3.315318108E0
5.884315625E0,7.226916790E0,5.494242668E0,-5.359860897E0
5.888287500E0,5.841546059E0,5.181808949E0,-6.591036320E0
5.892257812E0,4.613176823E0,5.078350544E0,-7.284483433E0
5.896228125E0,3.175563812E0,5.044620991E0,-7.763563156E0
5.900198437E0,1.776143312E0,5.282461643E0,-7.756341934E0
5.904170312E0,1.208267450E0,5.654807568E0,-6.878474712E0
5.908139062E0,1.027093410E0,5.989545822E0,-6.388917446E0
5.912110937E0,6.369822025E-1,6.094919205E0,-5.933578491E0
5.916081250E0,3.957040608E-1,6.153845310E0,-4.898890972E0
5.920051562E0,3.139947653E-1,6.391263962E0,-4.020237923E0
5.924021875E0,1.156495214E-1,6.593440056E0,-3.428209543E0
5.927992187E0,-2.462963164E-1,6.628787994E0,-3.597211361E0
5.931962500E0,-7.668436170E-1,6.696237087E0,-4.029489040E0
5.935934375E0,-1.557504773E0,7.012415409E0,-4.695623398E0
5.939904687E0,-2.311122894E0,7.476794720E0,-5.370233059E0
5.943875000E0,-3.093385220E0,7.994392395E0,-5.682953835E0
5.947845312E0,-3.593055248E0,8.383469582E0,-5.659902573E0
5.951845312E0,-3.778998375E0,8.838913918E0,-5.356710434E0
5.955785937E0,-3.704040766E0,9.263540268E0,-4.758476257E0
5.959756250E0,-3.473402500E0,9.687016487E0,-4.078695297E0
5.963732812E0,-3.110594749E0,1.016473675E1,-3.130572081E0
5.967698437E0,-2.545888662E0,1.055347824E1,-2.136470795E0
5.971667187E0,-2.033989191E0,1.076157188E1,-1.402475476E0
5.975639062E0,-1.496624947E0,1.082559395E1,-6.631938219E-1
5.979609375E0,-1.050364971E0,1.073709488E1,-1.267394572E-1
5.983579687E0,-7.422600389E-1,1.043941879E1,2.159665674E-1
5.987550000E0,-6.118717790E-1,1.002510643E1,3.812718093E-1
5.991520312E0,-5.155578256E-1,9.419230461E0,3.508558869E-1
5.995492187E0,-3.114569187E-1,8.722163200E0,1.916414797E-1
5.999462500E0,-6.005615741E-2,8.079722404E0,-8.952398598E-2
6.003432812E0,3.914902806E-1,7.332520485E0,-6.696199179E-1
6.007403125E0,9.085708261E-1,6.644982338E0,-1.434892893E0
6.011373437E0,1.399477959E0,6.161746025E0,-2.060248852E0
6.015343750E0,1.885625362E0,5.787599564E0,-2.692346811E0
6.019314062E0,2.191891670E0,5.585155487E0,-3.111734390E0
6.023285937E0,2.298385859E0,5.481678009E0,-3.368785381E0
6.027256250E0,2.166063070E0,5.591083527E0,-3.458807468E0
6.031226562E0,1.868779778E0,5.756158829E0,-3.537126541E0
6.035196875E0,1.803408504E0,5.813600540E0,-3.637251854E0
6.039167187E0,1.825799108E0,5.823761940E0,-3.723127127E0
6.043137500E0,2.003314734E0,5.854445934E0,-3.841487169E0
6.047107812E0,2.179834366E0,5.884574413E0,-3.991402388E0
6.051078125E0,2.271331310E0,5.890301228E0,-4.076377392E0
6.055050000E0,2.436397314E0,5.863017082E0,-4.179940701E0
6.059020312E0,2.562954664E0,5.892302513E0,-4.383189678E0
6.062990625E0,2.701224566E0,5.894802094E0,-4.674927711E0
6.066960937E0,2.833853722E0,5.945539951E0,-4.950778484E0
6.070931250E0,2.889131069E0,5.998777866E0,-5.293158531E0
6.074901562E0,2.872783422E0,6.099515915E0,-5.636697769E0
6.078873437E0,2.893067122E0,6.166256905E0,-5.934545994E0
6.082842187E0,2.892224312E0,6.337480545E0,-6.159026146E0
6.086814062E0,2.950681210E0,6.518175602E0,-6.153969765E0
6.090784375E0,3.063572407E0,6.765525341E0,-6.090475559E0
6.094754687E0,3.335917711E0,6.914463997E0,-5.937208652E0
6.098725000E0,3.599069357E0,6.967289448E0,-5.702672482E0
6.102696875E0,3.777896881E0,7.042075157E0,-5.425184727E0
6.106665625E0,3.856944084E0,7.130526543E0,-5.162128925E0
6.110637500E0,3.904387474E0,7.186301708E0,-4.807557106E0
6.114607812E0,3.890539646E0,7.252812386E0,-4.425557137E0
6.118576562E0,4.001314640E0,7.325012207E0,-4.208968163E0
6.122548437E0,4.312119961E0,7.426258087E0,-4.021214962E0
6.126518750E0,4.584407806E0,7.499922752E0,-3.735050440E0
6.130487500E0,4.689379215E0,7.603659153E0,-3.488763571E0
6.134459375E0,4.838729382E0,7.831050873E0,-3.199113131E0
6.138429687E0,4.879334927E0,8.236111641E0,-2.903323889E0
6.142400000E0,4.807835102E0,8.721099854E0,-2.593868732E0
6.146371875E0,4.646609306E0,9.121640205E0,-2.348596811E0
6.150340625E0,4.406767368E0,9.637217522E0,-2.201430082E0
6.154312500E0,4.160682201E0,1.012214851E1,-2.183358669E0
6.158282812E0,3.857796431E0,1.050574684E1,-2.354017258E0
6.162253125E0,3.542978048E0,1.089153957E1,-2.805535078E0
6.166223437E0,3.370212317E0,1.111204624E1,-3.384797812E0
6.170195312E0,3.396836042E0,1.123778915E1,-3.936105967E0
6.174165625E0,3.515665054E0,1.131362820E1,-4.593850613E0
6.178135937E0,3.531619787E0,1.143746567E1,-5.121628284E0
6.182106250E0,3.457342386E0,1.163548565E1,-5.415081024E0
6.186076562E0,3.367521286E0,1.182230949E1,-5.490335464E0
6.190046875E0,3.312780380E0,1.200455570E1,-5.433745861E0
6.194018750E0,3.239670992E0,1.214037418E1,-5.272779465E0
6.197989062E0,3.192121983E0,1.221527481E1,-5.115336418E0
6.201957812E0,3.206142664E0,1.231556225E1,-4.901735306E0
6.205929687E0,3.175132751E0,1.237978554E1,-4.683948994E0
6.209900000E0,3.146258831E0,1.241177177E1,-4.586093426E0
6.213870312E0,3.190704823E0,1.230472183E1,-4.486130714E0
6.217842187E0,3.121148348E0,1.206062794E1,-4.344977856E0
6.221810937E0,2.941142797E0,1.180707264E1,-4.127795219E0
6.225781250E0,2.627799034E0,1.162127304E1,-3.839571714E0
6.229753125E0,2.176597357E0,1.148184490E1,-3.512734413E0
6.233723437E0,1.747594833E0,1.142841530E1,-3.218611479E0
6.237692187E0,1.439030170E0,1.142326260E1,-3.052664518E0
6.241664062E0,1.056589961E0,1.153517818E1,-3.083061457E0
6.245634375E0,6.953623891E-1,1.171948338E1,-3.320489407E0
6.249604687E0,2.797002196E-1,1.196168041E1,-3.586198092E0
6.253575000E0,-2.129881829E-1,1.239966583E1,-3.948412180E0
6.257546875E0,-6.418184042E-1,1.298079681E1,-4.191164970E0
6.261517187E0,-1.109769940E0,1.366252136E1,-4.175076008E0
6.265487500E0,-1.390121341E0,1.417371178E1,-4.035886765E0
6.269457812E0,-1.557839990E0,1.459835720E1,-3.845710516E0
6.273428125E0,-1.483006835E0,1.473613834E1,-3.728969336E0
6.277398437E0,-1.287419677E0,1.461299133E1,-3.699539661E0
6.281368750E0,-8.705891967E-1,1.417659473E1,-3.612122536E0
6.285340625E0,-2.851589918E-1,1.333397007E1,-3.397678614E0
6.289310937E0,3.401202857E-1,1.221940231E1,-3.148921251E0
6.293281250E0,7.687686086E-1,1.134685898E1,-3.133311033E0
6.297251562E0,1.375018835E0,1.040291214E1,-3.337737560E0
6.301221875E0,1.975340962E0,9.536507607E0,-3.807843685E0
6.305192187E0,2.275506735E0,8.915145874E0,-4.131808281E0
6.309162500E0,2.388896227E0,8.272541046E0,-4.321735382E0
6.313132812E0,2.438168764E0,7.689773560E0,-4.254285812E0
6.317103125E0,2.555226088E0,7.264266491E0,-4.046296597E0
6.321081250E0,2.778049707E0,6.900979996E0,-3.817975998E0
6.325045312E0,2.797222376E0,6.743077755E0,-3.612246990E0
6.329015625E0,2.497296095E0,6.975200176E0,-3.209274054E0
6.332987500E0,2.149150372E0,7.339875698E0,-2.603340149E0
6.336957812E0,1.844962239E0,7.721569061E0,-1.697919965E0
6.340926562E0,1.742327690E0,7.814952374E0,-5.385230184E-1
6.344898437E0,1.887454629E0,7.653553963E0,4.795585871E-1
6.348867187E0,1.980349660E0,7.435394764E0,1.673106432E0
6.352837500E0,1.816777706E0,7.264458179E0,2.837914228E0
6.356809375E0,1.512158632E0,7.263471603E0,3.703083038E0
6.360779687E0,1.082332373E0,7.422216892E0,4.279740810E0
6.364750000E0,4.146374166E-1,7.722152710E0,4.567715168E0
6.368721875E0,-4.779113829E-1,8.198389053E0,4.179835320E0
6.372690625E0,-1.303470492E0,8.511416435E0,3.351384163E0
6.376662500E0,-2.230849981E0,8.761505127E0,2.230888367E0
6.380632812E0,-2.964644194E0,9.093139648E0,1.307511806E0
6.384603125E0,-3.285390615E0,9.538537979E0,6.587789655E-1
6.388573437E0,-3.525950432E0,1.024046993E1,-9.021351486E-2
6.392543750E0,-3.463614941E0,1.108917618E1,-8.695644736E-1
6.396514062E0,-3.443187714E0,1.199845600E1,-1.387286663E0
6.400484375E0,-3.384912729E0,1.315427017E1,-1.997061133E0
6.404456250E0,-3.389260769E0,1.438368320E1,-2.675663948E0
6.408425000E0,-3.713732481E0,1.543873119E1,-3.533745766E0
6.412396875E0,-3.902204037E0,1.606512260E1,-3.948536634E0
6.416367187E0,-4.016369343E0,1.659431648E1,-4.111514568E0
6.420337500E0,-4.001017570E0,1.698411369E1,-4.467283726E0
6.424309375E0,-3.952156782E0,1.711786079E1,-4.982228279E0
6.428279687E0,-3.458261490E0,1.662458992E1,-5.725417614E0
6.432250000E0,-2.353241682E0,1.543846416E1,-6.423356056E0
6.436220312E0,-1.254236102E0,1.415846539E1,-6.814549446E0
6.440189062E0,-1.226310134E-1,1.266321945E1,-6.911437988E0
6.444160937E0,7.879796624E-1,1.139398670E1,-6.695806503E0
6.448131250E0,1.345943570E0,1.038381577E1,-6.233850002E0
6.452101562E0,1.553635716E0,9.714435577E0,-5.583393097E0
6.456071875E0,1.425373673E0,9.144366264E0,-4.739006519E0
6.460042187E0,9.861046076E-1,8.800022125E0,-4.013620377E0
6.464014062E0,5.617563725E-1,8.594475746E0,-3.509804010E0
6.467984375E0,1.412962079E-1,8.378403664E0,-3.045606375E0
6.471954687E0,-1.650179625E-1,8.212494850E0,-2.759365320E0
6.475925000E0,-4.923819602E-1,8.081895828E0,-2.619563341E0
6.479895312E0,-6.781528592E-1,8.019579887E0,-2.528363228E0
6.483865625E0,-8.906430006E-1,7.981110096E0,-2.610608816E0
6.487835937E0,-1.022841215E0,7.869080067E0,-2.765120983E0
6.491806250E0,-1.104349494E0,7.805317879E0,-2.800794601E0
6.495778125E0,-1.221215248E0,7.868371487E0,-2.685164213E0
6.499748437E0,-1.084841609E0,8.039806366E0,-2.328064203E0
6.503718750E0,-9.295727611E-1,8.237414360E0,-1.851570249E0
6.507689062E0,-7.254143953E-1,8.449760437E0,-1.150528789E0
6.511659375E0,-6.878733039E-1,8.621175766E0,-7.454873919E-1
6.515629687E0,-8.490892649E-1,8.807731628E0,-6.250590086E-1
6.519601562E0,-1.009615779E0,8.918755531E0,-7.838041782E-1
6.523571875E0,-1.178110003E0,8.944976807E0,-1.031996727E0
6.527540625E0,-1.155116081E0,8.919732094E0,-1.310882926E0
6.531512500E0,-9.081590176E-1,8.821532249E0,-2.148058653E0
6.535482812E0,-6.152715683E-1,8.756763458E0,-3.042359829E0
6.539453125E0,-4.789839685E-1,8.685331345E0,-3.446539640E0
6.543425000E0,-3.183521926E-1,8.586297035E0,-3.585231066E0
6.547393750E0,-2.188683450E-1,8.446609497E0,-3.780837059E0
6.551365625E0,-1.212806776E-1,8.214285851E0,-3.844283342E0
6.555335937E0,-8.157524467E-2,8.024147987E0,-3.825867176E0
6.559307812E0,-7.535032183E-2,7.749638081E0,-3.685969353E0
6.563276562E0,-3.139277175E-2,7.674805164E0,-3.319311857E0
6.567246875E0,-9.639056027E-2,7.544550896E0,-3.075313807E0
6.571217187E0,-1.747480035E-1,7.408905506E0,-3.014395714E0
6.575189062E0,-1.635048240E-1,7.288017273E0,-2.985780239E0
6.579159375E0,-1.432977617E-1,7.304029465E0,-3.021118641E0
6.583129687E0,-1.529032886E-1,7.300572395E0,-3.029536724E0
6.587100000E0,-1.761557758E-1,7.377243996E0,-3.145645857E0
6.591070312E0,-1.765771657E-1,7.465082645E0,-3.246259689E0
6.595040625E0,-1.174212247E-1,7.485787392E0,-3.425997257E0
6.599012500E0,-5.016331375E-2,7.500095367E0,-3.610934973E0
6.602982812E0,8.490796387E-2,7.523060322E0,-3.675348520E0
6.606951562E0,1.886056364E-1,7.467438698E0,-3.670991182E0
6.610923437E0,3.177392781E-1,7.472743988E0,-3.587797403E0
6.614893750E0,4.720408022E-1,7.510936737E0,-3.426801682E0
6.618864062E0,6.276447773E-1,7.529237747E0,-3.150319338E0
6.622834375E0,6.712958217E-1,7.549540520E0,-2.999829292E0
6.626806250E0,5.245121717E-1,7.607911110E0,-2.882034779E0
6.630775000E0,2.034305334E-1,7.650710106E0,-3.048546553E0
6.634746875E0,-1.944570690E-1,7.717785835E0,-3.293712854E0
6.638717187E0,-4.825752974E-1,7.934164047E0,-3.601042271E0
6.642706250E0,-5.134509206E-1,8.107782364E0,-3.717103481E0
6.646657812E0,-3.403022587E-1,8.322647095E0,-3.591580391E0
6.650628125E0,-1.027878672E-1,8.457967758E0,-3.315998077E0
6.654598437E0,9.360370785E-2,8.624834061E0,-2.960066319E0
6.658570312E0,2.977524996E-1,8.759052277E0,-2.626927853E0
6.662540625E0,4.745212197E-1,8.895311356E0,-2.401173592E0
6.666509375E0,6.090561748E-1,8.971668243E0,-2.243549109E0
6.670481250E0,6.751840115E-1,9.028132439E0,-2.178531885E0
6.674451562E0,7.340718508E-1,9.037259102E0,-2.188108921E0
6.678421875E0,7.805767655E-1,8.997888565E0,-2.260643482E0
6.682392187E0,7.209516168E-1,9.083275795E0,-2.380755901E0
6.686362500E0,7.247536182E-1,9.079156876E0,-2.548282862E0
6.690334375E0,7.534840107E-1,9.032402992E0,-2.753542662E0
6.694304687E0,6.923169494E-1,9.002591133E0,-3.047196388E0
6.698275000E0,6.413970590E-1,8.935869217E0,-3.407284260E0
6.702245312E0,6.173305511E-1,8.853538513E0,-3.887695074E0
6.706215625E0,5.415971875E-1,8.708037376E0,-4.569516182E0
6.710185937E0,4.829583764E-1,8.561827660E0,-5.209524632E0
6.714156250E0,4.068131745E-1,8.400373459E0,-5.698659897E0
6.718128125E0,2.566584051E-1,8.247623444E0,-6.158231258E0
6.722098437E0,1.111388430E-1,8.101269722E0,-6.486285210E0
6.726067187E0,-1.334049180E-2,7.995829105E0,-6.719968796E0
6.730039062E0,-9.087432176E-2,7.875735760E0,-6.825782776E0
6.734009375E0,-2.045031339E-1,7.700326920E0,-6.803459644E0
6.737979687E0,-3.468144834E-1,7.563704491E0,-6.548965454E0
6.741951562E0,-4.315979481E-1,7.458331108E0,-6.125479221E0
6.745920312E0,-5.607699156E-1,7.368606091E0,-5.577110767E0
6.749892187E0,-6.936959624E-1,7.395123959E0,-4.960364819E0
6.753862500E0,-7.283927798E-1,7.481966496E0,-4.259284496E0
6.757832812E0,-6.477847695E-1,7.544675350E0,-3.628173351E0
6.761803125E0,-4.772889018E-1,7.688136101E0,-3.019088268E0
6.765773437E0,-2.386348695E-1,7.972969055E0,-2.568863630E0
6.769743750E0,4.038539529E-2,8.276907921E0,-2.283742905E0
6.773715625E0,3.141479790E-1,8.740215302E0,-2.081863880E0
6.777685937E0,5.110375881E-1,9.121467590E0,-1.997664452E0
6.781656250E0,6.635290384E-1,9.406943321E0,-2.068245649E0
6.785626562E0,9.273318052E-1,9.628358841E0,-2.254466534E0
6.789596875E0,1.271340251E0,9.756535530E0,-2.454171658E0
6.793567187E0,1.725692749E0,9.780773163E0,-2.533218622E0
6.797537500E0,2.098948717E0,9.717173576E0,-2.491023302E0
6.801509375E0,2.399133682E0,9.503477097E0,-2.242457390E0
6.805478125E0,2.481590033E0,9.241704941E0,-1.851369143E0
6.809450000E0,2.361832142E0,9.029684067E0,-1.446279764E0
6.813420312E0,2.174385309E0,8.875046730E0,-9.798222780E-1
6.817390625E0,2.016569138E0,8.774758339E0,-5.595824122E-1
6.821360937E0,2.088624954E0,8.691105843E0,-2.221244574E-1
6.825331250E0,2.320479393E0,8.536592484E0,1.568776667E-1
6.829301562E0,2.545237541E0,8.205599785E0,3.921989799E-1
6.833273437E0,2.533831596E0,7.759444714E0,5.014895201E-1
6.837243750E0,2.337554932E0,7.367485523E0,4.219349623E-1
6.841214062E0,1.672742605E0,7.191559792E0,2.570798099E-1
6.845184375E0,8.779250383E-1,7.170021057E0,-7.517793216E-3
6.849154687E0,2.779380679E-1,7.135219097E0,-4.406576157E-1
6.853125000E0,-3.729783297E-1,7.270002842E0,-1.278178096E0
6.857096875E0,-1.042042732E0,7.484858990E0,-1.953237653E0
6.861067187E0,-1.659038067E0,7.632380009E0,-2.399411440E0
6.865035937E0,-2.578066826E0,7.928274632E0,-2.963044882E0
6.869007812E0,-3.633086205E0,8.360897064E0,-3.504230261E0
6.872978125E0,-4.763733387E0,8.922949791E0,-3.974623680E0
6.876948437E0,-5.647021294E0,9.470992088E0,-4.341137886E0
6.880920312E0,-6.356864452E0,1.016544533E1,-4.761713028E0
6.884889062E0,-6.655191422E0,1.086469555E1,-5.135169983E0
6.888859375E0,-6.551465034E0,1.146568871E1,-5.591533661E0
6.892831250E0,-6.304028988E0,1.203319073E1,-6.033867359E0
6.896801562E0,-6.101038933E0,1.259401894E1,-6.394750118E0
6.900771875E0,-6.015556335E0,1.314409065E1,-6.593095303E0
6.904742187E0,-6.090389729E0,1.392319202E1,-6.409670353E0
6.908712500E0,-6.344318390E0,1.503275204E1,-5.861666679E0
6.912682812E0,-6.849877834E0,1.652243423E1,-4.901247025E0
6.916653125E0,-7.560410023E0,1.799261665E1,-4.209342003E0
6.920625000E0,-8.161546707E0,1.955554390E1,-3.602488279E0
6.924595312E0,-8.159803391E0,2.084305954E1,-2.982658148E0
6.928565625E0,-7.815287113E0,2.167358780E1,-2.333657265E0
6.932535937E0,-7.046480656E0,2.224039078E1,-1.503328800E0
6.936507812E0,-5.681306839E0,2.254955864E1,-3.067451119E-1
6.940476562E0,-4.406547546E0,2.270499992E1,3.385209739E-1
6.944478125E0,-2.685892105E0,2.260518074E1,7.840819359E-1
6.948418750E0,-7.316105962E-1,2.225033188E1,1.466984868E0
6.952389062E0,1.447390795E0,2.176694107E1,1.789847732E0
6.956359375E0,3.267165899E0,2.099183464E1,1.959491372E0
6.960329687E0,5.247965813E0,1.961978340E1,2.007557154E0
6.964300000E0,6.809875965E0,1.770140648E1,2.311735868E0
6.968270312E0,7.699216366E0,1.592905426E1,3.051314116E0
6.972242187E0,8.007484436E0,1.397146034E1,3.636380672E0
6.976212500E0,7.860661983E0,1.222056007E1,4.641935349E0
6.980182812E0,7.197937489E0,1.061275864E1,5.879537106E0
6.984153125E0,6.102753162E0,9.586632729E0,6.607124805E0
6.988123437E0,6.390900135E0,8.783962250E0,6.827928066E0
6.992093750E0,6.879010677E0,7.618790627E0,6.425443172E0
6.996065625E0,7.854839325E0,6.546264648E0,5.037237644E0
7.000035937E0,9.456636429E0,5.598869801E0,2.947827339E0
7.004004687E0,1.146164608E1,5.401874542E0,-2.643198520E-2
7.007976562E0,1.236684704E1,5.161419868E0,-2.421064615E0
7.011946875E0,1.118064499E1,4.611021996E0,-4.903354168E0
7.015917187E0,8.130393028E0,4.136126995E0,-6.926856518E0
7.019887500E0,5.494702816E0,4.313336372E0,-8.334273338E0
7.023857812E0,3.444911480E0,4.810976028E0,-9.605623245E0
7.027828125E0,2.122890949E0,5.318364620E0,-1.016250515E1
7.031800000E0,7.745434046E-1,5.676479816E0,-9.779623985E0
7.035768750E0,-7.460332476E-3,5.859741688E0,-8.901402473E0
7.039740625E0,-2.307435721E-1,5.946976662E0,-7.948060036E0
7.043710937E0,-6.606081128E-2,5.931855202E0,-6.952991486E0
7.047681250E0,-2.655648626E-2,6.006956100E0,-6.224177361E0
7.051651562E0,-2.101247311E-1,6.179731369E0,-5.443696499E0
7.055623437E0,-3.583737016E-1,6.387490749E0,-4.640853405E0
7.059593750E0,-5.681344867E-1,6.597672939E0,-4.002089977E0
7.063562500E0,-9.271880984E-1,6.925506115E0,-3.409620762E0
7.067534375E0,-1.313631415E0,7.333171844E0,-2.951533556E0
7.071504687E0,-1.679858208E0,7.754321098E0,-2.585105658E0
7.075475000E0,-1.896198153E0,8.208415031E0,-2.247848988E0
7.079445312E0,-2.047866106E0,8.662050247E0,-1.908916116E0
7.083415625E0,-2.110162973E0,9.078985214E0,-1.479195356E0
7.087387500E0,-2.171636820E0,9.456809998E0,-1.091851711E0
7.091357812E0,-2.209177732E0,9.946031570E0,-6.486658454E-1
7.095328125E0,-2.173034906E0,1.034887028E1,-2.071176022E-1
7.099298437E0,-2.109713078E0,1.062481594E1,2.992752008E-2
7.103268750E0,-1.986670256E0,1.085245705E1,1.593772173E-1
7.107239062E0,-1.747183084E0,1.092096043E1,1.656596065E-1
7.111210937E0,-1.521725774E0,1.079969788E1,1.298327595E-1
7.115181250E0,-1.322585702E0,1.059650707E1,-2.376963384E-2
7.119151562E0,-1.085511804E0,1.027815437E1,-3.425336480E-1
7.123121875E0,-8.769290447E-1,9.889528275E0,-7.751371264E-1
7.127092187E0,-6.908900142E-1,9.558811188E0,-1.212050319E0
7.131062500E0,-3.769527078E-1,9.132874489E0,-1.650227427E0
7.135032812E0,1.873223484E-2,8.701294899E0,-2.072880507E0
7.139004687E0,3.763780892E-1,8.278938293E0,-2.394967794E0
7.142973437E0,6.691602468E-1,7.856419563E0,-2.632577896E0
7.146943750E0,8.143733740E-1,7.586334705E0,-2.830549717E0
7.150914062E0,8.821483850E-1,7.541735172E0,-2.985732317E0
7.154884375E0,8.129559755E-1,7.651677132E0,-3.124098063E0
7.158856250E0,7.421259284E-1,7.779010296E0,-3.261860371E0
7.162826562E0,8.765363693E-1,7.779843330E0,-3.436206102E0
7.166796875E0,1.090951562E0,7.709655285E0,-3.587194204E0
7.170768750E0,1.361170650E0,7.571088314E0,-3.753658295E0
7.174739062E0,1.617063046E0,7.478212357E0,-3.932054996E0
7.178709375E0,1.787252426E0,7.370837212E0,-4.057491779E0
7.182678125E0,2.038059473E0,7.232739925E0,-4.225584030E0
7.186650000E0,2.335467100E0,7.064111233E0,-4.362024784E0
7.190620312E0,2.493628263E0,7.057244778E0,-4.534024239E0
7.194592187E0,2.671469450E0,7.055635929E0,-4.692051411E0
7.198560937E0,2.931403160E0,7.010146141E0,-4.808390141E0
7.202531250E0,3.238991022E0,6.929049969E0,-4.792061329E0
7.206503125E0,3.526859999E0,6.851438999E0,-4.721748829E0
7.210473437E0,3.761980534E0,6.830437183E0,-4.587903500E0
7.214443750E0,3.822093964E0,6.816378593E0,-4.418288708E0
7.218414062E0,3.795776844E0,6.823905945E0,-4.225133896E0
7.222384375E0,3.613674164E0,6.959723949E0,-4.030686378E0
7.226354687E0,3.560091734E0,7.134242058E0,-3.791553497E0
7.230326562E0,3.579322100E0,7.260253906E0,-3.641916037E0
7.234295312E0,3.601980686E0,7.373642921E0,-3.623365641E0
7.238267187E0,3.687836647E0,7.423615456E0,-3.671776295E0
7.242237500E0,3.864433050E0,7.423193932E0,-3.700602531E0
7.246207812E0,4.074251175E0,7.356443405E0,-3.807403088E0
7.250178125E0,4.400925636E0,7.236445904E0,-3.884764671E0
7.254150000E0,4.646781921E0,7.088723660E0,-3.900901556E0
7.258118750E0,4.881882668E0,6.919578075E0,-3.809548378E0
7.262089062E0,5.037831306E0,6.741995811E0,-3.654614687E0
7.266060937E0,5.253759861E0,6.612574100E0,-3.391128063E0
7.270031250E0,5.447096348E0,6.747713089E0,-3.207521439E0
7.274004687E0,5.470856667E0,7.041701794E0,-3.229825974E0
7.277971875E0,5.270940304E0,7.344338417E0,-3.303251505E0
7.281942187E0,5.006975174E0,7.769988537E0,-3.353424311E0
7.285914062E0,4.810459137E0,8.174800873E0,-3.392880678E0
7.289884375E0,4.604969025E0,8.725035667E0,-3.534540653E0
7.293854687E0,4.421324253E0,9.219581604E0,-3.746590614E0
7.297825000E0,4.205214500E0,9.686623573E0,-3.942215919E0
7.301795312E0,3.920390368E0,1.006734943E1,-4.128771782E0
7.305765625E0,3.618615627E0,1.044975185E1,-4.415894508E0
7.309735937E0,3.234327078E0,1.091432285E1,-4.814165115E0
7.313707812E0,2.938786983E0,1.130943394E1,-5.175612926E0
7.317676562E0,2.652775288E0,1.175069427E1,-5.526363373E0
7.321646875E0,2.432192802E0,1.212236977E1,-5.649070740E0
7.325618750E0,2.357867241E0,1.238375950E1,-5.551263332E0
7.329589062E0,2.357886553E0,1.258804226E1,-5.328152180E0
7.333559375E0,2.449929237E0,1.271265507E1,-5.065470219E0
7.337529687E0,2.760705948E0,1.280060959E1,-4.908314228E0
7.341500000E0,3.069778204E0,1.289857006E1,-4.847664356E0
7.345471875E0,3.212108850E0,1.300992012E1,-4.811349392E0
7.349442187E0,3.147417545E0,1.310124397E1,-4.807116508E0
7.353412500E0,2.952874184E0,1.316871262E1,-4.782455921E0
7.357382812E0,2.599126339E0,1.324849701E1,-4.653542995E0
7.361353125E0,2.193395376E0,1.335973167E1,-4.384540081E0
7.365323437E0,1.870618582E0,1.347992134E1,-4.112989902E0
7.369295312E0,1.511296749E0,1.368338013E1,-3.809270859E0
7.373264062E0,1.141603231E0,1.389798641E1,-3.534349442E0
7.377234375E0,6.587885022E-1,1.422830009E1,-3.272413969E0
7.381206250E0,2.105556726E-1,1.453825378E1,-3.143213272E0
7.385176562E0,-2.901676595E-1,1.488100815E1,-3.042944193E0
7.389146875E0,-7.320224047E-1,1.523404694E1,-3.074365616E0
7.393117187E0,-1.152367592E0,1.560881615E1,-3.179729700E0
7.397087500E0,-1.505387783E0,1.587601852E1,-3.207770586E0
7.401057812E0,-1.863426447E0,1.599943447E1,-3.113324165E0
7.405029687E0,-2.014567614E0,1.588932037E1,-2.934314489E0
7.409000000E0,-1.850727558E0,1.530984783E1,-2.658962250E0
7.412970312E0,-1.419397712E0,1.416906738E1,-2.372663498E0
7.416940625E0,-1.061914682E0,1.283170509E1,-2.207980633E0
7.420910937E0,-7.345219254E-1,1.170546246E1,-2.221493721E0
7.424881250E0,-4.981854931E-2,1.039459896E1,-2.496587515E0
7.428851562E0,7.888319492E-1,9.126476288E0,-2.851120949E0
7.432821875E0,1.472137213E0,8.103184700E0,-3.054599047E0
7.436793750E0,2.174289465E0,7.008058071E0,-3.103613377E0
7.440762500E0,2.742979527E0,6.181886196E0,-2.995950699E0
7.444734375E0,3.065430403E0,5.737800121E0,-2.854108572E0
7.448704687E0,3.158651114E0,5.415109634E0,-2.519466400E0
7.452675000E0,3.054503441E0,5.240935802E0,-2.021357536E0
7.456645312E0,2.764019728E0,5.206689358E0,-1.419416904E0
7.460615625E0,2.486129284E0,5.262771606E0,-8.012435436E-1
7.464587500E0,2.159502983E0,5.453359604E0,3.784754127E-2
7.468557812E0,1.870063066E0,5.718100548E0,8.626787663E-1
7.472528125E0,1.723595381E0,5.930274963E0,1.631552696E0
7.476498437E0,1.607285023E0,6.171150684E0,2.507370949E0
7.480468750E0,1.579378247E0,6.438209534E0,3.379961729E0
7.484439062E0,1.516257524E0,6.750681877E0,3.960095644E0
7.488410937E0,1.262405157E0,7.214266300E0,4.179021358E0
7.492379687E0,7.504768968E-1,7.767738342E0,3.969394684E0
7.496351562E0,1.668662876E-1,8.301109314E0,3.422176123E0
7.500321875E0,-4.441722929E-1,8.727823257E0,2.639396667E0
7.504292187E0,-1.150730014E0,9.356788635E0,1.660369277E0
7.508262500E0,-1.616421342E0,1.024591923E1,8.233085275E-1
7.512245312E0,-1.799960852E0,1.140378380E1,1.353106946E-1
7.516203125E0,-1.733038068E0,1.248497677E1,-3.256018758E-1
7.520175000E0,-1.852738619E0,1.367382240E1,-9.924157858E-1
7.524145312E0,-1.999876738E0,1.465614319E1,-1.864364862E0
7.528135937E0,-2.400340319E0,1.572377682E1,-3.082908154E0
7.532085937E0,-2.908294201E0,1.657257843E1,-4.496789455E0
7.536056250E0,-3.174874306E0,1.710672379E1,-5.506548882E0
7.540026562E0,-3.454095602E0,1.738377190E1,-6.294068813E0
7.543998437E0,-3.719105005E0,1.741047287E1,-6.893443108E0
7.547968750E0,-3.677273512E0,1.695976830E1,-7.351300716E0
7.551939062E0,-3.132793665E0,1.618723679E1,-7.456731319E0
7.555909375E0,-2.185312510E0,1.481375885E1,-7.466844559E0
7.559878125E0,-1.240790248E0,1.308945465E1,-7.279081821E0
7.563850000E0,-6.820601821E-1,1.163876915E1,-6.803928852E0
7.567820312E0,-3.994677663E-1,1.021002579E1,-5.992562294E0
7.571790625E0,-4.381006062E-1,9.082385063E0,-5.148999214E0
7.575762500E0,-4.491905570E-1,8.241407394E0,-4.279424667E0
7.579732812E0,-3.893163502E-1,7.766886234E0,-3.487480402E0
7.583703125E0,-3.266457319E-1,7.455985069E0,-2.695698738E0
7.587673437E0,-3.956466019E-1,7.281955242E0,-1.986689448E0
7.591643750E0,-6.990110874E-1,7.127586365E0,-1.701013327E0
7.595614062E0,-1.114405155E0,7.040006161E0,-1.810456991E0
7.599584375E0,-1.346661806E0,6.819567204E0,-2.014912128E0
7.603556250E0,-1.498339415E0,6.526450157E0,-2.173724413E0
7.607526562E0,-1.581887364E0,6.212637424E0,-2.230610609E0
7.611496875E0,-1.605369806E0,6.038578987E0,-2.225688219E0
7.615467187E0,-1.773318172E0,6.049247742E0,-2.307263374E0
7.619437500E0,-1.883642912E0,6.241224289E0,-2.295388222E0
7.623407812E0,-2.243347883E0,6.741813660E0,-2.276378155E0
7.627379687E0,-2.883749008E0,7.297747135E0,-2.419944048E0
7.631348437E0,-3.195809126E0,7.702357292E0,-2.669688225E0
7.635345312E0,-3.118351936E0,7.926301956E0,-2.876489639E0
7.639293750E0,-2.827226639E0,8.190736771E0,-3.036499023E0
7.643260937E0,-2.507974148E0,8.490270615E0,-3.124279976E0
7.647231250E0,-2.168734789E0,8.704044342E0,-3.122632742E0
7.651201562E0,-1.664439440E0,8.826961517E0,-3.066560507E0
7.655171875E0,-1.251918435E0,9.007561684E0,-3.014635086E0
7.659143750E0,-9.416012168E-1,9.102180481E0,-2.964251518E0
7.663114062E0,-7.184329033E-1,9.275328636E0,-2.720272779E0
7.667084375E0,-2.029995769E-1,9.253053665E0,-2.771585464E0
7.671054687E0,3.249984980E-1,9.300582886E0,-3.063812017E0
7.675025000E0,6.512228251E-1,9.473980904E0,-3.380009413E0
7.678995312E0,7.672363520E-1,9.605919838E0,-3.688995600E0
7.682967187E0,7.636449933E-1,9.683722496E0,-3.836545467E0
7.686935937E0,7.068545818E-1,9.733214378E0,-3.920141459E0
7.690906250E0,6.176657081E-1,9.739707947E0,-4.019319057E0
7.694878125E0,5.766865611E-1,9.689879417E0,-4.139344692E0
7.698848437E0,5.805460215E-1,9.569002151E0,-4.156554222E0
7.702818750E0,6.119579673E-1,9.365943909E0,-4.067279339E0
7.706789062E0,6.589226127E-1,9.169486046E0,-3.909922838E0
7.710759375E0,6.956592202E-1,8.958395004E0,-3.776134968E0
7.714729687E0,7.034164667E-1,8.676874161E0,-3.552650690E0
7.718701562E0,6.085965037E-1,8.516817093E0,-3.289183140E0
7.722671875E0,6.798958182E-1,8.315091133E0,-2.917603016E0
7.726642187E0,6.396349669E-1,8.164917946E0,-2.732282162E0
7.730612500E0,4.895759225E-1,8.025306702E0,-2.731075525E0
7.734582812E0,3.953018486E-1,7.930410385E0,-2.962929964E0
7.738553125E0,4.208527803E-1,7.798297882E0,-3.160719633E0
7.742523437E0,5.225872397E-1,7.703190804E0,-3.340792418E0
7.746493750E0,7.772344947E-1,7.685550213E0,-3.452476978E0
7.750465625E0,1.159847021E0,7.761446476E0,-3.426715612E0
7.754435937E0,1.396307945E0,7.733376980E0,-3.324253082E0
7.758404687E0,1.473822594E0,7.744811535E0,-3.432566881E0
7.762376562E0,1.509774089E0,7.613255024E0,-3.211668491E0
7.766346875E0,1.332507372E0,7.688691616E0,-3.240801096E0
7.770317187E0,1.118331671E0,7.800673008E0,-3.395715237E0
7.774289062E0,1.151812077E0,8.022845268E0,-3.537739515E0
7.778257812E0,1.402916074E0,8.193561554E0,-3.569496155E0
7.782229687E0,1.827312231E0,8.318002701E0,-3.480403185E0
7.786200000E0,2.107424259E0,8.541228294E0,-3.328620434E0
7.790170312E0,2.215019464E0,8.748958588E0,-3.227566004E0
7.794140625E0,2.252560854E0,8.976934433E0,-3.159790754E0
7.798110937E0,2.295292377E0,9.118901253E0,-3.142696381E0
7.802081250E0,2.232612371E0,9.160407066E0,-3.135465860E0
7.806051562E0,2.202339888E0,9.153675079E0,-3.162385941E0
7.810023437E0,2.119280338E0,9.069666862E0,-3.191729546E0
7.813993750E0,2.034199953E0,8.942659378E0,-3.250693798E0
7.817964062E0,1.919364452E0,8.793644905E0,-3.331886053E0
7.821934375E0,1.727224946E0,8.580636978E0,-3.394978046E0
7.825904687E0,1.508098006E0,8.389838219E0,-3.430574894E0
7.829875000E0,1.318161249E0,8.222043037E0,-3.439136744E0
7.833846875E0,1.091583610E0,8.069293022E0,-3.523680687E0
7.837817187E0,8.625925779E-1,7.923476696E0,-3.810850859E0
7.841787500E0,5.541715026E-1,7.786547184E0,-4.103977680E0
7.845757812E0,2.878213525E-1,7.706073284E0,-4.424752712E0
7.849728125E0,8.524315804E-2,7.624670506E0,-4.861244678E0
7.853698437E0,-1.073081195E-1,7.586200714E0,-5.186961651E0
7.857668750E0,-2.809547782E-1,7.569144249E0,-5.301758766E0
7.861639062E0,-3.719057143E-1,7.533824921E0,-5.264025688E0
7.865609375E0,-4.004158676E-1,7.527906418E0,-5.020985603E0
7.869581250E0,-3.703159690E-1,7.544991493E0,-4.621814728E0
7.873551562E0,-4.322683513E-1,7.661502838E0,-4.203375340E0
7.877521875E0,-3.776422143E-1,7.835474968E0,-3.689838409E0
7.881492187E0,-2.238387018E-1,7.999343872E0,-3.189813852E0
7.885462500E0,-5.614881963E-2,8.157878876E0,-2.836401224E0
7.889432812E0,1.726123691E-1,8.384819984E0,-2.548627615E0
7.893404687E0,3.972555101E-1,8.565860748E0,-2.467569590E0
7.897375000E0,5.816856623E-1,8.774547577E0,-2.532624722E0
7.901345312E0,8.401541114E-1,9.020709991E0,-2.774266958E0
7.905315625E0,1.074939132E0,9.212897301E0,-3.118888140E0
7.909285937E0,1.188529611E0,9.323079109E0,-3.446759701E0
7.913256250E0,1.305088878E0,9.340297699E0,-3.925513983E0
7.917226562E0,1.377776861E0,9.312228203E0,-4.346797943E0
7.921198437E0,1.360356688E0,9.273288727E0,-4.776480675E0
7.925168750E0,1.342773676E0,9.303015709E0,-5.062309742E0
7.929139062E0,1.352417469E0,9.425416946E0,-5.278573036E0
7.933109375E0,1.462158084E0,9.527629852E0,-5.269618511E0
7.937110937E0,1.436645508E0,9.556868553E0,-5.063966274E0
7.941050000E0,1.316418290E0,9.516310692E0,-4.626440525E0
7.945020312E0,1.268821478E0,9.395163536E0,-4.117480755E0
7.948990625E0,1.289871335E0,9.202622414E0,-3.664526939E0
7.952962500E0,1.342352271E0,8.901527405E0,-3.081318378E0
7.956931250E0,1.285006404E0,8.560104370E0,-2.383389473E0
7.960903125E0,1.176989555E0,8.266115189E0,-1.626065135E0
7.964873437E0,1.147301555E0,8.030277252E0,-1.056120753E0
7.968843750E0,1.174317598E0,7.765506744E0,-5.523136258E-1
7.972814062E0,1.208286643E0,7.468961239E0,-2.631993592E-1
7.976784375E0,1.210201859E0,7.243906021E0,-1.656691730E-1
7.980754687E0,1.195932508E0,7.038837910E0,-1.455291659E-1
7.984726562E0,1.204111099E0,6.904532909E0,-3.756598234E-1
7.988696875E0,1.048315525E0,6.810555458E0,-4.876509905E-1
7.992667187E0,8.790359497E-1,6.689303875E0,-5.999391079E-1
7.996637500E0,8.386888504E-1,6.530166149E0,-7.040006518E-1
8.000607812E0,8.058021069E-1,6.417437553E0,-9.320627451E-1
8.004578125E0,7.694197893E-1,6.292546272E0,-1.143643022E0
8.008550000E0,5.823560357E-1,6.325241566E0,-1.601203680E0
8.012520312E0,9.671617299E-2,6.640002251E0,-2.111437082E0
8.016489062E0,-5.566806197E-1,7.018142700E0,-2.509199858E0
8.020460937E0,-1.419493437E0,7.603927135E0,-3.041641712E0
8.024431250E0,-2.374080896E0,8.402268410E0,-3.668184996E0
8.028401562E0,-2.923387289E0,9.257027626E0,-4.377203941E0
8.032373437E0,-3.262990475E0,1.041774654E1,-5.285573959E0
8.036342187E0,-3.319081783E0,1.149439907E1,-5.937964916E0
8.040314062E0,-3.378103733E0,1.243137455E1,-6.250474930E0
8.044284375E0,-3.427950859E0,1.305355167E1,-6.135553837E0
8.048254687E0,-3.351691008E0,1.365984917E1,-5.728223324E0
8.052225000E0,-3.237037420E0,1.424958992E1,-4.958133221E0
8.056195312E0,-3.117949724E0,1.485045719E1,-4.211936951E0
8.060165625E0,-3.408433437E0,1.595578384E1,-3.365835667E0
8.064135937E0,-4.234471321E0,1.744885635E1,-2.779007435E0
8.068107812E0,-5.453761578E0,1.912856102E1,-2.485401630E0
8.072078125E0,-6.373747826E0,2.041236877E1,-2.415931463E0
8.076048437E0,-6.883482933E0,2.155799675E1,-2.745182037E0
8.080018750E0,-6.619833469E0,2.231063652E1,-2.649500132E0
8.083989062E0,-5.743996143E0,2.287757492E1,-2.205117226E0
8.087960937E0,-4.243731976E0,2.360399437E1,-1.217307806E0
8.091931250E0,-2.428649426E0,2.395948410E1,-2.078550160E-1
8.095900000E0,-5.830742717E-1,2.400765610E1,4.657488465E-1
8.099871875E0,1.593954086E0,2.366991997E1,1.217451572E0
8.103842187E0,3.751292706E0,2.276055527E1,1.992320538E0
8.107812500E0,5.568118095E0,2.128750801E1,2.459429502E0
8.111782812E0,6.619507790E0,1.958420563E1,2.605293751E0
8.115753125E0,7.135908604E0,1.727569771E1,2.818348885E0
8.119723437E0,6.795625687E0,1.508482170E1,3.311487198E0
8.123695312E0,6.252898216E0,1.363282394E1,3.869930267E0
8.127665625E0,5.886892319E0,1.191854668E1,4.649644852E0
8.131635937E0,5.545095921E0,1.036400127E1,5.168775082E0
8.135606250E0,5.354737282E0,9.216154099E0,5.362753391E0
8.139576562E0,5.852893829E0,8.576528549E0,4.576401711E0
8.143546875E0,7.270137310E0,8.017874718E0,2.920025826E0
8.147517187E0,9.077319145E0,7.125345230E0,1.175045371E0
8.151489062E0,1.060347843E1,6.443984509E0,-1.788468659E-1
8.155457812E0,1.166021156E1,5.614393711E0,-1.329911947E0
8.159429687E0,1.167320824E1,5.000357628E0,-2.682214499E0
8.163400000E0,9.947745323E0,4.626469135E0,-4.358701706E0
8.167370312E0,7.505247593E0,4.506959915E0,-6.507411480E0
8.171342187E0,5.167089462E0,4.640394211E0,-7.746267319E0
8.175310937E0,3.574849606E0,4.837963581E0,-7.880706310E0
8.179281250E0,2.296518326E0,5.136261940E0,-7.558025360E0
8.183253125E0,1.738918185E0,5.586477280E0,-7.009571075E0
8.187223437E0,1.354687214E0,6.053078175E0,-6.481592178E0
8.191193750E0,9.096530080E-1,6.141807079E0,-6.068103790E0
8.195164062E0,4.406959116E-1,6.325682163E0,-5.918083668E0
8.199134375E0,-5.976885185E-2,6.699972153E0,-5.888701439E0
8.203104687E0,-4.004829228E-1,6.940560818E0,-5.716922760E0
8.207076562E0,-6.687388420E-1,7.313883781E0,-5.266228676E0
8.211046875E0,-8.904706240E-1,7.732275486E0,-4.891047955E0
8.215015625E0,-1.075820208E0,7.992046356E0,-4.582339287E0
8.218987500E0,-1.360452414E0,8.254067421E0,-4.183743000E0
8.222957812E0,-1.658693314E0,8.562842369E0,-3.773855686E0
8.226932812E0,-1.840968728E0,8.874041557E0,-3.342478037E0
8.230898437E0,-1.915725231E0,9.161307335E0,-2.888000965E0
