"Time (s)","Acceleration x (m/s^2)","Acceleration y (m/s^2)","Acceleration z (m/s^2)"
0.000000000E0,-2.287063599E0,5.727767944E0,7.546401978E0
4.974365000E-3,-2.387619019E0,5.699035645E0,7.670898438E0
9.979248000E-3,-2.492965698E0,5.617645264E0,7.807373047E0
1.498413100E-2,-2.564788818E0,5.531448364E0,7.917510986E0
1.998901300E-2,-2.591125488E0,5.450042725E0,7.974975586E0
2.499389600E-2,-2.588729858E0,5.416519165E0,7.960601807E0
2.999877900E-2,-2.548034668E0,5.445251465E0,7.912719727E0
3.500366200E-2,-2.492965698E0,5.517089844E0,7.931869507E0
4.000854500E-2,-2.445083618E0,5.624816895E0,7.967788696E0
4.501342700E-2,-2.442687988E0,5.677490234E0,8.013275146E0
5.001831000E-2,-2.483383179E0,5.722991943E0,8.085098267E0
5.502319300E-2,-2.519302368E0,5.732559204E0,8.173690796E0
6.002807600E-2,-2.571975708E0,5.703826904E0,8.279037476E0
6.503295900E-2,-2.677322388E0,5.634399414E0,8.338882446E0
7.000732400E-2,-2.787445068E0,5.581726074E0,8.343673706E0
7.501220700E-2,-2.897583008E0,5.538635254E0,8.295791626E0
8.001709000E-2,-2.957443237E0,5.509902954E0,8.207214355E0
8.502197200E-2,-2.976593018E0,5.505111694E0,8.056365967E0
9.002685500E-2,-2.988555908E0,5.485961914E0,7.845687866E0
9.503173800E-2,-2.988555908E0,5.454833984E0,7.656539917E0
1.000366210E-1,-3.005325317E0,5.397369385E0,7.503311157E0
1.050415040E-1,-3.043624878E0,5.301605225E0,7.405151367E0
1.100463860E-1,-3.038833618E0,5.210632324E0,7.366836548E0
1.150512690E-1,-2.955047607E0,5.138793945E0,7.402755737E0
1.200561520E-1,-2.813781738E0,5.083724976E0,7.527252197E0
1.250610350E-1,-2.696472168E0,5.064575195E0,7.723571777E0
1.300659180E-1,-2.672531128E0,5.016693115E0,7.922302246E0
1.350708010E-1,-2.732376099E0,4.947265625E0,8.106643677E0
1.400756830E-1,-2.660552979E0,4.942474365E0,8.307769775E0
1.450805660E-1,-2.471420288E0,4.995147705E0,8.489715576E0
1.500854490E-1,-2.272689819E0,5.055007935E0,8.630981445E0
1.550903320E-1,-2.162567139E0,5.093307495E0,8.671676636E0
1.600952150E-1,-2.143402100E0,5.150772095E0,8.666900635E0
1.651000970E-1,-2.174530029E0,5.208236694E0,8.595062256E0
1.701049800E-1,-2.196075439E0,5.272872925E0,8.468170166E0
1.751098630E-1,-2.172134399E0,5.349487305E0,8.302978516E0
1.801147460E-1,-2.102706909E0,5.397369385E0,8.097076416E0
1.851196290E-1,-2.004547119E0,5.423706055E0,7.872024536E0
1.901245110E-1,-1.868072510E0,5.397369385E0,7.658935547E0
1.951293940E-1,-1.690902710E0,5.363861084E0,7.491333008E0
2.001342770E-1,-1.458663940E0,5.301605225E0,7.455429077E0
2.051391600E-1,-1.240798950E0,5.181900024E0,7.500915527E0
2.101135250E-1,-1.111511230E0,4.980789185E0,7.512893677E0
2.151184080E-1,-1.097137451E0,4.832336426E0,7.565567017E0
2.201232910E-1,-1.130661011E0,4.791641235E0,7.611053467E0
2.251281740E-1,-1.168975830E0,4.887405396E0,7.594284058E0
2.301330560E-1,-1.147415161E0,5.093307495E0,7.488952637E0
2.351379390E-1,-1.109115601E0,5.344696045E0,7.333328247E0
2.401428220E-1,-1.094741821E0,5.564971924E0,7.165725708E0
2.451477050E-1,-1.152206421E0,5.713409424E0,6.978988647E0
2.501525880E-1,-1.312622070E0,5.742141724E0,6.844909668E0
2.551574700E-1,-1.587951660E0,5.691864014E0,6.789840698E0
2.601623530E-1,-1.868072510E0,5.584121704E0,6.835327148E0
2.651672360E-1,-2.121856689E0,5.426101685E0,7.000534058E0
2.701721190E-1,-2.356491089E0,5.217803955E0,7.271072388E0
2.751770020E-1,-2.552810669E0,4.935287476E0,7.608657837E0
2.801818840E-1,-2.744354248E0,4.578552246E0,7.943847656E0
2.851867670E-1,-2.940673828E0,4.145202637E0,8.214385986E0
2.901916500E-1,-3.110671997E0,3.663970947E0,8.358047485E0
2.951965330E-1,-3.247131348E0,3.168365479E0,8.403533936E0
3.002014160E-1,-3.469802856E0,2.737411499E0,8.314941406E0
3.052062990E-1,-3.754699707E0,2.509963989E0,8.132980347E0
3.102111810E-1,-3.994125366E0,2.576995850E0,7.989334106E0
3.152160640E-1,-4.097076416E0,2.869094849E0,7.943847656E0
3.202209470E-1,-4.070739746E0,3.304840088E0,8.001312256E0
3.252258300E-1,-3.936660767E0,3.747772217E0,8.166503906E0
3.302307130E-1,-3.819351196E0,4.109298706E0,8.398742676E0
3.352355950E-1,-3.694854736E0,4.312805176E0,8.614227295E0
3.402404780E-1,-3.567962646E0,4.327163696E0,8.786605835E0
3.452453610E-1,-3.409942627E0,4.164352417E0,8.935043335E0
3.502502440E-1,-3.230377197E0,3.867477417E0,9.119400024E0
3.552551270E-1,-3.046020508E0,3.479614258E0,9.325302124E0
3.602600090E-1,-2.840118408E0,3.051055908E0,9.495285034E0
3.652648920E-1,-2.636611938E0,2.612915039E0,9.579086304E0
3.702697750E-1,-2.433105469E0,2.251388550E0,9.636550903E0
3.752746580E-1,-2.294250488E0,2.002395630E0,9.744277954E0
3.802795410E-1,-2.239181519E0,1.873107910E0,9.842453003E0
3.852844240E-1,-2.299026489E0,1.909027100E0,9.811325073E0
3.902893060E-1,-2.416351318E0,2.102951050E0,9.670059204E0
3.952941890E-1,-2.564788818E0,2.454895020E0,9.471343994E0
4.002990720E-1,-2.713226318E0,2.967254639E0,9.251083374E0
4.053039550E-1,-2.876037598E0,3.606506348E0,9.009262085E0
4.103088380E-1,-3.043624878E0,4.303222656E0,8.769851685E0
4.153137200E-1,-3.043624878E0,5.004730225E0,8.619003296E0
4.203186030E-1,-2.799423218E0,5.598480225E0,8.559158325E0
4.253234860E-1,-2.382827759E0,6.015075684E0,8.528030396E0
4.303283690E-1,-1.918350220E0,6.228164673E0,8.444229126E0
4.353332520E-1,-1.451492310E0,6.189849854E0,8.269454956E0
4.403381340E-1,-9.750366211E-1,5.936065674E0,7.972579956E0
4.453430170E-1,-5.512695312E-1,5.478775024E0,7.687667847E0
4.503479000E-1,-2.328338623E-1,4.916137695E0,7.512893677E0
4.553527830E-1,-5.326843262E-2,4.296035767E0,7.493728638E0
4.603576660E-1,-2.932739258E-2,3.745376587E0,7.544006348E0
4.653625490E-1,-1.777648926E-1,3.350326538E0,7.529647827E0
4.703674310E-1,-4.674682617E-1,3.154006958E0,7.395568848E0
4.753723140E-1,-8.170166016E-1,3.233016968E0,7.213607788E0
4.803771970E-1,-1.130661011E0,3.628051758E0,7.141784668E0
4.853820800E-1,-1.353317261E0,4.310409546E0,7.177703857E0
4.903869630E-1,-1.535278320E0,5.181900024E0,7.244735718E0
4.953918450E-1,-1.645416260E0,6.120422363E0,7.263885498E0
5.003967280E-1,-1.621475220E0,7.025436401E0,7.189666748E0
5.054016110E-1,-1.487396240E0,7.786788940E0,7.017288208E0
5.104064940E-1,-1.221649170E0,8.366180420E0,6.775466919E0
5.154113770E-1,-7.954711914E-1,8.713348389E0,6.559997559E0
5.204162590E-1,-3.621215820E-1,8.727706909E0,6.392395020E0
5.254211420E-1,-6.524658203E-2,8.344635010E0,6.141006470E0
5.304260250E-1,9.516906738E-2,7.705383301E0,5.741180420E0
5.354309080E-1,1.430511475E-1,7.013458252E0,5.293457031E0
5.404357910E-1,1.262969971E-1,6.395751953E0,4.886444092E0
5.454406740E-1,3.770446777E-2,5.948043823E0,4.572814941E0
5.504150390E-1,-1.418609619E-1,5.694259644E0,4.259170532E0
5.554199220E-1,-3.764953613E-1,5.653549194E0,3.964675903E0
5.604248040E-1,-6.494293213E-1,5.833114624E0,3.715682983E0
5.654296870E-1,-8.313903809E-1,6.240127563E0,3.526535034E0
5.704345700E-1,-8.289947510E-1,6.750091553E0,3.464294434E0
5.754394530E-1,-6.877288818E-1,7.243301392E0,3.445144653E0
5.804443360E-1,-4.890136719E-1,7.657501221E0,3.282333374E0
5.854492180E-1,-2.232666016E-1,7.987899780E0,2.899261475E0
5.904541010E-1,1.454467773E-1,8.234497070E0,2.446762085E0
5.954589840E-1,6.242828369E-1,8.461944580E0,2.006225586E0
6.004638670E-1,1.263534546E0,8.687011719E0,1.606399536E0
6.054687500E-1,1.993774414E0,8.813903809E0,1.232894897E0
6.104736330E-1,2.666534424E0,8.780380249E0,8.139190674E-1
6.154785150E-1,3.229171753E0,8.627151489E0,2.680358887E-1
6.204833980E-1,3.705627441E0,8.399703979E0,-4.047393799E-1
6.254882810E-1,4.117431641E0,8.126770020E0,-1.039199829E0
6.304931640E-1,4.438247681E0,7.827484131E0,-1.494094849E0
6.354980470E-1,4.608245850E0,7.554550171E0,-1.834075928E0
6.405029290E-1,4.572326660E0,7.346252441E0,-2.102233887E0
6.455078120E-1,4.397552490E0,7.231338501E0,-2.186019897E0
6.505126950E-1,4.148559570E0,7.219360352E0,-2.047164917E0
6.555175780E-1,3.856460571E0,7.291183472E0,-1.898712158E0
6.605224610E-1,3.571548462E0,7.406112671E0,-1.810134888E0
6.655273430E-1,3.377624512E0,7.552154541E0,-1.767044067E0
6.705322260E-1,3.293823242E0,7.693405151E0,-1.774215698E0
6.755371090E-1,3.327346802E0,7.808334351E0,-1.800552368E0
6.805419920E-1,3.470993042E0,7.889739990E0,-1.869995117E0
6.855468750E-1,3.681686401E0,7.947204590E0,-1.987304688E0
6.905517580E-1,3.992935181E0,8.050155640E0,-2.051940918E0
6.955566400E-1,4.376007080E0,8.184219360E0,-2.073501587E0
7.005615230E-1,4.802169800E0,8.294357300E0,-2.174057007E0
7.055664060E-1,5.242706299E0,8.380554199E0,-2.363189697E0
7.105712890E-1,5.666473389E0,8.543350220E0,-2.655288696E0
7.155761720E-1,6.085464478E0,8.883331299E0,-3.043151855E0
7.205810540E-1,6.535568237E0,9.544128418E0,-3.651275635E0
7.255859370E-1,6.727111816E0,9.513000488E0,-4.496429443E0
7.305908200E-1,6.954559326E0,9.295135498E0,-4.458114624E0
7.355957030E-1,7.059906006E0,9.266403198E0,-5.025543213E0
7.406005860E-1,7.148483276E0,9.244857788E0,-5.561843872E0
7.456054680E-1,7.344818115E0,9.067687988E0,-5.887466431E0
7.506103510E-1,7.574661255E0,8.730102539E0,-6.057449341E0
7.556152340E-1,7.715911865E0,8.349426270E0,-6.016738892E0
7.606201170E-1,7.699157715E0,7.951980591E0,-5.794082642E0
7.656250000E-1,7.610565186E0,7.621582031E0,-5.442138672E0
7.706298830E-1,7.488464355E0,7.456390381E0,-5.066253662E0
7.756347650E-1,7.318481445E0,7.408508301E0,-4.652053833E0
7.806396480E-1,7.122146606E0,7.437225342E0,-4.235458374E0
7.856445310E-1,6.928222656E0,7.559341431E0,-3.761413574E0
7.906494140E-1,6.798934937E0,7.758056641E0,-3.205947876E0
7.956542970E-1,6.705566406E0,7.975921631E0,-2.643310547E0
8.006591790E-1,6.655288696E0,8.200988770E0,-2.200393677E0
8.056640620E-1,6.645706177E0,8.435607910E0,-1.908294678E0
8.106689450E-1,6.669647217E0,8.715744019E0,-1.810134888E0
8.156738280E-1,6.779785156E0,9.003036499E0,-1.846054077E0
8.206787110E-1,6.956954956E0,9.287948608E0,-1.968154907E0
8.256835930E-1,7.155670166E0,9.582443237E0,-2.188415527E0
8.306884760E-1,7.402267456E0,9.757217407E0,-2.420654297E0
8.356933590E-1,7.574661255E0,9.685394287E0,-2.583465576E0
8.406982420E-1,7.505218506E0,9.321472168E0,-2.880340576E0
8.457031250E-1,7.234680176E0,8.809112549E0,-3.387908936E0
8.507080080E-1,6.854003906E0,8.426040649E0,-4.000823975E0
8.557128900E-1,6.387130737E0,8.335052490E0,-4.467697144E0
8.607177730E-1,5.786193848E0,8.449981689E0,-4.666412354E0
8.657226560E-1,5.089477539E0,8.502655029E0,-4.735855103E0
8.707275390E-1,4.354461670E0,8.430831909E0,-4.711898804E0
8.757324220E-1,3.743927002E0,8.318298340E0,-4.558670044E0
8.807373040E-1,3.324951172E0,8.189010620E0,-4.283340454E0
8.857421870E-1,3.169326782E0,8.014236450E0,-3.895477295E0
8.907470700E-1,3.265090942E0,7.789184570E0,-3.392700195E0
8.957519530E-1,3.540420532E0,7.547363281E0,-2.772598267E0
9.007568360E-1,4.024047852E0,7.224151611E0,-2.274612427E0
9.057617180E-1,4.656127930E0,6.850646973E0,-1.925048828E0
9.107666010E-1,5.094268799E0,6.728546143E0,-1.376785278E0
9.157714840E-1,5.367202759E0,6.766860962E0,-1.039199829E0
9.207763670E-1,5.460571289E0,6.841079712E0,-9.147033691E-1
9.257812500E-1,5.316925049E0,6.920089722E0,-8.716125488E-1
9.307861330E-1,5.051162720E0,7.042190552E0,-8.428802490E-1
9.357910150E-1,4.761474609E0,7.169082642E0,-8.093566895E-1
9.407958980E-1,4.555572510E0,7.315124512E0,-8.093566895E-1
9.458007810E-1,4.490921021E0,7.468353271E0,-8.500518799E-1
9.508056640E-1,4.560348511E0,7.633560181E0,-9.123077393E-1
9.558105470E-1,4.680068970E0,7.805938721E0,-9.242858887E-1
9.608154290E-1,4.852447510E0,8.062118530E0,-7.494964600E-1
9.658203120E-1,5.127777100E0,8.433227539E0,-4.550170898E-1
9.708251950E-1,5.541976929E0,8.816299438E0,-3.520660400E-1
9.758300780E-1,5.980117798E0,9.105987549E0,-5.435943604E-1
9.808349610E-1,6.411071777E0,9.204147339E0,-9.242858887E-1
9.858398430E-1,6.739074707E0,9.089233398E0,-1.424667358E0
9.908447260E-1,6.923431396E0,8.823471069E0,-1.980117798E0
9.958496090E-1,7.009628296E0,8.536178589E0,-2.564300537E0
1.000854492E0,7.026382446E0,8.258438110E0,-3.098220825E0
1.005859375E0,6.983291626E0,7.985504150E0,-3.500442505E0
1.010864258E0,6.882736206E0,7.729324341E0,-3.656066895E0
1.015869140E0,6.755844116E0,7.480331421E0,-3.519592285E0
1.020874023E0,6.648101807E0,7.209777832E0,-3.232284546E0
1.025878906E0,6.499664307E0,6.881774902E0,-2.971328735E0
1.030883789E0,6.262634277E0,6.484344482E0,-2.839645386E0
1.035888672E0,5.948989868E0,6.084503174E0,-2.851608276E0
1.040893554E0,5.551559448E0,5.763687134E0,-2.942596436E0
1.045898437E0,5.144546509E0,5.543426514E0,-3.043151855E0
1.050903320E0,4.747100830E0,5.471588135E0,-3.100601196E0
1.055908203E0,4.411911011E0,5.533843994E0,-3.126937866E0
1.060913086E0,4.146163940E0,5.696655273E0,-3.186798096E0
1.065917968E0,3.995330811E0,5.957611084E0,-3.244262695E0
1.070922851E0,4.007293701E0,6.345474243E0,-3.282562256E0
1.075897217E0,4.165313721E0,6.797973633E0,-3.272994995E0
1.080902099E0,4.428680420E0,7.264846802E0,-3.229888916E0
1.085906982E0,4.797378540E0,7.695800781E0,-3.241867065E0
1.090911865E0,5.295379639E0,8.095642090E0,-3.347213745E0
1.095916748E0,5.915466309E0,8.423645020E0,-3.478897095E0
1.100921631E0,6.547546387E0,8.605606079E0,-3.541137695E0
1.105926513E0,7.074264526E0,8.622360229E0,-3.531570435E0
1.110931396E0,7.452545166E0,8.519409180E0,-3.502838135E0
1.115936279E0,7.680007935E0,8.301544189E0,-3.447769165E0
1.120941162E0,7.790130615E0,7.995086670E0,-3.335235596E0
1.125946045E0,7.799713135E0,7.626373291E0,-3.165252686E0
1.130950927E0,7.711120605E0,7.183441162E0,-2.954559326E0
1.135955810E0,7.521987915E0,6.697418213E0,-2.774993896E0
1.140960693E0,7.251434326E0,6.225769043E0,-2.636138916E0
1.145965576E0,6.937805176E0,5.782836914E0,-2.523605347E0
1.150970459E0,6.597824097E0,5.327941895E0,-2.475723267E0
1.155975342E0,6.205169678E0,4.868255615E0,-2.530792236E0
1.160980224E0,5.800552368E0,4.480392456E0,-2.595428467E0
1.165985107E0,5.448608398E0,4.260131836E0,-2.626556396E0
1.170989990E0,5.180450439E0,4.221817017E0,-2.676834106E0
1.175994873E0,5.022430420E0,4.363082886E0,-2.734298706E0
1.180999756E0,4.969757080E0,4.631225586E0,-2.741485596E0
1.186004638E0,4.996093750E0,5.023880005E0,-2.662475586E0
1.191009521E0,5.099044800E0,5.514694214E0,-2.595428467E0
1.196014404E0,5.235519409E0,6.084503174E0,-2.561920166E0
1.201019287E0,5.357620239E0,6.673477173E0,-2.533187866E0
1.206024170E0,5.465362549E0,7.171478271E0,-2.535583496E0
1.211029052E0,5.565917969E0,7.544967651E0,-2.607406616E0
1.216033935E0,5.628173828E0,7.753265381E0,-2.695983887E0
1.221038818E0,5.664077759E0,7.798751831E0,-2.839645386E0
1.226043701E0,5.740692139E0,7.726928711E0,-3.402282715E0
1.231048584E0,5.822097778E0,7.511459351E0,-4.110961914E0
1.236053467E0,5.843643188E0,7.161895752E0,-4.745422363E0
1.241058349E0,5.812530518E0,6.699813843E0,-5.384674072E0
1.246063232E0,5.776611328E0,6.237731934E0,-5.952102661E0
1.251068115E0,5.738296509E0,5.830718994E0,-6.227432251E0
1.256072998E0,5.666473389E0,5.524261475E0,-6.208282471E0
1.261077881E0,5.515640259E0,5.323150635E0,-5.995193481E0
1.266082763E0,5.281005859E0,5.234573364E0,-5.691131592E0
1.271087646E0,4.993713379E0,5.241744995E0,-5.339187622E0
1.276092529E0,4.704010010E0,5.347091675E0,-4.982452393E0
1.281097412E0,4.557968140E0,5.596084595E0,-4.596984863E0
1.286102295E0,4.557968140E0,5.955215454E0,-4.187576294E0
1.291107177E0,4.675277710E0,6.362243652E0,-3.828445435E0
1.296112060E0,4.766250610E0,6.757278442E0,-3.210739136E0
1.301116943E0,4.926666260E0,7.183441162E0,-2.877944946E0
1.306121826E0,4.955398560E0,7.779602051E0,-2.779785156E0
1.311126709E0,5.053558350E0,8.370971680E0,-2.894714355E0
1.316131592E0,5.158905029E0,8.773193359E0,-2.928222656E0
1.321136474E0,5.211578369E0,8.900085449E0,-2.897094727E0
1.326141357E0,5.283401489E0,8.744461060E0,-2.834854126E0
1.331146240E0,5.352828979E0,8.399703979E0,-2.815704346E0
1.336151123E0,5.393539429E0,7.975921631E0,-2.904281616E0
1.341156006E0,5.439025879E0,7.554550171E0,-3.114974976E0
1.346160888E0,5.506057739E0,7.216964722E0,-3.399887085E0
1.351165771E0,5.580291748E0,7.042190552E0,-3.711135864E0
1.356170654E0,5.635345459E0,6.989517212E0,-4.017593384E0
1.361175537E0,5.616195679E0,7.025436401E0,-4.302490234E0
1.366180420E0,5.520431519E0,7.097259521E0,-4.484451294E0
1.371185302E0,5.376785278E0,7.169082642E0,-4.486846924E0
1.376190185E0,5.206787109E0,7.269638062E0,-4.570648193E0
1.381195068E0,5.005676270E0,7.384567261E0,-4.666412354E0
1.386199951E0,4.828506470E0,7.475540161E0,-4.652053833E0
1.391204834E0,4.742309570E0,7.521026611E0,-4.529953003E0
1.396209717E0,4.665695190E0,7.513839722E0,-3.948150635E0
1.401214599E0,4.359237671E0,7.231338501E0,-1.814926147E0
1.406219482E0,4.095886230E0,7.310333252E0,-8.740081787E-1
1.411224365E0,3.566757202E0,7.394134521E0,-1.629180908E-1
1.416229248E0,2.910751343E0,7.442016602E0,4.140777588E-1
1.421234131E0,2.185302734E0,7.492294312E0,8.378601074E-1
1.426239013E0,1.304244995E0,7.511459351E0,1.261627197E0
1.431243896E0,2.555847168E-1,7.391738892E0,1.510620117E0
1.436248779E0,-8.672943115E-1,7.102050781E0,1.649490356E0
1.441223144E0,-1.939895630E0,6.707000732E0,1.338241577E0
1.446228027E0,-2.531265259E0,6.259292603E0,4.906921387E-1
1.451232910E0,-2.610275269E0,5.845092773E0,-4.598083496E-1
1.456237793E0,-2.227203369E0,5.629608154E0,-9.506225586E-1
1.461242676E0,-1.451492310E0,5.574539185E0,-1.146942139E0
1.466247558E0,-4.076080322E-1,5.720596313E0,-1.094268799E0
1.471252441E0,1.646606445E0,6.340682983E0,-2.157287598E0
1.476257324E0,4.318542480E0,7.312728882E0,-4.058288574E0
1.481262207E0,6.006454468E0,8.045364380E0,-4.795700073E0
1.486267090E0,7.282562256E0,8.742065430E0,-5.317642212E0
1.491271972E0,8.386291504E0,9.496246338E0,-6.160400391E0
1.496276855E0,8.922592163E0,1.010916138E1,-6.969635010E0
1.501281738E0,8.896255493E0,1.050898743E1,-7.470031738E0
1.506286621E0,8.637680054E0,1.068855286E1,-7.563400269E0
1.511291504E0,8.228271484E0,1.067658997E1,-7.161178589E0
1.516296386E0,7.682388306E0,1.048504639E1,-6.409393311E0
1.521301269E0,7.208343506E0,1.016902161E1,-5.645645142E0
1.526306152E0,6.547546387E0,9.711730957E0,-4.982452393E0
1.531311035E0,5.666473389E0,9.137115479E0,-4.515579224E0
1.536315918E0,4.466979980E0,8.457168579E0,-4.106170654E0
1.541320801E0,3.166931152E0,7.750869751E0,-3.986465454E0
1.546325683E0,1.790267944E0,7.118804932E0,-3.770980835E0
1.551330566E0,7.894897461E-1,6.606445312E0,-4.053497314E0
1.556335449E0,-4.554901123E-1,6.189849854E0,-4.127716064E0
1.561340332E0,-1.089965820E0,5.967193604E0,-4.058288574E0
1.566345215E0,-1.535278320E0,6.017471313E0,-4.079833984E0
1.571350097E0,-1.927932739E0,6.261672974E0,-4.003219604E0
1.576354980E0,-2.145797729E0,6.594467163E0,-3.881118774E0
1.581359863E0,-2.258331299E0,6.917694092E0,-3.823654175E0
1.586364746E0,-2.236785889E0,7.207382202E0,-3.838027954E0
1.591369629E0,-2.073974609E0,7.463562012E0,-3.857177734E0
1.596374511E0,-1.813003540E0,7.731719971E0,-3.979278564E0
1.601379394E0,-1.506546021E0,8.023818970E0,-4.106170654E0
1.606384277E0,-1.180938721E0,8.291961670E0,-4.168426514E0
1.611389160E0,-8.218078613E-1,8.478713989E0,-4.307281494E0
1.616394043E0,-3.693084717E-1,8.540954590E0,-4.642471313E0
1.621398926E0,2.340393066E-1,8.521804810E0,-5.169204712E0
1.626403808E0,9.810180664E-1,8.438003540E0,-5.782119751E0
1.631408691E0,1.821395874E0,8.342239380E0,-6.385452271E0
1.636413574E0,2.661758423E0,8.251266479E0,-6.890625000E0
1.641418457E0,3.480575562E0,8.162673950E0,-7.242584229E0
1.646423340E0,4.258682251E0,8.069305420E0,-7.431716919E0
1.651428222E0,4.981735229E0,8.030990601E0,-7.489181519E0
1.656418135E0,5.565917969E0,8.021423340E0,-7.481994629E0
1.661423018E0,5.927444458E0,8.016632080E0,-7.453262329E0
1.666427901E0,6.071090698E0,8.009445190E0,-7.455657959E0
1.671432784E0,6.025604248E0,8.016632080E0,-7.472427368E0
1.676437666E0,5.838851929E0,8.071701050E0,-7.525100708E0
1.681442549E0,5.525222778E0,8.126770020E0,-7.592132568E0
1.686447432E0,5.144546509E0,8.236892700E0,-7.663955688E0
1.691452315E0,4.768646240E0,8.397308350E0,-7.745361328E0
1.696457198E0,4.510070801E0,8.557723999E0,-7.917739868E0
1.701462081E0,4.462188721E0,8.703765869E0,-8.250534058E0
1.706466963E0,4.704010010E0,8.840240479E0,-8.688674927E0
1.711471846E0,5.257064819E0,8.959945679E0,-9.107666016E0
1.716476729E0,5.980117798E0,9.031768799E0,-9.421295166E0
1.721481612E0,6.707962036E0,9.053314209E0,-9.596084595E0
1.726486495E0,7.361572266E0,9.024581909E0,-9.620025635E0
1.731491377E0,7.940963745E0,8.964736938E0,-9.495513916E0
1.736496260E0,8.438964844E0,8.921630859E0,-9.196243286E0
1.741501143E0,8.853164673E0,8.914459229E0,-8.796417236E0
1.746506026E0,9.152435303E0,8.890518188E0,-8.300811768E0
1.751510909E0,9.434951782E0,8.876144409E0,-7.853103638E0
1.756515791E0,9.822814941E0,8.976699829E0,-7.539459229E0
1.761520674E0,1.038545227E1,9.208938599E0,-7.328765869E0
1.766525557E0,1.104145813E1,9.515396118E0,-7.173141479E0
1.771530440E0,1.166395569E1,9.781158447E0,-7.043853760E0
1.776535323E0,1.217631531E1,9.934387207E0,-6.811614990E0
1.781540206E0,1.255699158E1,1.001579285E1,-6.550659180E0
1.786545088E0,1.276049805E1,1.002775574E1,-6.301651001E0
1.791549971E0,1.277725220E1,9.989456177E0,-6.026321411E0
1.796554854E0,1.265036011E1,9.917633057E0,-5.698318481E0
1.801559737E0,1.237982178E1,9.852981567E0,-5.248214722E0
1.806564620E0,1.195364380E1,9.857772827E0,-4.675994873E0
1.811569502E0,1.133834839E1,9.836227417E0,-4.053497314E0
1.816574385E0,1.058177185E1,9.745239258E0,-3.380737305E0
1.821579268E0,9.724655151E0,9.515396118E0,-2.815704346E0
1.826584151E0,8.893859863E0,9.228088379E0,-2.262634277E0
1.831589034E0,8.139694214E0,8.940795898E0,-1.709579468E0
1.836593916E0,7.486068726E0,8.667846680E0,-1.194824219E0
1.841598799E0,6.906677246E0,8.445190430E0,-7.973937988E-1
1.846603682E0,6.451782227E0,8.291961670E0,-5.555725098E-1
1.851608565E0,6.188415527E0,8.291961670E0,-4.861450195E-1
1.856613448E0,6.157287598E0,8.445190430E0,-4.645996094E-1
1.861618331E0,6.262634277E0,8.675033569E0,-5.435943604E-1
1.866623213E0,6.499664307E0,9.034164429E0,-6.513366699E-1
1.871628096E0,6.856399536E0,9.527374268E0,-7.303466797E-1
1.876632979E0,7.275375366E0,1.014985657E1,-7.973937988E-1
1.881637862E0,7.715911865E0,1.080108643E1,-8.692169189E-1
1.886642745E0,8.087020874E0,1.144512939E1,-8.716125488E-1
1.891647627E0,8.386291504E0,1.188087463E1,-7.614746094E-1
1.896652510E0,8.575439453E0,1.220169067E1,-6.609191895E-1
1.901657393E0,8.678375244E0,1.239083862E1,-5.172576904E-1
1.906662276E0,8.654434204E0,1.238604736E1,-3.424835205E-1
1.911667159E0,8.460510254E0,1.224240112E1,-1.222229004E-1
1.916672041E0,8.151657104E0,1.198382568E1,1.411437988E-1
1.921676924E0,7.792526245E0,1.170849609E1,4.164733887E-1
1.926681807E0,7.452545166E0,1.139964294E1,6.223754883E-1
1.931686690E0,7.153274536E0,1.103811646E1,6.319580078E-1
1.936691573E0,6.904281616E0,1.058560181E1,5.409698486E-1
1.941696456E0,6.669647217E0,1.005648804E1,3.733825684E-1
1.946701338E0,6.511627197E0,9.369354248E0,-4.081726074E-2
1.951706221E0,6.442199707E0,8.675033569E0,-3.209381104E-1
1.956711104E0,6.432617188E0,8.179428101E0,-5.651550293E-1
1.961715987E0,6.413467407E0,7.985504150E0,-1.027236938E0
1.966720870E0,6.377548218E0,8.059722900E0,-1.209182739E0
1.971695235E0,6.308120728E0,8.378158569E0,-1.156509399E0
1.976700118E0,6.207565308E0,8.890518188E0,-8.883666992E-1
1.981705000E0,6.104614258E0,9.498641968E0,-3.041839600E-1
1.986709883E0,5.968139648E0,1.016183472E1,2.488861084E-1
1.991714766E0,5.779006958E0,1.079629517E1,4.859008789E-1
1.996719649E0,5.553955078E0,1.120091248E1,5.002746582E-1
2.001724532E0,5.381561279E0,1.130625916E1,4.906921387E-1
2.006729414E0,5.290588379E0,1.128710938E1,5.673065186E-1
2.011734297E0,5.319320679E0,1.119613647E1,5.840606689E-1
2.016739180E0,5.467758179E0,1.099263000E1,5.194244385E-1
2.021744063E0,5.699996948E0,1.086811829E1,4.715423584E-1
2.026748946E0,5.922653198E0,1.064546204E1,5.625152588E-1
2.031753829E0,6.075881958E0,1.048744202E1,5.553436279E-1
2.036758711E0,6.152496338E0,1.023844910E1,6.080169678E-1
2.041763594E0,5.865188599E0,9.924804688E0,9.551696777E-1
2.046768477E0,5.300170898E0,9.386108398E0,1.163467407E0
2.051773360E0,4.708801270E0,9.055709839E0,7.612457275E-1
2.056778243E0,4.261077881E0,9.065292358E0,2.381896973E-2
2.061783125E0,4.129394531E0,8.981491089E0,-2.467193604E-1
2.066788008E0,4.364028931E0,9.012619019E0,-3.017883301E-1
2.071792891E0,5.012863159E0,8.955154419E0,-3.281250000E-1
2.076797774E0,6.006454468E0,8.758834839E0,-8.165435791E-1
2.081802657E0,6.968917847E0,8.617568970E0,-1.003280640E0
2.086807539E0,7.569869995E0,8.449981689E0,-8.237152100E-1
2.091812422E0,7.735061646E0,8.430831909E0,-7.566833496E-1
2.096817305E0,7.512405396E0,8.299148560E0,-9.194946289E-1
2.101822188E0,6.985687256E0,8.208160400E0,-1.429458618E0
2.106827071E0,6.293762207E0,8.042968750E0,-2.181228638E0
2.111831954E0,5.534790039E0,8.038177490E0,-3.095825195E0
2.116836836E0,4.818923950E0,8.327880859E0,-4.048706055E0
2.121841719E0,4.083908081E0,8.718124390E0,-4.719085693E0
2.126846602E0,3.126235962E0,8.900085449E0,-4.884292603E0
2.131851485E0,2.281082153E0,8.325485229E0,-3.656066895E0
2.136856368E0,2.010528564E0,8.198593140E0,-3.330444336E0
2.141861250E0,1.811813354E0,8.291961670E0,-4.721481323E0
2.146866133E0,1.759140015E0,8.124374390E0,-6.107727051E0
2.151871016E0,1.890823364E0,7.688629150E0,-6.967239380E0
2.156875899E0,2.163757324E0,7.207382202E0,-7.017517090E0
2.161880782E0,2.415145874E0,6.996704102E0,-6.660781860E0
2.166885664E0,2.733581543E0,6.316741943E0,-6.327987671E0
2.171890547E0,2.996948242E0,5.871429443E0,-6.134063721E0
2.176895430E0,3.092712402E0,5.375823975E0,-5.978439331E0
2.181900313E0,3.044830322E0,4.875442505E0,-5.734237671E0
2.186905196E0,2.905960083E0,4.504333496E0,-5.612121582E0
2.191910079E0,2.712036133E0,4.207458496E0,-5.545089722E0
2.196914961E0,2.518096924E0,4.073379517E0,-5.501998901E0
2.201919844E0,2.398391724E0,4.006347656E0,-5.499603271E0
2.206924727E0,2.374450684E0,4.025497437E0,-5.422988892E0
2.211929610E0,2.486984253E0,4.152389526E0,-5.286514282E0
2.216934493E0,2.692871094E0,4.547424316E0,-5.166809082E0
2.221939375E0,2.915542603E0,5.177108765E0,-5.150039673E0
2.226944258E0,3.176513672E0,5.933670044E0,-5.162017822E0
2.231949141E0,3.456634521E0,6.594467163E0,-5.190750122E0
2.236954024E0,3.698440552E0,7.193023682E0,-5.188354492E0
2.241958907E0,3.851669312E0,7.777206421E0,-5.181167603E0
2.246963789E0,3.892379761E0,8.411666870E0,-5.176376343E0
2.251968672E0,3.839706421E0,8.744461060E0,-5.128494263E0
2.256973555E0,3.724777222E0,8.457168579E0,-5.104553223E0
2.261978438E0,3.521270752E0,8.064514160E0,-5.202713013E0
2.266983321E0,3.210021973E0,7.307952881E0,-5.382278442E0
2.271988204E0,3.020889282E0,8.325485229E0,-5.841964722E0
2.276993086E0,2.700057983E0,1.083940125E1,-5.731842041E0
2.281997969E0,2.522888184E0,1.185453796E1,-4.058288574E0
2.287002852E0,2.836532593E0,1.096389771E1,-2.921035767E0
2.292007735E0,3.286636353E0,1.031506348E1,-3.251449585E0
2.297012618E0,3.722381592E0,9.876922607E0,-4.486846924E0
2.302017500E0,3.988143921E0,9.479492188E0,-5.609725952E0
2.307022383E0,4.344879150E0,8.411666870E0,-6.627273560E0
2.312027266E0,4.943420410E0,7.020645142E0,-6.955276489E0
2.317032149E0,5.343261719E0,4.621658325E0,-7.505935669E0
2.322037032E0,5.498886108E0,3.331176758E0,-8.518692017E0
2.327041914E0,5.316925049E0,2.766143799E0,-9.430877686E0
2.332046797E0,4.773437500E0,2.442932129E0,-9.351867676E0
2.337051680E0,4.112640381E0,2.610519409E0,-8.667129517E0
2.342056563E0,3.437469482E0,3.108520508E0,-8.257720947E0
2.347061446E0,2.570770264E0,3.632843018E0,-7.872253418E0
2.352066329E0,1.596328735E0,4.085357666E0,-7.290466309E0
2.357071211E0,7.272338867E-1,4.588134766E0,-6.541076660E0
2.362076094E0,-9.875488281E-2,5.095703125E0,-5.674377441E0
2.367080977E0,-4.483184814E-1,5.665527344E0,-4.829223633E0
2.372085860E0,-6.829528809E-1,6.211395264E0,-4.170822144E0
2.377090743E0,-8.648986816E-1,6.702209473E0,-3.744644165E0
2.382095625E0,-1.006164551E0,7.042190552E0,-3.239471436E0
2.387100508E0,-1.166580200E0,7.202606201E0,-2.526000977E0
2.392105391E0,-1.360504150E0,7.212173462E0,-1.917877197E0
2.397110274E0,-1.465850830E0,7.137954712E0,-1.635360718E0
2.402115157E0,-1.403594971E0,6.970367432E0,-1.628173828E0
2.407120039E0,-1.099533081E0,6.728546143E0,-1.795761108E0
2.412124922E0,-4.962005615E-1,6.498703003E0,-2.044769287E0
2.417129805E0,3.561401367E-1,6.321533203E0,-2.272216797E0
2.422134688E0,1.297058105E0,6.209014893E0,-2.523605347E0
2.427139571E0,2.309799194E0,6.201828003E0,-2.772598267E0
2.432144454E0,3.346496582E0,6.316741943E0,-2.971328735E0
2.437149336E0,4.332901001E0,6.498703003E0,-3.186798096E0
2.442154219E0,5.149322510E0,6.718978882E0,-3.557907104E0
2.447159102E0,5.731124878E0,6.917694092E0,-4.029556274E0
2.452163985E0,6.095031738E0,7.128387451E0,-4.522766113E0
2.457168868E0,6.164474487E0,7.317520142E0,-5.047088623E0
2.462173750E0,5.891525269E0,7.442016602E0,-5.612121582E0
2.467178633E0,5.381561279E0,7.501876831E0,-6.186737061E0
2.472183516E0,4.771041870E0,7.398925781E0,-6.883453369E0
2.477188399E0,4.158126831E0,6.960784912E0,-7.723815918E0
2.482193282E0,3.619430542E0,6.197036743E0,-8.554595947E0
2.487198164E0,3.222000122E0,5.689468384E0,-8.849090576E0
2.492203047E0,2.984970093E0,5.722991943E0,-8.614456177E0
2.497207930E0,2.905960083E0,6.223373413E0,-8.226593018E0
2.502182295E0,2.910751343E0,6.884170532E0,-7.812393188E0
2.507187178E0,2.949050903E0,7.513839722E0,-7.347915649E0
2.512192061E0,2.992156982E0,7.992691040E0,-6.873870850E0
2.517196944E0,2.951446533E0,8.220138550E0,-6.397430420E0
2.522201827E0,2.870056152E0,8.256042480E0,-5.956893921E0
2.527206709E0,2.831741333E0,8.234497070E0,-5.614517212E0
2.532211592E0,2.779067993E0,8.133941650E0,-5.406219482E0
2.537216475E0,2.764709473E0,8.023818970E0,-5.284118652E0
2.542221358E0,2.795822144E0,7.942413330E0,-5.183563232E0
2.547226241E0,2.798217773E0,7.923248291E0,-4.934570312E0
2.552231123E0,2.664154053E0,7.937622070E0,-4.462905884E0
2.557236006E0,2.367263794E0,8.050155640E0,-3.907455444E0
2.562240889E0,1.845336914E0,8.160278320E0,-3.442977905E0
2.567245772E0,1.167770386E0,8.196197510E0,-3.074279785E0
2.572250655E0,4.399414062E-1,8.131546021E0,-2.832458496E0
2.577255538E0,-1.969299316E-1,7.935226440E0,-2.765426636E0
2.582260420E0,-5.895690918E-1,7.571304321E0,-2.952163696E0
2.587265303E0,-6.350555420E-1,7.231338501E0,-3.313690186E0
2.592270186E0,-3.597259521E-1,7.025436401E0,-3.833236694E0
2.597275069E0,1.430511475E-1,6.948822021E0,-4.455734253E0
2.602279952E0,7.176666260E-1,7.001495361E0,-4.972869873E0
2.607284834E0,1.172561646E0,6.982330322E0,-5.358337402E0
2.612289717E0,1.524505615E0,6.972763062E0,-5.631286621E0
2.617294600E0,1.756744385E0,6.917694092E0,-5.952102661E0
2.622299483E0,1.795059204E0,6.876983643E0,-6.330383301E0
2.627304366E0,1.716049194E0,6.841079712E0,-6.751770020E0
2.632309248E0,1.555633545E0,6.776428223E0,-7.051040649E0
2.637314131E0,1.385650635E0,6.764465332E0,-7.189910889E0
2.642319014E0,1.246780396E0,6.853042603E0,-7.364685059E0
2.647323897E0,1.074401855E0,6.920089722E0,-7.632827759E0
2.652328780E0,9.091949463E-1,6.984725952E0,-7.752548218E0
2.657333663E0,6.985015869E-1,7.023040771E0,-7.774093628E0
2.662338545E0,5.955505371E-1,7.188232422E0,-7.798034668E0
2.667343428E0,7.368164062E-1,7.442016602E0,-7.838729858E0
2.672348311E0,1.028915405E0,7.698196411E0,-7.565795898E0
2.677353194E0,1.313812256E0,7.930435181E0,-6.828384399E0
2.682358077E0,1.337753296E0,8.186614990E0,-5.990417480E0
2.687362959E0,1.182144165E0,8.337448120E0,-5.451721191E0
2.692367842E0,7.559661865E-1,8.260833740E0,-5.085403442E0
2.697372725E0,1.645965576E-1,7.906494141E0,-4.862747192E0
2.702377608E0,-3.740997314E-1,7.523422241E0,-4.659240723E0
2.707382491E0,-8.601226807E-1,7.252883911E0,-4.295318604E0
2.712387373E0,-1.212066650E0,7.363006592E0,-3.687194824E0
2.717392256E0,-1.350921631E0,7.815521240E0,-3.035964966E0
2.722397139E0,-1.585556030E0,8.040573120E0,-2.571487427E0
2.727402022E0,-1.937515259E0,7.913681030E0,-2.430236816E0
2.732406905E0,-2.231994629E0,7.884948730E0,-2.482910156E0
2.737411788E0,-2.528869629E0,8.239288330E0,-2.511627197E0
2.742416670E0,-2.322967529E0,8.993469238E0,-2.825271606E0
2.747421553E0,-1.353317261E0,9.917633057E0,-3.256225586E0
2.752426436E0,-1.538238525E-1,1.028393555E1,-3.931396484E0
2.757431319E0,1.253967285E0,1.070053101E1,-4.755004883E0
2.762436202E0,2.750335693E0,1.113148499E1,-5.458892822E0
2.767441084E0,4.067153931E0,1.106924438E1,-5.901824951E0
2.772445967E0,4.876388550E0,1.052815247E1,-6.160400391E0
2.777450850E0,5.134963989E0,1.012351990E1,-6.220260620E0
2.782455733E0,4.953002930E0,9.860168457E0,-6.141250610E0
2.787460616E0,4.366424561E0,9.625534058E0,-5.940124512E0
2.792465498E0,3.394378662E0,9.280761719E0,-5.470870972E0
2.797470381E0,2.204467773E0,9.151473999E0,-4.867523193E0
2.802475264E0,1.019332886E0,9.199371338E0,-4.403060913E0
2.807480147E0,1.615905762E-2,9.275985718E0,-4.108566284E0
2.812485030E0,-8.265991211E-1,9.307098389E0,-4.053497314E0
2.817489913E0,-1.303039551E0,9.563278198E0,-3.861968994E0
2.822494795E0,-1.434722900E0,9.984664917E0,-3.838027954E0
2.827499678E0,-1.429931641E0,1.021211243E1,-4.110961914E0
2.832504561E0,-1.391632080E0,1.026478577E1,-4.573043823E0
2.837509444E0,-1.281494141E0,1.030070496E1,-5.097366333E0
2.842514327E0,-1.087570190E0,1.047068787E1,-5.387069702E0
2.847519209E0,-8.672943115E-1,1.071011353E1,-5.425384521E0
2.852524092E0,-6.877288818E-1,1.091601562E1,-5.296096802E0
2.857528975E0,-6.278839111E-1,1.098544312E1,-5.059066772E0
2.862503340E0,-5.728149414E-1,1.101177979E1,-4.750213623E0
2.867508223E0,-4.842224121E-1,1.097825623E1,-4.333618164E0
2.872513106E0,-4.147949219E-1,1.082023621E1,-3.792526245E0
2.877517989E0,-3.501586914E-1,1.052096558E1,-3.256225586E0
2.882522872E0,-2.615661621E-1,1.018338013E1,-2.952163696E0
2.887527754E0,-1.849517822E-1,9.769180298E0,-2.882736206E0
2.892532637E0,-1.203155518E-1,9.247253418E0,-2.813308716E0
2.897537520E0,4.196166992E-3,8.746856689E0,-2.727111816E0
2.902542403E0,2.292480469E-1,8.284774780E0,-2.684020996E0
2.907547286E0,5.309143066E-1,7.968750000E0,-2.707962036E0
2.912552168E0,8.277893066E-1,7.786788940E0,-2.803726196E0
2.917557051E0,9.906005859E-1,7.714965820E0,-2.928222656E0
2.922561934E0,9.882049561E-1,7.693405151E0,-3.114974976E0
2.927566817E0,8.445587158E-1,7.738906860E0,-3.363967896E0
2.932571700E0,6.314697266E-1,7.801147461E0,-3.598602295E0
2.937576582E0,4.231719971E-1,7.825088501E0,-3.818862915E0
2.942581465E0,2.364196777E-1,7.815521240E0,-4.108566284E0
2.947586348E0,7.362365723E-2,7.841857910E0,-4.448547363E0
2.952591231E0,-4.608154297E-2,7.913681030E0,-4.877105713E0
2.957596114E0,-4.370117188E-2,8.011840820E0,-5.329605103E0
2.962600997E0,7.601928711E-2,8.131546021E0,-5.753387451E0
2.967605879E0,2.364196777E-1,8.253662109E0,-6.045471191E0
2.972610762E0,3.178253174E-1,8.325485229E0,-6.198699951E0
2.977615645E0,2.029113770E-1,8.303939819E0,-6.239410400E0
2.982620528E0,-1.035461426E-1,8.256042480E0,-6.177154541E0
2.987625411E0,-5.321044922E-1,8.323089600E0,-6.004776001E0
2.992630293E0,-8.912353516E-1,8.469131470E0,-5.691131592E0
2.997635176E0,-1.063629150E0,8.619964600E0,-5.250595093E0
3.002640059E0,-1.226425171E0,8.603210449E0,-4.917800903E0
3.007644942E0,-1.312622070E0,8.742065430E0,-4.573043823E0
3.012649825E0,-1.317413330E0,8.947967529E0,-4.386291504E0
3.017654707E0,-1.197692871E0,9.072479248E0,-4.391082764E0
3.022659590E0,-9.582824707E-1,9.094024658E0,-4.491638184E0
3.027664473E0,-6.278839111E-1,9.098815918E0,-4.623321533E0
3.032669356E0,-2.735443115E-1,9.132324219E0,-4.723876953E0
3.037674239E0,1.239013672E-1,9.208938599E0,-4.719085693E0
3.042679122E0,5.404968262E-1,9.319076538E0,-4.680786133E0
3.047684004E0,9.235687256E-1,9.354995728E0,-4.623321533E0
3.052688887E0,1.222839355E0,9.278381348E0,-4.541915894E0
3.057693770E0,1.340148926E0,9.117965698E0,-4.446151733E0
3.062698653E0,1.191711426E0,8.967132568E0,-4.395874023E0
3.067703536E0,7.894897461E-1,8.936004639E0,-4.381500244E0
3.072708418E0,2.460021973E-1,9.038955688E0,-4.336013794E0
3.077713301E0,-2.496032715E-1,9.211334229E0,-4.364746094E0
3.082718184E0,-5.632324219E-1,9.369354248E0,-4.503616333E0
3.087723067E0,-6.446380615E-1,9.486663818E0,-4.690353394E0
3.092727950E0,-5.273284912E-1,9.601593018E0,-4.807678223E0
3.097732832E0,-3.238220215E-1,9.668624878E0,-4.881896973E0
3.102737715E0,-1.035461426E-1,9.706939697E0,-4.908233643E0
3.107742598E0,1.717834473E-1,9.747634888E0,-4.810073853E0
3.112747481E0,4.495086670E-1,9.766784668E0,-4.637680054E0
3.117752364E0,6.386566162E-1,9.692565918E0,-4.494033813E0
3.122757247E0,7.128753662E-1,9.457946777E0,-4.364746094E0
3.127762129E0,7.511749268E-1,9.091629028E0,-4.398269653E0
3.132767012E0,7.416076660E-1,8.651092529E0,-4.496429443E0
3.137771895E0,7.607574463E-1,8.260833740E0,-4.644866943E0
3.142776778E0,7.631530762E-1,7.961563110E0,-4.834014893E0
3.147781661E0,7.248382568E-1,7.762847900E0,-4.992034912E0
3.152786543E0,6.745605469E-1,7.681442261E0,-5.025543213E0
3.157791426E0,6.458282471E-1,7.743698120E0,-4.982452393E0
3.162796309E0,5.955505371E-1,7.913681030E0,-4.874710083E0
3.167801192E0,5.476684570E-1,8.160278320E0,-4.692749023E0
3.172806075E0,5.021820068E-1,8.414062500E0,-4.427001953E0
3.177810957E0,4.566955566E-1,8.538558960E0,-4.122940063E0
3.182815840E0,4.686584473E-1,8.519409180E0,-3.849990845E0
3.187820723E0,6.051330566E-1,8.442794800E0,-3.660858154E0
3.192825606E0,8.493499756E-1,8.370971680E0,-3.598602295E0
3.197830489E0,1.122283936E0,8.308715820E0,-3.624938965E0
3.202835372E0,1.354522705E0,8.220138550E0,-3.727890015E0
3.207840254E0,1.517318726E0,8.172256470E0,-3.754226685E0
3.212845137E0,1.522109985E0,8.105209351E0,-3.782958984E0
3.217850020E0,1.368881226E0,8.021423340E0,-3.988861084E0
3.222854903E0,1.074401855E0,7.990295410E0,-4.197158813E0
3.227859786E0,6.458282471E-1,8.009445190E0,-4.316864014E0
3.232864668E0,1.478424072E-1,8.100433350E0,-4.391082764E0
3.237869551E0,-2.879028320E-1,8.294357300E0,-4.391082764E0
3.242874434E0,-6.087188721E-1,8.540954590E0,-4.324050903E0
3.247879317E0,-7.643432617E-1,8.775588989E0,-4.204330444E0
3.252884200E0,-7.188568115E-1,8.983886719E0,-4.094207764E0
3.257889082E0,-5.488739014E-1,9.091629028E0,-4.075042725E0
3.262893965E0,-2.639617920E-1,9.175430298E0,-4.118148804E0
3.267898848E0,9.037780762E-2,9.259216309E0,-4.120544434E0
3.272903731E0,4.495086670E-1,9.393295288E0,-4.106170654E0
3.277908614E0,7.272338867E-1,9.467514038E0,-4.154052734E0
3.282913497E0,8.613128662E-1,9.457946777E0,-4.249832153E0
3.287918379E0,8.637084961E-1,9.383712769E0,-4.436569214E0
3.292923262E0,7.846984863E-1,9.290344238E0,-4.561065674E0
3.297928145E0,6.865386963E-1,9.223312378E0,-4.630508423E0
3.302933028E0,5.835876465E-1,9.266403198E0,-4.719085693E0
3.307937911E0,4.710540771E-1,9.376541138E0,-4.711898804E0
3.312942793E0,3.681030273E-1,9.546524048E0,-4.666412354E0
3.317947676E0,2.436065674E-1,9.611175537E0,-4.517974854E0
3.322952559E0,1.119232178E-1,9.613555908E0,-4.450942993E0
3.327957442E0,-1.736450195E-2,9.457946777E0,-4.264190674E0
3.332962325E0,-1.729888916E-1,8.916854858E0,-3.852386475E0
3.337967207E0,-4.602813721E-1,8.366180420E0,-3.435791016E0
3.342972090E0,-8.648986816E-1,8.181823730E0,-2.921035767E0
3.347976973E0,-5.177459717E-1,8.775588989E0,-2.382354736E0
3.352981856E0,1.837615967E-1,1.085136414E1,-2.054336548E0
3.357986739E0,3.274078369E-1,1.244111633E1,-1.472549438E0
3.362991622E0,-7.003784180E-2,1.184255981E1,-1.881958008E0
3.367996504E0,-2.519836426E-1,9.752426147E0,-1.750274658E0
3.373001387E0,-8.918762207E-2,7.810729980E0,-9.027252197E-1
3.378006270E0,2.268524170E-1,7.063735962E0,-8.356933594E-1
3.383011153E0,7.511749268E-1,7.540176392E0,-1.963363647E0
3.387985518E0,1.378463745E0,8.521804810E0,-3.775772095E0
3.392990401E0,1.778289795E0,9.182601929E0,-5.525939941E0
3.397995284E0,1.649002075E0,9.254425049E0,-6.651214600E0
3.403000166E0,1.064819336E0,9.007827759E0,-7.268920898E0
3.408005049E0,3.728942871E-1,8.572082520E0,-7.544250488E0
3.413009932E0,-4.370117188E-2,8.189010620E0,-7.532272339E0
3.418014815E0,-7.481384277E-2,7.975921631E0,-7.213851929E0
3.423019698E0,1.406555176E-1,7.990295410E0,-6.689514160E0
3.428024581E0,4.279632568E-1,8.117187500E0,-5.923370361E0
3.433029463E0,6.266784668E-1,8.157882690E0,-5.099761963E0
3.438034346E0,6.913299561E-1,8.107604980E0,-4.405441284E0
3.443039229E0,6.003417969E-1,8.076492310E0,-4.000823975E0
3.448044112E0,4.064178467E-1,8.177047729E0,-3.960128784E0
3.453048995E0,1.262969971E-1,8.430831909E0,-4.120544434E0
3.458053877E0,-1.562194824E-1,8.797134399E0,-4.285736084E0
3.463058760E0,-3.836669922E-1,9.129928589E0,-4.324050903E0
3.468063643E0,-5.895690918E-1,9.311889648E0,-4.206726074E0
3.473068526E0,-7.332305908E-1,9.529769897E0,-4.122940063E0
3.478073409E0,-9.367370605E-1,9.709335327E0,-3.900268555E0
3.483078291E0,-1.202484131E0,9.647079468E0,-3.380737305E0
3.488083174E0,-1.362899780E0,9.532165527E0,-3.332839966E0
3.493088057E0,-1.350921631E0,9.290344238E0,-3.292144775E0
3.498092940E0,-9.199676514E-1,9.086837769E0,-3.536346436E0
3.503097823E0,-2.591705322E-1,8.564895630E0,-3.842803955E0
3.508102706E0,4.949951172E-1,8.284774780E0,-4.551498413E0
3.513107588E0,1.253967285E0,8.220138550E0,-5.303268433E0
3.518112471E0,1.785476685E0,8.562515259E0,-5.964080811E0
3.523117354E0,1.823776245E0,9.187393188E0,-6.531494141E0
3.528122237E0,1.356918335E0,9.647079468E0,-6.605712891E0
3.533127120E0,7.918853760E-1,9.659057617E0,-6.248977661E0
3.538132002E0,4.255676270E-1,9.410049438E0,-5.595367432E0
3.543136885E0,3.704986572E-1,9.206542969E0,-4.800491333E0
3.548141768E0,3.321990967E-1,8.936004639E0,-4.142089844E0
3.553146651E0,3.609313965E-1,8.646301270E0,-3.332839966E0
3.558151534E0,5.357055664E-1,8.414062500E0,-2.672042847E0
3.563156416E0,8.900451660E-1,8.358993530E0,-2.411071777E0
3.568161299E0,1.342544556E0,8.414062500E0,-2.482910156E0
3.573166182E0,1.687316895E0,8.318298340E0,-2.674438477E0
3.578171065E0,1.819000244E0,8.114791870E0,-2.956954956E0
3.583175948E0,1.778289795E0,7.932830811E0,-3.294540405E0
3.588180831E0,1.591552734E0,7.892135620E0,-3.754226685E0
3.593185713E0,1.230026245E0,8.014236450E0,-4.261795044E0
3.598190596E0,7.631530762E-1,8.303939819E0,-4.812469482E0
3.603195479E0,1.574249268E-1,8.615173340E0,-5.348770142E0
3.608200362E0,-4.052124023E-1,8.809112549E0,-5.695922852E0
3.613205245E0,-7.619476318E-1,8.957550049E0,-5.873092651E0
3.618210127E0,-8.505401611E-1,9.285552979E0,-5.877883911E0
3.623215010E0,-7.260437012E-1,9.486663818E0,-5.327209473E0
3.628219893E0,-4.267730713E-1,9.611175537E0,-5.056671143E0
3.633224776E0,-2.453613281E-2,9.783554077E0,-4.764572144E0
3.638229659E0,4.902191162E-1,9.637496948E0,-4.357559204E0
3.643234541E0,1.028915405E0,9.510604858E0,-4.110961914E0
3.648239424E0,1.359313965E0,9.151473999E0,-3.639297485E0
3.653244307E0,1.567596436E0,8.806716919E0,-3.419036865E0
3.658249190E0,1.598724365E0,8.600814819E0,-3.342422485E0
3.663254073E0,1.493377686E0,8.435607910E0,-3.471710205E0
3.668258956E0,1.335372925E0,8.421249390E0,-3.869140625E0
3.673263838E0,1.237197876E0,8.505050659E0,-4.218704224E0
3.678268721E0,1.227630615E0,8.567291260E0,-4.470092773E0
3.683273604E0,1.289871216E0,8.581665039E0,-4.544311523E0
3.688278487E0,1.256362915E0,8.689407349E0,-4.462905884E0
3.693283370E0,1.048065186E0,8.916854858E0,-4.292922974E0
3.698288252E0,7.392120361E-1,9.194580078E0,-4.106170654E0
3.703293135E0,3.776855469E-1,9.632720947E0,-3.940979004E0
3.708298018E0,-1.681976318E-1,1.025280762E1,-3.878723145E0
3.713302901E0,-8.888549805E-1,1.100698853E1,-3.785354614E0
3.718307784E0,-1.619079590E0,1.171087646E1,-3.505233765E0
3.723312666E0,-2.284667969E0,1.214662170E1,-3.165252686E0
3.728317549E0,-2.864059448E0,1.214662170E1,-2.954559326E0
3.733322432E0,-3.371627808E0,1.155526733E1,-2.777389526E0
3.738327315E0,-3.182495117E0,1.059757996E1,-3.208343506E0
3.743332198E0,-2.713226318E0,9.445968628E0,-3.797317505E0
3.748337081E0,-2.188903809E0,8.074096680E0,-4.201934814E0
3.753341963E0,-1.480209351E0,7.147537231E0,-4.675994873E0
3.758346846E0,-8.601226807E-1,6.668701172E0,-4.948928833E0
3.763351729E0,-2.735443115E-1,6.424484253E0,-5.260177612E0
3.768356612E0,2.388153076E-1,6.364624023E0,-5.494812012E0
3.773361495E0,6.075286865E-1,6.419692993E0,-5.746200562E0
3.778366377E0,8.349761963E-1,6.400543213E0,-5.734237671E0
3.783371260E0,9.546813965E-1,6.137176514E0,-5.604949951E0
3.788376143E0,1.050460815E0,5.701431274E0,-5.537902832E0
3.793381026E0,1.141433716E0,5.277664185E0,-5.322433472E0
3.798385909E0,1.280303955E0,4.935287476E0,-5.171600342E0
3.803390791E0,1.431137085E0,4.686294556E0,-5.104553223E0
3.808395674E0,1.534088135E0,4.511520386E0,-5.051879883E0
3.813400557E0,1.811813354E0,4.552215576E0,-5.032730103E0
3.818405440E0,2.345718384E0,4.882614136E0,-5.087799072E0
3.823410323E0,2.259521484E0,5.136398315E0,-5.138076782E0
3.828415206E0,1.569992065E0,5.330337524E0,-5.092590332E0
3.833420088E0,9.259643555E-1,5.754104614E0,-5.176376343E0
3.838424971E0,5.189361572E-1,6.209014893E0,-5.597763062E0
3.843429854E0,3.369903564E-1,6.630386353E0,-6.162796021E0
3.848434737E0,3.920440674E-1,7.013458252E0,-6.670364380E0
3.853439620E0,7.032928467E-1,7.370193481E0,-7.067794800E0
3.858444502E0,1.129470825E0,7.604827881E0,-7.434112549E0
3.863449385E0,1.500564575E0,7.774810791E0,-7.707046509E0
3.868454268E0,1.830963135E0,7.870590210E0,-7.809997559E0
3.873459151E0,2.077575684E0,7.865798950E0,-7.812393188E0
3.878464034E0,2.245162964E0,7.872970581E0,-7.924926758E0
3.883468916E0,2.362472534E0,7.827484131E0,-8.003936768E0
3.888473799E0,2.518096924E0,7.861007690E0,-8.106887817E0
3.893478682E0,2.695266724E0,8.069305420E0,-8.219406128E0
3.898483565E0,2.855682373E0,8.380554199E0,-8.207443237E0
3.903488448E0,2.951446533E0,8.732498169E0,-8.130828857E0
3.908493331E0,2.905960083E0,9.041351318E0,-8.066177368E0
3.913467696E0,2.652175903E0,9.266403198E0,-7.927322388E0
3.918472579E0,2.264312744E0,9.479492188E0,-7.752548218E0
3.923477461E0,1.675338745E0,9.649475098E0,-7.558609009E0
3.928482344E0,1.016937256E0,9.649475098E0,-7.139633179E0
3.933487227E0,4.016265869E-1,9.620742798E0,-6.780502319E0
3.938492110E0,1.800537109E-3,9.366958618E0,-6.260955811E0
3.943496993E0,-1.394653320E-1,9.110778809E0,-5.815628052E0
3.948501875E0,-6.045532227E-2,8.756439209E0,-5.353546143E0
3.953506758E0,1.861419678E-1,8.596023560E0,-5.116531372E0
3.958511641E0,5.692138672E-1,8.593627930E0,-4.654449463E0
3.963516524E0,9.594726562E-1,8.586456299E0,-4.374328613E0
3.968521407E0,1.249176025E0,8.540954590E0,-4.029556274E0
3.973526289E0,1.306640625E0,8.294357300E0,-3.498046875E0
3.978531172E0,1.328186035E0,8.265625000E0,-4.228271484E0
3.983536055E0,1.177352905E0,8.083663940E0,-4.338409424E0
3.988540938E0,1.026519775E0,7.829879761E0,-4.482055664E0
3.993545821E0,9.139862061E-1,7.552154541E0,-4.719085693E0
3.998550704E0,9.163818359E-1,7.240905762E0,-5.102157593E0
4.003555586E0,9.690551758E-1,6.912902832E0,-5.693527222E0
4.008560469E0,9.115905762E-1,6.637573242E0,-6.596145630E0
4.013565352E0,9.379272461E-1,6.493911743E0,-7.402984619E0
4.018570235E0,1.055236816E0,6.453216553E0,-8.118850708E0
4.023575118E0,1.232421875E0,6.474761963E0,-8.655151367E0
4.028580000E0,1.488601685E0,6.572921753E0,-8.975982666E0
4.033584883E0,1.809417725E0,6.707000732E0,-9.057388306E0
4.038589766E0,2.151794434E0,6.874588013E0,-9.033447266E0
4.043594649E0,2.324172974E0,6.979934692E0,-8.873031616E0
4.048599532E0,2.314590454E0,7.020645142E0,-8.422912598E0
4.053604414E0,2.190093994E0,7.044586182E0,-7.905776978E0
4.058609297E0,2.017715454E0,7.020645142E0,-7.319198608E0
4.063614180E0,1.754348755E0,6.965576172E0,-6.735000610E0
4.068619063E0,1.498168945E0,6.924880981E0,-6.158004761E0
4.073623946E0,1.232421875E0,6.953598022E0,-5.734237671E0
4.078628829E0,1.019332886E0,7.020645142E0,-5.346374512E0
4.083633711E0,9.331359863E-1,7.185836792E0,-5.106948853E0
4.088638594E0,1.012145996E0,7.415679932E0,-5.145263672E0
4.093643477E0,1.241989136E0,7.671859741E0,-5.351165771E0
4.098648360E0,1.481414795E0,7.889739990E0,-5.636062622E0
4.103653243E0,1.608306885E0,8.047760010E0,-5.798873901E0
4.108658125E0,1.919555664E0,8.078872681E0,-5.669586182E0
4.113663008E0,2.508529663E0,7.908889771E0,-5.346374512E0
4.118667891E0,3.269882202E0,7.822692871E0,-5.063858032E0
4.123672774E0,4.126998901E0,7.920867920E0,-4.800491333E0
4.128677657E0,4.804565430E0,8.035781860E0,-4.769363403E0
4.133682539E0,5.139755249E0,8.114791870E0,-4.853164673E0
4.138687422E0,5.024826050E0,8.066909790E0,-5.018371582E0
4.143692305E0,4.677673340E0,7.887344360E0,-5.099761963E0
4.148697188E0,4.131790161E0,7.707778931E0,-5.231445312E0
4.153702071E0,3.356079102E0,7.590454102E0,-5.511566162E0
4.158706954E0,2.599502563E0,7.643127441E0,-5.734237671E0
4.163711836E0,1.924346924E0,7.537796021E0,-5.739013672E0
4.168716719E0,1.550842285E0,7.269638062E0,-5.645645142E0
4.173721602E0,1.347335815E0,6.850646973E0,-5.621704102E0
4.178726485E0,1.117492676E0,6.453216553E0,-5.652832031E0
4.183731368E0,5.835876465E-1,6.050994873E0,-5.693527222E0
4.188736250E0,2.334594727E-2,5.639190674E0,-5.657623291E0
4.193741133E0,-4.267730713E-1,5.502716064E0,-5.736618042E0
4.198746016E0,-7.523803711E-1,5.833114624E0,-5.901824951E0
4.203750899E0,-9.486999512E-1,6.333511353E0,-5.825210571E0
4.208755782E0,-9.750366211E-1,6.975158691E0,-5.671981812E0
4.213760664E0,-5.704193115E-1,7.657501221E0,-5.140472412E0
4.218765547E0,2.388153076E-1,8.327880859E0,-4.611343384E0
4.223770430E0,1.368881226E0,9.211334229E0,-4.144485474E0
4.228775313E0,2.503738403E0,9.972686768E0,-3.876327515E0
4.233780196E0,3.382415771E0,1.057363892E1,-4.084625244E0
4.238785079E0,3.784637451E0,1.074122620E1,-4.309677124E0
4.243789961E0,3.523666382E0,1.029830933E1,-4.766967773E0
4.248794844E0,2.707244873E0,9.663833618E0,-5.207504272E0
4.253799727E0,1.672943115E0,9.158660889E0,-5.533111572E0
4.258804610E0,9.522857666E-1,9.077255249E0,-5.698318481E0
4.263809493E0,7.966766357E-1,9.297531128E0,-5.466079712E0
4.268783858E0,1.230026245E0,9.692565918E0,-4.881896973E0
4.273788741E0,1.962646484E0,1.011874390E1,-4.015197754E0
4.278793623E0,2.702453613E0,1.047787476E1,-3.122161865E0
4.283798506E0,3.260299683E0,1.061433411E1,-2.200393677E0
4.288803389E0,3.734359741E0,1.055688477E1,-1.333694458E0
4.293808272E0,4.134185791E0,1.023605347E1,-6.776733398E-1
4.298813155E0,4.261077881E0,9.692565918E0,-2.682647705E-1
4.303818038E0,4.086303711E0,9.137115479E0,-1.174316406E-1
4.308822920E0,3.688873291E0,8.648696899E0,-2.036285400E-1
4.313827803E0,3.346496582E0,8.184219360E0,-3.712158203E-1
4.318832686E0,3.327346802E0,7.674255371E0,-5.867004395E-1
4.323837569E0,3.629013062E0,6.999099731E0,-5.771179199E-1
4.328842452E0,3.980957031E0,6.043807983E0,-6.226043701E-1
4.333847334E0,4.265869141E0,5.002334595E0,-7.399291992E-1
4.338852217E0,4.364028931E0,3.980010986E0,-9.027252197E-1
4.343857100E0,4.294601440E0,3.053451538E0,-1.125396729E0
4.348861983E0,4.146163940E0,2.371109009E0,-1.415084839E0
4.353866866E0,4.079116821E0,2.107742310E0,-1.834075928E0
4.358871748E0,4.359237671E0,2.464477539E0,-2.535583496E0
4.363876631E0,4.725555420E0,2.991195679E0,-3.067092896E0
4.368881514E0,5.233123779E0,3.881835938E0,-3.598602295E0
4.373886397E0,5.841247559E0,5.126831055E0,-4.249832153E0
4.378891280E0,6.387130737E0,6.642364502E0,-5.164413452E0
4.383896163E0,6.691192627E0,8.069305420E0,-6.323196411E0
4.388901045E0,6.415863037E0,9.060501099E0,-7.582550049E0
4.393905928E0,5.453399658E0,9.496246338E0,-8.619247437E0
4.398910811E0,4.038421631E0,9.556106567E0,-9.270462036E0
4.403915694E0,2.625839233E0,9.366958618E0,-9.445236206E0
4.408920577E0,1.646606445E0,9.163452148E0,-9.157943726E0
4.413925459E0,1.196502686E0,9.072479248E0,-8.540237427E0
4.418930342E0,1.230026245E0,9.122756958E0,-7.730987549E0
4.423935225E0,1.646606445E0,9.232879639E0,-6.962463379E0
4.428940108E0,2.221221924E0,9.273590088E0,-6.373489380E0
4.433944991E0,2.759918213E0,9.175430298E0,-5.978439331E0
4.438949873E0,3.152557373E0,9.129928589E0,-5.774932861E0
4.443954756E0,3.480575562E0,9.170639038E0,-6.117309570E0
4.448959639E0,3.906738281E0,9.086837769E0,-6.574600220E0
4.453964522E0,4.483734131E0,8.763626099E0,-6.476440430E0
4.458969405E0,5.122985840E0,8.378158569E0,-6.459671021E0
4.463974288E0,5.781402588E0,7.973541260E0,-6.651214600E0
4.468979170E0,6.425445557E0,7.525817871E0,-6.876266479E0
4.473984053E0,6.961746216E0,7.075714111E0,-7.070190430E0
4.478988936E0,7.205947876E0,6.592086792E0,-7.192306519E0
4.483993819E0,7.126937866E0,6.194641113E0,-7.244964600E0
4.488998702E0,6.612182617E0,5.861846924E0,-7.343139648E0
4.494003584E0,5.743087769E0,5.658340454E0,-7.520309448E0
4.499008467E0,4.608245850E0,5.552993774E0,-7.675933838E0
4.504013350E0,3.559585571E0,5.471588135E0,-7.632827759E0
4.509018233E0,2.781463623E0,5.514694214E0,-7.391021729E0
4.514023116E0,2.621047974E0,5.857055664E0,-7.127655029E0
4.519027998E0,2.977783203E0,6.302383423E0,-6.644027710E0
4.524032881E0,3.279464722E0,6.620803833E0,-5.949707031E0
4.529037764E0,3.528457642E0,6.967971802E0,-5.248214722E0
4.534042647E0,3.904342651E0,7.377380371E0,-4.814849854E0
4.539047530E0,4.409515381E0,7.691024780E0,-4.312072754E0
4.544052413E0,5.032012939E0,7.851425171E0,-3.976882935E0
4.549057295E0,5.788574219E0,7.839462280E0,-3.864364624E0
4.554062178E0,6.415863037E0,7.614410400E0,-3.957733154E0
4.559067061E0,6.595428467E0,7.446807861E0,-4.381500244E0
4.564071944E0,6.377548218E0,7.358230591E0,-5.049484253E0
4.569076827E0,5.963363647E0,7.336669922E0,-5.882675171E0
4.574081709E0,5.412689209E0,7.334289551E0,-6.739791870E0
4.579086592E0,4.783020020E0,7.200210571E0,-7.225814819E0
4.584091475E0,4.122222900E0,6.915298462E0,-7.252151489E0
4.589096358E0,3.394378662E0,6.639968872E0,-6.639236450E0
4.594101241E0,2.494155884E0,6.321533203E0,-5.181167603E0
4.599106123E0,1.852508545E0,6.297592163E0,-3.905059814E0
4.604111006E0,1.819000244E0,6.498703003E0,-3.138916016E0
4.609115889E0,2.161361694E0,6.359848022E0,-2.011245728E0
4.614120772E0,2.870056152E0,6.225769043E0,-1.245101929E0
4.619125655E0,3.787033081E0,6.218582153E0,-1.259460449E0
4.624130538E0,4.577117920E0,6.118026733E0,-1.307357788E0
4.629135420E0,5.429443359E0,6.493911743E0,-1.917877197E0
4.634140303E0,6.399108887E0,7.066131592E0,-2.990478516E0
4.639145186E0,7.373535156E0,7.525817871E0,-3.984069824E0
4.644150069E0,8.010406494E0,7.590454102E0,-4.757400513E0
4.649154952E0,8.434173584E0,7.590454102E0,-5.810852051E0
4.654159834E0,8.647262573E0,7.473144531E0,-7.139633179E0
4.659164717E0,8.795700073E0,7.310333252E0,-8.166732788E0
4.664169600E0,8.754989624E0,7.130767822E0,-8.837112427E0
4.669174483E0,8.496429443E0,6.860229492E0,-9.213012695E0
4.674179366E0,7.991241455E0,6.503494263E0,-9.323135376E0
4.679184248E0,7.390304565E0,6.232955933E0,-9.251312256E0
4.684189131E0,6.834854126E0,5.938461304E0,-8.782043457E0
4.689194014E0,6.310516357E0,5.572143555E0,-7.920135498E0
4.694198897E0,5.699996948E0,5.124435425E0,-6.888229370E0
4.699203780E0,5.070327759E0,4.724609375E0,-6.047866821E0
4.704208663E0,4.536407471E0,4.413360596E0,-5.300872803E0
4.709213545E0,4.251510620E0,4.212249756E0,-4.685577393E0
4.714218428E0,4.273056030E0,4.171539307E0,-4.268981934E0
4.719223311E0,4.466979980E0,4.164352417E0,-3.952941895E0
4.724228194E0,4.780624390E0,4.212249756E0,-3.773376465E0
4.729233077E0,5.249893188E0,4.348709106E0,-3.838027954E0
4.734237959E0,5.786193848E0,4.647994995E0,-4.094207764E0
4.739242842E0,6.375167847E0,5.136398315E0,-4.527557373E0
4.744247725E0,6.863571167E0,5.440475464E0,-4.953720093E0
4.749252608E0,7.249038696E0,5.780441284E0,-5.566635132E0
4.754257491E0,7.407058716E0,6.120422363E0,-6.289688110E0
4.759262373E0,7.268203735E0,6.503494263E0,-6.943298340E0
4.764267256E0,6.947372437E0,6.876983643E0,-7.388626099E0
4.769272139E0,6.205169678E0,6.946426392E0,-7.611282349E0
4.774277022E0,5.185241699E0,6.654327393E0,-7.654373169E0
4.779281905E0,4.033630371E0,5.924102783E0,-7.309616089E0
4.784286788E0,3.231567383E0,5.469192505E0,-6.567413330E0
4.789261153E0,2.759918213E0,5.339904785E0,-5.691131592E0
4.794266036E0,2.369659424E0,5.165130615E0,-4.577835083E0
4.799270918E0,2.486984253E0,5.236968994E0,-3.189193726E0
4.804275801E0,3.087921143E0,5.275268555E0,-1.740707397E0
4.809280684E0,4.071945190E0,5.229782104E0,-1.132568359E0
4.814285567E0,5.041595459E0,5.174713135E0,-4.023437500E-1
4.819290450E0,5.922653198E0,4.846710205E0,5.553436279E-1
4.824295332E0,7.143692017E0,5.112457275E0,1.077270508E0
4.829300215E0,7.790130615E0,4.849105835E0,1.381332397E0
4.834305098E0,8.405441284E0,5.052612305E0,1.259231567E0
4.839309981E0,8.618530273E0,5.208236694E0,5.457611084E-1
4.844314864E0,8.331222534E0,5.086120605E0,-7.399291992E-1
4.849319747E0,7.842803955E0,4.590530396E0,-2.121383667E0
4.854324629E0,8.173202515E0,4.904174805E0,-3.699157715E0
4.859329512E0,8.836395264E0,5.473983765E0,-5.092590332E0
4.864334395E0,9.236236572E0,5.722991943E0,-6.225036621E0
4.869339278E0,9.406219482E0,5.782836914E0,-7.256942749E0
4.874344161E0,9.272140503E0,5.603271484E0,-7.912948608E0
4.879349043E0,9.341583252E0,5.610458374E0,-8.245742798E0
4.884353926E0,9.401428223E0,5.524261475E0,-8.006332397E0
4.889358809E0,9.377487183E0,5.284851074E0,-7.304824829E0
4.894363692E0,9.195526123E0,4.913742065E0,-6.347152710E0
4.899368575E0,8.913009644E0,4.542648315E0,-5.365524292E0
4.904373457E0,8.558670044E0,4.197875977E0,-4.381500244E0
4.909378340E0,8.137298584E0,3.891418457E0,-3.464523315E0
4.914383223E0,7.739852905E0,3.716644287E0,-2.755844116E0
4.919388106E0,7.438186646E0,3.707061768E0,-2.348831177E0
4.924392989E0,7.294540405E0,3.879455566E0,-2.214752197E0
4.929397872E0,7.354385376E0,4.248153687E0,-2.322494507E0
4.934402754E0,7.560287476E0,4.748550415E0,-2.597824097E0
4.939407637E0,7.842803955E0,5.296813965E0,-3.076660156E0
4.944412520E0,8.082229614E0,5.744537354E0,-3.732681274E0
4.949417403E0,8.292922974E0,6.017471313E0,-4.367141724E0
4.954422286E0,8.484451294E0,6.192245483E0,-4.857955933E0
4.959427168E0,8.685562134E0,6.436462402E0,-5.276931763E0
4.964432051E0,8.886672974E0,6.728546143E0,-5.533111572E0
4.969436934E0,9.212295532E0,7.054153442E0,-5.669586182E0
4.974441817E0,9.590576172E0,7.281616211E0,-5.681564331E0
4.979446700E0,9.937728882E0,7.394134521E0,-5.561843872E0
4.984451582E0,1.024897766E1,7.377380371E0,-5.346374512E0
4.989456465E0,1.041178894E1,7.193023682E0,-5.078216553E0
4.994461348E0,1.033996582E1,6.836288452E0,-4.793304443E0
4.999466231E0,1.001434326E1,6.326324463E0,-4.527557373E0
5.004471114E0,9.583389282E0,5.770874023E0,-4.216308594E0
5.009475997E0,9.147644043E0,5.244140625E0,-3.842803955E0
5.014480879E0,8.810058594E0,4.798828125E0,-3.519592285E0
5.019485762E0,8.654434204E0,4.463638306E0,-3.098220825E0
5.024490645E0,8.508392334E0,4.281677246E0,-2.638534546E0
5.029495528E0,8.273757935E0,4.195480347E0,-2.375167847E0
5.034500411E0,7.967300415E0,4.195480347E0,-2.305740356E0
5.039505293E0,7.581832886E0,4.209854126E0,-2.344039917E0
5.044510176E0,7.146087646E0,4.221817017E0,-2.442199707E0
5.049515059E0,6.695983887E0,4.298431396E0,-2.640914917E0
5.054519942E0,6.267425537E0,4.391815186E0,-2.877944946E0
5.059524825E0,5.908294678E0,4.444473267E0,-3.000045776E0
5.064529707E0,5.656906128E0,4.506729126E0,-2.956954956E0
5.069534590E0,5.498886108E0,4.636016846E0,-2.882736206E0
5.074539473E0,5.434234619E0,4.858673096E0,-2.839645386E0
5.079544356E0,5.465362549E0,5.153167725E0,-2.825271606E0
5.084549239E0,5.558731079E0,5.440475464E0,-2.748657227E0
5.089554122E0,5.786193848E0,5.761291504E0,-2.616973877E0
5.094559004E0,6.176437378E0,6.115631104E0,-2.435012817E0
5.099563887E0,6.571487427E0,6.357452393E0,-2.284179688E0
5.104568770E0,6.870758057E0,6.424484253E0,-2.174057007E0
5.109573653E0,7.023986816E0,6.299987793E0,-1.946609497E0
5.114578536E0,7.045532227E0,6.077331543E0,-1.637756348E0
5.119583418E0,6.935409546E0,5.775650024E0,-1.587478638E0
5.124588301E0,6.684005737E0,5.330337524E0,-1.439025879E0
5.129593184E0,6.253051758E0,4.518707275E0,-1.522827148E0
5.134598067E0,5.630569458E0,3.453277588E0,-2.006454468E0
5.139602950E0,5.020034790E0,2.524337769E0,-2.684020996E0
5.144607832E0,4.737533569E0,2.086196899E0,-3.342422485E0
5.149582198E0,4.962585449E0,2.134078979E0,-3.964920044E0
5.154587081E0,5.451004028E0,2.457290649E0,-4.642471313E0
5.159591963E0,5.987304688E0,2.902618408E0,-5.262573242E0
5.164596846E0,6.427825928E0,3.362304688E0,-5.796478271E0
5.169601729E0,6.640914917E0,3.762130737E0,-6.304046631E0
5.174606612E0,6.684005737E0,4.102111816E0,-6.754165649E0
5.179611495E0,6.693588257E0,4.439697266E0,-7.077377319E0
5.184616377E0,6.664855957E0,4.729385376E0,-7.254547119E0
5.189621260E0,6.549942017E0,4.911346436E0,-7.400588989E0
5.194626143E0,6.458953857E0,5.004730225E0,-7.493972778E0
5.199631026E0,6.681625366E0,5.308792114E0,-7.206665039E0
5.204635909E0,6.990463257E0,5.529052734E0,-6.751770020E0
5.209640791E0,7.699157715E0,5.981552124E0,-5.997589111E0
5.214645674E0,8.321640015E0,6.417297363E0,-5.588180542E0
5.219650557E0,8.750213623E0,6.769256592E0,-5.561843872E0
5.224655440E0,8.956115723E0,6.915298462E0,-5.614517212E0
5.229660323E0,8.728668213E0,6.759674072E0,-5.815628052E0
5.234665206E0,8.278549194E0,6.417297363E0,-5.897033691E0
5.239670088E0,7.610565186E0,5.878601074E0,-5.806060791E0
5.244674971E0,6.858795166E0,5.232177734E0,-5.525939941E0
5.249679854E0,6.078277588E0,4.523483276E0,-5.470870972E0
5.254684737E0,5.613800049E0,3.776504517E0,-5.284118652E0
5.259689620E0,5.422271729E0,3.230621338E0,-4.982452393E0
5.264694502E0,5.676055908E0,3.156402588E0,-4.532348633E0
5.269699385E0,6.269821167E0,3.594543457E0,-3.859573364E0
5.274704268E0,6.961746216E0,4.370254517E0,-3.174835205E0
5.279709151E0,7.510009766E0,5.210632324E0,-2.547546387E0
5.284714034E0,8.283340454E0,6.096481323E0,-1.939422607E0
5.289718916E0,8.829223633E0,6.668701172E0,-1.398330688E0
5.294723799E0,9.037506104E0,6.908111572E0,-1.039199829E0
5.299728682E0,9.051879883E0,6.903320312E0,-6.968231201E-1
5.304733565E0,8.920196533E0,6.833892822E0,-5.412139893E-1
5.309738448E0,8.678375244E0,6.726150513E0,-4.382629395E-1
5.314743331E0,8.319259644E0,6.735733032E0,-8.141479492E-1
5.319748213E0,7.976882935E0,6.915298462E0,-1.405517578E0
5.324753096E0,7.634506226E0,7.343856812E0,-2.265029907E0
5.329757979E0,7.253829956E0,8.062118530E0,-3.373550415E0
5.334762862E0,6.803726196E0,8.679824829E0,-4.561065674E0
5.339767745E0,6.502059937E0,9.264007568E0,-5.719863892E0
5.344772627E0,6.329666138E0,9.821853638E0,-6.581771851E0
5.349777510E0,6.320098877E0,1.037969971E1,-7.446090698E0
5.354782393E0,6.435012817E0,1.043716431E1,-8.262512207E0
5.359787276E0,6.509231567E0,9.927200317E0,-8.080551147E0
5.364792159E0,6.528396606E0,9.206542969E0,-6.998367310E0
5.369797041E0,6.585845947E0,8.622360229E0,-5.576217651E0
5.374801924E0,6.605010986E0,8.232101440E0,-4.257003784E0
5.379806807E0,6.609786987E0,7.992691040E0,-3.112579346E0
5.384811690E0,6.597824097E0,7.894531250E0,-2.121383667E0
5.389816573E0,6.351211548E0,7.741302490E0,-1.429458618E0
5.394821456E0,5.934631348E0,7.427658081E0,-8.021697998E-1
5.399826338E0,5.412689209E0,6.836288452E0,-3.736114502E-1
5.404831221E0,6.109405518E0,7.216964722E0,-2.323608398E-1
5.409836104E0,5.987304688E0,6.939239502E0,-1.314529419E0
5.414840987E0,5.546768188E0,6.527435303E0,-2.073501587E0
5.419845870E0,5.283401489E0,6.256896973E0,-2.111801147E0
5.424850752E0,5.316925049E0,6.120422363E0,-1.697601318E0
5.429855635E0,6.272216797E0,6.627990723E0,-4.358673096E-1
5.434860518E0,7.392700195E0,7.030212402E0,-1.027236938E0
5.439865401E0,7.976882935E0,6.797973633E0,-1.484527588E0
5.444870284E0,9.061462402E0,7.389343262E0,-2.059127808E0
5.449875166E0,9.389465332E0,7.142745972E0,-2.430236816E0
5.454880049E0,9.039901733E0,6.276046753E0,-2.944992065E0
5.459884932E0,8.295303345E0,5.256118774E0,-3.600997925E0
5.464889815E0,7.340026855E0,4.269699097E0,-4.352783203E0
5.469894698E0,6.382339478E0,3.479614258E0,-5.248214722E0
5.474899581E0,5.541976929E0,2.943313599E0,-6.126876831E0
5.479904463E0,4.840484619E0,2.615310669E0,-6.790069580E0
5.484909346E0,4.545989990E0,2.632064819E0,-7.213851929E0
5.489914229E0,4.625000000E0,2.806838989E0,-7.417358398E0
5.494919112E0,5.242706299E0,3.493988037E0,-7.374252319E0
5.499923995E0,5.568313599E0,4.207458496E0,-7.769302368E0
5.504928877E0,5.688018799E0,4.779663086E0,-8.166732788E0
5.509933760E0,5.707183838E0,5.184295654E0,-8.049423218E0
5.514938643E0,5.606628418E0,5.378219604E0,-7.266525269E0
5.519943526E0,5.616195679E0,5.387802124E0,-6.229827881E0
5.524948409E0,5.393539429E0,5.119644165E0,-5.063858032E0
5.529953291E0,5.132568359E0,4.705444336E0,-4.046325684E0
5.534958174E0,4.756683350E0,4.202667236E0,-3.182006836E0
5.539963057E0,4.232345581E0,3.632843018E0,-2.403900146E0
5.544967940E0,3.640975952E0,2.984024048E0,-1.676055908E0
5.549972823E0,3.236358643E0,2.500381470E0,-1.024841309E0
5.554977706E0,3.159744263E0,2.275329590E0,-7.207794189E-1
5.559982588E0,3.260299683E0,2.198715210E0,-8.692169189E-1
5.564987471E0,3.439865112E0,2.169982910E0,-1.383972168E0
5.569992354E0,3.571548462E0,2.155624390E0,-2.269821167E0
5.574997237E0,3.729568481E0,2.093368530E0,-3.584243774E0
5.580002120E0,3.894760132E0,1.968872070E0,-5.128494263E0
5.585007002E0,4.040817261E0,1.770156860E0,-6.387847900E0
5.590011885E0,4.268264771E0,1.734237671E0,-7.347915649E0
5.595016768E0,4.548385620E0,1.906631470E0,-8.097305298E0
5.600021651E0,5.089477539E0,2.397445679E0,-8.487564087E0
5.605026534E0,5.793365479E0,3.101333618E0,-8.633605957E0
5.610031416E0,6.664855957E0,4.013519287E0,-8.363067627E0
5.615036299E0,7.723098755E0,5.062179565E0,-7.683105469E0
5.620041182E0,8.587402344E0,5.960006714E0,-7.053436279E0
5.625046065E0,9.056671143E0,6.601654053E0,-6.476440430E0
5.630050948E0,9.219467163E0,6.754882812E0,-5.983230591E0
5.635055831E0,9.248199463E0,6.587295532E0,-5.779724121E0
5.640060713E0,9.243408203E0,6.402938843E0,-5.762954712E0
5.645065596E0,9.355941772E0,6.498703003E0,-6.071807861E0
5.650070479E0,9.501983643E0,6.742919922E0,-6.620086670E0
5.655075362E0,9.480438232E0,6.893753052E0,-7.254547119E0
5.660080245E0,9.303268433E0,6.960784912E0,-7.845916748E0
5.665054610E0,9.071029663E0,7.125991821E0,-7.872253418E0
5.670059493E0,8.920196533E0,7.403717041E0,-7.527481079E0
5.675064375E0,8.723876953E0,7.592849731E0,-6.778106689E0
5.680069258E0,8.434173584E0,7.566513062E0,-5.865905762E0
5.685074141E0,8.211517334E0,7.554550171E0,-4.635284424E0
5.690079024E0,7.713516235E0,7.255279541E0,-3.706344604E0
5.695083907E0,7.196365356E0,6.802764893E0,-2.956954956E0
5.700088789E0,6.842025757E0,6.429275513E0,-2.140533447E0
5.705093672E0,6.624160767E0,6.228164673E0,-1.518035889E0
5.710098555E0,6.581054688E0,6.326324463E0,-1.130172729E0
5.715103438E0,6.892303467E0,6.817138672E0,-1.091873169E0
5.720108321E0,7.170028687E0,7.355834961E0,-1.565917969E0
5.725113204E0,7.155670166E0,7.621582031E0,-2.518814087E0
5.730118086E0,6.992858887E0,7.837066650E0,-3.603393555E0
5.735122969E0,6.786956787E0,8.045364380E0,-4.666412354E0
5.740127852E0,6.585845947E0,8.153106689E0,-5.604949951E0
5.745132735E0,6.363189697E0,8.153106689E0,-6.289688110E0
5.750137618E0,6.071090698E0,8.110000610E0,-6.541076660E0
5.755142500E0,5.846038818E0,7.959167480E0,-6.232223511E0
5.760147383E0,5.711959839E0,7.635955811E0,-5.628890991E0
5.765152266E0,5.642532349E0,7.183441162E0,-4.783737183E0
5.770157149E0,5.656906128E0,6.742919922E0,-3.828445435E0
5.775162032E0,5.714355469E0,6.386184692E0,-2.916259766E0
5.780166914E0,5.795761108E0,6.127609253E0,-2.133346558E0
5.785171797E0,5.901107788E0,5.960006714E0,-1.656906128E0
5.790176680E0,5.850830078E0,5.809173584E0,-1.462966919E0
5.795181563E0,5.637741089E0,5.696655273E0,-1.563537598E0
5.800186446E0,5.295379639E0,5.567367554E0,-1.752670288E0
5.805191329E0,5.060745239E0,5.462020874E0,-1.953781128E0
5.810196211E0,5.122985840E0,5.442855835E0,-2.059127808E0
5.815201094E0,5.101440430E0,5.500320435E0,-2.420654297E0
5.820205977E0,4.850051880E0,5.639190674E0,-2.856399536E0
5.825210860E0,4.620208740E0,5.816360474E0,-3.122161865E0
5.830215743E0,4.562744141E0,5.952835083E0,-3.208343506E0
5.835220625E0,4.699218750E0,6.185058594E0,-3.253829956E0
5.840225508E0,4.869201660E0,6.496307373E0,-3.428619385E0
5.845230391E0,5.082290649E0,6.955993652E0,-3.634521484E0
5.850235274E0,5.307342529E0,7.559341431E0,-3.799713135E0
5.855240157E0,5.573104858E0,8.095642090E0,-3.828445435E0
5.860245039E0,5.788574219E0,8.358993530E0,-3.742248535E0
5.865249922E0,5.781402588E0,8.478713989E0,-3.574661255E0
5.870254805E0,5.620986938E0,8.619964600E0,-3.402282715E0
5.875259688E0,5.314529419E0,8.694183350E0,-3.208343506E0
5.880264571E0,4.902725220E0,8.615173340E0,-3.057510376E0
5.885269454E0,4.517257690E0,8.488281250E0,-2.956954956E0
5.890274336E0,4.289810181E0,8.375762939E0,-2.892318726E0
5.895279219E0,4.256286621E0,8.284774780E0,-2.679229736E0
5.900284102E0,4.469375610E0,8.600814819E0,-2.763031006E0
5.905288985E0,4.852447510E0,9.194580078E0,-3.215530396E0
5.910293868E0,5.194824219E0,9.915237427E0,-3.852386475E0
5.915298750E0,5.443817139E0,1.067179871E1,-4.259399414E0
5.920303633E0,5.917861938E0,1.147146606E1,-4.352783203E0
5.925308516E0,6.303329468E0,1.214662170E1,-4.472488403E0
5.930313399E0,6.703170776E0,1.243632507E1,-4.235458374E0
5.935318282E0,7.150878906E0,1.269969177E1,-3.967315674E0
5.940323164E0,7.433395386E0,1.292713928E1,-3.675216675E0
5.945328047E0,7.469314575E0,1.303248596E1,-3.500442505E0
5.950332930E0,7.289749146E0,1.294868469E1,-3.383117676E0
5.955337813E0,6.818084717E0,1.250335693E1,-3.268203735E0
5.960342696E0,6.068695068E0,1.158877563E1,-3.205947876E0
5.965347579E0,5.156509399E0,1.009957886E1,-3.392700195E0
5.970352461E0,4.182067871E0,8.203384399E0,-3.476501465E0
5.975357344E0,3.494934082E0,6.460403442E0,-3.747039795E0
5.980362227E0,2.807800293E0,4.877838135E0,-4.288131714E0
5.985367110E0,2.063201904E0,3.747772217E0,-5.162017822E0
5.990371993E0,1.620269775E0,2.964859009E0,-6.155609131E0
5.995376875E0,1.251571655E0,2.330398560E0,-7.043853760E0
6.000381758E0,1.440704346E0,1.861129761E0,-7.237792969E0
6.005386641E0,1.771102905E0,1.458908081E0,-7.266525269E0
6.010361006E0,2.321777344E0,1.123718262E0,-6.936126709E0
6.015365889E0,2.862869263E0,5.682678223E-1,-6.126876831E0
6.020370772E0,3.327346802E0,3.575744629E-1,-5.336791992E0
6.025375655E0,4.143768311E0,9.680938721E-1,-4.721481323E0
6.030380538E0,4.885971069E0,2.256179810E0,-4.288131714E0
6.035385420E0,5.573104858E0,3.654388428E0,-3.845199585E0
6.040390303E0,5.451004028E0,4.597702026E0,-3.881118774E0
6.045395186E0,4.945816040E0,5.026275635E0,-3.775772095E0
6.050400069E0,4.335296631E0,4.983169556E0,-3.639297485E0
6.055404952E0,3.655349731E0,4.940078735E0,-3.651275635E0
6.060409834E0,3.119049072E0,5.057403564E0,-3.703948975E0
6.065414717E0,2.929901123E0,5.294418335E0,-3.988861084E0
6.070419600E0,3.052001953E0,5.612854004E0,-4.273773193E0
6.075424483E0,3.243545532E0,5.926498413E0,-4.596984863E0
6.080429366E0,3.530853271E0,6.328720093E0,-5.257781982E0
6.085434248E0,3.693649292E0,6.436462402E0,-5.966461182E0
6.090439131E0,3.803787231E0,6.505889893E0,-6.632049561E0
6.095444014E0,4.012084961E0,6.515472412E0,-7.194686890E0
6.100448897E0,4.325729370E0,6.608840942E0,-7.721420288E0
6.105453780E0,4.596267700E0,6.726150513E0,-8.023086548E0
6.110458663E0,4.407119751E0,6.826705933E0,-8.250534058E0
6.115463545E0,3.954620361E0,7.090072632E0,-8.322357178E0
6.120468428E0,3.399169922E0,7.470748901E0,-8.363067627E0
6.125473311E0,2.913146973E0,7.947204590E0,-7.941680908E0
6.130478194E0,2.542037964E0,8.548141479E0,-7.082168579E0
6.135483077E0,2.431915283E0,9.307098389E0,-5.949707031E0
6.140487959E0,2.707244873E0,1.014028931E1,-4.479675293E0
6.145492842E0,3.279464722E0,1.089685059E1,-3.026382446E0
6.150497725E0,3.980957031E0,1.139485168E1,-1.661697388E0
6.155502608E0,4.759078979E0,1.139245605E1,-5.268402100E-1
6.160507491E0,5.455780029E0,1.088009644E1,3.590087891E-1
6.165512373E0,6.197982788E0,1.013070679E1,-1.126403809E-1
6.170517256E0,5.905899048E0,9.948745728E0,-1.848434448E0
6.175522139E0,5.106231689E0,9.963119507E0,-3.414245605E0
6.180527022E0,4.907516479E0,9.601593018E0,-4.470092773E0
6.185531905E0,5.446212769E0,9.024581909E0,-5.106948853E0
6.190536788E0,6.219543457E0,8.438003540E0,-5.245819092E0
6.195541670E0,6.597824097E0,7.798751831E0,-5.147644043E0
6.200546553E0,6.353607178E0,7.276824951E0,-4.924987793E0
6.205551436E0,5.525222778E0,6.944030762E0,-4.946533203E0
6.210556319E0,4.395156860E0,6.855438232E0,-5.061462402E0
6.215561202E0,3.391983032E0,7.042190552E0,-4.975265503E0
6.220566084E0,2.755126953E0,7.315124512E0,-4.958511353E0
6.225570967E0,2.429519653E0,7.691024780E0,-4.762191772E0
6.230575850E0,2.419937134E0,8.186614990E0,-4.506011963E0
6.235580733E0,2.616256714E0,8.789962769E0,-4.230667114E0
6.240585616E0,2.951446533E0,9.340621948E0,-4.031951904E0
6.245590498E0,3.334518433E0,9.644683838E0,-3.981674194E0
6.250595381E0,3.818145752E0,9.603988647E0,-4.046325684E0
6.255600264E0,4.445434570E0,9.237670898E0,-4.000823975E0
6.260605147E0,5.209182739E0,8.667846680E0,-3.869140625E0
6.265610030E0,5.721542358E0,7.971145630E0,-3.806900024E0
6.270614913E0,5.733520508E0,7.245697021E0,-3.893081665E0
6.275619795E0,5.235519409E0,6.525039673E0,-4.206726074E0
6.280624678E0,4.423889160E0,5.995925903E0,-4.577835083E0
6.285629561E0,3.499725342E0,5.859451294E0,-4.661621094E0
6.290634444E0,2.810195923E0,6.328720093E0,-4.501220703E0
6.295639327E0,2.352905273E0,7.068527222E0,-4.225875854E0
6.300644209E0,2.087142944E0,7.853820801E0,-4.101379395E0
6.305649092E0,1.986587524E0,8.404495239E0,-3.876327515E0
6.310653975E0,1.907577515E0,8.629547119E0,-4.017593384E0
6.315658858E0,1.821395874E0,8.675033569E0,-4.247436523E0
6.320663741E0,1.888427734E0,8.708557129E0,-4.649658203E0
6.325668623E0,2.151794434E0,8.672637939E0,-4.886688232E0
6.330673506E0,2.680908203E0,8.509841919E0,-5.142868042E0
6.335678389E0,3.087921143E0,8.368576050E0,-5.396652222E0
6.340683272E0,3.375228882E0,8.519409180E0,-5.715072632E0
6.345688155E0,3.617034912E0,9.146697998E0,-6.011962891E0
6.350693038E0,4.021667480E0,1.000141907E1,-5.952102661E0
6.355697920E0,4.466979980E0,1.077954102E1,-5.554672241E0
6.360702803E0,4.562744141E0,1.108599854E1,-4.625717163E0
6.365707686E0,4.265869141E0,1.116021729E1,-3.603393555E0
6.370712569E0,3.820541382E0,1.088488770E1,-2.822875977E0
6.375717452E0,3.427902222E0,1.026957703E1,-2.332077026E0
6.380722334E0,3.097503662E0,9.457946777E0,-2.063919067E0
6.385727217E0,2.795822144E0,8.665451050E0,-1.922668457E0
6.390732100E0,2.482192993E0,7.968750000E0,-2.004058838E0
6.395736983E0,2.264312744E0,7.530609131E0,-2.190811157E0
6.400741866E0,2.271499634E0,7.612014771E0,-2.209960938E0
6.405746748E0,2.484588623E0,8.095642090E0,-2.267425537E0
6.410751631E0,2.937088013E0,8.658279419E0,-2.121383667E0
6.415756514E0,3.449447632E0,9.182601929E0,-1.714370728E0
6.420761397E0,3.808578491E0,9.481887817E0,-1.240310669E0
6.425766280E0,3.983352661E0,9.493850708E0,-8.955535889E-1
6.430771163E0,4.100662231E0,9.216125488E0,-8.069610596E-1
6.435776045E0,4.263473511E0,8.813903809E0,-8.644256592E-1
6.440780928E0,4.261077881E0,8.464340210E0,-1.003280640E0
6.445785811E0,4.117431641E0,8.387725830E0,-1.178070068E0
6.450790694E0,3.875610352E0,8.572082520E0,-1.304962158E0
6.455795577E0,3.559585571E0,9.043746948E0,-1.348052979E0
6.460800459E0,3.152557373E0,9.603988647E0,-1.412689209E0
6.465805342E0,2.719207764E0,1.017619324E1,-1.242706299E0
6.470810225E0,2.422332764E0,1.071011353E1,-1.022445679E0
6.475815108E0,2.044052124E0,1.113867188E1,-8.093566895E-1
6.480819991E0,1.488601685E0,1.122247314E1,-8.069610596E-1
6.485824873E0,9.882049561E-1,1.108360291E1,-9.697723389E-1
6.490829756E0,6.937255859E-1,1.078672791E1,-1.371994019E0
6.495834639E0,6.003417969E-1,1.035815430E1,-1.793380737E0
6.500839522E0,7.056884766E-1,9.924804688E0,-2.130950928E0
6.505844405E0,1.002578735E0,9.642288208E0,-2.356018066E0
6.510849288E0,1.320999146E0,9.572860718E0,-2.607406616E0
6.515854170E0,1.653793335E0,9.728485107E0,-2.830062866E0
6.520859053E0,1.931518555E0,1.007324219E1,-3.050323486E0
6.525833418E0,2.137420654E0,1.041082764E1,-3.043151855E0
6.530838301E0,2.197280884E0,1.071488953E1,-3.086242676E0
6.535843184E0,2.067993164E0,1.092318726E1,-3.107788086E0
6.540848067E0,1.790267944E0,1.099740601E1,-3.100601196E0
6.545852950E0,1.383255005E0,1.088009644E1,-3.014419556E0
6.550857832E0,1.012145996E0,1.067179871E1,-2.839645386E0
6.555862715E0,8.110351562E-1,1.039646912E1,-2.597824097E0
6.560867598E0,8.493499756E-1,1.012113953E1,-2.456573486E0
6.565872481E0,7.176666260E-1,9.797912598E0,-2.576278687E0
6.570877364E0,4.566955566E-1,9.388504028E0,-2.961746216E0
6.575882247E0,2.292480469E-1,9.026977539E0,-3.311294556E0
6.580887129E0,2.148742676E-1,8.892913818E0,-3.411849976E0
6.585892012E0,2.723388672E-1,8.840240479E0,-3.055114746E0
6.590896895E0,3.513488770E-1,8.833053589E0,-2.487686157E0
6.595901778E0,3.274078369E-1,8.852203369E0,-1.817321777E0
6.600906661E0,3.321990967E-1,8.871353149E0,-1.252288818E0
6.605911543E0,3.441619873E-1,8.873748779E0,-7.758331299E-1
6.610916426E0,3.561401367E-1,8.883331299E0,-5.531768799E-1
6.615921309E0,3.393707275E-1,8.854598999E0,-7.088012695E-1
6.620926192E0,4.830322266E-1,8.871353149E0,-1.055953979E0
6.625931075E0,6.625976562E-1,8.876144409E0,-1.494094849E0
6.630935957E0,8.589172363E-1,8.861785889E0,-1.963363647E0
6.635940840E0,1.131851196E0,8.859390259E0,-2.379959106E0
6.640945723E0,1.320999146E0,8.797134399E0,-2.691192627E0
6.645950606E0,1.502960205E0,8.703765869E0,-2.801330566E0
6.650955489E0,1.526901245E0,8.552932739E0,-2.777389526E0
6.655960372E0,1.512542725E0,8.416458130E0,-2.789367676E0
6.660965254E0,1.464645386E0,8.370971680E0,-2.863586426E0
6.665970137E0,1.459869385E0,8.435607910E0,-2.875549316E0
6.670975020E0,1.433532715E0,8.591232300E0,-2.794143677E0
6.675979903E0,1.404800415E0,8.799530029E0,-2.614578247E0
6.680984786E0,1.546051025E0,8.914459229E0,-2.114196777E0
6.685989668E0,1.670547485E0,9.086837769E0,-1.874771118E0
6.690994551E0,1.730407715E0,9.335830688E0,-1.903503418E0
6.695999434E0,1.828567505E0,9.539337158E0,-2.123779297E0
6.701004317E0,1.857299805E0,9.632720947E0,-2.482910156E0
6.706009200E0,1.888427734E0,9.615951538E0,-2.937805176E0
6.711014082E0,1.907577515E0,9.489059448E0,-3.397491455E0
6.716018965E0,1.898010254E0,9.287948608E0,-3.708740234E0
6.721023848E0,1.955459595E0,9.029373169E0,-3.792526245E0
6.726028731E0,2.020111084E0,8.761230469E0,-3.739852905E0
6.731033614E0,2.079956055E0,8.545745850E0,-3.538742065E0
6.736038497E0,2.091934204E0,8.519409180E0,-3.129333496E0
6.741043379E0,1.948287964E0,8.663070679E0,-2.660079956E0
6.746048262E0,1.553237915E0,8.859390259E0,-2.286575317E0
6.751053145E0,1.043273926E0,9.053314209E0,-1.982513428E0
6.756058028E0,6.314697266E-1,9.252044678E0,-1.826889038E0
6.761062911E0,3.657073975E-1,9.369354248E0,-1.826889038E0
6.766067793E0,1.933288574E-1,9.381332397E0,-1.932235718E0
6.771072676E0,1.239013672E-1,9.345413208E0,-2.111801147E0
6.776077559E0,1.358642578E-1,9.328659058E0,-2.272216797E0
6.781082442E0,2.795257568E-1,9.374145508E0,-2.372772217E0
6.786087325E0,5.141601562E-1,9.443572998E0,-2.420654297E0
6.791092207E0,7.799072266E-1,9.541732788E0,-2.351226807E0
6.796097090E0,1.036087036E0,9.666229248E0,-2.164474487E0
6.801101973E0,1.095947266E0,9.776367188E0,-1.903503418E0
6.806106856E0,1.021728516E0,9.867355347E0,-1.616210938E0
6.811111739E0,7.440032959E-1,9.934387207E0,-1.328903198E0
6.816116622E0,4.136047363E-1,9.955932617E0,-1.072723389E0
6.821121504E0,1.615905762E-2,9.939178467E0,-9.553985596E-1
6.826126387E0,-3.573303223E-1,9.891296387E0,-9.745635986E-1
6.831131270E0,-7.332305908E-1,9.797912598E0,-1.089477539E0
6.836136153E0,-1.075592041E0,9.752426147E0,-1.348052979E0
6.841141036E0,-1.353317261E0,9.690170288E0,-1.719146729E0
6.846145918E0,-1.528106689E0,9.649475098E0,-2.142929077E0
6.851150801E0,-1.592742920E0,9.647079468E0,-2.576278687E0
6.856155684E0,-1.528106689E0,9.649475098E0,-3.002441406E0
6.861160567E0,-1.350921631E0,9.671020508E0,-3.385513306E0
6.866165450E0,-1.056442261E0,9.680603027E0,-3.756622314E0
6.871170332E0,-6.302795410E-1,9.632720947E0,-4.098983765E0
6.876144698E0,-2.280426025E-1,9.577651978E0,-4.218704224E0
6.881149581E0,1.071472168E-1,9.522583008E0,-4.005615234E0
6.886154463E0,2.603759766E-1,9.532165527E0,-3.653671265E0
6.891159346E0,2.603759766E-1,9.615951538E0,-3.340026855E0
6.896164229E0,2.962799072E-1,9.716506958E0,-3.174835205E0
6.901169112E0,3.920440674E-1,9.699752808E0,-2.944992065E0
6.906173995E0,5.165557861E-1,9.546524048E0,-2.751052856E0
6.911178877E0,6.218872070E-1,9.381332397E0,-2.616973877E0
6.916183760E0,7.655487061E-1,9.273590088E0,-2.413467407E0
6.921188643E0,7.942810059E-1,9.237670898E0,-2.245880127E0
6.926193526E0,7.056884766E-1,9.254425049E0,-2.195602417E0
6.931198409E0,5.189361572E-1,9.311889648E0,-2.288970947E0
6.936203291E0,2.292480469E-1,9.402877808E0,-2.437408447E0
6.941208174E0,-1.610107422E-1,9.508224487E0,-2.585861206E0
6.946213057E0,-5.776062012E-1,9.592010498E0,-2.741485596E0
6.951217940E0,-9.941864014E-1,9.644683838E0,-2.854003906E0
6.956222823E0,-1.346145630E0,9.680603027E0,-2.892318726E0
6.961227706E0,-1.549652100E0,9.733276367E0,-2.772598267E0
6.966232588E0,-1.583160400E0,9.785949707E0,-2.492477417E0
6.971237471E0,-1.489791870E0,9.821853638E0,-2.226730347E0
6.976242354E0,-1.317413330E0,9.838623047E0,-2.049560547E0
6.981247237E0,-1.022918701E0,9.924804688E0,-1.929840088E0
6.986252120E0,-7.308349609E-1,1.001339722E1,-1.908294678E0
6.991257002E0,-4.770507812E-1,1.009957886E1,-1.948989868E0
6.996261885E0,-2.639617920E-1,1.015464783E1,-2.027999878E0
7.001266768E0,-1.203155518E-1,1.012591553E1,-2.164474487E0
7.006271651E0,1.136779785E-2,1.004212952E1,-2.351226807E0
7.011276534E0,2.220611572E-1,9.999023438E0,-2.566696167E0
7.016281416E0,4.806365967E-1,9.955932617E0,-2.849212646E0
7.021286299E0,7.535705566E-1,9.903259277E0,-3.095825195E0
7.026291182E0,9.858093262E-1,9.850585938E0,-3.205947876E0
7.031296065E0,1.143829346E0,9.824249268E0,-3.143707275E0
7.036300948E0,1.210861206E0,9.781158447E0,-2.906677246E0
7.041305831E0,1.179748535E0,9.714111328E0,-2.523605347E0
7.046310713E0,1.028915405E0,9.630325317E0,-2.095046997E0
7.051315596E0,7.751159668E-1,9.544128418E0,-1.735916138E0
7.056320479E0,4.112091064E-1,9.450759888E0,-1.522827148E0
7.061325362E0,-5.566406250E-2,9.328659058E0,-1.462966919E0
7.066330245E0,-5.464782715E-1,9.266403198E0,-1.489303589E0
7.071335127E0,-1.003768921E0,9.280761719E0,-1.551559448E0
7.076340010E0,-1.434722900E0,9.345413208E0,-1.723937988E0
7.081344893E0,-1.767517090E0,9.410049438E0,-2.037582397E0
7.086349776E0,-1.932723999E0,9.457946777E0,-2.497268677E0
7.091354659E0,-1.901596069E0,9.534561157E0,-2.985687256E0
7.096359541E0,-1.686111450E0,9.611175537E0,-3.387908936E0
7.101364424E0,-1.394027710E0,9.666229248E0,-3.634521484E0
7.106369307E0,-1.113906860E0,9.613555908E0,-3.682403564E0
7.111374190E0,-8.816680908E-1,9.496246338E0,-3.512405396E0
7.116379073E0,-7.619476318E-1,9.364562988E0,-3.162857056E0
7.121383956E0,-7.691345215E-1,9.280761719E0,-2.727111816E0
7.126388838E0,-8.529357910E-1,9.180206299E0,-2.339248657E0
7.131393721E0,-8.744812012E-1,9.050918579E0,-2.085464478E0
7.136398604E0,-8.529357910E-1,8.991073608E0,-1.946609497E0
7.141403487E0,-7.930755615E-1,9.050918579E0,-1.917877197E0
7.146408370E0,-7.284393311E-1,9.213729858E0,-2.030395508E0
7.151413252E0,-6.829528809E-1,9.414840698E0,-2.267425537E0
7.156418135E0,-6.590118408E-1,9.599197388E0,-2.547546387E0
7.161423018E0,-6.805572510E-1,9.711730957E0,-2.822875977E0
7.166427901E0,-8.050537109E-1,9.721298218E0,-2.988082886E0
7.171432784E0,-9.918060303E-1,9.618347168E0,-2.995269775E0
7.176437666E0,-1.209671021E0,9.505828857E0,-2.909072876E0
7.181442549E0,-1.446701050E0,9.405273438E0,-2.741485596E0
7.186447432E0,-1.753158569E0,9.314285278E0,-2.490081787E0
7.191452315E0,-2.131439209E0,9.249649048E0,-2.248275757E0
7.196457198E0,-2.502532959E0,9.189788818E0,-2.030395508E0
7.201462081E0,-2.892791748E0,9.170639038E0,-1.867599487E0
7.206466963E0,-3.297409058E0,9.201766968E0,-1.805343628E0
7.211471846E0,-3.579925537E0,9.307098389E0,-1.872375488E0
7.216476729E0,-3.546417236E0,9.448364258E0,-2.071105957E0
7.221481612E0,-3.153762817E0,9.620742798E0,-2.320098877E0
7.226486495E0,-2.559997559E0,9.769180298E0,-2.566696167E0
7.231491377E0,-2.021301270E0,9.862564087E0,-2.803726196E0
7.236496260E0,-1.669357300E0,9.879318237E0,-3.079055786E0
7.241501143E0,-1.468246460E0,9.860168457E0,-3.395095825E0
7.246506026E0,-1.403594971E0,9.723693848E0,-3.663238525E0
7.251510909E0,-1.401214600E0,9.575256348E0,-3.816467285E0
7.256515791E0,-1.336563110E0,9.438781738E0,-3.787750244E0
7.261520674E0,-1.164184570E0,9.326263428E0,-3.567474365E0
7.266525557E0,-8.936309814E-1,9.216125488E0,-3.177215576E0
7.271530440E0,-5.847778320E-1,9.053314209E0,-2.707962036E0
7.276535323E0,-2.855072021E-1,8.880935669E0,-2.209960938E0
7.281540206E0,-2.990722656E-3,8.761230469E0,-1.728729248E0
7.286545088E0,1.669921875E-1,8.694183350E0,-1.391143799E0
7.291549971E0,1.693878174E-1,8.677429199E0,-1.216369629E0
7.296554854E0,-7.003784180E-2,8.742065430E0,-1.254684448E0
7.301559737E0,-4.531097412E-1,8.885726929E0,-1.482131958E0
7.306564620E0,-9.534912109E-1,9.125152588E0,-1.872375488E0
7.311569502E0,-1.710052490E0,9.448364258E0,-2.348831177E0
7.316574385E0,-2.653381348E0,9.812286377E0,-2.767807007E0
7.321579268E0,-3.620635986E0,1.011634827E1,-3.014419556E0
7.326584151E0,-4.429870605E0,1.020971680E1,-3.086242676E0
7.331589034E0,-4.856033325E0,1.009480286E1,-2.933013916E0
7.336593916E0,-4.851257324E0,9.879318237E0,-2.588256836E0
7.341598799E0,-4.496902466E0,9.620742798E0,-2.111801147E0
7.346603682E0,-3.927093506E0,9.371749878E0,-1.644927979E0
7.351608565E0,-3.328536987E0,9.192184448E0,-1.350448608E0
7.356613448E0,-2.734771729E0,9.048538208E0,-1.254684448E0
7.361618331E0,-2.143402100E0,8.938400269E0,-1.221160889E0
7.366623213E0,-1.623870850E0,8.888122559E0,-1.182846069E0
7.371628096E0,-1.252761841E0,8.907272339E0,-1.130172729E0
7.376632979E0,-1.051651001E0,8.976699829E0,-1.144546509E0
7.381637862E0,-9.918060303E-1,9.096420288E0,-1.288192749E0
7.386642745E0,-1.058837891E0,9.201766968E0,-1.592254639E0
7.391617110E0,-1.307830811E0,9.314285278E0,-2.030395508E0
7.396621993E0,-1.607101440E0,9.419631958E0,-2.454177856E0
7.401626875E0,-1.949478149E0,9.455551147E0,-2.834854126E0
7.406631758E0,-2.349304199E0,9.426818848E0,-3.088638306E0
7.411636641E0,-2.792236328E0,9.343017578E0,-3.160461426E0
7.416641524E0,-3.271072388E0,9.168243408E0,-3.000045776E0
7.421646407E0,-3.754699707E0,8.940795898E0,-2.600219727E0
7.426651289E0,-4.214401245E0,8.679824829E0,-2.111801147E0
7.431656172E0,-4.571136475E0,8.457168579E0,-1.711975098E0
7.436661055E0,-4.779418945E0,8.296752930E0,-1.474945068E0
7.441665938E0,-4.817733765E0,8.179428101E0,-1.328903198E0
7.446670821E0,-4.669296265E0,8.033386230E0,-1.242706299E0
7.451675704E0,-4.250305176E0,7.896926880E0,-1.257080078E0
7.456680586E0,-3.544021606E0,7.863403320E0,-1.391143799E0
7.461685469E0,-2.658157349E0,7.925643921E0,-1.573104858E0
7.466690352E0,-1.925537109E0,8.028594971E0,-1.824493408E0
7.471695235E0,-1.473037720E0,8.124374390E0,-2.123779297E0
7.476700118E0,-1.298263550E0,8.102813721E0,-2.401504517E0
7.481705000E0,-1.453872681E0,7.942413330E0,-2.621765137E0
7.486709883E0,-1.712448120E0,7.712570190E0,-2.743865967E0
7.491714766E0,-1.937515259E0,7.568908691E0,-2.686416626E0
7.496719649E0,-2.270309448E0,7.214569092E0,-2.427841187E0
7.501724532E0,-2.576766968E0,7.020645142E0,-2.150115967E0
7.506729414E0,-2.967010498E0,6.544189453E0,-1.869995117E0
7.511734297E0,-3.268676758E0,5.866638184E0,-1.467758179E0
7.516739180E0,-3.261505127E0,5.263290405E0,-1.290588379E0
7.521744063E0,-3.141784668E0,4.722213745E0,-1.103851318E0
7.526748946E0,-2.842514038E0,4.233795166E0,-9.985046387E-1
7.531753829E0,-2.466629028E0,3.838745117E0,-1.017654419E0
7.536758711E0,-2.148193359E0,3.501159668E0,-1.075119019E0
7.541763594E0,-1.911178589E0,3.213867188E0,-1.187637329E0
7.546768477E0,-1.887237549E0,3.048660278E0,-1.350448608E0
7.551773360E0,-2.030883789E0,2.890640259E0,-1.635360718E0
7.556778243E0,-2.117080688E0,2.787689209E0,-2.080673218E0
7.561783125E0,-2.289459229E0,2.785293579E0,-2.528396606E0
7.566788008E0,-2.368469238E0,2.660797119E0,-2.748657227E0
7.571792891E0,-2.294250488E0,2.505172729E0,-2.700775146E0
7.576797774E0,-1.935119629E0,2.402221680E0,-2.523605347E0
7.581802657E0,-1.516128540E0,2.311248779E0,-2.322494507E0
7.586807539E0,-1.204879761E0,2.289703369E0,-2.236297607E0
7.591812422E0,-8.242034912E-1,2.418991089E0,-2.310516357E0
7.596817305E0,2.316436768E-1,2.945709229E0,-2.597824097E0
7.601822188E0,2.436691284E0,4.092529297E0,-3.040756226E0
7.606827071E0,4.787811279E0,5.282455444E0,-3.553115845E0
7.611831954E0,4.902725220E0,5.423706055E0,-3.668029785E0
7.616836836E0,2.012924194E0,4.082962036E0,-2.559524536E0
7.621841719E0,8.972320557E-1,3.539474487E0,-1.771820068E0
7.626846602E0,2.651519775E-1,3.256958008E0,-1.769439697E0
7.631851485E0,6.576538086E-3,3.290481567E0,-2.758239746E0
7.636856368E0,5.787963867E-1,3.831558228E0,-4.762191772E0
7.641861250E0,2.024902344E0,4.786849976E0,-7.651992798E0
7.646866133E0,3.681686401E0,5.773269653E0,-1.025688171E1
7.651871016E0,4.701614380E0,6.378997803E0,-1.109484863E1
7.656875899E0,4.617813110E0,6.213790894E0,-9.938446045E0
7.661880782E0,3.533248901E0,5.349487305E0,-7.642410278E0
7.666885664E0,2.180511475E0,4.240966797E0,-5.279327393E0
7.671890547E0,1.500564575E0,3.534683228E0,-3.457351685E0
7.676895430E0,1.151016235E0,3.125274658E0,-2.243484497E0
7.681900313E0,8.900451660E-1,2.816421509E0,-1.592254639E0
7.686905196E0,8.253936768E-1,2.792480469E0,-1.132568359E0
7.691910079E0,4.263473511E0,9.620742798E0,-7.399291992E-1
7.696914961E0,1.288259888E1,2.998582458E1,-5.148773193E-1
7.701919844E0,1.933497620E1,4.673805237E1,-2.323608398E-1
7.706924727E0,1.955284119E1,5.363575745E1,-8.021697998E-1
7.711929610E0,1.503738403E1,5.266609192E1,-1.106231689E0
7.716934493E0,9.219467163E0,4.774122620E1,-5.651550293E-1
7.721939375E0,3.425506592E0,4.058975220E1,-8.237152100E-1
7.726944258E0,-7.451934814E-1,3.216215515E1,-1.094268799E0
7.731949141E0,-2.734771729E0,2.337304688E1,-1.810134888E0
7.736923506E0,-3.266296387E0,1.580735779E1,-2.839645386E0
7.741928389E0,-3.072357178E0,1.016662598E1,-4.309677124E0
7.746933272E0,-2.701263428E0,6.232955933E0,-5.731842041E0
7.751938155E0,-2.303817749E0,3.721435547E0,-7.225814819E0
7.756943038E0,-2.076370239E0,2.277725220E0,-8.738952637E0
7.761947920E0,-1.815399170E0,1.777343750E0,-1.009646606E1
7.766952803E0,-1.477828979E0,1.983245850E0,-1.106851196E1
7.771957686E0,-1.054046631E0,2.739807129E0,-1.137017822E1
7.776962569E0,-4.866180420E-1,3.996765137E0,-1.081712341E1
7.781967452E0,2.436065674E-1,5.605667114E0,-9.675079346E0
7.786972334E0,1.002578735E0,7.276824951E0,-8.281661987E0
7.791977217E0,1.452682495E0,8.560119629E0,-6.847534180E0
7.796982100E0,1.421554565E0,9.230484009E0,-5.478057861E0
7.801986983E0,9.834136963E-1,9.426818848E0,-4.383895874E0
7.806991866E0,3.298034668E-1,9.395690918E0,-3.577056885E0
7.811996748E0,-3.453674316E-1,9.247253418E0,-2.971328735E0
7.817001631E0,-7.763214111E-1,9.084442139E0,-2.523605347E0
7.822006514E0,-8.648986816E-1,8.964736938E0,-2.188415527E0
7.827011397E0,-6.542205811E-1,8.916854858E0,-1.872375488E0
7.832016280E0,-1.921386719E-1,9.067687988E0,-1.762252808E0
7.837021163E0,4.495086670E-1,9.429214478E0,-1.738311768E0
7.842026045E0,1.052856445E0,9.793121338E0,-1.779006958E0
7.847030928E0,1.455078125E0,9.915237427E0,-1.867599487E0
7.852035811E0,1.603515625E0,9.709335327E0,-1.941818237E0
7.857040694E0,1.572387695E0,9.347808838E0,-2.023223877E0
7.862045577E0,1.292266846E0,8.976699829E0,-2.097442627E0
7.867050459E0,8.469543457E-1,8.718124390E0,-2.147720337E0
7.872055342E0,5.117645264E-1,8.605606079E0,-2.190811157E0
7.877060225E0,3.609313965E-1,8.574478149E0,-2.253067017E0
7.882065108E0,4.040222168E-1,8.641510010E0,-2.334457397E0
7.887069991E0,4.590911865E-1,8.742065430E0,-2.439804077E0
7.892074873E0,5.476684570E-1,8.809112549E0,-2.509246826E0
7.897079756E0,6.410522461E-1,8.852203369E0,-2.571487427E0
7.902084639E0,6.937255859E-1,8.940795898E0,-2.691192627E0
7.907089522E0,8.230133057E-1,9.010223389E0,-2.822875977E0
7.912094405E0,9.067993164E-1,9.098815918E0,-2.990478516E0
7.917099288E0,9.906005859E-1,9.161056519E0,-3.196380615E0
7.922104170E0,1.060028076E0,9.220916748E0,-3.445373535E0
7.927109053E0,1.131851196E0,9.280761719E0,-3.902664185E0
7.932113936E0,1.237197876E0,9.335830688E0,-4.508392334E0
7.937118819E0,1.320999146E0,9.352600098E0,-5.128494263E0
7.942123702E0,1.347335815E0,9.354995728E0,-5.669586182E0
7.947128584E0,1.330581665E0,9.366958618E0,-6.040695190E0
7.952133467E0,1.251571655E0,9.343017578E0,-6.134063721E0
7.957138350E0,1.170166016E0,9.326263428E0,-5.906616211E0
7.962143233E0,1.112701416E0,9.388504028E0,-5.406219482E0
7.967148116E0,1.072006226E0,9.558502197E0,-4.771759033E0
7.972152998E0,1.038482666E0,9.754821777E0,-4.094207764E0
7.977157881E0,9.666595459E-1,9.898468018E0,-3.442977905E0
7.982162764E0,8.541259766E-1,9.965515137E0,-2.856399536E0
7.987167647E0,7.463989258E-1,9.967910767E0,-2.384735107E0
7.992172530E0,6.482238770E-1,9.903259277E0,-2.056732178E0
7.997177413E0,5.907745361E-1,9.809890747E0,-1.901107788E0
8.002182295E0,5.716094971E-1,9.706939697E0,-1.929840088E0
8.007187178E0,5.692138672E-1,9.594406128E0,-2.130950928E0
8.012192061E0,5.333099365E-1,9.477096558E0,-2.458969116E0
8.017196944E0,4.854278564E-1,9.393295288E0,-2.868377686E0
8.022201827E0,4.399414062E-1,9.386108398E0,-3.320877075E0
8.027206709E0,3.752899170E-1,9.431610107E0,-3.823654175E0
8.032211592E0,2.962799072E-1,9.508224487E0,-4.350387573E0
8.037216475E0,2.029113770E-1,9.429214478E0,-4.814849854E0
8.042221358E0,1.598052979E-1,9.369354248E0,-5.154830933E0
8.047226241E0,1.358642578E-1,9.247253418E0,-5.300872803E0
8.052231123E0,1.215057373E-1,9.125152588E0,-5.257781982E0
8.057236006E0,6.404113770E-2,8.971923828E0,-5.042312622E0
8.062240889E0,-3.172302246E-2,8.859390259E0,-4.683181763E0
8.067245772E0,-1.442565918E-1,8.706161499E0,-4.154052734E0
8.072250655E0,-2.064971924E-1,8.648696899E0,-3.548324585E0
8.077255538E0,-2.041015625E-1,8.739685059E0,-2.992874146E0
8.082260420E0,-1.418609619E-1,8.859390259E0,-2.593032837E0
8.087265303E0,-5.326843262E-2,8.974304199E0,-2.372772217E0
8.092270186E0,8.798217773E-2,9.108383179E0,-2.277008057E0
8.097275069E0,2.819213867E-1,9.309494019E0,-2.315307617E0
8.102279952E0,4.782409668E-1,9.568069458E0,-2.463745117E0
8.107284834E0,5.764007568E-1,9.757217407E0,-2.669647217E0
8.112289717E0,4.614868164E-1,9.781158447E0,-2.923431396E0
8.117294600E0,-1.681976318E-1,9.414840698E0,-3.143707275E0
8.122299483E0,-5.823974609E-1,8.998245239E0,-3.093429565E0
8.127304366E0,-6.230926514E-1,8.691787720E0,-2.810913086E0
8.132309248E0,-5.440826416E-1,8.438003540E0,-2.490081787E0
8.137314131E0,-4.411315918E-1,8.294357300E0,-2.229125977E0
8.142319014E0,-2.759246826E-1,8.481109619E0,-2.176452637E0
8.147323897E0,-1.945343018E-1,8.876144409E0,-2.372772217E0
8.152328780E0,-2.807159424E-1,9.247253418E0,-2.655288696E0
8.157333663E0,-3.812713623E-1,9.546524048E0,-2.882736206E0
8.162338545E0,-4.483184814E-1,9.733276367E0,-3.026382446E0
8.167343428E0,-4.818267822E-1,9.797912598E0,-3.086242676E0
8.172348311E0,-5.704193115E-1,9.769180298E0,-3.112579346E0
8.177353194E0,-5.632324219E-1,9.762008667E0,-3.114974976E0
8.182358077E0,-5.321044922E-1,9.785949707E0,-3.153274536E0
8.187362959E0,-5.297241211E-1,9.797912598E0,-3.215530396E0
8.192367842E0,-5.321044922E-1,9.769180298E0,-3.272994995E0
8.197372725E0,-4.531097412E-1,9.721298218E0,-3.301727295E0
8.202377608E0,-3.621215820E-1,9.656661987E0,-3.261016846E0
8.207382491E0,-2.591705322E-1,9.587219238E0,-3.234680176E0
8.212387373E0,-4.370117188E-2,9.606384277E0,-3.483673096E0
8.217392256E0,1.382598877E-1,9.515396118E0,-3.907455444E0
8.222397139E0,1.358642578E-1,9.266403198E0,-4.125320435E0
8.227402022E0,2.574157715E-2,9.036560059E0,-4.070266724E0
8.232406905E0,-7.720947266E-2,8.883331299E0,-3.866760254E0
8.237411788E0,-1.394653320E-1,8.813903809E0,-3.627334595E0
8.242386153E0,-2.088928223E-1,8.749252319E0,-3.380737305E0
8.247391036E0,-2.328338623E-1,8.768402100E0,-3.136520386E0
8.252395918E0,-2.232666016E-1,8.868972778E0,-2.933013916E0
8.257400801E0,-2.184753418E-1,8.983886719E0,-2.743865967E0
8.262405684E0,-2.567749023E-1,9.043746948E0,-2.514022827E0
8.267410567E0,-2.352294922E-1,9.208938599E0,-2.482910156E0
8.272415450E0,-1.801605225E-1,9.410049438E0,-2.638534546E0
8.277420332E0,-1.634063721E-1,9.508224487E0,-2.707962036E0
8.282425215E0,-2.112884521E-1,9.491455078E0,-2.676834106E0
8.287430098E0,-3.429718018E-1,9.216125488E0,-2.363189697E0
8.292434981E0,-2.424163818E-1,9.345413208E0,-2.217147827E0
8.297439864E0,-1.346740723E-1,9.441177368E0,-1.958572388E0
8.302444747E0,-7.960510254E-2,9.422027588E0,-2.061523438E0
8.307449629E0,-7.781982422E-3,9.462722778E0,-2.358398438E0
8.312454512E0,8.798217773E-2,9.575256348E0,-2.487686157E0
8.317459395E0,2.005157471E-1,9.821853638E0,-2.679229736E0
8.322464278E0,2.531890869E-1,9.898468018E0,-2.791763306E0
8.327469161E0,3.010711670E-1,9.943969727E0,-2.947372437E0
8.332474043E0,3.489532471E-1,9.931991577E0,-3.064697266E0
8.337478926E0,4.064178467E-1,9.912841797E0,-3.222717285E0
8.342483809E0,4.088134766E-1,9.831436157E0,-3.265808105E0
8.347488692E0,3.968353271E-1,9.814682007E0,-3.356781006E0
8.352493575E0,3.298034668E-1,9.733276367E0,-3.284957886E0
8.357498457E0,2.531890869E-1,9.644683838E0,-3.174835205E0
8.362503340E0,1.933288574E-1,9.599197388E0,-3.038360596E0
8.367508223E0,1.645965576E-1,9.589614868E0,-2.913864136E0
8.372513106E0,1.669921875E-1,9.510604858E0,-2.777389526E0
8.377517989E0,2.244567871E-1,9.472305298E0,-2.861190796E0
8.382522872E0,3.034667969E-1,9.575256348E0,-3.095825195E0
8.387527754E0,2.675476074E-1,9.611175537E0,-3.062301636E0
8.392532637E0,-1.736450195E-2,9.503433228E0,-2.705566406E0
8.397537520E0,-1.873474121E-1,9.450759888E0,-2.245880127E0
8.402542403E0,4.968261719E-2,9.560882568E0,-2.083068848E0
8.407547286E0,1.909332275E-1,9.410049438E0,-2.315307617E0
8.412552168E0,2.460021973E-1,9.218521118E0,-2.585861206E0
8.417557051E0,2.723388672E-1,9.153869629E0,-2.684020996E0
8.422561934E0,3.585357666E-1,9.275985718E0,-2.655288696E0
8.427566817E0,5.117645264E-1,9.553710938E0,-2.710357666E0
8.432571700E0,5.452728271E-1,9.611175537E0,-2.798934937E0
8.437576582E0,4.662628174E-1,9.445968628E0,-2.784576416E0
8.442581465E0,4.088134766E-1,9.292739868E0,-2.681625366E0
8.447586348E0,3.800811768E-1,9.168243408E0,-2.576278687E0
8.452591231E0,3.848724365E-1,8.991073608E0,-2.545150757E0
8.457596114E0,4.327545166E-1,8.897689819E0,-2.597824097E0
8.462600997E0,5.213317871E-1,9.070083618E0,-2.688812256E0
8.467605879E0,5.979461670E-1,9.321472168E0,-2.820480347E0
8.472610762E0,6.458282471E-1,9.462722778E0,-2.899490356E0
8.477615645E0,6.865386963E-1,9.536941528E0,-2.973709106E0
8.482620528E0,6.961212158E-1,9.532165527E0,-3.050323486E0
8.487625411E0,6.649932861E-1,9.445968628E0,-3.112579346E0
8.492630293E0,6.099243164E-1,9.331039429E0,-3.165252686E0
8.497635176E0,5.811920166E-1,9.204147339E0,-3.217926025E0
8.502640059E0,5.644378662E-1,9.101196289E0,-3.241867065E0
8.507644942E0,5.692138672E-1,9.091629028E0,-3.229888916E0
8.512649825E0,5.955505371E-1,9.237670898E0,-3.162857056E0
8.517654707E0,5.931701660E-1,9.438781738E0,-2.997650146E0
8.522659590E0,5.596466064E-1,9.615951538E0,-2.801330566E0
8.527664473E0,4.878234863E-1,9.730880737E0,-2.612197876E0
8.532669356E0,4.255676270E-1,9.793121338E0,-2.444595337E0
8.537674239E0,3.561401367E-1,9.817062378E0,-2.315307617E0
8.542679122E0,3.321990967E-1,9.814682007E0,-2.255462646E0
8.547684004E0,3.393707275E-1,9.829040527E0,-2.214752197E0
8.552688887E0,3.561401367E-1,9.841018677E0,-2.190811157E0
8.557693770E0,3.944396973E-1,9.867355347E0,-2.159683228E0
8.562698653E0,4.423217773E-1,9.872131348E0,-2.157287598E0
8.567703536E0,4.830322266E-1,9.821853638E0,-2.207565308E0
8.572708418E0,4.973907471E-1,9.726089478E0,-2.320098877E0
8.577713301E0,5.213317871E-1,9.575256348E0,-2.530792236E0
8.582718184E0,6.099243164E-1,9.594406128E0,-2.712753296E0
8.587692549E0,6.937255859E-1,9.584838867E0,-2.789367676E0
8.592697432E0,7.990570068E-1,9.419631958E0,-2.854003906E0
8.597702315E0,8.613128662E-1,9.165847778E0,-2.985687256E0
8.602707198E0,9.020080566E-1,8.979095459E0,-3.124557495E0
8.607712081E0,8.876495361E-1,8.892913818E0,-3.174835205E0
8.612716963E0,7.775115967E-1,8.813903809E0,-3.150894165E0
8.617721846E0,6.099243164E-1,8.694183350E0,-3.098220825E0
8.622726729E0,4.423217773E-1,8.600814819E0,-3.040756226E0
8.627731612E0,3.848724365E-1,8.643905640E0,-3.040756226E0
8.632736495E0,2.986755371E-1,8.639129639E0,-3.059906006E0
8.637741377E0,1.526336670E-1,8.629547119E0,-3.062301636E0
8.642746260E0,1.071472168E-1,8.785171509E0,-3.009628296E0
8.647751143E0,1.095275879E-1,9.050918579E0,-2.863586426E0
8.652756026E0,1.909332275E-1,9.364562988E0,-2.693588257E0
8.657760909E0,3.010711670E-1,9.589614868E0,-2.597824097E0
8.662765791E0,3.848724365E-1,9.706939697E0,-2.595428467E0
8.667770674E0,4.542999268E-1,9.829040527E0,-2.648101807E0
8.672775557E0,5.237274170E-1,9.931991577E0,-2.660079956E0
8.677780440E0,6.027374268E-1,9.991851807E0,-2.669647217E0
8.682785323E0,6.625976562E-1,9.910446167E0,-2.624160767E0
8.687790206E0,6.506195068E-1,9.912841797E0,-2.516418457E0
8.692795088E0,6.218872070E-1,9.948745728E0,-2.356018066E0
8.697799971E0,5.883789062E-1,1.000860596E1,-2.157287598E0
8.702804854E0,5.644378662E-1,1.008282471E1,-1.958572388E0
8.707809737E0,5.165557861E-1,1.011155701E1,-1.781402588E0
8.712814620E0,5.045776367E-1,1.013070679E1,-1.628173828E0
8.717819502E0,5.021820068E-1,1.009957886E1,-1.522827148E0
8.722824385E0,4.854278564E-1,1.005888367E1,-1.455795288E0
8.727829268E0,4.854278564E-1,1.000381470E1,-1.415084839E0
8.732834151E0,4.830322266E-1,9.951141357E0,-1.371994019E0
8.737839034E0,5.141601562E-1,9.888900757E0,-1.350448608E0
8.742843916E0,5.548553467E-1,9.790725708E0,-1.350448608E0
8.747848799E0,6.147155762E-1,9.651870728E0,-1.407913208E0
8.752853682E0,6.865386963E-1,9.584838867E0,-1.498886108E0
8.757858565E0,7.416076660E-1,9.546524048E0,-1.630569458E0
8.762863448E0,7.056884766E-1,9.493850708E0,-1.776611328E0
8.767868331E0,4.878234863E-1,9.424423218E0,-1.927444458E0
8.772873213E0,2.388153076E-1,9.412445068E0,-2.054336548E0
8.777878096E0,3.291320801E-2,9.448364258E0,-2.145324707E0
8.782882979E0,-8.679199219E-2,9.529769897E0,-2.166870117E0
8.787887862E0,-8.200073242E-2,9.663833618E0,-2.147720337E0
8.792892745E0,4.196166992E-3,9.783554077E0,-2.104614258E0
8.797897627E0,4.249572754E-2,9.886505127E0,-2.068710327E0
8.802902510E0,1.071472168E-1,1.000141907E1,-2.068710327E0
8.807907393E0,1.526336670E-1,1.009240723E1,-2.102233887E0
8.812912276E0,1.813659668E-1,1.016183472E1,-2.209960938E0
8.817917159E0,2.388153076E-1,1.019775391E1,-2.384735107E0
8.822922041E0,3.082580566E-1,1.018098450E1,-2.559524536E0
8.827926924E0,3.250122070E-1,1.013789368E1,-2.707962036E0
8.832931807E0,2.867126465E-1,1.007086182E1,-2.813308716E0
8.837936690E0,2.124786377E-1,9.924804688E0,-2.851608276E0
8.842941573E0,9.996032715E-2,9.721298218E0,-2.839645386E0
8.847946456E0,-3.411865234E-2,9.433990479E0,-2.794143677E0
8.852951338E0,-2.136840820E-1,9.117965698E0,-2.743865967E0
8.857956221E0,-4.076080322E-1,8.914459229E0,-2.758239746E0
8.862961104E0,-6.039428711E-1,8.636734009E0,-2.748657227E0
8.867965987E0,-7.978668213E-1,8.220138550E0,-2.600219727E0
8.872970870E0,-1.034896851E0,8.088455200E0,-2.298553467E0
8.877975752E0,-1.350921631E0,8.368576050E0,-1.920272827E0
8.882980635E0,-1.528106689E0,8.878540039E0,-1.520431519E0
8.887985518E0,-1.329376221E0,9.812286377E0,-1.108627319E0
8.892990401E0,-6.973114014E-1,1.089685059E1,-7.183837891E-1
8.897995284E0,3.530883789E-2,1.159356689E1,-5.148773193E-1
8.903000166E0,6.362609863E-1,1.163188171E1,-5.052947998E-1
8.908005049E0,9.929962158E-1,1.136611938E1,-5.867004395E-1
8.913009932E0,1.129470825E0,1.110514832E1,-7.423248291E-1
8.918014815E0,9.858093262E-1,1.024324036E1,-1.003280640E0
8.923019698E0,7.775115967E-1,1.001579285E1,-1.357635498E0
8.928024581E0,6.099243164E-1,9.931991577E0,-1.757461548E0
8.933029463E0,4.471130371E-1,9.793121338E0,-2.128555298E0
8.938034346E0,3.968353271E-1,9.527374268E0,-2.506851196E0
8.943039229E0,3.657073975E-1,9.141906738E0,-2.837249756E0
8.948044112E0,3.226165771E-1,8.694183350E0,-3.119766235E0
8.953048995E0,2.651519775E-1,8.268020630E0,-3.313690186E0
8.958053877E0,2.029113770E-1,7.925643921E0,-3.433395386E0
8.963058760E0,1.310882568E-1,7.702987671E0,-3.493255615E0
8.968063643E0,6.576538086E-3,7.612014771E0,-3.486068726E0
8.973068526E0,-1.490325928E-1,7.669464111E0,-3.421432495E0
8.978073409E0,-2.902984619E-1,7.832275391E0,-3.316085815E0
8.983078291E0,-3.525390625E-1,8.081268311E0,-3.193984985E0
8.988083174E0,-7.481384277E-2,8.438003540E0,-3.076660156E0
8.993088057E0,2.364196777E-1,8.461944580E0,-2.949768066E0
8.998092940E0,-1.496887207E-2,8.220138550E0,-2.949768066E0
9.003097823E0,-3.740997314E-1,8.196197510E0,-3.091033936E0
9.008102706E0,-5.943603516E-1,8.481109619E0,-3.234680176E0
9.013107588E0,-5.057830811E-1,9.122756958E0,-3.225112915E0
9.018112471E0,-1.083374023E-1,9.941574097E0,-3.000045776E0
9.023117354E0,2.077026367E-1,1.062631226E1,-2.643310547E0
9.028122237E0,4.303588867E-1,1.107162476E1,-2.284179688E0
9.033127120E0,6.075286865E-1,1.123443604E1,-2.013641357E0
9.038132002E0,7.823028564E-1,1.123204041E1,-1.826889038E0
9.043136885E0,9.115905762E-1,1.109556580E1,-1.649719238E0
9.048141768E0,9.929962158E-1,1.089205933E1,-1.470153809E0
9.053146651E0,9.810180664E-1,1.065744019E1,-1.312133789E0
9.058151534E0,9.020080566E-1,1.043476868E1,-1.194824219E0
9.063156416E0,7.487792969E-1,1.022647095E1,-1.134963989E0
9.068161299E0,5.213317871E-1,1.004690552E1,-1.103851318E0
9.073166182E0,3.034667969E-1,9.905654907E0,-1.103851318E0
9.078171065E0,2.268524170E-1,9.848190308E0,-1.079895020E0
9.083175948E0,2.436065674E-1,9.845794678E0,-1.041595459E0
9.088150313E0,3.106536865E-1,9.862564087E0,-1.053558350E0
9.093155196E0,4.016265869E-1,9.857772827E0,-1.137359619E0
9.098160079E0,5.069732666E-1,9.857772827E0,-1.300170898E0
9.103164961E0,6.003417969E-1,9.852981567E0,-1.510864258E0
9.108169844E0,6.769561768E-1,9.852981567E0,-1.762252808E0
9.113174727E0,7.248382568E-1,9.819458008E0,-2.049560547E0
9.118179610E0,7.703399658E-1,9.812286377E0,-2.329681396E0
9.123184493E0,7.535705566E-1,9.857772827E0,-2.576278687E0
9.128189375E0,7.296295166E-1,9.931991577E0,-2.832458496E0
9.133194258E0,7.751159668E-1,9.946350098E0,-3.004837036E0
9.138199141E0,8.182220459E-1,9.860168457E0,-3.040756226E0
9.143204024E0,8.038482666E-1,9.728485107E0,-2.928222656E0
9.148208907E0,7.535705566E-1,9.649475098E0,-2.695983887E0
9.153213789E0,7.727355957E-1,9.637496948E0,-2.435012817E0
9.158218672E0,8.301849365E-1,9.575256348E0,-2.250671387E0
9.163223555E0,8.637084961E-1,9.419631958E0,-2.138137817E0
9.168228438E0,8.182220459E-1,9.254425049E0,-2.068710327E0
9.173233321E0,7.152709961E-1,9.177810669E0,-2.008850098E0
9.178238204E0,6.506195068E-1,9.177810669E0,-1.922668457E0
9.183243086E0,6.218872070E-1,9.216125488E0,-1.831680298E0
9.188247969E0,6.410522461E-1,9.275985718E0,-1.759857178E0
9.193252852E0,6.482238770E-1,9.345413208E0,-1.711975098E0
9.198257735E0,6.003417969E-1,9.422027588E0,-1.697601318E0
9.203262618E0,5.452728271E-1,9.484268188E0,-1.719146729E0
9.208267500E0,5.045776367E-1,9.565673828E0,-1.762252808E0
9.213272383E0,4.878234863E-1,9.651870728E0,-1.790985107E0
9.218277266E0,4.949951172E-1,9.723693848E0,-1.812530518E0
9.223282149E0,5.165557861E-1,9.788345337E0,-1.812530518E0
9.228287032E0,5.381011963E-1,9.824249268E0,-1.798156738E0
9.233291914E0,5.309143066E-1,9.841018677E0,-1.769439697E0
9.238296797E0,5.045776367E-1,9.855377197E0,-1.731124878E0
9.243301680E0,4.519042969E-1,9.845794678E0,-1.697601318E0
9.248306563E0,3.944396973E-1,9.852981567E0,-1.661697388E0
9.253311446E0,3.728942871E-1,9.850585938E0,-1.620986938E0
9.258316329E0,3.633270264E-1,9.819458008E0,-1.577896118E0
9.263321211E0,3.585357666E-1,9.766784668E0,-1.568313599E0
9.268326094E0,3.274078369E-1,9.723693848E0,-1.597045898E0
9.273330977E0,2.723388672E-1,9.639892578E0,-1.652114868E0
9.278335860E0,2.220611572E-1,9.553710938E0,-1.726333618E0
9.283340743E0,1.885375977E-1,9.469909668E0,-1.838867188E0
9.288345625E0,1.789703369E-1,9.393295288E0,-1.980117798E0
9.293350508E0,1.478424072E-1,9.297531128E0,-2.140533447E0
9.298355391E0,1.143188477E-1,9.206542969E0,-2.317703247E0
9.303360274E0,7.122802734E-2,9.115570068E0,-2.506851196E0
9.308365157E0,3.770446777E-2,9.050918579E0,-2.674438477E0
9.313370039E0,1.136779785E-2,9.003036499E0,-2.832458496E0
9.318374922E0,-1.736450195E-2,8.995864868E0,-2.988082886E0
9.323379805E0,-3.890991211E-2,8.995864868E0,-3.131729126E0
9.328384688E0,-3.172302246E-2,9.017410278E0,-3.244262695E0
9.333389571E0,-2.693176270E-2,9.041351318E0,-3.294540405E0
9.338394454E0,-1.976013184E-2,9.108383179E0,-3.299331665E0
9.343399336E0,4.196166992E-3,9.225708008E0,-3.272994995E0
9.348404219E0,2.813720703E-2,9.386108398E0,-3.213134766E0
9.353409102E0,3.530883789E-2,9.560882568E0,-3.141311646E0
9.358413985E0,2.334594727E-2,9.742843628E0,-3.069488525E0
9.363418868E0,1.136779785E-2,9.900863647E0,-3.014419556E0
9.368423750E0,1.615905762E-2,1.003733826E1,-2.973709106E0
9.373428633E0,3.770446777E-2,1.013789368E1,-2.937805176E0
9.378433516E0,3.291320801E-2,1.021211243E1,-2.892318726E0
9.383438399E0,2.574157715E-2,1.024803162E1,-2.837249756E0
9.388443282E0,1.136779785E-2,1.027436829E1,-2.760635376E0
9.393448164E0,1.136779785E-2,1.029351807E1,-2.676834106E0
9.398453047E0,-5.950927734E-4,1.031027222E1,-2.583465576E0
9.403457930E0,-3.411865234E-2,1.034619141E1,-2.461349487E0
9.408462813E0,-6.764221191E-2,1.038209534E1,-2.265029907E0
9.413467696E0,-8.679199219E-2,1.038449097E1,-2.030395508E0
9.418472579E0,-1.011505127E-1,1.034858704E1,-1.767044067E0
9.423477461E0,-1.083374023E-1,1.027914429E1,-1.515640259E0
9.428451827E0,-9.397888184E-2,1.022409058E1,-1.278625488E0
9.433456709E0,-8.200073242E-2,1.016662598E1,-1.060745239E0
9.438461592E0,-5.566406250E-2,1.016423035E1,-8.716125488E-1
9.443466475E0,4.196166992E-3,1.026478577E1,-6.896514893E-1
9.448471358E0,1.717834473E-1,1.041322327E1,-5.005035400E-1
9.453476241E0,2.867126465E-1,1.047068787E1,-2.946014404E-1
9.458481123E0,4.136047363E-1,1.038209534E1,-1.030731201E-1
9.463486006E0,5.404968262E-1,1.025280762E1,3.819274902E-2
9.468490889E0,6.578063965E-1,1.004930115E1,-8.869934082E-2
9.473495772E0,8.110351562E-1,9.900863647E0,-3.688201904E-1
9.478500655E0,9.858093262E-1,9.951141357E0,-5.603637695E-1
9.483505538E0,1.093551636E0,1.008761597E1,-8.213348389E-1
9.488510420E0,1.153411865E0,1.019056702E1,-1.132568359E0
9.493515303E0,1.239593506E0,1.033181763E1,-1.446212769E0
9.498520186E0,1.342544556E0,1.053771973E1,-1.783798218E0
9.503525069E0,1.450286865E0,1.077235413E1,-2.123779297E0
9.508529952E0,1.546051025E0,1.096629333E1,-2.418258667E0
9.513534834E0,1.613098145E0,1.110993958E1,-2.655288696E0
9.518539717E0,1.658584595E0,1.123683167E1,-2.820480347E0
9.523544600E0,1.699279785E0,1.132780457E1,-2.906677246E0
9.528549483E0,1.735198975E0,1.133020020E1,-2.887527466E0
9.533554366E0,1.778289795E0,1.113867188E1,-2.791763306E0
9.538559248E0,1.771102905E0,1.093516541E1,-2.602615356E0
9.543564131E0,1.732803345E0,1.067419434E1,-2.339248657E0
9.548569014E0,1.684921265E0,1.035337830E1,-2.066314697E0
9.553573897E0,1.641830444E0,1.002775574E1,-1.805343628E0
9.558578780E0,1.586761475E0,9.702148438E0,-1.546768188E0
9.563583663E0,1.555633545E0,9.364562988E0,-1.283416748E0
9.568588545E0,1.569992065E0,8.969528198E0,-1.063140869E0
9.573593428E0,1.605911255E0,8.593627930E0,-9.051208496E-1
9.578598311E0,1.687316895E0,8.330276489E0,-7.973937988E-1
9.583603194E0,1.771102905E0,8.220138550E0,-6.968231201E-1
9.588608077E0,1.809417725E0,8.160278320E0,-6.728820801E-1
9.593612959E0,1.826171875E0,8.138732910E0,-7.255554199E-1
9.598617842E0,1.826171875E0,8.117187500E0,-7.830200195E-1
9.603622725E0,1.816604614E0,8.095642090E0,-8.620300293E-1
9.608627608E0,1.804626465E0,8.105209351E0,-9.506225586E-1
9.613632491E0,1.778289795E0,8.133941650E0,-1.041595459E0
9.618637373E0,1.761535645E0,8.143524170E0,-1.149337769E0
9.623642256E0,1.747161865E0,8.081268311E0,-1.309738159E0
9.628647139E0,1.708862305E0,7.961563110E0,-1.506072998E0
9.633652022E0,1.598724365E0,7.796356201E0,-1.726333618E0
9.638656905E0,1.421554565E0,7.659896851E0,-1.963363647E0
9.643661788E0,1.213256836E0,7.530609131E0,-2.181228638E0
9.648666670E0,9.953918457E-1,7.449203491E0,-2.391921997E0
9.653671553E0,8.589172363E-1,7.415679932E0,-2.588256836E0
9.658676436E0,7.870941162E-1,7.446807861E0,-2.751052856E0
9.663681319E0,7.727355957E-1,7.530609131E0,-2.873153687E0
9.668686202E0,7.894897461E-1,7.686233521E0,-2.976104736E0
9.673691084E0,8.756713867E-1,7.932830811E0,-3.050323486E0
9.678695967E0,1.000183105E0,8.234497070E0,-3.074279785E0
9.683700850E0,1.136642456E0,8.608001709E0,-3.079055786E0
9.688705733E0,1.273117065E0,9.010223389E0,-3.067092896E0
9.693710616E0,1.435928345E0,9.419631958E0,-3.021606445E0
9.698715498E0,1.627456665E0,9.824249268E0,-2.947372437E0
9.703720381E0,1.828567505E0,1.021690369E1,-2.851608276E0
9.708725264E0,2.044052124E0,1.056166077E1,-2.748657227E0
9.713730147E0,2.242767334E0,1.084417725E1,-2.638534546E0
9.718735030E0,2.453460693E0,1.105726624E1,-2.509246826E0
9.723739913E0,2.644989014E0,1.122964478E1,-2.367980957E0
9.728744795E0,2.838928223E0,1.133978271E1,-2.195602417E0
9.733749678E0,2.980178833E0,1.135414124E1,-1.999282837E0
9.738754561E0,3.042434692E0,1.128471375E1,-1.764648438E0
9.743759444E0,3.006515503E0,1.113148499E1,-1.539581299E0
9.748764327E0,2.862869263E0,1.095431519E1,-1.343261719E0
9.753769209E0,2.652175903E0,1.077714539E1,-1.206802368E0
9.758774092E0,2.427124023E0,1.063110352E1,-1.134963989E0
9.763778975E0,2.209243774E0,1.054251099E1,-1.089477539E0
9.768783858E0,2.012924194E0,1.050181580E1,-1.055953979E0
9.773788741E0,1.814208984E0,1.048983765E1,-1.005676270E0
9.778793623E0,1.620269775E0,1.048744202E1,-9.194946289E-1
9.783798506E0,1.423950195E0,1.048265076E1,-7.878112793E-1
9.788803389E0,1.230026245E0,1.048027039E1,-6.106414795E-1
9.793808272E0,9.929962158E-1,1.047308350E1,-4.382629395E-1
9.798813155E0,6.961212158E-1,1.043237305E1,-3.017883301E-1
9.803818038E0,3.345947266E-1,1.037731934E1,-2.084197998E-1
9.808822920E0,-7.241821289E-2,1.029112244E1,-1.581268311E-1
9.813827803E0,-4.650726318E-1,1.020732117E1,-1.605224609E-1
9.818832686E0,-8.744812012E-1,1.010437012E1,-2.227783203E-1
9.823837569E0,-1.334167480E0,1.000860596E1,-3.616485596E-1
9.828842452E0,-1.731613159E0,9.953536987E0,-5.914916992E-1
9.833847334E0,-2.033279419E0,9.941574097E0,-8.596343994E-1
9.838852217E0,-2.129043579E0,9.958328247E0,-1.127792358E0
9.843857100E0,-2.057220459E0,9.936782837E0,-1.443817139E0
9.848861983E0,-1.839340210E0,9.884109497E0,-1.855621338E0
9.853866866E0,-1.528106689E0,9.790725708E0,-2.277008057E0
9.858871748E0,-1.329376221E0,9.649475098E0,-2.628952026E0
9.863876631E0,-1.180938721E0,9.498641968E0,-2.897094727E0
9.868881514E0,-1.010955811E0,9.359771729E0,-3.071884155E0
9.873886397E0,-8.146209717E-1,9.247253418E0,-3.189193726E0
9.878891280E0,-6.757659912E-1,9.125152588E0,-3.261016846E0
9.883896163E0,-4.890136719E-1,9.029373169E0,-3.289749146E0
9.888901045E0,-2.496032715E-1,8.962341309E0,-3.213134766E0
9.893905928E0,-1.017761230E-2,8.900085449E0,-3.086242676E0
9.898910811E0,1.598052979E-1,8.861785889E0,-2.937805176E0
9.903915694E0,2.819213867E-1,8.856994629E0,-2.770202637E0
9.908920577E0,3.920440674E-1,8.912063599E0,-2.557128906E0
9.913925459E0,4.925994873E-1,9.010223389E0,-2.329681396E0
9.918930342E0,5.740051270E-1,9.177810669E0,-2.080673218E0
9.923904707E0,6.602020264E-1,9.354995728E0,-1.829284668E0
9.928909590E0,7.392120361E-1,9.584838867E0,-1.558746338E0
9.933914473E0,8.182220459E-1,9.824249268E0,-1.281021118E0
9.938919356E0,8.613128662E-1,1.002058411E1,-1.027236938E0
9.943924239E0,8.780670166E-1,1.015225220E1,-8.452758789E-1
9.948929122E0,8.445587158E-1,1.022886658E1,-7.351379395E-1
9.953934004E0,7.344207764E-1,1.025280762E1,-7.135925293E-1
9.958938887E0,5.428924561E-1,1.020492554E1,-7.590789795E-1
9.963943770E0,3.321990967E-1,1.015464783E1,-8.309020996E-1
9.968948653E0,1.191101074E-1,1.010197449E1,-8.859710693E-1
9.973953536E0,-8.439636230E-2,1.005648804E1,-9.194946289E-1
9.978958418E0,-2.088928223E-1,1.003494263E1,-9.218902588E-1
9.983963301E0,-3.262176514E-1,1.001339722E1,-9.434356689E-1
9.988968184E0,-4.531097412E-1,9.960723877E0,-9.985046387E-1
9.993973067E0,-5.895690918E-1,9.908050537E0,-1.120605469E0
9.998977950E0,-6.853332520E-1,9.841018677E0,-1.316925049E0
1.000398283E1,-7.882843018E-1,9.773971558E0,-1.551559448E0
1.000898772E1,-9.104003906E-1,9.702148438E0,-1.795761108E0
1.001399260E1,-1.022918701E0,9.630325317E0,-2.030395508E0
1.001899748E1,-1.133056641E0,9.548919678E0,-2.233901978E0
1.002400236E1,-1.255157471E0,9.472305298E0,-2.406295776E0
1.002900725E1,-1.360504150E0,9.410049438E0,-2.518814087E0
1.003401213E1,-1.429931641E0,9.376541138E0,-2.585861206E0
1.003901701E1,-1.456268311E0,9.424423218E0,-2.593032837E0
1.004402190E1,-1.410781860E0,9.520187378E0,-2.549942017E0
1.004902678E1,-1.264739990E0,9.642288208E0,-2.435012817E0
1.005403166E1,-9.056091309E-1,9.771575928E0,-2.231506348E0
1.005903654E1,-4.554901123E-1,9.848190308E0,-1.951385498E0
1.006404143E1,-8.200073242E-2,9.824249268E0,-1.678451538E0
1.006904631E1,2.364196777E-1,9.754821777E0,-1.465362549E0
1.007405119E1,5.165557861E-1,9.687789917E0,-1.333694458E0
1.007905608E1,7.655487061E-1,9.651870728E0,-1.297775269E0
1.008406096E1,1.004959106E0,9.685394287E0,-1.328903198E0
1.008906584E1,1.234802246E0,9.766784668E0,-1.383972168E0
1.009407072E1,1.455078125E0,9.850585938E0,-1.436645508E0
1.009907561E1,1.620269775E0,9.939178467E0,-1.503677368E0
1.010408049E1,1.747161865E0,1.001579285E1,-1.558746338E0
1.010908537E1,1.790267944E0,1.009240723E1,-1.611419678E0
1.011409025E1,1.747161865E0,1.011155701E1,-1.690429688E0
1.011909514E1,1.620269775E0,1.010437012E1,-1.800552368E0
1.012410002E1,1.469436646E0,1.009240723E1,-1.925048828E0
1.012910490E1,1.337753296E0,1.006127930E1,-2.078277588E0
1.013410979E1,1.220443726E0,1.002296448E1,-2.245880127E0
1.013911467E1,1.127075195E0,9.996627808E0,-2.403900146E0
1.014411955E1,1.062423706E0,9.967910767E0,-2.537963867E0
1.014912443E1,1.024124146E0,9.927200317E0,-2.624160767E0
1.015412932E1,9.953918457E-1,9.879318237E0,-2.652893066E0
1.015913420E1,9.618682861E-1,9.797912598E0,-2.643310547E0
1.016413908E1,9.283447266E-1,9.694961548E0,-2.590637207E0
1.016914396E1,8.756713867E-1,9.575256348E0,-2.516418457E0
1.017414885E1,8.038482666E-1,9.405273438E0,-2.413467407E0
1.017915373E1,7.392120361E-1,9.218521118E0,-2.317703247E0
1.018415861E1,6.937255859E-1,9.048538208E0,-2.224334717E0
1.018916350E1,6.721649170E-1,8.928817749E0,-2.102233887E0
1.019416838E1,6.769561768E-1,8.888122559E0,-2.001663208E0
1.019917326E1,6.961212158E-1,8.892913818E0,-1.896331787E0
1.020417814E1,7.104797363E-1,8.938400269E0,-1.786193848E0
1.020918303E1,7.440032959E-1,8.998245239E0,-1.688034058E0
1.021418791E1,7.535705566E-1,9.060501099E0,-1.601837158E0
1.021919279E1,7.128753662E-1,9.105987549E0,-1.534805298E0
1.022419768E1,6.434478760E-1,9.122756958E0,-1.479736328E0
1.022920256E1,5.428924561E-1,9.134719849E0,-1.453399658E0
1.023420744E1,4.255676270E-1,9.113174438E0,-1.424667358E0
1.023921232E1,3.034667969E-1,9.084442139E0,-1.417480469E0
1.024421721E1,1.813659668E-1,9.053314209E0,-1.407913208E0
1.024922209E1,7.122802734E-2,9.055709839E0,-1.400726318E0
1.025422697E1,-7.003784180E-2,9.072479248E0,-1.419876099E0
1.025923186E1,-1.945343018E-1,9.117965698E0,-1.451004028E0
1.026420622E1,-3.070526123E-1,9.204147339E0,-1.496490479E0
1.026921110E1,-4.052124023E-1,9.321472168E0,-1.534805298E0
1.027421599E1,-5.033874512E-1,9.460327148E0,-1.556350708E0
1.027922087E1,-5.752105713E-1,9.603988647E0,-1.582687378E0
1.028422575E1,-6.350555420E-1,9.730880737E0,-1.611419678E0
1.028923064E1,-6.877288818E-1,9.814682007E0,-1.649719238E0
1.029423552E1,-7.164611816E-1,9.864959717E0,-1.695205688E0
1.029924040E1,-7.236480713E-1,9.896072388E0,-1.740707397E0
1.030424528E1,-7.092895508E-1,9.917633057E0,-1.795761108E0
1.030925017E1,-6.302795410E-1,9.953536987E0,-1.862808228E0
1.031425505E1,-5.033874512E-1,9.982269287E0,-1.927444458E0
1.031925993E1,-3.285980225E-1,9.979873657E0,-2.018432617E0
1.032426482E1,-1.322784424E-1,9.975082397E0,-2.123779297E0
1.032926970E1,5.686950684E-2,9.963119507E0,-2.248275757E0
1.033427458E1,1.837615967E-1,9.908050537E0,-2.394317627E0
1.033927946E1,2.699432373E-1,9.831436157E0,-2.552337646E0
1.034428435E1,3.202209473E-1,9.759613037E0,-2.753448486E0
1.034928923E1,3.537445068E-1,9.742843628E0,-2.983291626E0
1.035429411E1,3.704986572E-1,9.809890747E0,-3.189193726E0
1.035929900E1,3.202209473E-1,9.920013428E0,-3.328063965E0
1.036430388E1,1.981201172E-1,1.001100159E1,-3.428619385E0
1.036930876E1,4.968261719E-2,1.007803345E1,-3.483673096E0
1.037431364E1,-9.875488281E-2,1.012831116E1,-3.481292725E0
1.037931853E1,-2.304382324E-1,1.014028931E1,-3.426223755E0
1.038432341E1,-3.812713623E-1,1.009957886E1,-3.332839966E0
1.038932829E1,-5.368957520E-1,1.003494263E1,-3.208343506E0
1.039433317E1,-6.973114014E-1,9.960723877E0,-3.076660156E0
