"Time (s)","Gyroscope x (rad/s)","Gyroscope y (rad/s)","Gyroscope z (rad/s)"
0.000000000E0,5.184504390E-2,1.895503327E-2,-1.451821029E-1
2.503021000E-3,5.397557095E-2,1.682450622E-2,-1.441168487E-1
5.006042000E-3,4.438820109E-2,-2.350237919E-3,-1.430515647E-1
7.509011000E-3,3.799661994E-2,-2.685129642E-2,-1.494431496E-1
1.001197900E-2,3.693135455E-2,-4.922183231E-2,-1.537041962E-1
1.251494800E-2,2.627871931E-2,-7.372289151E-2,-1.558347344E-1
1.501796900E-2,2.414819226E-2,-9.396289289E-2,-1.579652727E-1
1.752093800E-2,1.988713630E-2,-1.142029092E-1,-1.579652727E-1
2.002395900E-2,1.669134758E-2,-1.387039721E-1,-1.568999887E-1
2.256239600E-2,1.562608406E-2,-1.578787118E-1,-1.537041962E-1
2.506541700E-2,1.456082053E-2,-1.759881973E-1,-1.526389420E-1
2.756843800E-2,1.775661111E-2,-1.930323988E-1,-1.494431496E-1
3.007140700E-2,1.988713630E-2,-2.111418843E-1,-1.462473571E-1
3.257437500E-2,2.521345578E-2,-2.260555774E-1,-1.377252638E-1
3.507739600E-2,2.414819226E-2,-2.409692556E-1,-1.334641874E-1
3.758036500E-2,2.414819226E-2,-2.548176944E-1,-1.249420941E-1
4.008338600E-2,2.414819226E-2,-2.644050717E-1,-1.142894551E-1
4.258635400E-2,2.521345578E-2,-2.782535255E-1,-1.025715619E-1
4.508937500E-2,2.521345578E-2,-2.952977121E-1,-9.724523872E-2
4.759234400E-2,1.882187463E-2,-3.134072125E-1,-8.978839219E-2
5.009536500E-2,1.349555701E-2,-3.293861449E-1,-8.339681476E-2
5.259651100E-2,7.123951800E-4,-3.485608995E-1,-8.339681476E-2
5.509953200E-2,-9.940239601E-3,-3.688009083E-1,-8.126629144E-2
5.760244800E-2,-2.485392801E-2,-3.943672180E-1,-8.233155310E-2
6.010552100E-2,-3.870235384E-2,-4.156724811E-1,-8.552734554E-2
6.260843800E-2,-5.681183189E-2,-4.369777441E-1,-8.978839219E-2
6.511145900E-2,-7.492130995E-2,-4.550872445E-1,-9.617997706E-2
6.761442700E-2,-9.516131878E-2,-4.689356685E-1,-1.057673544E-1
7.011744800E-2,-1.154013202E-1,-4.817188084E-1,-1.174852476E-1
7.262041700E-2,-1.303150207E-1,-4.881104231E-1,-1.292031407E-1
7.512343800E-2,-1.462939680E-1,-4.870451391E-1,-1.409210265E-1
7.762645900E-2,-1.569466144E-1,-4.870451391E-1,-1.526389420E-1
8.012937500E-2,-1.665339768E-1,-4.742619991E-1,-1.643568575E-1
8.262421900E-2,-1.771866083E-1,-4.582830369E-1,-1.782052517E-1
8.512729200E-2,-1.867739856E-1,-4.369777441E-1,-1.909884214E-1
8.763026100E-2,-1.995571405E-1,-4.071503878E-1,-2.069673836E-1
9.013322900E-2,-2.080792487E-1,-3.730619550E-1,-2.197505534E-1
9.263619800E-2,-2.240582108E-1,-3.368429840E-1,-2.346642315E-1
9.513921900E-2,-2.379066348E-1,-3.080808818E-1,-2.517084479E-1
9.764218800E-2,-2.528203130E-1,-2.793187499E-1,-2.698179185E-1
1.001451570E-1,-2.719950676E-1,-2.516218722E-1,-2.911231816E-1
1.026481770E-1,-2.869087458E-1,-2.271208465E-1,-3.113631904E-1
1.051511980E-1,-3.082140088E-1,-2.004892528E-1,-3.273421526E-1
1.076541670E-1,-3.284540474E-1,-1.781187207E-1,-3.454516530E-1
1.101571360E-1,-3.486940265E-1,-1.578787118E-1,-3.550390005E-1
1.126176040E-1,-3.689340651E-1,-1.408344954E-1,-3.699526787E-1
1.151206250E-1,-3.870435059E-1,-1.205944866E-1,-3.827358484E-1
1.176236460E-1,-4.072835445E-1,-1.088765860E-1,-3.933885098E-1
1.201266150E-1,-4.253930151E-1,-9.822395444E-2,-4.019106030E-1
1.226295840E-1,-4.317846000E-1,-9.289763123E-2,-4.051063955E-1
1.251326040E-1,-4.371109009E-1,-9.076710790E-2,-4.061716497E-1
1.276355730E-1,-4.371109009E-1,-9.076710790E-2,-4.104327261E-1
1.301385940E-1,-4.317846000E-1,-8.757131547E-2,-4.093674421E-1
1.326415630E-1,-4.435025156E-1,-9.822395444E-2,-3.987147808E-1
1.351445840E-1,-4.509593546E-1,-1.046155393E-1,-3.869968951E-1
1.376475520E-1,-4.360456467E-1,-1.088765860E-1,-3.891274333E-1
1.401505210E-1,-4.062182605E-1,-1.142029092E-1,-3.923232257E-1
1.426454690E-1,-3.678687811E-1,-1.067460626E-1,-3.987147808E-1
1.451484380E-1,-3.284540474E-1,-9.076710790E-2,-3.944537342E-1
1.476514070E-1,-2.869087458E-1,-6.413552165E-2,-3.869968951E-1
1.501544270E-1,-2.496245205E-1,-3.750393912E-2,-3.774095178E-1
1.526573960E-1,-2.155361027E-1,4.041343462E-3,-3.699526787E-1
1.551604170E-1,-1.771866083E-1,4.771714285E-2,-3.646263778E-1
1.576634380E-1,-1.452287138E-1,8.393610269E-2,-3.614305854E-1
1.601664070E-1,-1.122055352E-1,1.148287430E-1,-3.582347929E-1
1.626694270E-1,-8.557394147E-2,1.425255984E-1,-3.550390005E-1
1.651724480E-1,-6.426867098E-2,1.659613997E-1,-3.539737463E-1
1.676754170E-1,-4.615919665E-2,1.840708703E-1,-3.550390005E-1
1.701783860E-1,-3.124551103E-2,1.947235018E-1,-3.571695387E-1
1.726952610E-1,-2.059287578E-2,2.032456100E-1,-3.561042547E-1
1.751982820E-1,-5.679186434E-3,2.053761482E-1,-3.593000472E-1
1.777012500E-1,-3.548658919E-3,1.968540400E-1,-3.614305854E-1
1.802042710E-1,-4.613922443E-3,1.830056161E-1,-3.646263778E-1
1.827072400E-1,-5.679186434E-3,1.648961306E-1,-3.720832169E-1
1.852102610E-1,-1.207076758E-2,1.403950751E-1,-3.784748018E-1
1.877132290E-1,-2.272340283E-2,1.180245355E-1,-3.891274333E-1
1.902161980E-1,-3.337603435E-2,8.926242590E-2,-4.029758573E-1
1.927191670E-1,-4.189814255E-2,5.304346234E-2,-4.200201035E-1
1.952221880E-1,-5.681183189E-2,2.215082385E-2,-4.413253665E-1
1.977251570E-1,-7.385604829E-2,-6.611291785E-3,-4.636958838E-1
2.002281770E-1,-8.237814903E-2,-3.324288130E-2,-4.850011468E-1
2.027570840E-1,-9.729184210E-2,-5.454815552E-2,-5.105674863E-1
2.052601040E-1,-1.154013202E-1,-6.733131409E-2,-5.329380035E-1
2.077631250E-1,-1.281844974E-1,-6.520078331E-2,-5.585044026E-1
2.102660940E-1,-1.324455440E-1,-5.667867884E-2,-5.851359367E-1
2.127691150E-1,-1.367066056E-1,-3.430814296E-2,-6.117675304E-1
2.152720840E-1,-1.473592371E-1,-4.480765201E-3,-6.383991241E-1
2.177750520E-1,-1.782518774E-1,2.534661256E-2,-6.565085649E-1
2.202780730E-1,-1.921003014E-1,8.393610269E-2,-6.746180654E-1
2.227810940E-1,-1.931655705E-1,1.627656072E-1,-7.023149133E-1
2.252840110E-1,-1.835781932E-1,2.479866743E-1,-7.353380919E-1
2.277870840E-1,-1.601423919E-1,3.300119638E-1,-7.683612704E-1
2.302900000E-1,-1.271192282E-1,4.109719694E-1,-8.013844490E-1
2.327995840E-1,-9.303078800E-2,5.047151446E-1,-8.354728818E-1
2.353025520E-1,-4.615919665E-2,6.037846804E-1,-8.684960604E-1
2.378055730E-1,3.908185288E-3,7.092458010E-1,-9.047150016E-1
2.403085420E-1,5.397557095E-2,8.125763535E-1,-9.334771037E-1
2.428115630E-1,1.114998013E-1,9.191026688E-1,-9.611740112E-1
2.453145320E-1,1.636977047E-1,1.030955434E0,-9.878056049E-1
2.478175520E-1,2.254829854E-1,1.136416554E0,-1.008045554E0
2.503204690E-1,2.936598659E-1,1.235485911E0,-1.026155114E0
2.528234900E-1,3.618367314E-1,1.342012286E0,-1.045329809E0
2.553264590E-1,4.289483428E-1,1.461321950E0,-1.063439369E0
2.578294790E-1,4.886030853E-1,1.578500867E0,-1.079418182E0
2.603325000E-1,5.482578278E-1,1.696745157E0,-1.093266726E0
2.628266150E-1,6.015210152E-1,1.812858939E0,-1.106049776E0
2.653296360E-1,6.537189484E-1,1.918319941E0,-1.120963454E0
2.678326040E-1,7.069821358E-1,2.020585299E0,-1.138007641E0
2.703356250E-1,7.549189925E-1,2.115393639E0,-1.156117201E0
2.728386460E-1,7.996600866E-1,2.203810692E0,-1.175292015E0
2.753416150E-1,8.380095363E-1,2.291162252E0,-1.195531964E0
2.778445840E-1,8.710326552E-1,2.379579306E0,-1.217902422E0
2.803475520E-1,8.944685459E-1,2.466930866E0,-1.236011982E0
2.828505730E-1,9.179043174E-1,2.555347443E0,-1.257317185E0
2.853535940E-1,9.338832498E-1,2.638437986E0,-1.286079288E0
2.878566150E-1,9.487969875E-1,2.719398260E0,-1.314841390E0
2.903595320E-1,9.583843350E-1,2.789705753E0,-1.346799374E0
2.928619270E-1,9.615800977E-1,2.850425720E0,-1.381953120E0
2.953649480E-1,9.637106657E-1,2.899427891E0,-1.414976120E0
2.978679170E-1,9.551885128E-1,2.940973043E0,-1.449064732E0
3.003709380E-1,9.477316737E-1,2.964408875E0,-1.484218359E0
3.028739590E-1,9.328179955E-1,2.977191925E0,-1.518306732E0
3.053769270E-1,9.136433005E-1,2.975061417E0,-1.552395225E0
3.078799480E-1,8.944685459E-1,2.960147858E0,-1.582222581E0
3.103829170E-1,8.667716384E-1,2.931385517E0,-1.613115191E0
3.128859380E-1,8.358789682E-1,2.888775110E0,-1.639746785E0
3.153888540E-1,7.975295186E-1,2.832315922E0,-1.664247870E0
3.178918750E-1,7.602453232E-1,2.756682396E0,-1.691944718E0
3.203948440E-1,7.261568904E-1,2.664004564E0,-1.717511058E0
3.229135420E-1,6.846116185E-1,2.559608698E0,-1.739881516E0
3.254165110E-1,6.441315413E-1,2.445625305E0,-1.764382720E0
3.279195320E-1,6.057820916E-1,2.323120117E0,-1.786753178E0
3.304225000E-1,5.695631504E-1,2.195288420E0,-1.805927992E0
3.329255210E-1,5.301483870E-1,2.064261198E0,-1.827233315E0
3.354284900E-1,4.971251786E-1,1.930037856E0,-1.841081619E0
3.379315110E-1,4.630367458E-1,1.802206159E0,-1.844277501E0
3.404344790E-1,4.353398979E-1,1.677570343E0,-1.843212128E0
3.429375000E-1,4.087083042E-1,1.556130409E0,-1.838951111E0
3.454404170E-1,3.916640878E-1,1.443212390E0,-1.825102687E0
3.479434900E-1,3.767504096E-1,1.337751389E0,-1.805927992E0
3.504464590E-1,3.650324941E-1,1.245073318E0,-1.781426907E0
3.529360420E-1,3.607714474E-1,1.168374419E0,-1.750534296E0
3.554390110E-1,3.682283163E-1,1.107654452E0,-1.718576312E0
3.579420320E-1,3.788809478E-1,1.056521773E0,-1.686618328E0
3.604450000E-1,3.959251344E-1,1.014976382E0,-1.651464701E0
3.629480210E-1,4.182956815E-1,9.883447886E-1,-1.615245700E0
3.654509900E-1,4.417314827E-1,9.755616188E-1,-1.580092072E0
3.679540110E-1,4.672978222E-1,9.755616188E-1,-1.548134089E0
3.704569270E-1,4.822115004E-1,9.851490259E-1,-1.516176224E0
3.729600000E-1,4.992556870E-1,1.018172264E0,-1.485283613E0
3.754629690E-1,5.109736919E-1,1.067174435E0,-1.458652020E0
3.779659900E-1,5.237568021E-1,1.111915350E0,-1.434150934E0
3.804689070E-1,5.322788954E-1,1.146003842E0,-1.409649849E0
3.829796360E-1,5.344094634E-1,1.170504928E0,-1.384083629E0
3.854826570E-1,5.386704803E-1,1.191810131E0,-1.359582543E0
3.879856770E-1,5.450621247E-1,1.205658674E0,-1.336146712E0
3.904886460E-1,5.471925735E-1,1.206723928E0,-1.312710881E0
3.929916150E-1,5.418663025E-1,1.198201776E0,-1.289275169E0
3.954946360E-1,5.386704803E-1,1.182222724E0,-1.275426745E0
3.979976570E-1,5.290830731E-1,1.157721758E0,-1.251990914E0
4.005005730E-1,5.173652172E-1,1.120437503E0,-1.234946609E0
4.030036460E-1,5.120388865E-1,1.076761723E0,-1.216837287E0
4.055065630E-1,5.003210306E-1,1.026694298E0,-1.201923609E0
4.080096360E-1,4.907336235E-1,9.744963646E-1,-1.187009811E0
4.105125520E-1,4.864725769E-1,9.201679826E-1,-1.168900371E0
4.130399480E-1,4.822115004E-1,8.690352440E-1,-1.150790930E0
4.155429690E-1,4.832767546E-1,8.189678788E-1,-1.132681370E0
4.180459380E-1,4.854072928E-1,7.689005136E-1,-1.116702437E0
4.205489070E-1,4.928641319E-1,7.220289111E-1,-1.104984641E0
4.230519270E-1,5.035167933E-1,6.719615459E-1,-1.093266726E0
4.255548960E-1,5.216262341E-1,6.272204518E-1,-1.081548810E0
4.280579170E-1,5.429315567E-1,5.899362564E-1,-1.067700267E0
4.305608340E-1,5.610410571E-1,5.526520610E-1,-1.053851962E0
4.330639070E-1,5.780852437E-1,5.292162299E-1,-1.042134047E0
4.355668230E-1,6.015210152E-1,5.164331198E-1,-1.022959232E0
4.380698960E-1,6.185652614E-1,5.143025517E-1,-1.001653910E0
4.405728650E-1,6.292178631E-1,5.270856619E-1,-9.771529436E-1
4.430669790E-1,6.420010924E-1,5.526520610E-1,-9.462602735E-1
4.455700000E-1,6.505231857E-1,5.814141631E-1,-9.153676629E-1
4.480729690E-1,6.622410417E-1,6.037846804E-1,-8.866055012E-1
4.505759900E-1,6.782199740E-1,6.101762652E-1,-8.716918230E-1
4.530790110E-1,6.952642798E-1,6.016541719E-1,-8.716918230E-1
4.555819790E-1,7.123084664E-1,5.771530867E-1,-8.748875856E-1
4.580850000E-1,7.282873988E-1,5.451951623E-1,-8.887360692E-1
4.605879170E-1,7.453316450E-1,5.057804585E-1,-9.036497474E-1
4.630909900E-1,7.613105774E-1,4.653004408E-1,-9.153676629E-1
4.655939590E-1,7.708979249E-1,4.269509614E-1,-9.238897562E-1
4.680969790E-1,7.772895098E-1,3.949930370E-1,-9.345424175E-1
4.705998960E-1,7.740937471E-1,3.779488206E-1,-9.441297650E-1
4.731135420E-1,7.655716538E-1,3.790141046E-1,-9.622392654E-1
4.756165110E-1,7.485274076E-1,3.854056597E-1,-9.760876894E-1
4.781195320E-1,7.336137295E-1,3.981888294E-1,-9.941971302E-1
4.806225000E-1,7.218958139E-1,4.013846219E-1,-1.012306571E0
4.831254690E-1,7.282873988E-1,3.630351126E-1,-1.034677148E0
4.856284900E-1,7.900726795E-1,2.213550955E-1,-1.050656080E0
4.881315110E-1,8.539884686E-1,1.126982197E-1,-1.059178233E0
4.906344270E-1,8.635758162E-1,1.265466362E-1,-1.058112860E0
4.931375000E-1,8.337485194E-1,2.053761482E-1,-1.075157166E0
4.956404170E-1,7.900726795E-1,3.150982559E-1,-1.101788759E0
4.981434380E-1,7.357442379E-1,4.322772324E-1,-1.136942506E0
5.006464070E-1,6.835463643E-1,5.324120522E-1,-1.183814049E0
5.031412500E-1,6.398705244E-1,6.293510199E-1,-1.227489829E0
5.056442710E-1,5.929989219E-1,7.188331485E-1,-1.269035101E0
5.081472400E-1,5.503883958E-1,7.997931242E-1,-1.299927711E0
5.106502610E-1,5.077778697E-1,8.637089729E-1,-1.325494170E0
5.131532290E-1,4.619714916E-1,9.084500670E-1,-1.341472983E0
5.156562500E-1,4.119041264E-1,9.350816607E-1,-1.353190899E0
5.181592710E-1,3.469230235E-1,9.574521184E-1,-1.359582543E0
5.206621880E-1,2.744851112E-1,9.521258473E-1,-1.367039442E0
5.231652090E-1,2.041777223E-1,9.222984314E-1,-1.372365713E0
5.256681770E-1,1.296092868E-1,8.775574565E-1,-1.381953120E0
5.281711980E-1,5.717135966E-2,8.083152771E-1,-1.392605662E0
5.306742190E-1,-6.744449958E-3,7.326815724E-1,-1.403258324E0
5.331631250E-1,-5.894235894E-2,6.634394526E-1,-1.412845731E0
5.356661460E-1,-9.942237288E-2,5.995236039E-1,-1.419237256E0
5.381691150E-1,-1.217928976E-1,5.633046627E-1,-1.420302629E0
5.406721360E-1,-1.367066056E-1,5.526520610E-1,-1.423498392E0
5.431751570E-1,-1.430981755E-1,5.569130778E-1,-1.418172002E0
5.456781250E-1,-1.228581667E-1,5.739573240E-1,-1.409649849E0
5.481810940E-1,-8.237814903E-2,5.931320786E-1,-1.402193069E0
5.506840630E-1,-1.846234873E-2,6.080456972E-1,-1.386214137E0
5.531870840E-1,7.421558350E-2,6.133720875E-1,-1.361712933E0
5.556900520E-1,1.924598217E-1,6.112415195E-1,-1.324428797E0
5.581931250E-1,3.160303831E-1,6.165678501E-1,-1.278622508E0
5.606960420E-1,4.257525206E-1,6.240246892E-1,-1.239207745E0
5.631539590E-1,5.216262341E-1,6.368078589E-1,-1.196597099E0
5.656569790E-1,5.919336677E-1,6.698310375E-1,-1.165704608E0
5.681599480E-1,6.590452790E-1,6.922015548E-1,-1.132681370E0
5.706629690E-1,7.368094921E-1,7.103110552E-1,-1.093266726E0
5.731659380E-1,8.092474341E-1,7.369426489E-1,-1.062373996E0
5.756689590E-1,8.934032321E-1,7.561173439E-1,-1.026155114E0
5.781719270E-1,9.807548523E-1,7.752920985E-1,-9.899360538E-1
5.806749480E-1,1.058519006E0,8.029889464E-1,-9.569129348E-1
5.831779690E-1,1.133087397E0,8.392079473E-1,-9.249550104E-1
5.856809380E-1,1.197003245E0,8.914058208E-1,-9.025844336E-1
5.881839070E-1,1.251331687E0,9.499952793E-1,-8.940623403E-1
5.906868750E-1,1.299268484E0,1.016041756E0,-8.898013234E-1
5.932070320E-1,1.349335790E0,1.085283756E0,-8.876708150E-1
5.957100520E-1,1.388750672E0,1.150264859E0,-8.876708150E-1
5.982130210E-1,1.414316893E0,1.220572233E0,-8.983234167E-1
6.007160420E-1,1.432426453E0,1.280227065E0,-9.100412726E-1
6.032190110E-1,1.444144368E0,1.329229236E0,-9.217591882E-1
6.057220320E-1,1.455862164E0,1.366513371E0,-9.334771037E-1
6.082250000E-1,1.464384317E0,1.398471355E0,-9.462602735E-1
6.107280210E-1,1.454797029E0,1.416580796E0,-9.601086974E-1
6.132309900E-1,1.442013860E0,1.429363966E0,-9.718265533E-1
6.157340110E-1,1.419643402E0,1.429363966E0,-9.782181978E-1
6.182369790E-1,1.389815927E0,1.408058763E0,-9.792834520E-1
6.207400000E-1,1.355727434E0,1.371839762E0,-9.750223756E-1
6.232482820E-1,1.313117027E0,1.318576574E0,-9.675655365E-1
6.257513020E-1,1.261984229E0,1.254660726E0,-9.590434432E-1
6.282543230E-1,1.202329516E0,1.185418606E0,-9.473255277E-1
6.307573440E-1,1.134152651E0,1.099132299E0,-9.398686886E-1
6.332603130E-1,1.065975904E0,1.014976382E0,-9.345424175E-1
6.357633340E-1,9.924727678E-1,9.286900759E-1,-9.302813411E-1
6.382662500E-1,9.147085547E-1,8.445342183E-1,-9.281507730E-1
6.407692710E-1,8.444011211E-1,7.646394372E-1,-9.238897562E-1
6.432722400E-1,7.708979249E-1,6.911363006E-1,-9.121718407E-1
6.457752610E-1,7.037863731E-1,6.240246892E-1,-8.929970860E-1
6.482782820E-1,6.388052702E-1,5.686309934E-1,-8.631697297E-1
6.507812500E-1,5.812810659E-1,5.270856619E-1,-8.290812969E-1
6.532885940E-1,5.344094634E-1,4.972583055E-1,-7.886012793E-1
6.557916150E-1,4.992556870E-1,4.727572501E-1,-7.470560074E-1
6.582945320E-1,4.768851995E-1,4.684962034E-1,-7.033802271E-1
6.607975520E-1,4.694283307E-1,4.780835807E-1,-6.618349552E-1
6.633005210E-1,4.630367458E-1,5.047151446E-1,-6.170938611E-1
6.658035940E-1,4.715588689E-1,5.462604165E-1,-5.680916905E-1
6.683065110E-1,4.886030853E-1,5.920667648E-1,-5.105674863E-1
6.708095320E-1,5.120388865E-1,6.421341300E-1,-4.551737905E-1
6.733125520E-1,5.439968109E-1,6.868752241E-1,-4.136284888E-1
6.758155210E-1,5.802158117E-1,7.135068178E-1,-3.859316409E-1
6.783185420E-1,6.153694987E-1,7.358773947E-1,-3.688874245E-1
6.808215110E-1,6.483926177E-1,7.561173439E-1,-3.550390005E-1
6.833186980E-1,6.686326861E-1,7.742268443E-1,-3.443863690E-1
6.858217190E-1,6.824810505E-1,7.827489376E-1,-3.347989917E-1
6.883247400E-1,6.963294744E-1,7.934015989E-1,-3.252116144E-1
6.908277610E-1,7.059168220E-1,7.965974212E-1,-3.209505677E-1
6.933306770E-1,7.272221446E-1,7.550520897E-1,-3.198852837E-1
6.958337500E-1,7.847463489E-1,6.272204518E-1,-3.124284744E-1
6.983367190E-1,8.316179514E-1,5.228246450E-1,-2.985800207E-1
7.008396880E-1,8.454663754E-1,4.876709580E-1,-2.932537198E-1
7.033426570E-1,8.230958581E-1,4.929972887E-1,-2.985800207E-1
7.058456770E-1,7.985948324E-1,5.057804585E-1,-3.134937286E-1
7.083486460E-1,7.645063996E-1,5.079109669E-1,-3.422558308E-1
7.108516670E-1,7.293527126E-1,4.919320047E-1,-3.731484711E-1
7.133423960E-1,6.952642798E-1,4.674309492E-1,-3.976495564E-1
7.158454690E-1,6.665021181E-1,4.376035631E-1,-4.178895354E-1
7.183483860E-1,6.313484311E-1,4.099067450E-1,-4.306727052E-1
7.208514070E-1,6.068474054E-1,3.800793290E-1,-4.306727052E-1
7.233544270E-1,5.823462605E-1,3.438603878E-1,-4.253463745E-1
7.258573960E-1,5.674325824E-1,2.980540693E-1,-4.221506119E-1
7.283603650E-1,5.557146668E-1,2.490519285E-1,-4.200201035E-1
7.308633860E-1,5.525189042E-1,1.968540400E-1,-4.200201035E-1
7.333663540E-1,5.450621247E-1,1.435908675E-1,-4.253463745E-1
7.358693750E-1,5.376052260E-1,9.458874166E-2,-4.296074510E-1
7.383723960E-1,5.226915479E-1,4.771714285E-2,-4.370642900E-1
7.408753650E-1,5.024515390E-1,1.256345212E-2,-4.519779682E-1
7.433724480E-1,4.843420088E-1,8.455526549E-4,-4.754137695E-1
7.458754690E-1,4.641020298E-1,-1.284974394E-3,-4.956537783E-1
7.483784900E-1,4.406662285E-1,2.976079006E-3,-5.169590712E-1
7.508814590E-1,4.246872663E-1,-1.193760894E-2,-5.329380035E-1
7.533844270E-1,4.257525206E-1,-5.028710142E-2,-5.499822497E-1
7.558874480E-1,4.236220121E-1,-8.331026137E-2,-5.638306737E-1
7.583904170E-1,4.097735882E-1,-7.052710652E-2,-5.734180808E-1
7.608934380E-1,3.735546172E-1,-2.152498066E-2,-5.872664452E-1
7.633964590E-1,3.373356760E-1,2.747714147E-2,-6.032453775E-1
7.658994270E-1,3.128345907E-1,5.517398566E-2,-6.202896237E-1
7.684023960E-1,2.904640734E-1,7.434873283E-2,-6.394643784E-1
7.709054170E-1,2.691587806E-1,9.991505742E-2,-6.479864717E-1
7.734365630E-1,2.574408948E-1,1.212203354E-1,-6.501170397E-1
7.759395840E-1,2.542451322E-1,1.478519291E-1,-6.458560228E-1
7.784425520E-1,2.638324797E-1,1.702224463E-1,-6.309422851E-1
7.809455730E-1,2.840724885E-1,1.904624552E-1,-6.075065136E-1
7.834485420E-1,3.085735440E-1,2.021803558E-1,-5.862011909E-1
7.859515630E-1,3.394661844E-1,2.181593180E-1,-5.659612417E-1
7.884545320E-1,3.650324941E-1,2.341382504E-1,-5.467864871E-1
7.909575520E-1,3.948598802E-1,2.479866743E-1,-5.361338258E-1
7.934605210E-1,4.268178046E-1,2.554435134E-1,-5.371990800E-1
7.959635420E-1,4.566451609E-1,2.629003525E-1,-5.414600968E-1
7.984665110E-1,4.747546315E-1,2.724877298E-1,-5.435906649E-1
8.009695320E-1,5.013862848E-1,2.895319462E-1,-5.446559191E-1
8.034576570E-1,5.205609798E-1,3.033803701E-1,-5.499822497E-1
8.059606770E-1,5.397357345E-1,3.193593323E-1,-5.489169955E-1
8.084636460E-1,5.599757433E-1,3.385340869E-1,-5.435906649E-1
8.109666670E-1,5.727589130E-1,3.630351126E-1,-5.350685716E-1
8.134696360E-1,5.887379050E-1,3.917972445E-1,-5.276117325E-1
8.159726570E-1,6.015210152E-1,4.226898849E-1,-5.073717237E-1
8.184756250E-1,6.111084223E-1,4.567783177E-1,-4.892622232E-1
8.209786460E-1,6.302831769E-1,4.898014665E-1,-4.658263922E-1
8.234816150E-1,6.473273635E-1,5.281509757E-1,-4.402600825E-1
8.259846360E-1,6.696978807E-1,5.696962476E-1,-4.136284888E-1
8.284876570E-1,7.016558051E-1,6.069804430E-1,-3.838011324E-1
8.309906250E-1,7.389400601E-1,6.453299522E-1,-3.561042547E-1
8.335274480E-1,7.740937471E-1,6.794183850E-1,-3.305379450E-1
8.360304690E-1,8.092474341E-1,7.198984027E-1,-3.060368896E-1
8.385334380E-1,8.454663754E-1,7.635742426E-1,-2.783400416E-1
8.410364590E-1,8.742284775E-1,8.061847687E-1,-2.485126555E-1
8.435394270E-1,8.923379779E-1,8.402732015E-1,-2.218810618E-1
8.460424480E-1,9.221653938E-1,8.370773792E-1,-1.952494979E-1
8.485454170E-1,9.562538266E-1,7.965974212E-1,-1.675526202E-1
8.510484380E-1,9.882116914E-1,7.497257590E-1,-1.483778954E-1
8.535514590E-1,9.850159287E-1,7.646394372E-1,-1.249420941E-1
8.560544270E-1,9.583843350E-1,7.880752683E-1,-1.047020853E-1
8.585573960E-1,9.285569191E-1,8.051195145E-1,-9.937576205E-2
8.610604170E-1,9.008600712E-1,8.051195145E-1,-9.617997706E-2
8.635470320E-1,8.657063842E-1,8.061847687E-1,-9.724523872E-2
8.660500520E-1,8.177695870E-1,8.051195145E-1,-9.298418462E-2
8.685530210E-1,7.772895098E-1,8.083152771E-1,-8.872313052E-2
8.710560420E-1,7.506579161E-1,8.051195145E-1,-8.765786886E-2
8.735590110E-1,7.421358228E-1,8.072500229E-1,-8.233155310E-2
8.760620320E-1,7.357442379E-1,8.147068620E-1,-7.700523734E-2
8.785650000E-1,7.463968992E-1,8.360121250E-1,-7.167891413E-2
8.810680210E-1,7.677021623E-1,8.722310662E-1,-6.102628261E-2
8.835709900E-1,7.975295186E-1,9.148415923E-1,-5.463469774E-2
8.860740110E-1,8.337485194E-1,9.606479406E-1,-5.143890902E-2
8.885769790E-1,8.784895539E-1,1.017107010E0,-4.291680455E-2
8.910800000E-1,9.253611565E-1,1.075696468E0,-3.119890578E-2
8.935514590E-1,9.754285812E-1,1.118306994E0,-2.054627053E-2
8.960545320E-1,1.036148429E0,1.144938588E0,-1.095889788E-2
8.985574480E-1,1.100064278E0,1.154525995E0,-1.308942493E-2
9.010605210E-1,1.160784245E0,1.146003842E0,-2.480732463E-2
9.035634380E-1,1.223634839E0,1.151330233E0,-4.930838197E-2
9.060664590E-1,1.289681196E0,1.159852266E0,-7.913576066E-2
9.085694270E-1,1.358923197E0,1.141742826E0,-1.110936701E-1
9.110724480E-1,1.423904300E0,1.114045978E0,-1.377252638E-1
9.135754170E-1,1.485689640E0,1.185418606E0,-1.409210265E-1
9.160784380E-1,1.549605489E0,1.265313387E0,-1.302684098E-1
9.185814070E-1,1.612455964E0,1.286618590E0,-1.302684098E-1
9.210844270E-1,1.674241185E0,1.289814472E0,-1.355947256E-1
9.235968230E-1,1.741352916E0,1.253595471E0,-1.483778954E-1
9.260998440E-1,1.809529662E0,1.190744996E0,-1.654221117E-1
9.286027610E-1,1.877706528E0,1.127894402E0,-1.888578832E-1
9.311057820E-1,1.944818139E0,1.082087994E0,-2.208158076E-1
9.336087500E-1,2.009799242E0,1.062913299E0,-2.612958252E-1
9.361118230E-1,2.096085787E0,1.079957485E0,-3.017758429E-1
9.386147400E-1,2.157871008E0,1.059717536E0,-3.443863690E-1
9.411177610E-1,2.211134195E0,1.006454349E0,-3.742137551E-1
9.436207290E-1,2.254810095E0,9.265595078E-1,-3.869968951E-1
9.461237500E-1,2.286767960E0,8.083152771E-1,-3.699526787E-1
9.486267190E-1,2.332574368E0,7.262899876E-1,-3.529084921E-1
9.511297400E-1,2.374119520E0,6.591783762E-1,-3.518432081E-1
9.536231770E-1,2.408208132E0,5.888709426E-1,-3.603653014E-1
9.561262500E-1,2.431643724E0,5.143025517E-1,-3.720832169E-1
9.586291670E-1,2.430578470E0,4.152330458E-1,-3.720832169E-1
9.611322400E-1,2.407142639E0,2.842056155E-1,-3.475821614E-1
9.636351570E-1,2.363466740E0,1.435908675E-1,-2.975147665E-1
9.661381770E-1,2.308073282E0,1.895503327E-2,-2.442516088E-1
9.686411460E-1,2.256940365E0,-6.200499833E-2,-1.984452605E-1
9.711441670E-1,2.203677177E0,-9.609343112E-2,-1.675526202E-1
9.736471360E-1,2.151479483E0,-9.076710790E-2,-1.377252638E-1
9.761501570E-1,2.098216295E0,-6.520078331E-2,-1.121589318E-1
9.786531250E-1,2.047083616E0,-3.217761591E-2,-8.233155310E-2
9.811561460E-1,1.988494039E0,1.910816412E-3,-4.504732788E-2
9.837256250E-1,1.932035089E0,2.641187608E-2,-4.567317199E-3
9.862286460E-1,1.872380257E0,4.558661953E-2,4.763059691E-2
9.887315630E-1,1.814856172E0,5.623925105E-2,1.094158739E-1
9.912346360E-1,1.766919255E0,4.665188119E-2,1.754622161E-1
9.937375520E-1,1.723243475E0,2.428135090E-2,2.532264590E-1
9.962405730E-1,1.685959101E0,-1.193760894E-2,3.395127952E-1
9.987435420E-1,1.655066609E0,-7.052710652E-2,4.247338772E-1
1.001246563E0,1.629500151E0,-1.418997496E-1,5.174117684E-1
1.003749532E0,1.608194947E0,-2.217945158E-1,6.111549735E-1
1.006252552E0,1.595411777E0,-3.070156276E-1,6.953108311E-1
1.008755573E0,1.585824370E0,-3.964977562E-1,7.741402984E-1
1.011258542E0,1.584759235E0,-4.881104231E-1,8.423171639E-1
1.013728282E0,1.597542286E0,-5.541567206E-1,9.019718766E-1
1.016231302E0,1.611390829E0,-5.914409757E-1,9.424519539E-1
1.018734271E0,1.632695913E0,-5.967673063E-1,9.712139964E-1
1.021237292E0,1.657196999E0,-5.754620433E-1,9.882582426E-1
1.023740313E0,1.675306559E0,-5.392430425E-1,9.989108443E-1
1.026243282E0,1.680632830E0,-4.870451391E-1,1.006367803E0
1.028746302E0,1.680632830E0,-4.252598584E-1,1.009563446E0
1.031249271E0,1.674241185E0,-3.506914079E-1,1.010628819E0
1.033752292E0,1.662523389E0,-2.697314024E-1,1.009563446E0
1.036255313E0,1.643348694E0,-1.855755597E-1,1.006367803E0
1.038758282E0,1.625239134E0,-1.014197469E-1,1.005302429E0
1.041261354E0,1.607129693E0,-2.685129642E-2,1.010628819E0
1.043764375E0,1.585824370E0,3.173819184E-2,1.012759328E0
1.046267448E0,1.564519048E0,7.647926360E-2,1.019150853E0
1.048770417E0,1.545344353E0,1.116329581E-1,1.023411989E0
1.051273386E0,1.532561183E0,1.286771744E-1,1.027673006E0
1.053776407E0,1.514451742E0,1.414603442E-1,1.032999277E0
1.056279375E0,1.501668572E0,1.553087533E-1,1.035129905E0
1.058782396E0,1.498472810E0,1.787445694E-1,1.032999277E0
1.061285417E0,1.497407556E0,2.096371949E-1,1.024477243E0
1.063788386E0,1.501668572E0,2.543782592E-1,1.006367803E0
1.066291459E0,1.514451742E0,3.129677474E-1,9.839972258E-1
1.068794375E0,1.536822319E0,3.832751513E-1,9.520392418E-1
1.071297396E0,1.562388539E0,4.503867328E-1,9.190161228E-1
1.073827292E0,1.581563354E0,5.004541278E-1,8.913192749E-1
1.076330261E0,1.599672914E0,5.334773064E-1,8.721445799E-1
1.078833282E0,1.616717100E0,5.569130778E-1,8.582960963E-1
1.081336250E0,1.620978117E0,5.696962476E-1,8.529698253E-1
1.083839271E0,1.632695913E0,5.760878325E-1,8.519045115E-1
1.086342292E0,1.643348694E0,5.803488493E-1,8.593613505E-1
1.088845261E0,1.652935982E0,5.931320786E-1,8.657529354E-1
1.091348282E0,1.662523389E0,6.091110110E-1,8.742750287E-1
1.093851250E0,1.674241185E0,6.261551976E-1,8.859929442E-1
1.096354323E0,1.685959101E0,6.453299522E-1,8.998413682E-1
1.098857292E0,1.694481254E0,6.687657237E-1,9.190161228E-1
1.101360261E0,1.705133915E0,6.836794615E-1,9.371256232E-1
1.103835938E0,1.720047593E0,6.964625716E-1,9.605613947E-1
1.106339011E0,1.726439238E0,7.007237077E-1,9.839972258E-1
1.108841927E0,1.737091780E0,7.017889619E-1,1.008498192E0
1.111345000E0,1.758397102E0,7.017889619E-1,1.034064651E0
1.113847969E0,1.776506662E0,7.049847245E-1,1.055369854E0
1.116350990E0,1.792485476E0,7.145720720E-1,1.077740431E0
1.118853959E0,1.806333899E0,7.326815724E-1,1.093719363E0
1.121356927E0,1.829769850E0,7.646394372E-1,1.105437279E0
1.123860000E0,1.853205562E0,8.093805313E-1,1.108633041E0
1.126362969E0,1.873445630E0,8.722310662E-1,1.107567787E0
1.128865938E0,1.886228681E0,9.467995763E-1,1.105437279E0
1.131368959E0,1.894750714E0,1.026694298E0,1.102241516E0
1.133874167E0,1.896881342E0,1.108719587E0,1.099045634E0
1.136377188E0,1.900077224E0,1.189679623E0,1.094784617E0
1.138880209E0,1.897946596E0,1.268509150E0,1.091588736E0
1.141383229E0,1.896881342E0,1.342012286E0,1.085197330E0
1.143886198E0,1.895816088E0,1.405928254E0,1.082001448E0
1.146389219E0,1.895816088E0,1.459191442E0,1.074544549E0
1.148892188E0,1.897946596E0,1.500736594E0,1.068153024E0
1.151395157E0,1.900077224E0,1.520976663E0,1.063892007E0
1.153898229E0,1.904338121E0,1.507128119E0,1.060696244E0
1.156401198E0,1.906468630E0,1.464517713E0,1.053239226E0
1.158904219E0,1.909664512E0,1.398471355E0,1.045782447E0
1.161407188E0,1.913925529E0,1.317511320E0,1.036195040E0
1.163879844E0,1.909664512E0,1.235485911E0,1.022346735E0
1.166382865E0,1.893685579E0,1.158787012E0,1.012759328E0
1.168885782E0,1.875576138E0,1.093805909E0,9.978456497E-1
1.171388802E0,1.855336070E0,1.040542841E0,9.839972258E-1
1.173891823E0,1.825508714E0,1.007519603E0,9.701487422E-1
1.176394844E0,1.790354967E0,9.798226953E-1,9.520392418E-1
1.178897865E0,1.750940204E0,9.627785087E-1,9.339298010E-1
1.181400834E0,1.711525559E0,9.638437629E-1,9.094287157E-1
1.183903802E0,1.674241185E0,9.840837121E-1,8.742750287E-1
1.186406875E0,1.643348694E0,1.020302773E0,8.305992484E-1
1.188909792E0,1.606064320E0,1.057587028E0,7.837277055E-1
1.191412865E0,1.569845438E0,1.083153367E0,7.421823740E-1
1.193911250E0,1.526169538E0,1.090610266E0,7.080939412E-1
1.196414271E0,1.478232861E0,1.073565960E0,6.718750000E-1
1.198917240E0,1.429230571E0,1.034151196E0,6.367212534E-1
1.201420261E0,1.383424401E0,9.798226953E-1,6.036981344E-1
1.203923282E0,1.340813756E0,9.137763381E-1,5.674791336E-1
1.206426302E0,1.300333738E0,8.413384557E-1,5.280644298E-1
1.208929271E0,1.259853840E0,7.603784204E-1,4.843886197E-1
1.211432292E0,1.214047432E0,6.815489531E-1,4.385823309E-1
1.213935261E0,1.168241143E0,6.037846804E-1,3.863843977E-1
1.216438334E0,1.118173718E0,5.270856619E-1,3.320559561E-1
1.218941250E0,1.071302176E0,4.589088261E-1,2.745317221E-1
1.221444271E0,1.021234751E0,3.981888294E-1,2.148769796E-1
1.223990104E0,9.669064283E-1,3.449256420E-1,1.530916989E-1
1.226493177E0,9.200348258E-1,2.927277386E-1,9.663271904E-2
1.228996146E0,8.710326552E-1,2.458561510E-1,3.697796166E-2
1.231499115E0,8.273568749E-1,1.947235018E-1,-1.948100701E-2
1.234002136E0,7.826158404E-1,1.414603442E-1,-7.700523734E-2
1.236505104E0,7.410705686E-1,8.926242590E-2,-1.292031407E-1
1.239008125E0,7.176347375E-1,3.919503465E-2,-1.750094891E-1
1.241511146E0,6.973947287E-1,-1.726392657E-2,-2.208158076E-1
1.244014115E0,6.782199740E-1,-7.691868395E-2,-2.581000328E-1
1.246517188E0,6.611757874E-1,-1.344429106E-1,-2.889926434E-1
1.249020104E0,6.494579315E-1,-1.909018755E-1,-3.166895211E-1
1.251523125E0,6.409358382E-1,-2.462955862E-1,-3.401253223E-1
1.254025677E0,6.409358382E-1,-2.931671739E-1,-3.550390005E-1
1.256528698E0,6.430662870E-1,-3.293861449E-1,-3.624958694E-1
1.259031615E0,6.473273635E-1,-3.528219461E-1,-3.763442934E-1
1.261534636E0,6.526536942E-1,-3.666703701E-1,-3.891274333E-1
1.264037657E0,6.611757874E-1,-3.719966710E-1,-4.008453488E-1
1.266540625E0,6.696978807E-1,-3.751924932E-1,-4.125632346E-1
1.269043646E0,6.771547794E-1,-3.741272092E-1,-4.200201035E-1
1.271546667E0,6.814157963E-1,-3.645398319E-1,-4.242811501E-1
1.274049636E0,6.888726354E-1,-3.517566919E-1,-4.274769127E-1
1.276552657E0,6.995252967E-1,-3.432345688E-1,-4.232158661E-1
1.279055677E0,7.144389749E-1,-3.432345688E-1,-4.104327261E-1
1.281558646E0,7.314831614E-1,-3.411040306E-1,-3.923232257E-1
1.284075625E0,7.485274076E-1,-3.474956453E-1,-3.731484711E-1
1.286578698E0,7.677021623E-1,-3.549524546E-1,-3.529084921E-1
1.289081615E0,7.868769169E-1,-3.570830226E-1,-3.294726610E-1
1.291584636E0,8.103126884E-1,-3.464303613E-1,-3.156242371E-1
1.294087657E0,8.326832056E-1,-3.229945600E-1,-2.975147665E-1
1.296590625E0,8.625105619E-1,-2.963629961E-1,-2.772747576E-1
1.299093646E0,8.923379779E-1,-2.739924490E-1,-2.591652870E-1
1.301596667E0,9.296222329E-1,-2.484261096E-1,-2.410558164E-1
1.304099636E0,9.647759199E-1,-2.196639925E-1,-2.208158076E-1
1.306602657E0,9.956685305E-1,-1.781187207E-1,-1.995105445E-1
1.309105625E0,1.029756904E0,-1.248555407E-1,-1.782052517E-1
1.311608646E0,1.060649395E0,-7.159236819E-2,-1.558347344E-1
1.314114479E0,1.097933769E0,-1.406813599E-2,-1.238768250E-1
1.316617500E0,1.124565363E0,3.280345351E-2,-9.404944628E-2
1.319120521E0,1.150131583E0,7.541399449E-2,-5.889575556E-2
1.321623490E0,1.172502160E0,1.126982197E-1,-2.374206111E-2
1.324126511E0,1.193807364E0,1.467866600E-1,1.034637261E-2
1.326629479E0,1.214047432E0,1.819403470E-1,4.017375410E-2
1.329132500E0,1.224700093E0,2.160287946E-1,6.787060201E-2
1.331635469E0,1.226830602E0,2.426603585E-1,9.876324236E-2
1.334138490E0,1.220438957E0,2.671613991E-1,1.221990511E-1
1.336641511E0,1.215112686E0,2.788793147E-1,1.477653682E-1
1.339144479E0,1.197003245E0,2.810098529E-1,1.712011695E-1
1.341647500E0,1.173567414E0,2.778140604E-1,1.882453859E-1
1.344143959E0,1.153327465E0,2.660961449E-1,2.010285556E-1
1.346646979E0,1.123499990E0,2.415951043E-1,2.106159329E-1
1.349149948E0,1.093672633E0,2.213550955E-1,2.180727422E-1
1.351652969E0,1.056388497E0,1.915277243E-1,2.233990729E-1
1.354155990E0,1.016973615E0,1.638308614E-1,2.276601195E-1
1.356658959E0,9.743632674E-1,1.371992826E-1,2.308559120E-1
1.359162032E0,9.274916649E-1,1.148287430E-1,2.308559120E-1
1.361665000E0,8.742284775E-1,9.032768756E-2,2.340517044E-1
1.364167969E0,8.209652901E-1,7.115294784E-2,2.351169586E-1
1.366670990E0,7.655716538E-1,5.410872400E-2,2.340517044E-1
1.369173959E0,7.112432122E-1,3.919503465E-2,2.340517044E-1
1.371677032E0,6.622410417E-1,2.215082385E-2,2.255296111E-1
1.374169896E0,6.164346933E-1,4.041343462E-3,2.191380262E-1
1.376672917E0,5.738241673E-1,-1.513339952E-2,2.138116956E-1
1.379175886E0,5.301483870E-1,-3.643867373E-2,2.106159329E-1
1.381678907E0,4.886030853E-1,-5.028710142E-2,2.042243183E-1
1.384181927E0,4.523841143E-1,-5.454815552E-2,1.957022250E-1
1.386684896E0,4.119041264E-1,-5.028710142E-2,1.903759241E-1
1.389187917E0,3.671630323E-1,-3.856920078E-2,1.797232628E-1
1.391690938E0,3.330746293E-1,-8.741818368E-3,1.669400930E-1
1.394193907E0,2.979209125E-1,2.321608737E-2,1.552222073E-1
1.396696927E0,2.670282722E-1,4.239082709E-2,1.413737833E-1
1.399199896E0,2.361356169E-1,5.517398566E-2,1.339169443E-1
1.401702917E0,2.126998305E-1,6.050030515E-2,1.275253594E-1
1.404179011E0,1.945903450E-1,6.156557426E-2,1.190032437E-1
1.406682032E0,1.775461286E-1,6.050030515E-2,1.126116663E-1
1.409185000E0,1.679587662E-1,5.623925105E-2,1.051548272E-1
1.411688021E0,1.477187574E-1,4.558661953E-2,9.769798070E-2
1.414191042E0,1.317398101E-1,3.812977299E-2,8.704534918E-2
1.416694011E0,1.200219095E-1,3.173819184E-2,7.319691777E-2
1.419197032E0,1.019124314E-1,2.321608737E-2,8.917587250E-2
1.421700052E0,9.232506156E-2,1.043292321E-2,8.491481841E-2
1.424203021E0,8.593347669E-2,-3.415501444E-3,7.426217943E-2
1.426706042E0,8.167242259E-2,-9.807081893E-3,6.467480958E-2
1.429209011E0,7.847663760E-2,-1.087234542E-2,5.082638562E-2
1.431712032E0,7.101979107E-2,-3.415501444E-3,3.697796166E-2
1.434205261E0,6.569347531E-2,1.469397917E-2,1.993374154E-2
1.436708334E0,6.036715582E-2,3.599924594E-2,-2.436790615E-3
1.439211302E0,6.143241748E-2,5.623925105E-2,-1.521995198E-2
1.441714271E0,6.249767914E-2,7.221820951E-2,-2.906837873E-2
1.444217292E0,7.315032184E-2,8.500136435E-2,-3.865575045E-2
1.446720313E0,8.486821502E-2,9.245821834E-2,-3.865575045E-2
1.449223282E0,1.114998013E-1,9.352348000E-2,-3.759048507E-2
1.451726354E0,1.360008568E-1,8.500136435E-2,-3.119890578E-2
1.454229271E0,1.658282280E-1,6.689189374E-2,-2.587258816E-2
1.456732292E0,1.956556141E-1,4.132556543E-2,-1.415468846E-2
1.459235313E0,2.318745703E-1,1.682450622E-2,-3.062629839E-4
1.461738334E0,2.744851112E-1,-1.300287247E-2,9.281109087E-3
1.464258229E0,3.213567138E-1,-4.176498950E-2,1.993374154E-2
1.466761250E0,3.703588247E-1,-5.987447128E-2,3.697796166E-2
1.469264271E0,4.129693508E-1,-7.052710652E-2,5.615270883E-2
1.471767240E0,4.545146525E-1,-7.585342228E-2,7.852323353E-2
1.474270261E0,4.854072928E-1,-7.691868395E-2,1.126116663E-1
1.476773229E0,5.109736919E-1,-6.413552165E-2,1.530916989E-1
1.479276250E0,5.312136412E-1,-4.389551654E-2,1.925064325E-1
1.481779271E0,5.471925735E-1,-1.406813599E-2,2.319211960E-1
1.484282240E0,5.684978962E-1,2.641187608E-2,2.606832981E-1
1.486785313E0,5.844768286E-1,7.967504859E-2,2.841190994E-1
1.489288282E0,5.951294899E-1,1.435908675E-1,3.022285998E-1
1.491791250E0,6.025863290E-1,2.032456100E-1,3.214033544E-1
1.494289011E0,6.025863290E-1,2.586393058E-1,3.427086174E-1
1.496792032E0,6.036515832E-1,3.193593323E-1,3.608180881E-1
1.499295052E0,6.057820916E-1,3.768835664E-1,3.789275289E-1
1.501798021E0,6.036515832E-1,4.280161858E-1,4.044938982E-1
1.504301042E0,6.089778543E-1,4.876709580E-1,4.300602078E-1
1.506804063E0,6.238915920E-1,5.601089001E-1,4.630833566E-1
1.509307032E0,6.420010924E-1,6.400036812E-1,5.003675818E-1
1.511810052E0,6.654368639E-1,7.209636569E-1,5.408475399E-1
1.514313073E0,6.878073812E-1,7.976626754E-1,5.898497105E-1
1.516816042E0,7.091126442E-1,8.615784049E-1,6.399170756E-1
1.519319011E0,7.282873988E-1,9.254942536E-1,6.931802630E-1
1.521822032E0,7.485274076E-1,9.904753566E-1,7.453781962E-1
1.524328490E0,7.666368484E-1,1.055456400E0,7.933150530E-1
1.526831511E0,7.794200778E-1,1.117241859E0,8.369908333E-1
1.529334532E0,7.708979249E-1,1.169439673E0,8.732097745E-1
1.531837500E0,7.368094921E-1,1.218441725E0,8.987761736E-1
1.534340521E0,6.792852879E-1,1.262117505E0,9.147551060E-1
1.536843490E0,5.887379050E-1,1.272770286E0,9.307340384E-1
1.539346511E0,4.619714916E-1,1.236551285E0,9.360603094E-1
1.541849532E0,3.075082600E-1,1.176896453E0,9.381908774E-1
1.544352500E0,1.466534883E-1,1.122568130E0,9.360603094E-1
1.546855573E0,-1.313603111E-2,1.068239570E0,9.307340384E-1
1.549358542E0,-1.846434623E-1,1.005389094E0,9.200813770E-1
1.551861563E0,-3.476287723E-1,9.425384998E-1,9.126245379E-1
1.554354792E0,-5.031571984E-1,8.860795498E-1,9.041024446E-1
1.556857813E0,-6.576204300E-1,8.434689641E-1,9.019718766E-1
1.559360834E0,-8.120836616E-1,8.157721758E-1,9.072982669E-1
1.561863854E0,-9.601552486E-1,7.976626754E-1,9.115592837E-1
1.564366823E0,-1.102900743E0,8.019236922E-1,9.243424535E-1
1.566869844E0,-1.245646000E0,8.125763535E-1,9.456477165E-1
1.569372813E0,-1.371347189E0,7.923362851E-1,9.882582426E-1
1.571875834E0,-1.480003953E0,7.518563271E-1,1.028738260E0
1.574378802E0,-1.572681904E0,7.667700052E-1,1.051108837E0
1.576881823E0,-1.644054532E0,8.701005578E-1,1.061761498E0
1.579384844E0,-1.700513482E0,9.926058650E-1,1.077740431E0
1.581887813E0,-1.744189262E0,1.091675401E0,1.113959312E0
1.584382657E0,-1.766559958E0,1.160917640E0,1.159765601E0
1.586885677E0,-1.774016738E0,1.213115454E0,1.211963654E0
1.589388698E0,-1.761233449E0,1.253595471E0,1.268422484E0
1.591891719E0,-1.737797737E0,1.289814472E0,1.331273079E0
1.594394688E0,-1.705839753E0,1.323902845E0,1.400515318E0
1.596897657E0,-1.669620991E0,1.364382982E0,1.479344726E0
1.599400677E0,-1.632336617E0,1.406993389E0,1.557108879E0
1.601903698E0,-1.593987107E0,1.449604034E0,1.639134288E0
1.604406719E0,-1.552441835E0,1.487953544E0,1.720094204E0
1.606909688E0,-1.513027191E0,1.528433442E0,1.792532206E0
1.609412709E0,-1.466155648E0,1.572109222E0,1.856448054E0
1.611915677E0,-1.407565951E0,1.628568172E0,1.905450106E0
1.614449844E0,-1.309561849E0,1.723376751E0,1.935277462E0
1.616952865E0,-1.197709203E0,1.787292480E0,1.956582785E0
1.619455834E0,-1.085856557E0,1.786227345E0,1.981083870E0
1.621958854E0,-9.729384184E-1,1.744681954E0,1.994932175E0
1.624461875E0,-8.600204587E-1,1.688223004E0,1.995997667E0
1.626964844E0,-7.353847027E-1,1.637090325E0,1.983214378E0
1.629467917E0,-6.054224968E-1,1.606197715E0,1.964039564E0
1.631970834E0,-4.711993337E-1,1.594479799E0,1.935277462E0
1.634473854E0,-3.476287723E-1,1.589153409E0,1.896927953E0
1.636976875E0,-2.368413657E-1,1.584892392E0,1.858578563E0
1.639479844E0,-1.399023831E-1,1.573174596E0,1.817033172E0
1.641982917E0,-5.681183189E-2,1.544412494E0,1.766965866E0
1.644468021E0,1.029976644E-2,1.500736594E0,1.722224712E0
1.646971042E0,6.462821364E-2,1.452799797E0,1.689201713E0
1.649474063E0,1.008471698E-1,1.404862881E0,1.670026898E0
1.651977032E0,9.978190809E-2,1.359056592E0,1.661504745E0
1.654480052E0,6.888926774E-2,1.328163981E0,1.658308983E0
1.656983073E0,1.988713630E-2,1.301532388E0,1.654047966E0
1.659486042E0,-5.148551613E-2,1.282357693E0,1.646591067E0
1.661989063E0,-1.196623743E-1,1.278096557E0,1.639134288E0
1.664492032E0,-1.931655705E-1,1.266378641E0,1.626351118E0
1.666995052E0,-2.751908600E-1,1.239747047E0,1.615698457E0
1.669498021E0,-3.444329798E-1,1.222702861E0,1.615698457E0
1.672001042E0,-4.072835445E-1,1.221637607E0,1.624220610E0
1.674488177E0,-4.797214270E-1,1.231225014E0,1.629546881E0
1.676991198E0,-5.542898774E-1,1.269574404E0,1.638069034E0
1.679494219E0,-6.277930737E-1,1.339881778E0,1.652982712E0
1.681997240E0,-6.927741170E-1,1.421907067E0,1.656178474E0
1.684500209E0,-7.524288893E-1,1.510324001E0,1.662570119E0
1.687003177E0,-8.024962544E-1,1.588088274E0,1.674288034E0
1.689506198E0,-8.408457041E-1,1.650938749E0,1.695593238E0
1.692009219E0,-8.696078658E-1,1.704201937E0,1.717963815E0
1.694512240E0,-8.909131289E-1,1.745747209E0,1.743530035E0
1.697015209E0,-9.143489003E-1,1.778770328E0,1.771227002E0
1.699518229E0,-9.356542230E-1,1.802206159E0,1.787205815E0
1.702021198E0,-9.164794683E-1,1.773444057E0,1.793597460E0
1.704522240E0,-8.099530935E-1,1.616850376E0,1.779749036E0
1.707025313E0,-6.309888363E-1,1.335620761E0,1.763769984E0
1.709528282E0,-4.253930151E-1,1.028824925E0,1.746725798E0
1.712031250E0,-2.400371581E-1,7.550520897E-1,1.712637424E0
1.714534271E0,-1.122055352E-1,5.728920102E-1,1.660439491E0
1.717037240E0,-4.828972742E-2,5.036499500E-1,1.602915287E0
1.719540261E0,-2.378866635E-2,5.153678060E-1,1.532607913E0
1.722043282E0,-2.804972045E-2,5.366730690E-1,1.445256233E0
1.724546250E0,-6.000762433E-2,5.324120522E-1,1.365361571E0
1.727049271E0,-1.026181653E-1,4.887362421E-1,1.293988943E0
1.729552292E0,-1.644034535E-1,4.077762067E-1,1.241790891E0
1.732055261E0,-2.336455882E-1,3.097719550E-1,1.206637263E0
1.734583438E0,-3.092792928E-1,1.915277243E-1,1.187462568E0
1.737086459E0,-3.955656290E-1,7.860978693E-2,1.177875161E0
1.739589479E0,-4.871782959E-1,-3.415501444E-3,1.171483517E0
1.742092448E0,-5.798561573E-1,-6.626604497E-2,1.170418382E0
1.744595469E0,-6.799909472E-1,-1.056808010E-1,1.175744653E0
1.747098490E0,-7.747994065E-1,-1.387039721E-1,1.184266686E0
1.749601459E0,-8.568246961E-1,-1.834450215E-1,1.193854094E0
1.752104479E0,-9.250015616E-1,-2.633398175E-1,1.199180484E0
1.754607448E0,-9.814605117E-1,-3.613440692E-1,1.200245738E0
1.757110469E0,-1.028332233E0,-4.753272533E-1,1.193854094E0
1.759613490E0,-1.054963827E0,-6.106157303E-1,1.182136297E0
1.762116459E0,-1.068812251E0,-7.405778766E-1,1.159765601E0
1.764594688E0,-1.077334285E0,-8.513652682E-1,1.134199381E0
1.767097709E0,-1.076269150E0,-9.408473969E-1,1.110763550E0
1.769600729E0,-1.068812251E0,-9.962410927E-1,1.091588736E0
1.772103750E0,-1.062420607E0,-1.017546296E0,1.071348786E0
1.774606719E0,-1.048572183E0,-1.017546296E0,1.048978329E0
1.777109688E0,-1.026201725E0,-9.941105843E-1,1.029803514E0
1.779612709E0,-1.004896402E0,-9.483042359E-1,1.025542498E0
1.782115729E0,-9.857215881E-1,-9.067589641E-1,1.030868769E0
1.784618750E0,-9.676120877E-1,-8.630831838E-1,1.034064651E0
1.787121771E0,-9.345889688E-1,-8.226031661E-1,1.038325548E0
1.789624740E0,-9.026309848E-1,-7.917104959E-1,1.042586684E0
1.792127709E0,-8.685425520E-1,-7.831884027E-1,1.040456176E0
1.794632448E0,-8.312584162E-1,-7.736009955E-1,1.030868769E0
1.797135521E0,-7.875825763E-1,-7.597526312E-1,1.020216227E0
1.799638490E0,-7.492330670E-1,-7.490999699E-1,1.004237175E0
1.802141459E0,-7.236667871E-1,-7.309904695E-1,9.839972258E-1
1.804644479E0,-6.981004477E-1,-7.160767913E-1,9.658877254E-1
1.807147448E0,-6.810562611E-1,-6.979673505E-1,9.563003778E-1
1.809650469E0,-6.650773287E-1,-6.649441719E-1,9.552350640E-1
1.812153490E0,-6.320540905E-1,-6.106157303E-1,9.690834880E-1
1.814656459E0,-5.862478018E-1,-5.435041189E-1,9.903887510E-1
1.817159479E0,-5.361803770E-1,-4.966325164E-1,1.015955091E0
1.819662500E0,-4.871782959E-1,-4.710662067E-1,1.037260413E0
1.822165469E0,-4.466982782E-1,-4.742619991E-1,1.056435108E0
1.824701823E0,-4.104793072E-1,-4.966325164E-1,1.076675057E0
1.827204792E0,-3.742603660E-1,-5.221988559E-1,1.093719363E0
1.829707761E0,-3.423024714E-1,-5.466998816E-1,1.115024567E0
1.832210782E0,-3.188666701E-1,-5.616136193E-1,1.131003618E0
1.834713802E0,-3.124750555E-1,-5.616136193E-1,1.138460398E0
1.837216823E0,-3.199319243E-1,-5.733314753E-1,1.140590906E0
1.839719792E0,-3.337803781E-1,-5.903757215E-1,1.145917296E0
1.842222813E0,-3.423024714E-1,-5.957020521E-1,1.142721415E0
1.844725782E0,-3.465635180E-1,-5.722662210E-1,1.141656160E0
1.847228802E0,-3.380414248E-1,-5.594830513E-1,1.144851923E0
1.849731823E0,-3.252582252E-1,-5.871799588E-1,1.134199381E0
1.852234792E0,-3.092792928E-1,-6.255294085E-1,1.126742482E0
1.854700990E0,-2.922350764E-1,-6.457694173E-1,1.117155194E0
1.857204011E0,-2.783866525E-1,-6.532262564E-1,1.104372025E0
1.859707032E0,-2.751908600E-1,-6.447041631E-1,1.092654109E0
1.862210052E0,-2.837129533E-1,-6.308557391E-1,1.074544549E0
1.864713021E0,-2.773213685E-1,-5.978325009E-1,1.048978329E0
1.867215990E0,-2.581466436E-1,-5.445693731E-1,1.026607633E0
1.869719011E0,-2.453634739E-1,-4.955672622E-1,1.010628819E0
1.872222032E0,-2.357761115E-1,-4.700009227E-1,9.946498871E-1
1.874725052E0,-2.283192575E-1,-4.646746218E-1,9.871929884E-1
1.877228021E0,-2.229929566E-1,-4.529567361E-1,9.935845137E-1
1.879730990E0,-2.315150648E-1,-4.295209050E-1,1.020216227E0
1.882234011E0,-2.336455882E-1,-4.295209050E-1,1.031934142E0
1.884737917E0,-2.496245205E-1,-4.135419726E-1,1.020216227E0
1.887240938E0,-2.751908600E-1,-3.762577474E-1,9.957151413E-1
1.889743907E0,-2.975614071E-1,-3.528219461E-1,9.594961405E-1
1.892246927E0,-3.178013861E-1,-3.624092937E-1,9.104940295E-1
1.894749948E0,-3.380414248E-1,-4.018240571E-1,8.582960963E-1
1.897252917E0,-3.497593105E-1,-4.497609437E-1,8.050329089E-1
1.899755938E0,-3.636077344E-1,-4.849146307E-1,7.475087047E-1
1.902258959E0,-3.699992895E-1,-5.307209492E-1,6.793317795E-1
1.904761927E0,-3.859782815E-1,-5.818535686E-1,6.122202277E-1
1.907265000E0,-4.072835445E-1,-6.415083408E-1,5.451086164E-1
1.909767917E0,-4.285888076E-1,-7.011631131E-1,4.929107726E-1
1.912270938E0,-4.498940706E-1,-7.565568089E-1,4.566918015E-1
1.914810521E0,-4.754603803E-1,-8.002325892E-1,4.321907163E-1
1.917313490E0,-5.031571984E-1,-8.226031661E-1,4.130159914E-1
1.919816511E0,-5.191361904E-1,-8.247337341E-1,3.757317662E-1
1.922319532E0,-5.276582837E-1,-8.215379119E-1,3.277949095E-1
1.924822500E0,-5.212666988E-1,-8.236684203E-1,2.883801460E-1
1.927325521E0,-5.010266900E-1,-8.311252594E-1,2.596180439E-1
1.929828490E0,-4.797214270E-1,-8.417779207E-1,2.351169586E-1
1.932331511E0,-4.520246089E-1,-8.556263447E-1,2.180727422E-1
1.934834479E0,-4.062182605E-1,-8.577568531E-1,2.084853649E-1
1.937337500E0,-3.699992895E-1,-8.385820985E-1,2.031590641E-1
1.939840521E0,-3.465635180E-1,-7.949063182E-1,2.042243183E-1
1.942343490E0,-3.028877079E-1,-7.672094703E-1,2.116811872E-1
1.944809740E0,-2.613424361E-1,-7.490999699E-1,2.138116956E-1
1.947312761E0,-2.379066348E-1,-6.873146892E-1,2.116811872E-1
1.949815729E0,-2.411024123E-1,-5.903757215E-1,2.297906578E-1
1.952318802E0,-2.379066348E-1,-5.413736105E-1,2.660096288E-1
1.954821771E0,-2.304497808E-1,-5.158072710E-1,2.841190994E-1
1.957324740E0,-2.315150648E-1,-4.955672622E-1,2.915759385E-1
1.959827761E0,-2.357761115E-1,-4.859798849E-1,2.905106843E-1
1.962330782E0,-2.411024123E-1,-4.870451391E-1,2.777275145E-1
1.964833750E0,-2.549508512E-1,-5.008935332E-1,2.553569973E-1
1.967336823E0,-2.634729743E-1,-5.371125340E-1,2.276601195E-1
1.969839740E0,-2.815824151E-1,-5.935714841E-1,1.914411783E-1
1.972342761E0,-2.911697924E-1,-6.574873328E-1,1.509611607E-1
1.974852344E0,-2.922350764E-1,-7.043588758E-1,1.296558678E-1
1.977355365E0,-2.826476991E-1,-7.309904695E-1,1.339169443E-1
1.979858386E0,-2.709298134E-1,-7.341862917E-1,1.520264149E-1
1.982361354E0,-2.570813596E-1,-7.267294526E-1,1.680053771E-1
1.984864375E0,-2.379066348E-1,-7.192726135E-1,1.839843392E-1
1.987367396E0,-2.155361027E-1,-7.128809690E-1,2.063548565E-1
1.989870365E0,-1.867739856E-1,-6.947715282E-1,2.351169586E-1
1.992373386E0,-1.537508219E-1,-6.468346715E-1,2.777275145E-1
1.994876354E0,-1.175318509E-1,-5.701357126E-1,3.288601637E-1
1.997379375E0,-6.959499419E-2,-4.891756773E-1,3.714707196E-1
1.999882344E0,-4.613922443E-3,-4.220640659E-1,4.034286141E-1
2.002385365E0,6.569347531E-2,-3.762577474E-1,4.140812457E-1
2.005029740E0,1.328050643E-1,-3.730619550E-1,3.949065208E-1
2.007532709E0,1.850029826E-1,-3.624092937E-1,3.629485965E-1
2.010035677E0,2.009819299E-1,-2.952977121E-1,3.363170028E-1
2.012538698E0,2.222872078E-1,-2.239250541E-1,3.373822868E-1
2.015041719E0,2.446577251E-1,-1.727923900E-1,3.512307107E-1
2.017544740E0,2.606366873E-1,-1.493566036E-1,3.672096431E-1
2.020047709E0,2.851377428E-1,-1.621397585E-1,3.831886053E-1
2.022550729E0,3.043124974E-1,-1.866408288E-1,3.831886053E-1
2.025053698E0,3.256177604E-1,-2.026197761E-1,3.725359738E-1
2.027556719E0,3.469230235E-1,-2.271208465E-1,3.459043801E-1
2.030059740E0,3.682283163E-1,-2.644050717E-1,3.128812015E-1
2.032562709E0,3.884683251E-1,-3.048850894E-1,2.713359296E-1
2.034956771E0,4.140346348E-1,-3.411040306E-1,2.297906578E-1
2.037459792E0,4.396009445E-1,-3.485608995E-1,1.967674792E-1
2.039962761E0,4.502536058E-1,-3.464303613E-1,1.616137922E-1
2.042465782E0,4.587756991E-1,-3.379082680E-1,1.243295670E-1
2.044968802E0,4.790157080E-1,-3.272556067E-1,8.278429508E-2
2.047471823E0,5.237568021E-1,-3.304514289E-1,5.295691639E-2
2.049974792E0,5.770199895E-1,-3.240598142E-1,4.230427742E-2
2.052477813E0,6.143042445E-1,-2.931671739E-1,2.632532455E-2
2.054980782E0,6.622410417E-1,-2.580134869E-1,-3.502053674E-3
2.057483802E0,7.112432122E-1,-2.207292467E-1,-3.652521968E-2
2.059986823E0,7.623758316E-1,-1.866408288E-1,-7.807049900E-2
2.062489844E0,8.124431968E-1,-1.695966125E-1,-1.313336790E-1
2.064983907E0,8.593147993E-1,-1.653355658E-1,-1.675526202E-1
2.067486927E0,8.944685459E-1,-1.408344954E-1,-1.771399975E-1
2.069989948E0,9.253611565E-1,-9.076710790E-2,-1.771399975E-1
2.072492917E0,9.690369368E-1,-3.963446245E-2,-1.696831584E-1
2.074995938E0,1.016973615E0,1.682450622E-2,-1.505084038E-1
2.077498959E0,1.063845277E0,6.795715541E-2,-1.217463017E-1
2.080001927E0,1.106455803E0,1.116329581E-1,-8.339681476E-2
2.082505000E0,1.156523228E0,1.531782299E-1,-2.267679758E-2
2.085007969E0,1.198068500E0,2.000498325E-1,4.869585857E-2
2.087510938E0,1.217243195E0,2.469214350E-1,1.168727204E-1
2.090013959E0,1.218308449E0,2.852708995E-1,1.818538010E-1
2.092516979E0,1.223634839E0,3.044456542E-1,2.692053914E-1
2.095095886E0,1.216178060E0,3.374688029E-1,3.522959650E-1
2.097598854E0,1.208721161E0,3.960583210E-1,4.385823309E-1
2.100101875E0,1.202329516E0,4.727572501E-1,5.280644298E-1
2.102604844E0,1.173567414E0,5.483909845E-1,6.036981344E-1
2.105107865E0,1.150131583E0,6.069804430E-1,6.708096862E-1
2.107610886E0,1.126695871E0,6.602436304E-1,7.240728736E-1
2.110113854E0,1.112847447E0,6.922015548E-1,7.698792219E-1
2.112616875E0,1.096868396E0,7.273553014E-1,8.092939854E-1
2.115119896E0,1.072367311E0,7.465299964E-1,8.327297568E-1
2.117622865E0,1.059584260E0,7.486605048E-1,8.508392572E-1
2.120125886E0,1.055323124E0,7.348120809E-1,8.774708509E-1
2.122628907E0,1.053192616E0,7.135068178E-1,8.966456056E-1
2.125098542E0,1.030822158E0,6.485257745E-1,8.764055967E-1
2.127601563E0,9.828854203E-1,5.111067295E-1,8.242076635E-1
2.130104532E0,9.136433005E-1,3.065761626E-1,7.507044673E-1
2.132607552E0,8.294874430E-1,5.836978182E-2,6.676139235E-1
2.135110625E0,7.293527126E-1,-1.951629370E-1,5.909149647E-1
2.137613542E0,6.174999475E-1,-4.114114344E-1,5.035634041E-1
2.140116563E0,5.035167933E-1,-5.722662210E-1,3.991675675E-1
2.142619584E0,4.172304273E-1,-6.606830955E-1,2.958369851E-1
2.145122552E0,3.458577693E-1,-7.064894438E-1,1.882453859E-1
2.147625625E0,2.776809037E-1,-7.533610463E-1,8.917587250E-2
2.150128594E0,2.180261612E-1,-8.087546825E-1,1.247689780E-2
2.152631563E0,1.679587662E-1,-8.705399632E-1,-2.800311521E-2
2.155123386E0,1.317398101E-1,-9.195421338E-1,-4.185153916E-2
2.157626407E0,1.093692780E-1,-9.259337187E-1,-4.930838197E-2
2.160129427E0,1.040429622E-1,-9.174116254E-1,-4.185153916E-2
2.162632396E0,1.019124314E-1,-9.142158031E-1,-1.415468846E-2
2.165135417E0,9.339033067E-2,-8.993021250E-1,3.378216922E-2
2.167638438E0,8.273769170E-2,-8.716052771E-1,8.704534918E-2
2.170141407E0,8.060716093E-2,-8.108852506E-1,1.584179997E-1
2.172644479E0,8.699873835E-2,-7.352515459E-1,2.255296111E-1
2.175147448E0,8.593347669E-2,-6.638789177E-1,2.851843834E-1
2.177650417E0,7.315032184E-2,-5.935714841E-1,3.469696641E-1
2.180153438E0,5.184504390E-2,-5.307209492E-1,3.949065208E-1
2.182656459E0,2.840924449E-2,-4.945019782E-1,4.375170469E-1
2.185150886E0,8.169239387E-3,-4.561524987E-1,4.726707339E-1
2.187653907E0,-9.940239601E-3,-3.933019340E-1,4.929107726E-1
2.190156927E0,-2.485392801E-2,-3.293861449E-1,5.088896751E-1
2.192659896E0,-3.231077269E-2,-2.697314024E-1,5.216727853E-1
2.195162917E0,-3.231077269E-2,-2.239250541E-1,5.312601924E-1
2.197665938E0,-2.804972045E-2,-1.962282062E-1,5.344560146E-1
2.200168907E0,-2.804972045E-2,-1.642702818E-1,5.238033533E-1
2.202671927E0,-3.124551103E-2,-1.536176503E-1,5.099549294E-1
2.205174948E0,-2.378866635E-2,-1.685313433E-1,5.078244209E-1
2.207677917E0,-3.548658919E-3,-1.642702818E-1,5.024980903E-1
2.210180938E0,2.947450988E-2,-1.280513257E-1,4.886496961E-1
2.212683959E0,6.356295198E-2,-7.904920727E-2,4.620181024E-1
2.215141719E0,8.486821502E-2,-4.709130898E-2,4.311254919E-1
2.217644740E0,9.552085400E-2,-5.348289013E-2,4.002328515E-1
2.220147761E0,1.200219095E-1,-2.791656181E-2,3.650791347E-1
2.222650729E0,1.498492956E-1,4.041343462E-3,3.331212401E-1
2.225153802E0,1.807419360E-1,2.002029680E-2,2.969022691E-1
2.227656771E0,1.999166757E-1,2.747714147E-2,2.606832981E-1
2.230159740E0,2.180261612E-1,2.428135090E-2,2.276601195E-1
2.232662761E0,2.457229942E-1,1.575924270E-2,1.957022250E-1
2.235165782E0,2.712893486E-1,2.960766666E-2,1.658748388E-1
2.237668802E0,3.021819890E-1,7.115294784E-2,1.339169443E-1
2.240171771E0,3.213567138E-1,9.352348000E-2,1.136769280E-1
2.242674792E0,3.362703919E-1,1.222855896E-1,9.663271904E-2
2.245186407E0,3.533146083E-1,1.798098236E-1,8.384955674E-2
2.247689427E0,3.756851554E-1,2.266814262E-1,8.171903342E-2
2.250192448E0,3.905988336E-1,2.778140604E-1,8.598008752E-2
2.252695417E0,4.012514651E-1,3.332077563E-1,9.024114162E-2
2.255198438E0,4.108388424E-1,3.864709437E-1,9.769798070E-2
2.257701459E0,4.129693508E-1,4.301467240E-1,9.982851148E-2
2.260204427E0,4.076430798E-1,4.514519870E-1,9.343692660E-2
2.262707448E0,4.012514651E-1,4.738225341E-1,8.917587250E-2
2.265210469E0,3.959251344E-1,5.089762807E-1,8.171903342E-2
2.267713438E0,3.927293718E-1,5.451951623E-1,8.171903342E-2
2.270216459E0,3.927293718E-1,5.728920102E-1,7.852323353E-2
2.272719479E0,4.012514651E-1,5.878057480E-1,6.787060201E-2
2.275232136E0,4.055125117E-1,6.005889177E-1,5.615270883E-2
2.277735209E0,4.097735882E-1,6.112415195E-1,4.656533152E-2
2.280238177E0,4.140346348E-1,6.240246892E-1,3.804322705E-2
2.282741146E0,4.108388424E-1,6.357426047E-1,3.591270000E-2
2.285244167E0,4.033820033E-1,6.453299522E-1,3.165164217E-2
2.287747188E0,4.012514651E-1,6.495909691E-1,2.739058621E-2
2.290250209E0,4.001862109E-1,6.506562829E-1,2.632532455E-2
2.292753177E0,4.023167491E-1,6.463952065E-1,2.419479750E-2
2.295256198E0,4.097735882E-1,6.527867913E-1,2.419479750E-2
2.297759167E0,4.097735882E-1,6.570478678E-1,2.632532455E-2
2.300262188E0,4.119041264E-1,6.602436304E-1,3.271690756E-2
2.302765209E0,4.140346348E-1,6.613088846E-1,3.058637865E-2
2.305281146E0,4.161651731E-1,6.687657237E-1,2.632532455E-2
2.307784167E0,4.172304273E-1,6.708962917E-1,2.526005916E-2
2.310287188E0,4.150998890E-1,6.474605203E-1,3.271690756E-2
2.312790157E0,4.055125117E-1,6.293510199E-1,4.123901576E-2
2.315293177E0,3.735546172E-1,6.602436304E-1,4.869585857E-2
2.317796198E0,2.979209125E-1,7.412036657E-1,7.319691777E-2
2.320299167E0,2.648977339E-1,6.868752241E-1,9.769798070E-2
2.322802188E0,2.574408948E-1,5.941973329E-1,9.876324236E-2
2.325305209E0,2.489188164E-1,5.356078148E-1,9.876324236E-2
2.327808229E0,2.286787927E-1,4.919320047E-1,1.211337671E-1
2.330311198E0,1.913945675E-1,4.802141190E-1,1.946369708E-1
2.332814219E0,1.477187574E-1,4.748878181E-1,2.510959506E-1
2.335305157E0,1.114998013E-1,4.482562244E-1,2.724012136E-1
2.337808177E0,7.954189926E-2,4.088414609E-1,2.926412225E-1
2.340311198E0,4.651872814E-2,3.779488206E-1,3.075549006E-1
2.342814219E0,9.234502912E-3,3.417298496E-1,3.150117397E-1
2.345317188E0,-3.124551103E-2,3.023151159E-1,3.128812015E-1
2.347820209E0,-7.385604829E-2,2.724877298E-1,3.011633158E-1
2.350323177E0,-1.047486886E-1,2.383993119E-1,2.830538452E-1
2.352826198E0,-1.249886900E-1,1.883319318E-1,2.596180439E-1
2.355329219E0,-1.345760822E-1,1.457213908E-1,2.287253737E-1
2.357832188E0,-1.399023831E-1,1.286771744E-1,1.914411783E-1
2.360335209E0,-1.303150207E-1,9.139295667E-2,1.339169443E-1
2.362838229E0,-1.100750044E-1,2.854240686E-2,6.893586367E-2
2.365334584E0,-8.663920313E-2,-2.472077124E-2,9.281109087E-3
2.367837657E0,-6.959499419E-2,-6.946183741E-2,-3.226416558E-2
2.370340625E0,-6.533394009E-2,-8.650605381E-2,-4.185153916E-2
2.372843594E0,-6.959499419E-2,-8.011447638E-2,-3.545995802E-2
2.375346615E0,-7.598657161E-2,-6.839657575E-2,-2.161153406E-2
2.377849636E0,-7.385604829E-2,-6.307025999E-2,-7.763107773E-3
2.380352657E0,-7.598657161E-2,-5.667867884E-2,-1.371526509E-3
2.382855625E0,-7.918236405E-2,-5.348289013E-2,-3.062629839E-4
2.385358646E0,-8.237814903E-2,-5.454815552E-2,1.824264065E-3
2.387861667E0,-8.131288737E-2,-6.307025999E-2,7.150581572E-3
2.390364636E0,-8.344341815E-2,-7.159236819E-2,1.247689780E-2
2.392867657E0,-8.876973391E-2,-7.159236819E-2,1.993374154E-2
2.395361823E0,-9.409605712E-2,-7.585342228E-2,2.845585160E-2
2.397864896E0,-9.622658044E-2,-8.224499971E-2,3.378216922E-2
2.400367865E0,-1.004876345E-1,-8.757131547E-2,4.230427742E-2
2.402870834E0,-1.004876345E-1,-9.396289289E-2,4.869585857E-2
2.405373907E0,-1.058139503E-1,-1.035502702E-1,5.295691639E-2
2.407876875E0,-1.132707968E-1,-1.088765860E-1,5.615270883E-2
2.410379844E0,-1.175318509E-1,-1.312471181E-1,5.615270883E-2
2.412882865E0,-1.292497516E-1,-1.504218727E-1,5.082638562E-2
2.415385886E0,-1.345760822E-1,-1.621397585E-1,6.041375548E-2
2.417888907E0,-1.324455440E-1,-1.664008200E-1,7.213165611E-2
2.420391875E0,-1.377718598E-1,-1.674660891E-1,7.852323353E-2
2.422894896E0,-1.420329064E-1,-1.685313433E-1,8.171903342E-2
2.425389323E0,-1.462939680E-1,-1.738576591E-1,8.704534918E-2
2.427892344E0,-1.516202837E-1,-1.898366213E-1,8.917587250E-2
2.430395365E0,-1.580118686E-1,-1.994239837E-1,8.811061084E-2
2.432898334E0,-1.612076610E-1,-1.951629370E-1,8.171903342E-2
2.435401354E0,-1.580118686E-1,-1.898366213E-1,7.213165611E-2
2.437904375E0,-1.590771377E-1,-1.877060980E-1,6.360954791E-2
2.440407344E0,-1.548160911E-1,-1.823797673E-1,5.828323215E-2
2.442910365E0,-1.505550295E-1,-1.834450215E-1,5.082638562E-2
2.445413386E0,-1.345760822E-1,-2.015545070E-1,3.804322705E-2
2.447916354E0,-1.068792120E-1,-3.570830226E-1,5.020053592E-3
2.450419375E0,-1.430981755E-1,-6.297904849E-1,-2.267679758E-2
2.452922396E0,-2.560161054E-1,-7.075546980E-1,1.886847988E-2
2.455429375E0,-3.273887634E-1,-6.692051888E-1,7.213165611E-2
2.457932448E0,-3.305845559E-1,-6.809231043E-1,1.115464047E-1
2.460435417E0,-3.135403395E-1,-5.701357126E-1,1.253948212E-1
2.462938386E0,-3.114098310E-1,-4.359125197E-1,1.296558678E-1
2.465441407E0,-3.156708777E-1,-3.357777596E-1,1.243295670E-1
2.467944427E0,-2.805171907E-1,-2.782535255E-1,1.158074662E-1
2.470447448E0,-2.197971493E-1,-2.367082089E-1,1.126116663E-1
2.472950417E0,-1.739908308E-1,-1.940976679E-1,1.062200889E-1
2.475453438E0,-1.548160911E-1,-1.429650187E-1,9.663271904E-2
2.477956407E0,-1.367066056E-1,-1.067460626E-1,8.598008752E-2
2.480459427E0,-1.058139503E-1,-9.183236957E-2,8.065376431E-2
2.482962448E0,-8.663920313E-2,-8.863657713E-2,7.958849519E-2
2.485461042E0,-8.557394147E-2,-8.650605381E-2,7.639271021E-2
2.487964063E0,-9.196551889E-2,-8.650605381E-2,7.106639445E-2
2.490467084E0,-8.983499557E-2,-8.863657713E-2,6.680534035E-2
2.492970052E0,-9.409605712E-2,-9.396289289E-2,6.893586367E-2
2.495473073E0,-1.036834270E-1,-9.502816200E-2,6.893586367E-2
2.497976094E0,-1.100750044E-1,-9.715869278E-2,6.893586367E-2
2.500479063E0,-1.100750044E-1,-9.609343112E-2,6.680534035E-2
2.502982084E0,-1.090097427E-1,-9.396289289E-2,6.467480958E-2
2.505485104E0,-1.058139503E-1,-8.331026137E-2,6.574007869E-2
2.507988073E0,-9.835711122E-2,-8.117973804E-2,6.041375548E-2
2.510491094E0,-8.770447224E-2,-7.159236819E-2,5.934849381E-2
2.512994115E0,-8.024762571E-2,-6.626604497E-2,5.615270883E-2
2.515534896E0,-6.639920175E-2,-5.561341718E-2,5.295691639E-2
2.518037917E0,-5.468130484E-2,-4.815657064E-2,4.763059691E-2
2.520540938E0,-4.935498908E-2,-4.709130898E-2,4.656533152E-2
2.523043959E0,-4.615919665E-2,-4.283025488E-2,4.443480447E-2
2.525546927E0,-4.296340793E-2,-3.856920078E-2,3.697796166E-2
2.528049896E0,-3.231077269E-2,-3.217761591E-2,3.484743088E-2
2.530552917E0,-3.018024750E-2,-2.791656181E-2,3.058637865E-2
2.533055938E0,-2.698445693E-2,-2.045971714E-2,2.526005916E-2
2.535558907E0,-1.952761225E-2,-1.406813599E-2,2.099900506E-2
2.538061927E0,-1.633182168E-2,-3.415501444E-3,1.567268930E-2
2.540564948E0,-8.874977008E-3,8.455526549E-4,1.354216319E-2
2.543067917E0,-5.679186434E-3,5.106606986E-3,1.141163614E-2
2.545569115E0,-2.483395394E-3,5.106606986E-3,9.281109087E-3
2.548072188E0,-3.528683446E-4,8.302398026E-3,1.034637261E-2
2.550575157E0,7.123951800E-4,8.302398026E-3,7.150581572E-3
2.553078125E0,1.777658705E-3,1.043292321E-2,5.020053592E-3
2.555581146E0,7.103975862E-3,2.960766666E-2,7.590005407E-4
2.558084115E0,1.456082053E-2,3.386871889E-2,-5.632580724E-3
2.560587188E0,1.775661111E-2,1.362871565E-2,2.889527474E-3
2.563090157E0,9.234502912E-3,2.976079006E-3,9.281109087E-3
2.565593177E0,7.123951800E-4,1.910816412E-3,1.034637261E-2
2.568096146E0,-4.613922443E-3,-3.415501444E-3,6.085318048E-3
2.570599167E0,-8.874977008E-3,-3.415501444E-3,5.020053592E-3
2.573102188E0,-1.100550406E-2,-6.611291785E-3,2.889527474E-3
2.575607761E0,-9.940239601E-3,-9.807081893E-3,6.085318048E-3
2.578110782E0,-7.809713483E-3,-1.619866304E-2,8.215845563E-3
2.580613802E0,-7.809713483E-3,-1.939445361E-2,1.034637261E-2
2.583116771E0,-9.940239601E-3,-2.259024419E-2,1.354216319E-2
2.585619792E0,-1.420129463E-2,-2.685129642E-2,1.354216319E-2
2.588122813E0,-2.165813930E-2,-3.430814296E-2,1.034637261E-2
2.590625782E0,-2.804972045E-2,-3.856920078E-2,1.354216319E-2
2.593128802E0,-2.698445693E-2,-3.963446245E-2,1.886847988E-2
2.595631823E0,-2.804972045E-2,-4.389551654E-2,1.886847988E-2
2.598134792E0,-3.018024750E-2,-4.069972783E-2,1.673795283E-2
2.600637813E0,-3.018024750E-2,-3.537340835E-2,1.673795283E-2
2.603140834E0,-3.018024750E-2,-3.324288130E-2,1.886847988E-2
2.605617969E0,-3.124551103E-2,-3.430814296E-2,1.567268930E-2
2.608120990E0,-2.911498398E-2,-3.537340835E-2,1.673795283E-2
2.610624011E0,-3.124551103E-2,-3.430814296E-2,1.780321635E-2
2.613126979E0,-3.657182679E-2,-3.537340835E-2,1.673795283E-2
2.615630000E0,-4.083288088E-2,-3.430814296E-2,1.780321635E-2
2.618133021E0,-4.296340793E-2,-3.643867373E-2,1.993374154E-2
2.620635990E0,-4.402866960E-2,-3.963446245E-2,2.206427045E-2
2.623139011E0,-4.402866960E-2,-4.389551654E-2,2.526005916E-2
2.625642032E0,-5.042025447E-2,-5.028710142E-2,2.845585160E-2
2.628145000E0,-5.468130484E-2,-5.667867884E-2,2.845585160E-2
2.630648021E0,-6.000762433E-2,-5.880920589E-2,2.952111326E-2
2.633151042E0,-6.107288599E-2,-5.880920589E-2,3.058637865E-2
2.635641771E0,-6.213814765E-2,-5.987447128E-2,3.697796166E-2
2.638144792E0,-5.894235894E-2,-5.987447128E-2,3.910848871E-2
2.640647813E0,-5.681183189E-2,-5.774394423E-2,3.804322705E-2
2.643150782E0,-5.574657023E-2,-5.454815552E-2,3.591270000E-2
2.645653802E0,-5.148551613E-2,-5.241762847E-2,3.591270000E-2
2.648156823E0,-4.935498908E-2,-5.028710142E-2,3.804322705E-2
2.650659792E0,-5.148551613E-2,-5.241762847E-2,3.804322705E-2
2.653162813E0,-4.935498908E-2,-5.135236308E-2,3.910848871E-2
2.655665834E0,-4.615919665E-2,-4.815657064E-2,4.123901576E-2
2.658168802E0,-4.722445831E-2,-4.815657064E-2,3.804322705E-2
2.660671823E0,-4.935498908E-2,-4.922183231E-2,3.484743088E-2
2.663174844E0,-4.722445831E-2,-4.496078193E-2,3.271690756E-2
2.665697917E0,-4.722445831E-2,-4.496078193E-2,3.271690756E-2
2.668200990E0,-4.615919665E-2,-4.709130898E-2,3.378216922E-2
2.670703959E0,-4.509393498E-2,-4.389551654E-2,3.165164217E-2
2.673206927E0,-4.722445831E-2,-4.815657064E-2,3.271690756E-2
2.675709948E0,-4.615919665E-2,-4.815657064E-2,3.058637865E-2
2.678212969E0,-4.509393498E-2,-5.135236308E-2,2.952111326E-2
2.680715938E0,-4.828972742E-2,-5.241762847E-2,2.632532455E-2
2.683218959E0,-4.615919665E-2,-5.135236308E-2,2.739058621E-2
2.685721979E0,-4.296340793E-2,-5.241762847E-2,2.312953584E-2
2.688224948E0,-3.976761550E-2,-4.922183231E-2,1.780321635E-2
2.690728021E0,-3.550656512E-2,-4.602604359E-2,1.886847988E-2
2.693230990E0,-3.444129974E-2,-4.496078193E-2,1.780321635E-2
2.695714427E0,-3.444129974E-2,-4.496078193E-2,1.673795283E-2
2.698217448E0,-3.444129974E-2,-4.283025488E-2,1.780321635E-2
2.700720469E0,-3.018024750E-2,-4.389551654E-2,1.673795283E-2
2.703223490E0,-3.231077269E-2,-4.176498950E-2,1.247689780E-2
2.705726459E0,-3.550656512E-2,-4.496078193E-2,1.460742671E-2
2.708229479E0,-3.550656512E-2,-4.709130898E-2,1.460742671E-2
2.710732448E0,-4.083288088E-2,-4.602604359E-2,1.460742671E-2
2.713235469E0,-4.083288088E-2,-4.283025488E-2,1.354216319E-2
2.715738490E0,-3.976761550E-2,-4.176498950E-2,1.247689780E-2
2.718241511E0,-4.189814255E-2,-4.069972783E-2,1.354216319E-2
2.720744479E0,-4.083288088E-2,-4.283025488E-2,1.460742671E-2
2.723247500E0,-3.870235384E-2,-4.283025488E-2,1.460742671E-2
2.725749584E0,-3.657182679E-2,-4.176498950E-2,1.247689780E-2
2.728252657E0,-3.550656512E-2,-4.283025488E-2,1.247689780E-2
2.730755625E0,-3.444129974E-2,-4.283025488E-2,9.281109087E-3
2.733258594E0,-2.911498398E-2,-3.963446245E-2,9.281109087E-3
2.735761615E0,-3.231077269E-2,-3.750393912E-2,9.281109087E-3
2.738264636E0,-2.911498398E-2,-3.856920078E-2,7.150581572E-3
2.740767604E0,-2.698445693E-2,-3.217761591E-2,6.085318048E-3
2.743270677E0,-2.272340283E-2,-3.111235239E-2,3.954790998E-3
2.745773646E0,-2.165813930E-2,-2.791656181E-2,2.889527474E-3
2.748276615E0,-2.165813930E-2,-2.685129642E-2,-3.062629839E-4
2.750779636E0,-1.846234873E-2,-2.578603476E-2,7.590005407E-4
2.753282657E0,-1.633182168E-2,-3.217761591E-2,5.020053592E-3
2.755791979E0,-2.804972045E-2,-4.922183231E-2,1.034637261E-2
2.758294948E0,-4.189814255E-2,-5.667867884E-2,1.673795283E-2
2.760797969E0,-4.935498908E-2,-5.454815552E-2,1.886847988E-2
2.763300938E0,-5.148551613E-2,-5.561341718E-2,1.673795283E-2
2.765803959E0,-5.255078152E-2,-5.454815552E-2,1.886847988E-2
2.768306979E0,-5.042025447E-2,-5.028710142E-2,2.419479750E-2
2.770810000E0,-4.509393498E-2,-4.602604359E-2,2.739058621E-2
2.773312969E0,-4.509393498E-2,-4.815657064E-2,2.845585160E-2
2.775815990E0,-4.615919665E-2,-4.496078193E-2,3.271690756E-2
2.778318959E0,-5.148551613E-2,-4.496078193E-2,3.378216922E-2
2.780821979E0,-5.574657023E-2,-4.709130898E-2,3.910848871E-2
2.783325000E0,-5.894235894E-2,-4.602604359E-2,3.910848871E-2
2.785822032E0,-5.574657023E-2,-3.750393912E-2,3.484743088E-2
2.788325000E0,-5.574657023E-2,-3.217761591E-2,3.484743088E-2
2.790828021E0,-5.468130484E-2,-2.152498066E-2,3.271690756E-2
2.793331042E0,-4.402866960E-2,-1.300287247E-2,2.952111326E-2
2.795834063E0,-3.657182679E-2,-6.611291785E-3,3.165164217E-2
2.798337032E0,-3.550656512E-2,-4.480765201E-3,3.058637865E-2
2.800840052E0,-3.657182679E-2,-1.284974394E-3,2.419479750E-2
2.803343021E0,-2.804972045E-2,1.910816412E-3,2.312953584E-2
2.805846042E0,-2.911498398E-2,-2.197108697E-4,1.886847988E-2
2.808349011E0,-3.763708845E-2,-2.791656181E-2,2.845585160E-2
2.810852032E0,-5.042025447E-2,-4.069972783E-2,2.632532455E-2
2.813355052E0,-5.574657023E-2,-3.430814296E-2,1.460742671E-2
2.815857969E0,-5.468130484E-2,-3.004708886E-2,7.150581572E-3
2.818360990E0,-4.509393498E-2,-3.217761591E-2,2.889527474E-3
2.820864011E0,-3.657182679E-2,-2.152498066E-2,-3.062629839E-4
2.823366979E0,-3.018024750E-2,-9.807081893E-3,1.824264065E-3
2.825870052E0,-2.698445693E-2,-8.741818368E-3,-2.436790615E-3
2.828373021E0,-2.378866635E-2,-1.087234542E-2,-5.632580724E-3
2.830876042E0,-2.378866635E-2,-9.807081893E-3,-3.502053674E-3
2.833379063E0,-2.485392801E-2,-1.193760894E-2,-6.697844248E-3
2.835882032E0,-2.378866635E-2,-1.300287247E-2,-9.893634357E-3
2.838385000E0,-2.165813930E-2,-1.619866304E-2,-8.828370832E-3
2.840888073E0,-1.739708334E-2,-1.513339952E-2,-1.202416141E-2
2.843391042E0,-1.420129463E-2,-1.300287247E-2,-8.828370832E-3
2.846125261E0,-1.100550406E-2,-1.193760894E-2,-9.893634357E-3
2.848628229E0,-7.809713483E-3,-1.193760894E-2,-1.415468846E-2
2.851131250E0,-1.418131869E-3,-1.087234542E-2,-1.521995198E-2
2.853634219E0,-3.528683446E-4,-1.193760894E-2,-1.735047996E-2
2.856137292E0,1.777658705E-3,-1.406813599E-2,-1.735047996E-2
2.858640261E0,2.842921996E-3,-2.045971714E-2,-1.628521644E-2
2.861143282E0,7.123951800E-4,-2.365550771E-2,-1.415468846E-2
2.863646250E0,-3.528683446E-4,-2.898182534E-2,-1.202416141E-2
2.866149271E0,2.842921996E-3,-3.324288130E-2,-1.521995198E-2
2.868652240E0,1.777658705E-3,-3.537340835E-2,-1.095889788E-2
2.871155261E0,2.842921996E-3,-3.856920078E-2,-9.893634357E-3
2.873658282E0,-3.528683446E-4,-4.283025488E-2,-1.095889788E-2
2.875938907E0,-3.548658919E-3,-4.602604359E-2,-4.567317199E-3
2.878441875E0,-2.483395394E-3,-4.922183231E-2,-1.371526509E-3
2.880944896E0,-3.548658919E-3,-5.135236308E-2,-2.436790615E-3
2.883447865E0,-5.679186434E-3,-5.454815552E-2,-3.062629839E-4
2.885950886E0,-5.679186434E-3,-5.454815552E-2,5.020053592E-3
2.888453907E0,-2.483395394E-3,-5.454815552E-2,8.215845563E-3
2.890956927E0,7.123951800E-4,-4.815657064E-2,8.215845563E-3
2.893459896E0,1.777658705E-3,-4.602604359E-2,9.281109087E-3
2.895962917E0,8.169239387E-3,-4.069972783E-2,1.141163614E-2
2.898465886E0,1.029976644E-2,-3.537340835E-2,1.354216319E-2
2.900968959E0,1.669134758E-2,-3.537340835E-2,1.886847988E-2
2.903471927E0,1.882187463E-2,-2.791656181E-2,1.993374154E-2
2.905996459E0,1.988713630E-2,-2.259024419E-2,2.099900506E-2
2.908499427E0,2.201766521E-2,-1.832919009E-2,2.206427045E-2
2.911002448E0,2.201766521E-2,-1.300287247E-2,2.526005916E-2
2.913505417E0,2.627871931E-2,-7.676555309E-3,2.312953584E-2
2.916008490E0,3.373556584E-2,-1.284974394E-3,3.058637865E-2
2.918511459E0,3.586609289E-2,6.171870511E-3,3.058637865E-2
2.921014479E0,4.012714699E-2,1.469397917E-2,3.058637865E-2
2.923517448E0,4.438820109E-2,2.002029680E-2,3.165164217E-2
2.926020469E0,4.438820109E-2,2.215082385E-2,3.484743088E-2
2.928523438E0,4.651872814E-2,2.428135090E-2,3.591270000E-2
2.931026511E0,4.758399352E-2,2.321608737E-2,3.591270000E-2
2.933529479E0,4.545346648E-2,2.108556032E-2,3.378216922E-2
2.936102709E0,4.119240865E-2,2.108556032E-2,3.484743088E-2
2.938605677E0,4.545346648E-2,1.788976789E-2,3.165164217E-2
2.941108698E0,4.864925519E-2,1.469397917E-2,3.484743088E-2
2.943611667E0,5.077978224E-2,1.575924270E-2,3.165164217E-2
2.946114740E0,4.971451685E-2,1.362871565E-2,2.952111326E-2
2.948617709E0,5.397557095E-2,1.149818860E-2,2.845585160E-2
2.951120729E0,5.504083633E-2,1.256345212E-2,2.632532455E-2
2.953623698E0,5.184504390E-2,7.237134036E-3,2.526005916E-2
2.956126719E0,5.077978224E-2,2.976079006E-3,2.312953584E-2
2.958629688E0,4.545346648E-2,1.910816412E-3,2.526005916E-2
2.961132761E0,4.438820109E-2,-3.415501444E-3,2.206427045E-2
2.963635729E0,4.225767031E-2,-7.676555309E-3,1.886847988E-2
2.966097448E0,3.906188160E-2,-1.087234542E-2,1.886847988E-2
2.968600417E0,3.586609289E-2,-1.193760894E-2,1.780321635E-2
2.971103438E0,3.586609289E-2,-1.300287247E-2,1.354216319E-2
2.973606407E0,3.586609289E-2,-1.726392657E-2,1.354216319E-2
2.976109479E0,3.693135455E-2,-1.619866304E-2,1.460742671E-2
2.978612448E0,3.586609289E-2,-1.832919009E-2,1.460742671E-2
2.981115417E0,3.160503879E-2,-1.939445361E-2,1.673795283E-2
2.983618438E0,2.947450988E-2,-2.259024419E-2,1.460742671E-2
2.986121459E0,3.160503879E-2,-2.472077124E-2,1.460742671E-2
2.988624479E0,2.947450988E-2,-2.578603476E-2,1.354216319E-2
2.991127448E0,2.840924449E-2,-2.791656181E-2,1.354216319E-2
2.993630469E0,2.521345578E-2,-3.111235239E-2,1.460742671E-2
2.996174323E0,2.734398097E-2,-3.217761591E-2,1.247689780E-2
2.998677344E0,2.095240168E-2,-3.217761591E-2,1.460742671E-2
3.001180365E0,1.775661111E-2,-3.324288130E-2,1.460742671E-2
3.003683334E0,2.095240168E-2,-3.324288130E-2,1.354216319E-2
3.006186407E0,1.988713630E-2,-3.537340835E-2,1.673795283E-2
3.008689375E0,1.988713630E-2,-3.537340835E-2,1.460742671E-2
3.011192344E0,1.775661111E-2,-3.324288130E-2,1.460742671E-2
3.013695417E0,1.882187463E-2,-3.750393912E-2,1.780321635E-2
3.016198334E0,1.243029255E-2,-4.069972783E-2,1.673795283E-2
3.018701354E0,1.029976644E-2,-3.750393912E-2,1.780321635E-2
3.021204375E0,1.349555701E-2,-4.176498950E-2,2.419479750E-2
3.023707396E0,1.349555701E-2,-4.176498950E-2,2.206427045E-2
3.026166354E0,1.029976644E-2,-4.176498950E-2,2.312953584E-2
3.028669323E0,1.029976644E-2,-4.389551654E-2,2.312953584E-2
3.031172344E0,7.103975862E-3,-4.496078193E-2,2.419479750E-2
3.033675365E0,8.169239387E-3,-4.389551654E-2,2.739058621E-2
3.036178334E0,7.123951800E-4,-4.496078193E-2,2.739058621E-2
3.038681354E0,-1.418131869E-3,-4.709130898E-2,2.952111326E-2
3.041184323E0,3.908185288E-3,-4.602604359E-2,3.165164217E-2
3.043687344E0,-4.613922443E-3,-4.815657064E-2,3.378216922E-2
3.046190417E0,-1.207076758E-2,-4.602604359E-2,3.697796166E-2
3.048693386E0,-9.940239601E-3,-5.135236308E-2,3.591270000E-2
3.051196354E0,-1.313603111E-2,-5.454815552E-2,3.804322705E-2
3.053699375E0,-1.739708334E-2,-5.348289013E-2,3.804322705E-2
3.056185573E0,-1.846234873E-2,-4.815657064E-2,3.804322705E-2
3.058688594E0,-1.739708334E-2,-4.602604359E-2,3.697796166E-2
3.061191615E0,-1.739708334E-2,-4.602604359E-2,3.910848871E-2
3.063694584E0,-2.165813930E-2,-4.389551654E-2,3.910848871E-2
3.066197657E0,-2.272340283E-2,-4.496078193E-2,3.697796166E-2
3.068700625E0,-2.165813930E-2,-4.283025488E-2,3.910848871E-2
3.071203594E0,-2.591919340E-2,-4.069972783E-2,4.123901576E-2
3.073706615E0,-2.698445693E-2,-4.176498950E-2,4.230427742E-2
3.076209636E0,-3.124551103E-2,-4.069972783E-2,3.804322705E-2
3.078712657E0,-3.231077269E-2,-4.069972783E-2,3.804322705E-2
3.081215625E0,-3.018024750E-2,-3.643867373E-2,3.804322705E-2
3.083718646E0,-2.698445693E-2,-3.324288130E-2,3.804322705E-2
3.086255573E0,-2.591919340E-2,-2.685129642E-2,3.271690756E-2
3.088758542E0,-2.059287578E-2,-2.152498066E-2,3.271690756E-2
3.091261563E0,-2.059287578E-2,-1.832919009E-2,3.058637865E-2
3.093764532E0,-1.526655816E-2,-1.300287247E-2,2.419479750E-2
3.096267552E0,-1.420129463E-2,-7.676555309E-3,1.993374154E-2
3.098770573E0,-1.526655816E-2,-4.480765201E-3,1.780321635E-2
3.101273542E0,-1.313603111E-2,-8.741818368E-3,1.567268930E-2
3.103776615E0,-1.526655816E-2,-1.193760894E-2,1.673795283E-2
3.106279636E0,-1.526655816E-2,-1.300287247E-2,1.460742671E-2
3.108782552E0,-1.739708334E-2,-1.619866304E-2,1.460742671E-2
3.111285573E0,-1.952761225E-2,-1.619866304E-2,1.354216319E-2
3.113788594E0,-1.313603111E-2,-1.087234542E-2,8.215845563E-3
3.116219896E0,-4.613922443E-3,-8.741818368E-3,2.889527474E-3
3.118722865E0,-5.679186434E-3,-1.087234542E-2,2.889527474E-3
3.121225886E0,-1.418131869E-3,-1.300287247E-2,5.020053592E-3
3.123728907E0,7.123951800E-4,-2.045971714E-2,2.889527474E-3
3.126231927E0,-1.418131869E-3,-1.939445361E-2,1.824264065E-3
3.128734896E0,-3.528683446E-4,-1.300287247E-2,-3.502053674E-3
3.131237917E0,-1.418131869E-3,-1.513339952E-2,-3.502053674E-3
3.133740886E0,3.908185288E-3,-1.939445361E-2,-8.828370832E-3
3.136243907E0,4.973448813E-3,-2.472077124E-2,-8.828370832E-3
3.138746927E0,-2.483395394E-3,-2.791656181E-2,-4.567317199E-3
3.141249896E0,-3.528683446E-4,-1.619866304E-2,-7.763107773E-3
3.143752969E0,-3.528683446E-4,-8.741818368E-3,-1.628521644E-2
3.146272032E0,1.777658705E-3,-6.611291785E-3,-1.628521644E-2
3.148775052E0,4.973448813E-3,-8.741818368E-3,-1.521995198E-2
3.151278073E0,2.842921996E-3,-3.415501444E-3,-1.415468846E-2
3.153781042E0,1.777658705E-3,1.256345212E-2,-1.735047996E-2
3.156284063E0,2.842921996E-3,2.854240686E-2,-1.841574349E-2
3.158787084E0,7.123951800E-4,1.895503327E-2,-1.415468846E-2
3.161290104E0,-3.548658919E-3,-1.087234542E-2,-1.202416141E-2
3.163793073E0,-1.420129463E-2,-3.856920078E-2,-8.828370832E-3
3.166296146E0,-3.231077269E-2,-7.265762985E-2,1.824264065E-3
3.168799115E0,-4.402866960E-2,-8.224499971E-2,3.954790998E-3
3.171302136E0,-4.509393498E-2,-6.520078331E-2,7.590005407E-4
3.173805104E0,-3.444129974E-2,-4.496078193E-2,-5.632580724E-3
3.176320052E0,-1.526655816E-2,-3.430814296E-2,-4.567317199E-3
3.178823021E0,1.777658705E-3,-3.643867373E-2,-2.436790615E-3
3.181326042E0,1.456082053E-2,-3.324288130E-2,-2.436790615E-3
3.183829063E0,1.562608406E-2,-2.365550771E-2,2.889527474E-3
3.186332084E0,-3.548658919E-3,-2.685129642E-2,9.281109087E-3
3.188835052E0,-2.804972045E-2,-3.004708886E-2,1.780321635E-2
3.191338073E0,-5.255078152E-2,-2.152498066E-2,1.460742671E-2
3.193841094E0,-6.639920175E-2,-1.726392657E-2,5.020053592E-3
3.196344115E0,-7.066025585E-2,-2.472077124E-2,5.020053592E-3
3.198847084E0,-6.107288599E-2,-3.324288130E-2,8.215845563E-3
3.201350052E0,-5.361604318E-2,-2.685129642E-2,1.034637261E-2
3.203853073E0,-5.148551613E-2,-1.087234542E-2,1.141163614E-2
3.206357917E0,-4.935498908E-2,-6.611291785E-3,1.354216319E-2
3.208860886E0,-4.615919665E-2,-1.087234542E-2,1.034637261E-2
3.211363907E0,-4.615919665E-2,-1.513339952E-2,1.141163614E-2
3.213866875E0,-4.402866960E-2,-1.939445361E-2,1.034637261E-2
3.216369896E0,-4.083288088E-2,-2.259024419E-2,9.281109087E-3
3.218872917E0,-3.337603435E-2,-2.259024419E-2,1.354216319E-2
3.221375938E0,-2.804972045E-2,-1.619866304E-2,1.886847988E-2
3.223878907E0,-2.804972045E-2,-1.513339952E-2,2.099900506E-2
3.226381979E0,-2.911498398E-2,-1.939445361E-2,1.247689780E-2
3.228884948E0,-2.591919340E-2,-1.939445361E-2,3.954790998E-3
3.231387917E0,-1.526655816E-2,-1.513339952E-2,-3.062629839E-4
3.233890990E0,-7.809713483E-3,-1.300287247E-2,7.590005407E-4
3.236367552E0,-5.679186434E-3,-2.045971714E-2,8.215845563E-3
3.238870573E0,-4.613922443E-3,-2.685129642E-2,1.034637261E-2
3.241373594E0,-5.679186434E-3,-2.472077124E-2,8.215845563E-3
3.243876563E0,-5.679186434E-3,-1.619866304E-2,2.889527474E-3
3.246379636E0,6.038712338E-3,-4.480765201E-3,-3.502053674E-3
3.248882604E0,1.775661111E-2,-7.676555309E-3,-4.567317199E-3
3.251385625E0,2.521345578E-2,-1.832919009E-2,7.590005407E-4
3.253888594E0,2.627871931E-2,-2.152498066E-2,8.215845563E-3
3.256391615E0,2.308292873E-2,-1.726392657E-2,5.020053592E-3
3.258894636E0,1.456082053E-2,-1.832919009E-2,3.954790998E-3
3.261397657E0,6.038712338E-3,-1.939445361E-2,6.085318048E-3
3.263900625E0,-3.548658919E-3,-2.152498066E-2,7.150581572E-3
3.266430261E0,-8.874977008E-3,-2.472077124E-2,8.215845563E-3
3.268933229E0,-1.739708334E-2,-2.045971714E-2,9.281109087E-3
3.271436302E0,-2.378866635E-2,-1.193760894E-2,1.034637261E-2
3.273939219E0,-2.059287578E-2,-4.480765201E-3,1.034637261E-2
3.276442240E0,-2.591919340E-2,5.106606986E-3,2.099900506E-2
3.278945261E0,-2.591919340E-2,2.108556032E-2,2.632532455E-2
3.281448282E0,-2.272340283E-2,4.345609248E-2,2.099900506E-2
3.283951250E0,-1.100550406E-2,5.517398566E-2,1.354216319E-2
3.286454323E0,-1.418131869E-3,5.304346234E-2,1.247689780E-2
3.288957292E0,2.842921996E-3,5.730451271E-2,1.567268930E-2
3.291460261E0,6.038712338E-3,7.115294784E-2,1.567268930E-2
3.293963282E0,1.136502996E-2,8.819716424E-2,1.247689780E-2
3.296470365E0,1.349555701E-2,1.031108499E-1,1.034637261E-2
3.298973438E0,1.562608406E-2,1.095024273E-1,9.281109087E-3
3.301476407E0,1.882187463E-2,1.212203354E-1,6.085318048E-3
3.303979375E0,2.414819226E-2,1.308076978E-1,7.150581572E-3
3.306482448E0,2.414819226E-2,1.286771744E-1,9.281109087E-3
3.308985417E0,1.882187463E-2,1.212203354E-1,1.354216319E-2
3.311488438E0,8.169239387E-3,1.116329581E-1,1.886847988E-2
3.313991407E0,-1.100550406E-2,8.393610269E-2,2.952111326E-2
3.316494427E0,-3.231077269E-2,4.026029631E-2,3.804322705E-2
3.318997396E0,-5.042025447E-2,7.237134036E-3,3.591270000E-2
3.321500417E0,-5.681183189E-2,-3.415501444E-3,2.526005916E-2
3.324003490E0,-4.402866960E-2,-5.546028726E-3,8.215845563E-3
3.326507865E0,-2.378866635E-2,-8.741818368E-3,7.590005407E-4
3.329010886E0,2.842921996E-3,-1.087234542E-2,3.954790998E-3
3.331513907E0,1.456082053E-2,-2.197108697E-4,8.215845563E-3
3.334016875E0,1.456082053E-2,1.149818860E-2,7.590005407E-4
3.336519948E0,1.349555701E-2,2.321608737E-2,-8.828370832E-3
3.339022917E0,7.103975862E-3,2.854240686E-2,-1.415468846E-2
3.341525938E0,1.777658705E-3,2.641187608E-2,-1.628521644E-2
3.344028959E0,-1.418131869E-3,2.108556032E-2,-1.735047996E-2
3.346531927E0,7.103975862E-3,1.895503327E-2,-2.800311521E-2
3.349034948E0,1.775661111E-2,1.575924270E-2,-3.439469635E-2
3.351537917E0,3.480082750E-2,1.895503327E-2,-3.865575045E-2
3.354040938E0,4.758399352E-2,2.428135090E-2,-4.078627378E-2
3.356512396E0,6.249767914E-2,3.493398055E-2,-5.037364736E-2
3.359015417E0,6.782399863E-2,4.771714285E-2,-5.676522851E-2
3.361518438E0,7.315032184E-2,5.623925105E-2,-5.889575556E-2
3.364021407E0,7.741136849E-2,6.050030515E-2,-6.209154427E-2
3.366524427E0,7.421558350E-2,5.943504348E-2,-6.741786003E-2
3.369027500E0,7.208505273E-2,5.410872400E-2,-7.061365247E-2
3.371530469E0,6.569347531E-2,4.878240824E-2,-7.167891413E-2
3.374033438E0,5.930188671E-2,4.878240824E-2,-7.274418324E-2
3.376536459E0,5.717135966E-2,4.665188119E-2,-7.487470657E-2
3.379039479E0,5.291030928E-2,4.452135414E-2,-7.487470657E-2
3.381542448E0,4.438820109E-2,4.345609248E-2,-7.167891413E-2
3.384045469E0,4.012714699E-2,4.558661953E-2,-7.167891413E-2
3.386557292E0,3.373556584E-2,4.452135414E-2,-7.061365247E-2
3.389060365E0,2.734398097E-2,4.239082709E-2,-6.315681338E-2
3.391563334E0,1.775661111E-2,4.132556543E-2,-6.102628261E-2
3.394066302E0,1.029976644E-2,3.919503465E-2,-5.889575556E-2
3.396569323E0,1.777658705E-3,3.812977299E-2,-5.250417441E-2
3.399072344E0,-3.548658919E-3,3.493398055E-2,-4.930838197E-2
3.401575365E0,-1.207076758E-2,3.067292832E-2,-4.078627378E-2
3.404078334E0,-2.165813930E-2,3.067292832E-2,-3.865575045E-2
3.406581354E0,-2.272340283E-2,2.747714147E-2,-3.439469635E-2
3.409084375E0,-2.804972045E-2,2.747714147E-2,-2.480732463E-2
3.411587344E0,-3.231077269E-2,2.534661256E-2,-2.054627053E-2
3.414090417E0,-3.870235384E-2,2.534661256E-2,-1.841574349E-2
3.416584584E0,-4.402866960E-2,2.428135090E-2,-1.415468846E-2
3.419087604E0,-4.189814255E-2,2.534661256E-2,-8.828370832E-3
3.421590625E0,-4.296340793E-2,2.534661256E-2,-3.502053674E-3
3.424093594E0,-4.402866960E-2,2.215082385E-2,1.824264065E-3
3.426596667E0,-4.083288088E-2,2.108556032E-2,3.954790998E-3
3.429099636E0,-3.870235384E-2,2.321608737E-2,5.020053592E-3
3.431602657E0,-3.657182679E-2,2.428135090E-2,6.085318048E-3
3.434105625E0,-3.444129974E-2,2.428135090E-2,7.150581572E-3
3.436608646E0,-3.124551103E-2,2.747714147E-2,1.141163614E-2
3.439111667E0,-3.124551103E-2,2.960766666E-2,1.141163614E-2
3.441614688E0,-2.591919340E-2,3.173819184E-2,1.141163614E-2
3.444117657E0,-2.165813930E-2,3.280345351E-2,1.141163614E-2
3.446634011E0,-1.952761225E-2,3.280345351E-2,8.215845563E-3
3.449137032E0,-1.313603111E-2,3.919503465E-2,1.034637261E-2
3.451640052E0,-1.100550406E-2,4.345609248E-2,9.281109087E-3
3.454143073E0,-4.613922443E-3,4.452135414E-2,5.020053592E-3
3.456646042E0,-2.483395394E-3,4.878240824E-2,3.954790998E-3
3.459149063E0,7.123951800E-4,5.304346234E-2,1.824264065E-3
3.461652084E0,4.973448813E-3,5.730451271E-2,-1.371526509E-3
3.464155052E0,8.169239387E-3,5.623925105E-2,-4.567317199E-3
3.466658073E0,1.349555701E-2,5.943504348E-2,-7.763107773E-3
3.469161042E0,1.562608406E-2,6.263083965E-2,-9.893634357E-3
3.471664063E0,1.988713630E-2,6.582662463E-2,-1.308942493E-2
3.474167084E0,2.414819226E-2,5.943504348E-2,-1.521995198E-2
3.476654375E0,2.414819226E-2,6.050030515E-2,-1.415468846E-2
3.479157448E0,2.947450988E-2,6.156557426E-2,-1.948100701E-2
3.481660417E0,2.947450988E-2,5.730451271E-2,-2.267679758E-2
3.484163386E0,3.053977713E-2,5.623925105E-2,-2.587258816E-2
3.486666459E0,3.267030045E-2,5.517398566E-2,-3.013364226E-2
3.489169427E0,3.693135455E-2,5.517398566E-2,-3.119890578E-2
3.491672448E0,3.586609289E-2,5.836978182E-2,-3.332943097E-2
3.494175417E0,3.693135455E-2,5.730451271E-2,-3.439469635E-2
3.496678438E0,4.012714699E-2,5.730451271E-2,-3.545995802E-2
3.499181459E0,3.906188160E-2,5.836978182E-2,-3.545995802E-2
3.501684427E0,4.119240865E-2,5.943504348E-2,-3.332943097E-2
3.504187500E0,3.799661994E-2,5.730451271E-2,-3.759048507E-2
3.506722552E0,3.799661994E-2,5.730451271E-2,-3.652521968E-2
3.509225573E0,3.586609289E-2,5.410872400E-2,-3.652521968E-2
3.511728594E0,3.586609289E-2,5.091293529E-2,-3.972101212E-2
3.514231563E0,3.267030045E-2,6.156557426E-2,-4.078627378E-2
3.516734584E0,3.160503879E-2,7.541399449E-2,-4.078627378E-2
3.519237657E0,4.012714699E-2,7.860978693E-2,-4.398206621E-2
3.521740625E0,4.119240865E-2,7.541399449E-2,-4.291680455E-2
3.524243594E0,4.119240865E-2,7.221820951E-2,-3.972101212E-2
3.526746615E0,4.012714699E-2,7.328347117E-2,-4.185153916E-2
3.529249636E0,3.160503879E-2,7.221820951E-2,-3.865575045E-2
3.531752657E0,2.840924449E-2,7.008767873E-2,-4.078627378E-2
3.534255625E0,2.627871931E-2,6.689189374E-2,-4.078627378E-2
3.536727032E0,2.414819226E-2,6.582662463E-2,-3.865575045E-2
3.539230052E0,1.882187463E-2,6.263083965E-2,-3.439469635E-2
3.541733073E0,1.136502996E-2,5.730451271E-2,-3.332943097E-2
3.544236094E0,1.136502996E-2,5.410872400E-2,-3.332943097E-2
3.546739115E0,1.243029255E-2,5.517398566E-2,-3.013364226E-2
3.549242084E0,1.243029255E-2,5.730451271E-2,-3.226416558E-2
3.551745052E0,1.669134758E-2,6.263083965E-2,-3.226416558E-2
3.554248073E0,2.414819226E-2,7.115294784E-2,-3.119890578E-2
3.556751146E0,2.734398097E-2,7.541399449E-2,-2.906837873E-2
3.559254063E0,2.947450988E-2,7.008767873E-2,-2.587258816E-2
3.561757084E0,3.160503879E-2,7.541399449E-2,-2.374206111E-2
3.564260104E0,3.053977713E-2,7.328347117E-2,-2.374206111E-2
3.566792917E0,3.267030045E-2,7.328347117E-2,-2.480732463E-2
3.569295938E0,3.373556584E-2,7.434873283E-2,-2.161153406E-2
3.571798959E0,3.267030045E-2,7.541399449E-2,-2.480732463E-2
3.574301927E0,3.373556584E-2,7.541399449E-2,-2.480732463E-2
3.576804948E0,3.480082750E-2,7.754452527E-2,-2.054627053E-2
3.579307969E0,3.693135455E-2,7.967504859E-2,-2.161153406E-2
3.581810990E0,3.693135455E-2,7.221820951E-2,-1.735047996E-2
3.584313959E0,3.799661994E-2,7.008767873E-2,-1.735047996E-2
3.586816979E0,3.693135455E-2,7.115294784E-2,-1.948100701E-2
3.589319948E0,3.480082750E-2,7.115294784E-2,-1.628521644E-2
3.591822969E0,3.267030045E-2,6.689189374E-2,-1.308942493E-2
3.594325990E0,2.840924449E-2,5.730451271E-2,-1.202416141E-2
3.596832709E0,2.521345578E-2,5.091293529E-2,-1.202416141E-2
3.599335677E0,1.882187463E-2,4.984766990E-2,-1.095889788E-2
3.601838698E0,1.136502996E-2,4.345609248E-2,-5.632580724E-3
3.604341667E0,8.169239387E-3,3.493398055E-2,-5.632580724E-3
3.606844688E0,4.973448813E-3,3.173819184E-2,-6.697844248E-3
3.609347709E0,1.777658705E-3,2.854240686E-2,-6.697844248E-3
3.611850729E0,1.777658705E-3,2.854240686E-2,-2.436790615E-3
3.614353698E0,-1.418131869E-3,2.747714147E-2,-4.567317199E-3
3.616856719E0,-3.528683446E-4,2.747714147E-2,-4.567317199E-3
3.619359740E0,1.777658705E-3,2.747714147E-2,-6.697844248E-3
3.621862761E0,6.038712338E-3,3.173819184E-2,-4.567317199E-3
3.624365729E0,8.169239387E-3,3.386871889E-2,-7.763107773E-3
3.626870938E0,1.029976644E-2,3.067292832E-2,-5.632580724E-3
3.629373959E0,1.029976644E-2,2.960766666E-2,-5.632580724E-3
3.631876979E0,1.243029255E-2,3.280345351E-2,-5.632580724E-3
3.634380000E0,1.136502996E-2,3.386871889E-2,-7.763107773E-3
3.636882969E0,1.136502996E-2,3.173819184E-2,-1.095889788E-2
3.639385990E0,1.456082053E-2,3.386871889E-2,-9.893634357E-3
3.641888959E0,7.103975862E-3,2.960766666E-2,-1.415468846E-2
3.644391979E0,8.169239387E-3,2.641187608E-2,-1.202416141E-2
3.646895000E0,9.234502912E-3,2.960766666E-2,-9.893634357E-3
3.649398021E0,3.908185288E-3,2.747714147E-2,-9.893634357E-3
3.651900990E0,7.123951800E-4,2.428135090E-2,-1.095889788E-2
3.654404011E0,-3.528683446E-4,2.534661256E-2,-1.415468846E-2
3.656906979E0,-4.613922443E-3,2.321608737E-2,-1.415468846E-2
3.659410000E0,-7.809713483E-3,2.215082385E-2,-1.308942493E-2
3.661913021E0,-7.809713483E-3,1.788976789E-2,-1.521995198E-2
3.664415990E0,-9.940239601E-3,2.002029680E-2,-1.415468846E-2
3.666919011E0,-1.420129463E-2,1.575924270E-2,-1.308942493E-2
3.669422032E0,-1.633182168E-2,1.362871565E-2,-1.521995198E-2
3.671925000E0,-1.952761225E-2,1.149818860E-2,-1.202416141E-2
3.674428021E0,-2.165813930E-2,1.469397917E-2,-1.308942493E-2
3.676931042E0,-2.485392801E-2,9.367661551E-3,-1.415468846E-2
3.679434011E0,-2.804972045E-2,8.302398026E-3,-1.202416141E-2
3.681937032E0,-2.698445693E-2,7.237134036E-3,-1.308942493E-2
3.684440052E0,-2.911498398E-2,7.237134036E-3,-1.521995198E-2
3.687019792E0,-3.018024750E-2,7.237134036E-3,-1.202416141E-2
3.689522761E0,-2.698445693E-2,7.237134036E-3,-1.308942493E-2
3.692025782E0,-2.804972045E-2,6.171870511E-3,-1.202416141E-2
3.694528802E0,-2.911498398E-2,8.302398026E-3,-1.308942493E-2
3.697031771E0,-2.911498398E-2,1.043292321E-2,-1.628521644E-2
3.699534844E0,-2.698445693E-2,9.367661551E-3,-1.415468846E-2
3.702037813E0,-2.591919340E-2,8.302398026E-3,-1.521995198E-2
3.704540782E0,-2.378866635E-2,1.043292321E-2,-1.095889788E-2
3.707043802E0,-2.059287578E-2,1.043292321E-2,-1.308942493E-2
3.709546823E0,-2.165813930E-2,1.149818860E-2,-1.308942493E-2
3.712049844E0,-1.952761225E-2,1.256345212E-2,-1.202416141E-2
3.714552813E0,-1.633182168E-2,1.362871565E-2,-1.308942493E-2
3.716987917E0,-1.739708334E-2,1.469397917E-2,-1.308942493E-2
3.719490938E0,-1.420129463E-2,1.149818860E-2,-1.202416141E-2
3.721993959E0,-1.207076758E-2,1.362871565E-2,-1.202416141E-2
3.724496979E0,-1.313603111E-2,1.043292321E-2,-1.308942493E-2
3.726999948E0,-9.940239601E-3,1.256345212E-2,-1.202416141E-2
3.729502969E0,-9.940239601E-3,1.682450622E-2,-1.202416141E-2
3.732005938E0,-9.940239601E-3,1.682450622E-2,-9.893634357E-3
3.734508959E0,-3.548658919E-3,2.002029680E-2,-1.202416141E-2
3.737012032E0,-1.418131869E-3,2.215082385E-2,-1.095889788E-2
3.739515000E0,-3.528683446E-4,2.002029680E-2,-1.095889788E-2
3.742017969E0,1.777658705E-3,2.321608737E-2,-1.308942493E-2
3.744520990E0,1.777658705E-3,2.747714147E-2,-1.521995198E-2
3.747023490E0,2.842921996E-3,2.747714147E-2,-1.202416141E-2
3.749526511E0,7.103975862E-3,2.854240686E-2,-1.308942493E-2
3.752029532E0,1.136502996E-2,2.960766666E-2,-1.308942493E-2
3.754532500E0,1.562608406E-2,3.173819184E-2,-1.841574349E-2
3.757035521E0,1.562608406E-2,3.599924594E-2,-1.735047996E-2
3.759538542E0,1.882187463E-2,3.706450760E-2,-1.521995198E-2
3.762041563E0,2.095240168E-2,3.812977299E-2,-1.628521644E-2
3.764544532E0,2.095240168E-2,3.812977299E-2,-1.628521644E-2
3.767047552E0,2.414819226E-2,4.026029631E-2,-1.628521644E-2
3.769550573E0,2.521345578E-2,4.345609248E-2,-1.521995198E-2
3.772053542E0,2.414819226E-2,4.345609248E-2,-1.521995198E-2
3.774556563E0,2.947450988E-2,4.345609248E-2,-1.521995198E-2
3.777097552E0,2.840924449E-2,4.026029631E-2,-1.308942493E-2
3.779600521E0,2.840924449E-2,3.706450760E-2,-1.095889788E-2
3.782103542E0,2.627871931E-2,4.026029631E-2,-1.095889788E-2
3.784606511E0,2.627871931E-2,4.132556543E-2,-1.095889788E-2
3.787109532E0,2.734398097E-2,3.706450760E-2,-3.502053674E-3
3.789612604E0,2.840924449E-2,3.599924594E-2,-2.436790615E-3
3.792115521E0,2.627871931E-2,3.493398055E-2,-3.502053674E-3
3.794618542E0,2.308292873E-2,3.493398055E-2,-3.062629839E-4
3.797121563E0,2.095240168E-2,3.493398055E-2,7.590005407E-4
3.799624584E0,2.201766521E-2,3.386871889E-2,7.150581572E-3
3.802127604E0,2.201766521E-2,3.173819184E-2,7.150581572E-3
3.804630573E0,1.562608406E-2,2.960766666E-2,7.150581572E-3
3.807085313E0,1.775661111E-2,3.386871889E-2,1.141163614E-2
3.809588334E0,2.414819226E-2,3.493398055E-2,9.281109087E-3
3.812091354E0,2.201766521E-2,3.493398055E-2,1.247689780E-2
3.814594323E0,2.201766521E-2,3.386871889E-2,1.354216319E-2
3.817097344E0,2.414819226E-2,3.386871889E-2,1.673795283E-2
3.819600365E0,2.521345578E-2,3.706450760E-2,1.886847988E-2
3.822103334E0,3.160503879E-2,3.919503465E-2,2.419479750E-2
3.824606354E0,3.373556584E-2,4.239082709E-2,2.419479750E-2
3.827109375E0,3.053977713E-2,4.345609248E-2,2.419479750E-2
3.829612396E0,3.160503879E-2,4.026029631E-2,2.526005916E-2
3.832115365E0,3.160503879E-2,4.132556543E-2,2.845585160E-2
3.834618386E0,3.053977713E-2,4.345609248E-2,3.165164217E-2
3.837105573E0,3.373556584E-2,4.452135414E-2,2.952111326E-2
3.839608594E0,3.267030045E-2,4.239082709E-2,3.058637865E-2
3.842111615E0,3.373556584E-2,4.345609248E-2,3.484743088E-2
3.844614584E0,3.160503879E-2,4.558661953E-2,3.165164217E-2
3.847117604E0,3.267030045E-2,4.665188119E-2,3.271690756E-2
3.849620625E0,3.373556584E-2,4.771714285E-2,3.378216922E-2
3.852123646E0,3.267030045E-2,4.345609248E-2,3.591270000E-2
3.854626615E0,3.053977713E-2,4.665188119E-2,3.484743088E-2
3.857129636E0,3.160503879E-2,4.558661953E-2,3.165164217E-2
3.859632657E0,3.053977713E-2,4.452135414E-2,3.165164217E-2
3.862135625E0,3.267030045E-2,4.665188119E-2,2.739058621E-2
3.864638646E0,2.734398097E-2,5.091293529E-2,2.952111326E-2
3.867167240E0,3.160503879E-2,4.878240824E-2,2.739058621E-2
3.869670209E0,3.053977713E-2,4.984766990E-2,2.419479750E-2
3.872173229E0,2.840924449E-2,5.304346234E-2,2.312953584E-2
3.874676250E0,3.160503879E-2,5.304346234E-2,1.993374154E-2
3.877179271E0,3.160503879E-2,5.304346234E-2,1.673795283E-2
3.879682292E0,3.160503879E-2,5.410872400E-2,1.567268930E-2
3.882185261E0,3.267030045E-2,5.730451271E-2,1.354216319E-2
3.884688282E0,3.373556584E-2,5.623925105E-2,8.215845563E-3
3.887191302E0,3.480082750E-2,5.623925105E-2,7.150581572E-3
3.889694271E0,3.586609289E-2,6.050030515E-2,2.889527474E-3
3.892197292E0,3.267030045E-2,5.943504348E-2,7.590005407E-4
3.894700261E0,3.586609289E-2,6.263083965E-2,-3.062629839E-4
3.897183907E0,3.586609289E-2,6.156557426E-2,-8.828370832E-3
3.899686927E0,3.693135455E-2,6.476136297E-2,-1.095889788E-2
3.902189948E0,3.586609289E-2,6.476136297E-2,-1.521995198E-2
3.904692917E0,3.373556584E-2,6.476136297E-2,-1.521995198E-2
3.907195990E0,3.586609289E-2,6.156557426E-2,-1.628521644E-2
3.909698959E0,3.373556584E-2,6.156557426E-2,-1.948100701E-2
3.912201927E0,3.160503879E-2,6.263083965E-2,-1.735047996E-2
3.914704948E0,2.947450988E-2,6.156557426E-2,-2.161153406E-2
3.917207969E0,2.947450988E-2,5.943504348E-2,-2.480732463E-2
3.919710990E0,2.414819226E-2,5.836978182E-2,-2.800311521E-2
3.922213959E0,2.521345578E-2,5.943504348E-2,-3.013364226E-2
3.924716979E0,2.627871931E-2,6.156557426E-2,-2.906837873E-2
3.927206302E0,2.840924449E-2,6.369610131E-2,-2.800311521E-2
3.929709323E0,2.521345578E-2,6.369610131E-2,-3.013364226E-2
3.932212396E0,2.627871931E-2,6.582662463E-2,-3.119890578E-2
3.934715365E0,2.414819226E-2,6.582662463E-2,-3.013364226E-2
3.937218334E0,2.095240168E-2,6.369610131E-2,-3.119890578E-2
3.939721354E0,2.095240168E-2,6.476136297E-2,-3.439469635E-2
3.942224375E0,1.988713630E-2,6.795715541E-2,-3.545995802E-2
3.944727396E0,2.095240168E-2,6.902241707E-2,-3.332943097E-2
3.947230365E0,1.988713630E-2,6.689189374E-2,-3.545995802E-2
3.949733386E0,1.775661111E-2,6.795715541E-2,-3.545995802E-2
3.952236354E0,1.669134758E-2,6.902241707E-2,-3.119890578E-2
3.954739375E0,1.882187463E-2,6.902241707E-2,-3.332943097E-2
3.957256719E0,1.988713630E-2,6.902241707E-2,-3.226416558E-2
3.959759688E0,1.669134758E-2,7.008767873E-2,-2.906837873E-2
3.962262709E0,1.669134758E-2,7.115294784E-2,-3.013364226E-2
3.964765677E0,1.669134758E-2,7.328347117E-2,-2.906837873E-2
3.967268698E0,1.456082053E-2,7.328347117E-2,-2.480732463E-2
3.969771771E0,1.349555701E-2,7.328347117E-2,-2.480732463E-2
3.972274740E0,1.349555701E-2,7.434873283E-2,-2.161153406E-2
3.974777709E0,1.349555701E-2,7.115294784E-2,-2.161153406E-2
3.977280782E0,1.349555701E-2,7.008767873E-2,-1.841574349E-2
3.979783750E0,1.136502996E-2,6.902241707E-2,-1.841574349E-2
3.982286719E0,1.136502996E-2,6.902241707E-2,-1.841574349E-2
3.984789792E0,1.243029255E-2,7.008767873E-2,-1.628521644E-2
3.987279167E0,1.136502996E-2,6.902241707E-2,-1.202416141E-2
3.989782188E0,1.136502996E-2,7.008767873E-2,-1.095889788E-2
3.992285209E0,1.136502996E-2,6.795715541E-2,-1.095889788E-2
3.994788229E0,1.029976644E-2,6.689189374E-2,-8.828370832E-3
3.997291250E0,1.029976644E-2,6.795715541E-2,-7.763107773E-3
3.999794219E0,1.456082053E-2,6.902241707E-2,-8.828370832E-3
4.002297240E0,1.562608406E-2,7.328347117E-2,-8.828370832E-3
4.004800209E0,1.775661111E-2,7.647926360E-2,-7.763107773E-3
4.007303229E0,1.882187463E-2,7.647926360E-2,-5.632580724E-3
4.009806250E0,1.882187463E-2,8.074031770E-2,-6.697844248E-3
4.012309219E0,1.988713630E-2,8.074031770E-2,-6.697844248E-3
4.014812240E0,2.308292873E-2,8.287084103E-2,-3.502053674E-3
4.017329063E0,2.308292873E-2,8.180557936E-2,-3.502053674E-3
4.019832084E0,2.414819226E-2,7.967504859E-2,-3.502053674E-3
4.022335104E0,2.521345578E-2,7.967504859E-2,-2.436790615E-3
4.024838073E0,2.308292873E-2,8.180557936E-2,-4.567317199E-3
4.027341094E0,2.840924449E-2,7.967504859E-2,-3.502053674E-3
4.029844115E0,3.373556584E-2,7.647926360E-2,-2.436790615E-3
4.032347136E0,3.053977713E-2,7.754452527E-2,-1.371526509E-3
4.034850157E0,3.160503879E-2,7.328347117E-2,-2.436790615E-3
4.037353125E0,3.373556584E-2,6.795715541E-2,-3.062629839E-4
4.039856094E0,3.373556584E-2,6.902241707E-2,-3.062629839E-4
4.042359115E0,3.693135455E-2,6.795715541E-2,-3.062629839E-4
4.044862136E0,3.906188160E-2,6.369610131E-2,1.824264065E-3
4.047348282E0,3.799661994E-2,6.156557426E-2,1.824264065E-3
4.049851250E0,3.693135455E-2,6.050030515E-2,-3.062629839E-4
4.052354271E0,3.480082750E-2,5.943504348E-2,-1.371526509E-3
4.054857240E0,3.693135455E-2,5.836978182E-2,-2.436790615E-3
4.057360261E0,3.799661994E-2,5.836978182E-2,-3.062629839E-4
4.059863282E0,3.693135455E-2,5.836978182E-2,-2.436790615E-3
4.062366250E0,3.693135455E-2,6.050030515E-2,-3.502053674E-3
4.064869323E0,3.693135455E-2,5.836978182E-2,-8.828370832E-3
4.067372292E0,3.586609289E-2,5.836978182E-2,-5.632580724E-3
4.069875313E0,3.586609289E-2,6.050030515E-2,-7.763107773E-3
4.072378282E0,3.267030045E-2,6.263083965E-2,-9.893634357E-3
4.074881354E0,3.373556584E-2,6.476136297E-2,-9.893634357E-3
4.077382188E0,3.160503879E-2,6.582662463E-2,-1.202416141E-2
4.079885261E0,3.053977713E-2,6.689189374E-2,-1.415468846E-2
4.082388177E0,2.947450988E-2,6.795715541E-2,-1.628521644E-2
4.084891198E0,2.947450988E-2,7.008767873E-2,-1.415468846E-2
4.087394167E0,2.414819226E-2,7.328347117E-2,-1.521995198E-2
4.089897188E0,2.095240168E-2,7.541399449E-2,-1.841574349E-2
4.092400157E0,2.201766521E-2,7.860978693E-2,-1.841574349E-2
4.094903177E0,1.775661111E-2,7.860978693E-2,-1.948100701E-2
4.097406146E0,1.562608406E-2,7.967504859E-2,-2.054627053E-2
4.099909167E0,1.882187463E-2,8.180557936E-2,-1.948100701E-2
4.102412136E0,1.562608406E-2,8.500136435E-2,-2.267679758E-2
4.104915157E0,1.669134758E-2,8.500136435E-2,-2.267679758E-2
4.107449375E0,1.882187463E-2,8.713190258E-2,-2.267679758E-2
4.109952396E0,1.775661111E-2,8.713190258E-2,-1.948100701E-2
4.112455417E0,1.988713630E-2,8.819716424E-2,-2.054627053E-2
4.114958386E0,2.095240168E-2,8.819716424E-2,-1.735047996E-2
4.117461354E0,1.669134758E-2,8.713190258E-2,-1.202416141E-2
4.119964375E0,1.988713630E-2,8.606663346E-2,-1.202416141E-2
4.122467344E0,2.414819226E-2,8.926242590E-2,-1.095889788E-2
4.124970365E0,2.521345578E-2,8.287084103E-2,-1.095889788E-2
4.127473334E0,2.734398097E-2,8.074031770E-2,-9.893634357E-3
4.129976302E0,2.840924449E-2,7.754452527E-2,-6.697844248E-3
4.132479271E0,2.840924449E-2,7.967504859E-2,-4.567317199E-3
4.134982344E0,3.160503879E-2,7.967504859E-2,-1.371526509E-3
4.137448438E0,2.947450988E-2,7.434873283E-2,-1.371526509E-3
4.139951459E0,2.840924449E-2,7.328347117E-2,-3.062629839E-4
4.142454427E0,3.480082750E-2,7.008767873E-2,7.590005407E-4
4.144957448E0,3.693135455E-2,6.902241707E-2,2.889527474E-3
4.147460417E0,3.693135455E-2,7.328347117E-2,2.889527474E-3
4.149963438E0,4.332293943E-2,7.008767873E-2,8.215845563E-3
4.152466459E0,4.758399352E-2,6.902241707E-2,1.034637261E-2
4.154969427E0,5.397557095E-2,7.008767873E-2,8.215845563E-3
4.157472396E0,6.143241748E-2,7.115294784E-2,9.281109087E-3
4.159975417E0,6.995452940E-2,7.221820951E-2,9.281109087E-3
4.162478334E0,7.634610683E-2,7.541399449E-2,9.281109087E-3
4.164981407E0,8.380295336E-2,7.860978693E-2,8.215845563E-3
4.167490052E0,9.125979990E-2,7.860978693E-2,5.020053592E-3
4.169993125E0,9.978190809E-2,7.860978693E-2,8.215845563E-3
4.172496042E0,1.061734855E-1,7.967504859E-2,9.281109087E-3
4.174999063E0,1.157608554E-1,8.074031770E-2,6.085318048E-3
4.177502084E0,1.242829561E-1,8.074031770E-2,1.824264065E-3
4.180005052E0,1.306745410E-1,7.967504859E-2,7.590005407E-4
4.182508021E0,1.360008568E-1,7.967504859E-2,1.824264065E-3
4.185010990E0,1.360008568E-1,7.647926360E-2,7.590005407E-4
4.187514011E0,1.413271725E-1,7.434873283E-2,-3.062629839E-4
4.190017032E0,1.445229650E-1,7.328347117E-2,-3.502053674E-3
4.192519948E0,1.498492956E-1,7.221820951E-2,-3.502053674E-3
4.195023021E0,1.509145498E-1,7.008767873E-2,-5.632580724E-3
4.197521771E0,1.487840265E-1,7.115294784E-2,-6.697844248E-3
4.200024844E0,1.530450732E-1,6.689189374E-2,-8.828370832E-3
4.202527813E0,1.519798189E-1,6.582662463E-2,-1.095889788E-2
4.205030782E0,1.498492956E-1,6.476136297E-2,-1.308942493E-2
4.207533750E0,1.477187574E-1,6.476136297E-2,-1.308942493E-2
4.210036771E0,1.487840265E-1,6.369610131E-2,-1.415468846E-2
4.212539740E0,1.498492956E-1,5.836978182E-2,-1.841574349E-2
4.215042761E0,1.391966492E-1,5.730451271E-2,-1.735047996E-2
4.217545782E0,1.370661110E-1,5.623925105E-2,-1.735047996E-2
4.220048750E0,1.370661110E-1,5.197819695E-2,-1.628521644E-2
4.222551667E0,1.306745410E-1,4.665188119E-2,-1.841574349E-2
4.225054740E0,1.264134794E-1,4.345609248E-2,-2.054627053E-2
4.227561354E0,1.221524402E-1,4.239082709E-2,-2.054627053E-2
4.230064375E0,1.114998013E-1,4.026029631E-2,-2.054627053E-2
4.232567344E0,1.029777005E-1,3.386871889E-2,-2.054627053E-2
4.235070365E0,9.765138477E-2,2.641187608E-2,-2.587258816E-2
4.237573334E0,9.019453824E-2,2.321608737E-2,-2.480732463E-2
4.240076354E0,7.954189926E-2,2.215082385E-2,-2.374206111E-2
4.242579375E0,6.888926774E-2,1.682450622E-2,-2.480732463E-2
4.245082344E0,5.823662505E-2,1.469397917E-2,-2.374206111E-2
4.247585313E0,5.184504390E-2,1.043292321E-2,-2.161153406E-2
4.250088282E0,4.225767031E-2,4.041343462E-3,-2.161153406E-2
4.252591250E0,3.373556584E-2,-2.197108697E-4,-2.161153406E-2
4.255094323E0,2.627871931E-2,-4.480765201E-3,-1.948100701E-2
4.257596250E0,1.775661111E-2,-7.676555309E-3,-2.267679758E-2
4.260099271E0,8.169239387E-3,-1.193760894E-2,-2.267679758E-2
4.262602240E0,-1.418131869E-3,-1.513339952E-2,-2.054627053E-2
4.265105261E0,-6.744449958E-3,-1.939445361E-2,-2.161153406E-2
4.267608229E0,-1.100550406E-2,-2.365550771E-2,-2.161153406E-2
4.270111250E0,-1.952761225E-2,-2.472077124E-2,-2.161153406E-2
4.272614219E0,-2.698445693E-2,-2.578603476E-2,-2.374206111E-2
4.275117188E0,-3.231077269E-2,-2.365550771E-2,-2.480732463E-2
4.277620209E0,-3.870235384E-2,-2.045971714E-2,-2.480732463E-2
4.280123229E0,-4.083288088E-2,-2.259024419E-2,-2.480732463E-2
4.282626146E0,-4.189814255E-2,-1.939445361E-2,-2.693785168E-2
4.285129167E0,-4.722445831E-2,-2.045971714E-2,-2.800311521E-2
4.287636146E0,-4.828972742E-2,-1.619866304E-2,-2.800311521E-2
4.290139167E0,-4.828972742E-2,-1.619866304E-2,-2.693785168E-2
4.292642136E0,-4.722445831E-2,-1.726392657E-2,-3.226416558E-2
4.295145157E0,-4.828972742E-2,-1.193760894E-2,-3.439469635E-2
4.297648125E0,-5.042025447E-2,-8.741818368E-3,-3.226416558E-2
4.300151094E0,-4.935498908E-2,-1.087234542E-2,-3.652521968E-2
4.302654115E0,-5.042025447E-2,-1.087234542E-2,-3.759048507E-2
4.305157084E0,-5.042025447E-2,-8.741818368E-3,-3.759048507E-2
4.307660104E0,-4.615919665E-2,-9.807081893E-3,-4.398206621E-2
4.310163073E0,-4.509393498E-2,-6.611291785E-3,-4.291680455E-2
4.312666042E0,-4.402866960E-2,-6.611291785E-3,-4.398206621E-2
4.315169063E0,-3.976761550E-2,-8.741818368E-3,-4.611259326E-2
4.317669375E0,-3.550656512E-2,-9.807081893E-3,-4.930838197E-2
4.320172396E0,-3.444129974E-2,-7.676555309E-3,-4.717785493E-2
4.322675365E0,-3.124551103E-2,-7.676555309E-3,-5.037364736E-2
4.325178386E0,-2.911498398E-2,-8.741818368E-3,-5.037364736E-2
4.327681407E0,-2.698445693E-2,-8.741818368E-3,-4.930838197E-2
4.330184323E0,-2.378866635E-2,-8.741818368E-3,-5.143890902E-2
4.332687344E0,-2.272340283E-2,-1.406813599E-2,-5.356943607E-2
4.335190365E0,-1.739708334E-2,-1.087234542E-2,-5.356943607E-2
4.337693386E0,-1.633182168E-2,-1.193760894E-2,-5.676522851E-2
4.340196302E0,-1.739708334E-2,-1.193760894E-2,-5.569996685E-2
4.342699271E0,-1.526655816E-2,-5.546028726E-3,-5.676522851E-2
4.345202292E0,-1.100550406E-2,-5.546028726E-3,-5.463469774E-2
4.347715417E0,-9.940239601E-3,-2.350237919E-3,-5.463469774E-2
4.350218386E0,-9.940239601E-3,-2.197108697E-4,-5.569996685E-2
4.352721354E0,-5.679186434E-3,1.910816412E-3,-5.356943607E-2
4.355224375E0,-5.679186434E-3,5.106606986E-3,-5.037364736E-2
4.357727396E0,-3.548658919E-3,8.302398026E-3,-5.356943607E-2
4.360230365E0,1.777658705E-3,1.256345212E-2,-5.676522851E-2
4.362733334E0,3.908185288E-3,1.788976789E-2,-5.569996685E-2
4.365236354E0,6.038712338E-3,2.428135090E-2,-5.463469774E-2
4.367739323E0,8.169239387E-3,3.067292832E-2,-5.356943607E-2
4.370242344E0,8.169239387E-3,3.599924594E-2,-5.356943607E-2
4.372745313E0,1.136502996E-2,4.026029631E-2,-5.356943607E-2
4.375248282E0,1.349555701E-2,4.345609248E-2,-5.463469774E-2
4.377737604E0,1.562608406E-2,5.091293529E-2,-5.676522851E-2
4.380240573E0,1.775661111E-2,5.836978182E-2,-5.569996685E-2
4.382743594E0,2.095240168E-2,6.263083965E-2,-5.676522851E-2
4.385246563E0,2.201766521E-2,6.582662463E-2,-5.783049390E-2
4.387749584E0,2.734398097E-2,7.115294784E-2,-5.783049390E-2
4.390252552E0,2.947450988E-2,7.754452527E-2,-5.676522851E-2
4.392755573E0,2.840924449E-2,8.074031770E-2,-5.783049390E-2
4.395258490E0,2.840924449E-2,8.393610269E-2,-5.889575556E-2
4.397761511E0,2.734398097E-2,8.500136435E-2,-6.102628261E-2
4.400264479E0,2.840924449E-2,8.819716424E-2,-5.889575556E-2
4.402767500E0,2.627871931E-2,8.926242590E-2,-6.102628261E-2
4.405270469E0,2.734398097E-2,9.139295667E-2,-6.102628261E-2
4.407775209E0,2.734398097E-2,8.926242590E-2,-6.102628261E-2
4.410278177E0,2.734398097E-2,8.819716424E-2,-6.209154427E-2
4.412781146E0,2.521345578E-2,8.926242590E-2,-6.422206759E-2
4.415284167E0,2.414819226E-2,8.819716424E-2,-6.422206759E-2
4.417787136E0,2.627871931E-2,8.713190258E-2,-6.209154427E-2
4.420290157E0,1.882187463E-2,8.393610269E-2,-6.209154427E-2
4.422793125E0,1.136502996E-2,8.287084103E-2,-6.422206759E-2
4.425296146E0,1.562608406E-2,7.967504859E-2,-6.315681338E-2
4.427799167E0,1.243029255E-2,7.328347117E-2,-5.889575556E-2
4.430302136E0,8.169239387E-3,7.221820951E-2,-6.209154427E-2
4.432805104E0,8.169239387E-3,6.795715541E-2,-6.102628261E-2
4.435308125E0,6.038712338E-3,6.582662463E-2,-5.783049390E-2
4.437845677E0,2.842921996E-3,6.369610131E-2,-5.783049390E-2
4.440348646E0,-3.528683446E-4,6.050030515E-2,-5.569996685E-2
4.442851667E0,-1.418131869E-3,5.517398566E-2,-5.783049390E-2
4.445354584E0,-2.483395394E-3,4.984766990E-2,-5.356943607E-2
4.447857657E0,-4.613922443E-3,4.984766990E-2,-5.143890902E-2
4.450360625E0,-7.809713483E-3,4.665188119E-2,-5.356943607E-2
4.452863646E0,-6.744449958E-3,4.132556543E-2,-5.250417441E-2
4.455366615E0,-5.679186434E-3,3.919503465E-2,-5.037364736E-2
4.457869584E0,-7.809713483E-3,3.599924594E-2,-5.037364736E-2
4.460372552E0,-7.809713483E-3,3.812977299E-2,-4.824312031E-2
4.462875573E0,-8.874977008E-3,4.026029631E-2,-4.611259326E-2
4.465378542E0,-7.809713483E-3,3.599924594E-2,-4.717785493E-2
4.467882657E0,-6.744449958E-3,3.706450760E-2,-4.611259326E-2
4.470385625E0,-9.940239601E-3,4.026029631E-2,-4.504732788E-2
4.472888646E0,-7.809713483E-3,4.132556543E-2,-4.930838197E-2
4.475391615E0,-5.679186434E-3,4.239082709E-2,-4.824312031E-2
4.477894584E0,-6.744449958E-3,4.132556543E-2,-4.824312031E-2
4.480397552E0,-3.548658919E-3,4.558661953E-2,-4.611259326E-2
4.482900573E0,-2.483395394E-3,4.878240824E-2,-4.611259326E-2
4.485403542E0,-3.528683446E-4,4.878240824E-2,-4.824312031E-2
4.487906563E0,-1.418131869E-3,5.197819695E-2,-5.037364736E-2
4.490409584E0,2.842921996E-3,5.517398566E-2,-4.824312031E-2
4.492912552E0,4.973448813E-3,5.197819695E-2,-5.037364736E-2
4.495415521E0,1.777658705E-3,5.623925105E-2,-5.356943607E-2
4.497895417E0,2.842921996E-3,5.943504348E-2,-4.930838197E-2
4.500398386E0,3.908185288E-3,6.050030515E-2,-4.824312031E-2
4.502901407E0,2.842921996E-3,6.476136297E-2,-4.611259326E-2
4.505404375E0,2.842921996E-3,6.476136297E-2,-4.824312031E-2
4.507907396E0,4.973448813E-3,6.689189374E-2,-4.930838197E-2
4.510410313E0,4.973448813E-3,6.902241707E-2,-4.824312031E-2
4.512913386E0,-2.483395394E-3,7.008767873E-2,-4.824312031E-2
4.515416354E0,7.123951800E-4,6.902241707E-2,-4.611259326E-2
4.517919375E0,1.777658705E-3,7.115294784E-2,-4.824312031E-2
4.520422292E0,-2.483395394E-3,7.221820951E-2,-5.037364736E-2
4.522925313E0,-2.483395394E-3,7.434873283E-2,-4.611259326E-2
4.525428282E0,-1.418131869E-3,7.221820951E-2,-4.611259326E-2
4.528001927E0,-4.613922443E-3,7.328347117E-2,-5.037364736E-2
4.530504896E0,-2.483395394E-3,7.541399449E-2,-4.824312031E-2
4.533007917E0,-4.613922443E-3,7.647926360E-2,-4.824312031E-2
4.535510886E0,-5.679186434E-3,7.647926360E-2,-5.463469774E-2
4.538013907E0,-1.100550406E-2,7.434873283E-2,-5.250417441E-2
4.540516875E0,-9.940239601E-3,7.328347117E-2,-5.569996685E-2
4.543019896E0,-1.207076758E-2,7.221820951E-2,-5.889575556E-2
4.545522813E0,-1.526655816E-2,7.541399449E-2,-5.676522851E-2
4.548025886E0,-1.739708334E-2,7.221820951E-2,-5.783049390E-2
4.550528802E0,-1.952761225E-2,6.902241707E-2,-5.783049390E-2
4.553031823E0,-2.165813930E-2,7.221820951E-2,-5.783049390E-2
4.555534792E0,-2.059287578E-2,7.115294784E-2,-5.889575556E-2
4.557996250E0,-2.165813930E-2,7.008767873E-2,-5.569996685E-2
4.560499219E0,-2.378866635E-2,6.689189374E-2,-5.356943607E-2
4.563002240E0,-2.591919340E-2,6.689189374E-2,-5.676522851E-2
4.565505209E0,-2.485392801E-2,6.795715541E-2,-5.463469774E-2
4.568008229E0,-2.698445693E-2,6.582662463E-2,-4.930838197E-2
4.570511146E0,-3.231077269E-2,6.582662463E-2,-4.611259326E-2
4.573014219E0,-2.485392801E-2,6.902241707E-2,-4.078627378E-2
4.575517136E0,-2.485392801E-2,7.115294784E-2,-3.759048507E-2
4.578020157E0,-2.804972045E-2,7.541399449E-2,-2.906837873E-2
4.580523177E0,-2.591919340E-2,8.287084103E-2,-2.267679758E-2
4.583026146E0,-2.378866635E-2,8.713190258E-2,-2.267679758E-2
4.585529115E0,-1.952761225E-2,8.500136435E-2,-2.161153406E-2
4.588084063E0,-2.485392801E-2,8.180557936E-2,-2.267679758E-2
4.590587032E0,-2.911498398E-2,8.819716424E-2,-2.054627053E-2
4.593090052E0,-2.911498398E-2,9.139295667E-2,-1.628521644E-2
4.595593021E0,-2.911498398E-2,9.458874166E-2,-1.202416141E-2
4.598096042E0,-2.911498398E-2,9.778453410E-2,-6.697844248E-3
4.600598959E0,-3.337603435E-2,1.009803265E-1,-3.502053674E-3
4.603102032E0,-3.231077269E-2,9.671927243E-2,-4.567317199E-3
4.605604948E0,-3.337603435E-2,9.565401077E-2,-2.436790615E-3
4.608108021E0,-3.337603435E-2,9.565401077E-2,-2.436790615E-3
4.610610938E0,-3.231077269E-2,9.352348000E-2,1.824264065E-3
4.613113959E0,-3.444129974E-2,8.926242590E-2,2.889527474E-3
4.615616927E0,-3.444129974E-2,8.819716424E-2,1.824264065E-3
4.618088334E0,-3.550656512E-2,8.500136435E-2,3.954790998E-3
4.620591302E0,-3.444129974E-2,8.074031770E-2,6.085318048E-3
4.623094323E0,-3.550656512E-2,7.434873283E-2,8.215845563E-3
4.625597292E0,-3.657182679E-2,6.795715541E-2,1.034637261E-2
4.628100313E0,-3.657182679E-2,5.836978182E-2,1.141163614E-2
4.630603282E0,-3.337603435E-2,5.197819695E-2,1.034637261E-2
4.633106302E0,-3.763708845E-2,4.452135414E-2,1.034637261E-2
4.635609219E0,-3.870235384E-2,3.067292832E-2,1.141163614E-2
4.638112292E0,-3.763708845E-2,1.682450622E-2,1.141163614E-2
4.640615261E0,-3.657182679E-2,7.237134036E-3,1.354216319E-2
4.643118229E0,-3.870235384E-2,-7.676555309E-3,1.141163614E-2
4.645621198E0,-3.870235384E-2,-2.259024419E-2,8.215845563E-3
4.648090209E0,-3.976761550E-2,-3.537340835E-2,8.215845563E-3
4.650593177E0,-4.189814255E-2,-4.815657064E-2,6.085318048E-3
4.653096146E0,-3.763708845E-2,-6.200499833E-2,7.590005407E-4
4.655599167E0,-3.976761550E-2,-6.839657575E-2,7.590005407E-4
4.658102188E0,-4.509393498E-2,-7.159236819E-2,5.020053592E-3
4.660605104E0,-4.615919665E-2,-7.265762985E-2,1.824264065E-3
4.663108177E0,-4.615919665E-2,-6.839657575E-2,2.889527474E-3
4.665611094E0,-4.402866960E-2,-5.774394423E-2,7.150581572E-3
4.668114115E0,-3.976761550E-2,-4.815657064E-2,9.281109087E-3
4.670617084E0,-3.444129974E-2,-3.324288130E-2,1.034637261E-2
4.673120052E0,-2.698445693E-2,-1.832919009E-2,1.141163614E-2
4.675623073E0,-1.526655816E-2,-2.197108697E-4,1.567268930E-2
4.678150417E0,-2.483395394E-3,2.002029680E-2,1.993374154E-2
4.680653438E0,1.349555701E-2,3.706450760E-2,2.739058621E-2
4.683156407E0,3.586609289E-2,5.091293529E-2,3.484743088E-2
4.685659375E0,5.823662505E-2,6.156557426E-2,4.123901576E-2
4.688162396E0,8.273769170E-2,6.902241707E-2,4.336954281E-2
4.690665365E0,1.029777005E-1,7.328347117E-2,4.869585857E-2
4.693168386E0,1.253482252E-1,7.434873283E-2,5.615270883E-2
4.695671407E0,1.391966492E-1,7.541399449E-2,6.254428625E-2
4.698174375E0,1.562408656E-1,7.008767873E-2,6.574007869E-2
4.700677344E0,1.764808595E-1,6.263083965E-2,7.319691777E-2
4.703180313E0,1.871335059E-1,4.771714285E-2,7.532744855E-2
4.705683334E0,1.977861524E-1,3.493398055E-2,7.532744855E-2
4.708179584E0,2.020471990E-1,2.215082385E-2,7.639271021E-2
4.710682552E0,2.052429765E-1,2.976079006E-3,7.639271021E-2
4.713185521E0,2.084387839E-1,-1.406813599E-2,7.319691777E-2
4.715688542E0,2.073735148E-1,-3.111235239E-2,6.574007869E-2
4.718191511E0,2.084387839E-1,-4.496078193E-2,5.934849381E-2
4.720694532E0,2.063082457E-1,-6.413552165E-2,4.869585857E-2
4.723197500E0,1.999166757E-1,-8.117973804E-2,4.230427742E-2
4.725700469E0,1.988514066E-1,-9.396289289E-2,3.378216922E-2
4.728203490E0,1.988514066E-1,-1.088765860E-1,2.206427045E-2
4.730706459E0,1.956556141E-1,-1.163334325E-1,1.247689780E-2
4.733209479E0,1.924598217E-1,-1.248555407E-1,-3.062629839E-4
4.735712448E0,1.913945675E-1,-1.269860715E-1,-1.095889788E-2
4.738184011E0,1.903292984E-1,-1.269860715E-1,-2.161153406E-2
4.740686979E0,1.871335059E-1,-1.269860715E-1,-3.226416558E-2
4.743189948E0,1.786113977E-1,-1.195292249E-1,-4.398206621E-2
4.745692969E0,1.764808595E-1,-1.120723784E-1,-5.569996685E-2
4.748195990E0,1.732850820E-1,-1.035502702E-1,-6.209154427E-2
4.750698907E0,1.647629738E-1,-9.396289289E-2,-7.593997568E-2
4.753201927E0,1.615671813E-1,-7.904920727E-2,-8.659260720E-2
4.755704896E0,1.541103423E-1,-6.307025999E-2,-9.831050038E-2
4.758207917E0,1.466534883E-1,-5.028710142E-2,-1.100284085E-1
4.760710938E0,1.413271725E-1,-3.643867373E-2,-1.292031407E-1
4.763213907E0,1.349355876E-1,-2.259024419E-2,-1.441168487E-1
4.765716875E0,1.328050643E-1,-1.300287247E-2,-1.547694802E-1
4.768230938E0,1.285440028E-1,5.106606986E-3,-1.654221117E-1
4.770733959E0,1.232177094E-1,2.641187608E-2,-1.782052517E-1
4.773236927E0,1.189566478E-1,4.452135414E-2,-1.845968366E-1
4.775739896E0,1.136303321E-1,6.263083965E-2,-1.931189597E-1
4.778242917E0,1.061734855E-1,8.500136435E-2,-2.059021294E-1
4.780745834E0,9.765138477E-2,1.158940122E-1,-2.144242227E-1
4.783248854E0,9.339033067E-2,1.137634814E-1,-2.133589685E-1
4.785751875E0,8.912927657E-2,9.565401077E-2,-2.122937143E-1
4.788254896E0,8.167242259E-2,8.819716424E-2,-2.069673836E-1
4.790757865E0,7.101979107E-2,8.287084103E-2,-2.048368454E-1
4.793260834E0,6.569347531E-2,8.287084103E-2,-2.069673836E-1
4.795763854E0,6.143241748E-2,7.328347117E-2,-2.005757987E-1
4.798344584E0,5.077978224E-2,6.263083965E-2,-1.888578832E-1
4.800847604E0,4.438820109E-2,5.410872400E-2,-1.771399975E-1
4.803350521E0,3.480082750E-2,4.558661953E-2,-1.675526202E-1
4.805853594E0,2.734398097E-2,3.493398055E-2,-1.547694802E-1
4.808356511E0,2.201766521E-2,2.215082385E-2,-1.441168487E-1
4.810859532E0,9.234502912E-3,1.256345212E-2,-1.323989332E-1
4.813362500E0,7.123951800E-4,-1.284974394E-3,-1.206810400E-1
4.815865521E0,-5.679186434E-3,-1.513339952E-2,-1.089631394E-1
4.818368490E0,-1.420129463E-2,-2.578603476E-2,-9.404944628E-2
4.820871511E0,-2.165813930E-2,-3.537340835E-2,-8.126629144E-2
4.823374532E0,-2.485392801E-2,-5.135236308E-2,-7.274418324E-2
4.825877500E0,-2.698445693E-2,-6.093973294E-2,-6.315681338E-2
4.828296771E0,-2.804972045E-2,-7.052710652E-2,-5.463469774E-2
4.830799844E0,-3.018024750E-2,-7.798394561E-2,-4.717785493E-2
4.833302761E0,-2.804972045E-2,-8.650605381E-2,-4.185153916E-2
4.835805782E0,-2.698445693E-2,-9.183236957E-2,-3.332943097E-2
4.838308802E0,-2.378866635E-2,-9.502816200E-2,-2.480732463E-2
4.840811771E0,-1.739708334E-2,-1.003544852E-1,-1.948100701E-2
4.843314740E0,-1.313603111E-2,-1.046155393E-1,-1.415468846E-2
4.845817761E0,-6.744449958E-3,-1.110071167E-1,-1.202416141E-2
4.848320729E0,7.123951800E-4,-1.131376401E-1,-8.828370832E-3
4.850823750E0,6.038712338E-3,-1.152681708E-1,-7.763107773E-3
4.853326719E0,1.349555701E-2,-1.195292249E-1,-1.202416141E-2
4.855829740E0,2.095240168E-2,-1.280513257E-1,-1.202416141E-2
4.858334375E0,2.627871931E-2,-1.301818639E-1,-1.521995198E-2
4.860837448E0,3.586609289E-2,-1.312471181E-1,-1.948100701E-2
4.863340417E0,4.545346648E-2,-1.355081648E-1,-2.587258816E-2
4.865843386E0,5.717135966E-2,-1.387039721E-1,-3.652521968E-2
4.868346407E0,6.888926774E-2,-1.365734488E-1,-4.185153916E-2
4.870849375E0,7.954189926E-2,-1.355081648E-1,-4.930838197E-2
4.873352344E0,9.445559233E-2,-1.355081648E-1,-5.783049390E-2
4.875855313E0,1.061734855E-1,-1.301818639E-1,-6.954838336E-2
4.878358334E0,1.136303321E-1,-1.280513257E-1,-8.020102233E-2
4.880861354E0,1.210871711E-1,-1.280513257E-1,-9.191892296E-2
4.883364271E0,1.296092868E-1,-1.323123872E-1,-1.078978777E-1
4.885867344E0,1.338703334E-1,-1.365734488E-1,-1.164199859E-1
4.888374688E0,1.360008568E-1,-1.344429106E-1,-1.260073632E-1
4.890877709E0,1.434577107E-1,-1.344429106E-1,-1.323989332E-1
4.893380625E0,1.455882341E-1,-1.291165948E-1,-1.345294714E-1
4.895883698E0,1.423924416E-1,-1.248555407E-1,-1.473126113E-1
4.898386615E0,1.413271725E-1,-1.195292249E-1,-1.558347344E-1
4.900889636E0,1.402619183E-1,-1.163334325E-1,-1.643568575E-1
4.903392604E0,1.328050643E-1,-1.088765860E-1,-1.718136966E-1
4.905895625E0,1.264134794E-1,-9.715869278E-2,-1.824663281E-1
4.908398646E0,1.200219095E-1,-8.970184624E-2,-1.941842139E-1
4.910901615E0,1.083040163E-1,-7.798394561E-2,-2.016410828E-1
4.913404584E0,1.040429622E-1,-6.200499833E-2,-2.122937143E-1
4.915907604E0,9.552085400E-2,-4.709130898E-2,-2.186852694E-1
4.918390521E0,8.593347669E-2,-3.111235239E-2,-2.250768542E-1
4.920893542E0,8.060716093E-2,-1.406813599E-2,-2.314684391E-1
4.923396563E0,8.060716093E-2,6.171870511E-3,-2.357294858E-1
4.925899532E0,7.528084517E-2,2.534661256E-2,-2.357294858E-1
4.928402552E0,6.569347531E-2,4.771714285E-2,-2.389253080E-1
4.930905521E0,6.036715582E-2,7.754452527E-2,-2.389253080E-1
4.933408490E0,5.823662505E-2,1.052413806E-1,-2.367947698E-1
4.935911511E0,6.143241748E-2,1.126982197E-1,-2.399905622E-1
4.938414479E0,7.101979107E-2,1.137634814E-1,-2.463821173E-1
4.940917500E0,8.167242259E-2,1.212203354E-1,-2.559694946E-1
4.943420417E0,9.552085400E-2,1.308076978E-1,-2.644915879E-1
4.945923490E0,1.040429622E-1,1.371992826E-1,-2.676873803E-1
4.948459219E0,1.104345396E-1,1.393298060E-1,-2.687526643E-1
4.950962240E0,1.210871711E-1,1.457213908E-1,-2.676873803E-1
4.953465209E0,1.232177094E-1,1.457213908E-1,-2.655568719E-1
4.955968229E0,1.242829561E-1,1.467866600E-1,-2.634263337E-1
4.958471198E0,1.253482252E-1,1.457213908E-1,-2.591652870E-1
4.960974219E0,1.274787486E-1,1.457213908E-1,-2.570347488E-1
4.963477188E0,1.253482252E-1,1.446561217E-1,-2.527737021E-1
4.965980209E0,1.232177094E-1,1.318729669E-1,-2.474474013E-1
4.968483177E0,1.232177094E-1,1.169592738E-1,-2.421210706E-1
4.970986198E0,1.242829561E-1,1.009803265E-1,-2.378600240E-1
4.973489115E0,1.264134794E-1,9.458874166E-2,-2.335989773E-1
4.975992188E0,1.221524402E-1,1.095024273E-1,-2.293379307E-1
4.978460990E0,1.093692780E-1,1.340034902E-1,-2.208158076E-1
4.980964011E0,1.051082239E-1,1.297424436E-1,-2.027063370E-1
4.983466979E0,1.146955937E-1,1.063066423E-1,-1.995105445E-1
4.985970000E0,1.221524402E-1,9.565401077E-2,-2.005757987E-1
