"Time (s)","Gyroscope x (rad/s)","Gyroscope y (rad/s)","Gyroscope z (rad/s)"
1.596880200E-2,8.136332035E-4,3.227354884E-1,4.348753020E-3
1.843416700E-2,8.136332035E-4,3.227354884E-1,4.348753020E-3
2.090599000E-2,8.136332035E-4,3.227354884E-1,4.348753020E-3
2.338145800E-2,8.136332035E-4,3.227354884E-1,4.348753020E-3
2.585843800E-2,8.136332035E-4,3.227354884E-1,4.348753020E-3
2.833593800E-2,8.136332035E-4,3.227354884E-1,4.348753020E-3
3.081359400E-2,8.136332035E-4,3.227354884E-1,4.348753020E-3
3.329145800E-2,8.136332035E-4,3.227354884E-1,4.348753020E-3
3.576958300E-2,8.136332035E-4,3.227354884E-1,4.348753020E-3
3.824786500E-2,8.136332035E-4,3.227354884E-1,4.348753020E-3
4.072614600E-2,8.136332035E-4,3.227354884E-1,4.348753020E-3
4.320447900E-2,8.136332035E-4,3.227354884E-1,4.348753020E-3
4.568291700E-2,8.136332035E-4,3.227354884E-1,4.348753020E-3
4.816140600E-2,8.136332035E-4,3.227354884E-1,4.348753020E-3
5.063989600E-2,8.136332035E-4,3.227354884E-1,4.348753020E-3
5.311843800E-2,8.136332035E-4,3.227354884E-1,4.348753020E-3
5.559703100E-2,8.136332035E-4,3.227354884E-1,4.348753020E-3
5.807562500E-2,8.136332035E-4,3.227354884E-1,4.348753020E-3
6.055421900E-2,8.136332035E-4,3.227354884E-1,4.348753020E-3
6.303281300E-2,8.136332035E-4,3.227354884E-1,4.348753020E-3
6.551145800E-2,8.136332035E-4,3.227354884E-1,4.348753020E-3
6.799010400E-2,8.136332035E-4,3.227354884E-1,4.348753020E-3
7.046875000E-2,8.136332035E-4,3.227354884E-1,4.348753020E-3
7.294739600E-2,1.523080766E-1,1.193828583E0,9.933387637E-1
7.542609400E-2,1.761318147E-1,1.279960513E0,1.029379845E0
7.790479200E-2,1.926251650E-1,1.389305234E0,1.065420866E0
8.038349000E-2,2.133945525E-1,1.521862864E0,1.099018335E0
8.286218800E-2,2.353856862E-1,1.657474875E0,1.132005095E0
8.534093800E-2,2.634854615E-1,1.801638961E0,1.164380908E0
8.781968800E-2,2.940286994E-1,1.950689912E0,1.196145892E0
9.029843800E-2,3.209067583E-1,2.091799736E0,1.227910876E0
9.277718800E-2,3.514499962E-1,2.217637777E0,1.263951898E0
9.525599000E-2,3.740519881E-1,2.337367296E0,1.291440725E0
9.773479200E-2,4.021517634E-1,2.446101189E0,1.317097068E0
1.002135940E-1,4.345275760E-1,2.543228626E0,1.341531634E0
1.026923960E-1,4.724012017E-1,2.627527952E0,1.364133716E0
1.051712500E-1,5.114965439E-1,2.697777510E0,1.386735678E0
1.076501040E-1,5.518136024E-1,2.758863926E0,1.404450774E0
1.101289580E-1,5.902980566E-1,2.811398268E0,1.430106997E0
1.126078130E-1,6.367237568E-1,2.865765333E0,1.460039377E0
1.150867190E-1,6.898690462E-1,2.930516958E0,1.490582705E0
1.175656250E-1,7.521772385E-1,3.004431486E0,1.527845383E0
1.200445310E-1,8.218158484E-1,3.083233118E0,1.571827650E0
1.225234380E-1,8.951195478E-1,3.164478064E0,1.617031693E0
1.250023960E-1,9.775862694E-1,3.232894897E0,1.669566035E0
1.274813540E-1,1.062496543E0,3.288483620E0,1.726376414E0
1.299603130E-1,1.137632966E0,3.334298611E0,1.784408569E0
1.324392710E-1,1.221321344E0,3.365452528E0,1.838775516E0
1.349182810E-1,1.292181730E0,3.374004841E0,1.887033820E0
1.373972920E-1,1.365485430E0,3.373393774E0,1.929183483E0
1.398371880E-1,1.429626226E0,3.363620043E0,1.967668056E0
1.422678130E-1,1.497432232E0,3.342239857E0,1.992713571E0
1.446992190E-1,1.559129596E0,3.315361738E0,2.004930735E0
1.471298440E-1,1.602500916E0,3.284207582E0,2.012871981E0
1.495596360E-1,1.643428922E0,3.249388456E0,2.011650085E0
1.519902610E-1,1.669696093E0,3.207849503E0,2.007374048E0
1.544217190E-1,1.682524204E0,3.159591198E0,1.996989608E0
1.568523440E-1,1.683135152E0,3.109500408E0,1.978052735E0
1.592820830E-1,1.669085264E0,3.056966066E0,1.951785564E0
1.617127610E-1,1.634876847E0,3.006264210E0,1.923074841E0
1.641441670E-1,1.582953334E0,2.970223188E0,1.884590387E0
1.665747920E-1,1.526753783E0,2.931127787E0,1.839997292E0
1.690045830E-1,1.457115173E0,2.881647825E0,1.790517211E0
1.714352610E-1,1.378313661E0,2.825448275E0,1.735539436E0
1.738666670E-1,1.293403387E0,2.749701023E0,1.676896453E0
1.762972920E-1,1.202995420E0,2.679451466E0,1.613366485E0
1.787270830E-1,1.114420056E0,2.592097998E0,1.553501725E0
1.811577610E-1,1.031342387E0,2.513296366E0,1.493026137E0
1.835891670E-1,9.549843073E-1,2.433883905E0,1.445378661E0
1.860197920E-1,8.816806078E-1,2.378295183E0,1.406283379E0
1.884495830E-1,8.150962591E-1,2.328815222E0,1.379405260E0
1.908802610E-1,7.613402605E-1,2.287276506E0,1.358635902E0
1.933116670E-1,7.106384039E-1,2.250013590E0,1.341531634E0
1.957422920E-1,6.636018753E-1,2.198701143E0,1.324427485E0
1.981720830E-1,6.220630407E-1,2.139447212E0,1.309766650E0
2.006027610E-1,5.878546238E-1,2.071030378E0,1.296327710E0
2.030341670E-1,5.554788113E-1,1.987952709E0,1.284110427E0
2.054647920E-1,5.249356031E-1,1.883494854E0,1.271282196E0
2.078945830E-1,4.962249100E-1,1.757656693E0,1.254788876E0
2.103252080E-1,4.711794853E-1,1.611049175E0,1.241960764E0
2.127566670E-1,4.449122846E-1,1.453446031E0,1.221802235E0
2.151872920E-1,4.198668301E-1,1.286069155E0,1.198589325E0
2.176170310E-1,3.844366670E-1,1.115026951E0,1.136891961E0
2.200477080E-1,3.471739292E-1,9.427631497E-1,9.951713681E-1
2.224791150E-1,2.958613038E-1,7.778297067E-1,7.862555981E-1
2.249097400E-1,2.311096340E-1,6.000680327E-1,5.913897157E-1
2.273395310E-1,1.596384645E-1,4.363563359E-1,4.569995105E-1
2.297702080E-1,1.034389138E-1,2.909705341E-1,3.610937595E-1
2.322016150E-1,3.318946809E-2,1.651324034E-1,2.816813588E-1
2.346322400E-1,-3.034046292E-2,6.433971226E-2,1.973820031E-1
2.370620310E-1,-9.570299089E-2,-4.119467922E-4,1.020871103E-1
2.394927080E-1,-1.586220562E-1,-3.217691183E-2,2.516158856E-3
2.419241150E-1,-2.227628529E-1,-4.561593384E-2,-9.644392133E-2
2.443547400E-1,-2.679668367E-1,-1.079664752E-2,-2.051778585E-1
2.467845310E-1,-2.991209328E-1,5.151155591E-2,-3.090248406E-1
2.492152080E-1,-3.522661626E-1,7.289181650E-2,-3.811068833E-1
2.516466150E-1,-3.705921173E-1,1.608563513E-1,-4.647953510E-1
2.540772400E-1,-3.681486547E-1,2.970791757E-1,-5.625337362E-1
2.565070310E-1,-3.174468875E-1,5.096600652E-1,-6.938696504E-1
2.589377080E-1,-2.404779196E-1,7.026933432E-1,-8.300924897E-1
2.613691150E-1,-1.592329144E-1,8.187575936E-1,-9.143918157E-1
2.637997400E-1,-9.936818480E-2,8.560203910E-1,-9.284417033E-1
2.662294790E-1,-6.027284265E-2,8.523551822E-1,-8.844594359E-1
2.686601560E-1,-2.972959727E-2,8.083729148E-1,-8.148208857E-1
2.710916150E-1,-1.018956304E-3,7.759971023E-1,-7.280780673E-1
2.735222400E-1,3.013514355E-2,7.607254982E-1,-6.462221742E-1
2.759519790E-1,6.923048198E-2,7.735536098E-1,-5.735293031E-1
2.783826560E-1,1.126018763E-1,8.163141608E-1,-5.154971480E-1
2.808141150E-1,1.559732854E-1,8.749572039E-1,-4.696822464E-1
2.832447400E-1,1.987338066E-1,9.336001873E-1,-4.360846877E-1
2.856744790E-1,2.317205071E-1,9.946866632E-1,-4.012654126E-1
2.881051560E-1,2.579876781E-1,1.044166684E0,-3.688895702E-1
2.905365630E-1,2.824222744E-1,1.090592384E0,-3.395680785E-1
2.929671880E-1,3.031916618E-1,1.132131219E0,-3.071922362E-1
2.953969790E-1,3.257936835E-1,1.187719941E0,-2.925314903E-1
2.978276560E-1,3.453413248E-1,1.237199903E0,-2.894771695E-1
3.002590630E-1,3.648889959E-1,1.275684476E0,-2.986401320E-1
3.026896880E-1,3.862692714E-1,1.301951647E0,-3.133008778E-1
3.051194790E-1,4.033734798E-1,1.320888400E0,-3.334594369E-1
3.075501560E-1,4.290297925E-1,1.328218818E0,-3.646135330E-1
3.099815630E-1,4.497992098E-1,1.319666743E0,-3.982110918E-1
3.124121880E-1,4.614056349E-1,1.301951647E0,-4.287543297E-1
3.148419790E-1,4.736229181E-1,1.270797491E0,-4.617410302E-1
3.172726560E-1,4.882836938E-1,1.229869604E0,-4.886190593E-1
3.197040630E-1,4.919488728E-1,1.193828583E0,-5.099993348E-1
3.221346880E-1,4.998901188E-1,1.138850689E0,-5.277144313E-1
3.245644790E-1,5.114965439E-1,1.068601251E0,-5.374882817E-1
3.269951560E-1,5.224921107E-1,9.952975512E-1,-5.454295278E-1
3.294265630E-1,5.402071476E-1,9.073330164E-1,-5.570359230E-1
3.318571880E-1,5.609766245E-1,8.273097277E-1,-5.863574743E-1
3.342869790E-1,5.854111910E-1,7.210192680E-1,-6.120137572E-1
3.367176560E-1,6.147326231E-1,5.835747123E-1,-6.346157789E-1
3.391490630E-1,6.532171965E-1,4.436867237E-1,-6.553851962E-1
3.415796880E-1,6.965885162E-1,3.099073470E-1,-6.749328375E-1
3.440094270E-1,7.393491268E-1,1.865126640E-1,-6.902044415E-1
3.464401040E-1,7.790552378E-1,8.022219688E-2,-7.121955752E-1
3.488715630E-1,8.077659607E-1,-6.520594005E-3,-7.378519177E-1
3.513021880E-1,8.267027140E-1,-8.165695518E-2,-7.653408051E-1
3.537319270E-1,8.407526016E-1,-1.457977444E-1,-7.934405804E-1
3.561626040E-1,8.560242653E-1,-2.136037350E-1,-8.215403557E-1
3.585940110E-1,8.664089441E-1,-2.844640315E-1,-8.496401310E-1
3.610246360E-1,8.932869434E-1,-3.577677906E-1,-8.795725107E-1
3.634544270E-1,9.097803831E-1,-4.390128255E-1,-9.088940024E-1
3.658851040E-1,9.391018152E-1,-5.208687186E-1,-9.357720613E-1
3.683165110E-1,9.659799337E-1,-6.076114774E-1,-9.559305906E-1
3.707471360E-1,9.891927242E-1,-7.053498626E-1,-9.699804783E-1
3.731769270E-1,1.013016462E0,-8.079751134E-1,-9.852521420E-1
3.756076040E-1,1.036229372E0,-9.179307818E-1,-9.901390076E-1
3.780390110E-1,1.052722692E0,-1.021166921E0,-9.986911416E-1
3.804696360E-1,1.069826841E0,-1.130511761E0,-1.007854104E0
3.828994270E-1,1.079600811E0,-1.230693579E0,-1.008464932E0
3.853301040E-1,1.082655072E0,-1.330875278E0,-1.013962746E0
3.877615110E-1,1.080822468E0,-1.437776685E0,-1.013351798E0
3.901921360E-1,1.072881222E0,-1.547732353E0,-1.017627835E0
3.926219270E-1,1.059442163E0,-1.658298850E0,-1.020071387E0
3.950526040E-1,1.034396768E0,-1.756037235E0,-1.025569081E0
3.974840110E-1,1.002020955E0,-1.845223427E0,-1.030456066E0
3.999146360E-1,9.549843073E-1,-1.938074827E0,-1.030456066E0
4.023444270E-1,8.920652866E-1,-2.024206877E0,-1.030456066E0
4.047751040E-1,8.254810572E-1,-2.109117031E0,-1.036564708E0
4.072065110E-1,7.497338057E-1,-2.182420731E0,-1.038397312E0
4.096371360E-1,6.697105169E-1,-2.240453005E0,-1.043284178E0
4.120669270E-1,5.902980566E-1,-2.275882959E0,-1.050003767E0
4.144976040E-1,5.194377899E-1,-2.278937340E0,-1.056112409E0
4.169290110E-1,4.479666054E-1,-2.240453005E0,-1.064053655E0
4.193596360E-1,3.764954507E-1,-2.194027185E0,-1.074438334E0
4.217894270E-1,3.044134080E-1,-2.151877403E0,-1.078103542E0
4.242201040E-1,2.445486635E-1,-2.098732233E0,-1.081157804E0
4.266515110E-1,1.755209565E-1,-2.015043736E0,-1.072605729E0
4.290821360E-1,1.132127494E-1,-1.921581507E0,-1.054279804E0
4.315119270E-1,4.113070667E-2,-1.821399689E0,-1.026180029E0
4.339425520E-1,-3.217305988E-2,-1.708389759E0,-9.803652167E-1
4.363740110E-1,-1.060876846E-1,-1.590492845E0,-9.211113453E-1
4.388046360E-1,-1.830566525E-1,-1.467098117E0,-8.465858102E-1
4.412343750E-1,-2.612473369E-1,-1.347368717E0,-7.622864842E-1
4.436650520E-1,-3.479901254E-1,-1.214811087E0,-6.676024795E-1
4.460965110E-1,-4.396198094E-1,-1.104244471E0,-5.729184151E-1
4.485271360E-1,-5.379689932E-1,-1.009560466E0,-4.751800299E-1
4.509568750E-1,-6.363183260E-1,-9.160981774E-1,-3.774416745E-1
4.533875520E-1,-7.291697264E-1,-8.372966647E-1,-2.827576697E-1
4.558189580E-1,-8.269081116E-1,-7.768210173E-1,-1.972366124E-1
4.582495830E-1,-9.130400419E-1,-7.316170335E-1,-1.172133237E-1
4.606793750E-1,-1.000393629E0,-7.047389746E-1,-5.429425836E-2
4.631100520E-1,-1.079805970E0,-6.888564825E-1,-6.646811962E-3
4.655414580E-1,-1.153720617E0,-6.760283709E-1,2.450728975E-2
4.679720830E-1,-1.222748399E0,-6.693088412E-1,3.672458231E-2
4.704018750E-1,-1.283223987E0,-6.638110876E-1,3.733544797E-2
4.728325520E-1,-1.333925724E0,-6.662545204E-1,2.695074864E-2
4.752639580E-1,-1.381573200E0,-6.650328040E-1,5.570482463E-3
4.776945830E-1,-1.420668483E0,-6.515937448E-1,-2.314015850E-2
4.801243750E-1,-1.449990034E0,-6.094440818E-1,-5.612685531E-2
4.825550520E-1,-1.477478981E0,-5.379729271E-1,-8.850268275E-2
4.849864580E-1,-1.497637510E0,-4.506192505E-1,-1.306523532E-1
4.874170830E-1,-1.502524376E0,-3.565460742E-1,-1.746346205E-1
4.898468750E-1,-1.501302719E0,-2.508664727E-1,-2.228929251E-1
4.922775520E-1,-1.487252831E0,-1.580150425E-1,-2.790924609E-1
4.947089580E-1,-1.456098676E0,-7.432658225E-2,-3.322376907E-1
4.971395830E-1,-1.409672976E0,8.751023561E-3,-3.921024501E-1
4.995693750E-1,-1.357749462E0,7.838959992E-2,-4.519671798E-1
5.020000520E-1,-1.280780554E0,1.675758511E-1,-5.130537152E-1
5.044314580E-1,-1.194037676E0,2.537077963E-1,-5.790270567E-1
5.068620830E-1,-1.097521067E0,3.092964590E-1,-6.511090994E-1
5.092918750E-1,-9.924523830E-1,3.685503602E-1,-7.274671793E-1
5.117225520E-1,-8.800532818E-1,4.015370309E-1,-8.111556768E-1
5.141539580E-1,-7.566586733E-1,4.400215149E-1,-9.003419280E-1
5.165845830E-1,-6.198248863E-1,4.626235068E-1,-9.962477088E-1
5.190143750E-1,-4.915433228E-1,4.882798493E-1,-1.089709878E0
5.214450520E-1,-3.669269383E-1,5.145469904E-1,-1.185004830E0
5.238764580E-1,-2.533060908E-1,5.469228029E-1,-1.276634574E0
5.263070830E-1,-1.519025415E-1,5.695248246E-1,-1.368875146E0
5.287368750E-1,-6.515975296E-2,5.988463163E-1,-1.458061337E0
5.311675520E-1,6.311416626E-3,6.281678081E-1,-1.542971492E0
5.335989580E-1,6.495442986E-2,6.666523218E-1,-1.624216557E0
5.360295830E-1,1.064932346E-1,7.033041716E-1,-1.706072450E0
5.384593750E-1,1.303169578E-1,7.369017601E-1,-1.779987097E0
5.408900520E-1,1.468103081E-1,7.692775726E-1,-1.855123401E0
5.433214580E-1,1.480320394E-1,7.924904227E-1,-1.931481481E0
5.457520830E-1,1.388690621E-1,8.089838028E-1,-2.007839680E0
5.481818750E-1,1.223757118E-1,8.248662949E-1,-2.088473797E0
5.506125520E-1,9.733025730E-2,8.340292573E-1,-2.165442705E0
5.530439580E-1,6.923048198E-2,8.358618021E-1,-2.245465994E0
5.554745830E-1,3.929811344E-2,8.340292573E-1,-2.320602417E0
5.579043230E-1,9.976610541E-3,8.328074813E-1,-2.397571325E0
5.603350000E-1,-1.445798576E-2,8.187575936E-1,-2.471486092E0
5.627664580E-1,-3.339479119E-2,7.985990644E-1,-2.546011448E0
5.651970830E-1,-4.988813400E-2,7.833274603E-1,-2.615650177E0
5.676268750E-1,-6.454889476E-2,7.576711178E-1,-2.684067011E0
5.700575000E-1,-7.615531981E-2,7.350691557E-1,-2.750040293E0
5.724889580E-1,-8.531829715E-2,7.149106264E-1,-2.808683395E0
5.749195830E-1,-9.509211779E-2,6.898651719E-1,-2.865493774E0
5.773493230E-1,-1.073094159E-1,6.654305458E-1,-2.921082497E0
5.797800000E-1,-1.231919080E-1,6.324439049E-1,-2.979725599E0
5.822114580E-1,-1.335766017E-1,6.019006371E-1,-3.030427217E0
5.846420830E-1,-1.506808102E-1,5.738008618E-1,-3.072577000E0
5.870718230E-1,-1.690067500E-1,5.524206161E-1,-3.111672163E0
5.895025000E-1,-1.812240481E-1,5.359272361E-1,-3.144659042E0
5.919339580E-1,-1.952739358E-1,5.194339156E-1,-3.173980474E0
5.943645830E-1,-2.093238235E-1,5.059948564E-1,-3.200858593E0
5.967943230E-1,-2.252063155E-1,4.821711779E-1,-3.216741085E0
5.992250000E-1,-2.380344570E-1,4.620126486E-1,-3.232012510E0
6.016564580E-1,-2.520843446E-1,4.357454777E-1,-3.242397308E0
6.040870830E-1,-2.661342323E-1,4.125325978E-1,-3.252171040E0
6.065168230E-1,-2.789624035E-1,3.868762851E-1,-3.255836248E0
6.089475000E-1,-2.972883582E-1,3.599982560E-1,-3.262555838E0
6.113789060E-1,-3.198903501E-1,3.380071223E-1,-3.263777494E0
6.138095310E-1,-3.412705958E-1,3.184594512E-1,-3.270497084E0
6.162393230E-1,-3.687595129E-1,3.001334965E-1,-3.278438330E0
6.186700000E-1,-4.243482053E-1,2.598164380E-1,-3.285768747E0
6.211014060E-1,-5.019279718E-1,2.390470356E-1,-3.319977045E0
6.235320310E-1,-5.740100145E-1,2.506534457E-1,-3.356018066E0
6.259618230E-1,-6.357073784E-1,2.793641090E-1,-3.377398491E0
6.283925000E-1,-6.937395334E-1,2.958574593E-1,-3.392059088E0
6.308239060E-1,-7.615455389E-1,3.172377050E-1,-3.426878452E0
6.332545310E-1,-8.275189400E-1,3.380071223E-1,-3.475136757E0
6.356843230E-1,-8.928813934E-1,3.545004725E-1,-3.521562576E0
6.381150000E-1,-9.570221901E-1,3.801567852E-1,-3.571653366E0
6.405464060E-1,-1.016276121E0,4.052022398E-1,-3.626020432E0
6.429770310E-1,-1.071864843E0,4.455192983E-1,-3.686496019E0
6.454068230E-1,-1.162883639E0,5.212665200E-1,-3.736586809E0
6.478375000E-1,-1.249626398E0,5.530314445E-1,-3.801949501E0
6.502689060E-1,-1.321708441E0,6.086201668E-1,-3.840433836E0
6.526995310E-1,-1.362025499E0,6.837565303E-1,-3.859981537E0
6.551293230E-1,-1.384016633E0,7.491190434E-1,-3.892968178E0
6.575600000E-1,-1.404175162E0,8.291423321E-1,-3.952832937E0
6.599914060E-1,-1.441437960E0,9.024460912E-1,-4.023693085E0
6.624220310E-1,-1.479922414E0,9.702520967E-1,-4.104938507E0
6.648518230E-1,-1.508633018E0,1.014234304E0,-4.191680908E0
6.672825000E-1,-1.526348114E0,1.064325213E0,-4.275980473E0
6.697139060E-1,-1.530624151E0,1.152900577E0,-4.361501694E0
6.721445310E-1,-1.515352607E0,1.274462700E0,-4.456185341E0
6.745743230E-1,-1.495804906E0,1.407020330E0,-4.556978226E0
6.770050000E-1,-1.476868153E0,1.532858491E0,-4.670598984E0
6.794364060E-1,-1.446935773E0,1.677022576E0,-4.780554771E0
6.818670310E-1,-1.398066521E0,1.792475939E0,-4.888677597E0
6.842968230E-1,-1.347364783E0,1.892657757E0,-5.001076698E0
6.867275000E-1,-1.311934590E0,1.974513650E0,-5.118973732E0
6.891589060E-1,-1.294219494E0,2.079582453E0,-5.239314079E0
6.915895310E-1,-1.296052098E0,2.188927174E0,-5.360876083E0
6.940193230E-1,-1.327817082E0,2.289719820E0,-5.484271049E0
6.964500000E-1,-1.375464559E0,2.380738735E0,-5.608276367E0
6.988814060E-1,-1.442659616E0,2.485196590E0,-5.728005886E0
7.013120310E-1,-1.524515510E0,2.596374035E0,-5.838572502E0
7.037418230E-1,-1.622253895E0,2.704497099E0,-5.941808701E0
7.061725000E-1,-1.726100922E0,2.796126604E0,-6.039546967E0
7.086039060E-1,-1.842776060E0,2.890199900E0,-6.125067711E0
7.110345310E-1,-1.947234035E0,3.009929419E0,-6.196538925E0
7.134643230E-1,-2.042528868E0,3.146152258E0,-6.252127647E0
7.158950000E-1,-2.120719671E0,3.275655508E0,-6.299164295E0
7.183264060E-1,-2.189136505E0,3.412489176E0,-6.336427212E0
7.207570310E-1,-2.245946884E0,3.562151194E0,-6.358418465E0
7.231868230E-1,-2.283209562E0,3.709980249E0,-6.374300957E0
7.256175000E-1,-2.306422472E0,3.856587887E0,-6.379187584E0
7.280489060E-1,-2.317418098E0,3.997086763E0,-6.369413853E0
7.304795310E-1,-2.307644129E0,4.133920670E0,-6.351088047E0
7.329093230E-1,-2.286263943E0,4.259758949E0,-6.320544720E0
7.353400000E-1,-2.252666473E0,4.357497215E0,-6.290001392E0
7.377714060E-1,-2.203186274E0,4.433855057E0,-6.256403923E0
7.402020310E-1,-2.138434649E0,4.486389637E0,-6.210588932E0
7.426318230E-1,-2.065741777E0,4.527928352E0,-6.142783165E0
7.450625000E-1,-1.983885884E0,4.563358784E0,-6.070090294E0
7.474939060E-1,-1.905084252E0,4.594512463E0,-5.988844872E0
7.499245310E-1,-1.821395755E0,4.609173298E0,-5.903324127E0
7.523543230E-1,-1.738318205E0,4.631164551E0,-5.808640003E0
7.547850000E-1,-1.648521066E0,4.654988289E0,-5.716399670E0
7.572164060E-1,-1.553226233E0,4.681866169E0,-5.625380516E0
7.596470310E-1,-1.456098676E0,4.714853287E0,-5.536194324E0
7.620768230E-1,-1.348586559E0,4.745396137E0,-5.452506065E0
7.645075000E-1,-1.238019943E0,4.773496151E0,-5.374926090E0
7.669389060E-1,-1.129896879E0,4.805261135E0,-5.302233219E0
7.693695310E-1,-1.010778308E0,4.835804462E0,-5.235649109E0
7.717993230E-1,-8.941031694E-1,4.851075649E0,-5.176394939E0
7.742300000E-1,-7.896453142E-1,4.852297783E0,-5.122027874E0
7.766614060E-1,-6.937395334E-1,4.819921970E0,-5.084154606E0
7.790920310E-1,-6.124945879E-1,4.752726555E0,-5.059109211E0
7.815218230E-1,-5.367473364E-1,4.663540363E0,-5.048724174E0
7.839525000E-1,-4.658870399E-1,4.584738731E0,-5.041393757E0
7.863839060E-1,-3.815876842E-1,4.513878345E0,-5.043226719E0
7.888145310E-1,-2.899579704E-1,4.444240093E0,-5.042615891E0
7.912443230E-1,-1.909978986E-1,4.394149303E0,-5.038950443E0
7.936750000E-1,-8.287483454E-2,4.357497215E0,-5.034063339E0
7.961064060E-1,2.341563255E-2,4.344058037E0,-5.020624638E0
7.985370310E-1,1.235974431E-1,4.345279694E0,-4.998022556E0
8.009668230E-1,2.109511048E-1,4.351999283E0,-4.973587990E0
8.033975000E-1,2.958613038E-1,4.355053902E0,-4.944877148E0
8.058289060E-1,3.624455631E-1,4.360551357E0,-4.915555954E0
8.082595310E-1,4.180342257E-1,4.367881775E0,-4.883790970E0
8.106893230E-1,4.687360227E-1,4.375212193E0,-4.851415157E0
8.131200000E-1,5.108857155E-1,4.382542610E0,-4.815984726E0
8.155514060E-1,5.414289236E-1,4.393537998E0,-4.777500153E0
8.179820310E-1,5.707504153E-1,4.393537998E0,-4.743291855E0
8.204118230E-1,5.909090042E-1,4.387429714E0,-4.706029415E0
8.228425000E-1,6.025153399E-1,4.371547222E0,-4.663268566E0
8.252739060E-1,6.098457575E-1,4.349555969E0,-4.620508194E0
8.277045310E-1,6.190087795E-1,4.322067261E0,-4.575914860E0
8.301343230E-1,6.220630407E-1,4.295799732E0,-4.525824070E0
8.325650000E-1,6.226738691E-1,4.267700195E0,-4.473900795E0
8.349964060E-1,6.208413839E-1,4.237767696E0,-4.412814140E0
8.374270310E-1,6.086239815E-1,4.209056854E0,-4.352338314E0
8.398568230E-1,5.921306610E-1,4.182789803E0,-4.289419651E0
8.422875000E-1,5.689178705E-1,4.158355236E0,-4.222835064E0
8.447189060E-1,5.347093940E-1,4.134531498E0,-4.149531364E0
8.471495310E-1,4.925597310E-1,4.102766514E0,-4.075006008E0
8.495793230E-1,4.412471056E-1,4.060616970E0,-3.992539167E0
8.520100000E-1,3.789388835E-1,4.014801979E0,-3.907018185E0
8.544414060E-1,3.135763705E-1,3.967765331E0,-3.816610098E0
8.568720310E-1,2.347748280E-1,3.905457020E0,-3.724369526E0
8.593018230E-1,1.498646289E-1,3.821157694E0,-3.616857290E0
8.617325000E-1,5.762405694E-2,3.713645458E0,-3.497738838E0
8.641639060E-1,-4.561208189E-2,3.585974693E0,-3.379230976E0
8.665945830E-1,-1.445721686E-1,3.450973749E0,-3.254614592E0
8.690243230E-1,-2.514734864E-1,3.319637775E0,-3.126332998E0
8.714550000E-1,-3.504335880E-1,3.184636593E0,-2.990110159E0
8.738864580E-1,-4.500045478E-1,3.064907312E0,-2.839226723E0
8.763170830E-1,-5.404125452E-1,2.948231936E0,-2.681623459E0
8.787468230E-1,-6.186032295E-1,2.846217632E0,-2.530128956E0
8.811775000E-1,-6.870200634E-1,2.749701023E0,-2.375580311E0
8.836089580E-1,-7.371109724E-1,2.658682108E0,-2.233859777E0
8.860395830E-1,-7.725410461E-1,2.573771954E0,-2.101912975E0
8.884693230E-1,-7.951431274E-1,2.494970322E0,-1.977907181E0
8.909000000E-1,-8.079712391E-1,2.407616854E0,-1.855123401E0
8.933314580E-1,-8.122472763E-1,2.300104618E0,-1.742113471E0
8.957620830E-1,-8.140798807E-1,2.184040308E0,-1.638266444E0
8.981918230E-1,-8.104146719E-1,2.060034752E0,-1.546025872E0
9.006225000E-1,-8.067495823E-1,1.921368480E0,-1.461115718E0
9.030539580E-1,-8.104146719E-1,1.779647827E0,-1.379870653E0
9.054845830E-1,-8.195776939E-1,1.642814159E0,-1.299236536E0
9.079143230E-1,-8.293515444E-1,1.519419432E0,-1.206995964E0
9.103450000E-1,-8.366818428E-1,1.414961576E0,-1.111701012E0
9.127764580E-1,-8.403470516E-1,1.322721004E0,-1.010297537E0
9.152070830E-1,-8.421796560E-1,1.243919492E0,-9.156135321E-1
9.176368230E-1,-8.513426781E-1,1.178556919E0,-8.258164525E-1
9.200675000E-1,-8.446230888E-1,1.108307481E0,-7.451822758E-1
9.224989580E-1,-8.421796560E-1,1.041723251E0,-6.688241959E-1
9.249295830E-1,-8.299623728E-1,9.861345291E-1,-5.997964740E-1
9.273593750E-1,-8.195776939E-1,9.458174706E-1,-5.374882817E-1
9.297900520E-1,-7.945321798E-1,9.103873372E-1,-4.806778133E-1
9.322214580E-1,-7.676541805E-1,8.786223531E-1,-4.379172921E-1
9.346520830E-1,-7.297805548E-1,8.468573689E-1,-4.055414796E-1
9.370818750E-1,-6.870200634E-1,8.230336905E-1,-3.835503459E-1
9.395125520E-1,-6.418160200E-1,8.144815564E-1,-3.701113164E-1
9.419439580E-1,-6.027207375E-1,8.218119144E-1,-3.707221746E-1
9.443745830E-1,-5.599601269E-1,8.328074813E-1,-3.792742789E-1
9.468043750E-1,-5.288060904E-1,8.480791450E-1,-3.890481293E-1
9.492350520E-1,-5.043715239E-1,8.657941818E-1,-4.018762708E-1
9.516664580E-1,-4.781043231E-1,8.908396363E-1,-4.147044420E-1
9.540970830E-1,-4.542805851E-1,9.201611876E-1,-4.281434715E-1
9.565268750E-1,-4.359546602E-1,9.537587166E-1,-4.440259337E-1
9.589575520E-1,-4.237373471E-1,9.794150591E-1,-4.562432468E-1
9.613889580E-1,-4.274025261E-1,9.934649467E-1,-4.678496718E-1
9.638195830E-1,-4.469502270E-1,9.989627600E-1,-4.745691717E-1
9.662493750E-1,-4.793260396E-1,1.000795364E0,-4.739583135E-1
9.686800520E-1,-5.171996355E-1,9.971301556E-1,-4.635736048E-1
9.711114580E-1,-5.617927313E-1,9.720846415E-1,-4.452476799E-1
9.735420830E-1,-6.118836403E-1,9.213829041E-1,-4.208130836E-1
9.759718750E-1,-6.845766306E-1,8.395270109E-1,-4.006545544E-1
9.784025520E-1,-7.627673149E-1,7.595037222E-1,-3.780525625E-1
9.808339580E-1,-8.317949772E-1,7.149106264E-1,-3.695004582E-1
9.832645830E-1,-8.831076622E-1,7.295713425E-1,-3.951567709E-1
9.856943750E-1,-9.050987959E-1,7.973773479E-1,-4.739583135E-1
9.881250520E-1,-9.118182659E-1,8.963374496E-1,-6.278962493E-1
9.905564580E-1,-9.331984520E-1,1.033171177E0,-8.068796396E-1
9.929870830E-1,-9.704612494E-1,1.212765336E0,-9.327177405E-1
9.954168750E-1,-1.038878083E0,1.428400636E0,-9.754782915E-1
9.978475520E-1,-1.116457939E0,1.657474875E0,-9.467676282E-1
1.000278958E0,-1.199535489E0,1.870666623E0,-9.003419280E-1
1.002709583E0,-1.282002211E0,2.036211014E0,-8.630791903E-1
1.005139375E0,-1.368745089E0,2.143112421E0,-8.386445642E-1
1.007570052E0,-1.456098676E0,2.205420494E0,-8.288707733E-1
1.010001458E0,-1.526959062E0,2.259176731E0,-8.307033181E-1
1.012432083E0,-1.575828195E0,2.314154387E0,-8.264272809E-1
1.014861875E0,-1.603927970E0,2.368521452E0,-8.038253188E-1
1.017292552E0,-1.633860350E0,2.410060167E0,-7.641190886E-1
1.019723958E0,-1.667457938E0,2.435105562E0,-7.244128585E-1
1.022154583E0,-1.707774997E0,2.456485987E0,-6.889827251E-1
1.024584375E0,-1.751757264E0,2.455264091E0,-6.327831745E-1
1.027015052E0,-1.800626397E0,2.460151196E0,-5.374882817E-1
1.029446458E0,-1.833613038E0,2.474200964E0,-4.318086505E-1
1.031877083E0,-1.850106478E0,2.465038061E0,-3.517853618E-1
1.034306875E0,-1.883093119E0,2.419223070E0,-3.175769448E-1
1.036737552E0,-1.938681722E0,2.358136654E0,-3.126900196E-1
1.039168958E0,-1.998546481E0,2.292774200E0,-3.035270572E-1
1.041599583E0,-2.066352606E0,2.221302986E0,-2.821467817E-1
1.044029375E0,-2.127439260E0,2.155329704E0,-2.619882524E-1
1.046460052E0,-2.192801714E0,2.108903885E0,-2.479383796E-1
1.048891458E0,-2.256942511E0,2.082025766E0,-2.326667607E-1
1.051322083E0,-2.321083307E0,2.066754341E0,-2.112865001E-1
1.053751875E0,-2.391332626E0,2.067365170E0,-1.789106727E-1
1.056182552E0,-2.448754072E0,2.072862864E0,-1.312632114E-1
1.058613958E0,-2.505564451E0,2.077749729E0,-7.567452639E-2
1.061044583E0,-2.551379204E0,2.071641207E0,-1.275545917E-2
1.063474375E0,-2.593528986E0,2.064310789E0,3.489199281E-2
1.065905052E0,-2.624072075E0,2.045984745E0,8.009598404E-2
1.068336511E0,-2.654615402E0,2.019717693E0,1.228565052E-1
1.070767136E0,-2.687602043E0,1.968405008E0,1.582866609E-1
1.073196875E0,-2.723643064E0,1.915870667E0,1.882190257E-1
1.075627552E0,-2.755408049E0,1.867001534E0,2.053232342E-1
1.078059011E0,-2.782286167E0,1.815688848E0,2.108210176E-1
1.080489636E0,-2.817105532E0,1.760711074E0,2.163188010E-1
1.082919375E0,-2.833598852E0,1.607994795E0,2.309795618E-1
1.085350104E0,-3.401702881E0,1.941527009E0,4.062977433E-1
1.087781458E0,-3.093216181E0,1.722226501E0,2.859573960E-1
1.090212136E0,-2.696764946E0,1.442450523E0,2.798487544E-1
1.092641927E0,-2.635067701E0,1.320277572E0,3.067268133E-1
1.095072604E0,-2.475631952E0,1.255525947E0,3.006181419E-1
1.097504011E0,-2.322915792E0,1.231702209E0,2.969529629E-1
1.099934636E0,-2.228842735E0,1.207267523E0,3.030616045E-1
1.102364427E0,-1.870265007E0,1.105253220E0,3.213875592E-1
1.104795104E0,-1.401731730E0,9.281024337E-1,2.767944336E-1
1.107226511E0,-9.368636608E-1,7.491190434E-1,2.346447408E-1
1.109657136E0,-3.498227000E-1,6.813130379E-1,2.529706955E-1
1.112086927E0,1.565841436E-1,6.642088294E-1,3.012290299E-1
1.114517604E0,5.371528864E-1,6.648197174E-1,3.281070590E-1
1.116949011E0,8.444178104E-1,6.861999631E-1,3.598720431E-1
1.119379636E0,1.080822468E0,7.271279097E-1,4.007999599E-1
1.121809427E0,1.198719382E0,8.047077060E-1,4.374518394E-1
1.124240104E0,1.263471007E0,8.871744871E-1,4.539451897E-1
1.126671511E0,1.298901200E0,9.781932831E-1,4.704385400E-1
1.129102136E0,1.311118484E0,1.067990422E0,4.899862111E-1
1.131531927E0,1.285462141E0,1.157787561E0,4.954840243E-1
1.133962604E0,1.253697157E0,1.244530320E0,4.716602862E-1
1.136394011E0,1.213991046E0,1.304395080E0,4.508908689E-1
1.138824636E0,1.163900137E0,1.338603497E0,4.331758022E-1
1.141254427E0,1.110754848E0,1.352042556E0,3.971347809E-1
1.143685104E0,1.067383409E0,1.361816406E0,3.439895511E-1
1.146116511E0,1.039894581E0,1.380753160E0,2.865682542E-1
1.148547136E0,1.017292500E0,1.413739800E0,2.346447408E-1
1.150976927E0,1.001410007E0,1.465663314E0,1.876081675E-1
1.153407604E0,9.940797091E-1,1.527971506E0,1.362955272E-1
1.155839011E0,9.849166870E-1,1.603107929E0,9.414587170E-2
1.158269636E0,9.751428366E-1,1.692294121E0,6.665695459E-2
1.160699427E0,9.592603445E-1,1.789421678E0,5.016360432E-2
1.163130104E0,9.488756657E-1,1.882273078E0,3.000507317E-2
1.165561511E0,9.287171364E-1,1.971459389E0,1.962037198E-2
1.167992136E0,9.042825699E-1,2.045373917E0,1.534431800E-2
1.170421927E0,8.780153990E-1,2.100962639E0,2.633988298E-2
1.172852604E0,8.389199972E-1,2.135782003E0,3.428112715E-2
1.175284011E0,7.906616926E-1,2.155940533E0,4.466582835E-2
1.177714636E0,7.375165224E-1,2.154107809E0,6.543522328E-2
1.180144427E0,6.733757257E-1,2.137614489E0,8.620462567E-2
1.182575104E0,6.098457575E-1,2.104017019E0,1.051414311E-1
1.185006563E0,5.347093940E-1,2.063699961E0,1.265216917E-1
1.187437136E0,4.546861351E-1,2.014830828E0,1.595083922E-1
1.189866927E0,3.722193837E-1,1.951911688E0,1.986037344E-1
1.192297604E0,2.940286994E-1,1.885938287E0,2.389207929E-1
1.194729063E0,2.225575298E-1,1.805914998E0,2.804596126E-1
1.197159688E0,1.645253897E-1,1.723448277E0,3.213875592E-1
1.199589427E0,1.126018763E-1,1.630596876E0,3.641480803E-1
1.202020104E0,7.656086236E-2,1.534080267E0,4.136281312E-1
1.204451563E0,5.273713917E-2,1.444283128E0,4.588321149E-1
1.206882188E0,3.807638586E-2,1.342879534E0,4.979274571E-1
1.209311979E0,4.051984102E-2,1.242086887E0,5.467966199E-1
1.211742656E0,3.318946809E-2,1.118692160E0,6.036069989E-1
1.214174063E0,2.463736013E-2,9.836910963E-1,6.445349455E-1
1.216604688E0,2.524822578E-2,8.774006367E-1,6.732456088E-1
1.219034479E0,2.952427790E-2,7.790514231E-1,7.080649137E-1
1.221465156E0,3.929811344E-2,6.837565303E-1,7.398298383E-1
1.223896563E0,4.051984102E-2,6.025115252E-1,7.636535764E-1
1.226327188E0,4.235243797E-2,5.279859900E-1,7.862555981E-1
1.228756979E0,4.540675879E-2,4.632343948E-1,8.051924109E-1
1.231187656E0,5.395886675E-2,4.033696353E-1,8.259617686E-1
1.233619063E0,5.701319128E-2,3.526678681E-1,8.436768651E-1
1.236049688E0,6.434356421E-2,3.068530262E-1,8.583376408E-1
1.238479479E0,6.800875813E-2,2.659250796E-1,8.809396029E-1
1.240910156E0,7.594999671E-2,2.213319540E-1,9.004873037E-1
1.243341563E0,8.144778013E-2,1.767388284E-1,9.182023406E-1
1.245772188E0,9.244334698E-2,1.333674341E-1,9.438586831E-1
1.248201979E0,1.083258241E-1,7.716786861E-2,9.682932496E-1
1.250632656E0,1.217648536E-1,1.791399531E-2,9.701258540E-1
1.253064063E0,1.364255995E-1,-2.790085971E-2,9.829540253E-1
1.255494688E0,1.541406810E-1,-6.333101541E-2,9.878409505E-1
1.257924479E0,1.614710540E-1,-9.020905942E-2,1.003723502E0
1.260355156E0,1.718557477E-1,-1.091458723E-1,1.011053801E0
1.262786563E0,1.785752773E-1,-1.183088422E-1,1.023882031E0
1.265217188E0,1.914034188E-1,-1.213631630E-1,1.025103688E0
1.267646979E0,2.011772692E-1,-1.262500733E-1,1.027547240E0
1.270077656E0,2.115619630E-1,-1.152545139E-1,1.019605994E0
1.272509063E0,2.201140672E-1,-1.036480889E-1,1.006166935E0
1.274939688E0,2.341639549E-1,-8.348955214E-2,9.866191745E-1
1.277369479E0,2.451595217E-1,-6.760706753E-2,9.676824212E-1
1.279800156E0,2.555442452E-1,-4.195074737E-2,9.432477951E-1
1.282231563E0,2.677615285E-1,-1.934875362E-2,9.182023406E-1
1.284662240E0,2.781462073E-1,6.307565141E-3,8.901025653E-1
1.287091979E0,2.885309160E-1,3.013128974E-2,8.601701856E-1
1.289522656E0,2.995264828E-1,3.929426149E-2,8.277943730E-1
1.291954115E0,2.866983414E-1,9.121775627E-2,7.954185605E-1
1.294384740E0,2.744810283E-1,1.382543445E-1,7.544906139E-1
1.296814479E0,2.537116408E-1,1.810148805E-1,7.062323093E-1
1.299245156E0,2.231683880E-1,1.950647682E-1,6.298742294E-1
1.301676615E0,-2.917905748E-1,7.283496261E-1,4.832667112E-1
1.304107240E0,-1.193426847E0,1.117470503E0,3.409352303E-1
1.306537031E0,-1.913025498E0,1.279349566E0,2.157079428E-1
1.308967708E0,-2.540383577E0,1.348377347E0,9.658932686E-2
1.311399115E0,-3.062062263E0,1.375866294E0,-1.580978185E-2
1.313829740E0,-3.270977974E0,1.188330770E0,-1.324849427E-1
1.316259531E0,-3.533649683E0,1.115026951E0,-2.167842835E-1
1.318690208E0,-3.606953382E0,9.036678076E-1,-2.674860358E-1
1.321121615E0,-3.455459118E0,5.518097281E-1,-2.680968940E-1
1.323552240E0,-3.124370337E0,2.152233124E-1,-2.253363878E-1
1.325982031E0,-2.834820509E0,7.105921954E-2,-1.618064493E-1
1.328412708E0,-2.603913546E0,7.105921954E-2,-7.506366074E-2
1.330844115E0,-2.465858221E0,1.211501285E-1,2.633988298E-2
1.333274740E0,-2.416989088E0,1.730736345E-1,1.436259001E-1
1.335704531E0,-2.413934708E0,1.327565610E-1,2.865682542E-1
1.338135208E0,-2.330857038E0,-1.507269964E-2,4.594429731E-1
1.340566615E0,-2.165312767E0,-2.166580558E-1,6.164351702E-1
1.342997240E0,-1.906916857E0,-4.555061460E-1,7.379972339E-1
1.345427031E0,-1.615534425E0,-6.314352155E-1,8.265726566E-1
1.347857708E0,-1.398066521E0,-7.340605259E-1,9.359174371E-1
1.350289115E0,-1.268563271E0,-8.562334180E-1,1.043429732E0
1.352719740E0,-1.145168543E0,-9.973431826E-1,1.109403014E0
1.355149531E0,-9.881763458E-1,-1.142118096E0,1.154607058E0
1.357580208E0,-8.214102983E-1,-1.278340936E0,1.193091512E0
1.360011615E0,-6.668615341E-1,-1.365083814E0,1.224245667E0
1.362442240E0,-5.483537912E-1,-1.401735663E0,1.244404197E0
1.364872031E0,-4.426741302E-1,-1.376690149E0,1.255399704E0
1.367302708E0,-3.785333633E-1,-1.327821016E0,1.257843256E0
1.369734167E0,-3.412705958E-1,-1.233747840E0,1.241349816E0
1.372164740E0,-3.205012083E-1,-1.118905306E0,1.219969630E0
1.374594531E0,-3.015643954E-1,-1.010782242E0,1.187593699E0
1.377025208E0,-2.795732617E-1,-9.338132739E-1,1.144222379E0
1.379456667E0,-2.459757030E-1,-8.531790972E-1,1.088633657E0
1.381887292E0,-2.190976739E-1,-7.804862261E-1,1.032434106E0
1.384317031E0,-1.696176231E-1,-7.126802206E-1,9.786779881E-1
1.386747708E0,-1.005899012E-1,-6.546480656E-1,9.291979074E-1
1.389179167E0,-2.239922434E-2,-5.905072689E-1,8.803287148E-1
1.391609792E0,4.785022140E-2,-4.988775551E-1,8.296269774E-1
1.394039583E0,1.016063169E-1,-3.931979537E-1,7.770925760E-1
1.396470261E0,1.382581890E-1,-2.771336734E-1,7.288342714E-1
1.398901667E0,1.651362479E-1,-1.512955278E-1,6.817976832E-1
1.401332292E0,1.730774939E-1,-1.690529473E-2,6.347611547E-1
1.403762083E0,1.749100834E-1,1.156523451E-1,6.097157001E-1
1.406192761E0,1.724666208E-1,2.243862748E-1,5.974983573E-1
1.408624167E0,1.688014269E-1,3.282332718E-1,5.504617691E-1
1.411054792E0,1.443668455E-1,4.278042316E-1,4.887644947E-1
1.413484583E0,1.016063169E-1,5.157687068E-1,4.197367728E-1
1.415915261E0,5.456973240E-2,5.854073167E-1,3.519307971E-1
1.418346667E0,-2.851553261E-3,6.403851509E-1,2.859573960E-1
1.420777292E0,-7.493358850E-2,6.861999631E-1,2.212057263E-1
1.423207083E0,-1.635089815E-1,7.344582677E-1,1.723365486E-1
1.425637761E0,-2.471974492E-1,7.759971023E-1,1.295760125E-1
1.428069167E0,-3.382162750E-1,8.163141608E-1,9.353500605E-2
1.430499792E0,-4.206830263E-1,8.700702786E-1,6.604608893E-2
1.432929583E0,-5.013171434E-1,9.244372249E-1,4.894188046E-2
1.435360261E0,-5.727883577E-1,9.788041711E-1,3.550285101E-2
1.437791667E0,-6.381508112E-1,1.020342946E0,1.595518179E-2
1.440222292E0,-6.900743246E-1,1.047831893E0,3.737888299E-3
1.442652083E0,-7.444412708E-1,1.070433855E0,1.294429414E-3
1.445082761E0,-7.804822922E-1,1.071044803E0,-5.381647497E-4
1.447514167E0,-8.079712391E-1,1.056383967E0,-4.203353077E-3
1.449944792E0,-8.311841488E-1,1.032560229E0,-3.592488356E-3
1.452374583E0,-8.556187153E-1,9.995735884E-1,1.473345421E-2
1.454805261E0,-8.708903790E-1,9.623108506E-1,4.405496269E-2
1.457236719E0,-8.794424534E-1,9.085547328E-1,8.070684224E-2
1.459667344E0,-8.831076622E-1,8.419705033E-1,1.240782365E-1
1.462097083E0,-8.690577745E-1,7.692775726E-1,1.656170338E-1
1.464527761E0,-8.488992453E-1,6.965847015E-1,2.144862115E-1
1.466959219E0,-8.140798807E-1,6.257243752E-1,2.609119415E-1
1.469389844E0,-7.737628222E-1,5.640270114E-1,3.091702461E-1
1.471819636E0,-7.279479504E-1,5.096600652E-1,3.555959761E-1
1.474250313E0,-6.784679890E-1,4.638452530E-1,4.050760269E-1
1.476681719E0,-6.247118711E-1,4.253607690E-1,4.594429731E-1
1.479112344E0,-5.691231489E-1,3.960392773E-1,5.089229941E-1
1.481542136E0,-5.074257851E-1,3.691612184E-1,5.584030151E-1
1.483972813E0,-4.445067346E-1,3.392288387E-1,5.974983573E-1
1.486404219E0,-3.791442215E-1,3.117399216E-1,6.249873042E-1
1.488834844E0,-3.217229247E-1,2.879162133E-1,6.433132291E-1
1.491264636E0,-2.624690533E-1,2.653142214E-1,6.579740047E-1
1.493695313E0,-2.093238235E-1,2.323275208E-1,6.549196839E-1
1.496126719E0,-1.647306979E-1,1.859017909E-1,6.616391540E-1
1.498557344E0,-1.256353557E-1,1.553585678E-1,6.518653631E-1
1.500987136E0,-9.387040138E-2,1.419195384E-1,6.414806247E-1
1.503417813E0,-8.409656584E-2,1.339782923E-1,6.329285502E-1
1.505849219E0,-8.165310323E-2,1.242044494E-1,6.304850578E-1
1.508279844E0,-9.203779697E-2,1.113762930E-1,6.255981326E-1
1.510709636E0,-1.158615202E-1,9.915900230E-2,6.219329834E-1
1.513140313E0,-1.451830268E-1,8.327651769E-2,6.164351702E-1
1.515571719E0,-1.800023317E-1,5.578760803E-2,6.213220954E-1
1.518002344E0,-2.166542113E-1,8.751023561E-3,6.152134538E-1
1.520432136E0,-2.484191656E-1,-4.928112403E-2,5.938332081E-1
1.522862813E0,-2.722429037E-1,-1.024263576E-1,5.480183363E-1
1.525294219E0,-2.966774702E-1,-1.714540571E-1,5.028143525E-1
1.527724844E0,-3.211120665E-1,-2.472012937E-1,4.398953021E-1
1.530154636E0,-3.479901254E-1,-3.095094860E-1,3.745327890E-1
1.532585313E0,-3.681486547E-1,-3.571569324E-1,3.226092756E-1
1.535016771E0,-3.638726175E-1,-3.357766867E-1,2.725183666E-1
1.537447396E0,-3.602074087E-1,-3.315006196E-1,2.083775699E-1
1.539877136E0,-3.907506466E-1,-3.785372078E-1,1.503454149E-1
1.542307813E0,-4.188504219E-1,-3.950305581E-1,9.414587170E-2
1.544739271E0,-4.426741302E-1,-3.968631327E-1,4.894188046E-2
1.547169896E0,-4.677195847E-1,-3.913653493E-1,2.328555845E-2
1.549599688E0,-4.903216064E-1,-3.785372078E-1,1.167912968E-2
1.552030365E0,-5.123127699E-1,-3.736502826E-1,1.717691310E-2
1.554461771E0,-5.349147320E-1,-3.712068200E-1,2.939420752E-2
1.556892396E0,-5.495754480E-1,-3.785372078E-1,4.710928351E-2
1.559322188E0,-5.636253357E-1,-3.883110285E-1,6.604608893E-2
1.561752865E0,-5.697339773E-1,-4.127456248E-1,9.231327474E-2
1.564184271E0,-5.758426189E-1,-4.353476167E-1,1.185804531E-1
1.566614896E0,-5.929468870E-1,-4.628365338E-1,1.460693628E-1
1.569044688E0,-6.021097898E-1,-4.823842049E-1,1.790560633E-1
1.571475365E0,-5.996663570E-1,-4.897145927E-1,2.132644802E-1
1.573906771E0,-5.843948126E-1,-4.738321006E-1,2.456403226E-1
1.576337396E0,-5.459102392E-1,-4.536735713E-1,2.761835754E-1
1.578767188E0,-5.007063150E-1,-4.280172586E-1,3.055050671E-1
1.581197865E0,-4.414524138E-1,-4.023609161E-1,3.238310218E-1
1.583629271E0,-3.675377965E-1,-3.803698123E-1,3.342157006E-1
1.586059896E0,-2.881253660E-1,-3.510482907E-1,3.354374468E-1
1.588489688E0,-2.013825774E-1,-3.198941946E-1,3.213875592E-1
1.590920365E0,-1.250244975E-1,-2.789662480E-1,3.000072837E-1
1.593351771E0,-5.294245481E-2,-2.417035103E-1,2.731292546E-1
1.595782396E0,1.180920005E-2,-2.026081681E-1,2.462511808E-1
1.598212188E0,6.617616117E-2,-1.659562886E-1,2.150970697E-1
1.600642865E0,1.058823690E-1,-1.317478567E-1,1.869972944E-1
1.603074271E0,1.352038682E-1,-1.030372232E-1,1.680604964E-1
1.605504896E0,1.559732854E-1,-8.410041779E-2,1.540106088E-1
1.607934688E0,1.675797105E-1,-8.654387295E-2,1.472910941E-1
1.610365365E0,1.767426729E-1,-1.012046263E-1,1.448476315E-1
1.612796771E0,1.755209565E-1,-1.274718046E-1,1.546214670E-1
1.615227448E0,1.797969937E-1,-1.757301092E-1,1.613409817E-1
1.617657188E0,1.755209565E-1,-2.343731225E-1,1.888298988E-1
1.620087865E0,1.749100834E-1,-3.082877696E-1,2.291469723E-1
1.622519323E0,1.767426729E-1,-3.883110285E-1,2.737401128E-1
1.624949948E0,1.797969937E-1,-4.689451754E-1,3.213875592E-1
1.627379740E0,1.920142919E-1,-5.483576059E-1,3.672024012E-1
1.629810365E0,2.066750526E-1,-6.222722530E-1,4.056868851E-1
1.632241823E0,2.359965593E-1,-6.967977285E-1,4.466148317E-1
1.634672448E0,2.537116408E-1,-7.768210173E-1,4.759363234E-1
1.637102240E0,2.805896997E-1,-8.653964400E-1,4.918188155E-1
1.639532917E0,2.897526622E-1,-9.515283704E-1,5.028143525E-1
1.641964323E0,2.683723867E-1,-1.035216808E0,5.101447105E-1
1.644394948E0,2.243901193E-1,-1.116461873E0,4.905970991E-1
1.646824740E0,1.816295981E-1,-1.199539423E0,4.295106232E-1
1.649255417E0,1.846839190E-1,-1.335762262E0,3.116137087E-1
1.651686823E0,2.066750526E-1,-1.440220118E0,1.833321154E-1
1.654117448E0,2.243901193E-1,-1.495197892E0,7.398733497E-2
1.656547240E0,2.268335819E-1,-1.519021630E0,-6.646811962E-3
1.658977917E0,2.237792611E-1,-1.538569331E0,-7.078760862E-2
1.661409323E0,2.170597464E-1,-1.541012764E0,-1.166024581E-1
1.663839948E0,2.176706195E-1,-1.548954010E0,-1.544760764E-1
1.666269740E0,2.280553132E-1,-1.552008390E0,-1.697476953E-1
1.668700417E0,2.298879027E-1,-1.555062652E0,-1.770780683E-1
1.671131823E0,2.353856862E-1,-1.552619219E0,-1.721911579E-1
1.673562448E0,2.396617383E-1,-1.565447330E0,-1.593630016E-1
1.675992240E0,2.396617383E-1,-1.586827636E0,-1.544760764E-1
1.678422917E0,2.433269322E-1,-1.614927411E0,-1.538652182E-1
1.680854323E0,2.488247156E-1,-1.632031679E0,-1.636390537E-1
1.683284948E0,2.604311407E-1,-1.639361978E0,-1.728020161E-1
1.685714740E0,2.616528869E-1,-1.635696888E0,-1.825758517E-1
1.688145417E0,2.702049613E-1,-1.633864284E0,-1.960148811E-1
1.690576823E0,2.879200578E-1,-1.635696888E0,-2.131190896E-1
1.693007448E0,3.172415495E-1,-1.639972925E0,-2.308341712E-1
1.695437240E0,3.465630710E-1,-1.625923038E0,-2.571013570E-1
1.697867917E0,3.709976673E-1,-1.586216807E0,-2.949749529E-1
1.700299323E0,4.155907929E-1,-1.565447330E0,-3.475093246E-1
1.702729948E0,4.107038677E-1,-1.490311027E0,-3.927133083E-1
1.705159740E0,4.314732552E-1,-1.431668043E0,-4.305869043E-1
1.707590417E0,4.406362474E-1,-1.349201322E0,-4.525780380E-1
1.710021875E0,4.449122846E-1,-1.233747840E0,-4.739583135E-1
1.712452500E0,4.595730305E-1,-1.077366471E0,-4.739583135E-1
1.714882240E0,4.736229181E-1,-9.106004238E-1,-4.641844928E-1
1.717312917E0,4.895054102E-1,-7.432234883E-1,-4.544106424E-1
1.719744375E0,5.041661263E-1,-5.789008737E-1,-4.507454634E-1
1.722175000E0,4.827859104E-1,-4.035826623E-1,-4.342521131E-1
1.724604792E0,4.473557472E-1,-2.600294352E-1,-3.976002336E-1
1.727035469E0,3.948213756E-1,-2.019972950E-1,-3.352920115E-1
1.729466875E0,3.123546243E-1,-2.404817790E-1,-2.326667607E-1
1.731897500E0,1.797969937E-1,-3.828132451E-1,-9.766565263E-2
1.734327292E0,3.563292325E-2,-5.300316811E-1,4.344409704E-2
1.736757969E0,-1.347983330E-1,-5.074297190E-1,1.222456470E-1
1.739189375E0,-2.624690533E-1,-3.192833364E-1,1.094174907E-1
1.741620000E0,-2.697994411E-1,-1.085350066E-1,-1.092286501E-2
1.744049792E0,-1.769480109E-1,6.739403307E-2,-1.801324040E-1
1.746480469E0,-5.172072351E-2,1.871235222E-1,-3.530071080E-1
1.748911875E0,9.488680214E-2,3.239572346E-1,-5.075559020E-1
1.751342500E0,2.280553132E-1,5.157687068E-1,-6.321722865E-1
1.753772292E0,3.465630710E-1,7.607254982E-1,-7.384627461E-1
1.756202969E0,4.320841432E-1,9.940757751E-1,-7.958840728E-1
1.758634375E0,4.730120599E-1,1.185887337E0,-7.946622968E-1
1.761065000E0,4.778989851E-1,1.287290812E0,-7.628973722E-1
1.763494792E0,4.516318142E-1,1.304395080E0,-7.311323881E-1
1.765925469E0,4.345275760E-1,1.228647828E0,-7.103629708E-1
1.768356875E0,4.192559719E-1,1.119303107E0,-6.840957999E-1
1.770787500E0,4.076495469E-1,1.005071402E0,-6.535525918E-1
1.773217292E0,4.070386887E-1,8.890070915E-1,-6.242310405E-1
1.775647969E0,4.033734798E-1,7.650015354E-1,-5.851356983E-1
1.778079375E0,3.984865844E-1,6.324439049E-1,-5.429860353E-1
1.780510000E0,3.923779130E-1,5.188230276E-1,-5.014472604E-1
1.782939792E0,3.832149506E-1,4.088674188E-1,-4.556323588E-1
1.785370469E0,3.777171671E-1,3.044095635E-1,-4.104283750E-1
1.787801875E0,3.728302419E-1,2.127798498E-1,-3.652243912E-1
1.790232500E0,3.740519881E-1,1.248153225E-1,-3.212421238E-1
1.792662292E0,3.728302419E-1,4.234858602E-2,-2.797033191E-1
1.795092969E0,3.728302419E-1,-2.118134685E-2,-2.418297380E-1
1.797524375E0,3.771063089E-1,-7.127225399E-2,-2.063995749E-1
1.799955000E0,3.813823462E-1,-1.262500733E-1,-1.789106727E-1
1.802384792E0,3.881018758E-1,-1.598476321E-1,-1.587521285E-1
1.804815469E0,3.844366670E-1,-1.494629383E-1,-1.440913826E-1
1.807246875E0,3.734411299E-1,-1.256392151E-1,-1.404261887E-1
1.809677500E0,3.587803543E-1,-9.753943980E-2,-1.404261887E-1
1.812107292E0,3.471739292E-1,-3.462037072E-2,-1.459239721E-1
1.814537969E0,3.398435414E-1,5.151155591E-2,-1.611955911E-1
1.816969427E0,3.392326832E-1,1.284805089E-1,-1.819649935E-1
1.819400000E0,3.575586379E-1,2.164450288E-1,-2.070104480E-1
1.821829792E0,3.697759211E-1,3.728263974E-1,-2.314450294E-1
1.824260469E0,3.917670548E-1,5.505880117E-1,-2.516035736E-1
1.826691927E0,4.162016511E-1,6.978064179E-1,-2.564904690E-1
1.829122500E0,4.455231428E-1,8.095946312E-1,-2.619882524E-1
1.831552292E0,4.644599557E-1,8.822875619E-1,-2.693186402E-1
1.833982969E0,4.785098433E-1,9.122199416E-1,-2.723729610E-1
1.836414427E0,4.803424478E-1,9.164959788E-1,-2.680968940E-1
1.838845052E0,4.717903435E-1,8.908396363E-1,-2.509926856E-1
1.841274792E0,4.577404559E-1,8.456356525E-1,-2.186168730E-1
1.843705469E0,4.357493222E-1,7.643906474E-1,-1.642499119E-1
1.846136927E0,4.216994345E-1,6.898651719E-1,-1.141590029E-1
1.848567552E0,4.204776883E-1,6.080092788E-1,-6.345722824E-2
1.850997344E0,4.137581885E-1,5.029405355E-1,6.835646927E-4
1.853428021E0,4.155907929E-1,3.899306059E-1,5.443966389E-2
1.855859427E0,4.168125093E-1,2.702011168E-1,9.658932686E-2
1.858290052E0,4.094821215E-1,1.174849421E-1,1.424041688E-1
1.860719792E0,3.942105174E-1,-5.661150068E-2,1.851647049E-1
1.863150521E0,3.826040924E-1,-2.184906453E-1,2.126536220E-1
1.865581927E0,3.752737045E-1,-3.559352160E-1,2.358664721E-1
1.868012552E0,3.807714880E-1,-4.719994962E-1,2.322012931E-1
1.870442292E0,3.911561966E-1,-5.740139484E-1,1.992145926E-1
1.872873021E0,3.942105174E-1,-6.796935201E-1,1.417933106E-1
1.875304427E0,4.021517634E-1,-7.646037340E-1,5.382879823E-2
1.877735052E0,3.917670548E-1,-7.749884129E-1,-4.452042282E-2
1.880164844E0,3.850475550E-1,-8.000338674E-1,-1.538652182E-1
1.882595521E0,3.728302419E-1,-8.140837550E-1,-2.717621028E-1
1.885026927E0,3.520608544E-1,-8.165272474E-1,-4.006545544E-1
1.887457552E0,3.086894751E-1,-7.908709049E-1,-5.332122445E-1
1.889887344E0,2.689832449E-1,-7.591059804E-1,-6.737111211E-1
1.892318021E0,2.085076421E-1,-6.912999749E-1,-8.172643185E-1
1.894749427E0,1.474211663E-1,-6.210505366E-1,-9.266090989E-1
1.897180052E0,1.034389138E-1,-5.550771356E-1,-9.889172912E-1
1.899609844E0,5.640232563E-2,-4.872711301E-1,-1.040840745E0
1.902040521E0,-2.728614211E-2,-4.579496086E-1,-1.103759766E0
1.904471927E0,-9.448125958E-2,-4.280172586E-1,-1.152629018E0
1.906902552E0,-1.482373625E-1,-4.347367585E-1,-1.160570264E0
1.909332344E0,-1.622872502E-1,-4.518409669E-1,-1.147131205E0
1.911763021E0,-1.855001152E-1,-4.726103842E-1,-1.142244339E0
1.914194427E0,-2.368127406E-1,-4.976558387E-1,-1.155072451E0
1.916625052E0,-2.795732617E-1,-5.404163599E-1,-1.174009204E0
1.919054844E0,-3.186686039E-1,-5.789008737E-1,-1.221656680E0
1.921485521E0,-3.699812591E-1,-6.241048574E-1,-1.276023626E0
1.923916927E0,-4.078548551E-1,-6.008920074E-1,-1.307177782E0
1.926347552E0,-4.115200639E-1,-6.063897610E-1,-1.340164423E0
1.928777344E0,-4.237373471E-1,-5.850095153E-1,-1.352381706E0
1.931208021E0,-3.815876842E-1,-5.807334781E-1,-1.376205444E0
1.933639427E0,-3.748681545E-1,-5.752356648E-1,-1.400640011E0
1.936070052E0,-3.754790425E-1,-6.112766862E-1,-1.434848547E0
1.938499844E0,-4.243482053E-1,-6.015028358E-1,-1.508152246E0
1.940930521E0,-5.080367327E-1,-5.721813440E-1,-1.575958252E0
1.943361927E0,-5.141453743E-1,-5.758465528E-1,-1.629103422E0
1.945792552E0,-4.933759272E-1,-5.581314564E-1,-1.622994781E0
1.948222344E0,-4.530588686E-1,-5.556880236E-1,-1.599171042E0
1.950653021E0,-4.933759272E-1,-5.220904350E-1,-1.611999273E0
1.953084427E0,-5.019279718E-1,-4.671126008E-1,-1.629714370E0
1.955515052E0,-5.214756727E-1,-4.133564830E-1,-1.624216557E0
1.957944844E0,-5.318603516E-1,-3.418853283E-1,-1.626049161E0
1.960375521E0,-4.988736808E-1,-3.180615902E-1,-1.577790856E0
1.962806927E0,-5.343039036E-1,-2.520882189E-1,-1.497767568E0
1.965237552E0,-5.135344267E-1,-2.044407576E-1,-1.401861787E0
1.967667344E0,-4.811586440E-1,-1.781735718E-1,-1.316951632E0
1.970098021E0,-4.732173979E-1,-1.537389904E-1,-1.260141134E0
1.972529427E0,-4.719956815E-1,-1.409108341E-1,-1.222267509E0
1.974960052E0,-4.225156009E-1,-1.745083928E-1,-1.221045852E0
1.977389844E0,-4.127417803E-1,-1.775627136E-1,-1.204552531E0
1.979820521E0,-3.797550797E-1,-1.971103847E-1,-1.155683279E0
1.982251927E0,-3.803659379E-1,-2.074950784E-1,-1.097040296E0
1.984682552E0,-3.834202588E-1,-2.142145932E-1,-1.023125648E0
1.987112344E0,-3.779225051E-1,-2.197123766E-1,-9.571523666E-1
1.989543021E0,-3.742572963E-1,-1.842822284E-1,-8.807942271E-1
1.991974427E0,-3.540987670E-1,-1.390782297E-1,-8.056578636E-1
1.994405052E0,-3.449358046E-1,-1.183088422E-1,-7.329649925E-1
1.996834844E0,-3.363837004E-1,-1.146436557E-1,-6.938696504E-1
1.999265521E0,-3.394380212E-1,-1.213631630E-1,-6.847066879E-1
2.001696927E0,-3.528770506E-1,-1.390782297E-1,-6.865392923E-1
2.004127552E0,-3.681486547E-1,-1.604585052E-1,-6.963130832E-1
2.006557344E0,-4.054113925E-1,-1.671780050E-1,-7.238020301E-1
2.008988021E0,-4.530588686E-1,-1.702323407E-1,-7.598430514E-1
2.011419427E0,-5.074257851E-1,-1.653454155E-1,-8.044361472E-1
2.013850052E0,-5.679013729E-1,-1.537389904E-1,-8.502510190E-1
2.016279844E0,-6.338747740E-1,-1.323587149E-1,-8.899572492E-1
2.018710521E0,-6.864091158E-1,-1.048698202E-1,-9.217221737E-1
2.021141927E0,-7.310023308E-1,-8.471128345E-2,-9.559305906E-1
2.023572552E0,-7.798714638E-1,-7.310485095E-2,-9.870846868E-1
2.026002344E0,-8.226319551E-1,-6.149841845E-2,-1.004188895E0
2.028433021E0,-8.519535065E-1,-4.072901607E-2,-1.010297537E0
2.030864427E0,-8.641707897E-1,-2.179221250E-2,-1.028623462E0
2.033295052E0,-8.672251701E-1,-8.964052424E-3,-1.051836252E0
2.035724844E0,-8.751664162E-1,5.696700420E-3,-1.077492595E0
2.038155521E0,-8.757772446E-1,1.730312966E-2,-1.115366220E0
2.040586927E0,-8.812750578E-1,3.379647806E-2,-1.149574637E0
2.043017552E0,-8.763880730E-1,6.311798096E-2,-1.189891696E0
2.045447344E0,-8.721120358E-1,9.610467404E-2,-1.222267509E0
2.047878021E0,-8.678359985E-1,1.571911573E-1,-1.243647814E0
2.050309427E0,-8.543969393E-1,2.323275208E-1,-1.269914985E0
2.052740052E0,-8.324058056E-1,3.172377050E-1,-1.287019253E0
2.055169844E0,-8.085820675E-1,4.100891650E-1,-1.315729856E0
2.057600521E0,-7.737628222E-1,5.059948564E-1,-1.335888386E0
2.060031927E0,-7.438304424E-1,5.884616375E-1,-1.354214311E0
2.062462552E0,-7.022916079E-1,6.635980010E-1,-1.390866280E0
2.064892344E0,-6.613637209E-1,7.295713425E-1,-1.411635637E0
2.067322969E0,-6.100510359E-1,7.845491767E-1,-1.430572391E0
2.069754427E0,-5.636253357E-1,8.163141608E-1,-1.451341867E0
2.072185052E0,-5.135344267E-1,8.444139361E-1,-1.476998210E0
2.074614844E0,-4.603892267E-1,8.743463159E-1,-1.503876209E0
2.077045469E0,-4.121309221E-1,8.865635991E-1,-1.516093493E0
2.079476927E0,-3.595965505E-1,8.920614123E-1,-1.519147873E0
2.081907552E0,-3.033969998E-1,9.091656208E-1,-1.514871716E0
2.084337292E0,-2.447539866E-1,9.256589413E-1,-1.500211000E0
2.086767969E0,-1.861109734E-1,9.445957541E-1,-1.480663300E0
2.089199427E0,-1.201375723E-1,9.537587166E-1,-1.451952696E0
2.091630052E0,-6.393802166E-2,9.684194922E-1,-1.423852921E0
2.094059792E0,-7.127605379E-3,9.629216790E-1,-1.382314086E0
2.096490469E0,6.190010905E-2,9.653651714E-1,-1.340775371E0
2.098921927E0,1.126018763E-1,9.305458665E-1,-1.302901745E0
2.101352500E0,1.523080766E-1,8.780115247E-1,-1.260141134E0
2.103782292E0,1.907925606E-1,8.138707280E-1,-1.221656680E0
2.106212969E0,2.201140672E-1,7.338474393E-1,-1.183172226E0
2.108644375E0,2.378291488E-1,6.440503001E-1,-1.139800787E0
2.111075000E0,2.622637153E-1,5.518097281E-1,-1.088488221E0
2.113504792E0,2.787570953E-1,4.497953653E-1,-1.037175536E0
2.115935469E0,2.903635204E-1,3.551113307E-1,-9.931933284E-1
2.118366875E0,3.050242662E-1,2.622599006E-1,-9.406589866E-1
2.120797500E0,3.166306913E-1,1.797931492E-1,-8.887354732E-1
2.123227292E0,3.270153999E-1,9.549381584E-2,-8.319250941E-1
2.125657969E0,3.367892206E-1,2.646609955E-2,-7.812232971E-1
2.128089375E0,3.428978920E-1,-4.133988172E-2,-7.299106717E-1
2.130520000E0,3.459522128E-1,-1.079241410E-1,-6.804305911E-1
2.132949792E0,3.465630710E-1,-1.567933112E-1,-6.364483833E-1
2.135380469E0,3.459522128E-1,-2.148254514E-1,-6.004073620E-1
2.137811875E0,3.459522128E-1,-2.606403232E-1,-5.710858107E-1
2.140242500E0,3.477847874E-1,-2.862966359E-1,-5.552033782E-1
2.142672292E0,3.453413248E-1,-2.856857777E-1,-5.686423779E-1
2.145102969E0,3.386218250E-1,-2.612511814E-1,-5.949095488E-1
2.147534375E0,3.337348998E-1,-2.074950784E-1,-6.395027041E-1
2.149965000E0,3.282371163E-1,-1.372456402E-1,-6.755437255E-1
2.152394792E0,3.184632957E-1,-4.805939272E-2,-7.091412544E-1
2.154825469E0,3.074677289E-1,5.884193256E-2,-7.396845222E-1
2.157256875E0,2.940286994E-1,1.639106721E-1,-7.653408051E-1
2.159687500E0,2.805896997E-1,2.769206464E-1,-7.873319387E-1
2.162117292E0,2.695941329E-1,3.801567852E-1,-8.056578636E-1
2.164547969E0,2.659289241E-1,4.840037823E-1,-8.264272809E-1
2.166979375E0,2.653180659E-1,5.695248246E-1,-8.502510190E-1
2.169410000E0,2.702049613E-1,6.568784714E-1,-8.722421527E-1
2.171839792E0,2.695941329E-1,7.405669093E-1,-8.948441148E-1
2.174270469E0,2.866983414E-1,8.370835781E-1,-9.174461365E-1
2.176701875E0,3.013590574E-1,9.403197169E-1,-9.345503449E-1
2.179132500E0,3.080785871E-1,1.031338573E0,-9.376046658E-1
2.181562292E0,3.086894751E-1,1.109529257E0,-9.290525317E-1
2.183992969E0,3.135763705E-1,1.160841823E0,-9.229438901E-1
2.186424375E0,3.062459826E-1,1.173059106E0,-9.076722860E-1
2.188855000E0,3.038025498E-1,1.140072465E0,-8.948441148E-1
2.191284740E0,2.964721620E-1,1.093035936E0,-8.740747571E-1
2.193715469E0,3.007482290E-1,1.038668871E0,-8.545270562E-1
2.196146875E0,2.946395874E-1,9.610890746E-1,-8.374228477E-1
2.198577500E0,3.312914371E-1,1.003238797E0,-8.148208857E-1
2.201007240E0,2.897526622E-1,9.775824547E-1,-7.897754312E-1
2.203437917E0,3.013590574E-1,9.116090536E-1,-7.598430514E-1
2.205869323E0,2.866983414E-1,8.407487273E-1,-7.256346345E-1
2.208299948E0,2.537116408E-1,7.772188187E-1,-6.773762703E-1
2.210729740E0,2.414943427E-1,7.252953053E-1,-6.352266073E-1
2.213160417E0,2.628746033E-1,7.307931185E-1,-5.955204368E-1
2.215591823E0,2.909743786E-1,7.625580430E-1,-5.570359230E-1
2.218022448E0,3.209067583E-1,7.784405351E-1,-5.142754316E-1
2.220452240E0,3.563368917E-1,8.077620268E-1,-4.910625219E-1
2.222882917E0,3.990974426E-1,8.627398610E-1,-4.916733801E-1
2.225314323E0,4.449122846E-1,9.586456418E-1,-4.831212759E-1
2.227744948E0,5.169943571E-1,1.121135712E0,-4.519671798E-1
2.230174740E0,6.409999132E-1,1.290345192E0,-3.475093246E-1
2.232605417E0,8.981739283E-1,1.342268705E0,-2.314450294E-1
2.235036823E0,1.130302548E0,1.305616856E0,-1.495891660E-1
2.237467448E0,1.173673987E0,1.297675610E0,-1.300414950E-1
2.239897240E0,1.219488740E0,1.265299678E0,-1.184350550E-1
2.242327917E0,1.255529761E0,1.257358432E0,-1.068286225E-1
2.244759323E0,1.285462141E0,1.201158881E0,-7.262019813E-2
2.247189948E0,1.367318034E0,1.067379594E0,8.624805138E-3
2.249619740E0,1.432680607E0,1.012401700E0,6.848955154E-2
2.252050417E0,1.496821404E0,9.830802083E-1,8.803722262E-2
2.254481823E0,1.552410007E0,9.116090536E-1,9.536759555E-2
2.256912448E0,1.548133969E0,8.016533852E-1,6.971128285E-2
2.259342188E0,1.538971066E0,7.350691557E-1,3.611371666E-2
2.261772865E0,1.498654008E0,7.240735888E-1,4.959617741E-3
2.264204323E0,1.523699403E0,7.466756105E-1,-1.642064750E-2
2.266634896E0,1.488880157E0,8.095946312E-1,-1.519891806E-2
2.269064688E0,1.464445591E0,8.719028234E-1,1.905294135E-3
2.271495365E0,1.429015398E0,9.592565298E-1,2.516158856E-3
2.273926771E0,1.373426676E0,1.072266459E0,3.127023578E-3
2.276357396E0,1.367318034E0,1.109529257E0,-2.370758913E-3
2.278787188E0,1.401526451E0,1.143126845E0,-1.580978185E-2
2.281217865E0,1.397250414E0,1.170615673E0,-2.130756527E-2
2.283649271E0,1.423517585E0,1.219484925E0,-2.497275360E-2
2.286079896E0,1.458947778E0,1.280571342E0,-9.090270847E-3
2.288509688E0,1.438789248E0,1.328829646E0,2.633988298E-2
2.290940365E0,1.451617360E0,1.383807540E0,5.382879823E-2
2.293371771E0,1.440621853E0,1.456500411E0,8.925895393E-2
2.295802396E0,1.445508718E0,1.457722068E0,1.277434230E-1
2.298232188E0,1.445508718E0,1.406409502E0,1.833321154E-1
2.300662865E0,1.390530944E0,1.327607989E0,2.578576207E-1
2.303094271E0,1.347770333E0,1.206656694E0,3.323831260E-1
2.305524896E0,1.278131843E0,1.061270952E0,4.154607058E-1
2.307954636E0,1.189556360E0,8.877853155E-1,5.015926361E-1
2.310385313E0,1.093650699E0,6.721500754E-1,6.060504913E-1
2.312816719E0,9.849166870E-1,4.326911569E-1,7.117300630E-1
2.315247344E0,8.774045706E-1,1.773496866E-1,8.094684482E-1
2.317677136E0,7.876074314E-1,-1.238066256E-1,9.114828706E-1
2.320107813E0,6.990320683E-1,-4.084695876E-1,1.020216823E0
2.322539219E0,6.214522123E-1,-6.344895363E-1,1.120398641E0
2.324969844E0,5.224921107E-1,-8.183598518E-1,1.164380908E0
2.327399636E0,4.326950014E-1,-9.967323542E-1,1.181485057E0
2.329830313E0,3.636672795E-1,-1.141507268E0,1.169878721E0
2.332261719E0,3.019699454E-1,-1.236191273E0,1.143611550E0
2.334692344E0,2.494355738E-1,-1.289947391E0,1.106959581E0
2.337122136E0,2.140054256E-1,-1.317436337E0,1.062977314E0
2.339552813E0,1.834621876E-1,-1.305829883E0,1.018384218E0
2.341984219E0,1.767426729E-1,-1.270399690E0,9.719584584E-1
2.344414844E0,1.779644042E-1,-1.225195765E0,9.230892658E-1
2.346844583E0,1.938468814E-1,-1.152502894E0,8.662788272E-1
2.349275261E0,2.182814777E-1,-1.084085941E0,8.204640150E-1
2.351706667E0,2.390508801E-1,-1.009560466E0,7.868664265E-1
2.354137292E0,2.750918865E-1,-9.631347656E-1,7.563232183E-1
2.356567083E0,3.086894751E-1,-9.191524982E-1,7.190604806E-1
2.358997761E0,3.618346751E-1,-9.069352150E-1,6.708021164E-1
2.361429167E0,3.777171671E-1,-8.647855520E-1,6.359828711E-1
2.363859792E0,4.113147259E-1,-8.653964400E-1,6.011635661E-1
2.366289583E0,4.675142765E-1,-9.258720279E-1,5.443531275E-1
2.368720261E0,4.974466562E-1,-1.078588247E0,4.850992858E-1
2.371151667E0,6.275608540E-1,-2.053528309E0,3.879718184E-1
2.373582292E0,6.403889656E-1,-2.626519442E0,1.961602718E-1
2.376012083E0,5.634200573E-1,-2.732809782E0,1.558431983E-1
2.378442761E0,4.870619476E-1,-2.868421793E0,1.631735712E-1
2.380874167E0,3.618346751E-1,-3.057789803E0,1.790560633E-1
2.383304792E0,2.897526622E-1,-3.186682463E0,2.071558386E-1
2.385734531E0,2.274444401E-1,-3.291140318E0,2.285360992E-1
2.388165208E0,2.036207169E-1,-3.406593561E0,2.395316660E-1
2.390596615E0,1.999555379E-1,-3.491503954E0,2.590793371E-1
2.393027240E0,2.030098587E-1,-3.504332066E0,3.012290299E-1
2.395457031E0,2.115619630E-1,-3.460960627E0,3.617046177E-1
2.397887708E0,2.140054256E-1,-3.414534807E0,4.148498476E-1
2.400319115E0,2.262227237E-1,-3.374828577E0,4.649407566E-1
2.402749740E0,2.421052009E-1,-3.381548166E0,5.107555985E-1
2.405179531E0,2.604311407E-1,-3.415145874E0,5.535160899E-1
2.407610208E0,2.616528869E-1,-3.446299791E0,5.761181116E-1
2.410041615E0,2.750918865E-1,-3.498223305E0,5.846702456E-1
2.412472240E0,3.068568707E-1,-3.588631392E0,5.852810740E-1
2.414901979E0,3.459522128E-1,-3.625894070E0,5.901679993E-1
2.417332656E0,4.296406806E-1,-3.633835316E0,5.889462829E-1
2.419764115E0,4.943923354E-1,-3.629559278E0,5.645116568E-1
2.422194740E0,5.652526617E-1,-3.542205572E0,5.223619938E-1
2.424624479E0,6.501628160E-1,-3.445688963E0,5.009817481E-1
2.427055156E0,7.295752764E-1,-3.293583632E0,4.533343315E-1
2.429486563E0,8.291461468E-1,-3.099939585E0,3.647589386E-1
2.431917188E0,9.036717415E-1,-2.856815338E0,2.694640458E-1
2.434346979E0,9.464322329E-1,-2.573985100E0,1.619518399E-1
2.436777656E0,1.010573030E0,-2.270385265E0,4.527668655E-2
2.439209063E0,1.081433415E0,-1.981446266E0,-7.811798155E-2
2.441639688E0,1.133967757E0,-1.693728924E0,-1.978474706E-1
2.444069479E0,1.207882404E0,-1.404789925E0,-3.169660866E-1
2.446500104E0,1.280575275E0,-1.129289985E0,-4.043197334E-1
2.448931563E0,1.356933355E0,-8.825006485E-1,-4.745691717E-1
2.451362136E0,1.441843510E0,-5.220904350E-1,-5.136645436E-1
2.453791927E0,1.468110681E0,-2.869074941E-1,-5.429860353E-1
2.456222604E0,1.501708269E0,-2.191015184E-1,-5.857465863E-1
2.458654011E0,1.498654008E0,-9.815030545E-2,-5.924661160E-1
2.461084636E0,1.548133969E0,3.013128974E-2,-5.820813775E-1
2.463514427E0,1.596392274E0,1.382543445E-1,-5.594794154E-1
2.465945104E0,1.648315787E0,2.494317293E-1,-5.576468110E-1
2.468376511E0,1.788814664E0,2.494317293E-1,-5.796379447E-1
2.470807136E0,1.909155011E0,2.408796251E-1,-6.242310405E-1
2.473236927E0,2.110740185E0,1.761279702E-1,-7.054760456E-1
2.475667604E0,2.241465330E0,1.278696507E-1,-7.824450135E-1
2.478099011E0,2.383185863E0,1.077111065E-1,-8.307033181E-1
2.480529636E0,2.428390026E0,4.234858602E-2,-8.551379442E-1
2.482959375E0,2.460765839E0,-2.032190263E-1,-8.508618474E-1
2.485390052E0,2.412507534E0,-4.933797717E-1,-8.343685269E-1
2.487821458E0,2.490698099E0,-7.365039587E-1,-8.514727354E-1
2.490252083E0,2.405177116E0,-6.992412210E-1,-9.327177405E-1
2.492681875E0,2.243908882E0,-6.167744994E-1,-1.063442707E0
2.495112552E0,2.023997545E0,-3.779263496E-1,-1.243036985E0
2.497543958E0,1.821190476E0,-2.240307815E-2,-1.451341867E0
2.499974583E0,1.593948841E0,2.567621171E-1,-1.703629017E0
2.502404375E0,1.379535317E0,6.025115252E-1,-1.942477107E0
2.504835052E0,1.176117420E0,1.049664497E0,-2.130623579E0
2.507266458E0,1.036229372E0,1.438785315E0,-2.250963926E0
2.509697083E0,9.953013659E-1,1.645257592E0,-2.295557022E0
2.512126823E0,1.000799179E0,1.772317410E0,-2.302276611E0
2.514557500E0,9.971339703E-1,1.870666623E0,-2.284561396E0
2.516988906E0,9.659799337E-1,1.985509276E0,-2.252185583E0
2.519419531E0,9.128346443E-1,2.101573467E0,-2.192320824E0
2.521849323E0,8.493046761E-1,2.178542376E0,-2.152614594E0
2.524280000E0,7.869964838E-1,2.237796307E0,-2.143451691E0
2.526711406E0,7.051407099E-1,2.295828581E0,-2.141619205E0
2.529142031E0,6.703213453E-1,2.307435036E0,-2.145895243E0
2.531571823E0,6.147326231E-1,2.297661066E0,-2.131845236E0
2.534002500E0,5.744155645E-1,2.272004843E0,-2.119627953E0
2.536433906E0,5.450941324E-1,2.245126724E0,-2.117795467E0
2.538864531E0,4.998901188E-1,2.280556917E0,-2.084197760E0
2.541294271E0,5.084422231E-1,2.240850687E0,-1.973631144E0
2.543724948E0,5.560896397E-1,2.123564720E0,-1.808697701E0
2.546156354E0,6.306151152E-1,1.995893955E0,-1.612610102E0
2.548586979E0,7.002537251E-1,1.920146704E0,-1.395142317E0
2.551016771E0,8.041007519E-1,1.801028132E0,-1.166678905E0
2.553447448E0,8.993955851E-1,1.644035816E0,-9.663153291E-1
2.555878854E0,9.971339703E-1,1.476048112E0,-7.928297520E-1
2.558309479E0,1.052722692E0,1.328829646E0,-6.346157789E-1
2.560739219E0,1.093039751E0,1.234145641E0,-4.996146262E-1
2.563169896E0,1.103424430E0,1.165117860E0,-3.768308163E-1
2.565601354E0,1.086320281E0,1.119303107E0,-2.589339316E-1
2.568031927E0,1.058831334E0,1.078986049E0,-1.410370618E-1
2.570461719E0,1.029509783E0,1.035003781E0,-4.085523635E-2
2.572892396E0,9.861384630E-1,9.879671335E-1,5.260706693E-2
2.575323802E0,9.537626505E-1,9.244372249E-1,1.185804531E-1
2.577754427E0,9.287171364E-1,8.743463159E-1,1.564540565E-1
2.580184219E0,9.103912115E-1,8.462465405E-1,1.796669215E-1
2.582614896E0,8.829022646E-1,8.065403104E-1,1.876081675E-1
2.585046302E0,8.444178104E-1,7.631689310E-1,1.784451902E-1
2.587476927E0,8.138746023E-1,7.326257229E-1,1.485128254E-1
2.589906667E0,8.034899235E-1,6.739826798E-1,1.033088416E-1
2.592337344E0,8.028789759E-1,6.104527712E-1,5.688311905E-2
2.594768750E0,8.053225279E-1,5.127143860E-1,9.235670790E-3
2.597199375E0,8.034899235E-1,4.100891650E-1,-4.940734059E-2
2.599629167E0,8.108202219E-1,2.811966836E-1,-1.037743017E-1
2.602059844E0,7.992138863E-1,1.461955905E-1,-1.599738598E-1
2.604491250E0,7.643945217E-1,2.157918178E-2,-2.137299627E-1
2.606921875E0,7.393491268E-1,-1.005937606E-1,-2.638208568E-1
2.609351667E0,6.910908222E-1,-2.105493993E-1,-3.102465570E-1
2.611782292E0,6.464976072E-1,-3.412744701E-1,-3.310159743E-1
2.614213750E0,5.951850414E-1,-4.909363091E-1,-3.389572203E-1
2.616644323E0,5.304333568E-1,-6.644219160E-1,-3.371246159E-1
2.619074115E0,4.186451137E-1,-8.446270227E-1,-3.407897949E-1
2.621504792E0,3.147981167E-1,-9.845150113E-1,-3.725547791E-1
2.623936198E0,1.981229484E-1,-1.093248963E0,-4.330303669E-1
2.626366823E0,7.289567590E-2,-1.209313273E0,-5.057232976E-1
2.628796615E0,-5.477505922E-2,-1.303997278E0,-5.839139819E-1
2.631227292E0,-1.891652942E-1,-1.396848679E0,-6.792088747E-1
2.633658698E0,-3.333293796E-1,-1.471985102E0,-7.842776179E-1
2.636089323E0,-4.982628524E-1,-1.465265632E0,-8.954550028E-1
2.638519063E0,-6.570876837E-1,-1.408455133E0,-1.019460440E0
2.640949740E0,-8.091930151E-1,-1.404179096E0,-1.123307467E0
2.643381146E0,-9.594656229E-1,-1.354088187E0,-1.202108979E0
2.645811771E0,-1.090801597E0,-1.296056032E0,-1.265638947E0
2.648241563E0,-1.212974548E0,-1.252684593E0,-1.315729856E0
2.650672240E0,-1.314378023E0,-1.218476176E0,-1.359712124E0
2.653103646E0,-1.409672976E0,-1.197095990E0,-1.398807526E0
2.655534271E0,-1.484809279E0,-1.161054969E0,-1.423852921E0
2.657964011E0,-1.541619778E0,-1.112796664E0,-1.426907301E0
2.660394688E0,-1.560556531E0,-1.059040546E0,-1.422631145E0
2.662826094E0,-1.549561024E0,-9.863476157E-1,-1.417744279E0
2.665256719E0,-1.521461248E0,-9.332023859E-1,-1.407970428E0
2.667686511E0,-1.481144190E0,-8.965505362E-1,-1.404916167E0
2.670117188E0,-1.429831505E0,-8.794463277E-1,-1.408581257E0
2.672548594E0,-1.393790483E0,-8.983831406E-1,-1.411635637E0
2.674979219E0,-1.363858104E0,-9.716868997E-1,-1.414079070E0
2.677408958E0,-1.344921350E0,-1.076755643E0,-1.398196578E0
2.679839636E0,-1.315599799E0,-1.164109230E0,-1.360933900E0
2.682271042E0,-1.275893569E0,-1.241689086E0,-1.307177782E0
2.684701667E0,-1.222137451E0,-1.318657994E0,-1.241204381E0
2.687131458E0,-1.156774998E0,-1.393183589E0,-1.169122338E0
2.689562136E0,-1.078584313E0,-1.480537176E0,-1.088488221E0
2.691993542E0,-1.007724047E0,-1.526352048E0,-1.012740970E0
2.694424167E0,-9.289224148E-1,-1.533682466E0,-9.467676282E-1
2.696853958E0,-8.586729765E-1,-1.558727860E0,-8.942332864E-1
2.699284636E0,-7.945321798E-1,-1.576442957E0,-8.533053398E-1
2.701716042E0,-7.175632715E-1,-1.552008390E0,-8.197077513E-1
2.704146615E0,-6.405943632E-1,-1.493365407E0,-7.916079760E-1
2.706576406E0,-5.489646196E-1,-1.388907433E0,-7.610647678E-1
2.709007083E0,-4.548914731E-1,-1.315603733E0,-7.366302013E-1
2.711438490E0,-3.534879088E-1,-1.214811087E0,-7.018108964E-1
2.713869115E0,-2.447539866E-1,-1.096303225E0,-6.633263826E-1
2.716298906E0,-1.274679601E-1,-8.910527229E-1,-6.199550033E-1
2.718729583E0,-1.751230657E-2,-7.646037340E-1,-5.747510195E-1
2.721160990E0,8.694556355E-2,-6.063897610E-1,-5.167188644E-1
2.723591615E0,1.797969937E-1,-4.634473920E-1,-4.531889260E-1
2.726021354E0,2.616528869E-1,-3.632655740E-1,-3.884372413E-1
2.728452031E0,3.325131834E-1,-2.936269939E-1,-3.175769448E-1
2.730883438E0,3.972648382E-1,-2.203232348E-1,-2.503818274E-1
2.733314063E0,4.675142765E-1,-1.409108341E-1,-1.996800750E-1
2.735743854E0,5.353202820E-1,-4.683766514E-2,-1.520326287E-1
2.738174531E0,6.092349291E-1,4.295944795E-2,-1.184350550E-1
2.740605938E0,6.788734198E-1,1.156523451E-1,-9.094614536E-2
2.743036563E0,7.472903728E-1,1.773496866E-1,-6.651155651E-2
2.745466302E0,8.187614679E-1,2.475991249E-1,-4.268783331E-2
2.747896979E0,8.890109062E-1,3.044095635E-1,-2.741621248E-2
2.750328386E0,9.549843073E-1,3.502244055E-1,-6.035947241E-3
2.752759011E0,1.021568537E0,3.942066729E-1,1.167912968E-2
2.755188802E0,1.078989863E0,4.485736191E-1,2.878334187E-2
2.757619479E0,1.127859116E0,4.540714025E-1,4.222236574E-2
2.760050886E0,1.164510965E0,4.479627609E-1,5.443966389E-2
2.762481511E0,1.196886778E0,4.675104320E-1,6.482436508E-2
2.764911250E0,1.233538628E0,4.882798493E-1,7.581992447E-2
2.767341927E0,1.273855686E0,5.292077661E-1,8.681549132E-2
2.769773333E0,1.307453275E0,5.395924449E-1,9.109154344E-2
2.772203958E0,1.330055356E0,5.218773484E-1,9.170240909E-2
2.774633750E0,1.353878975E0,4.980536997E-1,7.765252143E-2
2.777064427E0,1.385033131E0,4.662887156E-1,5.321793258E-2
2.779495833E0,1.432680607E0,4.998862445E-1,1.717691310E-2
2.781926406E0,1.502930045E0,5.799095035E-1,-4.085523635E-2
2.784356198E0,1.576844692E0,6.190048456E-1,-1.007199809E-1
2.786786875E0,1.630600691E0,6.122853160E-1,-1.532543451E-1
2.789218281E0,1.662365675E0,6.147288084E-1,-1.856301874E-1
2.791648906E0,1.678248167E0,6.898651719E-1,-1.996800750E-1
2.794078698E0,1.681302547E0,7.955447435E-1,-1.990692019E-1
2.796509375E0,1.677637339E0,9.421523213E-1,-1.819649935E-1
2.798940781E0,1.654424429E0,1.073488235E0,-1.556978077E-1
2.801371406E0,1.607387900E0,1.189552546E0,-1.214893758E-1
2.803801146E0,1.548133969E0,1.322110176E0,-7.995057851E-2
2.806231823E0,1.475441098E0,1.456500411E0,-4.390955716E-2
2.808663229E0,1.385033131E0,1.601275325E0,-1.092286501E-2
2.811093854E0,1.286073089E0,1.732000351E0,1.290085912E-2
2.813523646E0,1.181004286E0,1.836458206E0,2.756161056E-2
2.815954323E0,1.072270393E0,1.937250972E0,2.206383087E-2
2.818385729E0,9.372692108E-1,2.012387276E0,1.167912968E-2
2.820816354E0,7.961595058E-1,2.055758715E0,4.348753020E-3
2.823246094E0,6.581040621E-1,2.096075773E0,-9.090270847E-3
2.825676771E0,4.778989851E-1,2.121121168E0,-1.703151315E-2
2.828108177E0,3.300697207E-1,2.118677855E0,-2.619448304E-2
2.830538802E0,1.474211663E-1,2.113179922E0,-2.558361739E-2
2.832968594E0,-1.934489608E-2,2.085690975E0,-2.252929471E-2
2.835399271E0,-1.989391148E-1,2.066754341E0,-1.458805334E-2
2.837830677E0,-3.944158256E-1,2.014219761E0,-1.092286501E-2
2.840261250E0,-6.131054163E-1,1.929920554E0,-1.759894192E-3
2.842691042E0,-8.189668655E-1,1.796752095E0,-6.035947241E-3
2.845121719E0,-1.043764949E0,1.601275325E0,-1.336632390E-2
2.847553125E0,-1.227024436E0,1.350209951E0,-1.947497204E-2
2.849983750E0,-1.440827131E0,1.062492609E0,-9.701135568E-3
2.852413542E0,-1.655851483E0,7.955447435E-1,8.624805138E-3
2.854844219E0,-1.840332627E0,4.827820659E-1,2.511815540E-2
2.857275625E0,-2.033976793E0,1.852909327E-1,6.177003682E-2
2.859706250E0,-2.210516691E0,-1.633676235E-3,1.020871103E-1
2.862135990E0,-2.365065575E0,-1.024263576E-1,1.790560633E-1
2.864566667E0,-2.508007765E0,-1.250283420E-1,2.810704708E-1
2.866998073E0,-2.644841671E0,-1.665671468E-1,3.727001846E-1
2.869428698E0,-2.748077631E0,-1.787844449E-1,4.710493982E-1
2.871858490E0,-2.826879263E0,-1.824496239E-1,5.577921867E-1
2.874289167E0,-2.877581120E0,-2.184906453E-1,6.524761915E-1
2.876720521E0,-2.906902552E0,-1.549607217E-1,7.862555981E-1
2.879151146E0,-2.921563387E0,-9.326338768E-2,9.377500415E-1
2.881580938E0,-2.779842615E0,6.006366387E-2,1.078248978E0
2.884011615E0,-2.635678530E0,2.744771838E-1,1.147276640E0
2.886443021E0,-2.609411478E0,5.194339156E-1,1.184539437E0
2.888873646E0,-2.512283802E0,7.167432308E-1,1.180874228E0
2.891303438E0,-2.409658670E0,9.946866632E-1,1.185150266E0
2.893734063E0,-2.261829376E0,1.298286438E0,1.156439662E0
2.896165469E0,-2.121941328E0,1.607383966E0,1.108181357E0
2.898596094E0,-1.904473424E0,2.014830828E0,1.048927426E0
2.901025886E0,-1.639358163E0,2.494359493E0,1.000058293E0
2.903456563E0,-1.495804906E0,2.964725494E0,9.273653030E-1
2.905887969E0,-1.433496714E0,3.265881777E0,8.113010526E-1
2.908318594E0,-1.427388072E0,3.433869600E0,7.141735554E-1
2.910748333E0,-1.459153056E0,3.534662247E0,6.439241171E-1
2.913179011E0,-1.423722863E0,3.468688726E0,6.433132291E-1
2.915610417E0,-1.441437960E0,3.448530197E0,7.361646891E-1
2.918041042E0,-1.523293853E0,3.325135469E0,9.114828706E-1
2.920470833E0,-1.514741659E0,3.016648769E0,1.099629283E0
2.922901511E0,-1.596597552E0,2.632415056E0,1.271893144E0
2.925332917E0,-1.629584312E0,2.138225317E0,1.457595944E0
2.927763542E0,-1.651575446E0,1.653198838E0,1.596873164E0
2.930193281E0,-1.698001146E0,1.115026951E0,1.656737804E0
2.932623958E0,-1.774359226E0,6.067875624E-1,1.706828713E0
2.935055365E0,-1.746870279E0,1.229827181E-1,1.722100377E0
2.937485990E0,-1.662570953E0,-2.777445316E-1,1.720878601E0
2.939915781E0,-1.539787173E0,-4.988775551E-1,1.668955207E0
2.942346458E0,-1.447546601E0,-4.646691382E-1,1.561442971E0
2.944777865E0,-1.316210628E0,-1.922234595E-1,1.358635902E0
2.947208438E0,-1.164105415E0,2.201102227E-1,1.043429732E0
2.949638229E0,-9.784024954E-1,6.916977763E-1,6.188786626E-1
2.952068906E0,-7.804822922E-1,1.169394016E0,1.460693628E-1
2.954500313E0,-5.330821276E-1,1.549962640E0,-2.845902443E-1
2.956930938E0,-2.783515453E-1,1.791254282E0,-5.833031535E-1
2.959360729E0,-5.538591743E-2,1.808358431E0,-7.005891800E-1
2.961791354E0,1.675797105E-1,1.612881780E0,-6.993674040E-1
2.964222761E0,4.216994345E-1,1.293399453E0,-6.853175163E-1
2.966653386E0,6.984211206E-1,9.085547328E-1,-6.895936131E-1
2.969083177E0,9.653689861E-1,4.913341701E-1,-6.975348592E-1
2.971513854E0,1.181615114E0,1.077111065E-1,-6.834849715E-1
2.973945261E0,1.324557543E0,-2.038298994E-1,-6.553851962E-1
2.976375886E0,1.388698339E0,-4.353476167E-1,-6.217876077E-1
2.978805625E0,1.408246040E0,-6.002811193E-1,-5.936878324E-1
2.981236302E0,1.351435542E0,-7.334496379E-1,-5.826922655E-1
2.983667708E0,1.300122976E0,-8.482922316E-1,-5.912443995E-1
2.986098333E0,1.251253724E0,-9.454196692E-1,-6.187332869E-1
2.988528125E0,1.186502099E0,-1.017501712E0,-6.480547786E-1
2.990958802E0,1.120528698E0,-1.066981792E0,-6.669915915E-1
2.993390208E0,1.048446655E0,-1.087751150E0,-6.822631955E-1
2.995820781E0,9.672015905E-1,-1.077366471E0,-6.963130832E-1
2.998250573E0,8.706849813E-1,-1.036438584E0,-7.060869336E-1
3.000681250E0,7.723357677E-1,-9.784063697E-1,-7.036435008E-1
3.003112656E0,6.629910469E-1,-9.130438566E-1,-6.957022548E-1
3.005543281E0,5.603656769E-1,-8.525682688E-1,-6.785980463E-1
3.007973073E0,4.546861351E-1,-7.945361137E-1,-6.608829498E-1
3.010403698E0,3.618346751E-1,-7.481104136E-1,-6.370592117E-1
3.012835156E0,2.732592821E-1,-7.224540710E-1,-6.236202121E-1
3.015265729E0,1.901817024E-1,-7.090150714E-1,-6.248419285E-1
3.017695521E0,1.144344732E-1,-7.224540710E-1,-6.370592117E-1
3.020126198E0,4.540675879E-2,-7.432234883E-1,-6.480547786E-1
3.022557604E0,-3.034046292E-2,-7.609385252E-1,-6.645481586E-1
3.024988229E0,-9.692472219E-2,-7.878165841E-1,-6.944804788E-1
3.027418021E0,-1.574003249E-1,-8.201924562E-1,-7.244128585E-1
3.029848646E0,-1.879435480E-1,-8.550117016E-1,-7.470148802E-1
3.032280052E0,-2.313149571E-1,-8.629529476E-1,-7.690060139E-1
3.034710677E0,-2.520843446E-1,-8.806680441E-1,-7.958840728E-1
3.037140469E0,-2.655233741E-1,-8.879984021E-1,-8.184860349E-1
3.039571146E0,-2.795732617E-1,-8.843332529E-1,-8.349794149E-1
3.042002552E0,-2.594147325E-1,-8.879984021E-1,-8.526944518E-1
3.044433177E0,-2.643016577E-1,-8.751702309E-1,-8.673552275E-1
3.046862917E0,-2.478083074E-1,-8.898310065E-1,-8.972876072E-1
3.049293594E0,-2.209302485E-1,-9.093786478E-1,-9.247764945E-1
3.051725000E0,-2.050477862E-1,-9.270937443E-1,-9.492111206E-1
3.054155625E0,-1.702284813E-1,-9.533609152E-1,-9.773108959E-1
3.056585417E0,-1.360200644E-1,-9.820715785E-1,-1.002356291E0
3.059016094E0,-1.024225056E-1,-1.005895257E0,-1.025569081E0
3.061447500E0,-7.310099900E-2,-1.021777749E0,-1.040840745E0
3.063878073E0,-4.072516412E-2,-1.041936278E0,-1.056112409E0
3.066307865E0,-1.812317222E-2,-1.048655868E0,-1.059166670E0
3.068738542E0,-4.073284566E-3,-1.051099300E0,-1.061610103E0
3.071169948E0,4.478827119E-3,-1.052321076E0,-1.064053655E0
3.073600573E0,1.180920005E-2,-1.055375338E0,-1.062831879E0
3.076030365E0,2.097216994E-2,-1.054764509E0,-1.057945013E0
3.078460990E0,2.585908771E-2,-1.043768883E0,-1.045116782E0
3.080892396E0,2.402649447E-2,-1.031551600E0,-1.024958253E0
3.083323021E0,1.119833440E-2,-1.022388697E0,-1.001745462E0
3.085752813E0,5.700550973E-3,-1.012614846E0,-9.797543287E-1
3.088183490E0,-6.516739726E-3,-1.003451824E0,-9.492111206E-1
3.090614896E0,-1.995576173E-2,-9.961214662E-1,-9.125592113E-1
3.093045521E0,-3.339479119E-2,-9.796281457E-1,-8.759073019E-1
3.095475261E0,-5.905111134E-2,-9.576370120E-1,-8.276489973E-1
3.097905938E0,-7.187926769E-2,-9.374784827E-1,-7.854993343E-1
3.100337344E0,-8.898347616E-2,-9.154873490E-1,-7.439605594E-1
3.102767969E0,-9.875731170E-2,-8.831114769E-1,-7.048652172E-1
3.105197761E0,-1.176941246E-1,-8.440161347E-1,-6.608829498E-1
3.107628438E0,-1.366309226E-1,-7.920926213E-1,-6.114029288E-1
3.110059844E0,-1.555677354E-1,-7.420017719E-1,-5.576468110E-1
3.112490417E0,-1.745045483E-1,-6.894673705E-1,-5.099993348E-1
3.114920208E0,-1.879435480E-1,-6.351004243E-1,-4.635736048E-1
3.117350886E0,-2.093238235E-1,-5.672944188E-1,-4.104283750E-1
3.119782292E0,-2.221519947E-1,-4.994884133E-1,-3.560614288E-1
3.122212917E0,-2.160433531E-1,-4.493975043E-1,-3.071922362E-1
3.124642656E0,-1.806131899E-1,-4.157999456E-1,-2.882554531E-1
3.127073333E0,-1.396852434E-1,-3.809806705E-1,-2.711512148E-1
3.129504740E0,-1.097528785E-1,-3.315006196E-1,-2.430514693E-1
3.131935365E0,-9.081606567E-2,-2.685815394E-1,-2.015126646E-1
3.134365156E0,-6.699234247E-2,-2.142145932E-1,-1.673042327E-1
3.136795833E0,-6.454889476E-2,-1.305261254E-1,-1.294306219E-1
3.139227240E0,-5.110986531E-2,-7.615917176E-2,-9.766565263E-2
3.141657813E0,-2.362095565E-2,-5.294631049E-2,-7.811798155E-2
3.144087604E0,5.089685321E-3,-4.622679949E-2,-6.223550439E-2
3.146518281E0,3.380033001E-2,-3.645296395E-2,-5.185080320E-2
3.148949688E0,5.762405694E-2,-2.851172350E-2,-3.657918423E-2
3.151380313E0,7.411739975E-2,-1.262924075E-2,-1.764237694E-2
3.153810052E0,9.916285425E-2,-1.079664752E-2,-1.092286501E-2
3.156240729E0,1.028280407E-1,7.529294584E-3,-6.035947241E-3
3.158672136E0,1.138236076E-1,1.669226401E-2,-5.381647497E-4
3.161102761E0,1.211539879E-1,2.219004743E-2,-2.981623635E-3
3.163532552E0,1.260409057E-1,2.463350631E-2,-4.203353077E-3
3.165963229E0,1.321495473E-1,2.035745420E-2,-1.275545917E-2
3.168394636E0,1.303169578E-1,5.696700420E-3,-1.886410639E-2
3.170825261E0,1.321495473E-1,-5.909729283E-3,-3.047053702E-2
3.173255000E0,1.199322566E-1,-1.629442908E-2,-4.024437070E-2
3.175685677E0,1.199322566E-1,-3.034431860E-2,-4.879647493E-2
3.178117083E0,1.162670702E-1,-3.950728849E-2,-5.673772097E-2
3.180547708E0,1.119910181E-1,-4.867025837E-2,-6.651155651E-2
3.182977500E0,1.064932346E-1,-5.783322826E-2,-7.811798155E-2
3.185408125E0,1.071040928E-1,-6.333101541E-2,-9.033527970E-2
3.187839583E0,1.138236076E-1,-7.615917176E-2,-1.007199809E-1
3.190270156E0,1.174888015E-1,-9.143079072E-2,-1.104938164E-1
3.192699948E0,1.199322566E-1,-9.876117110E-2,-1.208785102E-1
3.195130625E0,1.284843683E-1,-1.115893275E-1,-1.233219728E-1
3.197562031E0,1.413125247E-1,-1.384673715E-1,-1.208785102E-1
3.199992656E0,1.602493227E-1,-1.745083928E-1,-1.178241894E-1
3.202422396E0,1.645253897E-1,-2.032190263E-1,-1.184350550E-1
3.204853073E0,1.675797105E-1,-2.288753539E-1,-1.196567863E-1
3.207284479E0,1.669688374E-1,-2.636946440E-1,-1.294306219E-1
3.209715104E0,1.578058600E-1,-2.924052775E-1,-1.330958158E-1
3.212144896E0,1.523080766E-1,-3.223376572E-1,-1.324849427E-1
3.214575573E0,1.358147413E-1,-3.486048281E-1,-1.349284053E-1
3.217006979E0,1.229865849E-1,-3.748720288E-1,-1.416479200E-1
3.219437552E0,1.187105253E-1,-3.993065953E-1,-1.447022408E-1
3.221867344E0,1.107692868E-1,-4.054152668E-1,-1.245437041E-1
3.224298021E0,1.089366898E-1,-4.078586996E-1,-9.461133182E-2
3.226729427E0,9.061075002E-2,-3.492156863E-1,-5.123993754E-2
3.229160052E0,6.984134763E-2,-3.046225607E-1,-3.291399777E-2
3.231589792E0,5.273713917E-2,-2.795771062E-1,-4.268783331E-2
3.234020469E0,4.601762444E-2,-2.844640315E-1,-6.956587732E-2
3.236451875E0,4.174157232E-2,-3.058443069E-1,-9.949824959E-2
3.238882500E0,4.296330363E-2,-3.308897614E-1,-1.196567863E-1
3.241312292E0,4.540675879E-2,-3.583786786E-1,-1.318740845E-1
3.243742969E0,4.662849009E-2,-3.724285662E-1,-1.416479200E-1
3.246174375E0,5.151540786E-2,-3.883110285E-1,-1.459239721E-1
3.248604948E0,5.334800109E-2,-3.968631327E-1,-1.532543451E-1
3.251034740E0,5.518059433E-2,-4.017500579E-1,-1.599738598E-1
3.253465417E0,6.006751209E-2,-4.096913040E-1,-1.673042327E-1
3.255896823E0,6.312184036E-2,-4.060261250E-1,-1.709694266E-1
3.258327448E0,6.312184036E-2,-4.054152668E-1,-1.715802997E-1
3.260757188E0,6.617616117E-2,-4.041935205E-1,-1.746346205E-1
3.263187865E0,6.984134763E-2,-4.078586996E-1,-1.691368371E-1
3.265619271E0,6.984134763E-2,-4.090804458E-1,-1.685259640E-1
3.268049896E0,7.289567590E-2,-4.145782292E-1,-1.679151058E-1
3.270479688E0,7.106307894E-2,-4.212977290E-1,-1.599738598E-1
3.272910365E0,7.045221329E-2,-4.249629080E-1,-1.538652182E-1
3.275341771E0,7.045221329E-2,-4.274063706E-1,-1.477565616E-1
3.277772396E0,6.739789248E-2,-4.316824377E-1,-1.440913826E-1
3.280202136E0,6.373269856E-2,-4.322932959E-1,-1.410370618E-1
3.282632813E0,6.006751209E-2,-4.347367585E-1,-1.324849427E-1
3.285064219E0,5.762405694E-2,-4.347367585E-1,-1.269871593E-1
3.287494844E0,5.701319128E-2,-4.359584749E-1,-1.233219728E-1
3.289924583E0,5.273713917E-2,-4.341259003E-1,-1.190459207E-1
3.292355261E0,4.907194898E-2,-4.335150421E-1,-1.159915924E-1
3.294786667E0,4.418503121E-2,-4.292389750E-1,-1.141590029E-1
3.297217292E0,4.235243797E-2,-4.267955124E-1,-1.098829508E-1
3.299647083E0,4.174157232E-2,-4.280172586E-1,-1.062177569E-1
3.302077761E0,3.685465455E-2,-4.267955124E-1,-1.080503538E-1
3.304509167E0,3.685465455E-2,-4.267955124E-1,-1.049960330E-1
3.306939792E0,3.685465455E-2,-4.243520498E-1,-1.062177569E-1
3.309369531E0,3.807638586E-2,-4.249629080E-1,-1.080503538E-1
3.311800208E0,4.357416555E-2,-4.280172586E-1,-1.123264059E-1
3.314231615E0,4.968281463E-2,-4.322932959E-1,-1.159915924E-1
3.316662240E0,5.395886675E-2,-4.384019375E-1,-1.221002415E-1
3.319091979E0,5.579145998E-2,-4.420671463E-1,-1.275980324E-1
3.321522656E0,6.251097471E-2,-4.561170340E-1,-1.367610097E-1
3.323954063E0,6.678702682E-2,-4.744429588E-1,-1.526434869E-1
3.326384688E0,7.045221329E-2,-5.007101893E-1,-1.666933745E-1
3.328814479E0,7.411739975E-2,-5.306425691E-1,-1.825758517E-1
3.331245156E0,7.839345932E-2,-5.648509860E-1,-2.033452541E-1
3.333676563E0,7.717172801E-2,-6.027246118E-1,-2.271689773E-1
3.336107136E0,7.594999671E-2,-6.442633867E-1,-2.509926856E-1
3.338536927E0,7.228481025E-2,-6.833587289E-1,-2.748164237E-1
3.340967604E0,6.617616117E-2,-7.175671458E-1,-3.016944528E-1
3.343399011E0,5.762405694E-2,-7.529972792E-1,-3.310159743E-1
3.345829636E0,5.151540786E-2,-7.920926213E-1,-3.633917868E-1
3.348259427E0,3.624378890E-2,-8.238576055E-1,-3.921024501E-1
3.350690052E0,2.585908771E-2,-8.507356644E-1,-4.202022254E-1
3.353121458E0,1.119833440E-2,-8.794463277E-1,-4.495237172E-1
3.355552083E0,2.027750015E-4,-9.032700062E-1,-4.745691717E-1
3.357981875E0,-1.506884396E-2,-9.179307818E-1,-4.965603054E-1
3.360412552E0,-2.239922434E-2,-9.270937443E-1,-5.209949017E-1
3.362843958E0,-3.461651504E-2,-9.368675947E-1,-5.411534905E-1
3.365274531E0,-4.194689542E-2,-9.472522736E-1,-5.619228482E-1
3.367704323E0,-5.110986531E-2,-9.576370120E-1,-5.771945119E-1
3.370135000E0,-5.721850693E-2,-9.576370120E-1,-5.918552279E-1
3.372566406E0,-6.088370085E-2,-9.533609152E-1,-6.016290784E-1
3.374997031E0,-5.905111134E-2,-9.472522736E-1,-6.144572496E-1
3.377426823E0,-6.271629035E-2,-9.344241023E-1,-6.199550033E-1
3.379857448E0,-5.966196954E-2,-9.185416698E-1,-6.236202121E-1
3.382288854E0,-5.416418612E-2,-8.971613646E-1,-6.242310405E-1
3.384719479E0,-4.439035058E-2,-8.770028353E-1,-6.242310405E-1
3.387149271E0,-3.583824635E-2,-8.495139480E-1,-6.242310405E-1
3.389579948E0,-2.606441081E-2,-8.269119263E-1,-6.169006824E-1
3.392011354E0,-1.262538880E-2,-8.030881882E-1,-6.101811528E-1
3.394441927E0,-4.080906510E-4,-7.810971141E-1,-6.022399068E-1
3.396871719E0,1.364179701E-2,-7.591059804E-1,-5.930769444E-1
3.399302396E0,2.830255032E-2,-7.377256751E-1,-5.826922655E-1
3.401733802E0,4.540675879E-2,-7.206214666E-1,-5.698640943E-1
3.404164427E0,6.006751209E-2,-6.992412210E-1,-5.564250946E-1
3.406594167E0,7.350653410E-2,-6.815261245E-1,-5.429860353E-1
3.409024844E0,9.244334698E-2,-6.699197292E-1,-5.295470357E-1
3.411456250E0,1.089366898E-1,-6.589241624E-1,-5.154971480E-1
3.413886875E0,1.242083088E-1,-6.509829164E-1,-5.026689768E-1
3.416316667E0,1.400907934E-1,-6.442633867E-1,-4.886190593E-1
3.418747344E0,1.578058600E-1,-6.363221407E-1,-4.727365971E-1
3.421178750E0,1.736883521E-1,-6.338787079E-1,-4.574649632E-1
3.423609323E0,1.901817024E-1,-6.271591783E-1,-4.421933591E-1
3.426039115E0,2.017881274E-1,-6.234939694E-1,-4.299760461E-1
3.428469792E0,2.170597464E-1,-6.296026111E-1,-4.134826958E-1
3.430901198E0,2.323313653E-1,-6.320461035E-1,-4.024871290E-1
3.433331823E0,2.439377904E-1,-6.399873495E-1,-3.890481293E-1
3.435761563E0,2.543224990E-1,-6.497612000E-1,-3.737764955E-1
3.438192240E0,2.647072077E-1,-6.583132744E-1,-3.597266078E-1
3.440623646E0,2.750918865E-1,-6.705305576E-1,-3.475093246E-1
3.443054271E0,2.830331326E-1,-6.748065948E-1,-3.346811533E-1
3.445484063E0,2.897526622E-1,-6.772500873E-1,-3.218530118E-1
3.447914740E0,2.995264828E-1,-6.772500873E-1,-3.016944528E-1
3.450346094E0,3.068568707E-1,-6.754174829E-1,-2.821467817E-1
3.452776719E0,3.166306913E-1,-6.680871248E-1,-2.656534314E-1
3.455206511E0,3.221284747E-1,-6.589241624E-1,-2.473275214E-1
3.457637188E0,3.331240416E-1,-6.479285955E-1,-2.290015817E-1
3.460068594E0,3.410652876E-1,-6.296026111E-1,-2.039561272E-1
3.462499219E0,3.538934588E-1,-6.137201786E-1,-1.844084561E-1
3.464928958E0,3.593912423E-1,-5.972267985E-1,-1.642499119E-1
3.467359636E0,3.703867793E-1,-5.734030604E-1,-1.385935992E-1
3.469791042E0,3.795497715E-1,-5.495793819E-1,-1.159915924E-1
3.472221667E0,3.850475550E-1,-5.123165846E-1,-9.338960052E-2
3.474651406E0,3.905453384E-1,-4.829950631E-1,-7.506366074E-2
3.477082083E0,4.021517634E-1,-4.591713548E-1,-5.551598966E-2
3.479513490E0,4.070386887E-1,-4.359584749E-1,-3.657918423E-2
3.481944115E0,4.137581885E-1,-4.133564830E-1,-1.580978185E-2
3.484373906E0,4.180342257E-1,-3.907544911E-1,3.737888299E-3
3.486804583E0,4.204776883E-1,-3.663199246E-1,1.839864068E-2
3.489235990E0,4.180342257E-1,-3.345549405E-1,3.305939585E-2
3.491666563E0,4.137581885E-1,-3.064551651E-1,4.772014916E-2
3.494096354E0,4.100930095E-1,-2.789662480E-1,5.932658166E-2
3.496527031E0,4.064278007E-1,-2.496447414E-1,6.910041720E-2
3.498958438E0,3.966539800E-1,-2.203232348E-1,8.315030485E-2
3.501389063E0,3.826040924E-1,-1.910017282E-1,9.048067778E-2
3.503818802E0,3.740519881E-1,-1.653454155E-1,9.964365512E-2
3.506249479E0,3.630564213E-1,-1.415216923E-1,1.063631624E-1
3.508680886E0,3.477847874E-1,-1.207522973E-1,1.161370054E-1
3.511111511E0,3.380109668E-1,-1.042589545E-1,1.246891096E-1
3.513541302E0,3.233501911E-1,-8.593300730E-2,1.301868856E-1
3.515971927E0,3.129655123E-1,-7.005053014E-2,1.350737959E-1
3.518403386E0,3.031916618E-1,-5.477890745E-2,1.417933106E-1
3.520833958E0,2.921960950E-1,-3.950728849E-2,1.497345567E-1
3.523263750E0,2.836440206E-1,-2.484653704E-2,1.595083922E-1
3.525694427E0,2.775353491E-1,-1.079664752E-2,1.686713547E-1
3.528125833E0,2.720375657E-1,1.989179291E-4,1.747800112E-1
3.530556458E0,2.708158493E-1,3.253241535E-3,1.833321154E-1
3.532986198E0,2.634854615E-1,1.180534624E-2,1.924950778E-1
3.535416875E0,2.604311407E-1,1.608140022E-2,1.998254508E-1
3.537848281E0,2.585985661E-1,2.341177687E-2,2.102101594E-1
3.540278906E0,2.555442452E-1,2.952042408E-2,2.163188010E-1
3.542708698E0,2.543224990E-1,3.440734372E-2,2.273143679E-1
3.545139323E0,2.500464320E-1,4.479204491E-2,2.303686887E-1
3.547570729E0,2.457703948E-1,5.151155591E-2,2.431968600E-1
3.550001354E0,2.396617383E-1,5.639847368E-2,2.486946434E-1
3.552431146E0,2.347748280E-1,6.495057791E-2,2.584684789E-1
3.554861823E0,2.268335819E-1,7.289181650E-2,2.615227997E-1
3.557293229E0,2.188923359E-1,7.961133122E-2,2.706857920E-1
3.559723802E0,2.146162838E-1,8.694170415E-2,2.767944336E-1
3.562153594E0,2.030098587E-1,9.366121888E-2,2.865682542E-1
3.564584271E0,1.956794858E-1,1.040459201E-1,2.926768959E-1
3.567015677E0,1.865165085E-1,1.113762930E-1,3.018398881E-1
3.569446302E0,1.761318147E-1,1.272587776E-1,3.079485297E-1
3.571876042E0,1.626927853E-1,1.370326281E-1,3.152789176E-1
3.574306719E0,1.535298228E-1,1.492499113E-1,3.268853426E-1
3.576738125E0,1.394799352E-1,1.663541198E-1,3.323831260E-1
3.579168750E0,1.278734952E-1,1.828474700E-1,3.421569467E-1
3.581598542E0,1.126018763E-1,2.017842829E-1,3.513199389E-1
3.584029167E0,9.488680214E-2,2.262188643E-1,3.598720431E-1
3.586460573E0,8.205864578E-2,2.439339459E-1,3.678132594E-1
3.588891198E0,6.495442986E-2,2.653142214E-1,3.763653636E-1
3.591320990E0,4.540675879E-2,2.799749672E-1,3.849174976E-1
3.593751667E0,2.769168466E-2,2.995226383E-1,3.934696019E-1
3.596183073E0,1.119833440E-2,3.123508096E-1,4.014108181E-1
3.598613698E0,-8.349336684E-3,3.245680928E-1,4.081303477E-1
3.601043438E0,-2.301008999E-2,3.337310553E-1,4.136281312E-1
3.603474115E0,-4.316862673E-2,3.428940177E-1,4.197367728E-1
3.605905521E0,-6.332716346E-2,3.496135473E-1,4.258454144E-1
3.608336146E0,-8.348569274E-2,3.538895845E-1,4.276780188E-1
3.610765886E0,-1.048659682E-1,3.636634350E-1,4.276780188E-1
3.613196563E0,-1.219701767E-1,3.746590018E-1,4.301214814E-1
3.615627969E0,-1.402961165E-1,3.856545687E-1,4.288997352E-1
3.618058594E0,-1.531242728E-1,4.009261727E-1,4.221802354E-1
3.620488386E0,-1.720610857E-1,4.174195230E-1,4.142389894E-1
3.622919011E0,-1.800023317E-1,4.339128733E-1,4.032434225E-1
3.625350417E0,-1.958847940E-1,4.571257234E-1,3.946913183E-1
3.627781042E0,-2.081021070E-1,4.827820659E-1,3.861392140E-1
3.630210833E0,-2.209302485E-1,5.072166324E-1,3.733110428E-1
3.632641511E0,-2.343692780E-1,5.310403109E-1,3.623154759E-1
3.635072917E0,-2.423105240E-1,5.560857654E-1,3.488764763E-1
3.637503542E0,-2.502517700E-1,5.792986751E-1,3.305505216E-1
3.639933281E0,-2.600255907E-1,5.957919955E-1,3.110028505E-1
3.642363958E0,-2.661342323E-1,6.073984504E-1,2.914551795E-1
3.644795365E0,-2.759080827E-1,6.147288084E-1,2.651880085E-1
3.647225990E0,-2.850710452E-1,6.098418832E-1,2.395316660E-1
3.649655729E0,-2.948448956E-1,6.006789207E-1,2.126536220E-1
3.652086406E0,-3.076730371E-1,5.805203915E-1,1.839429736E-1
3.654517813E0,-3.180577457E-1,5.542532206E-1,1.552323401E-1
3.656948438E0,-3.272207081E-1,5.176013112E-1,1.216347739E-1
3.659378229E0,-3.424923420E-1,4.797277153E-1,8.986981958E-2
3.661808906E0,-3.540987670E-1,4.302476943E-1,6.054831296E-2
3.664240313E0,-3.687595129E-1,3.801567852E-1,2.633988298E-2
3.666670886E0,-3.821985424E-1,3.257898092E-1,-4.203353077E-3
3.669100677E0,-4.011353552E-1,2.720337212E-1,-3.657918423E-2
3.671531354E0,-4.200721681E-1,2.158341706E-1,-7.078760862E-2
3.673962761E0,-4.432850182E-1,1.602454782E-1,-1.037743017E-1
3.676393386E0,-4.664978683E-1,1.089328378E-1,-1.361501366E-1
3.678823125E0,-4.945976436E-1,5.578760803E-2,-1.691368371E-1
3.681253802E0,-5.214756727E-1,3.253241535E-3,-1.960148811E-1
3.683685208E0,-5.501863956E-1,-5.538976938E-2,-2.241146564E-1
3.686115833E0,-5.746209621E-1,-1.115893275E-1,-2.485492527E-1
3.688545573E0,-6.069967747E-1,-1.610693634E-1,-2.705403566E-1
3.690976250E0,-6.350965500E-1,-2.087168097E-1,-2.949749529E-1
3.693407656E0,-6.589202881E-1,-2.508664727E-1,-3.126900196E-1
3.695838281E0,-6.833548546E-1,-2.917944193E-1,-3.304051161E-1
3.698268073E0,-7.065677643E-1,-3.351657987E-1,-3.456767201E-1
3.700698750E0,-7.224501371E-1,-3.797589242E-1,-3.621700704E-1
3.703130104E0,-7.413870096E-1,-4.164108038E-1,-3.719439209E-1
3.705560729E0,-7.566586733E-1,-4.493975043E-1,-3.817177415E-1
3.707990521E0,-7.743736506E-1,-4.768864214E-1,-3.884372413E-1
3.710421198E0,-7.890344858E-1,-4.976558387E-1,-3.872155249E-1
3.712852604E0,-8.085820675E-1,-5.074297190E-1,-3.878263831E-1
3.715283229E0,-8.269081116E-1,-5.178143978E-1,-3.847720623E-1
3.717712969E0,-8.452340364E-1,-5.129274726E-1,-3.798851371E-1
3.720143646E0,-8.629491329E-1,-4.970449507E-1,-3.713330328E-1
3.722575052E0,-8.873836994E-1,-4.750538170E-1,-3.578940034E-1
3.725005677E0,-9.020444155E-1,-4.506192505E-1,-3.462875783E-1
3.727435417E0,-9.240355492E-1,-4.243520498E-1,-3.291833699E-1
3.729866094E0,-9.362528324E-1,-3.877001703E-1,-3.108574450E-1
3.732297500E0,-9.570221901E-1,-3.486048281E-1,-2.833685279E-1
3.734728125E0,-9.692394733E-1,-3.119529486E-1,-2.613773942E-1
3.737157917E0,-9.777916670E-1,-2.722467482E-1,-2.320559025E-1
3.739588542E0,-9.893980026E-1,-2.288753539E-1,-2.027343959E-1
3.742019948E0,-9.893980026E-1,-1.885582805E-1,-1.764672101E-1
3.744450573E0,-9.912306070E-1,-1.415216923E-1,-1.495891660E-1
3.746880365E0,-9.887871742E-1,-9.081992507E-2,-1.202676520E-1
3.749311042E0,-9.753481150E-1,-3.889642283E-2,-9.949824959E-2
3.751742448E0,-9.692394733E-1,2.707696520E-2,-7.628538460E-2
3.754173021E0,-9.503027201E-1,8.877430111E-2,-6.101377308E-2
3.756602813E0,-9.258681536E-1,1.474173218E-1,-4.329869151E-2
3.759033490E0,-8.947139978E-1,1.907887161E-1,-2.802707814E-2
3.761464896E0,-8.586729765E-1,2.280514687E-1,-1.214459445E-2
3.763895521E0,-8.195776939E-1,2.579838336E-1,4.348753020E-3
3.766325261E0,-7.749845982E-1,2.787532508E-1,1.473345421E-2
3.768755938E0,-7.279479504E-1,2.909705341E-1,2.633988298E-2
3.771187344E0,-6.796896458E-1,3.001334965E-1,3.183766454E-2
3.773617969E0,-6.253226995E-1,3.019661009E-1,3.244853020E-2
3.776047708E0,-5.672905445E-1,2.970791757E-1,3.061593510E-2
3.778478386E0,-5.208648443E-1,2.885270715E-1,2.695074864E-2
3.780909792E0,-4.603892267E-1,2.695902586E-1,2.023123577E-2
3.783340417E0,-4.102983177E-1,2.506534457E-1,9.235670790E-3
3.785770208E0,-3.571530879E-1,2.292732000E-1,-4.814217798E-3
3.788200833E0,-3.052295744E-1,2.030060142E-1,-1.336632390E-2
3.790632240E0,-2.588038743E-1,1.791822910E-1,-2.680534683E-2
3.793062865E0,-2.154324651E-1,1.535259634E-1,-3.657918423E-2
3.795492656E0,-1.720610857E-1,1.309239715E-1,-4.757475108E-2
3.797923333E0,-1.341874599E-1,1.113762930E-1,-5.368339270E-2
3.800354740E0,-1.042550951E-1,9.549381584E-2,-6.223550439E-2
3.802785365E0,-7.371185720E-2,8.510911465E-2,-6.590069085E-2
3.805215104E0,-5.233159661E-2,7.472441345E-2,-6.590069085E-2
3.807645781E0,-2.911873162E-2,6.556144357E-2,-6.590069085E-2
3.810077188E0,-1.079279184E-2,5.945279822E-2,-6.345722824E-2
3.812507813E0,6.311416626E-3,5.517674610E-2,-5.551598966E-2
3.814937552E0,2.036130801E-2,5.456588045E-2,-4.696388543E-2
3.817368229E0,3.563292325E-2,5.090069026E-2,-3.657918423E-2
3.819799636E0,4.785022140E-2,4.784636572E-2,-2.619448304E-2
3.822230261E0,5.884578452E-2,4.723550379E-2,-1.458805334E-2
3.824660000E0,6.373269856E-2,4.967896268E-2,-2.981623635E-3
3.827090677E0,7.350653410E-2,5.639847368E-2,1.290085912E-2
3.829522083E0,8.022604883E-2,6.128538772E-2,2.633988298E-2
3.831952708E0,8.511296660E-2,7.044836134E-2,3.977891058E-2
3.834382500E0,8.266951144E-2,7.838959992E-2,5.321793258E-2
3.836813177E0,8.511296660E-2,8.449824899E-2,6.299176812E-2
3.839244583E0,8.450210094E-2,9.610467404E-2,7.520905882E-2
3.841675156E0,8.755642921E-2,9.610467404E-2,8.253943920E-2
3.844104948E0,8.816729486E-2,9.854813665E-2,9.842192382E-2
3.846535625E0,8.755642921E-2,9.610467404E-2,1.057522967E-1
3.848967031E0,8.511296660E-2,9.121775627E-2,1.094174907E-1
3.851397656E0,7.900431752E-2,9.121775627E-2,1.161370054E-1
3.853827396E0,7.167394459E-2,8.694170415E-2,1.198021844E-1
3.856258073E0,6.312184036E-2,8.144392073E-2,1.246891096E-1
3.858689479E0,5.701319128E-2,7.228095084E-2,1.277434230E-1
3.861120104E0,5.273713917E-2,6.739403307E-2,1.295760125E-1
3.863549844E0,4.357416555E-2,6.922663003E-2,1.277434230E-1
3.865980521E0,3.074600548E-2,7.228095084E-2,1.234673783E-1
3.868411927E0,1.852871478E-2,7.777873427E-2,1.222456470E-1
3.870842552E0,5.089685321E-3,7.900046557E-2,1.149152741E-1
3.873272344E0,-1.384712011E-2,8.327651769E-2,1.069740281E-1
3.875702969E0,-3.461651504E-2,9.121775627E-2,9.658932686E-2
3.878134375E0,-5.660764873E-2,9.610467404E-2,8.437203616E-2
3.880565000E0,-7.249012589E-2,9.732640535E-2,7.520905882E-2
3.882994792E0,-9.692472219E-2,9.671553969E-2,6.604608893E-2
3.885425417E0,-1.140289307E-1,9.488295019E-2,4.833101481E-2
3.887856823E0,-1.378526539E-1,8.877430111E-2,3.611371666E-2
3.890287448E0,-1.580111980E-1,8.266565204E-2,1.900950633E-2
3.892717240E0,-1.824457943E-1,8.144392073E-2,2.516158856E-3
3.895147917E0,-2.044368982E-1,7.044836134E-2,-1.519891806E-2
3.897579323E0,-2.264280319E-1,5.945279822E-2,-2.985967137E-2
3.900009896E0,-2.465865910E-1,4.723550379E-2,-4.268783331E-2
3.902439688E0,-2.685776949E-1,3.440734372E-2,-5.612685531E-2
3.904870365E0,-2.875145078E-1,1.913572289E-2,-6.895501167E-2
3.907301771E0,-3.064513206E-1,9.361889213E-3,-7.567452639E-2
3.909732396E0,-3.192794919E-1,-7.742323447E-3,-8.605922014E-2
3.912162136E0,-3.327184916E-1,-2.667913027E-2,-9.522219747E-2
3.914592813E0,-3.443249166E-1,-4.500507191E-2,-1.001091152E-1
3.917024219E0,-3.486009836E-1,-6.516360492E-2,-1.123264059E-1
3.919454844E0,-3.498227000E-1,-8.715473861E-2,-1.190459207E-1
3.921884583E0,-3.540987670E-1,-1.054806784E-1,-1.239328384E-1
3.924315261E0,-3.540987670E-1,-1.268609464E-1,-1.269871593E-1
3.926746667E0,-3.479901254E-1,-1.427434236E-1,-1.330958158E-1
3.929177292E0,-3.394380212E-1,-1.586259007E-1,-1.343175471E-1
3.931607083E0,-3.321076334E-1,-1.708431989E-1,-1.367610097E-1
3.934037708E0,-3.235555291E-1,-1.879474074E-1,-1.367610097E-1
3.936469115E0,-3.095056415E-1,-1.977212429E-1,-1.367610097E-1
3.938899740E0,-2.942340374E-1,-2.056624889E-1,-1.349284053E-1
3.941329531E0,-2.807950079E-1,-2.105493993E-1,-1.318740845E-1
3.943760208E0,-2.606364787E-1,-2.136037350E-1,-1.257654279E-1
3.946191563E0,-2.416996658E-1,-2.093276829E-1,-1.184350550E-1
3.948622188E0,-2.178759277E-1,-2.050516307E-1,-1.135481372E-1
3.951051979E0,-1.952739358E-1,-1.958886534E-1,-1.068286225E-1
3.953482656E0,-1.696176231E-1,-1.873365492E-1,-9.644392133E-2
3.955914063E0,-1.433504373E-1,-1.732866615E-1,-8.728095144E-2
3.958344636E0,-1.134180725E-1,-1.635128260E-1,-7.995057851E-2
3.960774427E0,-8.959434927E-2,-1.470194757E-1,-6.712242216E-2
3.963205104E0,-5.660764873E-2,-1.366347671E-1,-5.551598966E-2
3.965636511E0,-2.728614211E-2,-1.256392151E-1,-4.757475108E-2
3.968067136E0,8.136332035E-4,-1.183088422E-1,-3.719004989E-2
3.970496875E0,2.646995336E-2,-1.097567305E-1,-2.558361739E-2
3.972927552E0,5.456973240E-2,-1.024263576E-1,-1.519891806E-2
3.975358958E0,7.778259367E-2,-9.631770849E-2,-4.203353077E-3
3.977789583E0,1.083258241E-1,-9.509598464E-2,4.959617741E-3
3.980219323E0,1.290952265E-1,-9.265252203E-2,1.412258856E-2
3.982650000E0,1.504755020E-1,-9.020905942E-2,2.145296521E-2
3.985081406E0,1.724666208E-1,-8.837646991E-2,3.183766454E-2
3.987512031E0,1.895708442E-1,-8.593300730E-2,4.283323139E-2
3.989941823E0,2.091185004E-1,-8.043522388E-2,5.382879823E-2
3.992372448E0,2.286661714E-1,-7.554831356E-2,6.604608893E-2
3.994803854E0,2.451595217E-1,-7.432658225E-2,7.276560366E-2
3.997234479E0,2.628746033E-1,-7.249398530E-2,8.253943920E-2
3.999664271E0,2.757027745E-1,-7.188311964E-2,9.231327474E-2
4.002094896E0,2.873091698E-1,-7.188311964E-2,1.026979759E-1
4.004526302E0,3.019699454E-1,-7.310485095E-2,1.069740281E-1
4.006956927E0,3.154089749E-1,-7.921350002E-2,1.124718115E-1
4.009386719E0,3.245719373E-1,-8.593300730E-2,1.161370054E-1
4.011817396E0,3.355675042E-1,-1.005937606E-1,1.179695949E-1
4.014248802E0,3.422870040E-1,-1.146436557E-1,1.204130575E-1
4.016679375E0,3.532825708E-1,-1.335804462E-1,1.198021844E-1
4.019109167E0,3.593912423E-1,-1.525172591E-1,1.198021844E-1
4.021539844E0,3.661107421E-1,-1.757301092E-1,1.173587218E-1
4.023971250E0,3.789388835E-1,-2.007755637E-1,1.130826771E-1
4.026401823E0,3.856584132E-1,-2.215449661E-1,1.100283489E-1
4.028831615E0,3.905453384E-1,-2.441469729E-1,1.094174907E-1
4.031262292E0,3.978756964E-1,-2.661381066E-1,1.039197072E-1
4.033693698E0,4.064278007E-1,-2.850748897E-1,9.903278947E-2
4.036124323E0,4.143690467E-1,-3.088986278E-1,9.231327474E-2
4.038554063E0,4.210885763E-1,-3.260028362E-1,8.681549132E-2
4.040984740E0,4.247537553E-1,-3.510482907E-1,7.520905882E-2
4.043416146E0,4.296406806E-1,-3.754828870E-1,6.299176812E-2
4.045846771E0,4.278080761E-1,-3.999174833E-1,4.710928351E-2
4.048276511E0,4.296406806E-1,-4.249629080E-1,3.489199281E-2
4.050707188E0,4.259754717E-1,-4.493975043E-1,2.511815540E-2
4.053138594E0,4.204776883E-1,-4.628365338E-1,1.656604744E-2
4.055569219E0,4.088712633E-1,-4.512301087E-1,3.127023578E-3
4.057998958E0,3.978756964E-1,-4.426780045E-1,-7.868541405E-3
4.060429636E0,3.954322338E-1,-4.377910793E-1,-1.642064750E-2
4.062861042E0,3.917670548E-1,-4.255737960E-1,-2.252929471E-2
4.065291667E0,3.887127340E-1,-4.035826623E-1,-2.558361739E-2
4.067721406E0,3.887127340E-1,-3.608221412E-1,-2.680534683E-2
4.070152083E0,3.850475550E-1,-3.156181276E-1,-1.580978185E-2
4.072583490E0,3.844366670E-1,-2.685815394E-1,-8.479406126E-3
4.075014115E0,3.819932342E-1,-2.056624889E-1,6.792211905E-3
4.077443906E0,3.801606297E-1,-1.323587149E-1,2.572901733E-2
4.079874531E0,3.826040924E-1,-5.844409391E-2,4.283323139E-2
4.082305938E0,3.868801296E-1,2.280091308E-2,6.482436508E-2
4.084736563E0,3.929888010E-1,1.052676514E-1,8.681549132E-2
4.087166354E0,4.015409052E-1,1.920104474E-1,1.100283489E-1
4.089597031E0,4.107038677E-1,2.775315046E-1,1.301868856E-1
4.092028386E0,4.192559719E-1,3.599982560E-1,1.527888775E-1
4.094459011E0,4.253646135E-1,4.375780523E-1,1.717256755E-1
4.096888802E0,4.363601804E-1,5.059948564E-1,1.876081675E-1
4.099319479E0,4.418579638E-1,5.750225782E-1,2.071558386E-1
4.101750886E0,4.491883516E-1,6.373307705E-1,2.236491889E-1
4.104181458E0,4.510209262E-1,6.929194927E-1,2.346447408E-1
4.106611250E0,4.540752470E-1,7.393451929E-1,2.444185764E-1
4.109041927E0,4.565187097E-1,7.790514231E-1,2.517489791E-1
4.111473333E0,4.522426724E-1,8.199793696E-1,2.541924417E-1
4.113903906E0,4.528535306E-1,8.450248241E-1,2.499163598E-1
4.116333698E0,4.491883516E-1,8.596855402E-1,2.468620390E-1
4.118764375E0,4.467448890E-1,8.688485026E-1,2.407533973E-1
4.121195781E0,4.449122846E-1,8.602964282E-1,2.279252410E-1
4.123626406E0,4.443014264E-1,8.334183693E-1,2.144862115E-1
4.126056146E0,4.436905682E-1,7.998208404E-1,1.992145926E-1
4.128486823E0,4.430796802E-1,7.466756105E-1,1.869972944E-1
4.130918229E0,4.412471056E-1,6.880325675E-1,1.680604964E-1
4.133348854E0,4.412471056E-1,6.238917708E-1,1.448476315E-1
4.135778594E0,4.388036430E-1,5.640270114E-1,1.179695949E-1
4.138209271E0,4.345275760E-1,5.084383488E-1,8.315030485E-2
4.140640677E0,4.308623970E-1,4.552931488E-1,4.222236574E-2
4.143071302E0,4.271972179E-1,3.978718519E-1,1.905294135E-3
4.145501042E0,4.229211509E-1,3.367853761E-1,-4.329869151E-2
4.147931719E0,4.149799049E-1,2.793641090E-1,-9.277873486E-2
4.150363125E0,4.039843380E-1,2.188884914E-1,-1.410370618E-1
4.152793750E0,4.009300172E-1,1.620780677E-1,-1.911279708E-1
4.155223490E0,3.826040924E-1,1.150414869E-1,-2.381645441E-1
4.157654167E0,3.734411299E-1,7.594614476E-2,-2.821467817E-1
4.160085573E0,3.587803543E-1,3.929426149E-2,-3.279616535E-1
4.162516198E0,3.496173918E-1,6.918429863E-3,-3.682787120E-1
4.164945990E0,3.374001086E-1,-2.240307815E-2,-4.018762708E-1
4.167376615E0,3.264045417E-1,-5.050285161E-2,-4.305869043E-1
4.169808021E0,3.202958703E-1,-7.615917176E-2,-4.531889260E-1
4.172238646E0,3.135763705E-1,-1.036480889E-1,-4.654062092E-1
4.174668438E0,3.050242662E-1,-1.244174913E-1,-4.709039927E-1
4.177099063E0,2.995264828E-1,-1.390782297E-1,-4.727365971E-1
4.179530469E0,2.983047366E-1,-1.421325505E-1,-4.727365971E-1
4.181961094E0,2.934178412E-1,-1.396891028E-1,-4.696822464E-1
4.184390886E0,2.928069830E-1,-1.299152672E-1,-4.684605300E-1
4.186821511E0,2.860874534E-1,-1.115893275E-1,-4.562432468E-1
4.189252917E0,2.812005281E-1,-9.448511899E-2,-4.452476799E-1
4.191683542E0,2.793679535E-1,-6.943966448E-2,-4.391390383E-1
4.194113333E0,2.732592821E-1,-4.317247495E-2,-4.220348001E-1
4.196544011E0,2.640963197E-1,-1.262924075E-2,-4.055414796E-1
4.198975365E0,2.555442452E-1,1.791399531E-2,-3.890481293E-1
4.201405990E0,2.463812530E-1,5.273328349E-2,-3.707221746E-1
4.203835781E0,2.372182906E-1,7.961133122E-2,-3.505636454E-1
4.206266458E0,2.274444401E-1,1.077111065E-1,-3.291833699E-1
4.208697813E0,2.133945525E-1,1.333674341E-1,-3.078031242E-1
4.211128438E0,2.036207169E-1,1.565802991E-1,-2.894771695E-1
4.213558229E0,1.926251650E-1,1.767388284E-1,-2.742055357E-1
4.215988906E0,1.865165085E-1,1.993408203E-1,-2.558796108E-1
4.218420313E0,1.791861355E-1,2.225536853E-1,-2.399971336E-1
4.220850886E0,1.724666208E-1,2.396578938E-1,-2.265581191E-1
4.223280677E0,1.681905687E-1,2.567621171E-1,-2.143408209E-1
4.225711354E0,1.626927853E-1,2.695902586E-1,-2.027343959E-1
4.228142761E0,1.559732854E-1,2.848618925E-1,-1.899062395E-1
4.230573333E0,1.535298228E-1,3.001334965E-1,-1.752454787E-1
4.233003125E0,1.510863602E-1,3.178485930E-1,-1.654716432E-1
4.235433802E0,1.529189497E-1,3.380071223E-1,-1.538652182E-1
4.237865208E0,1.474211663E-1,3.581656516E-1,-1.367610097E-1
4.240295781E0,1.492537558E-1,3.789350390E-1,-1.251545697E-1
4.242725573E0,1.461994350E-1,4.033696353E-1,-1.123264059E-1
4.245156250E0,1.510863602E-1,4.259716272E-1,-9.705478698E-2
4.247587656E0,1.541406810E-1,4.546822608E-1,-8.117230982E-2
4.250018229E0,1.590276062E-1,4.846146405E-1,-6.712242216E-2
4.252448021E0,1.602493227E-1,5.151578784E-1,-4.635301977E-2
4.254878698E0,1.645253897E-1,5.389815569E-1,-3.169226646E-2
4.257310104E0,1.669688374E-1,5.634161830E-1,-1.214459445E-2
4.259740677E0,1.700231731E-1,5.829638243E-1,8.013941348E-3
4.262170469E0,1.749100834E-1,5.982354283E-1,2.633988298E-2
4.264601146E0,1.810187250E-1,6.147288084E-1,4.405496269E-2
4.267032552E0,1.822404563E-1,6.245026588E-1,6.421349943E-2
4.269463177E0,1.901817024E-1,6.367199421E-1,7.826338708E-2
4.271892917E0,1.901817024E-1,6.519915462E-1,9.536759555E-2
4.274323594E0,1.975120753E-1,6.550458670E-1,1.136935428E-1
4.276755000E0,1.981229484E-1,6.599327922E-1,1.295760125E-1
4.279185573E0,1.993446648E-1,6.617653966E-1,1.430150419E-1
4.281615365E0,1.962903440E-1,6.593219042E-1,1.576757878E-1
4.284046042E0,1.901817024E-1,6.544350386E-1,1.692822278E-1
4.286477448E0,1.883490980E-1,6.434394717E-1,1.784451902E-1
4.288908073E0,1.859056503E-1,6.287786961E-1,1.876081675E-1
4.291337813E0,1.736883521E-1,6.104527712E-1,1.955493987E-1
4.293768490E0,1.700231731E-1,5.896833539E-1,1.992145926E-1
4.296199896E0,1.553624123E-1,5.646378994E-1,2.053232342E-1
4.298630521E0,1.474211663E-1,5.402033329E-1,2.071558386E-1
4.301060261E0,1.364255995E-1,5.139361024E-1,2.095993012E-1
4.303490938E0,1.242083088E-1,4.888907075E-1,2.120427489E-1
4.305922344E0,1.107692868E-1,4.650669694E-1,2.083775699E-1
4.308352969E0,1.022171825E-1,4.381889403E-1,2.059341073E-1
4.310782708E0,9.183248132E-2,4.174195230E-1,2.022689134E-1
4.313213386E0,8.083691448E-2,3.960392773E-1,1.967711300E-1
4.315644792E0,7.289567590E-2,3.740481436E-1,1.900516301E-1
4.318075417E0,6.434356421E-2,3.508352637E-1,1.814995110E-1
4.320505156E0,5.334800109E-2,3.276224136E-1,1.692822278E-1
4.322935833E0,4.418503121E-2,3.068530262E-1,1.607301086E-1
4.325367240E0,3.318946809E-2,2.769206464E-1,1.479019523E-1
4.327797865E0,2.708081901E-2,2.524860501E-1,1.356846690E-1
4.330227604E0,1.608525217E-2,2.304949164E-1,1.240782365E-1
4.332658281E0,1.119833440E-2,2.048386037E-1,1.081957594E-1
4.335089688E0,5.089685321E-3,1.785714179E-1,9.414587170E-2
4.337520313E0,-1.629821956E-3,1.565802991E-1,7.887425274E-2
4.339950052E0,-7.127605379E-3,1.364217550E-1,6.360263377E-2
4.342380729E0,-9.571060538E-3,1.199283972E-1,5.016360432E-2
4.344812136E0,-1.445798576E-2,1.040459201E-1,3.611371666E-2
4.347242761E0,-1.629057527E-2,9.182862192E-2,2.145296521E-2
4.349672500E0,-2.178835869E-2,8.144392073E-2,1.106826402E-2
4.352103177E0,-1.995576173E-2,7.044836134E-2,6.835646927E-4
4.354534583E0,-2.239922434E-2,6.250711530E-2,-9.701135568E-3
4.356965208E0,-2.117749304E-2,5.334414914E-2,-1.886410639E-2
4.359394948E0,-1.812317222E-2,4.845723137E-2,-2.924880572E-2
4.361825625E0,-1.873403788E-2,4.418117926E-2,-3.352485970E-2
4.364257031E0,-1.629057527E-2,4.051599279E-2,-3.841177747E-2
4.366687656E0,-7.738471031E-3,3.746166825E-2,-4.390955716E-2
4.369117396E0,-7.127605379E-3,3.196388483E-2,-4.268783331E-2
4.371548073E0,-1.018956304E-3,3.257475048E-2,-4.329869151E-2
4.373979479E0,5.700550973E-3,2.952042408E-2,-4.513128847E-2
4.376410104E0,8.754879236E-3,2.768783085E-2,-4.024437070E-2
4.378839844E0,1.547439024E-2,2.585523576E-2,-3.535745293E-2
4.381270521E0,1.791784912E-2,2.707696520E-2,-3.230313212E-2
4.383701927E0,2.158303559E-2,2.341177687E-2,-2.680534683E-2
4.386132552E0,2.524822578E-2,2.585523576E-2,-1.886410639E-2
4.388562292E0,2.891341224E-2,2.524437197E-2,-1.580978185E-2
4.390992969E0,2.891341224E-2,2.463350631E-2,-9.701135568E-3
4.393424375E0,3.563292325E-2,2.524437197E-2,-4.203353077E-3
4.395855000E0,4.051984102E-2,2.768783085E-2,6.835646927E-4
4.398284740E0,3.929811344E-2,2.952042408E-2,3.737888299E-3
4.400715417E0,3.685465455E-2,2.707696520E-2,1.045740023E-2
4.403146823E0,3.685465455E-2,2.280091308E-2,1.962037198E-2
4.405577448E0,3.685465455E-2,1.791399531E-2,2.267469279E-2
4.408007188E0,3.074600548E-2,1.424880512E-2,3.061593510E-2
4.410437865E0,2.952427790E-2,9.361889213E-3,3.611371666E-2
4.412869271E0,2.585908771E-2,-2.244540956E-3,4.588755220E-2
4.415299896E0,1.975044236E-2,-2.484653704E-2,6.177003682E-2
4.417729636E0,1.425265893E-2,-4.683766514E-2,7.398733497E-2
4.420160313E0,4.478827119E-3,-5.416804180E-2,8.070684224E-2
4.422591719E0,8.136332035E-4,-4.439420626E-2,8.192857355E-2
4.425022344E0,3.257095814E-3,-3.217691183E-2,7.398733497E-2
4.427452083E0,3.257095814E-3,-1.995961741E-2,6.726782024E-2
4.429882761E0,2.035364509E-3,-1.507269964E-2,6.054831296E-2
4.432314167E0,8.136332035E-4,-1.568356529E-2,5.566138774E-2
4.434744792E0,-2.851553261E-3,-2.118134685E-2,5.260706693E-2
4.437174531E0,-6.516739726E-3,-3.217691183E-2,4.772014916E-2
4.439605208E0,-1.018192619E-2,-4.500507191E-2,4.283323139E-2
4.442036615E0,-1.445798576E-2,-5.600063503E-2,4.038976878E-2
4.444467240E0,-2.362095565E-2,-6.210928038E-2,3.611371666E-2
4.446896979E0,-3.278392553E-2,-6.638533622E-2,3.000507317E-2
4.449327656E0,-4.011429846E-2,-6.821793318E-2,2.389642410E-2
4.451759063E0,-4.439035058E-2,-7.005053014E-2,1.717691310E-2
4.454189636E0,-5.538591743E-2,-7.799176872E-2,1.351172291E-2
4.456619427E0,-6.332716346E-2,-8.165695518E-2,1.228999533E-2
4.459050104E0,-6.882494688E-2,-8.715473861E-2,6.181346253E-3
4.461481511E0,-7.737705112E-2,-8.776560426E-2,5.570482463E-3
4.463912083E0,-8.165310323E-2,-8.898733556E-2,1.294429414E-3
4.466341875E0,-8.104223013E-2,-9.081992507E-2,-2.370758913E-3
4.468772552E0,-9.020520747E-2,-9.081992507E-2,-4.203353077E-3
4.471203958E0,-9.142693877E-2,-8.898733556E-2,-6.646811962E-3
4.473634531E0,-8.898347616E-2,-8.715473861E-2,-9.701135568E-3
4.476064323E0,-8.531829715E-2,-8.776560426E-2,-1.275545917E-2
4.478495000E0,-8.348569274E-2,-8.715473861E-2,-1.764237694E-2
4.480926354E0,-8.043137193E-2,-8.287868649E-2,-2.191843092E-2
4.483356979E0,-7.249012589E-2,-8.043522388E-2,-2.741621248E-2
4.485786771E0,-7.310099900E-2,-8.287868649E-2,-2.985967137E-2
4.488217448E0,-6.638148427E-2,-8.104608953E-2,-3.352485970E-2
4.490648854E0,-6.088370085E-2,-8.104608953E-2,-3.596831858E-2
4.493079427E0,-5.905111134E-2,-8.043522388E-2,-3.963350505E-2
4.495509219E0,-5.294245481E-2,-8.410041779E-2,-4.207696766E-2
4.497939896E0,-5.049900711E-2,-8.104608953E-2,-4.390955716E-2
4.500371250E0,-4.622294754E-2,-7.982436568E-2,-4.268783331E-2
4.502801875E0,-4.439035058E-2,-8.226782084E-2,-4.452042282E-2
4.505231667E0,-3.950343281E-2,-7.860263437E-2,-4.574215412E-2
4.507662292E0,-3.461651504E-2,-7.493744791E-2,-4.635301977E-2
4.510093698E0,-2.789700776E-2,-7.005053014E-2,-4.574215412E-2
4.512524323E0,-2.667527646E-2,-6.882879883E-2,-4.696388543E-2
4.514954115E0,-2.178835869E-2,-5.905495957E-2,-4.696388543E-2
4.517384740E0,-1.873403788E-2,-5.233544484E-2,-4.696388543E-2
4.519816146E0,-1.690144092E-2,-5.111371726E-2,-4.757475108E-2
4.522246771E0,-1.506884396E-2,-4.500507191E-2,-4.818560928E-2
4.524676563E0,-1.201452315E-2,-3.950728849E-2,-4.452042282E-2
4.527107188E0,-1.201452315E-2,-3.828555718E-2,-4.390955716E-2
4.529538594E0,-1.384712011E-2,-3.400950506E-2,-4.329869151E-2
4.531969219E0,-1.140365750E-2,-3.278777748E-2,-4.207696766E-2
4.534398958E0,-7.738471031E-3,-3.523123637E-2,-3.902263939E-2
4.536829636E0,-6.516739726E-3,-3.278777748E-2,-4.085523635E-2
4.539261042E0,-1.018192619E-2,-2.606826462E-2,-3.291399777E-2
4.541691667E0,-5.295008421E-3,-2.851172350E-2,-3.047053702E-2
4.544121406E0,-7.738471031E-3,-2.118134685E-2,-2.741621248E-2
4.546552083E0,-3.462418914E-3,-1.934875362E-2,-2.375102416E-2
4.548983490E0,2.035364509E-3,-1.751615852E-2,-2.008583583E-2
4.551414115E0,3.257095814E-3,-1.018578187E-2,-1.580978185E-2
4.553843854E0,4.478827119E-3,-2.855405677E-3,-1.397718862E-2
4.556274531E0,8.144013584E-3,4.474970978E-3,-5.425082520E-3
4.558705938E0,7.533147931E-3,1.547053643E-2,-2.370758913E-3
4.561136563E0,1.119833440E-2,2.096831799E-2,6.835646927E-4
4.563566302E0,1.242006570E-2,2.890955843E-2,3.737888299E-3
4.565996979E0,1.425265893E-2,3.685080260E-2,1.045740023E-2
4.568428386E0,1.608525217E-2,4.357031360E-2,1.106826402E-2
4.570859011E0,1.608525217E-2,4.845723137E-2,1.351172291E-2
4.573288750E0,1.547439024E-2,5.456588045E-2,2.023123577E-2
4.575719427E0,1.913957670E-2,5.639847368E-2,2.023123577E-2
4.578150833E0,1.364179701E-2,6.311798096E-2,2.756161056E-2
4.580581458E0,1.608525217E-2,6.556144357E-2,2.756161056E-2
4.583011198E0,1.791784912E-2,6.556144357E-2,2.756161056E-2
4.585441875E0,1.913957670E-2,6.556144357E-2,2.756161056E-2
4.587873281E0,1.608525217E-2,6.678316742E-2,2.695074864E-2
4.590303854E0,1.425265893E-2,6.922663003E-2,3.000507317E-2
4.592733646E0,1.119833440E-2,6.861576438E-2,2.633988298E-2
4.595164323E0,9.976610541E-3,6.739403307E-2,2.633988298E-2
4.597595729E0,6.922282279E-3,6.372884661E-2,2.389642410E-2
4.600026302E0,-4.080906510E-4,6.128538772E-2,2.145296521E-2
4.602456094E0,-5.295008421E-3,5.823106691E-2,1.962037198E-2
4.604886771E0,-9.571060538E-3,5.395501480E-2,2.023123577E-2
4.607318177E0,-1.629057527E-2,5.212242156E-2,1.290085912E-2
4.609748750E0,-2.056662738E-2,4.662463814E-2,1.045740023E-2
4.612178542E0,-2.850787342E-2,4.173772037E-2,6.792211905E-3
4.614609219E0,-3.705997765E-2,3.440734372E-2,4.348753020E-3
4.617040573E0,-4.927727580E-2,3.013128974E-2,-5.381647497E-4
4.619471198E0,-5.416418612E-2,1.852485910E-2,-8.479406126E-3
4.621900990E0,-6.393802166E-2,9.972753003E-3,-9.701135568E-3
4.624331615E0,-6.882494688E-2,2.642376814E-3,-1.580978185E-2
4.626763021E0,-7.982051373E-2,-4.687999841E-3,-1.886410639E-2
4.629193646E0,-8.470742404E-2,-1.446183585E-2,-2.436188981E-2
4.631623438E0,-9.570299089E-2,-1.934875362E-2,-2.863794193E-2
4.634054063E0,-1.036442369E-1,-2.851172350E-2,-3.047053702E-2
4.636485469E0,-1.128071994E-1,-3.095518239E-2,-3.657918423E-2
4.638916094E0,-1.183049828E-1,-3.889642283E-2,-3.963350505E-2
4.641345833E0,-1.256353557E-1,-4.256160930E-2,-4.146610200E-2
4.643776511E0,-1.329657435E-1,-4.867025837E-2,-4.329869151E-2
4.646207917E0,-1.372417957E-1,-5.477890745E-2,-4.879647493E-2
4.648638542E0,-1.433504373E-1,-6.027668715E-2,-5.368339270E-2
4.651068281E0,-1.464047581E-1,-6.394188106E-2,-5.673772097E-2
4.653498958E0,-1.519025415E-1,-7.310485095E-2,-5.734858662E-2
4.655930365E0,-1.531242728E-1,-7.860263437E-2,-6.223550439E-2
4.658360990E0,-1.531242728E-1,-8.654387295E-2,-6.284636259E-2
4.660790729E0,-1.598437876E-1,-9.143079072E-2,-6.345722824E-2
4.663221406E0,-1.580111980E-1,-9.815030545E-2,-6.773328036E-2
4.665652813E0,-1.592329144E-1,-1.005937606E-1,-6.651155651E-2
4.668083438E0,-1.567894667E-1,-1.079241410E-1,-6.956587732E-2
4.670513177E0,-1.598437876E-1,-1.128110588E-1,-6.895501167E-2
4.672943854E0,-1.586220562E-1,-1.140327901E-1,-6.895501167E-2
4.675375261E0,-1.604546458E-1,-1.176979765E-1,-6.956587732E-2
4.677805833E0,-1.592329144E-1,-1.183088422E-1,-6.895501167E-2
4.680235625E0,-1.616763771E-1,-1.207522973E-1,-6.956587732E-2
4.682666302E0,-1.580111980E-1,-1.207522973E-1,-6.895501167E-2
4.685097708E0,-1.598437876E-1,-1.213631630E-1,-6.651155651E-2
4.687528281E0,-1.586220562E-1,-1.201414317E-1,-6.651155651E-2
4.689958073E0,-1.592329144E-1,-1.189197078E-1,-6.406809390E-2
4.692388750E0,-1.598437876E-1,-1.189197078E-1,-6.345722824E-2
4.694820104E0,-1.604546458E-1,-1.164762452E-1,-6.040290743E-2
4.697250729E0,-1.574003249E-1,-1.176979765E-1,-5.979204178E-2
4.699680521E0,-1.586220562E-1,-1.146436557E-1,-5.612685531E-2
4.702111146E0,-1.543460041E-1,-1.170871109E-1,-5.429425836E-2
4.704542552E0,-1.537351310E-1,-1.134219244E-1,-5.551598966E-2
4.706973177E0,-1.519025415E-1,-1.152545139E-1,-5.307252705E-2
4.709402969E0,-1.476264894E-1,-1.152545139E-1,-5.307252705E-2
4.711833594E0,-1.427395791E-1,-1.201414317E-1,-5.001820624E-2
4.714265000E0,-1.372417957E-1,-1.183088422E-1,-4.879647493E-2
4.716695625E0,-1.372417957E-1,-1.170871109E-1,-4.696388543E-2
4.719125365E0,-1.335766017E-1,-1.189197078E-1,-4.574215412E-2
4.721556042E0,-1.299114078E-1,-1.195305660E-1,-4.390955716E-2
4.723987448E0,-1.286896914E-1,-1.170871109E-1,-4.574215412E-2
4.726418073E0,-1.280788183E-1,-1.170871109E-1,-4.329869151E-2
4.728847813E0,-1.231919080E-1,-1.176979765E-1,-4.635301977E-2
4.731278490E0,-1.244136393E-1,-1.170871109E-1,-4.390955716E-2
4.733709896E0,-1.238027662E-1,-1.164762452E-1,-4.635301977E-2
4.736140521E0,-1.231919080E-1,-1.195305660E-1,-4.513128847E-2
4.738570261E0,-1.244136393E-1,-1.219740286E-1,-4.818560928E-2
4.741000938E0,-1.238027662E-1,-1.231957600E-1,-5.062907189E-2
4.743432344E0,-1.225810349E-1,-1.280826777E-1,-5.551598966E-2
4.745862917E0,-1.189158559E-1,-1.299152672E-1,-5.734858662E-2
4.748292708E0,-1.238027662E-1,-1.317478567E-1,-5.918117613E-2
4.750723386E0,-1.231919080E-1,-1.286935359E-1,-5.857031047E-2
4.753154792E0,-1.189158559E-1,-1.323587149E-1,-6.406809390E-2
4.755585365E0,-1.195267141E-1,-1.317478567E-1,-6.773328036E-2
4.758015156E0,-1.244136393E-1,-1.323587149E-1,-6.773328036E-2
4.760445833E0,-1.219701767E-1,-1.348021775E-1,-7.078760862E-2
4.762877188E0,-1.219701767E-1,-1.354130507E-1,-7.384192944E-2
4.765307813E0,-1.293005496E-1,-1.354130507E-1,-7.811798155E-2
4.767737604E0,-1.286896914E-1,-1.384673715E-1,-8.117230982E-2
4.770168229E0,-1.311331391E-1,-1.433542818E-1,-8.605922014E-2
4.772599636E0,-1.421287060E-1,-1.470194757E-1,-8.911354840E-2
4.775030261E0,-1.445721686E-1,-1.519063860E-1,-9.522219747E-2
4.777460052E0,-1.531242728E-1,-1.580150425E-1,-9.888738394E-2
4.779890677E0,-1.592329144E-1,-1.647345573E-1,-1.056068912E-1
4.782322083E0,-1.702284813E-1,-1.690106094E-1,-1.086612195E-1
4.784752708E0,-1.757262647E-1,-1.745083928E-1,-1.147698686E-1
4.787182448E0,-1.842783689E-1,-1.806170344E-1,-1.196567863E-1
4.789613125E0,-1.952739358E-1,-1.836713552E-1,-1.245437041E-1
4.792044531E0,-2.019934654E-1,-1.885582805E-1,-1.300414950E-1
4.794475156E0,-2.105455697E-1,-1.946669221E-1,-1.337066740E-1
4.796904896E0,-2.209302485E-1,-2.001647055E-1,-1.367610097E-1
4.799335573E0,-2.264280319E-1,-2.068842202E-1,-1.398153305E-1
4.801766979E0,-2.362018824E-1,-2.154363245E-1,-1.404261887E-1
4.804197552E0,-2.465865910E-1,-2.191015184E-1,-1.434805095E-1
4.806627344E0,-2.557495534E-1,-2.258210182E-1,-1.477565616E-1
4.809058021E0,-2.612473369E-1,-2.362057269E-1,-1.508108974E-1
4.811489427E0,-2.673559785E-1,-2.392600477E-1,-1.532543451E-1
4.813920000E0,-2.746863663E-1,-2.472012937E-1,-1.520326287E-1
4.816349792E0,-2.832384706E-1,-2.490338832E-1,-1.544760764E-1
4.818780469E0,-2.869036496E-1,-2.526990771E-1,-1.550869495E-1
4.821211823E0,-2.954557538E-1,-2.575860023E-1,-1.538652182E-1
4.823642448E0,-3.021752536E-1,-2.581968606E-1,-1.581412703E-1
4.826072240E0,-3.095056415E-1,-2.581968606E-1,-1.526434869E-1
4.828502865E0,-3.101164997E-1,-2.581968606E-1,-1.520326287E-1
4.830934271E0,-3.180577457E-1,-2.539207935E-1,-1.502000242E-1
4.833364896E0,-3.198903501E-1,-2.563642561E-1,-1.520326287E-1
4.835794688E0,-3.247772753E-1,-2.539207935E-1,-1.459239721E-1
4.838225313E0,-3.290533125E-1,-2.533099353E-1,-1.471457034E-1
4.840656719E0,-3.333293796E-1,-2.514773607E-1,-1.459239721E-1
4.843087344E0,-3.339402378E-1,-2.533099353E-1,-1.428696513E-1
4.845517083E0,-3.369945586E-1,-2.496447414E-1,-1.379827261E-1
4.847947761E0,-3.406597376E-1,-2.453686893E-1,-1.318740845E-1
4.850379167E0,-3.369945586E-1,-2.429252416E-1,-1.306523532E-1
4.852809792E0,-3.369945586E-1,-2.398709059E-1,-1.275980324E-1
4.855239531E0,-3.388271630E-1,-2.380383164E-1,-1.257654279E-1
4.857670208E0,-3.376054168E-1,-2.368165851E-1,-1.190459207E-1
4.860101615E0,-3.369945586E-1,-2.307079434E-1,-1.172133237E-1
4.862532188E0,-3.357728124E-1,-2.264318913E-1,-1.111046746E-1
4.864961979E0,-3.369945586E-1,-2.191015184E-1,-1.074394882E-1
4.867392656E0,-3.357728124E-1,-2.117711306E-1,-1.031634361E-1
