"Time (s)","Acceleration x (m/s^2)","Acceleration y (m/s^2)","Acceleration z (m/s^2)"
0.000000000E0,-2.531744003E0,-9.824759483E0,9.555737972E-1
1.998438000E-3,-2.430574417E0,-9.869981766E0,9.741240740E-1
3.995313000E-3,-2.348041534E0,-9.917607307E0,9.961602688E-1
6.026563000E-3,-2.240570545E0,-9.960655212E0,1.012958050E0
7.995313000E-3,-2.072478533E0,-9.979061127E0,1.002576709E0
9.996875000E-3,-1.883882403E0,-9.960137367E0,9.789603353E-1
1.199531300E-2,-1.659880877E0,-9.884940147E0,9.258856773E-1
1.446093800E-2,-1.525527835E0,-9.817317963E0,8.821292520E-1
1.604062500E-2,-1.391567469E0,-9.704332352E0,8.852320910E-1
1.799531300E-2,-1.298078775E0,-9.610966682E0,8.818324208E-1
1.999531300E-2,-1.441366911E0,-9.694476128E0,9.051423073E-1
2.199531300E-2,-1.691752434E0,-9.831731796E0,9.136081934E-1
2.399531300E-2,-1.917908788E0,-9.912196159E0,9.818812609E-1
2.599531300E-2,-2.112519026E0,-9.991635323E0,1.033519387E0
2.799531300E-2,-2.209627867E0,-1.002633286E1,1.104818702E0
2.999531300E-2,-2.264005184E0,-1.006074238E1,1.161513448E0
3.199531300E-2,-2.257703304E0,-1.009040165E1,1.217250466E0
3.445937500E-2,-2.167757988E0,-1.009789085E1,1.248997569E0
3.604062500E-2,-1.996620655E0,-1.006092358E1,1.253996730E0
3.799531300E-2,-1.816787243E0,-1.000248623E1,1.232688189E0
3.999531300E-2,-1.706845522E0,-9.900465012E0,1.189544797E0
4.199531300E-2,-1.607361674E0,-9.723561287E0,1.105278492E0
4.399531300E-2,-1.507695794E0,-9.533328056E0,9.966104031E-1
4.599531300E-2,-1.340312362E0,-9.333479881E0,9.101318121E-1
4.799531300E-2,-1.018847704E0,-9.081006050E0,8.442721367E-1
4.999531300E-2,-5.805843472E-1,-8.789382935E0,7.733559012E-1
5.199531300E-2,-2.471294999E-1,-8.636899948E0,6.941748857E-1
5.445781300E-2,1.270842273E-2,-8.577926636E0,6.368480921E-1
5.604375000E-2,2.350531518E-1,-8.552203178E0,5.885331035E-1
5.799531300E-2,2.001073807E-1,-8.607864380E0,5.702796578E-1
5.999687500E-2,1.725740544E-2,-8.684765816E0,5.856887698E-1
6.199687500E-2,-2.586120963E-1,-8.752282143E0,7.069119811E-1
6.417656300E-2,-4.466622472E-1,-8.698527336E0,9.311529398E-1
6.604218800E-2,-5.012213588E-1,-8.541621208E0,1.134995222E0
6.799687500E-2,-5.131444931E-1,-8.375022888E0,1.319310427E0
6.999687500E-2,-5.675790310E-1,-8.246961594E0,1.469829082E0
7.199687500E-2,-5.856121778E-1,-8.101001740E0,1.599231005E0
7.450312500E-2,-5.844342113E-1,-7.915958405E0,1.684962511E0
7.620781300E-2,-6.065662503E-1,-7.765057087E0,1.707525492E0
7.799531300E-2,-7.129166126E-1,-7.668292999E0,1.700208902E0
8.000000000E-2,-8.295717239E-1,-7.571711063E0,1.719525218E0
8.199687500E-2,-9.752062559E-1,-7.548486710E0,1.713223696E0
8.399687500E-2,-1.122401714E0,-7.604674339E0,1.715522051E0
8.599531300E-2,-1.164348125E0,-7.638317585E0,1.741053939E0
8.799687500E-2,-1.200912476E0,-7.688691616E0,1.841342211E0
8.999687500E-2,-1.282554746E0,-7.768437386E0,1.974708915E0
9.199531300E-2,-1.379222989E0,-7.780216694E0,2.136346102E0
9.446093800E-2,-1.516784191E0,-7.745367050E0,2.292064905E0
9.604218800E-2,-1.696579218E0,-7.689553261E0,2.434740305E0
9.799531300E-2,-1.909644008E0,-7.674967766E0,2.560694695E0
9.999687500E-2,-2.104512930E0,-7.669978619E0,2.701358557E0
1.019953130E-1,-2.224098444E0,-7.655297279E0,2.836516142E0
1.039968750E-1,-2.310711145E0,-7.629123688E0,2.973234653E0
1.059953130E-1,-2.401479959E0,-7.630876541E0,3.110116005E0
1.079953130E-1,-2.418028831E0,-7.632112026E0,3.295408010E0
1.099968750E-1,-2.352686167E0,-7.659281254E0,3.468058586E0
1.119953130E-1,-2.194592237E0,-7.738787651E0,3.615742683E0
1.144625000E-1,-1.977419019E0,-7.867796898E0,3.672178745E0
1.160015630E-1,-1.736706018E0,-8.049210548E0,3.645813704E0
1.179953130E-1,-1.507446885E0,-8.239194870E0,3.536762714E0
1.199968750E-1,-1.331731558E0,-8.433488846E0,3.388695478E0
1.219968750E-1,-1.251679063E0,-8.627219200E0,3.245685101E0
1.239953130E-1,-1.182074785E0,-8.855826378E0,3.087811470E0
1.259953130E-1,-9.679853320E-1,-9.012283325E0,2.961014748E0
1.279968750E-1,-6.724163294E-1,-9.083640099E0,2.861367941E0
1.299968750E-1,-3.944016397E-1,-9.090238571E0,2.784676790E0
1.319953130E-1,-1.454812735E-1,-9.076877594E0,2.705562830E0
1.344593750E-1,1.403576881E-1,-9.038964272E0,2.682090044E0
1.360406250E-1,4.150109291E-1,-9.038858414E0,2.680002451E0
1.379953130E-1,5.700594187E-1,-9.105282784E0,2.707267523E0
1.399968750E-1,6.717268229E-1,-9.260408401E0,2.694731474E0
1.419953130E-1,7.452384233E-1,-9.470485687E0,2.672264338E0
1.439968750E-1,7.084730268E-1,-9.704456329E0,2.626534939E0
1.459968750E-1,5.704807639E-1,-9.905674934E0,2.604747772E0
1.479953130E-1,4.290792644E-1,-1.005229473E1,2.589204550E0
1.499953130E-1,3.195014298E-1,-1.018762493E1,2.544183969E0
1.519953130E-1,2.964883745E-1,-1.033106613E1,2.434405088E0
1.544593750E-1,3.140426576E-1,-1.043447685E1,2.314752340E0
1.563593750E-1,2.726804316E-1,-1.051555347E1,2.227287531E0
1.580156250E-1,2.633047104E-1,-1.056347656E1,2.162950516E0
1.600031250E-1,3.209858537E-1,-1.060510635E1,2.099513769E0
1.619968750E-1,3.706798851E-1,-1.066335297E1,2.018197060E0
1.639953130E-1,4.210826159E-1,-1.073648167E1,1.888268590E0
1.659968750E-1,4.290313721E-1,-1.082295036E1,1.759259343E0
1.679968750E-1,4.245111048E-1,-1.088283443E1,1.661461115E0
1.699968750E-1,5.012596250E-1,-1.094417381E1,1.630719423E0
1.719968750E-1,7.351539731E-1,-1.103885937E1,1.685642481E0
1.744578130E-1,1.112729073E0,-1.116838551E1,1.797375083E0
1.760406250E-1,1.487766504E0,-1.135157108E1,1.936890006E0
1.779953130E-1,1.837425351E0,-1.153633595E1,2.105106592E0
1.799968750E-1,2.203268766E0,-1.167922306E1,2.280113220E0
1.819953130E-1,2.404477596E0,-1.173826408E1,2.458672762E0
1.839953130E-1,2.446309090E0,-1.169201660E1,2.567072868E0
1.859968750E-1,2.535756588E0,-1.157552433E1,2.628593922E0
1.879968750E-1,2.400053263E0,-1.135349655E1,2.668730497E0
1.899968750E-1,2.047607660E0,-1.102729130E1,2.688190460E0
1.919968750E-1,1.649901867E0,-1.072552586E1,2.653666019E0
1.944578130E-1,1.377010703E0,-1.052196121E1,2.563127041E0
1.960406250E-1,1.128339410E0,-1.043824959E1,2.433160067E0
1.979953130E-1,8.856343627E-1,-1.048355770E1,2.293683529E0
1.999968750E-1,6.198875904E-1,-1.053660393E1,2.185513496E0
2.019953130E-1,3.418441117E-1,-1.056784344E1,2.197321892E0
2.039953130E-1,1.727177054E-1,-1.057645321E1,2.347361565E0
2.059953130E-1,1.154388264E-1,-1.056259537E1,2.586063385E0
2.079968750E-1,4.759673029E-2,-1.057916355E1,2.874670267E0
2.099953130E-1,6.466259807E-2,-1.061907005E1,3.153738260E0
2.119953130E-1,2.115516663E-1,-1.069622040E1,3.394096851E0
2.144625000E-1,4.137659371E-1,-1.079198837E1,3.571641445E0
2.160109380E-1,5.576957464E-1,-1.088728714E1,3.684389114E0
2.179953130E-1,6.662871838E-1,-1.095586681E1,3.713722944E0
2.199968750E-1,7.288811803E-1,-1.099295807E1,3.695009708E0
2.219953130E-1,7.906516194E-1,-1.098808289E1,3.606510401E0
2.238421880E-1,8.692867160E-1,-1.094658661E1,3.448081255E0
2.259968750E-1,9.085325599E-1,-1.091959000E1,3.353299856E0
2.279968750E-1,1.035434842E0,-1.085604763E1,3.142274857E0
2.299953130E-1,1.191948533E0,-1.080155563E1,2.907001495E0
2.319968750E-1,1.347274780E0,-1.076408195E1,2.665866852E0
2.344578130E-1,1.534606695E0,-1.070588398E1,2.437191963E0
2.365265630E-1,1.690469265E0,-1.063244820E1,2.220440149E0
2.378453130E-1,1.838517070E0,-1.049166012E1,1.949502707E0
2.400187500E-1,1.875244141E0,-1.043633461E1,1.879390836E0
2.419968750E-1,1.924612522E0,-1.030734444E1,1.769468307E0
2.439953130E-1,1.968924403E0,-1.017135429E1,1.695832253E0
2.459953130E-1,1.951686144E0,-1.003715420E1,1.647009611E0
2.479968750E-1,1.889676332E0,-9.885524750E0,1.638965130E0
2.499968750E-1,1.791494966E0,-9.719463348E0,1.666000485E0
2.519968750E-1,1.684895515E0,-9.537446022E0,1.722446203E0
2.544593750E-1,1.575327277E0,-9.381382942E0,1.803619146E0
2.560406250E-1,1.429788589E0,-9.241781235E0,1.877188206E0
2.579953130E-1,1.315977812E0,-9.092938423E0,1.952653408E0
2.599968750E-1,1.212203503E0,-8.957953453E0,2.012594700E0
2.619953130E-1,1.120247006E0,-8.815469742E0,2.062662125E0
2.639953130E-1,1.054243684E0,-8.701026917E0,2.094955206E0
2.659953130E-1,9.476441741E-1,-8.584103584E0,2.130140305E0
2.679968750E-1,8.789880276E-1,-8.457402229E0,2.167978287E0
2.699953130E-1,8.584936857E-1,-8.341810226E0,2.202742100E0
2.719953130E-1,8.677544594E-1,-8.217273712E0,2.249180079E0
2.744578130E-1,8.922231793E-1,-8.093666077E0,2.294248581E0
2.760468750E-1,9.234627485E-1,-8.003557205E0,2.342448711E0
2.779953130E-1,9.656677246E-1,-7.950032711E0,2.380248308E0
2.799953130E-1,1.027150869E0,-7.896364689E0,2.414044857E0
2.819953130E-1,1.083615780E0,-7.843644142E0,2.451987982E0
2.839953130E-1,1.111570477E0,-7.793729782E0,2.493513107E0
2.859953130E-1,1.181605577E0,-7.754072189E0,2.532778025E0
2.879968750E-1,1.213371873E0,-7.740722179E0,2.581485748E0
2.899953130E-1,1.220362902E0,-7.733635426E0,2.631505489E0
2.919968750E-1,1.217968702E0,-7.731691360E0,2.670291424E0
2.944593750E-1,1.229566336E0,-7.751831532E0,2.697432041E0
2.960406250E-1,1.222747564E0,-7.785235405E0,2.711423874E0
2.979953130E-1,1.214702964E0,-7.823868275E0,2.717734814E0
2.999968750E-1,1.203660965E0,-7.855375767E0,2.710743904E0
3.019953130E-1,1.222287893E0,-7.904706001E0,2.687242508E0
3.039953130E-1,1.248872995E0,-7.984212399E0,2.660168648E0
3.059968750E-1,1.246373534E0,-8.060223579E0,2.645276785E0
3.079968750E-1,1.238779068E0,-8.135171890E0,2.633286715E0
3.099968750E-1,1.228809714E0,-8.216238976E0,2.640613079E0
3.119968750E-1,1.201132655E0,-8.307257652E0,2.648379564E0
3.144609380E-1,1.155259728E0,-8.413493156E0,2.657056332E0
3.161703130E-1,1.091392040E0,-8.524603844E0,2.668289900E0
3.179968750E-1,1.007508755E0,-8.629660606E0,2.673959494E0
3.200125000E-1,8.904802203E-1,-8.706026077E0,2.689129114E0
3.219968750E-1,7.122558355E-1,-8.772067070E0,2.684800386E0
3.239968750E-1,4.892024398E-1,-8.837238312E0,2.660896778E0
3.259968750E-1,2.229959369E-1,-8.901575089E0,2.628948450E0
3.279968750E-1,-3.814442083E-2,-8.969741821E0,2.595429420E0
3.299968750E-1,-2.625864446E-1,-9.061603546E0,2.564879656E0
3.319968750E-1,-3.587567508E-1,-9.157649040E0,2.526371002E0
3.344578130E-1,-3.330334425E-1,-9.300257683E0,2.481752872E0
3.360406250E-1,-1.975599527E-1,-9.476211548E0,2.439021349E0
3.379953130E-1,-8.140285313E-2,-9.692581177E0,2.395868063E0
3.399968750E-1,-1.464293804E-2,-9.902427673E0,2.351671219E0
3.419968750E-1,4.703169689E-2,-1.008360195E1,2.292496204E0
3.439968750E-1,1.559008360E-1,-1.022869015E1,2.214205503E0
3.459968750E-1,2.780434191E-1,-1.034669590E1,2.119385719E0
3.479968750E-1,3.887034357E-1,-1.042010212E1,2.016990423E0
3.499968750E-1,4.476103783E-1,-1.049691772E1,1.900938749E0
3.519968750E-1,4.646762311E-1,-1.054846954E1,1.794894695E0
3.544593750E-1,4.589780569E-1,-1.055671501E1,1.695745945E0
3.560406250E-1,4.285621047E-1,-1.054680347E1,1.594701171E0
3.579953130E-1,3.333016038E-1,-1.054665947E1,1.490208626E0
3.599968750E-1,1.416601241E-1,-1.055467606E1,1.343587637E0
3.619953130E-1,-3.476380929E-2,-1.063384628E1,1.175457239E0
3.639968750E-1,-8.992238641E-1,-1.086642838E1,7.571998239E-1
3.659968750E-1,-1.280735135E0,-1.094460487E1,3.844991922E-1
3.679953130E-1,-9.831932783E-1,-1.095254421E1,3.353702128E-1
3.699953130E-1,-6.976320744E-1,-1.099228668E1,3.789063692E-1
3.719968750E-1,-6.461950541E-1,-1.101870060E1,3.648859262E-1
3.744593750E-1,-8.431420922E-1,-1.099743938E1,3.932045400E-1
3.760406250E-1,-1.222517729E0,-1.093279648E1,4.984823465E-1
3.779953130E-1,-1.575499654E0,-1.080923653E1,6.431400180E-1
3.799953130E-1,-1.821115971E0,-1.069952488E1,7.665659189E-1
3.819953130E-1,-1.978424668E0,-1.069191074E1,8.223316669E-1
3.839953130E-1,-2.048373461E0,-1.075793362E1,9.108213782E-1
3.859953130E-1,-2.165325642E0,-1.090661335E1,1.130561113E0
3.879968750E-1,-2.579733133E0,-1.100967026E1,1.699299097E0
3.899968750E-1,-3.228782177E0,-1.102563381E1,2.510205507E0
3.919953130E-1,-3.477156401E0,-1.098144627E1,3.230448484E0
3.944609380E-1,-3.200358152E0,-1.090001488E1,3.711788416E0
3.961703130E-1,-2.662304401E0,-1.088018131E1,3.909530163E0
3.979953130E-1,-2.114530325E0,-1.095528316E1,3.806723118E0
4.000000000E-1,-1.591033220E0,-1.105460358E1,3.468020201E0
4.019968750E-1,-1.179086924E0,-1.119538307E1,2.910947084E0
4.039953130E-1,-1.026375175E0,-1.138125896E1,2.282670259E0
4.059953130E-1,-1.202712893E0,-1.162337971E1,1.707487226E0
4.079953130E-1,-1.442832112E0,-1.184825325E1,1.323687077E0
4.099968750E-1,-1.344315529E0,-1.196052170E1,1.033710957E0
4.119953130E-1,-1.083941340E0,-1.198415756E1,8.826559782E-1
4.144953130E-1,-7.589044571E-1,-1.192840099E1,8.550747633E-1
4.162046880E-1,-3.539108932E-1,-1.179368496E1,8.252526522E-1
4.179953130E-1,3.937982768E-2,-1.165548134E1,7.849437594E-1
4.200359380E-1,3.892588913E-1,-1.154108715E1,7.211143970E-1
4.219968750E-1,6.754426360E-1,-1.145303726E1,6.466643214E-1
4.239968750E-1,8.838051558E-1,-1.138014889E1,5.755948424E-1
4.259968750E-1,1.072420359E0,-1.133825970E1,4.524753988E-1
4.279968750E-1,1.280093551E0,-1.132966900E1,3.056342304E-1
4.299968750E-1,1.473248005E0,-1.137006378E1,1.765771657E-1
4.319953130E-1,1.533639431E0,-1.143476486E1,1.112537608E-1
4.344593750E-1,1.328111529E0,-1.152286243E1,1.951753199E-1
4.360406250E-1,4.893748164E-1,-1.166868782E1,6.001592875E-1
4.380578130E-1,-5.958592892E-1,-1.178382969E1,1.154455304E0
4.399968750E-1,-1.077840805E0,-1.174800301E1,1.509141922E0
4.419968750E-1,-1.167182803E0,-1.166637039E1,1.626505733E0
4.439968750E-1,-1.199504614E0,-1.162338924E1,1.616392612E0
4.459968750E-1,-1.141105175E0,-1.160919666E1,1.497209191E0
4.479968750E-1,-9.839307070E-1,-1.160596943E1,1.250242591E0
4.499968750E-1,-8.902025223E-1,-1.163322449E1,8.937363029E-1
4.519968750E-1,-9.170366526E-1,-1.170112419E1,4.722993672E-1
4.544593750E-1,-9.691824317E-1,-1.180091476E1,-5.046977196E-3
4.560406250E-1,-1.121807933E0,-1.192961693E1,-4.789839685E-1
4.579953130E-1,-1.397715807E0,-1.204987335E1,-8.557164073E-1
4.599968750E-1,-1.760820389E0,-1.214539242E1,-1.064682364E0
4.619968750E-1,-2.181290150E0,-1.221467113E1,-1.093747973E0
4.639968750E-1,-2.666556358E0,-1.228615189E1,-9.382780790E-1
4.659968750E-1,-3.181424856E0,-1.236861801E1,-6.606560349E-1
4.679968750E-1,-3.707172394E0,-1.244789505E1,-3.382145166E-1
4.699968750E-1,-4.187382221E0,-1.256251907E1,-3.779008240E-2
4.719968750E-1,-4.591044426E0,-1.269331074E1,2.254955024E-1
4.744609380E-1,-4.999677181E0,-1.284982395E1,4.069663882E-1
4.763812500E-1,-5.421746731E0,-1.302551079E1,5.942025781E-1
4.780421880E-1,-5.742339134E0,-1.318214989E1,8.215367794E-1
4.804015630E-1,-5.940943241E0,-1.331259441E1,1.016865373E0
4.819968750E-1,-6.141931534E0,-1.348555183E1,1.157778502E0
4.840453130E-1,-6.336264133E0,-1.368189526E1,1.263554335E0
4.859968750E-1,-6.527752399E0,-1.386388397E1,1.328149915E0
4.879968750E-1,-6.671691895E0,-1.402552032E1,1.363095522E0
4.899968750E-1,-6.779383183E0,-1.416317749E1,1.388071895E0
4.919953130E-1,-6.905902386E0,-1.422716045E1,1.425000072E0
4.944609380E-1,-7.055540085E0,-1.420252895E1,1.480899930E0
4.960062500E-1,-7.150791168E0,-1.410097694E1,1.560962081E0
4.979953130E-1,-7.215721607E0,-1.393004990E1,1.632922173E0
4.999968750E-1,-7.223794937E0,-1.374039078E1,1.685221076E0
5.019968750E-1,-7.175087452E0,-1.353345490E1,1.686906576E0
5.039968750E-1,-7.118679523E0,-1.331287193E1,1.613624930E0
5.059968750E-1,-7.015690804E0,-1.308039570E1,1.498808622E0
5.079968750E-1,-6.843088150E0,-1.283331394E1,1.376005173E0
5.099953130E-1,-6.611357689E0,-1.256671524E1,1.240081549E0
5.119968750E-1,-6.209917545E0,-1.228784752E1,1.066961646E0
5.144625000E-1,-5.667334080E0,-1.197868919E1,8.570284247E-1
5.160078130E-1,-5.044257164E0,-1.163828087E1,5.669757128E-1
5.179953130E-1,-4.444605350E0,-1.128832626E1,2.257157564E-1
5.199968750E-1,-3.975983620E0,-1.098355389E1,-5.320873857E-2
5.219953130E-1,-3.685490370E0,-1.072580338E1,-2.815964222E-1
5.239968750E-1,-3.573508739E0,-1.050921345E1,-4.532894194E-1
5.259968750E-1,-3.539405823E0,-1.031778336E1,-5.618903637E-1
5.279968750E-1,-3.498589516E0,-1.014083290E1,-6.040858030E-1
5.299953130E-1,-3.565253735E0,-9.996788025E0,-5.797799230E-1
5.319953130E-1,-3.702173233E0,-9.854438782E0,-5.124645233E-1
5.344593750E-1,-3.825733185E0,-9.731682777E0,-4.133253992E-1
5.360406250E-1,-3.905201674E0,-9.615507126E0,-3.069366515E-1
5.379953130E-1,-3.946037054E0,-9.501561165E0,-1.931929141E-1
5.399968750E-1,-3.959300995E0,-9.368329048E0,-7.929596305E-2
5.419968750E-1,-3.970496178E0,-9.249040604E0,2.009214088E-2
5.439968750E-1,-3.972047567E0,-9.147287369E0,1.066760495E-1
5.459968750E-1,-3.961359978E0,-9.033887863E0,1.981345564E-1
5.479968750E-1,-3.962068558E0,-8.917070389E0,2.707363367E-1
5.499968750E-1,-3.983597279E0,-8.789267540E0,3.251900673E-1
5.519968750E-1,-3.991230011E0,-8.657509804E0,3.590727746E-1
5.544609380E-1,-3.984871149E0,-8.529582977E0,3.574064374E-1
5.561703130E-1,-3.981547832E0,-8.403591156E0,3.444298804E-1
5.579968750E-1,-3.966809034E0,-8.305744171E0,3.211199045E-1
5.600015630E-1,-3.944332361E0,-8.244204521E0,2.932513952E-1
5.619968750E-1,-3.887589931E0,-8.186427116E0,2.554134429E-1
5.639968750E-1,-3.821797132E0,-8.124848366E0,2.143097818E-1
5.659953130E-1,-3.769287586E0,-8.050972939E0,1.661575884E-1
5.679968750E-1,-3.709356070E0,-7.956315517E0,1.132074371E-1
5.699968750E-1,-3.652929306E0,-7.851420403E0,5.809291080E-2
5.719953130E-1,-3.605715513E0,-7.733922958E0,1.521754637E-2
5.744593750E-1,-3.561939955E0,-7.631058216E0,-1.527500711E-2
5.760078130E-1,-3.520271540E0,-7.562124729E0,-5.880159512E-2
5.778421880E-1,-3.482462168E0,-7.509251118E0,-1.065036729E-1
5.799968750E-1,-3.473392725E0,-7.488593578E0,-1.326962262E-1
5.819968750E-1,-3.465808153E0,-7.441954613E0,-1.614075005E-1
5.839953130E-1,-3.444988012E0,-7.403024673E0,-1.707927734E-1
5.859968750E-1,-3.394240379E0,-7.375443935E0,-1.787894070E-1
5.879968750E-1,-3.317980528E0,-7.368079185E0,-1.735987663E-1
5.899968750E-1,-3.251622915E0,-7.366518021E0,-1.365844160E-1
5.919968750E-1,-3.182190895E0,-7.365493298E0,-9.312487394E-2
5.945031250E-1,-3.110968351E0,-7.363626003E0,-5.388868973E-2
5.960500000E-1,-3.041622639E0,-7.369573116E0,-2.046563476E-2
5.979953130E-1,-2.988327742E0,-7.382358074E0,5.564124789E-3
5.999968750E-1,-2.922075272E0,-7.408397675E0,4.937801883E-2
6.019968750E-1,-2.822438240E0,-7.446628094E0,7.714118063E-2
6.039968750E-1,-2.699538946E0,-7.485079288E0,1.103918552E-1
6.059953130E-1,-2.568451643E0,-7.538268566E0,1.414111257E-1
6.079968750E-1,-2.452600956E0,-7.595844269E0,1.879927218E-1
6.099953130E-1,-2.356641293E0,-7.650786400E0,2.305137366E-1
6.119968750E-1,-2.252158403E0,-7.716608047E0,2.736668289E-1
6.144625000E-1,-2.159455061E0,-7.783358574E0,3.110163808E-1
6.160046880E-1,-2.048354387E0,-7.858191490E0,3.229778111E-1
6.179953130E-1,-1.932475090E0,-7.945043564E0,3.303710818E-1
6.199968750E-1,-1.812564015E0,-8.044135094E0,3.610168695E-1
6.219953130E-1,-1.702373147E0,-8.152572632E0,4.122432172E-1
6.239968750E-1,-1.590631008E0,-8.277502060E0,4.954177737E-1
6.259968750E-1,-1.477452278E0,-8.384504318E0,5.903335214E-1
6.279968750E-1,-1.360892892E0,-8.463646889E0,6.810354590E-1
6.299968750E-1,-1.239526153E0,-8.519891739E0,7.308731675E-1
6.319968750E-1,-1.133606553E0,-8.595710754E0,7.599866390E-1
6.344609380E-1,-1.043833613E0,-8.670084000E0,7.615380883E-1
6.361703130E-1,-9.765565991E-1,-8.729326248E0,7.385250330E-1
6.379953130E-1,-9.535435438E-1,-8.762212753E0,7.186148763E-1
6.399984380E-1,-9.662327766E-1,-8.781309128E0,6.586449146E-1
6.419953130E-1,-1.001456261E0,-8.792006493E0,6.026205420E-1
6.439953130E-1,-1.074029326E0,-8.788032532E0,5.458779931E-1
6.459953130E-1,-1.169912338E0,-8.778676033E0,4.155855477E-1
6.479953130E-1,-1.201324224E0,-8.736346245E0,3.446309865E-1
6.499953130E-1,-1.136431813E0,-8.694303513E0,4.897291660E-1
6.519953130E-1,-1.024871588E0,-8.645318031E0,6.394338608E-1
6.544578130E-1,-9.062340856E-1,-8.584382057E0,6.921062469E-1
6.560406250E-1,-8.136646748E-1,-8.526480675E0,7.081857324E-1
6.579953130E-1,-7.495478988E-1,-8.465983391E0,7.658668160E-1
6.599968750E-1,-6.881893277E-1,-8.419324875E0,8.530253172E-1
6.619953130E-1,-6.232777238E-1,-8.385231018E0,9.467822909E-1
6.639953130E-1,-5.341081023E-1,-8.361136436E0,1.082265377E0
6.660234380E-1,-4.685835838E-1,-8.342087746E0,1.256343007E0
6.679968750E-1,-4.278342724E-1,-8.323557854E0,1.423649788E0
6.699953130E-1,-4.320672154E-1,-8.314046860E0,1.535937905E0
6.719953130E-1,-5.018246770E-1,-8.292930603E0,1.566258073E0
6.744578130E-1,-5.870295167E-1,-8.299250603E0,1.542881012E0
6.760406250E-1,-6.602059603E-1,-8.328929901E0,1.466132402E0
6.779953130E-1,-7.375769019E-1,-8.374965668E0,1.378648281E0
6.799968750E-1,-8.341877460E-1,-8.425684929E0,1.281577826E0
6.819968750E-1,-9.348399639E-1,-8.468358040E0,1.155556679E0
6.839953130E-1,-1.044887066E0,-8.501006126E0,9.796881676E-1
6.859953130E-1,-1.156409025E0,-8.538958549E0,8.172751069E-1
6.879968750E-1,-1.231663585E0,-8.577007294E0,6.892810464E-1
6.899953130E-1,-1.285925746E0,-8.614423752E0,5.982535481E-1
6.919953130E-1,-1.354217887E0,-8.649283409E0,5.512505770E-1
6.944578130E-1,-1.452294111E0,-8.681719780E0,4.792521298E-1
6.960406250E-1,-1.587355733E0,-8.706035614E0,3.351882398E-1
6.979968750E-1,-1.746196628E0,-8.729259491E0,1.043871939E-1
6.999968750E-1,-1.905985713E0,-8.764444351E0,-1.584195346E-1
7.019968750E-1,-2.030962944E0,-8.780763626E0,-4.209868610E-1
7.039968750E-1,-2.112586260E0,-8.797819138E0,-6.081846952E-1
7.059968750E-1,-2.153383255E0,-8.816514015E0,-6.807577610E-1
7.079968750E-1,-2.148939610E0,-8.813631058E0,-6.555515528E-1
7.099968750E-1,-2.116254091E0,-8.794545174E0,-5.644091368E-1
7.119968750E-1,-2.070342779E0,-8.782411575E0,-3.962499797E-1
7.144640630E-1,-2.008601189E0,-8.768275261E0,-2.242792398E-1
7.161750000E-1,-1.938575506E0,-8.740646362E0,-1.121827140E-1
7.179953130E-1,-1.882560849E0,-8.717039108E0,-2.699701861E-2
7.200218750E-1,-1.832579494E0,-8.689505577E0,4.246356338E-2
7.219968750E-1,-1.795124531E0,-8.654168129E0,1.119528711E-1
7.239953130E-1,-1.790633082E0,-8.603219032E0,1.545888186E-1
7.259968750E-1,-1.844722748E0,-8.547893524E0,1.941889226E-1
7.279968750E-1,-1.930157423E0,-8.529630661E0,2.426571399E-1
7.299968750E-1,-1.990577579E0,-8.527073860E0,3.126923144E-1
7.319968750E-1,-2.022037268E0,-8.517831802E0,3.771633804E-1
7.344609380E-1,-2.039285183E0,-8.510505676E0,4.530308545E-1
7.360078130E-1,-2.043795824E0,-8.515265465E0,5.450735688E-1
7.379953130E-1,-2.038136005E0,-8.527227402E0,6.279799938E-1
7.399968750E-1,-2.036756992E0,-8.536277771E0,7.100819349E-1
7.419968750E-1,-2.050470829E0,-8.540348053E0,7.447403669E-1
7.439968750E-1,-2.066464186E0,-8.546993256E0,7.271477580E-1
7.459968750E-1,-2.080685854E0,-8.545203209E0,6.546609402E-1
7.479968750E-1,-2.097665548E0,-8.532465935E0,5.779890418E-1
7.499968750E-1,-2.107041359E0,-8.516203880E0,4.826231599E-1
7.519968750E-1,-2.128263474E0,-8.494550705E0,3.939898312E-1
7.544593750E-1,-2.167681456E0,-8.469326019E0,3.314436972E-1
7.560078130E-1,-2.209723711E0,-8.446015358E0,2.874383032E-1
7.579953130E-1,-2.274108648E0,-8.419114113E0,2.331952453E-1
7.599968750E-1,-2.338464499E0,-8.378863335E0,1.724782884E-1
7.619953130E-1,-2.419005632E0,-8.348283768E0,1.094054431E-1
7.641765630E-1,-2.482662678E0,-8.326420784E0,6.006573141E-2
7.660484380E-1,-2.543293476E0,-8.308885574E0,2.773443237E-2
7.679968750E-1,-2.610158682E0,-8.282980919E0,-1.618480310E-3
7.699968750E-1,-2.683766127E0,-8.264593124E0,-3.029143997E-2
7.719968750E-1,-2.742232323E0,-8.253521919E0,-6.026684493E-2
7.744609380E-1,-2.772935867E0,-8.254076958E0,-8.543469012E-2
7.760406250E-1,-2.790260077E0,-8.247747421E0,-1.110526472E-1
7.779953130E-1,-2.809356213E0,-8.246214867E0,-1.391222626E-1
7.799968750E-1,-2.834074020E0,-8.244902611E0,-1.608616114E-1
7.819968750E-1,-2.867372513E0,-8.241292000E0,-1.642326713E-1
7.839968750E-1,-2.896457195E0,-8.241464615E0,-1.637825519E-1
7.859968750E-1,-2.913274288E0,-8.253253937E0,-1.709460020E-1
7.879968750E-1,-2.958017111E0,-8.265254021E0,-1.707257330E-1
7.899968750E-1,-2.997195721E0,-8.292260170E0,-1.602774411E-1
7.919968750E-1,-3.002319336E0,-8.340402603E0,-1.522329301E-1
7.944609380E-1,-2.996946812E0,-8.396944046E0,-1.471955329E-1
7.963796880E-1,-2.997214794E0,-8.439743042E0,-1.543781310E-1
7.979953130E-1,-2.987685919E0,-8.476307869E0,-1.818635613E-1
8.000015630E-1,-2.981394053E0,-8.496628761E0,-2.233215570E-1
8.019968750E-1,-3.003669739E0,-8.523366928E0,-2.648944557E-1
8.039953130E-1,-3.020017385E0,-8.559568405E0,-3.028760850E-1
8.059968750E-1,-3.053200960E0,-8.587886810E0,-3.387220800E-1
8.079968750E-1,-3.092791557E0,-8.615276337E0,-3.661500514E-1
8.099968750E-1,-3.120487452E0,-8.628338814E0,-3.946985304E-1
8.119968750E-1,-3.152416706E0,-8.637436867E0,-4.234863818E-1
8.144625000E-1,-3.171972513E0,-8.655997276E0,-4.437796772E-1
8.160109380E-1,-3.177756786E0,-8.678856850E0,-4.847492278E-1
8.179953130E-1,-3.175994635E0,-8.695750237E0,-5.096297860E-1
8.199968750E-1,-3.170832872E0,-8.722497940E0,-5.161611438E-1
8.219953130E-1,-3.152387857E0,-8.742676735E0,-5.016331673E-1
8.239953130E-1,-3.126837015E0,-8.765086174E0,-4.878616929E-1
8.259968750E-1,-3.094802380E0,-8.792342186E0,-4.897291660E-1
8.279968750E-1,-3.067996979E0,-8.826292038E0,-4.892694652E-1
8.299968750E-1,-3.038491011E0,-8.858842850E0,-4.990091026E-1
8.319968750E-1,-3.019911766E0,-8.882564545E0,-4.902271628E-1
8.344609380E-1,-2.975494623E0,-8.890782356E0,-4.721365571E-1
8.360078130E-1,-2.927083969E0,-8.896231651E0,-4.534522295E-1
8.379953130E-1,-2.876403570E0,-8.905300140E0,-4.343369007E-1
8.399968750E-1,-2.848966122E0,-8.910059929E0,-4.297208786E-1
8.419968750E-1,-2.838354826E0,-8.915135384E0,-4.358596206E-1
8.439968750E-1,-2.833585739E0,-8.918564796E0,-4.402649403E-1
8.459968750E-1,-2.814259529E0,-8.912778854E0,-4.281981885E-1
8.479968750E-1,-2.791562557E0,-8.912242889E0,-4.027909338E-1
8.499968750E-1,-2.755707026E0,-8.912645340E0,-3.615914881E-1
8.519968750E-1,-2.714900255E0,-8.909533501E0,-3.221350312E-1
8.544593750E-1,-2.670818090E0,-8.901746750E0,-2.617149651E-1
8.560062500E-1,-2.619860172E0,-8.908699989E0,-1.991880089E-1
8.579953130E-1,-2.559765577E0,-8.910375595E0,-1.449258178E-1
8.599968750E-1,-2.496644735E0,-8.906363487E0,-1.131978557E-1
8.619968750E-1,-2.437967777E0,-8.902006149E0,-8.581776172E-2
8.639968750E-1,-2.363632679E0,-8.915001869E0,-6.090849265E-2
8.659968750E-1,-2.271015167E0,-8.943903923E0,-3.763685375E-2
8.679968750E-1,-2.168571949E0,-8.979281425E0,-1.544738933E-2
8.699968750E-1,-2.061053276E0,-9.005023003E0,2.332910150E-2
8.719968750E-1,-1.936008930E0,-9.029922485E0,7.284119725E-2
8.744609380E-1,-1.806655049E0,-9.071869850E0,1.303020269E-1
8.761703130E-1,-1.703043580E0,-9.129818916E0,1.995614916E-1
8.779953130E-1,-1.607917070E0,-9.179235458E0,2.572330236E-1
8.800156250E-1,-1.531723976E0,-9.237548828E0,2.743180394E-1
8.819968750E-1,-1.454036951E0,-9.298092842E0,2.642049491E-1
8.839968750E-1,-1.393272161E0,-9.343955994E0,2.162059993E-1
8.859953130E-1,-1.357742190E0,-9.371183395E0,1.786649078E-1
8.879968750E-1,-1.307578802E0,-9.405755997E0,1.152472943E-1
8.899968750E-1,-1.250156403E0,-9.425618172E0,6.063076481E-2
8.919968750E-1,-1.216110826E0,-9.410945892E0,2.480393043E-3
8.944609380E-1,-1.211312890E0,-9.387406349E0,-4.117069393E-2
8.960406250E-1,-1.176865101E0,-9.366547585E0,-6.701849401E-2
8.979953130E-1,-1.111541629E0,-9.376029015E0,-6.920200586E-2
8.999968750E-1,-1.041448951E0,-9.398850441E0,-8.077079058E-2
9.019968750E-1,-9.707051516E-1,-9.403859138E0,-7.460332662E-2
9.039968750E-1,-9.212217927E-1,-9.418664932E0,-6.597462296E-2
9.059968750E-1,-9.219974875E-1,-9.419200897E0,-5.878243968E-2
9.079968750E-1,-9.405286312E-1,-9.421662331E0,-4.885129258E-2
9.099953130E-1,-9.203598499E-1,-9.438086510E0,-3.077028133E-2
9.119968750E-1,-8.432186842E-1,-9.483155251E0,4.309562966E-3
9.145187500E-1,-7.583681345E-1,-9.551543236E0,1.312980149E-2
9.160687500E-1,-6.759884357E-1,-9.670467377E0,-4.899494350E-2
9.179953130E-1,-6.394433975E-1,-9.808632851E0,-1.247187555E-1
9.199968750E-1,-6.572275162E-1,-9.897457123E0,-1.232151911E-1
9.219968750E-1,-6.895875335E-1,-9.919167519E0,-7.946834713E-2
9.239953130E-1,-6.974405646E-1,-9.882728577E0,-2.572330274E-2
9.259968750E-1,-7.157610059E-1,-9.789048195E0,2.421016619E-2
9.279968750E-1,-7.556100488E-1,-9.674510002E0,5.774814636E-2
9.299968750E-1,-8.274264932E-1,-9.601840973E0,1.829074472E-1
9.318421880E-1,-8.199757934E-1,-9.603631973E0,3.300742209E-1
9.346062500E-1,-7.957177162E-1,-9.603229523E0,4.052617252E-1
9.360234380E-1,-6.712958217E-1,-9.601495743E0,5.730952621E-1
9.378421880E-1,-5.717066526E-1,-9.598862648E0,5.977172256E-1
9.399968750E-1,-5.460311770E-1,-9.600173950E0,5.929192305E-1
9.419968750E-1,-7.309880853E-1,-9.567575455E0,6.359478831E-1
9.439953130E-1,-1.087973118E0,-9.556916237E0,9.377513528E-1
9.459953130E-1,-1.506537080E0,-9.642474174E0,1.473047018E0
9.479968750E-1,-1.736026168E0,-9.727210999E0,1.725750089E0
9.499953130E-1,-1.848036408E0,-9.776770592E0,1.933471084E0
9.519953130E-1,-1.897615433E0,-9.729058266E0,2.044303417E0
9.544578130E-1,-1.929199815E0,-9.533911705E0,1.828978539E0
9.565000000E-1,-1.958140969E0,-9.198330879E0,1.345541358E0
9.578796880E-1,-1.733622313E0,-8.704809189E0,6.735559702E-1
9.599953130E-1,-1.633525491E0,-8.607135773E0,4.471507072E-1
9.619968750E-1,-1.497659326E0,-8.495287895E0,-3.993528429E-3
9.639953130E-1,-1.497869968E0,-8.453753471E0,-3.421410024E-1
9.659968750E-1,-1.589644551E0,-8.442770004E0,-3.967766762E-1
9.679968750E-1,-1.573775768E0,-8.453628540E0,-2.785222828E-1
9.699968750E-1,-1.435285687E0,-8.501944542E0,-6.906793267E-2
9.719968750E-1,-1.300702810E0,-8.569604874E0,1.836831570E-1
9.744578130E-1,-1.250156403E0,-8.599598885E0,5.215145946E-1
9.760406250E-1,-1.427384734E0,-8.628817558E0,8.878944516E-1
9.779953130E-1,-1.702842355E0,-8.712537766E0,1.172143698E0
9.799968750E-1,-2.020792484E0,-8.757185936E0,1.338693976E0
9.819968750E-1,-2.310002327E0,-8.757942200E0,1.392908216E0
9.839968750E-1,-2.437096119E0,-8.778416634E0,1.338464141E0
9.859953130E-1,-2.498033524E0,-8.815709114E0,1.248911381E0
9.879968750E-1,-2.501366138E0,-8.828801155E0,1.167767048E0
9.899953130E-1,-2.444690704E0,-8.818189621E0,1.083558202E0
9.919968750E-1,-2.405646086E0,-8.790522575E0,9.998856783E-1
9.944578130E-1,-2.408317804E0,-8.761552811E0,9.209631681E-1
9.960406250E-1,-2.385429382E0,-8.741469383E0,7.991462350E-1
9.979953130E-1,-2.314762115E0,-8.731433868E0,6.472006440E-1
9.999968750E-1,-2.255500793E0,-8.745856285E0,5.123878717E-1
1.001996875E0,-2.211916685E0,-8.777669907E0,3.954167664E-1
1.003996875E0,-2.211457014E0,-8.818639755E0,3.160441816E-1
1.005996875E0,-2.277805090E0,-8.861639977E0,2.976663113E-1
1.007996875E0,-2.423774958E0,-8.915786743E0,3.085359931E-1
1.009996875E0,-2.570491552E0,-9.015252113E0,3.380325735E-1
1.011996875E0,-2.644520283E0,-9.128890038E0,3.663894534E-1
1.014460938E0,-2.698859215E0,-9.212323189E0,4.024748802E-1
1.016006250E0,-2.733268499E0,-9.284542084E0,4.568232596E-1
1.017995313E0,-2.783853292E0,-9.328652382E0,5.159313083E-1
1.019996875E0,-2.818597794E0,-9.333066940E0,5.779602528E-1
1.021996875E0,-2.870092392E0,-9.317255974E0,6.245418787E-1
1.024032813E0,-2.931967974E0,-9.294052124E0,6.418855190E-1
1.025996875E0,-2.990635633E0,-9.271278381E0,6.145532727E-1
1.027996875E0,-3.060814381E0,-9.251559258E0,5.519018173E-1
1.029996875E0,-3.108583450E0,-9.220942497E0,4.534043372E-1
1.031996875E0,-3.207799435E0,-9.207056046E0,3.512581289E-1
1.034460938E0,-3.358586073E0,-9.201251984E0,2.520232499E-1
1.036360938E0,-3.453463554E0,-9.175768852E0,1.431924105E-1
1.038015625E0,-3.531782627E0,-9.149682045E0,3.999274597E-2
1.039996875E0,-3.650391340E0,-9.123756409E0,-6.585012376E-2
1.041995313E0,-3.775215626E0,-9.082528114E0,-1.551634222E-1
1.043995313E0,-3.934295893E0,-9.022903442E0,-2.347562760E-1
1.045995313E0,-4.121024609E0,-8.975824356E0,-3.053660691E-1
1.047995313E0,-4.248175621E0,-8.937229156E0,-3.648667634E-1
1.049996875E0,-4.328476906E0,-8.918918610E0,-4.079528153E-1
1.051995313E0,-4.356403351E0,-8.904534340E0,-4.280832410E-1
1.054501563E0,-4.365749836E0,-8.894028664E0,-4.234097898E-1
1.056048438E0,-4.393130302E0,-8.884566307E0,-4.028100669E-1
1.057995313E0,-4.468643665E0,-8.873351097E0,-3.776230812E-1
1.059995313E0,-4.512677670E0,-8.865249634E0,-3.551750481E-1
1.061995313E0,-4.551578522E0,-8.850607872E0,-3.409055769E-1
1.063995313E0,-4.598811626E0,-8.849342346E0,-3.384826779E-1
1.065995313E0,-4.656271935E0,-8.843702316E0,-3.203058839E-1
1.067995313E0,-4.710237503E0,-8.851508141E0,-2.964883745E-1
1.069995313E0,-4.721212387E0,-8.863219261E0,-2.835405171E-1
1.071995313E0,-4.769575119E0,-8.868898392E0,-2.816922069E-1
1.074459375E0,-4.874345779E0,-8.886137009E0,-2.924565077E-1
1.076053125E0,-5.002110004E0,-8.904889107E0,-3.218477368E-1
1.077995313E0,-5.108584881E0,-8.935275078E0,-3.821050227E-1
1.079995313E0,-5.208930492E0,-8.966946602E0,-4.575031996E-1
1.081995313E0,-5.280622482E0,-8.992161751E0,-5.131922960E-1
1.083995313E0,-5.338878632E0,-9.030498505E0,-5.682015419E-1
1.085995313E0,-5.392106056E0,-9.080622673E0,-6.301922202E-1
1.087996875E0,-5.419553280E0,-9.137996674E0,-6.901334524E-1
1.089996875E0,-5.401807785E0,-9.193073273E0,-7.341675758E-1
1.091995313E0,-5.345754623E0,-9.255284309E0,-7.719002366E-1
1.094457813E0,-5.273736954E0,-9.331017494E0,-8.232702017E-1
1.096039063E0,-5.172260761E0,-9.405870438E0,-8.733282089E-1
1.098028125E0,-5.020200253E0,-9.472438812E0,-9.032940269E-1
1.099995313E0,-4.822975636E0,-9.533069611E0,-9.174197912E-1
1.101995313E0,-4.606712341E0,-9.594657898E0,-9.136273861E-1
1.103995313E0,-4.368182659E0,-9.647483826E0,-8.843606710E-1
1.105995313E0,-4.150597572E0,-9.686729431E0,-8.588480353E-1
1.107995313E0,-3.925111771E0,-9.708449364E0,-8.182998300E-1
1.109995313E0,-3.723864794E0,-9.721158028E0,-7.666425109E-1
1.111995313E0,-3.564286470E0,-9.729183197E0,-7.347709537E-1
1.114468750E0,-3.523537159E0,-9.713573456E0,-7.243226171E-1
1.116176563E0,-3.540612459E0,-9.714224815E0,-6.850194335E-1
1.118193750E0,-3.581840515E0,-9.755107880E0,-6.312743425E-1
1.119995313E0,-3.620463848E0,-9.818611145E0,-6.055032015E-1
1.122042188E0,-3.701081514E0,-9.878293991E0,-5.879680514E-1
1.123996875E0,-3.683929443E0,-9.966601372E0,-5.834860802E-1
1.125996875E0,-3.643208742E0,-1.004462433E1,-5.990292430E-1
1.127996875E0,-3.731478214E0,-1.008013439E1,-6.379590034E-1
1.130029688E0,-3.862958193E0,-1.010645199E1,-6.857855916E-1
1.131996875E0,-3.925303221E0,-1.016305065E1,-7.453246117E-1
1.134460938E0,-3.986489534E0,-1.017016697E1,-8.234521747E-1
1.136007813E0,-3.919825554E0,-1.017383480E1,-9.024704099E-1
1.137995313E0,-3.715619087E0,-1.020919228E1,-1.018713713E0
1.139996875E0,-3.595535517E0,-1.025307369E1,-1.128157496E0
1.141995313E0,-3.466181755E0,-1.030134010E1,-1.183118701E0
1.143996875E0,-3.452812195E0,-1.029328632E1,-1.264262915E0
1.145996875E0,-3.477846146E0,-1.026811790E1,-1.329155445E0
1.147995313E0,-3.442488432E0,-1.025014305E1,-1.377451301E0
1.149995313E0,-3.472483158E0,-1.025639629E1,-1.418526292E0
1.151995313E0,-3.545563698E0,-1.024714470E1,-1.456526995E0
1.154626563E0,-3.578479290E0,-1.027106762E1,-1.472501040E0
1.156089063E0,-3.552909136E0,-1.032891178E1,-1.512062907E0
1.157995313E0,-3.562150717E0,-1.041722965E1,-1.546299934E0
1.159995313E0,-3.644712448E0,-1.050572872E1,-1.529597998E0
1.161995313E0,-3.781718254E0,-1.060579586E1,-1.491520643E0
1.164001563E0,-3.923598528E0,-1.072187710E1,-1.464015961E0
1.165995313E0,-4.041211605E0,-1.087759590E1,-1.498703241E0
1.167996875E0,-4.120957375E0,-1.101611423E1,-1.586579919E0
1.169995313E0,-4.248654842E0,-1.116219902E1,-1.689396620E0
1.172001563E0,-4.383027077E0,-1.128164196E1,-1.763990402E0
1.174459375E0,-4.492681026E0,-1.136813831E1,-1.826354504E0
1.176043750E0,-4.525060654E0,-1.143730259E1,-1.891026735E0
1.177995313E0,-4.448244572E0,-1.148275375E1,-1.940194011E0
1.180025000E0,-4.276973248E0,-1.151168537E1,-1.984438896E0
1.181995313E0,-4.026597023E0,-1.152105141E1,-2.005737782E0
1.183995313E0,-3.778031349E0,-1.153722668E1,-2.003860712E0
1.185996875E0,-3.559574604E0,-1.153075314E1,-1.974172473E0
1.188001563E0,-3.393301964E0,-1.150286484E1,-1.956694841E0
1.189996875E0,-3.254457474E0,-1.147809029E1,-1.953840971E0
1.191995313E0,-3.160863400E0,-1.144813347E1,-1.963504076E0
1.194459375E0,-3.095214367E0,-1.142229557E1,-1.998966932E0
1.196360938E0,-3.018772125E0,-1.144007015E1,-2.068638086E0
1.198042188E0,-2.889064074E0,-1.146758461E1,-2.155260324E0
1.200001563E0,-2.776153564E0,-1.147265053E1,-2.210116148E0
1.201996875E0,-2.660235882E0,-1.145199299E1,-2.247053862E0
1.203995313E0,-2.466592789E0,-1.143222618E1,-2.270143747E0
1.205995313E0,-2.183732271E0,-1.140995121E1,-2.302656889E0
1.207995313E0,-1.860198975E0,-1.139331627E1,-2.348165989E0
1.209996875E0,-1.584281564E0,-1.137235260E1,-2.417243481E0
1.211995313E0,-1.329615116E0,-1.135310364E1,-2.494806051E0
1.214493750E0,-1.052270770E0,-1.133278084E1,-2.581955194E0
1.216035938E0,-7.333440185E-1,-1.127180576E1,-2.626104116E0
1.217995313E0,-4.048020244E-1,-1.117807674E1,-2.641369343E0
1.219996875E0,-1.335485727E-1,-1.106044579E1,-2.628316402E0
1.222031250E0,1.231768876E-1,-1.090862465E1,-2.580202341E0
1.223995313E0,3.506068885E-1,-1.073741055E1,-2.499920130E0
1.225995313E0,5.044295788E-1,-1.052174091E1,-2.391299963E0
1.227996875E0,5.978130102E-1,-1.029204082E1,-2.282679796E0
1.230026563E0,7.027556896E-1,-1.006448650E1,-2.173705339E0
1.231995313E0,7.885638475E-1,-9.851259232E0,-2.061924696E0
1.234459375E0,8.412266970E-1,-9.685781479E0,-1.908829927E0
1.236042188E0,9.282224178E-1,-9.533079147E0,-1.746215820E0
1.238000000E0,9.906919599E-1,-9.394090652E0,-1.573823690E0
1.239995313E0,1.015447974E0,-9.255284309E0,-1.413134456E0
1.241995313E0,1.005545497E0,-9.112216949E0,-1.291719675E0
1.243995313E0,9.543575644E-1,-8.974588394E0,-1.199246049E0
1.245995313E0,8.307113647E-1,-8.818764687E0,-1.120208621E0
1.247995313E0,6.576393247E-1,-8.687888145E0,-1.031910539E0
1.249995313E0,4.746648669E-1,-8.580004692E0,-8.981991410E-1
1.251995313E0,2.596751153E-1,-8.473548889E0,-7.327406406E-1
1.254459375E0,1.481532026E-2,-8.362927437E0,-5.361000896E-1
1.256031250E0,-2.359725237E-1,-8.233708382E0,-3.085263968E-1
1.258000000E0,-5.038932562E-1,-8.113404274E0,-4.399584979E-2
1.259995313E0,-8.065586686E-1,-8.009351730E0,2.713588178E-1
1.261995313E0,-1.073004603E0,-7.911821365E0,5.926415324E-1
1.263995313E0,-1.253536940E0,-7.837706566E0,8.190563917E-1
1.265995313E0,-1.406354070E0,-7.817499638E0,9.765086770E-1
1.267995313E0,-1.554181695E0,-7.853039265E0,1.042368412E0
1.269995313E0,-1.701338887E0,-7.919693947E0,1.037761927E0
1.271995313E0,-1.841715693E0,-8.018976212E0,9.655911326E-1
1.274501563E0,-1.977993608E0,-8.150667191E0,8.250514269E-1
1.276203125E0,-2.102578402E0,-8.287232399E0,6.370587945E-1
1.278000000E0,-2.239852190E0,-8.420291901E0,4.266467392E-1
1.280026563E0,-2.387861729E0,-8.548813820E0,2.303413600E-1
1.281995313E0,-2.506020546E0,-8.662136078E0,5.885905400E-2
1.283995313E0,-2.603100538E0,-8.775525093E0,-1.024143770E-1
1.285842188E0,-2.675759792E0,-8.912894249E0,-2.745287418E-1
1.287996875E0,-2.709182978E0,-8.988493919E0,-3.613903821E-1
1.289995313E0,-2.776086330E0,-9.144250870E0,-5.238608718E-1
1.291995313E0,-2.820551395E0,-9.292576790E0,-6.772142649E-1
1.294459375E0,-2.845221519E0,-9.436640739E0,-8.153980970E-1
1.296190625E0,-2.854290724E0,-9.560832977E0,-9.390633702E-1
1.297842188E0,-2.846820831E0,-9.719577789E0,-1.066999912E0
1.299995313E0,-2.846341848E0,-9.767940521E0,-1.118867874E0
1.301995313E0,-2.818463802E0,-9.844478607E0,-1.260288596E0
1.303995313E0,-2.770196676E0,-9.871533394E0,-1.424023271E0
1.305995313E0,-2.730002880E0,-9.858077049E0,-1.517933488E0
1.307996875E0,-2.682061195E0,-9.822260857E0,-1.494987369E0
1.309995313E0,-2.604249716E0,-9.773236275E0,-1.399420381E0
1.311995313E0,-2.494097471E0,-9.707491875E0,-1.250932097E0
1.314462500E0,-2.382355213E0,-9.624795914E0,-1.095567465E0
1.316040625E0,-2.311180353E0,-9.541172028E0,-9.857790470E-1
1.317995313E0,-2.245560169E0,-9.427102089E0,-8.972797990E-1
1.319995313E0,-2.162778139E0,-9.271823883E0,-7.671405077E-1
1.321995313E0,-1.959807396E0,-9.078927994E0,-5.381686687E-1
1.323995313E0,-1.631552696E0,-8.908326149E0,-2.796331644E-1
1.325995313E0,-1.333139420E0,-8.795587540E0,-8.068460226E-2
1.327995313E0,-1.129603505E0,-8.728867531E0,9.617987275E-2
1.329995313E0,-1.004243135E0,-8.696679115E0,2.664267719E-1
1.331995313E0,-8.922615647E-1,-8.689841270E0,4.227202535E-1
1.334459375E0,-7.792456150E-1,-8.707653999E0,5.581362844E-1
1.336043750E0,-7.126772404E-1,-8.737256050E0,6.254516840E-1
1.337995313E0,-7.098233700E-1,-8.765727997E0,5.727026463E-1
1.339996875E0,-7.336217165E-1,-8.810901642E0,3.797682822E-1
1.341995313E0,-8.039346337E-1,-8.874137878E0,1.404342949E-1
1.343995313E0,-9.084271789E-1,-8.952475548E0,-9.434112906E-2
1.345996875E0,-9.863919616E-1,-8.993551254E0,-3.036997020E-1
1.347995313E0,-9.791135788E-1,-9.009323120E0,-5.002062321E-1
1.349995313E0,-8.949525952E-1,-9.023382187E0,-6.939258575E-1
1.351995313E0,-8.010519743E-1,-9.031014442E0,-8.731461763E-1
1.354501563E0,-6.958125234E-1,-9.044920921E0,-1.015055418E0
1.356204688E0,-6.218316555E-1,-9.066555023E0,-1.118877411E0
1.357995313E0,-5.906016827E-1,-9.076638222E0,-1.167613864E0
1.359996875E0,-5.878627300E-1,-9.064572334E0,-1.182266355E0
1.361996875E0,-5.966542363E-1,-9.046634674E0,-1.165679336E0
1.363995313E0,-6.057330370E-1,-9.049842834E0,-1.154120088E0
1.365995313E0,-6.298091412E-1,-9.061038017E0,-1.143394113E0
1.367996875E0,-6.720907092E-1,-9.077558517E0,-1.115171313E0
1.369995313E0,-7.033972740E-1,-9.094347000E0,-1.046036243E0
1.371995313E0,-7.423366308E-1,-9.120156288E0,-9.521452785E-1
1.374459375E0,-8.214984536E-1,-9.158645630E0,-8.411405087E-1
1.376042188E0,-9.396092296E-1,-9.190526009E0,-7.315626740E-1
1.377995313E0,-1.042205572E0,-9.238506317E0,-6.325768232E-1
1.379996875E0,-1.112652540E0,-9.302230835E0,-5.167931914E-1
1.381995313E0,-1.137724638E0,-9.373538971E0,-3.835798204E-1
1.383996875E0,-1.146698117E0,-9.449511528E0,-2.676526010E-1
1.385995313E0,-1.128665090E0,-9.523885727E0,-1.679771841E-1
1.387995313E0,-1.104090929E0,-9.606293678E0,-7.452671230E-2
1.389995313E0,-1.090434313E0,-9.677439690E0,2.320460230E-2
1.391995313E0,-1.138873935E0,-9.755242348E0,1.097885147E-1
1.394457813E0,-1.202454329E0,-9.821752548E0,2.188396156E-1
1.396040625E0,-1.258746743E0,-9.881790161E0,3.308116496E-1
1.397995313E0,-1.323984027E0,-9.926724434E0,4.170412123E-1
1.399995313E0,-1.399142742E0,-9.952983856E0,5.051478148E-1
1.401995313E0,-1.460999370E0,-9.962244034E0,5.754895210E-1
1.403995313E0,-1.527558088E0,-9.962465286E0,6.385623217E-1
1.405995313E0,-1.628258348E0,-9.958864212E0,6.943280697E-1
1.407995313E0,-1.739770651E0,-9.953941345E0,7.304422259E-1
1.409995313E0,-1.837473154E0,-9.964064598E0,7.610496879E-1
1.411995313E0,-1.923731446E0,-9.964408875E0,8.035132289E-1
1.414490625E0,-2.000786543E0,-9.957043648E0,8.378460407E-1
1.416032813E0,-2.046276331E0,-9.929597855E0,8.606771827E-1
1.417995313E0,-2.078109503E0,-9.893253326E0,8.762012124E-1
1.419996875E0,-2.078626633E0,-9.843109131E0,8.860174417E-1
1.421996875E0,-2.058295250E0,-9.773773193E0,9.013307691E-1
1.423995313E0,-2.049541950E0,-9.697177887E0,8.933532834E-1
1.425995313E0,-2.046506166E0,-9.627745628E0,8.834795356E-1
1.427996875E0,-2.068705082E0,-9.563361168E0,8.686450720E-1
1.429995313E0,-2.072813749E0,-9.482963562E0,8.594513535E-1
1.431995313E0,-2.076788187E0,-9.416060448E0,8.613284230E-1
1.434457813E0,-2.079890966E0,-9.362899780E0,8.525465131E-1
1.436359375E0,-2.108937263E0,-9.304173470E0,8.286045194E-1
1.438009375E0,-2.144208670E0,-9.265953064E0,8.165568709E-1
1.440003125E0,-2.179662228E0,-9.228143692E0,8.103606701E-1
1.441996875E0,-2.223322868E0,-9.196962357E0,8.074014187E-1
1.443995313E0,-2.255290031E0,-9.179398537E0,7.939364910E-1
1.445995313E0,-2.313105106E0,-9.183832169E0,7.775792480E-1
1.447995313E0,-2.359524250E0,-9.183122635E0,7.552174330E-1
1.449996875E0,-2.389681339E0,-9.194835663E0,7.287853956E-1
1.451995313E0,-2.414494991E0,-9.195467949E0,7.083964348E-1
1.454457813E0,-2.448406458E0,-9.179866791E0,6.951804161E-1
1.456043750E0,-2.471563339E0,-9.171478271E0,7.003710270E-1
1.457995313E0,-2.479760885E0,-9.168920517E0,7.181743383E-1
1.459995313E0,-2.462541819E0,-9.169687271E0,7.426526546E-1
1.461996875E0,-2.451384783E0,-9.178344727E0,7.669489980E-1
1.464176563E0,-2.452668190E0,-9.192767143E0,7.935054898E-1
1.466042188E0,-2.476408958E0,-9.198053360E0,8.124388456E-1
1.467996875E0,-2.477720976E0,-9.202383041E0,8.508609533E-1
1.469995313E0,-2.459831476E0,-9.213865280E0,8.890149593E-1
1.471995313E0,-2.421323299E0,-9.212993622E0,9.332406521E-1
1.474457813E0,-2.403491259E0,-9.207429886E0,9.626031518E-1
1.476043750E0,-2.378036022E0,-9.223239899E0,9.911803603E-1
1.477995313E0,-2.362090588E0,-9.238697052E0,1.019393563E0
1.479995313E0,-2.339997053E0,-9.224246025E0,1.064701557E0
1.481995313E0,-2.327786684E0,-9.212409019E0,1.111014843E0
1.483995313E0,-2.297715425E0,-9.210771561E0,1.140789151E0
1.485995313E0,-2.260557413E0,-9.199806213E0,1.182793140E0
1.487995313E0,-2.227325916E0,-9.203397751E0,1.213074923E0
1.489995313E0,-2.172852993E0,-9.209392548E0,1.244199634E0
1.491995313E0,-2.073550940E0,-9.214220047E0,1.286557913E0
1.494457813E0,-1.951935172E0,-9.209200859E0,1.341030598E0
1.496043750E0,-1.847615004E0,-9.194280624E0,1.413105726E0
1.497995313E0,-1.753484607E0,-9.163586617E0,1.490381002E0
1.499995313E0,-1.700247049E0,-9.127387047E0,1.558338046E0
1.501995313E0,-1.660407543E0,-9.100551605E0,1.615971208E0
1.503995313E0,-1.609085441E0,-9.090295792E0,1.657419682E0
1.505995313E0,-1.523641229E0,-9.092392921E0,1.696598411E0
1.507995313E0,-1.425651312E0,-9.092938423E0,1.748131156E0
1.509995313E0,-1.302618146E0,-9.080938339E0,1.818530321E0
1.511995313E0,-1.183214426E0,-9.062503815E0,1.891850352E0
1.514462500E0,-1.065103769E0,-9.053616524E0,1.955737233E0
1.516359375E0,-9.268624783E-1,-9.037076950E0,2.009252310E0
1.518009375E0,-7.951909900E-1,-9.020815849E0,2.052501202E0
1.519995313E0,-6.725312471E-1,-8.994096756E0,2.085052729E0
1.521995313E0,-5.571594834E-1,-8.960644722E0,2.115746498E0
1.523995313E0,-4.237641394E-1,-8.926254272E0,2.131778002E0
1.525995313E0,-3.038050532E-1,-8.888043404E0,2.150146246E0
1.527995313E0,-2.144438624E-1,-8.848672867E0,2.166292906E0
1.529996875E0,-1.342859864E-1,-8.802339554E0,2.174299002E0
1.531995313E0,-4.865975678E-2,-8.757549286E0,2.168083668E0
1.534457813E0,2.641283162E-2,-8.726376534E0,2.154695272E0
1.536042188E0,6.733452529E-2,-8.701993942E0,2.140186548E0
1.537995313E0,7.963114977E-2,-8.687963486E0,2.119529247E0
1.539995313E0,8.494627476E-2,-8.680149078E0,2.086489201E0
1.541995313E0,1.118379533E-1,-8.657040596E0,2.075380087E0
1.543995313E0,1.801588833E-1,-8.635789871E0,2.094198704E0
1.545995313E0,2.625577450E-1,-8.614615440E0,2.137275219E0
1.547995313E0,3.179404140E-1,-8.599024773E0,2.195569038E0
1.549995313E0,3.508846164E-1,-8.597587585E0,2.253824949E0
1.551995313E0,3.584981859E-1,-8.593401909E0,2.307426214E0
1.554457813E0,3.520146906E-1,-8.601580620E0,2.355616808E0
1.556040625E0,3.586226702E-1,-8.620533943E0,2.404966116E0
1.557995313E0,3.684101999E-1,-8.642331123E0,2.449143887E0
1.559995313E0,3.917105496E-1,-8.660248756E0,2.489835739E0
1.561995313E0,3.988356888E-1,-8.681815147E0,2.525078297E0
1.563995313E0,3.808313012E-1,-8.698154449E0,2.567771673E0
1.565995313E0,3.689464629E-1,-8.727027893E0,2.607898712E0
1.567995313E0,3.849876523E-1,-8.771368027E0,2.642729521E0
1.569995313E0,4.146182835E-1,-8.834269524E0,2.671105385E0
1.571995313E0,4.430997074E-1,-8.910902023E0,2.677837849E0
1.574457813E0,4.899973273E-1,-8.987392426E0,2.673011303E0
1.576043750E0,5.386188030E-1,-9.073497772E0,2.670866013E0
1.577995313E0,5.757001638E-1,-9.176390648E0,2.663759947E0
1.579996875E0,6.008584499E-1,-9.283507347E0,2.651865721E0
1.581995313E0,6.188245416E-1,-9.397232056E0,2.634656191E0
1.583995313E0,6.386772394E-1,-9.530062675E0,2.622120142E0
1.585995313E0,6.547567248E-1,-9.673474312E0,2.620157003E0
1.587996875E0,6.491638422E-1,-9.839977264E0,2.618988514E0
1.589995313E0,6.456300020E-1,-1.001574993E1,2.608291149E0
1.591995313E0,6.382941604E-1,-1.020961285E1,2.577137947E0
1.594459375E0,6.068247557E-1,-1.042601109E1,2.532615185E0
1.596359375E0,5.671864152E-1,-1.064591408E1,2.506317377E0
1.598007813E0,5.135754347E-1,-1.087599564E1,2.476035357E0
1.600001563E0,4.627608955E-1,-1.110687447E1,2.443455219E0
1.601996875E0,3.904751539E-1,-1.132998562E1,2.409218073E0
1.603995313E0,3.182085454E-1,-1.154806805E1,2.369589329E0
1.605995313E0,2.416515648E-1,-1.177503777E1,2.324003696E0
1.607996875E0,1.561881453E-1,-1.200152016E1,2.277920246E0
1.609996875E0,8.886318654E-2,-1.221930695E1,2.231740713E0
1.611995313E0,2.077209391E-2,-1.242334938E1,2.177095413E0
1.614462500E0,-3.931279480E-2,-1.261889839E1,2.135321617E0
1.616040625E0,-7.682514191E-2,-1.280456448E1,2.087332010E0
1.617995313E0,-1.340561360E-1,-1.298189735E1,2.032207966E0
1.619995313E0,-1.864508539E-1,-1.314376450E1,1.988164186E0
1.621995313E0,-2.353883386E-1,-1.327084923E1,1.950584888E0
1.623995313E0,-2.807824016E-1,-1.338050365E1,1.922314048E0
1.625995313E0,-3.191087544E-1,-1.345660114E1,1.900392771E0
1.627995313E0,-3.602220118E-1,-1.350318241E1,1.888728261E0
1.629995313E0,-3.941143155E-1,-1.351971149E1,1.884610176E0
1.631995313E0,-4.152407646E-1,-1.351713562E1,1.893574119E0
1.634457813E0,-4.141969085E-1,-1.350528049E1,1.908561826E0
1.636040625E0,-4.008085430E-1,-1.347940350E1,1.930511832E0
1.637995313E0,-3.834457695E-1,-1.344406509E1,1.959213495E0
1.639996875E0,-3.661404848E-1,-1.338159561E1,1.999120116E0
1.641842188E0,-3.423133790E-1,-1.328917027E1,2.046822071E0
1.643995313E0,-3.184958398E-1,-1.324135208E1,2.079900503E0
1.645995313E0,-2.638218701E-1,-1.314677238E1,2.165890694E0
1.647995313E0,-2.381273061E-1,-1.303684998E1,2.261850357E0
1.649995313E0,-1.440351754E-1,-1.291508961E1,2.357359648E0
1.651995313E0,2.304562777E-1,-1.273211479E1,2.552448988E0
1.654457813E0,4.759002626E-1,-1.256895638E1,2.740709782E0
1.656040625E0,3.468144834E-1,-1.241835022E1,2.718462944E0
1.657995313E0,3.150769323E-2,-1.229479122E1,2.703398466E0
1.659996875E0,-3.108918667E-1,-1.218575859E1,2.790336609E0
1.661995313E0,-6.083379388E-1,-1.209952927E1,2.927036047E0
1.663995313E0,-8.324926496E-1,-1.203535557E1,3.006389380E0
1.666020313E0,-8.947706223E-1,-1.199130154E1,3.028281927E0
1.667995313E0,-8.466280699E-1,-1.197414970E1,2.966358423E0
1.669995313E0,-7.703966498E-1,-1.198760509E1,2.835031748E0
1.671995313E0,-7.149564624E-1,-1.203245354E1,2.704844475E0
1.674460938E0,-7.283927798E-1,-1.210376167E1,2.576438665E0
1.676496875E0,-8.350496888E-1,-1.221540833E1,2.452284813E0
1.677868750E0,-1.049847841E0,-1.242548561E1,2.225199699E0
1.679995313E0,-1.119385004E0,-1.250722408E1,2.118102312E0
1.681996875E0,-1.252770901E0,-1.270987797E1,1.843267202E0
1.683995313E0,-1.360624909E0,-1.293148518E1,1.482959032E0
1.685995313E0,-1.449239016E0,-1.316326332E1,1.063284159E0
1.687995313E0,-1.516362906E0,-1.340307617E1,6.221955419E-1
1.689996875E0,-1.592239857E0,-1.362702084E1,2.050298601E-1
1.691995313E0,-1.689568996E0,-1.381680393E1,-1.499345005E-1
1.694457813E0,-1.756252289E0,-1.393692589E1,-3.865199387E-1
1.696043750E0,-1.853284597E0,-1.404615879E1,-6.400467753E-1
1.697996875E0,-1.987446070E0,-1.415739346E1,-8.144786954E-1
1.699995313E0,-2.153105497E0,-1.422499657E1,-9.033514261E-1
1.701995313E0,-2.339134932E0,-1.423484039E1,-9.034472108E-1
1.703996875E0,-2.540161848E0,-1.420393658E1,-8.336514235E-1
1.705995313E0,-2.734685898E0,-1.412313747E1,-7.078983784E-1
1.707995313E0,-2.919230938E0,-1.400946999E1,-5.409746766E-1
1.709995313E0,-3.064338923E0,-1.384370518E1,-3.651444912E-1
1.711995313E0,-3.153508186E0,-1.363988209E1,-1.658607125E-1
1.714464063E0,-3.192457199E0,-1.339988804E1,3.184288368E-2
1.716007813E0,-3.196785927E0,-1.315602303E1,1.810399592E-1
1.717995313E0,-3.187419891E0,-1.289069843E1,2.827743888E-1
1.719996875E0,-3.165584803E0,-1.260892010E1,3.423516750E-1
1.721995313E0,-3.126980782E0,-1.232780170E1,3.692433834E-1
1.723995313E0,-3.062116861E0,-1.203529739E1,3.726431131E-1
1.725996875E0,-2.991899967E0,-1.174176884E1,3.587376177E-1
1.727995313E0,-2.936603308E0,-1.146467304E1,3.085551560E-1
1.729995313E0,-2.881613255E0,-1.119182014E1,2.353596091E-1
1.731995313E0,-2.823319435E0,-1.092354488E1,1.268256605E-1
1.734457813E0,-2.782416821E0,-1.067976761E1,-7.029375993E-3
1.736120313E0,-2.764642000E0,-1.044901466E1,-1.243356839E-1
1.737995313E0,-2.777886868E0,-1.023467541E1,-2.386157215E-1
1.739996875E0,-2.815906763E0,-1.002716637E1,-3.611605465E-1
1.741995313E0,-2.852059364E0,-9.847840309E0,-4.861665964E-1
1.743995313E0,-2.889188528E0,-9.679633141E0,-6.091136336E-1
1.745995313E0,-2.952816963E0,-9.512776375E0,-7.347804904E-1
1.747995313E0,-3.009253025E0,-9.348849297E0,-8.517803550E-1
1.749995313E0,-3.054848194E0,-9.205715179E0,-9.406244159E-1
1.751995313E0,-3.092130661E0,-9.075853348E0,-9.985640645E-1
1.754457813E0,-3.114827633E0,-8.968201637E0,-1.040481806E0
1.756359375E0,-3.132602215E0,-8.869167328E0,-1.076078773E0
1.758007813E0,-3.134919882E0,-8.767748833E0,-1.102721453E0
1.760071875E0,-3.142763138E0,-8.654473305E0,-1.139697552E0
1.761996875E0,-3.167059660E0,-8.544206619E0,-1.175476432E0
1.763995313E0,-3.198557615E0,-8.434092522E0,-1.204245090E0
1.765995313E0,-3.246489525E0,-8.333900452E0,-1.228053093E0
1.767995313E0,-3.295158863E0,-8.232749939E0,-1.232190251E0
1.769996875E0,-3.336320162E0,-8.152975082E0,-1.229192734E0
1.771995313E0,-3.392229557E0,-8.080239296E0,-1.214128375E0
1.774457813E0,-3.445218086E0,-8.017836571E0,-1.158448815E0
1.776042188E0,-3.507409573E0,-7.970556259E0,-1.056905985E0
1.777995313E0,-3.569869518E0,-7.935265541E0,-9.067704082E-1
1.779996875E0,-3.608186483E0,-7.910270214E0,-7.366479635E-1
1.781995313E0,-3.637453079E0,-7.898174286E0,-5.964052081E-1
1.783995313E0,-3.655668259E0,-7.916485310E0,-4.819144905E-1
1.785995313E0,-3.673950434E0,-7.935687065E0,-3.963744640E-1
1.787996875E0,-3.657698393E0,-7.969828129E0,-3.129604757E-1
1.789996875E0,-3.633392572E0,-8.025728226E0,-2.478573322E-1
1.791995313E0,-3.625635386E0,-8.080995560E0,-1.805611104E-1
1.794457813E0,-3.621278048E0,-8.133399963E0,-1.092426404E-1
1.796043750E0,-3.626420736E0,-8.174742699E0,-4.884171300E-3
1.797995313E0,-3.639224768E0,-8.220520973E0,1.717600226E-1
1.799996875E0,-3.633660555E0,-8.277808189E0,3.660638630E-1
1.801995313E0,-3.615780830E0,-8.353877068E0,5.160174966E-1
1.803995313E0,-3.603848219E0,-8.461990356E0,6.265721321E-1
1.805995313E0,-3.599059820E0,-8.583826065E0,6.879498959E-1
1.807996875E0,-3.614622116E0,-8.696660042E0,6.695050001E-1
1.809995313E0,-3.658052921E0,-8.784766197E0,5.944036841E-1
1.811995313E0,-3.692376137E0,-8.860739708E0,5.283332467E-1
1.814462500E0,-3.742185116E0,-8.916380882E0,5.311201215E-1
1.816359375E0,-3.799416304E0,-8.942716599E0,5.853152871E-1
1.818017188E0,-3.817679167E0,-8.961066246E0,6.299240589E-1
1.819996875E0,-3.773731232E0,-8.989413261E0,6.395104527E-1
1.821995313E0,-3.701493502E0,-9.030795097E0,6.181254387E-1
1.823995313E0,-3.620195866E0,-9.080746651E0,5.722429156E-1
1.825995313E0,-3.560666323E0,-9.133726120E0,5.148299336E-1
1.827995313E0,-3.522493124E0,-9.174198151E0,4.720982611E-1
1.829996875E0,-3.484415770E0,-9.203914642E0,4.449671507E-1
1.831995313E0,-3.452869892E0,-9.212773323E0,4.501865208E-1
1.834459375E0,-3.432317972E0,-9.215128899E0,4.894322753E-1
1.836359375E0,-3.413058996E0,-9.210311890E0,5.473911166E-1
1.838009375E0,-3.375671148E0,-9.174581528E0,6.351146698E-1
1.839995313E0,-3.329290867E0,-9.138974190E0,7.419822216E-1
1.841996875E0,-3.278246403E0,-9.092823029E0,8.491946459E-1
1.844014063E0,-3.216054440E0,-9.037891388E0,9.638385773E-1
1.845995313E0,-3.163726807E0,-8.983571053E0,1.091526151E0
1.847996875E0,-3.142590761E0,-8.926004410E0,1.208995223E0
1.849996875E0,-3.102578878E0,-8.873534203E0,1.283071876E0
1.851995313E0,-3.027305126E0,-8.828848839E0,1.334164023E0
1.854457813E0,-2.947932720E0,-8.782448769E0,1.417309880E0
1.856043750E0,-2.843583822E0,-8.730772018E0,1.493187070E0
1.857995313E0,-2.729418755E0,-8.669078827E0,1.522520781E0
1.859995313E0,-2.662122488E0,-8.612421989E0,1.516947031E0
1.861995313E0,-2.615808964E0,-8.554348946E0,1.450656414E0
1.863995313E0,-2.533103704E0,-8.507959366E0,1.364618421E0
1.865995313E0,-2.460415840E0,-8.463580132E0,1.279624104E0
1.867996875E0,-2.402112007E0,-8.423117638E0,1.182908058E0
1.869995313E0,-2.333954096E0,-8.394664764E0,1.064404607E0
1.871995313E0,-2.270364046E0,-8.369669914E0,9.523081183E-1
1.874500000E0,-2.201717615E0,-8.355409622E0,8.516463041E-1
1.876042188E0,-2.152195692E0,-8.350477219E0,7.723503709E-1
1.877995313E0,-2.094897747E0,-8.344759941E0,6.964637041E-1
1.879996875E0,-2.025552034E0,-8.338180542E0,6.309966445E-1
1.881995313E0,-1.997511268E0,-8.331342697E0,5.625607967E-1
1.883995313E0,-1.969556570E0,-8.310340881E0,5.024471879E-1
1.885995313E0,-1.952653408E0,-8.300611496E0,4.328525066E-1
1.887996875E0,-1.948621631E0,-8.297106743E0,3.534416258E-1
1.889996875E0,-1.944197178E0,-8.293179512E0,2.752757370E-1
1.891995313E0,-1.928969979E0,-8.304403305E0,2.071559131E-1
1.894457813E0,-1.919364452E0,-8.305045128E0,1.504612118E-1
1.896042188E0,-1.933777571E0,-8.295869827E0,9.924444556E-2
1.897995313E0,-1.963130474E0,-8.304930687E0,6.705679744E-2
1.899996875E0,-1.999771357E0,-8.305859566E0,2.578076348E-2
1.901996875E0,-2.036852837E0,-8.302545547E0,-6.014234386E-3
1.903996875E0,-2.060545683E0,-8.300372124E0,-2.945825830E-2
1.905996875E0,-2.077956200E0,-8.315014839E0,-4.940674454E-2
1.907996875E0,-2.106590986E0,-8.332932472E0,-5.816952512E-2
1.909996875E0,-2.115430355E0,-8.347269058E0,-7.535989583E-2
1.911996875E0,-2.124289036E0,-8.359642982E0,-6.417418271E-2
1.914462500E0,-2.111839056E0,-8.372694969E0,-4.886086658E-2
1.916373438E0,-2.087399244E0,-8.385480881E0,-4.392881319E-2
1.917995313E0,-2.073235035E0,-8.396590233E0,-4.481945559E-2
1.919998438E0,-2.044715405E0,-8.394463539E0,-6.578309089E-2
1.921996875E0,-2.020246506E0,-8.405936241E0,-9.159258008E-2
1.923996875E0,-1.989437938E0,-8.423596382E0,-1.408748329E-1
1.925996875E0,-1.953170538E0,-8.432962418E0,-1.811740249E-1
1.927996875E0,-1.933269978E0,-8.431066513E0,-2.118676901E-1
1.929996875E0,-1.907556295E0,-8.437167168E0,-2.345168442E-1
1.931996875E0,-1.873481989E0,-8.441207886E0,-2.530671358E-1
1.934457813E0,-1.799003124E0,-8.441754341E0,-2.794416547E-1
1.936042188E0,-1.748753667E0,-8.442913055E0,-2.992560863E-1
1.937995313E0,-1.704010844E0,-8.454730034E0,-3.184000850E-1
1.939996875E0,-1.686092615E0,-8.464011192E0,-3.385879993E-1
1.941996875E0,-1.672273278E0,-8.472456932E0,-3.546674550E-1
1.943996875E0,-1.655657530E0,-8.475560188E0,-3.683335483E-1
1.945996875E0,-1.639424801E0,-8.475176811E0,-3.709097207E-1
1.947996875E0,-1.621870518E0,-8.486075401E0,-3.752959073E-1
1.949996875E0,-1.622110009E0,-8.510141373E0,-3.889237046E-1
1.951996875E0,-1.650725484E0,-8.540289879E0,-3.894695640E-1
1.954457813E0,-1.676707268E0,-8.571864128E0,-3.858112395E-1
1.956045313E0,-1.673077703E0,-8.597511292E0,-3.938270211E-1
1.957995313E0,-1.660828948E0,-8.611291885E0,-4.182479084E-1
1.959996875E0,-1.672254205E0,-8.615352631E0,-4.311670065E-1
1.961996875E0,-1.741571069E0,-8.626079559E0,-4.277767837E-1
1.963996875E0,-1.796551466E0,-8.630589485E0,-3.685825467E-1
1.965996875E0,-1.822006583E0,-8.622258186E0,-2.768654823E-1
1.967996875E0,-1.891448140E0,-8.602127075E0,-1.388636976E-1
1.969996875E0,-1.827810168E0,-8.603534698E0,5.196375400E-2
1.971996875E0,-1.721574664E0,-8.648047447E0,2.249017358E-1
1.974460938E0,-1.803820372E0,-8.685292244E0,2.541588843E-1
1.976042188E0,-1.950402975E0,-8.701716423E0,1.763664633E-1
1.977995313E0,-2.103200912E0,-8.726012230E0,9.700348228E-2
1.979996875E0,-2.219817638E0,-8.755422592E0,1.750640385E-2
1.981996875E0,-2.292132139E0,-8.792380333E0,-9.014648199E-2
1.983996875E0,-2.317960739E0,-8.848720551E0,-2.111685872E-1
1.985996875E0,-2.327077866E0,-8.909571648E0,-3.207463920E-1
1.987996875E0,-2.329558372E0,-8.952312469E0,-4.285716712E-1
1.989996875E0,-2.325574160E0,-8.984003067E0,-5.325949788E-1
1.991996875E0,-2.295033932E0,-9.011592865E0,-6.153960824E-1
1.994460938E0,-2.259695530E0,-9.031589508E0,-6.527264118E-1
1.996360938E0,-2.219817638E0,-9.048559189E0,-6.625713706E-1
1.998009375E0,-2.159962654E0,-9.049440384E0,-6.465302110E-1
2.000071875E0,-2.103267908E0,-9.049804688E0,-6.335824132E-1
2.001843750E0,-2.020131588E0,-9.040370941E0,-6.157886982E-1
2.003996875E0,-1.975130200E0,-9.035363197E0,-6.066811681E-1
2.005996875E0,-1.880358100E0,-9.031801224E0,-5.984163284E-1
2.007996875E0,-1.798658490E0,-9.021965027E0,-5.997570753E-1
2.009996875E0,-1.732003808E0,-9.020605087E0,-5.902090669E-1
2.011996875E0,-1.666766644E0,-9.013239861E0,-5.726834536E-1
2.014464063E0,-1.607486248E0,-9.014618874E0,-5.417025089E-1
2.016004688E0,-1.577252150E0,-9.025325775E0,-5.190916657E-1
2.017995313E0,-1.553013325E0,-9.038494110E0,-5.123112798E-1
2.019996875E0,-1.528065681E0,-9.063796997E0,-4.956093132E-1
2.021996875E0,-1.501202703E0,-9.090343475E0,-4.750670791E-1
2.023996875E0,-1.444172859E0,-9.116382599E0,-4.377271235E-1
2.025996875E0,-1.417482257E0,-9.158769608E0,-4.074164927E-1
2.027996875E0,-1.371762753E0,-9.219237328E0,-3.916243613E-1
2.029996875E0,-1.358470082E0,-9.274169922E0,-3.885693550E-1
2.031996875E0,-1.379701734E0,-9.313473701E0,-3.792990148E-1
2.034460938E0,-1.395666361E0,-9.338909149E0,-3.854185939E-1
2.036042188E0,-1.395924926E0,-9.358666420E0,-4.021301270E-1
2.037995313E0,-1.405750751E0,-9.368099213E0,-4.247313738E-1
2.039996875E0,-1.389709592E0,-9.366203308E0,-4.324406981E-1
2.041996875E0,-1.361534715E0,-9.361923218E0,-4.274894893E-1
2.043996875E0,-1.316121459E0,-9.361175537E0,-4.365587533E-1
2.045996875E0,-1.259206414E0,-9.380376816E0,-4.381484985E-1
2.047996875E0,-1.206083894E0,-9.403370857E0,-4.440094829E-1
2.049996875E0,-1.149456143E0,-9.421403885E0,-4.554825127E-1
2.051996875E0,-1.078291059E0,-9.436324120E0,-4.666586220E-1
2.054459375E0,-1.017344236E0,-9.440097809E0,-4.784764051E-1
2.056045313E0,-9.761160016E-1,-9.456694603E0,-4.859750569E-1
2.057995313E0,-9.039643407E-1,-9.464307785E0,-4.784189463E-1
2.059996875E0,-8.448563218E-1,-9.478327751E0,-4.880819619E-1
2.061996875E0,-7.863994837E-1,-9.474162102E0,-4.825370014E-1
2.063996875E0,-7.398274541E-1,-9.451148987E0,-4.663617611E-1
2.065996875E0,-6.880935431E-1,-9.430501938E0,-4.358404875E-1
2.067996875E0,-6.221189499E-1,-9.422849655E0,-3.975045085E-1
2.069996875E0,-5.468261242E-1,-9.412813187E0,-3.443915546E-1
2.071996875E0,-4.974863827E-1,-9.390365601E0,-2.841342688E-1
2.074503125E0,-4.736784399E-1,-9.362909317E0,-1.983739734E-1
2.076206250E0,-4.453119636E-1,-9.348697662E0,-1.190301254E-1
2.078001563E0,-4.198950827E-1,-9.336419106E0,-5.296931788E-2
2.080004688E0,-4.143692553E-1,-9.306070328E0,9.653421119E-3
2.081996875E0,-4.524275064E-1,-9.247201920E0,8.041644841E-2
2.083996875E0,-5.011734366E-1,-9.169878960E0,1.927140802E-1
2.085996875E0,-5.607603192E-1,-9.105924606E0,3.043222129E-1
2.087996875E0,-6.181350350E-1,-9.040103912E0,4.298070967E-1
2.089996875E0,-6.994516850E-1,-8.979903221E0,5.592089295E-1
2.091995313E0,-8.117301464E-1,-8.925843239E0,6.700508595E-1
2.094457813E0,-8.982086778E-1,-8.876378059E0,7.711532116E-1
2.096043750E0,-1.014940381E0,-8.793509483E0,8.666052222E-1
2.097995313E0,-1.125839829E0,-8.700069427E0,9.640396833E-1
2.099996875E0,-1.203823686E0,-8.606677055E0,1.070878506E0
2.101996875E0,-1.273370504E0,-8.505804062E0,1.167336226E0
2.103996875E0,-1.365767598E0,-8.363865852E0,1.271426439E0
2.105995313E0,-1.461123824E0,-8.228736877E0,1.361094117E0
2.108035938E0,-1.549287915E0,-8.102093697E0,1.431866646E0
2.109996875E0,-1.649049520E0,-7.982910156E0,1.482326865E0
2.111996875E0,-1.744980335E0,-7.872546673E0,1.519398689E0
2.114462500E0,-1.853160024E0,-7.744562626E0,1.560310841E0
2.116042188E0,-1.938996911E0,-7.618943214E0,1.617532253E0
2.117995313E0,-2.029363632E0,-7.494579315E0,1.691991925E0
2.119996875E0,-2.132457972E0,-7.373873234E0,1.759776592E0
2.121996875E0,-2.229222059E0,-7.269275188E0,1.831497312E0
2.123996875E0,-2.321657419E0,-7.161449909E0,1.913580060E0
2.125996875E0,-2.408729792E0,-7.069847584E0,2.001236677E0
2.127996875E0,-2.460492373E0,-6.966389656E0,2.083482265E0
2.129996875E0,-2.530910730E0,-6.876990318E0,2.171061993E0
2.131996875E0,-2.582089186E0,-6.787475586E0,2.245665550E0
2.134465625E0,-2.611307859E0,-6.672362328E0,2.324875355E0
2.136040625E0,-2.654681206E0,-6.551962852E0,2.436081171E0
2.137995313E0,-2.700659513E0,-6.435901165E0,2.560024261E0
2.139998438E0,-2.684895992E0,-6.321870804E0,2.661758661E0
2.141996875E0,-2.665972471E0,-6.219839573E0,2.724199295E0
2.143996875E0,-2.630011559E0,-6.131541252E0,2.793305635E0
2.145996875E0,-2.555005789E0,-6.030381203E0,2.851254940E0
2.148023438E0,-2.498895168E0,-5.959474564E0,2.893957853E0
2.149995313E0,-2.456690311E0,-5.960643291E0,2.922391415E0
2.151995313E0,-2.406670570E0,-5.948317528E0,2.934735775E0
2.154620313E0,-2.368564606E0,-5.932515621E0,2.936038256E0
2.156234375E0,-2.326378584E0,-5.942350864E0,2.953439474E0
2.157998438E0,-2.289172888E0,-5.969999313E0,2.981432438E0
2.160053125E0,-2.266351223E0,-6.030141830E0,3.004081488E0
2.162021875E0,-2.240915298E0,-6.097955227E0,3.052702904E0
2.164179688E0,-2.207693338E0,-6.184175491E0,3.108698368E0
2.166056250E0,-2.166015148E0,-6.314275742E0,3.145023346E0
2.167996875E0,-2.109243870E0,-6.474103451E0,3.165134668E0
2.169996875E0,-2.045701742E0,-6.662201881E0,3.157990217E0
2.171996875E0,-1.977150917E0,-6.862567425E0,3.158555508E0
2.174478125E0,-1.863062382E0,-7.085582733E0,3.158421278E0
2.176054688E0,-1.708138466E0,-7.282079697E0,3.152991295E0
2.177995313E0,-1.552812099E0,-7.475990772E0,3.158411503E0
2.179996875E0,-1.392640114E0,-7.671251774E0,3.177431107E0
2.182025000E0,-1.243328094E0,-7.883866787E0,3.203700542E0
2.183996875E0,-1.111283064E0,-8.102783203E0,3.224798203E0
2.185996875E0,-9.971658587E-1,-8.295487404E0,3.259887695E0
2.187996875E0,-9.030929208E-1,-8.464393616E0,3.283437014E0
2.190034375E0,-8.368405104E-1,-8.626423836E0,3.297850132E0
2.191996875E0,-7.578414083E-1,-8.766312599E0,3.295829296E0
2.194503125E0,-6.881510019E-1,-8.909284592E0,3.271791458E0
2.196050000E0,-6.085677743E-1,-9.070202827E0,3.223399878E0
2.198010938E0,-5.793201923E-1,-9.236724854E0,3.162587166E0
2.199996875E0,-5.840511322E-1,-9.389053345E0,3.083923340E0
2.201996875E0,-6.027642488E-1,-9.538097382E0,2.984276533E0
2.203996875E0,-6.283151507E-1,-9.667949677E0,2.836745739E0
2.205996875E0,-7.030621171E-1,-9.769463539E0,2.651319742E0
2.207996875E0,-8.736824989E-1,-9.847628593E0,2.417176485E0
2.209996875E0,-1.085550189E0,-9.885611534E0,2.141153812E0
2.211996875E0,-1.312520504E0,-9.897227287E0,1.837473154E0
2.214464063E0,-1.546108365E0,-9.909638405E0,1.508471608E0
2.216053125E0,-1.744472742E0,-9.947926521E0,1.172497988E0
2.217995313E0,-1.946064591E0,-9.996606827E0,8.576318026E-1
2.219996875E0,-2.115995407E0,-1.004713345E1,5.773856640E-1
2.221996875E0,-2.262894154E0,-1.011121178E1,3.434242904E-1
2.224037500E0,-2.401805639E0,-1.017405510E1,1.379826367E-1
2.225996875E0,-2.532663107E0,-1.022949505E1,-2.355894446E-2
2.227996875E0,-2.643160343E0,-1.027406502E1,-1.515816897E-1
2.229996875E0,-2.730950832E0,-1.030732536E1,-2.503951788E-1
2.231998438E0,-2.823223352E0,-1.032674694E1,-3.545429707E-1
2.234460938E0,-2.928970814E0,-1.029904175E1,-4.710735381E-1
2.236170313E0,-3.033951759E0,-1.023503971E1,-5.897014737E-1
2.237995313E0,-3.125390768E0,-1.014448166E1,-7.219954729E-1
2.240009375E0,-3.201449871E0,-1.006269550E1,-8.649485111E-1
2.241996875E0,-3.254112720E0,-9.964839935E0,-1.007623672E0
2.243996875E0,-3.315701246E0,-9.875632286E0,-1.170276284E0
2.245996875E0,-3.375307083E0,-9.792304039E0,-1.346460700E0
2.247996875E0,-3.432145596E0,-9.710134506E0,-1.549498677E0
2.250003125E0,-3.437365055E0,-9.617469788E0,-1.767505050E0
2.251996875E0,-3.442497969E0,-9.547539711E0,-1.970878005E0
2.254459375E0,-3.418354988E0,-9.509626389E0,-2.153967619E0
2.256046875E0,-3.387929440E0,-9.512507439E0,-2.324358225E0
2.257995313E0,-3.357446432E0,-9.539419174E0,-2.467818499E0
2.259996875E0,-3.321016312E0,-9.590089798E0,-2.573402882E0
2.261996875E0,-3.322596550E0,-9.660364151E0,-2.623547077E0
2.263995313E0,-3.350924730E0,-9.720516205E0,-2.655026197E0
2.265995313E0,-3.374464512E0,-9.768908501E0,-2.663357973E0
2.267996875E0,-3.408538818E0,-9.823380470E0,-2.642930508E0
2.269996875E0,-3.399220467E0,-9.858911514E0,-2.607601881E0
2.271996875E0,-3.339920998E0,-9.875144005E0,-2.527281046E0
2.274465625E0,-3.304027081E0,-9.884835243E0,-2.449622631E0
2.276012500E0,-3.306526661E0,-9.955752373E0,-2.365184069E0
2.277995313E0,-3.344527245E0,-1.007083607E1,-2.287774563E0
2.279996875E0,-3.438858986E0,-1.020883751E1,-2.237448454E0
2.281996875E0,-3.576698065E0,-1.036732388E1,-2.205366135E0
2.283996875E0,-3.688641071E0,-1.056923199E1,-2.219779253E0
2.286001563E0,-3.808111906E0,-1.080230236E1,-2.245914221E0
2.287996875E0,-3.965822697E0,-1.106605721E1,-2.277259350E0
2.289996875E0,-4.135274887E0,-1.135208797E1,-2.330956459E0
2.291996875E0,-4.256900311E0,-1.163122368E1,-2.397314310E0
2.294459375E0,-4.301164150E0,-1.190945816E1,-2.466784477E0
2.296040625E0,-4.311545372E0,-1.218432236E1,-2.494633675E0
2.297995313E0,-4.334481716E0,-1.243217945E1,-2.498014450E0
2.299996875E0,-4.325833797E0,-1.266951180E1,-2.500676870E0
2.301996875E0,-4.293445110E0,-1.289720058E1,-2.487843752E0
2.303996875E0,-4.160806656E0,-1.310542870E1,-2.458222628E0
2.305995313E0,-3.972737312E0,-1.328751278E1,-2.402686834E0
2.307996875E0,-3.773951530E0,-1.345420742E1,-2.327872753E0
2.309998438E0,-3.508358002E0,-1.365093327E1,-2.269032717E0
2.311996875E0,-3.197398901E0,-1.385975552E1,-2.218831301E0
2.314506250E0,-2.889437437E0,-1.407221794E1,-2.177631855E0
2.316212500E0,-2.635623455E0,-1.426760387E1,-2.172488928E0
2.317995313E0,-2.429875135E0,-1.445277023E1,-2.162682295E0
2.320037500E0,-2.220143318E0,-1.464856815E1,-2.185178280E0
2.321996875E0,-2.022822857E0,-1.482806683E1,-2.226933002E0
2.323996875E0,-1.814345241E0,-1.500103283E1,-2.301191568E0
2.325996875E0,-1.672148824E0,-1.517152977E1,-2.409773588E0
2.327996875E0,-1.610981703E0,-1.534371090E1,-2.544959784E0
2.329996875E0,-1.599719405E0,-1.550621033E1,-2.689990997E0
2.331996875E0,-1.605111122E0,-1.564403057E1,-2.842702627E0
2.334457813E0,-1.621707797E0,-1.577101898E1,-2.993479967E0
2.336042188E0,-1.578746200E0,-1.586529255E1,-3.161361217E0
2.337995313E0,-1.486416101E0,-1.593486786E1,-3.355004311E0
2.339996875E0,-1.349889278E0,-1.596760178E1,-3.592346430E0
2.341996875E0,-1.251047015E0,-1.595563126E1,-3.872429609E0
2.343996875E0,-1.142005444E0,-1.589411926E1,-4.157406807E0
2.345996875E0,-1.087886930E0,-1.577788448E1,-4.428363323E0
2.347996875E0,-1.087408066E0,-1.560759926E1,-4.668923378E0
2.349842188E0,-1.125619531E0,-1.537083244E1,-4.876031399E0
2.351996875E0,-1.154742718E0,-1.523564625E1,-4.955575943E0
2.354459375E0,-1.242609859E0,-1.492710018E1,-5.072892189E0
2.356189063E0,-1.338310957E0,-1.458434677E1,-5.160031319E0
2.357842188E0,-1.432824373E0,-1.400416470E1,-5.187047482E0
2.359996875E0,-1.474253654E0,-1.380752468E1,-5.182058334E0
2.361996875E0,-1.612264991E0,-1.342165565E1,-5.104533672E0
2.363996875E0,-1.761797190E0,-1.306317711E1,-4.816319942E0
2.365996875E0,-1.844943166E0,-1.269836712E1,-4.348377705E0
2.367996875E0,-1.847998023E0,-1.232852077E1,-3.828740120E0
2.369996875E0,-1.874487519E0,-1.197015667E1,-3.415539265E0
2.371996875E0,-1.908628941E0,-1.161313248E1,-3.059674740E0
2.374459375E0,-1.948276877E0,-1.129392910E1,-2.709728718E0
2.376040625E0,-1.978970408E0,-1.099529457E1,-2.341998577E0
2.377995313E0,-1.982542634E0,-1.072441483E1,-1.947051048E0
2.379996875E0,-1.965840697E0,-1.046237373E1,-1.482575893E0
2.381996875E0,-1.917966366E0,-1.018710804E1,-9.694793224E-1
2.383996875E0,-1.858331442E0,-9.934165001E0,-5.109609365E-1
2.385996875E0,-1.802240133E0,-9.716781616E0,-1.625950336E-1
2.387996875E0,-1.806501865E0,-9.521060944E0,7.481402159E-2
2.389996875E0,-1.879735589E0,-9.358043671E0,1.921394765E-1
2.391996875E0,-1.993613362E0,-9.211911201E0,2.277173102E-1
2.394460938E0,-2.091564894E0,-9.077070236E0,2.541588843E-1
2.396171875E0,-2.208287001E0,-8.991347313E0,2.101055533E-1
2.397995313E0,-2.319684505E0,-8.937056541E0,7.741890848E-2
2.400001563E0,-2.378878832E0,-8.880314827E0,-1.231098473E-1
2.401996875E0,-2.399497509E0,-8.766522408E0,-2.989687622E-1
2.403996875E0,-2.440170527E0,-8.614605904E0,-3.640527427E-1
2.405996875E0,-2.504210472E0,-8.466577530E0,-3.060843349E-1
2.407996875E0,-2.564410448E0,-8.354671478E0,-2.502898276E-1
2.409996875E0,-2.599461317E0,-8.284387589E0,-2.434328496E-1
2.411996875E0,-2.636830091E0,-8.226448059E0,-2.597421706E-1
2.414495313E0,-2.633095264E0,-8.172722816E0,-2.900910676E-1
2.416043750E0,-2.597210884E0,-8.134587288E0,-3.047914505E-1
2.417995313E0,-2.546013117E0,-8.102869034E0,-2.864231169E-1
2.419996875E0,-2.490908146E0,-8.063815117E0,-2.473593503E-1
2.421996875E0,-2.408519030E0,-8.024683952E0,-1.710130423E-1
2.424042188E0,-2.318678856E0,-7.976886272E0,-7.950665057E-2
2.425996875E0,-2.231099129E0,-7.919885159E0,3.030101582E-2
2.427996875E0,-2.130207539E0,-7.842159748E0,1.543398201E-1
2.429996875E0,-2.041200638E0,-7.768092632E0,2.656318843E-1
2.432406250E0,-1.959318876E0,-7.702577591E0,3.593792319E-1
2.434357813E0,-1.832368731E0,-7.597472191E0,4.904282689E-1
2.436029688E0,-1.774247050E0,-7.562287331E0,5.278448462E-1
2.437995313E0,-1.663596630E0,-7.492069721E0,5.863591433E-1
2.440042188E0,-1.559295654E0,-7.432645798E0,6.356126666E-1
2.441996875E0,-1.485535145E0,-7.368098259E0,6.515580416E-1
2.443996875E0,-1.409916639E0,-7.334397316E0,6.517974734E-1
2.445996875E0,-1.322269797E0,-7.334177017E0,6.192842126E-1
2.448001563E0,-1.221100330E0,-7.327042580E0,6.008871198E-1
2.449996875E0,-1.107193828E0,-7.340612888E0,5.938003659E-1
2.451996875E0,-1.015179753E0,-7.359727859E0,5.927564502E-1
2.454457813E0,-9.356349111E-1,-7.395765781E0,6.242353916E-1
2.456040625E0,-9.171133637E-1,-7.443946838E0,6.971628070E-1
2.457995313E0,-8.974521756E-1,-7.483747482E0,6.858334541E-1
2.459996875E0,-8.046050072E-1,-7.545413017E0,4.618702531E-1
2.461996875E0,-7.206643224E-1,-7.641027927E0,1.009682789E-1
2.463996875E0,-6.640557647E-1,-7.730379581E0,-2.093873024E-1
2.466012500E0,-6.328833103E-1,-7.821321011E0,-4.397478104E-1
2.467996875E0,-6.245514750E-1,-7.872509003E0,-5.871540308E-1
2.469996875E0,-5.998433232E-1,-7.935389996E0,-6.551493406E-1
2.471996875E0,-5.502258539E-1,-8.026101112E0,-6.761225462E-1
2.474495313E0,-5.083273053E-1,-8.120117188E0,-6.646878719E-1
2.476204688E0,-4.660840333E-1,-8.233563423E0,-6.414832473E-1
2.477995313E0,-4.159877598E-1,-8.341034889E0,-5.981290340E-1
2.480009375E0,-3.944495320E-1,-8.424219131E0,-5.333324075E-1
2.482026563E0,-3.506547809E-1,-8.498286247E0,-4.631631076E-1
2.483996875E0,-3.521008790E-1,-8.572985649E0,-4.224233627E-1
2.485996875E0,-3.868646920E-1,-8.651227951E0,-3.979546130E-1
2.487996875E0,-4.565646946E-1,-8.737582207E0,-3.975236714E-1
2.490006250E0,-5.053106546E-1,-8.836279869E0,-3.799406290E-1
2.491996875E0,-5.269446373E-1,-8.968257904E0,-3.615531921E-1
2.494460938E0,-5.446042418E-1,-9.108289719E0,-3.411641419E-1
2.496040625E0,-5.707585216E-1,-9.234120369E0,-3.033261895E-1
2.497995313E0,-5.886384249E-1,-9.360725403E0,-2.718089223E-1
2.499996875E0,-6.145341396E-1,-9.484151840E0,-2.384337634E-1
2.501995313E0,-6.685185432E-1,-9.565017700E0,-1.977514774E-1
2.503996875E0,-7.078217864E-1,-9.622622490E0,-1.524819136E-1
2.505996875E0,-7.225796580E-1,-9.693451881E0,-1.232439280E-1
2.507998438E0,-7.865144014E-1,-9.788176537E0,-1.286069304E-1
2.509996875E0,-8.982470036E-1,-9.872117043E0,-1.186183318E-1
2.511995313E0,-1.002318144E0,-9.935583115E0,-9.376651794E-2
2.514475000E0,-1.104904890E0,-9.984443665E0,-4.494395480E-2
2.516229688E0,-1.181260824E0,-1.003453064E1,1.408748236E-2
2.518003125E0,-1.255844951E0,-1.009057426E1,7.793605328E-2
2.520067188E0,-1.333254218E0,-1.013792229E1,1.210604161E-1
2.521996875E0,-1.389374375E0,-1.016324234E1,1.520318091E-1
2.524001563E0,-1.441462636E0,-1.020267963E1,1.705341935E-1
2.525996875E0,-1.506728649E0,-1.024914646E1,2.003084868E-1
2.527995313E0,-1.565721631E0,-1.029198360E1,2.281865627E-1
2.529996875E0,-1.643734336E0,-1.032749367E1,2.567829192E-1
2.532023438E0,-1.717351317E0,-1.033001232E1,2.785222828E-1
2.534460938E0,-1.794751048E0,-1.032386494E1,3.004340231E-1
2.536006250E0,-1.875598550E0,-1.031324387E1,3.090627193E-1
2.537995313E0,-1.945279241E0,-1.029632187E1,3.157090247E-1
2.540034375E0,-2.010823011E0,-1.026436424E1,3.347189724E-1
2.541995313E0,-2.114530325E0,-1.022987747E1,3.458855152E-1
2.543995313E0,-2.181328297E0,-1.022354794E1,3.324971497E-1
2.545996875E0,-2.203910589E0,-1.025095558E1,3.000509441E-1
2.547996875E0,-2.201238632E0,-1.025696087E1,2.856090963E-1
2.549996875E0,-2.177306175E0,-1.021607780E1,2.876489460E-1
2.551996875E0,-2.144524574E0,-1.013928127E1,2.940079570E-1
2.554460938E0,-2.114817619E0,-1.006375885E1,3.023685217E-1
2.556171875E0,-2.082294703E0,-9.985161781E0,3.212348223E-1
2.557995313E0,-2.037120819E0,-9.904372215E0,3.504440784E-1
2.560042188E0,-1.995854378E0,-9.815174103E0,3.758609295E-1
2.561996875E0,-1.945700645E0,-9.728962898E0,3.899005353E-1
2.563996875E0,-1.898199677E0,-9.636393547E0,4.073494971E-1
2.566020313E0,-1.870158792E0,-9.559864998E0,4.251336157E-1
2.567996875E0,-1.840547323E0,-9.487043381E0,4.311478138E-1
2.569996875E0,-1.817610860E0,-9.414345741E0,4.397765398E-1
2.571996875E0,-1.778231025E0,-9.358416557E0,4.480413198E-1
2.574495313E0,-1.752182126E0,-9.297843933E0,4.583459795E-1
2.576043750E0,-1.735796213E0,-9.245957375E0,4.562103450E-1
2.577995313E0,-1.701539993E0,-9.196071625E0,4.516134560E-1
2.579996875E0,-1.665732265E0,-9.158243179E0,4.559517801E-1
2.582028125E0,-1.623469830E0,-9.116727829E0,4.603283703E-1
2.583996875E0,-1.574072719E0,-9.087728500E0,4.621383846E-1
2.585996875E0,-1.535487771E0,-9.050034523E0,4.746361077E-1
2.587996875E0,-1.504621744E0,-9.019417763E0,4.776432514E-1
2.589996875E0,-1.472041368E0,-9.010069847E0,4.706234336E-1
2.591996875E0,-1.446557522E0,-9.008404732E0,4.497747123E-1
2.594492188E0,-1.418372869E0,-9.014207840E0,4.370663166E-1
2.596039063E0,-1.376618028E0,-9.005674362E0,4.408203959E-1
2.597995313E0,-1.317931414E0,-8.985572815E0,4.629141092E-1
2.599996875E0,-1.277833343E0,-8.976178169E0,4.854100347E-1
2.601996875E0,-1.245588303E0,-8.970777512E0,5.106832385E-1
2.603995313E0,-1.221646190E0,-8.955625534E0,5.518156290E-1
2.605996875E0,-1.195750475E0,-8.935084343E0,6.134614944E-1
2.607996875E0,-1.161666632E0,-8.911304474E0,6.855844855E-1
2.609996875E0,-1.116138577E0,-8.884490013E0,7.633481622E-1
2.611996875E0,-1.072516084E0,-8.846604347E0,8.484763503E-1
2.614465625E0,-1.035300612E0,-8.824873924E0,9.353284240E-1
2.616109375E0,-9.977309108E-1,-8.800922394E0,1.018081546E0
2.617995313E0,-9.651889205E-1,-8.774538040E0,1.098411918E0
2.619996875E0,-9.356635809E-1,-8.747617722E0,1.180580854E0
2.621996875E0,-8.965231776E-1,-8.729269028E0,1.269558907E0
2.623996875E0,-8.621233106E-1,-8.714013100E0,1.350923419E0
2.625996875E0,-8.401157856E-1,-8.691411972E0,1.426312089E0
2.627996875E0,-7.970393300E-1,-8.664070129E0,1.492162228E0
2.629996875E0,-7.565006614E-1,-8.642187119E0,1.555991650E0
2.631996875E0,-7.006296515E-1,-8.619278908E0,1.619016647E0
2.634457813E0,-6.352774501E-1,-8.601657867E0,1.682865262E0
2.636359375E0,-5.535202622E-1,-8.574756622E0,1.745612383E0
2.638017188E0,-4.798075855E-1,-8.543631554E0,1.816643715E0
2.640000000E0,-4.131625891E-1,-8.509250641E0,1.890174270E0
2.641996875E0,-3.598963916E-1,-8.477945328E0,1.959998846E0
2.643996875E0,-3.149333000E-1,-8.455717087E0,2.027936697E0
2.645996875E0,-2.472157031E-1,-8.437252998E0,2.087935209E0
2.647995313E0,-1.878586411E-1,-8.411672592E0,2.134766102E0
2.649995313E0,-1.403002143E-1,-8.382445335E0,2.182238340E0
2.651995313E0,-9.359413385E-2,-8.356089592E0,2.221512794E0
2.654457813E0,-6.859866530E-2,-8.356625557E0,2.260317802E0
2.656040625E0,-5.071876943E-2,-8.354183197E0,2.299132824E0
2.657995313E0,-2.493800595E-2,-8.340670586E0,2.335812092E0
2.659996875E0,2.595314756E-3,-8.338621140E0,2.373486996E0
2.661996875E0,4.447469115E-2,-8.335528374E0,2.408949852E0
2.663995313E0,6.945100427E-2,-8.335327148E0,2.450312138E0
2.666023438E0,8.204450458E-2,-8.355601311E0,2.489950657E0
2.667995313E0,1.027304083E-1,-8.370329857E0,2.521036863E0
2.669995313E0,1.353106946E-1,-8.395067215E0,2.544394732E0
2.671995313E0,1.758110225E-1,-8.407555580E0,2.566756487E0
2.674457813E0,2.278034985E-1,-8.429610252E0,2.578315973E0
2.676040625E0,2.588036060E-1,-8.447328568E0,2.611767530E0
2.677995313E0,3.028665185E-1,-8.456770897E0,2.658856630E0
2.679996875E0,3.083827496E-1,-8.501331329E0,2.694827080E0
2.681995313E0,3.238780200E-1,-8.557958603E0,2.735384941E0
2.683996875E0,3.493044376E-1,-8.612277985E0,2.783776522E0
2.685995313E0,3.747404516E-1,-8.662461281E0,2.857297897E0
2.687995313E0,4.242812693E-1,-8.705269814E0,2.924775839E0
2.689995313E0,4.891832769E-1,-8.740904808E0,2.984018087E0
2.691996875E0,5.312063098E-1,-8.791431427E0,3.041814327E0
2.694460938E0,5.287929773E-1,-8.853364944E0,3.123121023E0
2.696006250E0,5.378239155E-1,-8.916016579E0,3.205807447E0
2.697995313E0,5.313787460E-1,-8.979137421E0,3.307963133E0
2.699996875E0,5.293675661E-1,-9.039663315E0,3.394039631E0
2.701995313E0,5.479944348E-1,-9.108826637E0,3.447028160E0
2.703842188E0,5.610284805E-1,-9.171698570E0,3.481868505E0
2.705996875E0,5.671097636E-1,-9.212906837E0,3.499307871E0
2.707996875E0,5.573988557E-1,-9.308847427E0,3.520175457E0
2.709996875E0,5.542864203E-1,-9.405975342E0,3.511096716E0
2.711996875E0,5.227787495E-1,-9.525139809E0,3.491464376E0
2.714465625E0,4.627417326E-1,-9.664396286E0,3.454095602E0
2.716173438E0,4.452736080E-1,-9.789335251E0,3.400475025E0
2.717995313E0,4.242046475E-1,-9.895196915E0,3.314331770E0
2.720029688E0,3.765600324E-1,-1.001377773E1,3.216246128E0
2.721996875E0,2.960956991E-1,-1.014081383E1,3.113707304E0
2.723996875E0,2.104216069E-1,-1.027766609E1,3.020294905E0
2.725995313E0,1.481915116E-1,-1.042419147E1,2.910075426E0
2.727996875E0,7.307104021E-2,-1.055698299E1,2.784667253E0
2.729996875E0,-2.269703196E-3,-1.068992901E1,2.665158272E0
2.731996875E0,-8.646898717E-2,-1.082110214E1,2.570625782E0
2.734460938E0,-1.974067241E-1,-1.094045830E1,2.509161711E0
2.736040625E0,-3.014395833E-1,-1.105119419E1,2.469810486E0
2.737995313E0,-3.987973928E-1,-1.115631962E1,2.450513363E0
2.739996875E0,-4.664862752E-1,-1.125452900E1,2.432489634E0
2.741996875E0,-5.379483700E-1,-1.134448433E1,2.432307959E0
2.743995313E0,-6.535882950E-1,-1.142474747E1,2.448693752E0
2.745995313E0,-7.561367750E-1,-1.150523090E1,2.471304655E0
2.747996875E0,-8.167867064E-1,-1.157155037E1,2.493082285E0
2.749996875E0,-8.708094358E-1,-1.163856792E1,2.502419710E0
2.751996875E0,-9.211451411E-1,-1.171351624E1,2.508979797E0
2.754459375E0,-9.454989433E-1,-1.179232407E1,2.502630472E0
2.756039063E0,-9.552289844E-1,-1.186766529E1,2.512389183E0
2.757995313E0,-9.781175852E-1,-1.194208717E1,2.571554661E0
2.759996875E0,-1.005919099E0,-1.201037884E1,2.631831169E0
2.761996875E0,-1.010898948E0,-1.205900002E1,2.693208694E0
2.763996875E0,-9.755318761E-1,-1.211280251E1,2.773060083E0
2.765996875E0,-9.634746909E-1,-1.215396404E1,2.878213644E0
2.767996875E0,-9.631202817E-1,-1.221195126E1,2.978003979E0
2.769996875E0,-9.157438278E-1,-1.226149178E1,3.047110081E0
2.771995313E0,-8.690664768E-1,-1.228542519E1,3.110441446E0
2.774460938E0,-7.845990658E-1,-1.230157089E1,3.147130489E0
2.776001563E0,-6.752223372E-1,-1.232137585E1,3.194976091E0
2.777995313E0,-5.797415972E-1,-1.233574104E1,3.209168673E0
2.779996875E0,-4.691677690E-1,-1.234346962E1,3.169654846E0
2.781995313E0,-3.449374437E-1,-1.237308121E1,3.121090889E0
2.783996875E0,-1.813751310E-1,-1.240175438E1,3.018494606E0
2.785996875E0,2.396116965E-2,-1.243253422E1,2.837952614E0
2.787996875E0,2.103832811E-1,-1.249309731E1,2.592786312E0
2.789996875E0,3.681707382E-1,-1.256897449E1,2.327470541E0
2.791996875E0,4.962318242E-1,-1.266862106E1,2.092905760E0
2.794460938E0,5.946143866E-1,-1.278094864E1,1.891026735E0
2.796360938E0,6.603687406E-1,-1.290072441E1,1.690344691E0
2.798015625E0,6.664500237E-1,-1.301755238E1,1.479137778E0
2.800000000E0,6.268020272E-1,-1.313374805E1,1.282775044E0
2.801996875E0,5.328822732E-1,-1.323212147E1,1.084506392E0
2.803996875E0,3.897568882E-1,-1.332523632E1,8.582063317E-1
2.805996875E0,1.873319298E-1,-1.339680386E1,6.190543771E-1
2.807996875E0,-6.585970521E-2,-1.343381691E1,3.694923818E-1
2.809996875E0,-3.361554742E-1,-1.343521595E1,1.393999904E-1
2.811996875E0,-6.292344928E-1,-1.343614483E1,-7.996633649E-2
2.814476563E0,-9.871485233E-1,-1.343288898E1,-2.463537753E-1
2.816025000E0,-1.411065936E0,-1.341159916E1,-3.647231162E-1
2.817995313E0,-1.837061405E0,-1.338094425E1,-4.233810306E-1
2.819996875E0,-2.230103016E0,-1.335358334E1,-4.514219463E-1
2.821995313E0,-2.573862553E0,-1.332026577E1,-4.750862420E-1
2.823996875E0,-2.830348730E0,-1.329826736E1,-5.289748907E-1
2.825995313E0,-3.008592129E0,-1.328720570E1,-5.826241970E-1
2.827996875E0,-3.158162832E0,-1.327727509E1,-6.212187409E-1
2.829995313E0,-3.255443811E0,-1.325890732E1,-6.375088692E-1
2.831995313E0,-3.236079693E0,-1.322821426E1,-6.554366350E-1
2.834459375E0,-3.129604816E0,-1.315037346E1,-6.852205396E-1
2.836040625E0,-2.942579269E0,-1.302317429E1,-7.544417381E-1
2.837995313E0,-2.673719883E0,-1.284502602E1,-8.396848440E-1
2.839996875E0,-2.367760181E0,-1.262707710E1,-9.424822927E-1
2.841995313E0,-2.051495552E0,-1.236227798E1,-1.053199649E0
2.844790625E0,-1.764143586E0,-1.207235050E1,-1.165248394E0
2.845918750E0,-1.346920371E0,-1.159734058E1,-1.315680861E0
2.847996875E0,-1.215287209E0,-1.143304062E1,-1.348922014E0
2.850056250E0,-9.907110333E-1,-1.108532619E1,-1.410692334E0
2.851996875E0,-8.046816587E-1,-1.072839832E1,-1.462024093E0
2.854459375E0,-6.819835901E-1,-1.037831879E1,-1.516046882E0
2.856040625E0,-6.088837981E-1,-1.003247166E1,-1.552227974E0
2.857995313E0,-5.856791735E-1,-9.706974983E0,-1.554871202E0
2.859996875E0,-6.134998202E-1,-9.399894714E0,-1.511153102E0
2.861996875E0,-6.786795855E-1,-9.114122391E0,-1.442927837E0
2.864176563E0,-7.861695886E-1,-8.863410950E0,-1.361419678E0
2.866048438E0,-8.984960318E-1,-8.654005051E0,-1.309791088E0
2.867996875E0,-1.014202952E0,-8.469526291E0,-1.294161797E0
2.869996875E0,-1.133031964E0,-8.314870834E0,-1.304389715E0
2.871996875E0,-1.266685963E0,-8.196070671E0,-1.300118566E0
2.874459375E0,-1.385783076E0,-8.090543747E0,-1.307138324E0
2.876360938E0,-1.507858634E0,-8.003442764E0,-1.306372166E0
2.878015625E0,-1.654144406E0,-7.930611134E0,-1.312348127E0
2.879996875E0,-1.843918324E0,-7.865086555E0,-1.329404473E0
2.881996875E0,-2.076146603E0,-7.816838741E0,-1.385371327E0
2.883996875E0,-2.307751894E0,-7.785742760E0,-1.488436937E0
2.885996875E0,-2.518115997E0,-7.768130779E0,-1.598397851E0
2.887996875E0,-2.706932306E0,-7.777152538E0,-1.673298001E0
2.889996875E0,-2.882216454E0,-7.828876972E0,-1.714938045E0
2.891996875E0,-3.057558298E0,-7.901268005E0,-1.721450210E0
2.894457813E0,-3.231291294E0,-8.002054214E0,-1.706338048E0
2.896040625E0,-3.381666183E0,-8.125728607E0,-1.658185840E0
2.897995313E0,-3.511412859E0,-8.266814232E0,-1.592536688E0
2.899996875E0,-3.621498346E0,-8.419028282E0,-1.507983208E0
2.901995313E0,-3.699099064E0,-8.580636978E0,-1.397112370E0
2.903995313E0,-3.750516891E0,-8.742034912E0,-1.281185150E0
2.905995313E0,-3.802212715E0,-8.893759727E0,-1.159435272E0
2.907995313E0,-3.841716766E0,-9.032911301E0,-1.048602939E0
2.909995313E0,-3.867210388E0,-9.155005455E0,-9.542234540E-1
2.911995313E0,-3.879181385E0,-9.283344269E0,-8.664137125E-1
2.914460938E0,-3.902443409E0,-9.398284912E0,-7.747349143E-1
2.916007813E0,-3.926892996E0,-9.502797127E0,-6.626671553E-1
2.917995313E0,-3.944255829E0,-9.601782799E0,-5.146671534E-1
2.919995313E0,-3.944169760E0,-9.670525551E0,-3.340581656E-1
2.921995313E0,-3.945970058E0,-9.731606483E0,-1.209742203E-1
2.923995313E0,-3.940434456E0,-9.800703049E0,8.531977236E-2
2.925995313E0,-3.930580139E0,-9.877786636E0,2.667236328E-1
2.927995313E0,-3.921003103E0,-9.956930161E0,4.040646255E-1
2.929995313E0,-3.921108723E0,-1.003404236E1,5.114589334E-1
2.931995313E0,-3.902089119E0,-1.009810162E1,6.892236471E-1
2.934457813E0,-3.826269627E0,-1.013034630E1,9.438709021E-1
2.936040625E0,-3.789906263E0,-1.017456245E1,1.150730014E0
2.937995313E0,-3.770522833E0,-1.024110126E1,1.293510675E0
2.939995313E0,-3.705084562E0,-1.030779457E1,1.408518434E0
2.941995313E0,-3.601511478E0,-1.034986591E1,1.504401326E0
2.943995313E0,-3.469715357E0,-1.036233521E1,1.560358763E0
2.945995313E0,-3.344288111E0,-1.035206795E1,1.578142881E0
2.947996875E0,-3.245072365E0,-1.033999252E1,1.553367734E0
2.949995313E0,-3.161945581E0,-1.030719185E1,1.511832952E0
2.951995313E0,-3.054551363E0,-1.026551342E1,1.470011115E0
2.954460938E0,-2.939964771E0,-1.022406483E1,1.413900614E0
2.956170313E0,-2.832263947E0,-1.020275688E1,1.337276578E0
2.957995313E0,-2.721297503E0,-1.018168736E1,1.262146473E0
2.960007813E0,-2.608578682E0,-1.014456749E1,1.184890389E0
2.961995313E0,-2.514572620E0,-1.009348488E1,1.101907372E0
2.963995313E0,-2.438906193E0,-1.004048729E1,1.016635537E0
2.965995313E0,-2.364982843E0,-9.980641365E0,9.342845678E-1
2.967996875E0,-2.309581041E0,-9.905904770E0,8.628415465E-1
2.969996875E0,-2.271417379E0,-9.815413475E0,8.012243509E-1
2.971995313E0,-2.251353979E0,-9.708680153E0,7.444434762E-1
2.974459375E0,-2.206352472E0,-9.588672638E0,7.103500962E-1
2.976040625E0,-2.147972345E0,-9.461798668E0,6.921637058E-1
2.977995313E0,-2.095098972E0,-9.337491989E0,6.734985113E-1
2.979995313E0,-2.048440695E0,-9.228899956E0,6.297229528E-1
2.981995313E0,-2.010573864E0,-9.118556976E0,5.643612146E-1
2.983995313E0,-1.997386694E0,-9.008605003E0,4.889726043E-1
2.985995313E0,-2.001657963E0,-8.898902893E0,4.065833390E-1
2.987996875E0,-1.994044423E0,-8.788137436E0,3.395648599E-1
2.989995313E0,-1.995481014E0,-8.670717239E0,3.022631705E-1
2.991995313E0,-2.004607677E0,-8.559079170E0,2.757641673E-1
2.994457813E0,-2.047981024E0,-8.457469940E0,2.256678790E-1
2.996039063E0,-2.122316122E0,-8.368836403E0,1.649221927E-1
2.997995313E0,-2.187936544E0,-8.289693832E0,1.923214346E-1
2.999996875E0,-2.174749374E0,-8.229608536E0,2.883289158E-1
3.001995313E0,-2.157319307E0,-8.174637794E0,3.419398665E-1
3.003995313E0,-2.153689623E0,-8.141740799E0,3.324588537E-1
3.005995313E0,-2.160489321E0,-8.113327026E0,2.851877511E-1
3.007995313E0,-2.169529676E0,-8.098895073E0,2.134287059E-1
3.009995313E0,-2.179327011E0,-8.099239349E0,1.215201020E-1
3.011995313E0,-2.190637112E0,-8.107313156E0,3.878606716E-3
3.014460938E0,-2.201745987E0,-8.111497879E0,-1.323131621E-1
3.016007813E0,-2.214320660E0,-8.111488342E0,-2.641570866E-1
3.017995313E0,-2.210125923E0,-8.111382484E0,-3.829094470E-1
3.019996875E0,-2.222393751E0,-8.118335724E0,-4.835329950E-1
3.021995313E0,-2.256113768E0,-8.123171806E0,-5.627139807E-1
3.023995313E0,-2.313086271E0,-8.118470192E0,-6.052829027E-1
3.025995313E0,-2.368851900E0,-8.115194321E0,-6.147831678E-1
3.027995313E0,-2.415088654E0,-8.118882179E0,-6.141606569E-1
3.029995313E0,-2.456135035E0,-8.115203857E0,-6.153672934E-1
3.031995313E0,-2.495237112E0,-8.121908188E0,-5.860239863E-1
3.034460938E0,-2.500082731E0,-8.163356781E0,-5.178850293E-1
3.036379688E0,-2.517378569E0,-8.212475777E0,-4.715811014E-1
3.037995313E0,-2.587279797E0,-8.231829643E0,-4.549557865E-1
3.039995313E0,-2.641350269E0,-8.219859123E0,-4.279587567E-1
3.041995313E0,-2.656673431E0,-8.200523376E0,-3.792894185E-1
3.043995313E0,-2.681994438E0,-8.194720268E0,-3.334835768E-1
3.045995313E0,-2.717342377E0,-8.197277069E0,-2.984899282E-1
3.047995313E0,-2.757880926E0,-8.209660530E0,-2.781200707E-1
3.049996875E0,-2.785308838E0,-8.213127136E0,-2.658138573E-1
3.051995313E0,-2.804749727E0,-8.204173088E0,-2.353308648E-1
3.054457813E0,-2.821461439E0,-8.191119194E0,-2.003372163E-1
3.056040625E0,-2.830961704E0,-8.177261353E0,-1.626524776E-1
3.057842188E0,-2.820407867E0,-8.163184166E0,-1.408173740E-1
3.059995313E0,-2.816510201E0,-8.155780792E0,-1.318726391E-1
3.061995313E0,-2.825042963E0,-8.152074814E0,-1.038125828E-1
3.063995313E0,-2.819095850E0,-8.138283730E0,-6.353253871E-2
3.065995313E0,-2.809921503E0,-8.126131058E0,-1.758301817E-2
3.067995313E0,-2.798917532E0,-8.114208221E0,2.052309550E-2
3.069995313E0,-2.773261309E0,-8.102983475E0,6.094679981E-2
3.071996875E0,-2.729533672E0,-8.106010437E0,1.044733897E-1
3.074460938E0,-2.692433119E0,-8.100618362E0,1.302062720E-1
3.076040625E0,-2.704509258E0,-8.098904610E0,1.188290194E-1
3.077995313E0,-2.713664770E0,-8.095945358E0,1.021941081E-1
3.079995313E0,-2.677866697E0,-8.106766701E0,8.090486377E-2
3.081995313E0,-2.624552727E0,-8.116745949E0,7.190266252E-2
3.083995313E0,-2.562150240E0,-8.124531746E0,6.409756839E-2
3.085995313E0,-2.478669167E0,-8.135401726E0,7.241023332E-2
3.087995313E0,-2.389901638E0,-8.148828506E0,8.294472843E-2
3.089995313E0,-2.289872169E0,-8.160301208E0,8.898768574E-2
3.091995313E0,-2.198633671E0,-8.192440987E0,8.736921102E-2
3.094500000E0,-2.125007391E0,-8.208971024E0,9.395805001E-2
3.096046875E0,-2.061790705E0,-8.218115807E0,7.863516361E-2
3.097995313E0,-1.992818594E0,-8.230671883E0,4.824795201E-2
3.099995313E0,-1.935453534E0,-8.250083923E0,1.133893989E-2
3.101995313E0,-1.869823575E0,-8.259593964E0,-3.946602345E-2
3.103995313E0,-1.776698709E0,-8.264832497E0,-8.466854692E-2
3.105995313E0,-1.703714013E0,-8.275835991E0,-1.342093647E-1
3.107996875E0,-1.661030173E0,-8.290459633E0,-1.694520265E-1
3.109995313E0,-1.633573413E0,-8.312735558E0,-2.106131315E-1
3.111995313E0,-1.574302435E0,-8.353771210E0,-2.577789128E-1
3.114462500E0,-1.511727691E0,-8.385978699E0,-3.010373414E-1
3.116173438E0,-1.464284182E0,-8.417208672E0,-3.435966671E-1
3.117995313E0,-1.414456010E0,-8.437617302E0,-3.885406256E-1
3.120020313E0,-1.345244527E0,-8.470063210E0,-4.325460494E-1
3.121995313E0,-1.272498965E0,-8.514135361E0,-4.574649036E-1
3.123995313E0,-1.250367045E0,-8.551006317E0,-4.692156315E-1
3.125995313E0,-1.255528927E0,-8.583701134E0,-4.870668054E-1
3.127995313E0,-1.240052819E0,-8.603669167E0,-5.083943605E-1
3.129996875E0,-1.241757393E0,-8.625302315E0,-5.380058885E-1
3.131995313E0,-1.259733200E0,-8.635108948E0,-5.304018259E-1
3.134457813E0,-1.249428511E0,-8.663112640E0,-5.082315803E-1
3.136039063E0,-1.245502114E0,-8.705623627E0,-4.938088953E-1
3.137995313E0,-1.250903368E0,-8.743183136E0,-5.040656328E-1
3.139996875E0,-1.216101170E0,-8.778034210E0,-5.148203969E-1
3.141995313E0,-1.130379319E0,-8.867720604E0,-5.074654222E-1
3.143995313E0,-1.066846728E0,-8.967223167E0,-4.923627973E-1
3.145995313E0,-1.052366614E0,-9.056710243E0,-4.715332389E-1
3.147995313E0,-1.040749907E0,-9.146022797E0,-4.405905902E-1
3.149995313E0,-1.012239695E0,-9.223671913E0,-4.079624116E-1
3.151995313E0,-1.020504475E0,-9.281706810E0,-3.538534343E-1
3.154457813E0,-1.040893555E0,-9.330050468E0,-3.039199412E-1
3.156043750E0,-1.052376151E0,-9.346436501E0,-2.543504238E-1
3.158000000E0,-1.086383462E0,-9.377905846E0,-2.211667746E-1
3.159995313E0,-1.098287344E0,-9.421834946E0,-2.091478854E-1
3.161995313E0,-1.096170902E0,-9.461597443E0,-1.752842963E-1
3.163995313E0,-1.121252537E0,-9.499273300E0,-1.310011446E-1
3.165995313E0,-1.154407501E0,-9.529038429E0,-8.111555129E-2
3.167996875E0,-1.202243686E0,-9.560793877E0,-4.506845027E-2
3.169995313E0,-1.246651292E0,-9.566310883E0,-6.981492043E-3
3.171995313E0,-1.290350199E0,-9.551218033E0,3.855622560E-2
3.174473438E0,-1.322145224E0,-9.532686234E0,6.393475831E-2
3.176015625E0,-1.450177431E0,-9.489341736E0,1.211849153E-1
3.177996875E0,-1.611537099E0,-9.409165382E0,2.066100240E-1
3.179995313E0,-1.603559732E0,-9.348352432E0,2.891238034E-1
3.181995313E0,-1.534740686E0,-9.295402527E0,3.842885196E-1
3.184032813E0,-1.522760153E0,-9.252363205E0,4.878042340E-1
3.185995313E0,-1.547899246E0,-9.217130661E0,6.039134264E-1
3.187996875E0,-1.581312776E0,-9.179330826E0,7.368586659E-1
3.189995313E0,-1.672455192E0,-9.152132988E0,8.354614973E-1
3.192004688E0,-1.785097599E0,-9.100551605E0,9.053338766E-1
3.194459375E0,-1.877982974E0,-9.037173271E0,9.719022512E-1
3.196359375E0,-1.948861122E0,-8.946308136E0,1.049158335E0
3.198009375E0,-1.959357142E0,-8.837582588E0,1.151419401E0
3.200029688E0,-1.937100649E0,-8.710977554E0,1.276866078E0
3.201995313E0,-1.958562374E0,-8.586603165E0,1.440821052E0
3.203995313E0,-1.967219710E0,-8.536966324E0,1.589184880E0
3.205995313E0,-2.013427973E0,-8.537072182E0,1.710609198E0
3.208026563E0,-1.986756444E0,-8.561166763E0,1.789665818E0
3.209996875E0,-1.958045125E0,-8.628262520E0,1.813674808E0
3.211995313E0,-2.090636015E0,-8.652252197E0,1.838746905E0
3.214504688E0,-2.298471928E0,-8.644140244E0,1.840125918E0
3.216351563E0,-2.500916004E0,-8.639045715E0,1.839848280E0
3.218095313E0,-2.637960196E0,-8.622774124E0,1.848936677E0
3.219995313E0,-2.773050547E0,-8.600355148E0,1.859969139E0
3.221995313E0,-2.843430758E0,-8.608486176E0,1.843075514E0
3.224006250E0,-2.846054792E0,-8.594532967E0,1.779667616E0
3.225995313E0,-2.813426495E0,-8.520131111E0,1.713884473E0
3.227995313E0,-2.751866817E0,-8.515275002E0,1.660819411E0
3.229996875E0,-2.751224995E0,-8.629795074E0,1.571199656E0
3.231995313E0,-2.771824598E0,-8.744611740E0,1.449037910E0
3.234493750E0,-2.796551943E0,-8.809896469E0,1.273073554E0
3.236035938E0,-2.799243212E0,-8.809570312E0,1.132495761E0
3.237995313E0,-2.767237663E0,-8.776262283E0,1.061809301E0
3.239995313E0,-2.706060886E0,-8.764300346E0,1.022668839E0
3.241995313E0,-2.666355371E0,-8.760403633E0,1.011464000E0
3.243995313E0,-2.598503590E0,-8.739018440E0,1.025752544E0
3.245995313E0,-2.513739586E0,-8.736863136E0,1.046112895E0
3.247995313E0,-2.501500130E0,-8.771311760E0,1.050853372E0
3.250023438E0,-2.555015326E0,-8.814626694E0,1.052663445E0
3.251995313E0,-2.575337410E0,-8.879874229E0,1.038930297E0
3.254457813E0,-2.528535604E0,-8.957484245E0,1.020427942E0
3.256040625E0,-2.457600117E0,-9.017942429E0,1.007374763E0
3.258032813E0,-2.361228704E0,-9.037038803E0,9.932010770E-1
3.259996875E0,-2.266303539E0,-9.041933060E0,9.841605425E-1
3.261995313E0,-2.130494595E0,-9.030756950E0,9.919656515E-1
3.263995313E0,-1.963628411E0,-9.005818367E0,1.038279057E0
3.266029688E0,-1.770406842E0,-8.967089653E0,1.109597564E0
3.267995313E0,-1.561143994E0,-8.939345360E0,1.200855017E0
3.269995313E0,-1.337745905E0,-8.927546501E0,1.305960417E0
3.271995313E0,-1.090012908E0,-8.932995796E0,1.406899929E0
3.274468750E0,-8.288726211E-1,-8.935783386E0,1.525604486E0
3.276207813E0,-5.592567921E-1,-8.943635941E0,1.629120231E0
3.277995313E0,-2.919585407E-1,-8.956364632E0,1.712007403E0
3.280006250E0,-1.652956754E-2,-8.947897911E0,1.807421088E0
3.281996875E0,2.521764934E-1,-8.923333168E0,1.887052417E0
3.283995313E0,4.953028560E-1,-8.902350426E0,1.971720815E0
3.285995313E0,7.014723420E-1,-8.886184692E0,2.053784370E0
3.287995313E0,8.926541805E-1,-8.890714645E0,2.129632711E0
3.289996875E0,1.039399505E0,-8.904667854E0,2.203240156E0
3.291996875E0,1.147157788E0,-8.899754524E0,2.272969007E0
3.294459375E0,1.201659441E0,-8.862626076E0,2.334634066E0
3.296040625E0,1.234833479E0,-8.799083710E0,2.419005632E0
3.297995313E0,1.256256819E0,-8.724221230E0,2.490936995E0
3.300037500E0,1.235724092E0,-8.693566322E0,2.548771143E0
3.301995313E0,1.145520091E0,-8.694591522E0,2.579062700E0
3.303995313E0,1.049876571E0,-8.677668571E0,2.578124285E0
3.305995313E0,8.850501776E-1,-8.652424812E0,2.546022654E0
3.308023438E0,6.367235780E-1,-8.623770714E0,2.474168062E0
3.309995313E0,3.598389328E-1,-8.592158318E0,2.358001471E0
3.311995313E0,7.960242033E-2,-8.582274437E0,2.186806440E0
3.314476563E0,-2.350148261E-1,-8.602204323E0,1.952586412E0
3.316023438E0,-5.449681878E-1,-8.659808159E0,1.667369962E0
3.317995313E0,-8.374821544E-1,-8.725342751E0,1.375459313E0
3.319996875E0,-1.131729603E0,-8.811351776E0,1.090961099E0
3.321995313E0,-1.424377680E0,-8.920269012E0,8.366490006E-1
3.323995313E0,-1.675854921E0,-9.000004768E0,6.308913231E-1
3.325996875E0,-1.941190004E0,-9.070385933E0,4.542758167E-1
3.327995313E0,-2.205691814E0,-9.145965576E0,2.652966976E-1
3.329995313E0,-2.422596931E0,-9.204977989E0,7.549396157E-2
3.331995313E0,-2.654365301E0,-9.240181923E0,-1.095012054E-1
3.334459375E0,-2.894723892E0,-9.247249603E0,-3.030867875E-1
3.336053125E0,-3.118744612E0,-9.215483665E0,-4.780454636E-1
3.337995313E0,-3.334883451E0,-9.150830269E0,-6.334004402E-1
3.339995313E0,-3.572244644E0,-9.077615738E0,-7.835839391E-1
3.341995313E0,-3.860305309E0,-9.028141975E0,-9.465332627E-1
3.343995313E0,-4.132468700E0,-8.998042107E0,-1.107567310E0
3.345995313E0,-4.385162830E0,-8.965165138E0,-1.241757393E0
3.347995313E0,-4.638765812E0,-8.961296082E0,-1.372547984E0
3.349995313E0,-4.870783329E0,-8.972855568E0,-1.491922855E0
3.351995313E0,-5.119243622E0,-8.995141029E0,-1.614410162E0
3.354457813E0,-5.346261978E0,-9.026455879E0,-1.739176869E0
3.356359375E0,-5.530921936E0,-9.049593925E0,-1.852020383E0
3.358017188E0,-5.723913670E0,-9.086962700E0,-1.937244415E0
3.359995313E0,-5.885877132E0,-9.122099876E0,-2.003190279E0
3.361995313E0,-6.061601639E0,-9.153464317E0,-2.058381319E0
3.363995313E0,-6.184213161E0,-9.175710678E0,-2.073637247E0
3.365995313E0,-6.156047821E0,-9.186571121E0,-2.026672602E0
3.367995313E0,-6.044056416E0,-9.191158295E0,-1.968110323E0
3.369996875E0,-5.953345299E0,-9.205293655E0,-1.968129516E0
3.371995313E0,-5.893107414E0,-9.228211403E0,-1.996850491E0
3.374501563E0,-5.841353893E0,-9.271316528E0,-2.022219419E0
3.376034375E0,-5.766990185E0,-9.293812752E0,-1.997041941E0
3.377995313E0,-5.704731464E0,-9.337942123E0,-1.960075498E0
3.379995313E0,-5.674497604E0,-9.423137665E0,-1.936315417E0
3.381995313E0,-5.674238682E0,-9.544149399E0,-1.927265406E0
3.383995313E0,-5.642443657E0,-9.677536011E0,-1.893985987E0
3.385995313E0,-5.595948219E0,-9.835207939E0,-1.840729237E0
3.387995313E0,-5.530203819E0,-1.004389668E1,-1.790489435E0
3.389995313E0,-5.452238560E0,-1.031477642E1,-1.747815132E0
3.391995313E0,-5.369447231E0,-1.061951065E1,-1.702085853E0
3.394459375E0,-5.258356571E0,-1.094506454E1,-1.655676603E0
3.396042188E0,-5.117568016E0,-1.129412937E1,-1.616488457E0
3.397995313E0,-4.944333076E0,-1.165724277E1,-1.578592896E0
3.399995313E0,-4.698410034E0,-1.203253937E1,-1.555292606E0
3.401995313E0,-4.424456120E0,-1.241155052E1,-1.543063045E0
3.403995313E0,-4.162042141E0,-1.278794861E1,-1.570969820E0
3.405995313E0,-3.925188303E0,-1.310381031E1,-1.654335976E0
3.407996875E0,-3.741830826E0,-1.335139084E1,-1.802699804E0
3.409995313E0,-3.594769239E0,-1.356387138E1,-2.020648718E0
3.411842188E0,-3.442517281E0,-1.375659466E1,-2.270239592E0
3.414639063E0,-3.361191034E0,-1.385142422E1,-2.404716969E0
3.416026563E0,-3.038998604E0,-1.413374805E1,-2.784897327E0
3.417842188E0,-2.848237991E0,-1.430917645E1,-3.011044025E0
3.419995313E0,-2.774525404E0,-1.438175869E1,-3.108621836E0
3.421995313E0,-2.663290739E0,-1.450988674E1,-3.246010780E0
3.423995313E0,-2.594510317E0,-1.461683083E1,-3.326321840E0
3.425995313E0,-2.509315014E0,-1.472047138E1,-3.377136469E0
3.427995313E0,-2.442105055E0,-1.485665321E1,-3.408643961E0
3.429995313E0,-2.370249987E0,-1.499312305E1,-3.419331789E0
3.431995313E0,-2.287247896E0,-1.511602211E1,-3.409975290E0
3.434457813E0,-2.202809334E0,-1.521190548E1,-3.410071135E0
3.436492188E0,-2.091344833E0,-1.530138206E1,-3.411335230E0
3.437865625E0,-1.815820098E0,-1.540950394E1,-3.543198347E0
3.439995313E0,-1.698418021E0,-1.544447708E1,-3.637874603E0
3.441995313E0,-1.451183081E0,-1.553851223E1,-3.877026558E0
3.443995313E0,-1.226702809E0,-1.562255859E1,-4.162750721E0
3.445995313E0,-1.018665791E0,-1.567538452E1,-4.461106300E0
3.447995313E0,-8.094412684E-1,-1.568725967E1,-4.749119282E0
3.449996875E0,-6.161717772E-1,-1.566032028E1,-5.002713203E0
3.451995313E0,-4.211209118E-1,-1.559588814E1,-5.208739281E0
3.454503125E0,-2.189353853E-1,-1.548834991E1,-5.402564049E0
3.456042188E0,-4.426399991E-2,-1.533592510E1,-5.591648579E0
3.457995313E0,1.204953864E-1,-1.512783051E1,-5.763561726E0
3.459996875E0,2.724314332E-1,-1.487598896E1,-5.900079250E0
3.461995313E0,3.956561983E-1,-1.460194969E1,-5.996536732E0
3.463995313E0,4.891258180E-1,-1.431204987E1,-6.047877789E0
3.465995313E0,5.497278571E-1,-1.400847435E1,-6.046546936E0
3.467995313E0,5.818388462E-1,-1.368166637E1,-5.983349800E0
3.469995313E0,5.965489149E-1,-1.334119129E1,-5.859262466E0
3.471995313E0,5.870773792E-1,-1.300113773E1,-5.690328121E0
3.474459375E0,5.685846210E-1,-1.265428543E1,-5.479542255E0
3.476040625E0,5.561634302E-1,-1.231159782E1,-5.210012913E0
3.477995313E0,5.465579033E-1,-1.198098755E1,-4.881661892E0
3.479995313E0,5.569487810E-1,-1.165560532E1,-4.477501869E0
3.481995313E0,5.820016861E-1,-1.133392048E1,-4.001276016E0
3.483995313E0,6.339846253E-1,-1.101543427E1,-3.486283302E0
3.485995313E0,7.016543150E-1,-1.071340179E1,-2.951619625E0
3.487996875E0,7.844458222E-1,-1.043174744E1,-2.424062252E0
3.489995313E0,8.551226854E-1,-1.017144012E1,-1.916615963E0
3.491995313E0,9.091741443E-1,-9.933208466E0,-1.471983910E0
3.494459375E0,1.005219936E0,-9.669826508E0,-1.009759307E0
3.496042188E0,1.095232248E0,-9.397538185E0,-4.382633865E-1
3.497995313E0,1.130197287E0,-9.193447113E0,1.460367292E-1
3.499996875E0,1.190626979E0,-9.000598907E0,6.656742692E-1
3.501995313E0,1.309092045E0,-8.808086395E0,1.035472989E0
3.503995313E0,1.425526857E0,-8.620793343E0,1.162135959E0
3.506043750E0,1.404601574E0,-8.447921753E0,1.060822845E0
3.508003125E0,1.243625045E0,-8.287692070E0,8.732036948E-1
3.509995313E0,9.950589538E-1,-8.114236832E0,7.412161231E-1
3.511995313E0,6.983119845E-1,-7.929557800E0,6.890033484E-1
3.514578125E0,4.172614813E-1,-7.751496315E0,6.617860794E-1
3.516404688E0,1.744415313E-1,-7.594053268E0,6.171677113E-1
3.518003125E0,-3.708139434E-2,-7.439455032E0,5.331887007E-1
3.519995313E0,-2.263669819E-1,-7.296387196E0,4.381676316E-1
3.521995313E0,-3.973416984E-1,-7.139451981E0,3.725281954E-1
3.523995313E0,-5.442882180E-1,-6.990130424E0,3.362704217E-1
3.526042188E0,-6.726653576E-1,-6.849179268E0,3.198653460E-1
3.528003125E0,-7.800787687E-1,-6.721912384E0,2.964883745E-1
3.529996875E0,-8.820909262E-1,-6.621346474E0,2.575777769E-1
3.531995313E0,-1.006531954E0,-6.554174900E0,2.107472122E-1
3.534459375E0,-1.165899634E0,-6.488267422E0,1.613117307E-1
3.536040625E0,-1.376014829E0,-6.424045563E0,1.139448434E-1
3.537995313E0,-1.612964153E0,-6.359947681E0,7.232404500E-2
3.539996875E0,-1.847203255E0,-6.291856766E0,3.985866904E-2
3.541995313E0,-2.045280218E0,-6.226294041E0,3.107673861E-2
3.543995313E0,-2.177306175E0,-6.168162823E0,2.851015516E-2
3.545995313E0,-2.251928806E0,-6.123860359E0,2.353979088E-2
3.547995313E0,-2.272854090E0,-6.095081806E0,2.597229928E-2
3.549995313E0,-2.253594875E0,-6.086702347E0,4.480030015E-2
3.551995313E0,-2.190493345E0,-6.086396217E0,6.870400906E-2
3.554457813E0,-2.102109194E0,-6.106574059E0,1.003362015E-1
3.556040625E0,-2.008591652E0,-6.129424095E0,1.643475741E-1
3.557995313E0,-1.915763497E0,-6.164255142E0,2.557007372E-1
3.559995313E0,-1.841964722E0,-6.210731506E0,3.703064024E-1
3.561995313E0,-1.809777141E0,-6.277998924E0,5.289461613E-1
3.564176563E0,-1.816452146E0,-6.369036198E0,7.171496153E-1
3.566042188E0,-1.829601049E0,-6.488172054E0,8.778771162E-1
3.567995313E0,-1.843927979E0,-6.652643681E0,9.337482452E-1
3.569995313E0,-1.920839190E0,-6.812691212E0,8.838243484E-1
3.571995313E0,-1.962124825E0,-6.959350586E0,7.557058334E-1
3.574459375E0,-1.908983111E0,-7.101489544E0,5.264179111E-1
3.576042188E0,-1.828624249E0,-7.256595612E0,3.178446293E-1
3.577995313E0,-1.768012524E0,-7.428537369E0,2.045510113E-1
3.579996875E0,-1.730548143E0,-7.604549885E0,1.615128517E-1
3.581995313E0,-1.725376725E0,-7.778866768E0,1.550293416E-1
3.583995313E0,-1.728632808E0,-7.942841053E0,1.528554112E-1
3.585995313E0,-1.731228113E0,-8.116037369E0,1.357033551E-1
3.587995313E0,-1.738391638E0,-8.300457954E0,9.283756465E-2
3.589995313E0,-1.747278810E0,-8.507192612E0,1.566765644E-2
3.591995313E0,-1.758656144E0,-8.722143173E0,-8.627744764E-2
3.594501563E0,-1.781266928E0,-8.952054977E0,-2.020897865E-1
3.596204688E0,-1.802852988E0,-9.178354263E0,-3.198366165E-1
3.597995313E0,-1.817170382E0,-9.396772385E0,-4.453023672E-1
3.599995313E0,-1.832684755E0,-9.604866982E0,-5.594674945E-1
3.601995313E0,-1.856722593E0,-9.813938141E0,-6.653869748E-1
3.603995313E0,-1.875617504E0,-1.003057480E1,-7.497777939E-1
3.605995313E0,-1.883738756E0,-1.023371887E1,-8.080813885E-1
3.607996875E0,-1.882187247E0,-1.042554188E1,-8.381717205E-1
3.609996875E0,-1.868425369E0,-1.059383488E1,-8.283746243E-1
3.611995313E0,-1.838708639E0,-1.073945999E1,-7.785465121E-1
3.614462500E0,-1.809863329E0,-1.086323071E1,-6.902579069E-1
3.616040625E0,-1.780146480E0,-1.097037601E1,-5.834478140E-1
3.617995313E0,-1.726736546E0,-1.106175804E1,-4.655573070E-1
3.619995313E0,-1.677530885E0,-1.113539314E1,-3.497545421E-1
3.621995313E0,-1.618815541E0,-1.119265366E1,-2.369780838E-1
3.623995313E0,-1.574293017E0,-1.123179436E1,-1.432786137E-1
3.625995313E0,-1.542124510E0,-1.125571632E1,-4.068227485E-2
3.627995313E0,-1.536253929E0,-1.127269650E1,4.905240610E-2
3.629995313E0,-1.541712642E0,-1.127133656E1,1.265574992E-1
3.631995313E0,-1.547257662E0,-1.125514221E1,1.864221245E-1
3.634459375E0,-1.556451440E0,-1.123357487E1,2.349190712E-1
3.636040625E0,-1.568700075E0,-1.120401192E1,2.726325393E-1
3.637995313E0,-1.581734180E0,-1.116459370E1,2.989496291E-1
3.639996875E0,-1.606298685E0,-1.112451458E1,3.228341639E-1
3.641995313E0,-1.625423551E0,-1.106816483E1,3.425911069E-1
3.643995313E0,-1.651089311E0,-1.100855827E1,3.514783978E-1
3.645995313E0,-1.672579765E0,-1.093731594E1,3.787147999E-1
3.647995313E0,-1.679896355E0,-1.084825230E1,4.186405241E-1
3.649995313E0,-1.691781282E0,-1.077399445E1,4.532319605E-1
3.651995313E0,-1.698887229E0,-1.071479034E1,4.795394540E-1
3.654459375E0,-1.699768305E0,-1.064987850E1,5.021790266E-1
3.656042188E0,-1.695295930E0,-1.058338642E1,5.290994048E-1
3.657995313E0,-1.703474522E0,-1.052722836E1,5.323842764E-1
3.659995313E0,-1.727234602E0,-1.047909546E1,5.275767446E-1
3.661995313E0,-1.801904917E0,-1.042048550E1,5.274234414E-1
3.663995313E0,-1.880444288E0,-1.036518860E1,5.258337259E-1
3.666020313E0,-1.895776749E0,-1.030872345E1,5.181627274E-1
3.667996875E0,-1.853399396E0,-1.025082207E1,5.217922926E-1
3.669995313E0,-1.787769556E0,-1.017925453E1,5.599080324E-1
3.671995313E0,-1.723940134E0,-1.009465313E1,6.143808365E-1
3.674460938E0,-1.671219826E0,-1.002820969E1,6.567295790E-1
3.676359375E0,-1.639290810E0,-9.971725464E0,6.845214367E-1
3.678007813E0,-1.605273962E0,-9.917396545E0,7.182988524E-1
3.680067188E0,-1.563672185E0,-9.864609718E0,7.468281388E-1
3.681995313E0,-1.530325770E0,-9.829347610E0,7.584352493E-1
3.683995313E0,-1.507169008E0,-9.790360451E0,7.622851133E-1
3.685995313E0,-1.475469828E0,-9.749955177E0,7.631374598E-1
3.687996875E0,-1.445446610E0,-9.698173523E0,7.780677080E-1
3.689996875E0,-1.420661807E0,-9.649953842E0,8.007934690E-1
3.691995313E0,-1.414724231E0,-9.600930214E0,8.165951371E-1
3.694459375E0,-1.422127128E0,-9.555670738E0,8.165377378E-1
3.696042188E0,-1.423027396E0,-9.519221306E0,8.144978881E-1
3.697995313E0,-1.423257232E0,-9.473769188E0,8.157907128E-1
3.699995313E0,-1.431311250E0,-9.436545372E0,8.143829107E-1
3.701995313E0,-1.437009454E0,-9.397002220E0,8.184051514E-1
3.703995313E0,-1.435046196E0,-9.380654335E0,8.063383698E-1
3.705995313E0,-1.434078932E0,-9.345258713E0,7.985141873E-1
3.707995313E0,-1.420786381E0,-9.306444168E0,7.959571481E-1
3.709995313E0,-1.396681547E0,-9.266728401E0,7.856907845E-1
3.711995313E0,-1.357789993E0,-9.222349167E0,7.845415473E-1
3.714464063E0,-1.318008065E0,-9.181648254E0,7.933139801E-1
3.716003125E0,-1.288904190E0,-9.146492004E0,8.076121211E-1
3.717995313E0,-1.251334310E0,-9.102285385E0,8.322436810E-1
3.719996875E0,-1.215651155E0,-9.046921730E0,8.625351191E-1
3.721995313E0,-1.175897837E0,-8.994383812E0,9.105628133E-1
3.723995313E0,-1.143451571E0,-8.944344521E0,9.556983113E-1
3.725995313E0,-1.106111526E0,-8.890485764E0,1.001829743E0
3.727995313E0,-1.060765386E0,-8.812998772E0,1.056628346E0
3.729995313E0,-1.008246183E0,-8.734890938E0,1.117153645E0
3.731995313E0,-9.644322991E-1,-8.661962509E0,1.179335833E0
3.734459375E0,-9.247173071E-1,-8.580024719E0,1.256170630E0
3.736042188E0,-8.800223470E-1,-8.488508224E0,1.334001303E0
3.737995313E0,-8.482081890E-1,-8.404873848E0,1.403193712E0
3.739995313E0,-8.132911325E-1,-8.333669662E0,1.464801311E0
3.741995313E0,-7.850012779E-1,-8.256059647E0,1.516496897E0
3.743995313E0,-7.491360903E-1,-8.186368942E0,1.579435706E0
3.745995313E0,-6.973064542E-1,-8.114859581E0,1.644222736E0
3.747996875E0,-6.494224072E-1,-8.050206184E0,1.699864030E0
3.749995313E0,-6.228084564E-1,-7.985831261E0,1.747863054E0
3.751995313E0,-6.012606621E-1,-7.916131020E0,1.800439715E0
3.754459375E0,-5.587875247E-1,-7.850118160E0,1.854759336E0
3.756359375E0,-5.253261924E-1,-7.788903236E0,1.917726755E0
3.758007813E0,-5.003881454E-1,-7.749810696E0,1.969326615E0
3.760000000E0,-4.775187373E-1,-7.705852985E0,2.021577835E0
3.761996875E0,-4.487116933E-1,-7.672707558E0,2.069116831E0
3.763995313E0,-4.113334417E-1,-7.651590824E0,2.110967636E0
3.765842188E0,-3.628077507E-1,-7.636612892E0,2.151324272E0
3.767996875E0,-3.378888965E-1,-7.631977558E0,2.166302443E0
3.769995313E0,-2.929353714E-1,-7.622247696E0,2.190541267E0
3.771995313E0,-2.603837848E-1,-7.613350391E0,2.200893879E0
3.774459375E0,-2.382134795E-1,-7.623703003E0,2.193519831E0
3.776189063E0,-2.034592628E-1,-7.645691395E0,2.172709227E0
3.777842188E0,-6.151182950E-2,-7.678654671E0,2.158918619E0
3.779995313E0,3.926490899E-4,-7.693518162E0,2.164597750E0
3.781995313E0,1.061780527E-1,-7.739822388E0,2.185149670E0
3.783995313E0,1.960085034E-1,-7.800078869E0,2.203039169E0
3.785995313E0,2.812133431E-1,-7.870641232E0,2.214780331E0
3.787995313E0,3.452917933E-1,-7.952877522E0,2.218773603E0
3.789995313E0,4.032027423E-1,-8.045044899E0,2.220181704E0
3.791995313E0,4.586045444E-1,-8.142813683E0,2.219242811E0
3.794457813E0,5.017768145E-1,-8.236178398E0,2.207367659E0
3.796043750E0,5.444606543E-1,-8.322130203E0,2.181491137E0
3.797995313E0,5.646102428E-1,-8.417189598E0,2.158267498E0
3.799996875E0,5.812834501E-1,-8.506579399E0,2.123704910E0
3.801995313E0,6.153768897E-1,-8.596859932E0,2.088021755E0
3.803995313E0,6.514239311E-1,-8.679882050E0,2.068561554E0
3.805995313E0,6.842915416E-1,-8.763832092E0,2.058094025E0
3.807996875E0,7.083293200E-1,-8.855577469E0,2.071769714E0
3.809995313E0,7.134912610E-1,-8.938838005E0,2.097301483E0
3.811995313E0,7.259315252E-1,-9.026140213E0,2.144764185E0
3.814460938E0,7.250409126E-1,-9.105092049E0,2.211821079E0
3.816043750E0,7.075440884E-1,-9.179991722E0,2.298922062E0
3.817995313E0,6.753468513E-1,-9.264047623E0,2.384969711E0
3.819995313E0,6.380355954E-1,-9.350928307E0,2.465740442E0
3.821995313E0,5.687186718E-1,-9.429582596E0,2.536934376E0
3.823995313E0,4.916828275E-1,-9.507921219E0,2.590899706E0
3.825995313E0,4.300656617E-1,-9.601160049E0,2.634426355E0
3.827995313E0,3.841161430E-1,-9.704187393E0,2.651022911E0
3.829995313E0,3.229682446E-1,-9.827662468E0,2.647642374E0
3.831995313E0,2.380315363E-1,-9.953079224E0,2.633985758E0
3.834460938E0,1.654106081E-1,-1.007610321E1,2.628833532E0
3.836359375E0,1.065802872E-1,-1.020369530E1,2.643064737E0
3.838009375E0,5.291185901E-2,-1.032651711E1,2.667456865E0
3.840000000E0,-1.058237161E-2,-1.044553852E1,2.693821669E0
3.841996875E0,-5.883032084E-2,-1.057079315E1,2.728709936E0
3.843995313E0,-1.068388596E-1,-1.070453358E1,2.773539066E0
3.845995313E0,-1.572798938E-1,-1.083978653E1,2.833940029E0
3.847995313E0,-2.018024772E-1,-1.097158241E1,2.909156322E0
3.849996875E0,-2.202378213E-1,-1.108524990E1,2.982447624E0
3.851995313E0,-2.244995087E-1,-1.119428158E1,3.050098181E0
3.854459375E0,-2.280429304E-1,-1.130661678E1,3.097436190E0
3.856043750E0,-2.147790492E-1,-1.141473961E1,3.139794350E0
3.857995313E0,-1.961617321E-1,-1.150860119E1,3.175266743E0
3.859996875E0,-1.847940683E-1,-1.159477425E1,3.206429958E0
3.861995313E0,-1.800152361E-1,-1.166845798E1,3.241499901E0
3.863995313E0,-1.684560180E-1,-1.173125267E1,3.275813818E0
3.865995313E0,-1.465442926E-1,-1.179543686E1,3.306507587E0
3.867995313E0,-1.209359095E-1,-1.182952023E1,3.317645311E0
3.869995313E0,-7.569508255E-2,-1.184695053E1,3.316428900E0
3.871995313E0,-4.547068104E-2,-1.184804153E1,3.320595026E0
3.874457813E0,-2.088701539E-2,-1.184165382E1,3.331158161E0
3.876039063E0,1.361821964E-2,-1.182343960E1,3.334835768E0
3.877995313E0,4.765418917E-2,-1.179126167E1,3.336138248E0
3.879996875E0,7.332003117E-2,-1.175978184E1,3.337718248E0
3.881995313E0,9.942640364E-2,-1.173474884E1,3.346107721E0
3.883995313E0,1.210699901E-1,-1.170837402E1,3.338561058E0
3.885995313E0,1.418229342E-1,-1.168268013E1,3.311410904E0
3.887995313E0,1.557093114E-1,-1.165893841E1,3.261908293E0
3.889995313E0,1.620012671E-1,-1.162996864E1,3.210011482E0
3.891995313E0,1.890461743E-1,-1.159389305E1,3.151439667E0
3.894457813E0,2.017450035E-1,-1.155888939E1,3.090904713E0
3.896043750E0,2.008831054E-1,-1.152452850E1,3.033185244E0
3.897995313E0,2.050585896E-1,-1.148257256E1,2.980886459E0
3.899995313E0,2.040147036E-1,-1.143537807E1,2.918302059E0
3.901995313E0,1.977131814E-1,-1.139471531E1,2.828327894E0
3.903995313E0,1.958840042E-1,-1.136134911E1,2.695842266E0
3.905995313E0,1.858858168E-1,-1.135709667E1,2.505560875E0
3.907995313E0,1.662342101E-1,-1.138818359E1,2.281300783E0
3.909995313E0,1.405013204E-1,-1.147110844E1,2.024402857E0
3.911995313E0,7.389463484E-2,-1.157827377E1,1.756099105E0
3.914462500E0,-3.354755417E-2,-1.172104359E1,1.510319948E0
3.916168750E0,-1.822945029E-1,-1.189232540E1,1.299630165E0
3.918193750E0,-3.763014972E-1,-1.208625603E1,1.139419794E0
3.919995313E0,-6.309870481E-1,-1.229247379E1,1.025570631E0
3.921996875E0,-9.312487245E-1,-1.251387882E1,9.187414050E-1
3.923995313E0,-1.233578801E0,-1.275455379E1,7.817451954E-1
3.925995313E0,-1.532509446E0,-1.301170158E1,5.849130154E-1
3.927996875E0,-1.796321630E0,-1.327868366E1,4.012682140E-1
3.929996875E0,-1.993996501E0,-1.354922771E1,1.813655645E-1
3.931995313E0,-2.297198296E0,-1.391863346E1,-1.292677373E-1
3.934459375E0,-2.579091549E0,-1.432577229E1,-3.698371351E-1
3.936042188E0,-2.834074020E0,-1.472657204E1,-5.479274392E-1
3.937995313E0,-3.081155539E0,-1.512779236E1,-6.897216439E-1
3.939995313E0,-3.341999054E0,-1.551553822E1,-8.113757968E-1
3.941995313E0,-3.625031948E0,-1.587600899E1,-9.333938956E-1
3.943995313E0,-3.924862862E0,-1.615350723E1,-1.014681816E0
3.945995313E0,-4.241165638E0,-1.631772995E1,-1.073339701E0
3.947995313E0,-4.574256420E0,-1.635786629E1,-1.105833888E0
3.949995313E0,-4.921128273E0,-1.624913979E1,-1.104809165E0
3.951995313E0,-5.226724148E0,-1.600071716E1,-1.092646599E0
3.954457813E0,-5.419620037E0,-1.562119961E1,-1.067996025E0
3.956042188E0,-5.456012249E0,-1.515867805E1,-1.000345349E0
3.957995313E0,-5.312110901E0,-1.464442158E1,-9.124206901E-1
3.959996875E0,-4.989975929E0,-1.408435154E1,-8.345133662E-1
3.961995313E0,-4.553810120E0,-1.348937321E1,-7.987344265E-1
3.963995313E0,-4.060795784E0,-1.289750671E1,-8.267273903E-1
3.965995313E0,-3.562198639E0,-1.230939579E1,-9.202257395E-1
3.967995313E0,-3.080504417E0,-1.172247124E1,-1.033979177E0
3.969995313E0,-2.639865875E0,-1.115366554E1,-1.134851575E0
3.971995313E0,-2.248806715E0,-1.062565804E1,-1.192743421E0
3.974457813E0,-1.938010454E0,-1.016677666E1,-1.194898248E0
3.976040625E0,-1.694194555E0,-9.756840706E0,-1.158228636E0
3.977995313E0,-1.516027689E0,-9.403868675E0,-1.069078088E0
3.979996875E0,-1.371379614E0,-9.083889008E0,-9.189329147E-1
3.981995313E0,-1.234402418E0,-8.810767174E0,-7.150235772E-1
3.983995313E0,-1.104828358E0,-8.572248459E0,-4.779113829E-1
3.985995313E0,-9.740091562E-1,-8.370234489E0,-2.233598679E-1
3.987995313E0,-8.438411951E-1,-8.214113235E0,3.354755417E-2
3.989995313E0,-7.241981030E-1,-8.098875046E0,2.189449668E-1
3.991995313E0,-6.221285462E-1,-8.014225960E0,3.514688015E-1
3.994457813E0,-5.368278623E-1,-7.963067055E0,4.154227376E-1
3.996359375E0,-4.883405566E-1,-7.942457676E0,4.189661443E-1
3.998009375E0,-4.590067863E-1,-7.939575195E0,3.741275370E-1
4.000000000E0,-4.409257472E-1,-7.936634541E0,2.637261152E-1
4.001996875E0,-4.462983310E-1,-7.933752537E0,9.794200212E-2
4.003995313E0,-4.911561310E-1,-7.931166649E0,-1.077582315E-1
4.005995313E0,-5.639302731E-1,-7.935122013E0,-3.338857889E-1
4.007996875E0,-6.722152233E-1,-7.940667152E0,-5.685271621E-1
4.009996875E0,-8.089241385E-1,-7.954083920E0,-7.899525166E-1
4.011996875E0,-9.612720013E-1,-7.966581345E0,-9.788741469E-1
4.014464063E0,-1.142704606E0,-7.976244450E0,-1.143231273E0
4.016003125E0,-1.352503657E0,-7.993731976E0,-1.271685004E0
4.017995313E0,-1.574398279E0,-8.023602486E0,-1.365499377E0
4.019996875E0,-1.801904917E0,-8.073688507E0,-1.414542198E0
4.021995313E0,-2.021022320E0,-8.135162354E0,-1.440466642E0
4.023995313E0,-2.237783670E0,-8.206844330E0,-1.449669957E0
4.025995313E0,-2.452888489E0,-8.284090996E0,-1.443808913E0
4.027995313E0,-2.679705620E0,-8.378432274E0,-1.431215405E0
4.029995313E0,-2.907480240E0,-8.473453522E0,-1.447160840E0
4.031995313E0,-3.140053034E0,-8.574392319E0,-1.477615118E0
4.034459375E0,-3.365950584E0,-8.688893318E0,-1.511200905E0
4.036040625E0,-3.585767031E0,-8.809781075E0,-1.549747586E0
4.037995313E0,-3.777925730E0,-8.940973282E0,-1.576351881E0
4.039996875E0,-3.948364258E0,-9.076293945E0,-1.569236398E0
4.041996875E0,-4.087275982E0,-9.218902588E0,-1.537901163E0
