"Time (s)","Acceleration x (m/s^2)","Acceleration y (m/s^2)","Acceleration z (m/s^2)"
0.000000000E0,-4.019011974E0,4.381121159E0,7.321804047E0
3.970313000E-3,-3.999897003E0,4.322003365E0,7.461395741E0
7.942188000E-3,-4.021866322E0,4.269043446E0,7.547117710E0
1.191093800E-2,-4.015248299E0,4.228323460E0,7.605296612E0
1.588281300E-2,-4.042896748E0,4.189986706E0,7.715908527E0
1.985312500E-2,-4.040703773E0,4.167184353E0,7.831644535E0
2.382343800E-2,-4.027937889E0,4.153125763E0,7.911965370E0
2.779375000E-2,-4.003411770E0,4.141662598E0,7.984911442E0
3.176406300E-2,-3.994840622E0,4.153729439E0,7.955606461E0
3.573437500E-2,-3.993509293E0,4.184844017E0,7.863324642E0
3.970625000E-2,-3.995826960E0,4.189163685E0,7.751582623E0
4.367656300E-2,-3.957778215E0,4.185035706E0,7.568521500E0
4.764687500E-2,-3.923320770E0,4.192285538E0,7.351980686E0
5.161718800E-2,-3.914893389E0,4.172231674E0,7.199958324E0
5.558750000E-2,-3.852845192E0,4.156391621E0,7.094957829E0
5.955781300E-2,-3.806033611E0,4.168678761E0,7.043588161E0
6.352968800E-2,-3.784198523E0,4.180199623E0,7.029567719E0
6.749843800E-2,-3.804683447E0,4.205185413E0,7.075469017E0
7.150000000E-2,-3.872056246E0,4.255415916E0,7.076273918E0
7.544062500E-2,-3.944418430E0,4.301135063E0,7.042285442E0
7.941093800E-2,-3.964941740E0,4.307102203E0,6.999017715E0
8.338125000E-2,-4.052904606E0,4.281790733E0,6.987296104E0
8.735156300E-2,-4.155673504E0,4.282978058E0,7.036693096E0
9.132187500E-2,-4.249047279E0,4.324790001E0,7.118574619E0
9.529218800E-2,-4.328304768E0,4.371304512E0,7.178936958E0
9.926406300E-2,-4.375442028E0,4.430556774E0,7.144221306E0
1.032328130E-1,-4.427099228E0,4.469256401E0,7.062703609E0
1.072046880E-1,-4.568634987E0,4.487978935E0,6.946594238E0
1.111750000E-1,-4.991020203E0,4.341137886E0,6.724508286E0
1.151453130E-1,-6.163067818E0,3.586935520E0,6.494865894E0
1.191171880E-1,-6.160300255E0,3.628881931E0,6.458943367E0
1.230875000E-1,-5.538995266E0,4.089861393E0,6.554730415E0
1.270578130E-1,-4.946430206E0,4.391712666E0,6.921454906E0
1.310281250E-1,-4.480212212E0,3.810688019E0,8.013450623E0
1.349984380E-1,-4.047417164E0,3.807403088E0,8.740253448E0
1.389687500E-1,-3.637520313E0,4.134297848E0,9.147152901E0
1.429390630E-1,-3.433821440E0,4.429656029E0,9.326468468E0
1.469093750E-1,-3.312646151E0,4.734926224E0,9.188390732E0
1.508796880E-1,-3.226608038E0,5.023916245E0,8.935869217E0
1.548515630E-1,-3.251383305E0,5.179740429E0,8.679947853E0
1.588218750E-1,-3.401787043E0,5.153911591E0,8.439665794E0
1.627921880E-1,-3.798161507E0,4.991182804E0,8.081561089E0
1.667625000E-1,-4.342756271E0,4.730271816E0,7.769050121E0
1.707328130E-1,-4.820639133E0,4.489693165E0,7.548008442E0
1.747031250E-1,-5.260731220E0,4.226465225E0,7.349576473E0
1.786734380E-1,-5.519496918E0,4.073619366E0,7.227931976E0
1.826453130E-1,-5.607354641E0,3.999427795E0,7.199469566E0
1.866156250E-1,-5.630252361E0,3.985809565E0,7.221075058E0
1.905859380E-1,-5.636046410E0,4.090627670E0,7.241664886E0
1.945562500E-1,-5.623022079E0,4.309975147E0,7.293868542E0
1.985265630E-1,-5.564613342E0,4.541225910E0,7.311030388E0
2.024968750E-1,-5.448197365E0,4.821711540E0,7.257476330E0
2.064687500E-1,-5.283390045E0,4.966598988E0,7.106402397E0
2.104375000E-1,-5.149372578E0,5.051286697E0,6.920133591E0
2.144093750E-1,-4.851648331E0,5.154562950E0,6.835713863E0
2.183796880E-1,-4.528661251E0,5.206689358E0,6.681958675E0
2.223500000E-1,-4.286549568E0,5.223908901E0,6.449931622E0
2.263203130E-1,-4.084306717E0,5.210175991E0,6.135285854E0
2.302906250E-1,-3.894351006E0,5.203356743E0,5.859435081E0
2.342609380E-1,-3.752901554E0,5.205128193E0,5.605285645E0
2.382328130E-1,-3.728145599E0,5.194412231E0,5.347075939E0
2.422031250E-1,-3.816817045E0,5.173754692E0,5.048011780E0
2.461718750E-1,-3.989209175E0,5.162875652E0,4.835961819E0
2.501437500E-1,-4.217865467E0,5.176886559E0,4.684964180E0
2.541140630E-1,-4.504632950E0,5.219676018E0,4.617476463E0
2.580843750E-1,-4.812689781E0,5.250608921E0,4.669268131E0
2.620546880E-1,-5.035130978E0,5.284396172E0,4.818608761E0
2.660250000E-1,-5.279013634E0,5.297343731E0,5.058450222E0
2.699953130E-1,-5.527062416E0,5.243119717E0,5.310061455E0
2.739671880E-1,-5.798267841E0,5.163728237E0,5.676671505E0
2.779375000E-1,-5.969999313E0,5.126273155E0,6.077604294E0
2.819078130E-1,-6.174521446E0,5.130324364E0,6.686421394E0
2.858781250E-1,-6.375357151E0,5.153902531E0,7.301204205E0
2.898484380E-1,-6.547442436E0,5.198721886E0,7.739333630E0
2.938187500E-1,-6.661913872E0,5.294949055E0,8.183917046E0
2.977906250E-1,-6.639035225E0,5.417159081E0,8.363147736E0
3.017593750E-1,-6.608207703E0,5.567725658E0,8.485309601E0
3.057312500E-1,-6.554050922E0,5.689973831E0,8.471125603E0
3.097015630E-1,-6.504011631E0,5.817804813E0,8.338113785E0
3.136718750E-1,-6.463454247E0,5.914539814E0,8.166698456E0
3.176421880E-1,-6.398015499E0,5.947972775E0,8.026752472E0
3.216203130E-1,-6.328468800E0,5.939152241E0,7.855605602E0
3.255828130E-1,-6.204372406E0,5.871042252E0,7.595298290E0
3.295531250E-1,-6.070144176E0,5.819509506E0,7.256299019E0
3.335250000E-1,-5.878894806E0,5.766386509E0,6.848527908E0
3.374953130E-1,-5.554777622E0,5.931644440E0,6.462955952E0
3.414656250E-1,-5.127316952E0,6.315224171E0,6.173621655E0
3.454359380E-1,-4.657823563E0,6.561539650E0,6.279474258E0
3.494062500E-1,-4.677839279E0,6.653093815E0,5.727284431E0
3.533781250E-1,-5.080380917E0,6.555936813E0,5.117395401E0
3.573484380E-1,-5.507449150E0,6.430193901E0,4.740998268E0
3.613187500E-1,-5.898048878E0,6.265396118E0,4.735980034E0
3.652890630E-1,-6.152025700E0,6.137612820E0,4.949552059E0
3.692593750E-1,-6.358511448E0,6.056449413E0,5.087841511E0
3.732296880E-1,-6.547806740E0,6.026253223E0,5.268709183E0
3.772015630E-1,-6.619307041E0,6.000492096E0,5.537712097E0
3.811718750E-1,-6.562602520E0,6.039843082E0,5.888950825E0
3.851406250E-1,-6.453130245E0,6.102963924E0,6.209410191E0
3.891125000E-1,-6.393917084E0,6.189873695E0,6.542778969E0
3.930828130E-1,-6.366478920E0,6.284521103E0,6.782418728E0
3.970531250E-1,-6.403666019E0,6.337624550E0,6.930926800E0
4.010234380E-1,-6.469688416E0,6.367982864E0,7.002963543E0
4.049937500E-1,-6.511194229E0,6.367159367E0,7.034834862E0
4.089640630E-1,-6.530185223E0,6.356940746E0,6.969358444E0
4.129359380E-1,-6.464047909E0,6.316756248E0,6.860354900E0
4.169062500E-1,-6.255455017E0,6.250686169E0,6.713963985E0
4.208765630E-1,-5.947723866E0,6.178764343E0,6.527905941E0
4.248468750E-1,-5.652968884E0,6.089001179E0,6.329177856E0
4.288171880E-1,-5.299469948E0,5.983138561E0,6.073122501E0
4.327875000E-1,-4.943145275E0,5.895769596E0,5.849465847E0
4.367593750E-1,-4.670991898E0,5.835569859E0,5.758495808E0
4.407281250E-1,-4.571996212E0,5.660103321E0,5.717391968E0
4.447000000E-1,-4.843173504E0,5.131387234E0,5.688115597E0
4.486703130E-1,-5.073485851E0,4.681707859E0,5.760382175E0
4.526406250E-1,-4.971961975E0,4.547699928E0,6.208385468E0
4.566109380E-1,-4.560877323E0,4.854263306E0,6.740702629E0
4.605812500E-1,-3.559488297E0,5.166323185E0,6.227280140E0
4.645515630E-1,-2.204925776E0,5.192152023E0,4.612286091E0
4.685218750E-1,-1.325889826E0,5.321744919E0,2.400771379E0
4.724937500E-1,-2.118380070E0,5.811292648E0,1.667982936E0
4.764640630E-1,-2.923052311E0,6.243953705E0,2.182429790E0
4.804343750E-1,-3.807135105E0,6.548496246E0,3.042532444E0
4.844046880E-1,-4.635337353E0,6.578777790E0,3.708378792E0
4.883750000E-1,-5.034766674E0,6.513128757E0,4.305904865E0
4.923453130E-1,-5.235238075E0,6.375194550E0,5.040072441E0
4.963156250E-1,-5.364735603E0,6.314611435E0,5.648573399E0
5.002859380E-1,-5.326696873E0,6.303559780E0,5.958746433E0
5.042578130E-1,-5.090838909E0,6.240774155E0,6.018429279E0
5.082281250E-1,-4.643640518E0,6.126062870E0,6.089250088E0
5.121984380E-1,-4.215719700E0,5.979633808E0,6.155339241E0
5.161687500E-1,-3.875944376E0,5.888098717E0,6.144105911E0
5.201390630E-1,-3.585249901E0,5.813887596E0,6.130152225E0
5.241093750E-1,-3.369111061E0,5.755709171E0,6.126417637E0
5.280812500E-1,-3.275124311E0,5.740050793E0,6.124233723E0
5.320515630E-1,-3.345370054E0,5.761493206E0,6.163153648E0
5.360218750E-1,-3.633737326E0,5.822554588E0,6.227213383E0
5.399921880E-1,-4.048326969E0,5.919950962E0,6.401252270E0
5.439625000E-1,-4.446329594E0,6.007023335E0,6.571346283E0
5.479328130E-1,-4.883376598E0,6.181627274E0,6.670839787E0
5.519046880E-1,-5.187363625E0,6.392030239E0,6.644752502E0
5.558750000E-1,-5.265299797E0,6.546465874E0,6.498179913E0
5.598437500E-1,-5.010125637E0,6.628500462E0,6.276227474E0
5.638156250E-1,-4.589100361E0,6.551541328E0,5.997867584E0
5.677859380E-1,-4.049476147E0,6.366843224E0,5.667285919E0
5.717562500E-1,-3.120123625E0,6.160252571E0,5.435814381E0
5.757265630E-1,-2.013686419E0,5.931241989E0,5.535911560E0
5.796968750E-1,-1.117891073E0,5.623204231E0,5.830264091E0
5.836671880E-1,-7.091050744E-1,5.420740604E0,6.051765919E0
5.876390630E-1,-8.753105402E-1,5.441034317E0,6.003460884E0
5.916093750E-1,-1.617244959E0,5.688067913E0,5.930121422E0
5.955796880E-1,-2.139803410E0,5.785703182E0,6.318921089E0
5.995500000E-1,-2.747815609E0,6.025094509E0,6.529102802E0
6.035203130E-1,-3.509181499E0,6.494157314E0,6.605765343E0
6.074906250E-1,-4.239748001E0,6.969157219E0,6.675120831E0
6.114625000E-1,-4.978052616E0,7.516088963E0,6.627159595E0
6.154312500E-1,-5.294959068E0,8.028429031E0,6.627504826E0
6.194031250E-1,-5.137889862E0,8.703775406E0,7.117080688E0
6.233734380E-1,-4.740404129E0,9.265733719E0,7.431372166E0
6.273437500E-1,-4.352237225E0,9.349204063E0,6.527158737E0
6.313140630E-1,-3.574437857E0,1.038890076E1,7.224800110E0
6.352843750E-1,-2.798381329E0,1.046559143E1,7.507977009E0
6.392546880E-1,-2.172852993E0,9.788980484E0,7.637819290E0
6.432250000E-1,-2.053382397E0,9.123402596E0,8.030209541E0
6.471968750E-1,-2.267806768E0,8.708985329E0,8.302583694E0
6.511671880E-1,-2.683593750E0,8.367361069E0,8.400190353E0
6.551375000E-1,-3.020639896E0,8.196568489E0,8.278689384E0
6.591078130E-1,-3.327777624E0,7.939651966E0,8.197546005E0
6.630781250E-1,-3.112567663E0,7.925075531E0,7.523826599E0
6.670484380E-1,-2.339182854E0,8.091071129E0,6.644158840E0
6.710203130E-1,-1.438752413E0,8.209516525E0,5.873666286E0
6.749906250E-1,-8.608496189E-1,8.299806595E0,5.338466167E0
6.789609380E-1,-6.029557586E-1,8.376075745E0,4.847166538E0
6.829312500E-1,-7.195438147E-1,8.408828735E0,4.559154034E0
6.869015630E-1,-1.055718541E0,8.403322220E0,4.482501030E0
6.908718750E-1,-1.620941520E0,8.413100243E0,4.533995628E0
6.948421880E-1,-2.164396763E0,8.386189461E0,4.567217350E0
6.988125000E-1,-2.614554405E0,8.338650703E0,4.537041187E0
7.027843750E-1,-2.951342106E0,8.323097229E0,4.440391541E0
7.067546880E-1,-3.289843798E0,8.298110962E0,4.316639900E0
7.107250000E-1,-3.551826954E0,8.315905571E0,4.177173138E0
7.146953130E-1,-3.702623367E0,8.367094040E0,4.075046062E0
7.186656250E-1,-3.756282330E0,8.418645859E0,3.981279850E0
7.226359380E-1,-3.742491722E0,8.462277412E0,3.974049330E0
7.266062500E-1,-3.672006369E0,8.460016251E0,4.018993378E0
7.305781250E-1,-3.412235260E0,8.439111710E0,4.149352551E0
7.345468750E-1,-3.005613804E0,8.344789505E0,4.337345123E0
7.385187500E-1,-2.347763777E0,8.164179802E0,4.563224316E0
7.424890630E-1,-1.499967456E0,7.907100201E0,4.741477013E0
7.464593750E-1,-3.532692492E-1,7.491658211E0,4.880369663E0
7.504296880E-1,5.814558268E-1,7.095877647E0,4.794322014E0
7.544000000E-1,1.088844657E0,6.872335911E0,4.634973049E0
7.583703130E-1,1.262864709E0,6.766368389E0,4.408127308E0
7.623406250E-1,1.121740937E0,6.831988811E0,4.152196884E0
7.663109380E-1,7.975660563E-1,6.994229317E0,3.890242577E0
7.702828130E-1,4.586236775E-1,7.159304619E0,3.621871710E0
7.742531250E-1,-1.202846877E-2,7.348868370E0,3.136509418E0
7.782234380E-1,-4.772889018E-1,7.490422726E0,2.555120945E0
7.821937500E-1,-8.663945198E-1,7.624047756E0,2.106131315E0
7.861640630E-1,-1.290081978E0,7.759406567E0,1.727416515E0
7.901359380E-1,-1.704413056E0,7.850214005E0,1.515452981E0
7.941062500E-1,-2.062365294E0,7.930917263E0,1.433647990E0
7.980765630E-1,-2.428917646E0,7.969751358E0,1.478055716E0
8.020468750E-1,-2.600936174E0,7.987803936E0,1.565788865E0
8.060171880E-1,-2.743132591E0,8.064504623E0,1.765101314E0
8.099875000E-1,-2.819277763E0,8.176552773E0,1.933720112E0
8.139578130E-1,-2.872678280E0,8.345842361E0,2.178378582E0
8.179296880E-1,-2.878021955E0,8.552884102E0,2.354074955E0
8.219000000E-1,-2.852825403E0,8.741077423E0,2.425096512E0
8.258703130E-1,-2.754327774E0,8.953988075E0,2.459793329E0
8.298406250E-1,-2.612026215E0,9.141646385E0,2.504679680E0
8.338109380E-1,-2.453616142E0,9.268347740E0,2.567101240E0
8.377812500E-1,-2.315356016E0,9.442080498E0,2.736390591E0
8.417515630E-1,-2.217203140E0,9.564835548E0,2.877849579E0
8.457234380E-1,-2.122928858E0,9.636096954E0,2.953726530E0
8.496921880E-1,-2.117661953E0,9.668533325E0,2.940405369E0
8.536640630E-1,-2.099992752E0,9.682324409E0,2.864145279E0
8.576343750E-1,-2.045060158E0,9.659349442E0,2.865715742E0
8.616046880E-1,-2.004167080E0,9.582524300E0,2.913504124E0
8.655750000E-1,-1.961578965E0,9.445201874E0,2.909376383E0
8.695468750E-1,-1.959682822E0,9.284408569E0,2.882188082E0
8.735156250E-1,-2.037915707E0,9.182568550E0,2.895470858E0
8.774875000E-1,-2.187304497E0,9.183296204E0,2.972851515E0
8.814578130E-1,-2.388800383E0,9.282808304E0,3.070190191E0
8.854281250E-1,-2.556135893E0,9.416806221E0,3.061187983E0
8.893984380E-1,-2.699127197E0,9.542828560E0,2.959759951E0
8.933687500E-1,-2.725271940E0,9.653296471E0,2.714124441E0
8.973390630E-1,-2.659939051E0,9.730534554E0,2.348654270E0
9.013109380E-1,-2.495533943E0,9.785580635E0,1.977802157E0
9.052796880E-1,-2.186442375E0,9.844239235E0,1.498942614E0
9.092515630E-1,-1.833019972E0,9.945456505E0,1.026135683E0
9.132218750E-1,-1.722618580E0,1.006450558E1,7.892150879E-1
9.171921880E-1,-1.646913886E0,1.018514442E1,6.245706081E-1
9.211625000E-1,-1.625059605E0,1.021768665E1,5.948824883E-1
9.251328130E-1,-1.602831841E0,1.017750168E1,5.519975424E-1
9.291031250E-1,-1.516947031E0,1.011707306E1,4.771452248E-1
9.330750000E-1,-1.299860001E0,1.001110554E1,2.640038431E-1
9.370453130E-1,-1.022170901E0,9.862627029E0,-9.733866155E-2
9.410156250E-1,-8.465514183E-1,9.737687111E0,-3.475998044E-1
9.449859380E-1,-8.663371205E-1,9.608151436E0,-4.318277836E-1
9.489562500E-1,-1.095596313E0,9.516635895E0,-2.523775995E-1
9.529265630E-1,-1.364053369E0,9.472754478E0,4.752011597E-2
9.568984380E-1,-1.688122869E0,9.413771629E0,3.913657963E-1
9.608687500E-1,-1.941113353E0,9.354768753E0,6.792925000E-1
9.648375000E-1,-1.972391248E0,9.274179459E0,8.374438286E-1
9.688093750E-1,-1.950383782E0,9.122597694E0,8.119121194E-1
9.727796880E-1,-1.836438894E0,8.926043510E0,6.194086671E-1
9.767500000E-1,-1.609066367E0,8.710958481E0,4.211688340E-1
9.807203130E-1,-1.272326708E0,8.497405052E0,3.435296416E-1
9.846906250E-1,-8.324639201E-1,8.307419777E0,3.656424880E-1
9.886609380E-1,-4.735251963E-1,8.259057999E0,4.804875553E-1
9.926312500E-1,-3.074154854E-1,8.319410324E0,4.666586220E-1
9.966031250E-1,-2.547335029E-1,8.590711594E0,3.844417334E-1
1.000573438E0,-3.811664879E-1,9.049306870E0,2.030091584E-1
1.004543750E0,-4.289739132E-1,9.601064682E0,-2.777273953E-2
1.008514063E0,-5.241290927E-1,1.012118149E1,-1.439585537E-1
1.012484375E0,-8.231360912E-1,1.079034138E1,-3.396127224E-1
1.016456250E0,-1.132773399E0,1.137413406E1,-5.762460232E-1
1.020425000E0,-1.466084599E0,1.177886868E1,-8.063575625E-1
1.024395313E0,-1.827723980E0,1.205924892E1,-1.079076290E0
1.028367188E0,-2.092379093E0,1.222488022E1,-1.525173426E0
1.032337500E0,-2.175821781E0,1.224818039E1,-1.835117340E0
1.036306250E0,-2.184871912E0,1.217175770E1,-2.706261873E0
1.040278125E0,-2.343281746E0,1.233695698E1,-4.347592831E0
1.044248438E0,-2.092675924E0,1.227304173E1,-5.588669777E0
1.048218750E0,-1.469053507E0,1.192694569E1,-5.432012558E0
1.052190625E0,-7.883723378E-1,1.132793522E1,-4.683671474E0
1.056160938E0,-5.982248187E-1,1.066525841E1,-3.675750732E0
1.060131250E0,-7.688356042E-1,1.012697601E1,-2.914423227E0
1.064132813E0,-9.939672351E-1,9.550432205E0,-2.451748848E0
1.068071875E0,-1.185321450E0,9.143581390E0,-2.438752890E0
1.072042188E0,-1.227938056E0,8.893328667E0,-2.539089203E0
1.076014063E0,-1.076950192E0,8.653229713E0,-2.672273874E0
1.079984375E0,-9.188659191E-1,8.498860359E0,-2.746043921E0
1.083954688E0,-8.367639184E-1,8.497558594E0,-2.713837147E0
1.087925000E0,-7.437731028E-1,8.609042168E0,-2.640478849E0
1.091895313E0,-4.495544732E-1,8.838569641E0,-2.729591131E0
1.095865625E0,4.072537124E-1,9.203751564E0,-3.518825293E0
1.099837500E0,9.846968651E-1,9.710297585E0,-3.275353909E0
1.103806250E0,3.391913474E-1,1.021957302E1,-1.032600045E0
1.107778125E0,-1.415921211E0,1.023390007E1,1.374060988E0
1.111748438E0,-2.386281729E0,9.880142212E0,2.135733128E0
1.115718750E0,-2.160633087E0,9.343352318E0,1.712505460E0
1.119689063E0,-7.639705539E-1,8.955674171E0,5.622159839E-1
1.123659375E0,6.229233742E-1,8.865737915E0,-7.377876043E-1
1.127629688E0,1.212538719E0,8.998587608E0,-1.508337498E0
1.131601563E0,1.148498535E0,9.285987854E0,-2.118236303E0
1.135571875E0,6.688058972E-1,9.622765541E0,-2.455014467E0
1.139542188E0,3.408864439E-1,9.947975159E0,-2.854214191E0
1.143510938E0,2.335974723E-1,1.021384621E1,-3.243951559E0
1.147482813E0,2.543408275E-1,1.020312977E1,-3.298836470E0
1.151453125E0,2.976663113E-1,9.905453682E0,-2.974709511E0
1.155426563E0,3.009032607E-1,9.268893242E0,-2.375488520E0
1.159395313E0,3.554910719E-1,8.857550621E0,-2.060603380E0
1.163364063E0,8.112513274E-2,9.702760696E0,-1.762439013E0
1.167335938E0,7.312849164E-2,1.004482555E1,-1.703005195E0
1.171306250E0,3.243281245E-1,9.992075920E0,-1.743572593E0
1.175276563E0,6.446818709E-1,1.005565643E1,-1.656845093E0
1.179246875E0,7.705786228E-1,1.011416149E1,-1.739138603E0
1.183217188E0,8.204163313E-1,9.985698700E0,-1.877504230E0
1.187187500E0,7.033782005E-1,9.766580582E0,-1.953802586E0
1.191159375E0,5.456576943E-1,9.667000771E0,-2.009951591E0
1.195128125E0,3.930417299E-1,9.539552689E0,-1.781525493E0
1.199100000E0,1.962096244E-1,9.421863556E0,-1.367290258E0
1.203070313E0,-1.712524593E-1,9.290192604E0,-7.467706800E-1
1.207040625E0,-4.152120352E-1,9.087412834E0,-1.206964925E-1
1.211010938E0,-7.028992772E-1,8.714414597E0,3.592355847E-1
1.214982813E0,-7.790253162E-1,8.237701416E0,6.239576936E-1
1.218953125E0,-9.296301603E-1,8.050311089E0,5.462802052E-1
1.222921875E0,-1.064931393E0,8.059237480E0,3.968628943E-1
1.226893750E0,-1.408604622E0,8.501723289E0,7.442136109E-2
1.230864063E0,-1.749481440E0,9.104928970E0,-3.402831256E-1
1.234834375E0,-2.002759218E0,9.274543762E0,-3.952252567E-1
1.238804688E0,-1.960401177E0,8.651763916E0,-8.863143325E-1
1.242775000E0,-1.996630073E0,9.158577919E0,-2.429425240E0
1.246745313E0,-1.969882131E0,9.390652657E0,-2.791131496E0
1.250715625E0,-1.828643441E0,1.033980083E1,-4.230496883E0
1.254685938E0,-1.600677133E0,1.144054890E1,-5.105089188E0
1.258657813E0,-1.444383502E0,1.189004612E1,-5.262034416E0
1.262628125E0,-1.315498948E0,1.177352524E1,-4.844925880E0
1.266598438E0,-1.369406700E0,1.125031567E1,-4.685031414E0
1.270570313E0,-1.549000621E0,1.074382687E1,-4.632646084E0
1.274539063E0,-1.778001189E0,1.051897240E1,-4.453310966E0
1.278509375E0,-2.081384659E0,1.059264755E1,-3.910104990E0
1.282481250E0,-2.188798428E0,1.090905571E1,-3.169789076E0
1.286451563E0,-2.062815428E0,1.131490135E1,-2.486273289E0
1.290421875E0,-1.850267768E0,1.194271851E1,-1.743783355E0
1.294392188E0,-1.560713053E0,1.242226791E1,-1.357522011E0
1.298362500E0,-1.358326435E0,1.280249500E1,-1.373888731E0
1.302332813E0,-1.146209717E0,1.317350101E1,-1.687529206E0
1.306304688E0,-8.631384373E-1,1.330713558E1,-2.084794283E0
1.310275000E0,-6.303358674E-1,1.325900269E1,-2.353873730E0
1.314245313E0,-6.035686731E-1,1.306106949E1,-2.469168901E0
1.318215625E0,-6.535500288E-1,1.265950394E1,-2.691647768E0
1.322185938E0,-6.363117695E-1,1.211105919E1,-2.872812271E0
1.326156250E0,-6.408894658E-1,1.162101460E1,-2.999647379E0
1.330126563E0,-6.338026524E-1,1.104932690E1,-3.220220566E0
1.334096875E0,-7.511664629E-1,1.061332417E1,-3.390793085E0
1.338068750E0,-8.393304944E-1,1.033787632E1,-3.486963034E0
1.342039063E0,-8.363904357E-1,1.008600616E1,-3.504488707E0
1.346009375E0,-8.714127541E-1,9.998109818E0,-3.411756516E0
1.349979688E0,-9.198235273E-1,1.003328514E1,-3.092963934E0
1.353951563E0,-9.962943792E-1,1.010704613E1,-2.871385336E0
1.357920313E0,-1.073263168E0,1.023940754E1,-2.664631605E0
1.361890625E0,-1.079852104E0,1.029747105E1,-2.378227472E0
1.365862500E0,-9.435357451E-1,1.021678638E1,-2.148010731E0
1.369832813E0,-6.909378767E-1,1.001612377E1,-1.878528953E0
1.373803125E0,-4.034900069E-1,9.724164963E0,-1.551662922E0
1.377773438E0,-1.986900121E-1,9.428423882E0,-1.244965672E0
1.381743750E0,-1.050575748E-1,9.189051628E0,-9.823313355E-1
1.385714063E0,-4.590163380E-2,9.023076057E0,-9.197565317E-1
1.389685938E0,-1.116368324E-1,8.958700180E0,-9.808374047E-1
1.393654688E0,-2.840672433E-1,8.952830315E0,-1.068302393E0
1.397625000E0,-3.892684579E-1,8.914608955E0,-1.205729485E0
1.401596875E0,-4.132104814E-1,8.845233917E0,-1.192915797E0
1.405567188E0,-3.579618931E-1,8.752464294E0,-1.017554879E0
1.409537500E0,-2.190503031E-1,8.711906433E0,-8.408723474E-1
1.413507813E0,3.904464096E-2,8.713916779E0,-7.026695013E-1
1.417479688E0,5.870582536E-2,8.770602226E0,-3.924766779E-1
1.421448438E0,6.179913506E-2,8.758468628E0,-3.168677986E-1
1.425420313E0,1.977610588E-2,8.734642029E0,-3.874010146E-1
1.429390625E0,-8.205407858E-2,8.802990913E0,-4.751915932E-1
1.433360938E0,-1.348222792E-1,8.861065865E0,-4.222414196E-1
1.437331250E0,-1.722771823E-1,8.990687370E0,-4.231129289E-1
1.441301563E0,-1.295071542E-1,9.192833900E0,-2.427816242E-1
1.445271875E0,-1.323035955E-1,9.291974068E0,-3.026654124E-1
1.449243750E0,-2.951284349E-1,9.419699669E0,-3.975332677E-1
1.453212500E0,-2.914413810E-1,9.479132652E0,-4.465952516E-1
1.457184375E0,-4.645708799E-1,9.586891174E0,-5.148778558E-1
1.461154688E0,-4.644847214E-1,9.702464104E0,-7.056765556E-1
1.465125000E0,-5.054925680E-1,9.916131973E0,-7.622755170E-1
1.469095313E0,-6.323852539E-1,1.002463722E1,-9.216048717E-1
1.473065625E0,-7.295324206E-1,1.007822990E1,-1.111369252E0
1.477035938E0,-5.698391795E-1,1.002546120E1,-1.468670368E0
1.481006250E0,-8.009083569E-2,9.927125931E0,-1.708521485E0
1.484978125E0,2.940079570E-1,9.958585739E0,-1.759814858E0
1.488948438E0,5.829306841E-1,1.009178066E1,-1.757861257E0
1.492918750E0,6.726844907E-1,1.031797504E1,-1.859269977E0
1.496889063E0,7.258836627E-1,1.055548954E1,-2.063026190E0
1.500859375E0,6.629736423E-1,1.093425179E1,-2.251899958E0
1.504831250E0,7.498927116E-1,1.126627064E1,-2.353701353E0
1.508800000E0,1.116272569E0,1.147826290E1,-2.395839453E0
1.512770313E0,1.415509462E0,1.155774021E1,-2.354170561E0
1.516742188E0,1.787242770E0,1.156922340E1,-2.308450937E0
1.520712500E0,2.274443865E0,1.148721695E1,-2.347677469E0
1.524682813E0,3.073350668E0,1.131665421E1,-2.450024843E0
1.528654688E0,4.664575100E0,1.090205479E1,-2.287602186E0
1.532623438E0,4.971320152E0,1.096500301E1,-5.123974681E-1
1.536595313E0,3.517407894E0,1.159624863E1,1.636379361E0
1.540565625E0,3.867306113E-1,1.234304810E1,3.132602215E0
1.544535938E0,-2.175515413E0,1.242446136E1,2.340514183E0
1.548506250E0,-2.882044077E0,1.220495987E1,1.262223162E-2
1.552476563E0,-2.234230757E0,1.206539726E1,-1.948564172E0
1.556446875E0,-3.567264676E-1,1.181941700E1,-3.066732883E0
1.560417188E0,2.176741123E0,1.126921082E1,-2.705917120E0
1.564389063E0,4.020946980E0,1.067273808E1,-1.633439302E0
1.568359375E0,5.030878544E0,1.006889153E1,-2.125380635E-1
1.572329688E0,4.510924816E0,9.843185425E0,7.960146070E-1
1.576300000E0,3.234135389E0,1.000058937E1,1.071989536E0
1.580270313E0,1.371685982E0,1.045794964E1,8.844276667E-1
1.584240625E0,1.965256482E-1,1.089202785E1,1.649700701E-1
1.588212500E0,-9.155427665E-2,1.115779400E1,-7.173028588E-1
1.592181250E0,9.512642026E-2,1.128103828E1,-1.326703787E0
1.596153125E0,1.471955329E-1,1.138789558E1,-1.584712505E0
1.600123438E0,4.808802009E-1,1.130859947E1,-1.635785699E0
1.604093750E0,5.757672191E-1,1.121735287E1,-1.351986527E0
1.608064063E0,6.000444293E-1,1.104896259E1,-8.689802885E-1
1.612034375E0,9.536009431E-1,1.081854534E1,-5.560102463E-1
1.616004688E0,1.178110003E0,1.060910034E1,-4.693114460E-1
1.619975000E0,1.409016490E0,1.022287655E1,-7.051690221E-1
1.623946875E0,1.334824920E0,9.755471230E0,-8.953261375E-1
1.627917188E0,8.795147538E-1,9.237501144E0,-1.427786946E0
1.631887500E0,6.340037584E-1,8.896661758E0,-1.709852695E0
1.635857813E0,5.420663953E-1,9.074349403E0,-1.182994246E0
1.639826563E0,1.354610562E0,9.631547928E0,2.979919016E-1
1.643798438E0,2.180447340E0,1.012800026E1,9.558514953E-1
1.647770313E0,3.029038668E0,1.058642292E1,5.116121769E-1
1.651739063E0,3.443570852E0,1.096204376E1,-1.091660261E-1
1.655709375E0,3.570817947E0,1.113027954E1,-2.496769279E-1
1.659679688E0,3.401586056E0,1.122698593E1,-1.006905437E-1
1.663651563E0,3.342803478E0,1.111836624E1,-6.724833697E-2
1.667621875E0,3.332891703E0,1.085289764E1,-1.899942607E-1
1.671592188E0,3.393551111E0,1.052914333E1,-2.550112009E-1
1.675562500E0,3.423028469E0,1.021676731E1,-1.591282189E-1
1.679534375E0,3.329941988E0,1.001178551E1,-2.884534188E-2
1.683503125E0,3.133971691E0,9.910750389E0,7.208462805E-2
1.687475000E0,2.894637585E0,9.844928741E0,9.673532844E-2
1.691445313E0,2.836257458E0,9.802857399E0,-6.866570562E-3
1.695415625E0,3.004024029E0,9.768496513E0,-9.238746017E-2
1.699385938E0,3.165469646E0,9.702579498E0,-1.834628880E-1
1.703357813E0,3.217462301E0,9.602788925E0,-3.921510875E-1
1.707326563E0,3.116896152E0,9.428874016E0,-6.655688882E-1
1.711296875E0,2.963935614E0,9.174571037E0,-7.688068748E-1
1.715268750E0,2.670492649E0,8.746133804E0,-7.627352476E-1
1.719237500E0,2.421572208E0,8.261900902E0,-8.989269137E-1
1.723207813E0,2.235791683E0,7.946173191E0,-1.124029756E0
1.727179688E0,2.065506697E0,7.655191898E0,-1.396039963E0
1.731150000E0,1.895039439E0,7.419248104E0,-1.615482807E0
1.735120313E0,1.625030875E0,7.314008236E0,-1.731917620E0
1.739092188E0,1.475316644E0,7.293763161E0,-1.876814723E0
1.743062500E0,1.473142743E0,7.302094936E0,-2.144045830E0
1.747032813E0,1.597468853E0,7.308003902E0,-2.297284365E0
1.751003125E0,1.723633647E0,7.221918106E0,-2.144840717E0
1.754973438E0,1.736658216E0,7.106048107E0,-1.909260988E0
1.758943750E0,1.667044282E0,7.032278061E0,-1.765369415E0
1.762914063E0,1.566392064E0,7.012032509E0,-1.761787772E0
1.766884375E0,1.512302279E0,6.979050159E0,-1.859432817E0
1.770856250E0,1.413728237E0,6.881452560E0,-2.048019171E0
1.774826563E0,1.324931979E0,6.765334129E0,-2.276062250E0
1.778796875E0,1.233837485E0,6.655708313E0,-2.385620832E0
1.782767188E0,1.051609993E0,6.568971157E0,-2.393579006E0
1.786737500E0,7.264007926E-1,6.529275417E0,-2.491818190E0
1.790707813E0,5.243780613E-1,6.526344776E0,-2.522971392E0
1.794679688E0,4.260625541E-1,6.528902054E0,-2.518805504E0
1.798650000E0,3.724611700E-1,6.547921181E0,-2.621650934E0
1.802620313E0,3.533075452E-1,6.588900566E0,-2.721527338E0
1.806590625E0,3.761769831E-1,6.781844139E0,-2.723107576E0
1.810560938E0,5.321831703E-1,7.027365208E0,-2.771307707E0
1.814531250E0,7.150809765E-1,7.270664215E0,-2.782311201E0
1.818501563E0,7.327980995E-1,7.437798500E0,-2.789043903E0
1.822473438E0,5.684409142E-1,7.622774601E0,-2.878299713E0
1.826443750E0,4.098586142E-1,7.656896591E0,-2.884208441E0
1.830414063E0,3.086126149E-1,7.563024521E0,-2.867583275E0
1.834384375E0,2.127487659E-1,7.341513157E0,-3.016531229E0
1.838354688E0,8.490796387E-2,7.238734722E0,-3.168352604E0
1.842325000E0,-4.903325066E-2,7.597950935E0,-2.967708826E0
1.846296875E0,-1.701319665E-1,8.129147530E0,-2.858188391E0
1.850265625E0,-4.476582706E-1,8.648555756E0,-2.743353128E0
1.854237500E0,-7.444530725E-1,8.944986343E0,-2.756339073E0
1.858207813E0,-9.949440360E-1,9.045542717E0,-2.695105076E0
1.862178125E0,-1.363478780E0,8.927336693E0,-2.448693752E0
1.866148438E0,-1.745056987E0,8.655240059E0,-2.619735479E0
1.870118750E0,-2.031690836E0,8.400554657E0,-2.846006870E0
1.874089063E0,-2.071750641E0,8.275835991E0,-2.997722387E0
1.878059375E0,-2.005191803E0,8.171361923E0,-3.388599873E0
1.882031250E0,-1.915524125E0,8.122770309E0,-3.445218086E0
1.886000000E0,-1.884169698E0,8.011726379E0,-3.266256094E0
1.889971875E0,-1.754308224E0,7.678990364E0,-2.694137812E0
1.893942188E0,-1.780002832E0,7.627121925E0,-3.850747824E0
1.897912500E0,-1.777771354E0,7.682868481E0,-3.755065918E0
1.901884375E0,-1.532413602E0,7.659032345E0,-3.332010508E0
1.905853125E0,-1.192666769E0,7.497471333E0,-3.677876949E0
1.909823438E0,-8.652453423E-1,7.206623554E0,-3.637376547E0
1.913795313E0,-8.729642630E-1,6.893577099E0,-3.649108171E0
1.917765625E0,-1.457953811E0,6.710832596E0,-3.999782085E0
1.921735938E0,-2.478832006E0,6.762202740E0,-4.115967751E0
1.925706250E0,-3.701560259E0,6.944573879E0,-4.359668732E0
1.929676563E0,-4.675339699E0,7.039431572E0,-3.187295437E0
1.933648438E0,-5.393494606E0,6.970306873E0,-4.445055485E0
1.937617188E0,-5.864443779E0,7.083207607E0,-5.918485641E0
1.941589063E0,-6.081148148E0,7.101671219E0,-6.203309536E0
1.945559375E0,-6.158212185E0,6.962730885E0,-5.823023796E0
1.949529688E0,-6.163335800E0,6.905979156E0,-5.292995453E0
1.953500000E0,-5.866474152E0,6.858899593E0,-4.656042576E0
1.957470313E0,-5.446444988E0,6.635635376E0,-1.851512790E0
1.961442188E0,-4.934775352E0,6.463961601E0,-3.325412035E0
1.965412500E0,-4.270595074E0,6.780809879E0,-4.711855888E0
1.969382813E0,-3.630079031E0,7.144029617E0,-4.678739071E0
1.973353125E0,-3.365337849E0,7.419209480E0,-4.715935707E0
1.977323438E0,-3.333791733E0,7.678472996E0,-4.616260052E0
1.981293750E0,-3.291251659E0,8.240324974E0,-3.921213865E0
1.985264063E0,-2.887196541E0,8.974761009E0,-3.533276558E0
1.989237500E0,-2.442669868E0,9.866534233E0,-3.345676422E0
1.993206250E0,-1.988384485E0,1.044074059E1,-3.139985800E0
1.997175000E0,-1.266206980E0,1.110964203E1,-2.812708139E0
2.001146875E0,-1.027055025E0,1.135291195E1,-1.325659871E0
2.005117188E0,-1.162700891E0,1.191950512E1,-3.799588680E0
2.009087500E0,-1.220487475E0,1.257719135E1,-4.770925999E0
2.013057813E0,-1.397543430E0,1.285465145E1,-4.443169117E0
2.017028125E0,-1.643916368E0,1.278999805E1,-4.230094910E0
2.021000000E0,-1.965381026E0,1.276957989E1,-3.972038031E0
2.024970313E0,-2.022056580E0,1.265613270E1,-3.810429335E0
2.028940625E0,-2.012326479E0,1.249685192E1,-3.968044519E0
2.032910938E0,-2.049637794E0,1.218808556E1,-4.354363441E0
2.036881250E0,-2.084372759E0,1.180404663E1,-4.604528904E0
2.040851563E0,-2.001648426E0,1.139820957E1,-4.614938259E0
2.044821875E0,-1.802613616E0,1.096811485E1,-4.574821472E0
2.048792188E0,-1.742624521E0,1.057412624E1,-4.463740349E0
2.052764063E0,-1.715828657E0,1.040192604E1,-4.435938358E0
2.056764063E0,-1.573641777E0,1.033234024E1,-4.363988400E0
2.060703125E0,-1.078808069E0,1.029943466E1,-4.248367310E0
2.064675000E0,-5.097447038E-1,1.019931793E1,-4.127316475E0
2.068645313E0,-1.628248692E-1,1.011324215E1,-3.835741043E0
2.072615625E0,3.717716038E-2,9.762242317E0,-3.482165337E0
2.076585938E0,2.667140663E-1,9.369688988E0,-3.132161617E0
2.080557813E0,6.951038241E-1,9.382034302E0,-3.223792553E0
2.084526563E0,1.158448815E0,9.815106392E0,-3.057836294E0
2.088498438E0,1.618633509E0,1.018544102E1,-2.806195974E0
2.092468750E0,2.015314341E0,1.058045578E1,-2.690268755E0
2.096439063E0,2.393406630E0,1.079847145E1,-2.581035614E0
2.100410938E0,2.660810232E0,1.099918270E1,-2.516143084E0
2.104379688E0,2.755927324E0,1.126641369E1,-2.653589487E0
2.108357813E0,2.839839458E0,1.169375038E1,-2.932676792E0
2.112321875E0,2.848669052E0,1.200487232E1,-3.030896425E0
2.116292188E0,2.629542351E0,1.194365692E1,-3.222480536E0
2.120262500E0,2.644635201E0,1.177787304E1,-3.274808407E0
2.124232813E0,2.925293207E0,1.157472038E1,-3.210174322E0
2.128203125E0,3.502161503E0,1.140527725E1,-2.960880518E0
2.132175000E0,4.075486660E0,1.125714397E1,-2.471668482E0
2.136143750E0,4.021502018E0,1.101899719E1,-2.040673733E0
2.140115625E0,3.786554337E0,1.049173641E1,-1.796771765E0
2.144085938E0,3.139210224E0,9.887334824E0,-1.809863329E0
2.148056250E0,2.489280224E0,9.376087189E0,-2.025092363E0
2.152026563E0,2.059348583E0,8.699522972E0,-2.119232416E0
2.155996875E0,1.631054640E0,8.062914848E0,-2.172316551E0
2.159967188E0,1.119346857E0,7.557307243E0,-2.102080345E0
2.163937500E0,7.948366404E-1,7.255973339E0,-1.971615434E0
2.167909375E0,6.968276501E-1,7.010088444E0,-1.631447434E0
2.171879688E0,1.602056146E0,6.227969646E0,-1.411295652E0
2.175848438E0,1.589338183E0,5.925993919E0,-1.015706539E0
2.179820313E0,7.136444449E-1,6.346732140E0,-3.342305720E-1
2.183790625E0,1.517454624E0,5.906169891E0,-1.404141903E0
2.187760938E0,2.606739759E0,5.055711269E0,-2.949005365E0
2.191732813E0,2.238262415E0,5.197131634E0,-2.251038074E0
2.195701563E0,1.746177435E0,5.603906631E0,-1.502505302E0
2.199671875E0,1.209138870E0,6.197046280E0,-1.000220776E0
2.203643750E0,8.802234530E-1,6.887256145E0,-7.493085265E-1
2.207614063E0,7.350582480E-1,7.063393116E0,-7.704924345E-1
2.211584375E0,2.759748399E-1,7.365292549E0,-2.578842342E-1
2.215554688E0,-3.432614803E-1,8.112331390E0,6.027641892E-2
2.219525000E0,-5.159025788E-1,8.867921829E0,9.142976999E-1
2.223495313E0,-3.005202115E-1,9.413522720E0,1.616794825E0
2.227467188E0,-3.223648965E-1,1.020387650E1,1.694998980E0
2.231437500E0,-6.999687850E-2,1.108609295E1,1.301957250E0
2.235406250E0,-7.884201407E-1,1.128812504E1,7.584639192E-1
2.239378125E0,-1.661077976E0,1.128129673E1,3.228437304E-1
2.243348438E0,-2.253374815E0,1.133257008E1,-4.769249819E-3
2.247318750E0,-2.696972370E0,1.147007465E1,-4.547738433E-1
2.251290625E0,-2.534492493E0,1.177799702E1,-8.637321591E-1
2.255259375E0,-2.428707123E0,1.197937870E1,-1.445293307E0
2.259231250E0,-1.991573572E0,1.208261585E1,-2.038854361E0
2.263201563E0,-1.330343008E0,1.211717033E1,-2.787157297E0
2.267171875E0,-1.400981426E0,1.207005215E1,-3.302054167E0
2.271142188E0,-3.427136898E0,1.163269806E1,-3.983616352E0
2.275112500E0,-5.709395409E0,1.068989944E1,-4.773319721E0
2.279082813E0,-6.067692280E0,1.023427391E1,-3.134392977E0
2.283054688E0,-5.307341576E0,1.000451660E1,-1.542201042E0
2.287025000E0,-3.305798769E0,9.936971664E0,5.115930438E-1
2.290995313E0,-1.100154757E0,9.584813118E0,1.673997045E0
2.294965625E0,2.215307057E-1,9.087335587E0,1.921634197E0
2.298935938E0,1.303987503E0,8.344501495E0,1.486234307E0
2.302906250E0,1.544212103E0,8.183831215E0,8.672756553E-1
2.306878125E0,1.183080435E0,8.380309105E0,9.609080553E-1
2.310848438E0,5.054351091E-1,9.051538467E0,8.907292485E-1
2.314817188E0,-6.676662564E-1,9.572889328E0,4.776911438E-1
2.318789063E0,-1.880147457E0,1.026040936E1,-3.446022272E-1
2.322759375E0,-2.886382580E0,1.109705734E1,-1.252368689E0
2.326729688E0,-4.123734951E0,1.222702503E1,-2.154676199E0
2.330700000E0,-4.927343845E0,1.288576603E1,-2.365385056E0
2.334670313E0,-5.154735565E0,1.354605770E1,-2.548780918E0
2.338640625E0,-5.285056591E0,1.378785324E1,-2.512638092E0
2.342612500E0,-4.724678993E0,1.370257187E1,-2.116369009E0
2.346581250E0,-4.336742401E0,1.322970676E1,-1.805582404E0
2.350553125E0,-4.003067017E0,1.283143616E1,-1.340724230E0
2.354523438E0,-3.894494534E0,1.245238686E1,-5.084039569E-1
2.358493750E0,-3.971501827E0,1.238672829E1,-2.180926204E-1
2.362464063E0,-3.829611778E0,1.264093494E1,-5.127710104E-1
2.366435938E0,-3.515224457E0,1.309253883E1,-5.881596208E-1
2.370406250E0,-2.856311321E0,1.334985828E1,-7.903738618E-1
2.374375000E0,-2.166608810E0,1.351462650E1,-7.655411959E-1
2.378346875E0,-7.178104520E-1,1.397502232E1,-4.547259510E-1
2.382317188E0,6.553313136E-1,1.409130383E1,8.378748596E-2
2.386287500E0,1.462234735E0,1.404228973E1,2.060833126E-1
2.390259375E0,1.977601051E0,1.381379700E1,3.772782981E-1
2.394228125E0,1.903169990E0,1.323777103E1,6.049668789E-1
2.398198438E0,1.659354091E0,1.243128872E1,4.845481217E-1
2.402170313E0,1.075149775E0,1.176573944E1,1.519456208E-1
2.406140625E0,8.312955499E-1,1.104731560E1,-7.250409126E-1
2.410110938E0,3.588429689E-1,1.041885757E1,-1.272096753E0
2.414081250E0,3.052319884E-1,9.962196350E0,-1.738161802E0
2.418051563E0,3.560752571E-1,9.698623657E0,-1.964557409E0
2.422021875E0,3.241270185E-1,9.598709106E0,-1.863167763E0
2.425993750E0,3.989506364E-1,9.623751640E0,-1.964614868E0
2.429964063E0,3.883969784E-1,9.738338470E0,-2.019863605E0
2.433934375E0,4.182670414E-1,9.840810776E0,-2.245119572E0
2.437904688E0,2.709470093E-1,9.985735893E0,-2.416898727E0
2.441875000E0,-1.017918810E-1,1.005842495E1,-2.311132669E0
2.445845313E0,-3.147896528E-1,1.008919430E1,-2.298395157E0
2.449817188E0,-1.012431264E0,1.012072182E1,-2.134210348E0
2.453785938E0,-1.310643435E0,1.012616158E1,-2.374492645E0
2.457757813E0,-1.491166234E0,1.012593174E1,-2.781755924E0
2.461728125E0,-1.529339433E0,1.002904320E1,-3.122479439E0
2.465701563E0,-1.322413325E0,9.935745239E0,-3.049925804E0
2.469668750E0,-1.164118290E0,9.762586594E0,-3.098164082E0
2.473639063E0,-6.581373215E-1,9.594801903E0,-3.079297543E0
2.477609375E0,-2.453194857E-1,9.437206268E0,-3.122632742E0
2.481581250E0,4.038922489E-1,9.366031647E0,-2.881852865E0
2.485550000E0,7.490499020E-1,9.427849770E0,-2.389499426E0
2.489521875E0,1.503798127E0,9.521481514E0,-2.038835049E0
2.493492188E0,1.999512792E0,9.612480164E0,-1.592546344E0
2.497462500E0,2.373199701E0,9.748356819E0,-1.266523123E0
2.501432813E0,3.000394583E0,9.885697365E0,-1.142302394E0
2.505403125E0,3.300799847E0,9.999804497E0,-1.137552261E0
2.509375000E0,3.606385946E0,1.011872959E1,-1.283838034E0
2.513343750E0,3.937666893E0,1.018464661E1,-1.429692745E0
2.517315625E0,3.884783745E0,1.023269367E1,-1.451106429E0
2.521285938E0,3.092753172E0,1.029342937E1,-1.498952270E0
2.525256250E0,1.990491509E0,1.036235332E1,-1.617254496E0
2.529226563E0,1.571170926E0,1.023414898E1,-1.813885450E0
2.533196875E0,1.503156543E0,1.003756618E1,-2.015429497E0
2.537167188E0,1.459179640E0,9.807751656E0,-2.047616959E0
2.541139063E0,1.224614978E0,9.697580338E0,-1.793534756E0
2.545109375E0,9.110032916E-1,9.666867256E0,-1.619083762E0
2.549079688E0,4.697136581E-1,9.646842003E0,-1.486033082E0
2.553050000E0,4.847779498E-2,9.639199257E0,-1.336912632E0
2.557020313E0,-2.993326783E-1,9.586794853E0,-1.249304056E0
2.560990625E0,-5.412907004E-1,9.515563011E0,-1.155767322E0
2.564962500E0,-7.362457514E-1,9.350852013E0,-1.028740644E0
2.568932813E0,-7.794850469E-1,9.151673317E0,-9.286438227E-1
2.572901563E0,-7.778570056E-1,9.015921593E0,-7.736527920E-1
2.576873438E0,-7.475080490E-1,8.889690399E0,-6.192363501E-1
2.580843750E0,-8.214314580E-1,8.812433243E0,-4.834755361E-1
2.584817188E0,-7.762001753E-1,8.769118309E0,-3.531638980E-1
2.588784375E0,-6.571317911E-1,8.739965439E0,-2.778710723E-1
2.592754688E0,-4.410310984E-1,8.757243156E0,-2.268458307E-1
2.596726563E0,-2.080082446E-1,8.793959618E0,-1.632845551E-1
2.600696875E0,-8.961975574E-2,8.902072906E0,-1.368525624E-1
2.604667188E0,1.534204464E-2,9.026035309E0,-7.571423054E-2
2.608637500E0,1.557763368E-1,9.146894455E0,8.583692461E-2
2.612607813E0,2.618490458E-1,9.307056427E0,2.696733177E-1
2.616578125E0,4.637856185E-1,9.448218346E0,4.963180125E-1
2.620550000E0,6.199929118E-1,9.591487885E0,7.114034891E-1
2.624520313E0,6.690740585E-1,9.757071495E0,7.153204083E-1
2.628489063E0,6.729526520E-1,9.898491859E0,7.076014876E-1
2.632460938E0,6.832094193E-1,9.979539871E0,6.500065923E-1
2.636431250E0,6.425846219E-1,1.003957748E1,4.175008833E-1
2.640401563E0,5.170326829E-1,1.008230877E1,1.770464331E-1
2.644371875E0,4.159015715E-1,1.012991524E1,1.398213790E-3
2.648342188E0,4.575702548E-1,1.011302185E1,-5.879201367E-2
2.652312500E0,5.731048584E-1,1.010413456E1,-2.454822809E-1
2.656284375E0,6.462141871E-1,1.013135147E1,-5.049754381E-1
2.660254688E0,5.340219140E-1,1.013421440E1,-6.682504416E-1
2.664225000E0,2.513624430E-1,1.006224537E1,-6.998538971E-1
2.668195313E0,-1.251209825E-1,9.930851936E0,-6.228563786E-1
2.672165625E0,-5.494118333E-1,9.735445976E0,-7.049870491E-1
2.676135938E0,-5.228074193E-1,9.787908554E0,-1.180580854E0
2.680106250E0,1.065774083E0,9.571473122E0,-6.540288448E0
2.684076563E0,2.394441128E0,9.116938591E0,-1.245443630E1
2.688048438E0,2.251909494E0,9.412305832E0,-1.443292809E1
2.692018750E0,9.186838865E-1,1.008260536E1,-1.343775368E1
2.695989063E0,-6.048710942E-1,1.083358955E1,-1.087017345E1
2.699959375E0,-1.696167350E0,1.119021225E1,-8.124819756E0
2.703935938E0,-2.281003952E0,1.111447811E1,-5.076942921E0
2.707900000E0,-2.475345850E0,1.080723572E1,-1.894455194E0
2.711870313E0,-2.127094984E0,1.032589531E1,1.692901731E0
2.715842188E0,-1.007987618E0,9.427590370E0,3.756933451E0
2.719812500E0,-3.920744732E-2,9.019609451E0,3.980187893E0
2.723782813E0,7.609922290E-1,9.081619263E0,3.023225546E0
2.727753125E0,1.074603915E0,9.243179321E0,1.891122460E0
2.731723438E0,9.539552927E-1,9.321901321E0,9.941396117E-1
2.735693750E0,1.618671894E0,1.012206268E1,1.038891971E-1
2.739665625E0,7.388602495E-1,9.922309875E0,-2.234441519E0
2.743635938E0,-1.882704496E-1,9.831617355E0,-1.373227954E0
2.747606250E0,8.391197771E-2,9.978334427E0,-5.754415989E-1
2.751576563E0,6.763428450E-1,1.023029995E1,-6.854120642E-2
2.755546875E0,5.471708179E-1,1.056391716E1,-7.272148728E-1
2.759517188E0,3.617351353E-1,1.071366978E1,-1.102673531E0
2.763487500E0,3.985579908E-1,1.066863918E1,-1.361726165E0
2.767457813E0,4.643027484E-1,1.059334660E1,-1.278407931E0
2.771429688E0,4.327567518E-1,1.055291271E1,-1.290273547E0
2.775400000E0,4.528488815E-1,1.047822380E1,-1.293999076E0
2.779370313E0,5.449298620E-1,1.038055992E1,-1.238281131E0
2.783340625E0,5.663052797E-1,1.026651859E1,-1.266111374E0
2.787310938E0,5.523997545E-1,1.017692757E1,-1.274826169E0
2.791281250E0,5.406490564E-1,1.007587337E1,-1.265996337E0
2.795253125E0,5.186798573E-1,9.998282433E0,-1.249428511E0
2.799223438E0,4.668884873E-1,9.931291580E0,-1.240972161E0
2.803193750E0,4.127220809E-1,9.863986015E0,-1.284786105E0
2.807164063E0,3.543131053E-1,9.797111511E0,-1.311687350E0
2.811134375E0,3.195684552E-1,9.759167671E0,-1.368142605E0
2.815104688E0,2.735998034E-1,9.706476212E0,-1.413393021E0
2.819075000E0,2.715599239E-1,9.677018166E0,-1.466276169E0
2.823053125E0,2.746149302E-1,9.650001526E0,-1.546836257E0
2.827015625E0,2.806674838E-1,9.629958153E0,-1.590104222E0
2.830987500E0,2.704202831E-1,9.612039566E0,-1.652047038E0
2.834957813E0,2.528085411E-1,9.637121201E0,-1.698523283E0
2.838928125E0,2.557103038E-1,9.665545464E0,-1.703206301E0
2.842900000E0,2.626917958E-1,9.704408646E0,-1.694414854E0
2.846868750E0,2.785222828E-1,9.762022018E0,-1.675443292E0
2.850839063E0,2.889131308E-1,9.808268547E0,-1.638926864E0
2.854810938E0,3.065057099E-1,9.869770050E0,-1.595572591E0
2.858781250E0,2.841438651E-1,9.900157928E0,-1.540439010E0
2.862751563E0,2.968905866E-1,9.912961960E0,-1.523497581E0
2.866721875E0,3.073867857E-1,9.939796448E0,-1.491089702E0
2.870692188E0,3.174615800E-1,9.959198952E0,-1.484960437E0
2.874662500E0,3.244813681E-1,9.961124420E0,-1.476839304E0
2.878634375E0,3.126061261E-1,9.970126152E0,-1.475795507E0
2.882603125E0,3.179882765E-1,9.966573715E0,-1.469589710E0
2.886573438E0,3.066780567E-1,9.957753181E0,-1.458021045E0
2.890545313E0,3.190129995E-1,9.947812080E0,-1.463029623E0
2.894515625E0,3.271436989E-1,9.942640305E0,-1.468287230E0
2.898485938E0,3.297103047E-1,9.926235199E0,-1.435017467E0
2.902456250E0,3.218381703E-1,9.914226532E0,-1.408432245E0
2.906426563E0,3.148758113E-1,9.919341087E0,-1.401728511E0
2.910396875E0,3.399670720E-1,9.905272484E0,-1.387411118E0
2.914368750E0,3.325258791E-1,9.915940285E0,-1.368793845E0
2.918339063E0,3.457705975E-1,9.936923981E0,-1.391318440E0
2.922309375E0,3.458855152E-1,9.952754021E0,-1.373783350E0
2.926279688E0,3.582204580E-1,9.960932732E0,-1.357100606E0
2.930250000E0,3.759183884E-1,9.980545998E0,-1.350291491E0
2.934221875E0,3.647422493E-1,9.988274574E0,-1.341634035E0
2.938192188E0,3.866060972E-1,9.989758492E0,-1.369301438E0
2.942170313E0,3.925054371E-1,9.977079391E0,-1.356085420E0
2.946132813E0,3.873914182E-1,9.987661362E0,-1.369042873E0
2.950103125E0,3.807355464E-1,9.957590103E0,-1.371618986E0
2.954073438E0,3.728921115E-1,9.932192802E0,-1.362090111E0
2.958043750E0,3.584598601E-1,9.918066025E0,-1.355960965E0
2.962014063E0,3.361554742E-1,9.910050392E0,-1.352350473E0
2.965984375E0,3.171455264E-1,9.872836113E0,-1.363469124E0
2.969954688E0,3.195301592E-1,9.859628677E0,-1.368975878E0
2.973926563E0,3.044658601E-1,9.863115311E0,-1.374147177E0
2.977896875E0,2.984611690E-1,9.842505455E0,-1.388761520E0
2.981867188E0,2.691753209E-1,9.843090057E0,-1.399832249E0
2.985837500E0,2.813474536E-1,9.849113464E0,-1.429261804E0
2.989807813E0,2.608339190E-1,9.841462135E0,-1.434787631E0
2.993778125E0,2.581045330E-1,9.852207184E0,-1.461190939E0
2.997750000E0,2.699414790E-1,9.857100487E0,-1.473190665E0
3.001720313E0,2.435860783E-1,9.868295670E0,-1.480363607E0
3.005690625E0,2.457887381E-1,9.883906364E0,-1.497352958E0
3.009660938E0,2.541971803E-1,9.888187408E0,-1.492516637E0
3.013631250E0,2.473880798E-1,9.889078140E0,-1.498712778E0
3.017601563E0,2.397361994E-1,9.894469261E0,-1.477174520E0
3.021573438E0,2.436339706E-1,9.893491745E0,-1.473477960E0
3.025542188E0,2.504239082E-1,9.895619392E0,-1.443387628E0
3.029514063E0,2.473114580E-1,9.893215179E0,-1.440284610E0
3.033484375E0,2.514486313E-1,9.869110107E0,-1.410701871E0
3.037454688E0,2.621076405E-1,9.871590614E0,-1.410520077E0
3.041425000E0,2.669726610E-1,9.873017311E0,-1.376733065E0
3.045395313E0,2.846610248E-1,9.872107506E0,-1.368583083E0
3.049395313E0,2.955977321E-1,9.891788483E0,-1.349707246E0
3.053337500E0,3.012576103E-1,9.908537865E0,-1.327785969E0
3.057307813E0,3.195684552E-1,9.910022736E0,-1.329835415E0
3.061282813E0,3.249697983E-1,9.946346283E0,-1.325047016E0
3.065248438E0,3.406278789E-1,9.948865891E0,-1.356593013E0
3.069218750E0,3.623289168E-1,9.965500832E0,-1.383685827E0
3.073189063E0,3.666097522E-1,9.971858978E0,-1.389048815E0
3.077159375E0,3.715705276E-1,9.979731560E0,-1.397581697E0
3.081129688E0,3.833212554E-1,9.974244118E0,-1.410491228E0
3.085100000E0,3.973034024E-1,9.948387146E0,-1.443205714E0
3.089071875E0,3.939419687E-1,9.949488640E0,-1.435601711E0
3.093042188E0,3.804769516E-1,9.942736626E0,-1.427403927E0
3.097012500E0,3.616393805E-1,9.944383621E0,-1.429233074E0
3.100982813E0,3.423612714E-1,9.932537079E0,-1.422136545E0
3.104953125E0,3.352361023E-1,9.926217079E0,-1.425651312E0
3.108923438E0,3.194248080E-1,9.931655884E0,-1.426446199E0
3.112895313E0,3.013533950E-1,9.914983749E0,-1.445369959E0
3.116865625E0,2.888460755E-1,9.911132812E0,-1.446921349E0
3.120835938E0,2.761855125E-1,9.886195183E0,-1.442382097E0
3.124806250E0,2.585259080E-1,9.892113686E0,-1.442554474E0
3.128776563E0,2.441128045E-1,9.857953072E0,-1.440964580E0
3.132746875E0,2.325918972E-1,9.853489876E0,-1.438187361E0
3.136717188E0,2.268745601E-1,9.849582672E0,-1.423151851E0
3.140687500E0,2.019652724E-1,9.872500420E0,-1.416764021E0
3.144659375E0,2.075772882E-1,9.892716408E0,-1.428284883E0
3.148629688E0,2.545610964E-1,9.884634018E0,-1.431406975E0
3.152600000E0,2.424081266E-1,9.881186485E0,-1.432795644E0
3.156570313E0,2.423985600E-1,9.870699883E0,-1.414187908E0
3.160540625E0,2.493609041E-1,9.860682487E0,-1.415988445E0
3.164510938E0,2.543791234E-1,9.836769104E0,-1.393683910E0
3.168481250E0,2.810314000E-1,9.842812538E0,-1.378322721E0
3.172453125E0,2.923607528E-1,9.831081390E0,-1.360873818E0
3.176423438E0,3.161016405E-1,9.828379631E0,-1.374587774E0
3.180396875E0,3.191087544E-1,9.829720497E0,-1.358431816E0
3.184364063E0,3.153738081E-1,9.827814102E0,-1.356621742E0
3.188334375E0,3.386741877E-1,9.826196671E0,-1.366275191E0
3.192304688E0,3.423995674E-1,9.840590477E0,-1.392611384E0
3.196275000E0,3.551654518E-1,9.844066620E0,-1.391548395E0
3.200245313E0,3.606817126E-1,9.874156952E0,-1.393942475E0
3.204217188E0,3.759183884E-1,9.897170067E0,-1.384116650E0
3.208187500E0,3.754108250E-1,9.914188385E0,-1.390437365E0
3.212157813E0,3.575979471E-1,9.930143356E0,-1.365240812E0
3.216128125E0,3.674525023E-1,9.958011627E0,-1.378437757E0
3.220098438E0,3.676248789E-1,9.955827713E0,-1.386252284E0
3.224068750E0,3.672226667E-1,9.973640442E0,-1.402006269E0
3.228040625E0,3.550601304E-1,9.967865944E0,-1.431349516E0
3.232010938E0,3.424857855E-1,9.964562416E0,-1.430267334E0
3.235981250E0,3.387891352E-1,9.961755753E0,-1.400349379E0
3.239951563E0,3.321045041E-1,9.963499069E0,-1.408652425E0
3.243921875E0,3.363470435E-1,9.965662956E0,-1.387535691E0
3.247892188E0,3.256401718E-1,9.953606606E0,-1.397112370E0
3.251862500E0,3.328323364E-1,9.956152916E0,-1.393904209E0
3.255834375E0,3.099820912E-1,9.956747055E0,-1.380994797E0
3.259804688E0,2.970629632E-1,9.944191933E0,-1.386683345E0
3.263775000E0,2.899953127E-1,9.920048714E0,-1.371772170E0
3.267745313E0,2.884246707E-1,9.920173645E0,-1.396911383E0
3.271715625E0,2.738392055E-1,9.900138855E0,-1.414206982E0
3.275685938E0,2.768846452E-1,9.878974915E0,-1.404122710E0
3.279656250E0,2.725080252E-1,9.858365059E0,-1.420144677E0
3.283628125E0,2.625289857E-1,9.844085693E0,-1.405674100E0
3.287598438E0,2.889705896E-1,9.819607735E0,-1.408843994E0
3.291568750E0,2.806770504E-1,9.828897476E0,-1.384882927E0
3.295539063E0,2.839331627E-1,9.815020561E0,-1.394220233E0
3.299509375E0,3.021769822E-1,9.810806274E0,-1.393320084E0
3.303479688E0,3.098959029E-1,9.816973686E0,-1.411372304E0
3.307450000E0,3.367109299E-1,9.810040474E0,-1.425162911E0
3.311421875E0,3.344316781E-1,9.824012756E0,-1.432393432E0
3.315390625E0,3.448416591E-1,9.841184616E0,-1.452217460E0
3.319362500E0,3.511527777E-1,9.848252296E0,-1.461995363E0
3.323332813E0,3.507505357E-1,9.860156059E0,-1.479070783E0
3.327303125E0,3.553665876E-1,9.881340027E0,-1.478084326E0
3.331273438E0,3.603943884E-1,9.879347801E0,-1.486636519E0
3.335243750E0,3.859357238E-1,9.898262024E0,-1.460549235E0
3.339214063E0,3.878511190E-1,9.905473709E0,-1.465921879E0
3.343185938E0,3.797491193E-1,9.903749466E0,-1.456364155E0
3.347156250E0,3.815687299E-1,9.897255898E0,-1.435084462E0
3.351126563E0,3.942867219E-1,9.887114525E0,-1.408250213E0
3.355096875E0,3.856580257E-1,9.898203850E0,-1.411515951E0
3.359067188E0,3.910306096E-1,9.895886421E0,-1.374865532E0
3.363037500E0,3.831297159E-1,9.895637512E0,-1.368765116E0
3.367009375E0,3.558645546E-1,9.892046928E0,-1.368851304E0
3.370979688E0,3.383006752E-1,9.899295807E0,-1.364991784E0
3.374950000E0,3.191758096E-1,9.897543907E0,-1.341586232E0
3.378920313E0,3.040348887E-1,9.910040855E0,-1.354083896E0
3.382890625E0,3.024643064E-1,9.906220436E0,-1.346077681E0
3.386860938E0,2.792501152E-1,9.920747757E0,-1.354217887E0
3.390831250E0,2.857719064E-1,9.937163353E0,-1.362971187E0
3.394801563E0,2.755534649E-1,9.928907394E0,-1.357780576E0
3.398771875E0,2.567541897E-1,9.919397354E0,-1.386242747E0
3.402743750E0,2.493417412E-1,9.926963806E0,-1.408767462E0
3.406712500E0,2.459706962E-1,9.938149452E0,-1.423697591E0
3.410684375E0,2.417473346E-1,9.938292503E0,-1.416381001E0
3.414654688E0,2.519945204E-1,9.933925629E0,-1.409466505E0
3.418625000E0,2.542929649E-1,9.926753044E0,-1.419617891E0
3.422596875E0,2.441415340E-1,9.922825813E0,-1.395072579E0
3.426565625E0,2.239057422E-1,9.907647133E0,-1.387468576E0
3.430537500E0,2.084870934E-1,9.901192665E0,-1.388167739E0
3.434507813E0,2.151142210E-1,9.896595955E0,-1.409562230E0
3.438478125E0,2.137160152E-1,9.898050308E0,-1.412358761E0
3.442448438E0,2.093394101E-1,9.899717331E0,-1.388943434E0
3.446418750E0,1.905018389E-1,9.909054756E0,-1.411860704E0
3.450389063E0,2.087169290E-1,9.896634102E0,-1.396844387E0
3.454359375E0,2.000978142E-1,9.900627136E0,-1.388024092E0
3.458331250E0,2.143576592E-1,9.904543877E0,-1.384471059E0
3.462301563E0,2.050106972E-1,9.908968925E0,-1.399544954E0
3.466271875E0,2.125572264E-1,9.910788536E0,-1.394814134E0
3.470242188E0,1.966597289E-1,9.925066948E0,-1.392822027E0
3.474212500E0,2.002989203E-1,9.937152863E0,-1.404429197E0
3.478182813E0,2.080752850E-1,9.947956085E0,-1.407148957E0
3.482154688E0,2.163687944E-1,9.955406189E0,-1.425919533E0
3.486123438E0,2.005383372E-1,9.965509415E0,-1.436904073E0
3.490093750E0,2.198451906E-1,9.960127831E0,-1.424617052E0
3.494065625E0,2.314522713E-1,9.951307297E0,-1.417041779E0
3.498035938E0,2.263861448E-1,9.948875427E0,-1.410989285E0
3.502006250E0,2.445916384E-1,9.931243896E0,-1.403318286E0
3.505976563E0,2.432796210E-1,9.910443306E0,-1.406775475E0
3.509946875E0,2.305041701E-1,9.918880463E0,-1.382440805E0
3.513917188E0,2.551644444E-1,9.928217888E0,-1.374080181E0
3.517889063E0,2.591100633E-1,9.914590836E0,-1.374080181E0
3.521859375E0,2.678058147E-1,9.916036606E0,-1.384585977E0
3.525829688E0,2.634196579E-1,9.924464226E0,-1.378361106E0
3.529800000E0,2.620884776E-1,9.914877892E0,-1.381521344E0
3.533770313E0,2.603933811E-1,9.899181366E0,-1.393846750E0
3.537740625E0,2.455397546E-1,9.897160530E0,-1.398912787E0
3.541712500E0,2.491310537E-1,9.883475304E0,-1.385572433E0
3.545681250E0,2.525595427E-1,9.865260124E0,-1.408834457E0
3.549651563E0,2.483744770E-1,9.863115311E0,-1.422174931E0
3.553623438E0,2.464878559E-1,9.851881981E0,-1.431512356E0
3.557593750E0,2.373898923E-1,9.845608711E0,-1.441204071E0
3.561564063E0,2.436052412E-1,9.843156815E0,-1.447572589E0
3.565534375E0,2.628642023E-1,9.848127365E0,-1.467042327E0
3.569504688E0,2.505675554E-1,9.846968651E0,-1.463431835E0
3.573475000E0,2.620118856E-1,9.838665009E0,-1.445944548E0
3.577446875E0,2.497056574E-1,9.852561951E0,-1.449248552E0
3.581417188E0,2.629312575E-1,9.860788345E0,-1.432757378E0
3.585387500E0,2.662543952E-1,9.863191605E0,-1.420920372E0
3.589357813E0,2.682176232E-1,9.844354630E0,-1.425613046E0
3.593328125E0,2.681697309E-1,9.866112709E0,-1.455090404E0
3.597298438E0,2.650381029E-1,9.863191605E0,-1.451958895E0
3.601270313E0,2.687443495E-1,9.865548134E0,-1.450905442E0
3.605239063E0,2.661298811E-1,9.861955643E0,-1.459016919E0
3.609210938E0,2.554709017E-1,9.855404854E0,-1.458633900E0
3.613181250E0,2.552506328E-1,9.853240967E0,-1.439288735E0
3.617151563E0,2.516210079E-1,9.858633041E0,-1.439576030E0
3.621121875E0,2.571755648E-1,9.872040749E0,-1.434912086E0
3.625092188E0,2.549441755E-1,9.864542007E0,-1.433734179E0
3.629062500E0,2.474551052E-1,9.897946358E0,-1.422309041E0
3.633034375E0,2.522147894E-1,9.912521362E0,-1.424262643E0
3.637004688E0,2.580470443E-1,9.912895203E0,-1.430267334E0
3.640975000E0,2.685240805E-1,9.930468559E0,-1.431617618E0
3.644945313E0,2.746436894E-1,9.940381050E0,-1.432556272E0
3.648915625E0,2.573575377E-1,9.947496414E0,-1.421485424E0
3.652885938E0,2.590526044E-1,9.954573631E0,-1.406105161E0
3.656856250E0,2.573862672E-1,9.951375008E0,-1.406488180E0
3.660828125E0,2.569074035E-1,9.977634430E0,-1.407704473E0
3.664796875E0,2.588898242E-1,9.958230972E0,-1.376867056E0
3.668768750E0,2.602401376E-1,9.940457344E0,-1.376388311E0
3.672739063E0,2.663692832E-1,9.933714867E0,-1.390025616E0
3.676709375E0,2.572043240E-1,9.922701836E0,-1.403931141E0
3.680679688E0,2.503090203E-1,9.926542282E0,-1.398060560E0
3.684650000E0,2.446491122E-1,9.904362679E0,-1.427059054E0
3.688620313E0,2.486617863E-1,9.898050308E0,-1.429865122E0
3.692592188E0,2.648369968E-1,9.889393806E0,-1.437248945E0
3.696562500E0,2.499929667E-1,9.882489204E0,-1.437469125E0
3.700532813E0,2.576735616E-1,9.878054619E0,-1.430976033E0
3.704503125E0,2.637931406E-1,9.884059906E0,-1.438733220E0
3.708473438E0,2.703436911E-1,9.863613129E0,-1.423084736E0
3.712443750E0,2.769037783E-1,9.879759789E0,-1.424712777E0
3.716415625E0,2.702766359E-1,9.876905441E0,-1.419321060E0
3.720385938E0,2.777561247E-1,9.871437073E0,-1.428294539E0
3.724354688E0,2.921596467E-1,9.860797882E0,-1.420585155E0
3.728326563E0,2.951667607E-1,9.887612343E0,-1.411487341E0
3.732296875E0,3.033645153E-1,9.898339272E0,-1.413364291E0
3.736267188E0,3.062950075E-1,9.891788483E0,-1.392046332E0
3.740239063E0,3.275555074E-1,9.898510933E0,-1.390734196E0
3.744207813E0,3.367205262E-1,9.917626381E0,-1.408710003E0
3.748178125E0,3.264445961E-1,9.910463333E0,-1.396336794E0
3.752150000E0,3.135733902E-1,9.905693054E0,-1.396193147E0
3.756120313E0,3.071569204E-1,9.904659271E0,-1.363555312E0
3.760090625E0,2.950805724E-1,9.901498795E0,-1.353739142E0
3.764060938E0,3.117920756E-1,9.884270668E0,-1.356612206E0
3.768031250E0,2.952242196E-1,9.896404266E0,-1.359782100E0
3.772003125E0,2.840959728E-1,9.890983582E0,-1.380879760E0
3.775973438E0,2.848429680E-1,9.885667801E0,-1.371120930E0
3.779943750E0,2.812133431E-1,9.887458801E0,-1.376235008E0
3.783914063E0,2.697882354E-1,9.876483917E0,-1.413565397E0
3.787884375E0,2.815006673E-1,9.879558563E0,-1.436904073E0
3.791854688E0,2.815006673E-1,9.884499550E0,-1.448798418E0
3.795826563E0,2.774496675E-1,9.884001732E0,-1.434634447E0
3.799796875E0,2.981260121E-1,9.899592400E0,-1.431387782E0
3.803765625E0,2.986814678E-1,9.893367767E0,-1.441194415E0
3.807737500E0,2.993135154E-1,9.886520386E0,-1.441491365E0
3.811707813E0,3.067738712E-1,9.895312309E0,-1.453146338E0
3.815678125E0,3.119932115E-1,9.894248962E0,-1.444919944E0
3.819648438E0,3.081337512E-1,9.900809288E0,-1.426455855E0
3.823618750E0,3.327557445E-1,9.909725189E0,-1.440303802E0
3.827589063E0,3.443628252E-1,9.909275055E0,-1.440045238E0
3.831560938E0,3.593983948E-1,9.898913383E0,-1.430861115E0
3.835531250E0,3.659681082E-1,9.889948845E0,-1.438321352E0
3.839501563E0,3.604518473E-1,9.882508278E0,-1.416639566E0
3.843471875E0,3.690709770E-1,9.890235901E0,-1.410251856E0
3.847442188E0,3.832733631E-1,9.886615753E0,-1.419435978E0
3.851412500E0,3.733230829E-1,9.903787613E0,-1.409217477E0
3.855384375E0,3.773357570E-1,9.895657539E0,-1.409208059E0
3.859354688E0,3.781976700E-1,9.900503159E0,-1.395580173E0
3.863323438E0,3.626832664E-1,9.897199631E0,-1.417740822E0
3.867295313E0,3.658818901E-1,9.901977539E0,-1.416074634E0
3.871265625E0,3.656807840E-1,9.917204857E0,-1.410376310E0
3.875235938E0,3.514879644E-1,9.932728767E0,-1.408748269E0
3.879206250E0,3.735912442E-1,9.951834679E0,-1.394181967E0
3.883176563E0,3.751043677E-1,9.954909325E0,-1.398242593E0
3.887146875E0,3.701339960E-1,9.964313507E0,-1.404208899E0
3.891118750E0,3.659201860E-1,9.959860802E0,-1.406564832E0
3.895095313E0,3.583353758E-1,9.970499992E0,-1.398386240E0
3.899059375E0,3.501280546E-1,9.957436562E0,-1.389029622E0
3.903029688E0,3.400724232E-1,9.940964699E0,-1.375746608E0
3.907000000E0,3.231118917E-1,9.929701805E0,-1.384882927E0
3.910970313E0,3.026654124E-1,9.905941963E0,-1.401163459E0
3.914942188E0,3.078464568E-1,9.905884743E0,-1.421820641E0
3.918910938E0,2.861071229E-1,9.888924599E0,-1.429606557E0
3.922882813E0,2.942090631E-1,9.887976646E0,-1.458691239E0
3.926853125E0,2.934238017E-1,9.878265381E0,-1.468459725E0
3.930823438E0,2.975226343E-1,9.869579315E0,-1.478342891E0
3.934793750E0,3.005010486E-1,9.878916740E0,-1.471763730E0
3.938764063E0,3.195014298E-1,9.881368637E0,-1.456536531E0
3.942734375E0,3.229395151E-1,9.884950638E0,-1.445312500E0
3.946706250E0,3.200377226E-1,9.908097267E0,-1.454812765E0
3.950676563E0,3.336272240E-1,9.913345337E0,-1.451326728E0
3.954646875E0,3.442479074E-1,9.931435585E0,-1.444239855E0
3.958617188E0,3.726335466E-1,9.932058334E0,-1.441328645E0
3.962587500E0,3.815878630E-1,9.938321114E0,-1.434184313E0
3.966557813E0,3.957998455E-1,9.951116562E0,-1.446346760E0
3.970528125E0,3.908486366E-1,9.965405464E0,-1.442870498E0
3.974498438E0,4.060183167E-1,9.955388069E0,-1.418459058E0
3.978470313E0,4.002147615E-1,9.970097542E0,-1.415978789E0
3.982440625E0,3.878894150E-1,9.979099274E0,-1.424109459E0
3.986410938E0,3.861847222E-1,9.956230164E0,-1.412473679E0
3.990381250E0,3.659681082E-1,9.928601265E0,-1.407062769E0
3.994351563E0,3.525414169E-1,9.896862984E0,-1.403500199E0
3.998321875E0,3.198270202E-1,9.873841286E0,-1.395723820E0
4.002292188E0,2.969288826E-1,9.838712692E0,-1.379270911E0
4.006264063E0,2.852164507E-1,9.837487221E0,-1.385898113E0
4.010234375E0,2.742701769E-1,9.815239906E0,-1.371188045E0
4.014215625E0,2.616575062E-1,9.806477547E0,-1.370163321E0
4.018175000E0,2.644539475E-1,9.809427261E0,-1.358431816E0
4.022145313E0,2.558156550E-1,9.798404694E0,-1.362683892E0
4.026115625E0,2.467655838E-1,9.807033539E0,-1.365930438E0
4.030087500E0,2.269990593E-1,9.812482834E0,-1.370469689E0
4.034057813E0,2.297284454E-1,9.823352814E0,-1.372021198E0
4.038026563E0,2.419197261E-1,9.827298164E0,-1.381138325E0
4.042029688E0,2.568691075E-1,9.858613968E0,-1.387229204E0
4.045968750E0,2.772006691E-1,9.875555992E0,-1.388847709E0
4.049939063E0,2.984133065E-1,9.878140450E0,-1.387899518E0
4.053910938E0,3.101353049E-1,9.890198708E0,-1.365097165E0
4.057881250E0,3.354372382E-1,9.898692131E0,-1.365442038E0
4.061850000E0,3.297677636E-1,9.914523125E0,-1.340628386E0
4.065821875E0,3.386167288E-1,9.896125793E0,-1.314368844E0
4.069792188E0,3.561231494E-1,9.886328697E0,-1.278992057E0
4.073760938E0,3.408481479E-1,9.880248070E0,-1.285092473E0
4.077732813E0,3.302944899E-1,9.892362595E0,-1.272767186E0
4.081703125E0,3.424474597E-1,9.885476112E0,-1.250577807E0
4.085673438E0,3.245771527E-1,9.886798859E0,-1.255710959E0
4.089645313E0,3.013246357E-1,9.896317482E0,-1.274759173E0
4.093615625E0,3.017939031E-1,9.910970688E0,-1.278992057E0
4.097585938E0,2.836554348E-1,9.929203987E0,-1.281989574E0
4.101556250E0,2.734369934E-1,9.942180634E0,-1.307837486E0
4.105526563E0,2.820177972E-1,9.932229996E0,-1.326818705E0
4.109496875E0,2.705447972E-1,9.937201500E0,-1.323543429E0
4.113467188E0,2.536417246E-1,9.931034088E0,-1.338617325E0
4.117437500E0,2.517646849E-1,9.927671432E0,-1.362204909E0
4.121409375E0,2.504239082E-1,9.934165001E0,-1.377872705E0
4.125379688E0,2.310308814E-1,9.906239510E0,-1.378657937E0
4.129350000E0,2.426858693E-1,9.903988838E0,-1.399410844E0
4.133320313E0,2.430306226E-1,9.906507492E0,-1.419359326E0
4.137290625E0,2.539290190E-1,9.892314911E0,-1.420393705E0
4.141260938E0,2.608722150E-1,9.899257660E0,-1.406689167E0
4.145231250E0,2.749309838E-1,9.897496223E0,-1.415586114E0
4.149203125E0,2.746723890E-1,9.890361786E0,-1.381847024E0
4.153173438E0,2.969767749E-1,9.877442360E0,-1.364311934E0
4.157143750E0,2.963542640E-1,9.865672112E0,-1.363488317E0
4.161114063E0,2.970438302E-1,9.854045868E0,-1.341231823E0
4.165084375E0,3.121943474E-1,9.850694656E0,-1.340887070E0
4.169054688E0,2.963734567E-1,9.872404099E0,-1.331865668E0
4.173025000E0,2.969480455E-1,9.878821373E0,-1.344851851E0
4.176995313E0,3.016023934E-1,9.891750336E0,-1.332373261E0
4.180967188E0,2.980685532E-1,9.903146744E0,-1.345838308E0
4.184937500E0,2.985186577E-1,9.914196968E0,-1.354715943E0
4.188907813E0,2.835213542E-1,9.914983749E0,-1.341001987E0
4.192878125E0,2.900910676E-1,9.907158852E0,-1.352245092E0
4.196848438E0,2.745574713E-1,9.917310715E0,-1.372030735E0
4.200818750E0,2.697116137E-1,9.899717331E0,-1.361247301E0
4.204790625E0,2.603933811E-1,9.894948006E0,-1.349630594E0
4.208760938E0,2.739349604E-1,9.897170067E0,-1.358374238E0
4.212731250E0,2.673078179E-1,9.890504837E0,-1.371389151E0
4.216701563E0,2.703819871E-1,9.901575089E0,-1.377796054E0
4.220671875E0,2.652584016E-1,9.892419815E0,-1.364589572E0
4.224642188E0,2.607190013E-1,9.899564743E0,-1.350617051E0
4.228614063E0,2.650476992E-1,9.901230812E0,-1.353681684E0
4.232582813E0,2.764728367E-1,9.911085129E0,-1.362386942E0
4.236553125E0,2.966032624E-1,9.894450188E0,-1.356889844E0
4.240525000E0,2.912977338E-1,9.881186485E0,-1.345435977E0
4.244495313E0,3.139085770E-1,9.885620117E0,-1.345129490E0
4.248465625E0,3.099150360E-1,9.886588097E0,-1.362023115E0
4.252435938E0,3.104417622E-1,9.880804062E0,-1.362578511E0
4.256406250E0,2.966224253E-1,9.882900238E0,-1.348864555E0
4.260376563E0,3.154791594E-1,9.890495300E0,-1.354313731E0
4.264348438E0,3.255635500E-1,9.894105911E0,-1.391998410E0
4.268318750E0,3.240312636E-1,9.899382591E0,-1.387573957E0
4.272289063E0,3.472071290E-1,9.903461456E0,-1.388857245E0
4.276259375E0,3.344699740E-1,9.909658432E0,-1.390150189E0
4.280229688E0,3.347668350E-1,9.922481537E0,-1.400253654E0
4.284201563E0,3.372664154E-1,9.923870087E0,-1.387142897E0
4.288171875E0,3.324205279E-1,9.918114662E0,-1.375411391E0
4.292140625E0,3.262243271E-1,9.911975861E0,-1.377231002E0
4.296112500E0,3.112366199E-1,9.904342651E0,-1.359379888E0
4.300082813E0,3.109014630E-1,9.902935982E0,-1.359475613E0
4.304053125E0,3.164655864E-1,9.892256737E0,-1.370737910E0
4.308023438E0,3.062279522E-1,9.879376411E0,-1.380391359E0
4.311993750E0,3.319321275E-1,9.896672249E0,-1.404764295E0
4.315964063E0,3.429837525E-1,9.899976730E0,-1.422222853E0
4.319939063E0,3.499939740E-1,9.904266357E0,-1.441548824E0
4.323906250E0,3.533746004E-1,9.908020973E0,-1.452389717E0
4.327876563E0,3.526659310E-1,9.898118019E0,-1.438235283E0
4.331848438E0,3.808887601E-1,9.901441574E0,-1.442784309E0
4.335817188E0,3.946985304E-1,9.910203934E0,-1.417951584E0
4.339787500E0,3.827179372E-1,9.908699989E0,-1.405894399E0
4.343759375E0,3.914424181E-1,9.893491745E0,-1.400483489E0
4.347729688E0,3.927448392E-1,9.883743286E0,-1.384471059E0
4.351698438E0,3.870753646E-1,9.885055542E0,-1.394517064E0
4.355670313E0,3.906188011E-1,9.888704300E0,-1.368908763E0
4.359640625E0,3.877361715E-1,9.887870789E0,-1.356698394E0
4.363610938E0,3.773932159E-1,9.886894226E0,-1.339958072E0
4.367581250E0,3.763876557E-1,9.885524750E0,-1.331549644E0
4.371551563E0,3.644357920E-1,9.900953293E0,-1.338253379E0
4.375521875E0,3.517177999E-1,9.909150124E0,-1.359063864E0
4.379493750E0,3.507026732E-1,9.912158012E0,-1.371513724E0
4.383464063E0,3.538725972E-1,9.927087784E0,-1.368324637E0
4.387434375E0,3.528574407E-1,9.939442635E0,-1.370335698E0
4.391404688E0,3.550696969E-1,9.948625565E0,-1.373744965E0
4.395375000E0,3.566498756E-1,9.946845055E0,-1.358221054E0
4.399345313E0,3.587376177E-1,9.949468613E0,-1.376033902E0
4.403317188E0,3.496013284E-1,9.955415726E0,-1.394249082E0
4.407287500E0,3.534416258E-1,9.944220543E0,-1.415701032E0
4.411256250E0,3.426964283E-1,9.925230026E0,-1.408633351E0
4.415228125E0,3.412311971E-1,9.922002792E0,-1.430477977E0
4.419198438E0,3.185150027E-1,9.902552605E0,-1.429798126E0
4.423168750E0,3.099150360E-1,9.911180496E0,-1.420834184E0
4.427139063E0,3.164272904E-1,9.903318405E0,-1.424080729E0
4.431109375E0,3.122996688E-1,9.874482155E0,-1.423908353E0
4.435081250E0,3.051457703E-1,9.868238449E0,-1.428888321E0
4.439051563E0,2.947741151E-1,9.847562790E0,-1.415883064E0
4.443021875E0,3.176722825E-1,9.831214905E0,-1.390140533E0
4.446992188E0,3.102502525E-1,9.841950417E0,-1.397160411E0
4.450962500E0,2.961914539E-1,9.846144676E0,-1.385601163E0
4.454932813E0,2.927917242E-1,9.824865341E0,-1.389508367E0
4.458903125E0,3.045137227E-1,9.832497597E0,-1.380774379E0
4.462875000E0,3.014299870E-1,9.841462135E0,-1.393578649E0
4.466843750E0,3.098959029E-1,9.834776878E0,-1.380831957E0
4.470815625E0,3.066397607E-1,9.846585274E0,-1.386970639E0
4.474785938E0,3.046095073E-1,9.864570618E0,-1.381013751E0
4.478756250E0,3.133722842E-1,9.868458748E0,-1.383082390E0
4.482726563E0,3.161782920E-1,9.884432793E0,-1.387621880E0
4.486696875E0,3.109493554E-1,9.885830879E0,-1.398328781E0
4.490667188E0,3.282737732E-1,9.917301178E0,-1.410539150E0
4.494639063E0,3.341060579E-1,9.919704437E0,-1.430966377E0
4.498609375E0,3.437594771E-1,9.937804222E0,-1.443655729E0
4.502579688E0,3.734571636E-1,9.939173698E0,-1.445408344E0
4.506550000E0,3.774506748E-1,9.936176300E0,-1.460185289E0
4.510520313E0,3.762440085E-1,9.949717522E0,-1.466908216E0
4.514490625E0,3.906858265E-1,9.949563980E0,-1.462349653E0
4.518465625E0,4.036720097E-1,9.947553635E0,-1.472462773E0
4.522432813E0,4.239652455E-1,9.935784340E0,-1.457331419E0
4.526401563E0,4.146853089E-1,9.938609123E0,-1.447103381E0
4.530373438E0,4.393168688E-1,9.907695770E0,-1.434576869E0
4.534343750E0,4.351222217E-1,9.899458885E0,-1.423937082E0
4.538314063E0,4.322587550E-1,9.895235062E0,-1.428830862E0
4.542284375E0,4.524179399E-1,9.884681702E0,-1.426656842E0
4.546254688E0,4.505313039E-1,9.877614021E0,-1.428074241E0
4.550225000E0,4.621096551E-1,9.873591423E0,-1.412847161E0
4.554196875E0,4.608933926E-1,9.854821205E0,-1.409073830E0
4.558167188E0,4.569573402E-1,9.856239319E0,-1.403011680E0
4.562137500E0,4.467101395E-1,9.861151695E0,-1.408058763E0
4.566107813E0,4.246260524E-1,9.866036415E0,-1.391193986E0
4.570078125E0,4.175296426E-1,9.896317482E0,-1.392525196E0
4.574048438E0,4.101650715E-1,9.909638405E0,-1.394612908E0
4.578020313E0,3.987495005E-1,9.902868271E0,-1.379720926E0
4.581990625E0,3.895174563E-1,9.917539597E0,-1.397236943E0
4.585960938E0,3.582587540E-1,9.943809509E0,-1.391644001E0
4.589931250E0,3.665810227E-1,9.931503296E0,-1.383273959E0
4.593901563E0,3.634015322E-1,9.938886642E0,-1.390542746E0
4.597871875E0,3.440563679E-1,9.941224098E0,-1.404103518E0
4.601843750E0,3.488256335E-1,9.941586494E0,-1.430669546E0
4.605812500E0,3.387029171E-1,9.946672440E0,-1.434318304E0
4.609785938E0,3.509229422E-1,9.956584930E0,-1.421188593E0
4.613754688E0,3.490362763E-1,9.945063591E0,-1.431943417E0
4.617725000E0,3.342975974E-1,9.939777374E0,-1.441357255E0
4.621695313E0,3.510091305E-1,9.948099136E0,-1.429424524E0
4.625687500E0,3.466037810E-1,9.932278633E0,-1.401977420E0
4.629635938E0,3.408002257E-1,9.938282967E0,-1.405118704E0
4.633606250E0,3.275459707E-1,9.934260368E0,-1.398999095E0
4.637576563E0,3.083731830E-1,9.904984474E0,-1.401153922E0
4.641548438E0,3.029144108E-1,9.881330490E0,-1.387478113E0
4.645518750E0,3.072239757E-1,9.866600990E0,-1.359695911E0
4.649489063E0,2.935195565E-1,9.854515076E0,-1.361429334E0
4.653459375E0,2.958945930E-1,9.850588799E0,-1.375555038E0
4.657429688E0,2.768750489E-1,9.857225418E0,-1.380333900E0
4.661401563E0,2.879649997E-1,9.862156868E0,-1.374922991E0
4.665370313E0,2.871222496E-1,9.887344360E0,-1.410309315E0
4.669340625E0,2.912306786E-1,9.886491776E0,-1.424368024E0
4.673312500E0,2.940175533E-1,9.879673004E0,-1.438828945E0
4.677282813E0,3.043796420E-1,9.885725975E0,-1.440945506E0
4.681253125E0,3.174903095E-1,9.882268906E0,-1.455234170E0
4.685223438E0,3.227862716E-1,9.871025085E0,-1.449526310E0
4.689193750E0,3.218956292E-1,9.878227234E0,-1.444833755E0
4.693165625E0,3.259370327E-1,9.869301796E0,-1.448310018E0
4.697135938E0,3.441234231E-1,9.871083260E0,-1.441998959E0
4.701106250E0,3.567073345E-1,9.863095284E0,-1.454343557E0
4.705076563E0,3.892397583E-1,9.881397247E0,-1.465146065E0
4.709046875E0,4.031739831E-1,9.883762360E0,-1.447917461E0
4.713017188E0,4.141394496E-1,9.869761467E0,-1.428591490E0
4.716987500E0,4.358787835E-1,9.875105858E0,-1.415997982E0
4.720959375E0,4.470261931E-1,9.885418892E0,-1.397313595E0
4.724928125E0,4.579629004E-1,9.886970520E0,-1.404180169E0
4.728900000E0,4.420079291E-1,9.880190849E0,-1.389853239E0
4.732870313E0,4.347104132E-1,9.892017365E0,-1.403299093E0
4.736840625E0,4.465569258E-1,9.910826683E0,-1.396384597E0
4.740810938E0,4.183532298E-1,9.912272453E0,-1.409227133E0
4.744781250E0,4.187650383E-1,9.924790382E0,-1.392927408E0
4.748751563E0,4.197610021E-1,9.914111137E0,-1.401671052E0
4.752723438E0,4.320001900E-1,9.902208328E0,-1.418315530E0
4.756693750E0,4.177307487E-1,9.887698174E0,-1.427652955E0
4.760664063E0,4.229884148E-1,9.861907959E0,-1.451671481E0
4.764634375E0,4.044955671E-1,9.864982605E0,-1.445915937E0
4.768604688E0,4.019577205E-1,9.876014709E0,-1.443607926E0
4.772575000E0,4.021875858E-1,9.894699097E0,-1.452121615E0
4.776545313E0,4.049073756E-1,9.904496193E0,-1.470154762E0
4.780515625E0,4.080772996E-1,9.915624619E0,-1.464753389E0
4.784487500E0,3.914232552E-1,9.914111137E0,-1.455732107E0
4.788457813E0,3.872669041E-1,9.920288086E0,-1.450378656E0
4.792428125E0,3.911359608E-1,9.904112816E0,-1.442477822E0
4.796398438E0,3.751618266E-1,9.909486771E0,-1.415681839E0
4.800368750E0,3.896706700E-1,9.898807526E0,-1.377499104E0
4.804339063E0,3.777858913E-1,9.905569077E0,-1.371168971E0
4.808310938E0,3.695689738E-1,9.903912544E0,-1.330132365E0
4.812281250E0,3.533458412E-1,9.897313118E0,-1.314790249E0
4.816251563E0,3.569563329E-1,9.888235092E0,-1.319990516E0
4.820221875E0,3.400149643E-1,9.894680023E0,-1.310509443E0
4.824192188E0,3.336942494E-1,9.899104118E0,-1.308986664E0
4.828162500E0,3.159675896E-1,9.891777992E0,-1.301832795E0
4.832132813E0,3.047723174E-1,9.896107674E0,-1.298538327E0
4.836103125E0,3.065536022E-1,9.877930641E0,-1.312434316E0
4.840075000E0,2.943144143E-1,9.875085831E0,-1.304983497E0
4.844045313E0,2.871126831E-1,9.871341705E0,-1.326062083E0
4.848015625E0,2.740020156E-1,9.854773521E0,-1.337535143E0
4.851985938E0,2.716269791E-1,9.855253220E0,-1.352618694E0
4.855956250E0,2.828126848E-1,9.847658157E0,-1.367797852E0
4.859926563E0,2.812421024E-1,9.847859383E0,-1.389709592E0
4.863896875E0,2.993039489E-1,9.862262726E0,-1.421140671E0
4.867868750E0,2.993518412E-1,9.873007774E0,-1.422481418E0
4.871839063E0,3.060460091E-1,9.887411118E0,-1.430535555E0
4.875809375E0,3.243281245E-1,9.895647049E0,-1.418526292E0
4.879779688E0,3.512676954E-1,9.901700020E0,-1.417453647E0
4.883750000E0,3.635547459E-1,9.921034813E0,-1.412282109E0
4.887720313E0,3.635547459E-1,9.931234360E0,-1.406679630E0
4.891692188E0,3.752767742E-1,9.937172890E0,-1.403528929E0
4.895660938E0,3.814346194E-1,9.951001167E0,-1.401383638E0
4.899631250E0,3.893834054E-1,9.942526817E0,-1.388780594E0
4.903603125E0,3.925532997E-1,9.937651634E0,-1.378859043E0
4.907573438E0,4.093222916E-1,9.961737633E0,-1.362789154E0
4.911543750E0,4.060757756E-1,9.969197273E0,-1.358144403E0
4.915514063E0,4.092456996E-1,9.954152107E0,-1.355664015E0
4.919484375E0,4.021971524E-1,9.968747139E0,-1.352264285E0
4.923456250E0,4.052234292E-1,9.951067924E0,-1.345407248E0
4.927426563E0,4.039305449E-1,9.956527710E0,-1.362243295E0
4.931396875E0,3.912987411E-1,9.930707932E0,-1.358929634E0
4.935367188E0,3.690709770E-1,9.917511940E0,-1.365700603E0
4.939337500E0,3.762535751E-1,9.894432068E0,-1.371609330E0
4.943307813E0,3.575692475E-1,9.874712944E0,-1.374482393E0
4.947278125E0,3.528095782E-1,9.889297485E0,-1.388158202E0
4.951250000E0,3.772782981E-1,9.867041588E0,-1.391299367E0
4.955218750E0,3.567073345E-1,9.885898590E0,-1.406066775E0
4.959190625E0,3.977631032E-1,9.891663551E0,-1.410596609E0
4.963160938E0,3.993145525E-1,9.880582809E0,-1.406066775E0
4.967131250E0,3.925820291E-1,9.884136200E0,-1.448626041E0
4.971101563E0,3.753342032E-1,9.878839493E0,-1.441223264E0
4.975071875E0,3.860698342E-1,9.871169090E0,-1.446701169E0
4.979042188E0,3.882054389E-1,9.856363297E0,-1.445820093E0
4.983014063E0,3.874393106E-1,9.852571487E0,-1.424904346E0
4.986984375E0,3.947368264E-1,9.846375465E0,-1.417539835E0
4.990954688E0,4.074739814E-1,9.842324257E0,-1.412741780E0
4.994925000E0,4.077900052E-1,9.848682404E0,-1.396806002E0
4.998895313E0,3.897089958E-1,9.853701591E0,-1.378428102E0
5.002865625E0,3.892492950E-1,9.859495163E0,-1.362521052E0
5.006837500E0,3.834744990E-1,9.878092766E0,-1.374357939E0
5.010807813E0,3.777284324E-1,9.876082420E0,-1.370125055E0
5.014776563E0,3.658818901E-1,9.881971359E0,-1.369521737E0
5.018748438E0,3.619937003E-1,9.893186569E0,-1.389163733E0
5.022718750E0,3.587663174E-1,9.879261971E0,-1.407158613E0
5.026689063E0,3.513538837E-1,9.891146660E0,-1.399094820E0
5.030660938E0,3.452726007E-1,9.870403290E0,-1.384902000E0
5.034657813E0,3.533746004E-1,9.890839577E0,-1.410864711E0
5.038600000E0,3.492086828E-1,9.883350372E0,-1.397150755E0
5.042571875E0,3.482893109E-1,9.874339104E0,-1.402868152E0
5.046542188E0,3.322002888E-1,9.867797852E0,-1.407963037E0
5.050512500E0,3.352648616E-1,9.872241974E0,-1.395723820E0
5.054482813E0,3.457993567E-1,9.866477013E0,-1.391797304E0
5.058453125E0,3.558262587E-1,9.864034653E0,-1.396796346E0
5.062423438E0,3.429262936E-1,9.875699043E0,-1.368066072E0
5.066393750E0,3.521583378E-1,9.865998268E0,-1.372835159E0
5.070365625E0,3.617925942E-1,9.865030289E0,-1.361821890E0
5.074334375E0,3.534224927E-1,9.860280037E0,-1.373304605E0
5.078306250E0,3.445256352E-1,9.875737190E0,-1.354706287E0
5.082276563E0,3.380900025E-1,9.877183914E0,-1.375229478E0
5.086246875E0,3.398042619E-1,9.896595955E0,-1.385304213E0
5.090218750E0,3.423899710E-1,9.911784172E0,-1.417903662E0
5.094187500E0,3.599251509E-1,9.913249969E0,-1.419282675E0
5.098159375E0,3.670598567E-1,9.920910835E0,-1.419072032E0
5.102129688E0,3.732943535E-1,9.925881386E0,-1.412933350E0
5.106100000E0,3.977726698E-1,9.941175461E0,-1.413105726E0
5.110070313E0,3.999466002E-1,9.948023796E0,-1.362856150E0
5.114040625E0,3.727676272E-1,9.944806099E0,-1.347447157E0
5.118010938E0,3.610073328E-1,9.929213524E0,-1.358268976E0
5.121981250E0,3.478583694E-1,9.916697502E0,-1.338713169E0
5.125953125E0,3.547632396E-1,9.922750473E0,-1.338617325E0
5.129923438E0,3.466612697E-1,9.937258720E0,-1.349544406E0
5.133893750E0,3.360022604E-1,9.922136307E0,-1.356372714E0
5.137864063E0,3.313192129E-1,9.911917686E0,-1.380352974E0
5.141834375E0,3.514305055E-1,9.925344467E0,-1.381234169E0
5.145804688E0,3.515549898E-1,9.926954269E0,-1.395810008E0
5.149776563E0,3.534224927E-1,9.920623779E0,-1.400330305E0
5.153745313E0,3.495534360E-1,9.911151886E0,-1.411468148E0
5.157717188E0,3.755257428E-1,9.924340248E0,-1.403931141E0
5.161687500E0,3.859165907E-1,9.914925575E0,-1.417472720E0
5.165657813E0,3.831680417E-1,9.899353981E0,-1.417357802E0
5.169628125E0,3.877361715E-1,9.885850906E0,-1.402015805E0
5.173598438E0,3.786094785E-1,9.875181198E0,-1.395091772E0
5.177568750E0,3.880426288E-1,9.853164673E0,-1.397208214E0
5.181540625E0,3.881096840E-1,9.840332031E0,-1.391203642E0
5.185510938E0,3.988548517E-1,9.848423958E0,-1.379194260E0
5.189481250E0,4.115824401E-1,9.851660728E0,-1.379021883E0
5.193451563E0,4.058938026E-1,9.873123169E0,-1.381588459E0
5.197421875E0,3.971405923E-1,9.869560242E0,-1.370948553E0
5.201392188E0,3.872382045E-1,9.887038231E0,-1.360902548E0
5.205362500E0,3.892972171E-1,9.915280342E0,-1.362865806E0
5.209332813E0,3.882245719E-1,9.922184944E0,-1.381329775E0
5.213303125E0,3.767228425E-1,9.926599503E0,-1.379471898E0
5.217275000E0,3.755449057E-1,9.924071312E0,-1.389805317E0
5.221245313E0,3.766941130E-1,9.936290741E0,-1.405932784E0
5.225215625E0,3.864049911E-1,9.911276817E0,-1.392017603E0
5.229185938E0,3.730166256E-1,9.920058250E0,-1.400646329E0
5.233156250E0,3.647231162E-1,9.914093018E0,-1.417807937E0
5.237126563E0,3.651923835E-1,9.908221245E0,-1.391069412E0
5.241098438E0,3.668395877E-1,9.888915062E0,-1.401125073E0
5.245068750E0,3.480977714E-1,9.892372131E0,-1.405999780E0
5.249037500E0,3.343933821E-1,9.886137962E0,-1.401958346E0
5.253009375E0,3.460675180E-1,9.879931450E0,-1.388502955E0
5.256979688E0,3.326407969E-1,9.867070198E0,-1.375229478E0
5.260950000E0,3.492469788E-1,9.865221977E0,-1.368037224E0
5.264920313E0,3.640814424E-1,9.873573303E0,-1.378657937E0
5.268890625E0,3.602507412E-1,9.882996559E0,-1.386750340E0
5.272862500E0,3.756215274E-1,9.877623558E0,-1.405051589E0
5.276832813E0,3.806110322E-1,9.889747620E0,-1.396279335E0
5.280803125E0,3.855239153E-1,9.889231682E0,-1.415241361E0
5.284773438E0,3.994007409E-1,9.897926331E0,-1.437440395E0
5.288743750E0,3.964031935E-1,9.912885666E0,-1.443042874E0
5.292714063E0,4.002434909E-1,9.916965485E0,-1.445580721E0
5.296685938E0,4.006265700E-1,9.921140671E0,-1.441635013E0
5.300656250E0,4.138042331E-1,9.920106888E0,-1.423132658E0
5.304626563E0,4.015746713E-1,9.923812866E0,-1.402456284E0
5.308596875E0,4.092361033E-1,9.922184944E0,-1.399238467E0
5.312567188E0,4.146853089E-1,9.924589157E0,-1.369923949E0
5.316537500E0,4.102799594E-1,9.920470238E0,-1.376177669E0
5.320507813E0,4.068897963E-1,9.916773796E0,-1.383455992E0
5.324478125E0,4.074548483E-1,9.917615891E0,-1.371915936E0
5.328448438E0,4.188991189E-1,9.926733017E0,-1.362473130E0
5.332420313E0,3.941909373E-1,9.933782578E0,-1.366255999E0
5.336390625E0,3.972363472E-1,9.944077492E0,-1.375478387E0
5.340360938E0,3.813005686E-1,9.952437401E0,-1.380429745E0
5.344331250E0,3.670598567E-1,9.964715958E0,-1.365757942E0
5.348301563E0,3.509516716E-1,9.964944839E0,-1.348739982E0
5.352271875E0,3.399383128E-1,9.946318626E0,-1.352695227E0
5.356242188E0,3.291261196E-1,9.924148560E0,-1.359897017E0
5.360214063E0,3.139468729E-1,9.911056519E0,-1.388579488E0
5.364182813E0,3.098479807E-1,9.886980057E0,-1.399975896E0
5.368154688E0,3.128359616E-1,9.868555069E0,-1.413115382E0
5.372125000E0,3.024834394E-1,9.848108292E0,-1.426522851E0
5.376095313E0,2.908955216E-1,9.840561867E0,-1.451690674E0
5.380067188E0,2.902826071E-1,9.841605186E0,-1.465730190E0
5.384035938E0,2.912785709E-1,9.838033676E0,-1.479913592E0
5.388007813E0,3.083731830E-1,9.852370262E0,-1.479262352E0
5.391978125E0,3.157377243E-1,9.849075317E0,-1.481350064E0
5.395948438E0,3.364044726E-1,9.841471672E0,-1.482566237E0
5.399918750E0,3.387891352E-1,9.855654716E0,-1.473669410E0
5.403890625E0,3.597144485E-1,9.870796204E0,-1.452839851E0
5.407859375E0,3.608253598E-1,9.862674713E0,-1.442008495E0
5.411834375E0,3.797874153E-1,9.883044243E0,-1.441395640E0
5.415801563E0,3.973416984E-1,9.885715485E0,-1.457858205E0
5.419771875E0,3.957711160E-1,9.892286301E0,-1.463412762E0
5.423742188E0,4.018428028E-1,9.882307053E0,-1.464561939E0
5.427712500E0,4.010191858E-1,9.902256012E0,-1.457321882E0
5.431682813E0,3.991804421E-1,9.902609825E0,-1.450292468E0
5.435653125E0,4.096479118E-1,9.912071228E0,-1.436425328E0
5.439623438E0,4.041604102E-1,9.907494545E0,-1.433925629E0
5.443595313E0,4.072537124E-1,9.900847435E0,-1.440916777E0
5.447565625E0,4.050318897E-1,9.888885498E0,-1.416189432E0
5.451535938E0,3.776996732E-1,9.881100655E0,-1.404227972E0
5.455506250E0,3.674812317E-1,9.875258446E0,-1.388263583E0
5.459476563E0,3.665810227E-1,9.875870705E0,-1.404199362E0
5.463446875E0,3.532979786E-1,9.871025085E0,-1.406009316E0
5.467417188E0,3.540928662E-1,9.874472618E0,-1.389585137E0
5.471389063E0,3.777379692E-1,9.881607056E0,-1.376340389E0
5.475359375E0,3.494864106E-1,9.877355576E0,-1.354687214E0
5.479329688E0,3.477625847E-1,9.866025925E0,-1.364848137E0
5.483300000E0,3.305722177E-1,9.859417915E0,-1.350387216E0
5.487270313E0,3.281397223E-1,9.839221001E0,-1.362501860E0
5.491240625E0,3.127497733E-1,9.819760323E0,-1.350846887E0
5.495212500E0,3.155557811E-1,9.826483727E0,-1.342601299E0
5.499182813E0,3.058353364E-1,9.812865257E0,-1.333350062E0
5.503153125E0,3.083444536E-1,9.823773384E0,-1.325468421E0
5.507123438E0,2.890759408E-1,9.835572243E0,-1.346757531E0
5.511093750E0,2.806770504E-1,9.872250557E0,-1.345282793E0
5.515064063E0,2.873999774E-1,9.889144897E0,-1.359695911E0
5.519035938E0,2.776507735E-1,9.888876915E0,-1.398999095E0
5.523004688E0,2.989879251E-1,9.941329002E0,-1.401038885E0
5.526975000E0,3.166570961E-1,9.955951691E0,-1.407647014E0
5.530946875E0,3.304764330E-1,9.974665642E0,-1.406219959E0
5.534917188E0,3.543609977E-1,9.972616196E0,-1.411276579E0
5.538887500E0,3.520721495E-1,9.967675209E0,-1.425028801E0
5.542857813E0,3.696455956E-1,9.959409714E0,-1.424779892E0
5.546828125E0,3.632961810E-1,9.972520828E0,-1.412732124E0
5.550798438E0,3.643687665E-1,9.972281456E0,-1.429376721E0
5.554770313E0,3.665331006E-1,9.983668327E0,-1.435659051E0
5.558740625E0,3.814250529E-1,9.983016968E0,-1.433590531E0
5.562710938E0,3.958381712E-1,9.977088928E0,-1.427020907E0
5.566681250E0,3.921223581E-1,9.983543396E0,-1.434213042E0
5.570651563E0,4.055298865E-1,9.987258911E0,-1.441510439E0
5.574621875E0,4.108067155E-1,9.990696907E0,-1.456450343E0
5.578592188E0,4.243961871E-1,9.978075027E0,-1.466324091E0
5.582562500E0,4.153652787E-1,9.959821701E0,-1.461602688E0
5.586534375E0,4.245781600E-1,9.945513725E0,-1.483638883E0
5.590504688E0,4.016512632E-1,9.950091362E0,-1.490390539E0
5.594475000E0,3.756023645E-1,9.931387901E0,-1.504401326E0
5.598445313E0,3.726048172E-1,9.908883095E0,-1.514648557E0
5.602415625E0,3.740317822E-1,9.906382561E0,-1.528228521E0
5.606385938E0,3.563625515E-1,9.892803192E0,-1.513939977E0
5.610360938E0,3.545621037E-1,9.862319946E0,-1.505818844E0
5.614328125E0,3.504345119E-1,9.839881897E0,-1.483121753E0
5.618298438E0,3.503004313E-1,9.833388329E0,-1.476485014E0
5.622268750E0,3.497545421E-1,9.824779510E0,-1.455531001E0
5.626239063E0,3.654317856E-1,9.805835724E0,-1.448597431E0
5.630209375E0,3.714747727E-1,9.796689987E0,-1.447381139E0
5.634179688E0,3.757843375E-1,9.793980598E0,-1.419886112E0
5.638150000E0,3.829765022E-1,9.794190407E0,-1.406813741E0
5.642120313E0,3.844608963E-1,9.804935455E0,-1.399190664E0
5.646092188E0,3.831105530E-1,9.822527885E0,-1.397562623E0
5.650062500E0,3.948134482E-1,9.844018936E0,-1.388598680E0
5.654032813E0,4.012969434E-1,9.873170853E0,-1.399497032E0
5.658003125E0,4.103374183E-1,9.902475357E0,-1.410759449E0
5.661973438E0,4.046296775E-1,9.898902893E0,-1.397514701E0
5.665943750E0,4.061715305E-1,9.908596039E0,-1.411784172E0
5.669915625E0,3.988644481E-1,9.899929047E0,-1.421494961E0
5.673885938E0,3.893355131E-1,9.895503998E0,-1.419742465E0
5.677856250E0,3.848152459E-1,9.893052101E0,-1.427221894E0
5.681826563E0,3.977152109E-1,9.890638351E0,-1.438838601E0
5.685796875E0,3.883586824E-1,9.876082420E0,-1.451163888E0
5.689765625E0,3.939132094E-1,9.873573303E0,-1.452265263E0
5.693739063E0,3.972363472E-1,9.872222900E0,-1.455243707E0
5.697709375E0,3.835223615E-1,9.876196861E0,-1.470834732E0
5.701678125E0,3.874201477E-1,9.880295753E0,-1.506709456E0
5.705650000E0,3.908199072E-1,9.885687828E0,-1.539893031E0
5.709620313E0,3.708139658E-1,9.930688858E0,-1.570577145E0
5.713590625E0,3.747308552E-1,9.928496361E0,-1.593877554E0
5.717562500E0,3.680845499E-1,9.932374001E0,-1.611939311E0
5.721531250E0,3.551846147E-1,9.934949875E0,-1.628219962E0
5.725501563E0,3.679122031E-1,9.930544853E0,-1.628334880E0
5.729473438E0,3.750277460E-1,9.907062531E0,-1.618700504E0
5.733443750E0,3.824689388E-1,9.889116287E0,-1.622780442E0
5.737414063E0,3.491895497E-1,9.860567093E0,-1.580508351E0
5.741384375E0,3.671460450E-1,9.843616486E0,-1.563337088E0
5.745354688E0,3.595324755E-1,9.820067406E0,-1.559276462E0
5.749325000E0,3.701148331E-1,9.809063911E0,-1.544116497E0
5.753296875E0,3.739072680E-1,9.788971901E0,-1.516496897E0
5.757267188E0,3.712736368E-1,9.785179138E0,-1.501815677E0
5.761237500E0,3.682569563E-1,9.773811340E0,-1.498578787E0
5.765207813E0,3.734475672E-1,9.780601501E0,-1.485075474E0
5.769178125E0,3.919787109E-1,9.767097473E0,-1.488475204E0
5.773148438E0,4.042944610E-1,9.779844284E0,-1.480306149E0
5.777118750E0,4.076463580E-1,9.777545929E0,-1.475077271E0
5.781089063E0,4.431667626E-1,9.779308319E0,-1.461822987E0
5.785060938E0,4.408587217E-1,9.782248497E0,-1.446950197E0
5.789031250E0,4.587098956E-1,9.784288406E0,-1.436856151E0
5.793001563E0,4.596484005E-1,9.785485268E0,-1.434462070E0
5.796971875E0,4.540651441E-1,9.789402008E0,-1.420001030E0
5.800942188E0,4.405905902E-1,9.819377899E0,-1.394670367E0
5.804912500E0,4.519103765E-1,9.846805573E0,-1.390628934E0
5.808887500E0,4.218870997E-1,9.877307892E0,-1.379069686E0
5.812854688E0,4.192438722E-1,9.907752991E0,-1.370488882E0
5.816825000E0,4.130189419E-1,9.929491997E0,-1.371982932E0
5.820795313E0,4.104140699E-1,9.968249321E0,-1.372088313E0
5.824765625E0,4.081635177E-1,9.977950096E0,-1.374310017E0
5.828735938E0,3.861081302E-1,1.000613499E1,-1.368516088E0
5.832706250E0,3.730645180E-1,1.001468754E1,-1.374741077E0
5.836676563E0,3.650583029E-1,1.001072311E1,-1.394191504E0
5.840646875E0,3.467857242E-1,1.000330067E1,-1.406133771E0
5.844618750E0,3.430987000E-1,9.994805336E0,-1.396844387E0
5.848589063E0,3.241653442E-1,9.990017891E0,-1.412272573E0
5.852559375E0,3.241653442E-1,9.975440979E0,-1.427260280E0
5.856529688E0,3.196929693E-1,9.962205887E0,-1.459936261E0
5.860500000E0,3.430507779E-1,9.944191933E0,-1.494202137E0
5.864470313E0,3.441521227E-1,9.938934326E0,-1.534750342E0
5.868440625E0,3.407906890E-1,9.927585602E0,-1.538494825E0
5.872412500E0,3.493427634E-1,9.929807663E0,-1.574245095E0
5.876381250E0,3.576937318E-1,9.912923813E0,-1.619888186E0
5.880353125E0,3.627502620E-1,9.926829338E0,-1.620836258E0
5.884323438E0,3.815016747E-1,9.939748764E0,-1.622799397E0
5.888293750E0,3.984334767E-1,9.966545105E0,-1.593120933E0
5.892264063E0,4.040837884E-1,9.976983070E0,-1.578401327E0
5.896234375E0,4.085370004E-1,9.979272842E0,-1.556978106E0
5.900204688E0,4.136318564E-1,9.970719337E0,-1.547439575E0
5.904176563E0,4.107779860E-1,9.972251892E0,-1.528745770E0
5.908146875E0,3.979642093E-1,9.980966568E0,-1.493043303E0
5.912117188E0,3.781593740E-1,9.964188576E0,-1.467990398E0
5.916087500E0,3.804673851E-1,9.952811241E0,-1.402599931E0
5.920057813E0,3.652785718E-1,9.940888405E0,-1.378514290E0
5.924028125E0,3.581438363E-1,9.918622017E0,-1.329548120E0
5.927998438E0,3.569180071E-1,9.894488335E0,-1.313717604E0
5.931970313E0,3.413269520E-1,9.868401527E0,-1.281376719E0
5.935940625E0,3.278524280E-1,9.851603508E0,-1.267500043E0
5.939910938E0,3.018322289E-1,9.824329376E0,-1.281338453E0
5.943881250E0,2.619065344E-1,9.803394318E0,-1.273782372E0
5.947851563E0,2.521764934E-1,9.802484512E0,-1.275678635E0
5.951823438E0,2.317682952E-1,9.784039497E0,-1.273983359E0
5.955792188E0,2.442277223E-1,9.801611900E0,-1.298270226E0
5.959764063E0,2.292112857E-1,9.800750732E0,-1.337209463E0
5.963734375E0,2.346413434E-1,9.818669319E0,-1.342946053E0
5.967704688E0,2.267500609E-1,9.825612068E0,-1.336855173E0
5.971675000E0,2.544940710E-1,9.859753609E0,-1.335275054E0
5.975645313E0,2.735136151E-1,9.881186485E0,-1.366562486E0
5.979615625E0,2.776507735E-1,9.910577774E0,-1.410950899E0
5.983585938E0,3.041019142E-1,9.939059258E0,-1.451671481E0
5.987557813E0,3.289058506E-1,9.958892822E0,-1.463010550E0
5.991528125E0,3.641867936E-1,9.993484497E0,-1.511133909E0
5.995498438E0,3.670215309E-1,1.002075863E1,-1.527222872E0
5.999468750E0,3.884065449E-1,1.002865028E1,-1.552429080E0
6.003439063E0,3.960584104E-1,1.004525566E1,-1.591387630E0
6.007412500E0,3.948421776E-1,1.005692101E1,-1.631533623E0
6.011379688E0,4.112663865E-1,1.006334686E1,-1.648542047E0
6.015350000E0,4.041316807E-1,1.006192017E1,-1.658731699E0
6.019321875E0,4.019960463E-1,1.003569794E1,-1.665789843E0
6.023292188E0,3.965755701E-1,1.000439167E1,-1.677348971E0
6.027290625E0,3.860027790E-1,9.981839180E0,-1.657256842E0
6.031232813E0,3.945548832E-1,9.926418304E0,-1.638821483E0
6.035203125E0,3.868359625E-1,9.891462326E0,-1.616909742E0
6.039173438E0,3.618596494E-1,9.864867210E0,-1.600562096E0
6.043145313E0,3.435296416E-1,9.820449829E0,-1.583716512E0
6.047114063E0,3.415376544E-1,9.791518211E0,-1.592508078E0
6.051085938E0,3.442383111E-1,9.778858185E0,-1.589797854E0
6.055056250E0,3.506643772E-1,9.775975227E0,-1.567981839E0
6.059026563E0,3.503195941E-1,9.746019363E0,-1.558970094E0
6.062996875E0,3.349009454E-1,9.736040115E0,-1.545217752E0
6.066967188E0,3.277662098E-1,9.710518837E0,-1.553702831E0
6.070937500E0,3.441042602E-1,9.711236000E0,-1.562532544E0
6.074907813E0,3.335123062E-1,9.712739944E0,-1.566133499E0
6.078879688E0,3.436445594E-1,9.726721764E0,-1.550408483E0
6.082850000E0,3.519859612E-1,9.744132996E0,-1.531886816E0
6.086820313E0,3.575021923E-1,9.737467766E0,-1.517559886E0
6.090790625E0,3.637462854E-1,9.739698410E0,-1.522128105E0
6.094760938E0,3.689847887E-1,9.771120071E0,-1.499862075E0
6.098732813E0,3.909252584E-1,9.777173042E0,-1.505569816E0
6.102703125E0,4.043806791E-1,9.781663895E0,-1.493933916E0
6.106671875E0,4.148098230E-1,9.794919014E0,-1.488360286E0
6.110643750E0,4.080772996E-1,9.832171440E0,-1.480382800E0
6.114614063E0,4.030303359E-1,9.837410927E0,-1.457743168E0
6.118584375E0,4.092169404E-1,9.873084068E0,-1.459792614E0
6.122554688E0,4.162846506E-1,9.874692917E0,-1.461181283E0
6.126525000E0,4.036624134E-1,9.882766724E0,-1.470039845E0
6.130496875E0,3.982515335E-1,9.873266220E0,-1.456996202E0
6.134467188E0,3.986537457E-1,9.900368690E0,-1.463355184E0
6.138437500E0,3.946698010E-1,9.916199684E0,-1.467454076E0
6.142407813E0,3.904559910E-1,9.933897018E0,-1.466726303E0
6.146378125E0,3.924288154E-1,9.927767754E0,-1.483399510E0
6.150348438E0,3.897473216E-1,9.937699318E0,-1.503750205E0
6.154318750E0,3.758896887E-1,9.943578720E0,-1.519216776E0
6.158290625E0,3.639282286E-1,9.935774803E0,-1.515041232E0
6.162260938E0,3.518423140E-1,9.934185028E0,-1.525547028E0
6.166229688E0,3.463356197E-1,9.924694061E0,-1.527548552E0
6.170201563E0,3.329280913E-1,9.926006317E0,-1.531714439E0
6.174171875E0,3.185628951E-1,9.930162430E0,-1.550283909E0
6.178142188E0,3.148088157E-1,9.926924706E0,-1.553875208E0
6.182114063E0,3.083827496E-1,9.915960312E0,-1.538772583E0
6.186082813E0,3.228628933E-1,9.924340248E0,-1.536589146E0
6.190053125E0,3.203920722E-1,9.928620338E0,-1.547774792E0
6.194025000E0,3.378793299E-1,9.917138100E0,-1.518833637E0
6.197995313E0,3.438456655E-1,9.913939476E0,-1.521017194E0
6.201965625E0,3.458184898E-1,9.913700104E0,-1.496040940E0
6.205935938E0,3.603464961E-1,9.900177956E0,-1.475872040E0
6.209906250E0,3.378984630E-1,9.908824921E0,-1.441309452E0
6.213876563E0,3.521008790E-1,9.892026901E0,-1.413517594E0
6.217848438E0,3.228150010E-1,9.884797096E0,-1.399928093E0
6.221818750E0,3.206889629E-1,9.867347717E0,-1.411755323E0
6.225787500E0,3.255444169E-1,9.861582756E0,-1.396269679E0
6.229759375E0,3.132764995E-1,9.850894928E0,-1.385524511E0
6.233729688E0,3.180074394E-1,9.847992897E0,-1.403672576E0
6.237700000E0,3.229395151E-1,9.842429161E0,-1.391203642E0
6.241670313E0,3.238397241E-1,9.840790749E0,-1.380151987E0
6.245640625E0,3.336463571E-1,9.848481178E0,-1.385179758E0
6.249612500E0,3.460004628E-1,9.851469994E0,-1.376043439E0
6.253582813E0,3.488351703E-1,9.854868889E0,-1.338444948E0
6.257553125E0,3.431082368E-1,9.854916573E0,-1.340532660E0
6.261523438E0,3.514209390E-1,9.878590584E0,-1.337046742E0
6.265493750E0,3.630567193E-1,9.874952316E0,-1.328255296E0
6.269464063E0,3.523690104E-1,9.899784088E0,-1.313334584E0
6.273435938E0,3.531256020E-1,9.918038368E0,-1.289038181E0
6.277404688E0,3.559986353E-1,9.920805931E0,-1.271512747E0
6.281376563E0,3.686974645E-1,9.942823410E0,-1.254408479E0
6.285346875E0,3.473986685E-1,9.942305565E0,-1.262290120E0
6.289317188E0,3.342018127E-1,9.953328133E0,-1.262520075E0
6.293287500E0,3.232651055E-1,9.950446129E0,-1.265191913E0
6.297257813E0,3.126252890E-1,9.948962212E0,-1.260470629E0
6.301229688E0,2.967565060E-1,9.951164246E0,-1.278771877E0
6.305198438E0,3.030197322E-1,9.959170341E0,-1.282497168E0
6.309170313E0,3.087658286E-1,9.942660332E0,-1.296776295E0
6.313140625E0,3.104321957E-1,9.941692352E0,-1.321637750E0
6.317110938E0,3.005680740E-1,9.936789513E0,-1.317088604E0
6.321081250E0,3.036997020E-1,9.925843239E0,-1.337448955E0
6.325051563E0,3.123092353E-1,9.922337532E0,-1.347906828E0
6.329021875E0,3.224702477E-1,9.926877022E0,-1.350415945E0
6.332993750E0,3.318363726E-1,9.927327156E0,-1.354601026E0
6.336964063E0,3.453109264E-1,9.918440819E0,-1.364570379E0
6.340934375E0,3.670981526E-1,9.910558701E0,-1.379826307E0
6.344904688E0,3.668874800E-1,9.911564827E0,-1.395628095E0
6.348875000E0,4.006552994E-1,9.907666206E0,-1.422241926E0
6.352845313E0,4.135552347E-1,9.907158852E0,-1.412827969E0
6.356815625E0,4.220019877E-1,9.908241272E0,-1.388895512E0
6.360787500E0,4.467388988E-1,9.895025253E0,-1.390715241E0
6.364756250E0,4.650114477E-1,9.893023491E0,-1.374989986E0
6.368728125E0,4.617170095E-1,9.896719933E0,-1.374338865E0
6.372698438E0,4.769441187E-1,9.874922752E0,-1.372787356E0
6.376668750E0,4.898440838E-1,9.886079788E0,-1.371264696E0
6.380640625E0,4.916445315E-1,9.877183914E0,-1.401422024E0
6.384609375E0,4.893939793E-1,9.885706902E0,-1.396882534E0
6.388579688E0,5.080304742E-1,9.889595032E0,-1.404438734E0
6.392551563E0,5.082219839E-1,9.902111053E0,-1.389824510E0
6.396521875E0,4.888768196E-1,9.899133682E0,-1.399324656E0
6.400492188E0,5.005605221E-1,9.906823158E0,-1.392008066E0
6.404465625E0,5.144469142E-1,9.919157982E0,-1.389393568E0
6.408432813E0,5.188426375E-1,9.908211708E0,-1.375804067E0
6.412403125E0,5.116121769E-1,9.903223038E0,-1.372490525E0
6.416375000E0,5.049467087E-1,9.892304420E0,-1.355443716E0
6.420345313E0,4.962988496E-1,9.904218674E0,-1.321944118E0
6.424315625E0,4.869135618E-1,9.892439842E0,-1.321589708E0
6.428285938E0,4.774038196E-1,9.892706871E0,-1.326081276E0
6.432256250E0,4.628566504E-1,9.881722450E0,-1.293165803E0
6.436226563E0,4.364534020E-1,9.880947113E0,-1.298356414E0
6.440196875E0,4.260433912E-1,9.884261131E0,-1.289459586E0
6.444167188E0,4.238886237E-1,9.870891571E0,-1.317193985E0
6.448139063E0,4.026281238E-1,9.870805740E0,-1.349506140E0
6.452109375E0,3.901782632E-1,9.877699852E0,-1.368793845E0
6.456078125E0,3.930800557E-1,9.862627029E0,-1.386587501E0
6.460050000E0,3.944973946E-1,9.869100571E0,-1.394555449E0
6.464020313E0,3.914615512E-1,9.877423286E0,-1.402638316E0
6.467990625E0,3.901782632E-1,9.881100655E0,-1.404352546E0
6.471960938E0,3.885310590E-1,9.870287895E0,-1.422730446E0
6.475932813E0,3.909348547E-1,9.871110916E0,-1.429252148E0
6.479903125E0,4.062289894E-1,9.878036499E0,-1.436128378E0
6.483873438E0,4.124922156E-1,9.884087563E0,-1.416687489E0
6.487843750E0,4.181425571E-1,9.888694763E0,-1.417195082E0
6.491814063E0,4.363384843E-1,9.902609825E0,-1.420556545E0
6.495784375E0,4.295197725E-1,9.907282829E0,-1.398414969E0
6.499756250E0,4.274416268E-1,9.909419060E0,-1.408843994E0
6.503725000E0,4.503589272E-1,9.916716576E0,-1.395130038E0
6.507696875E0,4.415961206E-1,9.944001198E0,-1.368813038E0
6.511667188E0,4.543332756E-1,9.945168495E0,-1.338195920E0
6.515635938E0,4.539214671E-1,9.960482597E0,-1.321407795E0
6.519607813E0,4.530499876E-1,9.971735001E0,-1.298730016E0
6.523578125E0,4.409640729E-1,9.964218140E0,-1.263353109E0
6.527548438E0,4.218966365E-1,9.976264954E0,-1.267404199E0
6.531520313E0,4.089009166E-1,9.975958824E0,-1.254350901E0
6.535490625E0,3.994294405E-1,9.968479156E0,-1.245885134E0
6.539460938E0,3.718482554E-1,9.953453064E0,-1.229422569E0
6.543431250E0,3.562380672E-1,9.953893661E0,-1.221004486E0
6.547401563E0,3.465750813E-1,9.967225075E0,-1.201544404E0
6.551371875E0,3.222499788E-1,9.953232765E0,-1.209301710E0
6.555342188E0,2.984037101E-1,9.946088791E0,-1.217920780E0
6.559312500E0,2.763483226E-1,9.949804306E0,-1.205605149E0
6.563282813E0,2.545419335E-1,9.957523346E0,-1.225764275E0
6.567254688E0,2.222106457E-1,9.952638626E0,-1.217355847E0
6.571225000E0,2.150759250E-1,9.949900627E0,-1.234651446E0
6.575195313E0,1.909902692E-1,9.938149452E0,-1.239640951E0
6.579165625E0,1.794789433E-1,9.927767754E0,-1.277143836E0
6.583135938E0,1.611106247E-1,9.919100761E0,-1.279547572E0
6.587107813E0,1.767495424E-1,9.900368690E0,-1.287410140E0
6.591078125E0,1.502888352E-1,9.898425102E0,-1.301066637E0
6.595048438E0,1.411334127E-1,9.892170906E0,-1.299045920E0
6.599018750E0,1.566765606E-1,9.887804031E0,-1.313095093E0
6.602992188E0,1.694520265E-1,9.892937660E0,-1.330888748E0
6.606959375E0,1.808580011E-1,9.903433800E0,-1.331539989E0
6.610929688E0,2.016875446E-1,9.896949768E0,-1.330275893E0
6.614901563E0,2.229767889E-1,9.911736488E0,-1.344756126E0
6.618870313E0,2.602688968E-1,9.920211792E0,-1.352666497E0
6.622842188E0,2.878021896E-1,9.927030563E0,-1.352044106E0
6.626812500E0,3.394595087E-1,9.934165001E0,-1.326866627E0
6.630782813E0,3.664086163E-1,9.933619499E0,-1.327173114E0
6.634751563E0,3.866252601E-1,9.940600395E0,-1.306563735E0
6.638723438E0,4.032123089E-1,9.951048851E0,-1.292993426E0
6.642693750E0,4.262923896E-1,9.960137367E0,-1.300741076E0
6.646665625E0,4.239556491E-1,9.948252678E0,-1.283110142E0
6.650635938E0,4.286866188E-1,9.953473091E0,-1.252770901E0
6.654604688E0,4.182574451E-1,9.941242218E0,-1.239200473E0
6.658576563E0,4.106343091E-1,9.946988106E0,-1.223437071E0
6.662546875E0,3.906475306E-1,9.932795525E0,-1.217135549E0
6.666517188E0,3.800938725E-1,9.927059174E0,-1.232535005E0
6.670489063E0,3.609881699E-1,9.924128532E0,-1.239947557E0
6.674459375E0,3.535853028E-1,9.919704437E0,-1.238147140E0
6.678429688E0,3.262243271E-1,9.914590836E0,-1.231155992E0
6.682400000E0,2.980110645E-1,9.895130157E0,-1.247771740E0
6.686370313E0,2.856761515E-1,9.890457153E0,-1.248892188E0
6.690340625E0,2.725750804E-1,9.897601128E0,-1.248585820E0
6.694310938E0,2.742222846E-1,9.891654015E0,-1.234852672E0
6.698281250E0,2.629791200E-1,9.890379906E0,-1.243443012E0
6.702250000E0,2.424943298E-1,9.880573273E0,-1.262290120E0
6.706221875E0,2.359150499E-1,9.880516052E0,-1.291193008E0
6.710192188E0,2.392382026E-1,9.902676582E0,-1.301765800E0
6.714162500E0,2.259168774E-1,9.885189056E0,-1.315585136E0
6.718134375E0,2.219520658E-1,9.907474518E0,-1.326263189E0
6.722104688E0,2.274874747E-1,9.904448509E0,-1.333579898E0
6.726075000E0,2.270660847E-1,9.894545555E0,-1.348969817E0
6.730046875E0,2.314235419E-1,9.898156166E0,-1.347619534E0
6.734015625E0,2.397649437E-1,9.893234253E0,-1.347849369E0
6.737985938E0,2.704681754E-1,9.889365196E0,-1.361975074E0
6.741957813E0,2.763866484E-1,9.895044327E0,-1.373773813E0
6.745928125E0,2.823338211E-1,9.897974968E0,-1.387229204E0
6.749898438E0,2.989112735E-1,9.898176193E0,-1.400177002E0
6.753868750E0,3.042072654E-1,9.895445824E0,-1.372337222E0
6.757839063E0,3.118591309E-1,9.887928963E0,-1.357665658E0
6.761809375E0,3.229203522E-1,9.891902924E0,-1.328992724E0
6.765781250E0,3.156419694E-1,9.891069412E0,-1.303106546E0
6.769750000E0,3.215891719E-1,9.885783195E0,-1.306372166E0
6.773721875E0,3.309744596E-1,9.876139641E0,-1.264598131E0
6.777692188E0,3.211103082E-1,9.864627838E0,-1.262376308E0
6.781660938E0,3.230448663E-1,9.882671356E0,-1.238348126E0
6.785632813E0,3.225851655E-1,9.889144897E0,-1.219941497E0
6.789604688E0,3.214646578E-1,9.885659218E0,-1.237428784E0
6.793575000E0,3.313862383E-1,9.899008751E0,-1.230571747E0
6.797545313E0,3.331675529E-1,9.922644615E0,-1.236777544E0
6.801517188E0,3.207368553E-1,9.921773911E0,-1.213400602E0
6.805485938E0,3.270096481E-1,9.928093910E0,-1.220123529E0
6.809456250E0,3.224702477E-1,9.937967300E0,-1.203708887E0
6.813426563E0,3.177105784E-1,9.936003685E0,-1.203699231E0
6.817396875E0,3.290590942E-1,9.931628227E0,-1.213917732E0
6.821367188E0,3.127880991E-1,9.936483383E0,-1.229221463E0
6.825339063E0,3.116005659E-1,9.925240517E0,-1.235274076E0
6.829309375E0,2.943623066E-1,9.909725189E0,-1.243232250E0
6.833279688E0,2.992847860E-1,9.920048714E0,-1.270803928E0
6.837250000E0,2.961914539E-1,9.906669617E0,-1.277728081E0
6.841220313E0,3.150865138E-1,9.913077354E0,-1.305175185E0
6.845192188E0,3.219818175E-1,9.921877861E0,-1.293194532E0
6.849162500E0,3.176818192E-1,9.918344498E0,-1.304887772E0
6.853131250E0,3.227575421E-1,9.929864883E0,-1.308297157E0
6.857103125E0,3.419111669E-1,9.931158066E0,-1.282650471E0
6.861073438E0,3.470155895E-1,9.920317650E0,-1.282755852E0
6.865043750E0,3.340677619E-1,9.926762581E0,-1.277756691E0
6.869014063E0,3.454928994E-1,9.921590805E0,-1.281424642E0
6.872984375E0,3.542844057E-1,9.943377495E0,-1.278034449E0
6.876954688E0,3.511240482E-1,9.940917015E0,-1.286337495E0
6.880926563E0,3.419303000E-1,9.944459915E0,-1.275640249E0
6.884896875E0,3.169827163E-1,9.944939613E0,-1.259101033E0
6.888867188E0,3.288483918E-1,9.944191933E0,-1.242868423E0
6.892837500E0,3.277949393E-1,9.942085266E0,-1.244965672E0
6.896807813E0,3.053756356E-1,9.947802544E0,-1.231634736E0
6.900778125E0,2.958371341E-1,9.961918831E0,-1.221042871E0
6.904750000E0,2.992560863E-1,9.971735001E0,-1.218897700E0
6.908720313E0,2.722781897E-1,9.984826088E0,-1.190215111E0
6.912690625E0,2.771815062E-1,1.000005341E1,-1.162250876E0
6.916660938E0,2.691944540E-1,1.000151825E1,-1.151639819E0
6.920631250E0,2.747106850E-1,9.982739449E0,-1.142790794E0
6.924601563E0,2.714641690E-1,9.960846901E0,-1.149504185E0
6.928573438E0,2.704585791E-1,9.947496414E0,-1.143509030E0
6.932542188E0,2.470433116E-1,9.916275024E0,-1.145022273E0
6.936514063E0,2.517646849E-1,9.873744965E0,-1.161178231E0
6.940484375E0,2.472252697E-1,9.875651360E0,-1.164683342E0
6.944454688E0,2.457504421E-1,9.868919373E0,-1.163007498E0
6.948425000E0,2.452428788E-1,9.883418083E0,-1.186039686E0
6.952395313E0,2.444192618E-1,9.875938416E0,-1.183099627E0
6.956365625E0,2.605178952E-1,9.896902084E0,-1.179307103E0
6.960335938E0,2.579608858E-1,9.903424263E0,-1.187686920E0
6.964307813E0,2.486617863E-1,9.900953293E0,-1.188922286E0
6.968278125E0,2.441702783E-1,9.901517868E0,-1.188098669E0
6.972248438E0,2.489682436E-1,9.905041695E0,-1.191105723E0
6.976218750E0,2.541013956E-1,9.904889107E0,-1.174691200E0
6.980189063E0,2.656606138E-1,9.896806717E0,-1.190579057E0
6.984159375E0,2.660819888E-1,9.893923759E0,-1.184152961E0
6.988129688E0,2.638984919E-1,9.882287979E0,-1.190148115E0
6.992100000E0,2.610350251E-1,9.864169121E0,-1.195396066E0
6.996071875E0,2.751895487E-1,9.863306999E0,-1.198336363E0
7.000042188E0,2.694913447E-1,9.869799614E0,-1.219922304E0
7.004012500E0,2.940654159E-1,9.870843887E0,-1.221368551E0
7.007982813E0,2.866625786E-1,9.876139641E0,-1.225055575E0
7.011953125E0,3.023206592E-1,9.879568100E0,-1.211466074E0
7.015923438E0,3.026845753E-1,9.881196022E0,-1.221962333E0
7.019923438E0,3.046478033E-1,9.883293152E0,-1.210862637E0
7.023865625E0,2.991985977E-1,9.898789406E0,-1.195807934E0
7.027834375E0,3.032304347E-1,9.898195267E0,-1.183243155E0
7.031806250E0,3.011043668E-1,9.912023544E0,-1.184028506E0
7.035776563E0,3.165613413E-1,9.919693947E0,-1.174116492E0
7.039746875E0,3.106715977E-1,9.917032242E0,-1.178837895E0
7.043717188E0,3.150386214E-1,9.932144165E0,-1.197761655E0
7.047687500E0,3.051457703E-1,9.917079926E0,-1.199408770E0
7.051657813E0,2.993422449E-1,9.928360939E0,-1.197608352E0
7.055629688E0,2.960095108E-1,9.937785149E0,-1.174595356E0
7.059600000E0,2.897079885E-1,9.939413071E0,-1.162174225E0
7.063570313E0,2.797481120E-1,9.952677727E0,-1.147176981E0
7.067540625E0,2.673365474E-1,9.950742722E0,-1.136010408E0
7.071510938E0,2.576161027E-1,9.939020157E0,-1.127008200E0
7.075481250E0,2.708703876E-1,9.928840637E0,-1.126414418E0
7.079451563E0,2.638984919E-1,9.922816277E0,-1.133865237E0
7.083423438E0,2.553368211E-1,9.920633316E0,-1.149255157E0
7.087393750E0,2.460568994E-1,9.914647102E0,-1.149810553E0
7.091364063E0,2.635249794E-1,9.914236069E0,-1.177573681E0
7.095334375E0,2.579991817E-1,9.907944679E0,-1.183003783E0
7.099304688E0,2.637452781E-1,9.899133682E0,-1.200347424E0
7.103276563E0,2.498493195E-1,9.910845757E0,-1.185560822E0
7.107245313E0,2.483361810E-1,9.889986992E0,-1.191019535E0
7.111217188E0,2.573479712E-1,9.865787506E0,-1.193500042E0
7.115187500E0,2.585642040E-1,9.849152565E0,-1.206917167E0
7.119157813E0,2.426858693E-1,9.854859352E0,-1.206007361E0
7.123128125E0,2.579417229E-1,9.854629517E0,-1.208909035E0
7.127098438E0,2.790106833E-1,9.865959167E0,-1.209713459E0
7.131068750E0,2.848812938E-1,9.880449295E0,-1.207405567E0
7.135039063E0,2.639655173E-1,9.893166542E0,-1.194974899E0
7.139009375E0,2.652679682E-1,9.907177925E0,-1.202224493E0
7.142981250E0,2.596368194E-1,9.902054787E0,-1.203239679E0
7.146951563E0,3.189555407E-1,9.920595169E0,-1.197981954E0
7.150921875E0,2.858102024E-1,9.924118996E0,-1.201276422E0
7.154892188E0,2.767888904E-1,9.915892601E0,-1.178138852E0
7.158862500E0,2.584588528E-1,9.926647186E0,-1.159320354E0
7.162832813E0,2.549154460E-1,9.936444283E0,-1.174585819E0
7.166803125E0,2.694051564E-1,9.930373192E0,-1.183501840E0
7.170775000E0,2.961148620E-1,9.945369720E0,-1.181605577E0
7.174745313E0,3.233417273E-1,9.943655968E0,-1.181643963E0
7.178715625E0,3.467187285E-1,9.952227592E0,-1.194850326E0
7.182685938E0,3.603464961E-1,9.939442635E0,-1.161772013E0
7.186656250E0,3.896323740E-1,9.940026283E0,-1.152482510E0
7.190626563E0,4.050414860E-1,9.923602104E0,-1.139975190E0
7.194598438E0,4.167730510E-1,9.920279503E0,-1.139352679E0
7.198567188E0,4.397095144E-1,9.905789375E0,-1.133750200E0
7.202537500E0,4.496214986E-1,9.904150963E0,-1.138509870E0
7.206509375E0,4.385603070E-1,9.897438049E0,-1.131183743E0
7.210479688E0,4.201153517E-1,9.895006180E0,-1.119567037E0
7.214450000E0,4.164665937E-1,9.914619446E0,-1.118140101E0
7.218420313E0,3.763493598E-1,9.911018372E0,-1.124211788E0
7.222390625E0,3.103172481E-1,9.925776482E0,-1.115918159E0
7.226360938E0,2.641379237E-1,9.912397385E0,-1.095797420E0
7.230332813E0,1.932408214E-1,9.896336555E0,-1.094178915E0
7.234303125E0,1.649413407E-1,9.895723343E0,-1.105604053E0
7.238273438E0,1.120965257E-1,9.891874313E0,-1.130111098E0
7.242243750E0,8.679459989E-2,9.876350403E0,-1.137772560E0
7.246214063E0,9.572976083E-2,9.871849060E0,-1.143633604E0
7.250184375E0,1.200548485E-1,9.879558563E0,-1.177554607E0
7.254156250E0,1.333283037E-1,9.911612511E0,-1.199859023E0
7.258125000E0,1.721047908E-1,9.924521446E0,-1.225429058E0
7.262096875E0,2.247676551E-1,9.963690758E0,-1.234239697E0
7.266067188E0,2.695966661E-1,9.986521721E0,-1.256429195E0
7.270037500E0,2.883672118E-1,1.000554085E1,-1.269654751E0
7.274007813E0,3.361363411E-1,1.001954269E1,-1.269128084E0
7.277978125E0,3.709097207E-1,1.000513840E1,-1.250932097E0
7.281948438E0,3.626545072E-1,9.972175598E0,-1.225342870E0
7.285920313E0,3.291836083E-1,9.970002174E0,-1.212739706E0
7.289890625E0,3.504632711E-1,9.942257881E0,-1.223034739E0
7.293860938E0,3.441521227E-1,9.948175430E0,-1.265833616E0
7.297831250E0,3.451289535E-1,9.951853752E0,-1.289430737E0
7.301801563E0,3.709959090E-1,9.961851120E0,-1.277708888E0
7.305771875E0,3.891344070E-1,9.967885971E0,-1.231424093E0
7.309743750E0,4.028387964E-1,9.977730751E0,-1.222508192E0
7.313714063E0,4.069185257E-1,9.980498314E0,-1.198508620E0
7.317682813E0,4.212837219E-1,9.974866867E0,-1.190224767E0
7.321654688E0,4.262253642E-1,9.952582359E0,-1.184794664E0
7.325625000E0,3.973034024E-1,9.918277740E0,-1.170218706E0
7.329595313E0,3.496300578E-1,9.882201195E0,-1.154493690E0
7.333567188E0,3.375633061E-1,9.882947922E0,-1.184497833E0
7.337535938E0,3.415951133E-1,9.887104034E0,-1.183310270E0
7.341506250E0,3.324971497E-1,9.877135277E0,-1.205154896E0
7.345478125E0,3.568605781E-1,9.886903763E0,-1.204704881E0
7.349448438E0,3.724611700E-1,9.882920265E0,-1.215315938E0
7.353418750E0,3.649433851E-1,9.890696526E0,-1.201439142E0
7.357389063E0,3.724228442E-1,9.884835243E0,-1.204178095E0
7.361359375E0,3.981653154E-1,9.885659218E0,-1.209253788E0
7.365329688E0,4.077325463E-1,9.886309624E0,-1.200739980E0
7.369301563E0,4.072920084E-1,9.889374733E0,-1.190885544E0
7.373271875E0,4.017757773E-1,9.891242027E0,-1.197359324E0
7.377240625E0,4.006073773E-1,9.884499550E0,-1.195271730E0
7.381212500E0,4.009904861E-1,9.878160477E0,-1.185934305E0
7.385182813E0,3.954742551E-1,9.903461456E0,-1.187849641E0
7.389153125E0,3.898335099E-1,9.894843102E0,-1.188443303E0
7.393125000E0,3.880330622E-1,9.899650574E0,-1.187322855E0
7.397093750E0,3.626736701E-1,9.890696526E0,-1.174279332E0
7.401064063E0,3.458376527E-1,9.890628815E0,-1.197301984E0
7.405035938E0,3.331770897E-1,9.898980141E0,-1.230016351E0
7.409006250E0,3.327653110E-1,9.900962830E0,-1.236499906E0
7.412976563E0,3.630375862E-1,9.914025307E0,-1.233597994E0
7.416946875E0,3.871615529E-1,9.919341087E0,-1.224318147E0
7.420917188E0,3.870466650E-1,9.922165871E0,-1.229920506E0
7.424889063E0,3.880043328E-1,9.917837143E0,-1.215871334E0
7.428857813E0,3.921606839E-1,9.925326347E0,-1.225649238E0
7.432829688E0,3.786956668E-1,9.930544853E0,-1.217614412E0
7.436800000E0,3.685346544E-1,9.931723595E0,-1.221062064E0
7.440770313E0,3.752767742E-1,9.945350647E0,-1.210374236E0
7.444740625E0,3.518518806E-1,9.953787804E0,-1.187265515E0
7.448710938E0,3.231118917E-1,9.965021133E0,-1.181883335E0
7.452682813E0,3.214359581E-1,9.965031624E0,-1.189831972E0
7.456651563E0,3.019279838E-1,9.966304779E0,-1.155872703E0
7.460623438E0,2.929257751E-1,9.979674339E0,-1.146669388E0
7.464593750E0,2.597804666E-1,9.968335152E0,-1.143307924E0
7.468575000E0,2.428773940E-1,9.966113091E0,-1.138375878E0
7.472534375E0,2.278705388E-1,9.939988136E0,-1.127113581E0
7.476504688E0,2.165220231E-1,9.942755699E0,-1.141258597E0
7.480475000E0,1.982494742E-1,9.948119164E0,-1.129440665E0
7.484446875E0,1.923405975E-1,9.950187683E0,-1.137006402E0
7.488417188E0,1.732348651E-1,9.931580544E0,-1.141995907E0
7.492387500E0,1.571266651E-1,9.934348106E0,-1.146851301E0
7.496357813E0,1.207348034E-1,9.938590050E0,-1.142014980E0
7.500328125E0,1.203996092E-1,9.912636757E0,-1.157682776E0
7.504298438E0,9.615113586E-2,9.915193558E0,-1.183262348E0
7.508270313E0,9.641928971E-2,9.918689728E0,-1.210106254E0
7.512240625E0,9.050082415E-2,9.919254303E0,-1.219797850E0
7.516209375E0,8.328948915E-2,9.930554390E0,-1.217145085E0
7.520181250E0,1.037072390E-1,9.919867516E0,-1.224854469E0
7.524151563E0,1.104876176E-1,9.937268257E0,-1.225237608E0
7.528121875E0,1.161858216E-1,9.932622910E0,-1.230724931E0
7.532093750E0,1.261457056E-1,9.937191010E0,-1.214980721E0
7.536062500E0,1.220755503E-1,9.922768593E0,-1.205432653E0
7.540034375E0,1.420623511E-1,9.918669701E0,-1.219596744E0
7.544004688E0,1.389211565E-1,9.901182175E0,-1.206342578E0
7.547973438E0,1.231290027E-1,9.908623695E0,-1.193021059E0
7.551945313E0,1.109377295E-1,9.910452843E0,-1.192781687E0
7.555915625E0,1.170764640E-1,9.893292427E0,-1.204723954E0
7.559885938E0,1.580268890E-1,9.912953377E0,-1.192676425E0
7.563856250E0,1.960659623E-1,9.937670708E0,-1.194122434E0
7.567828125E0,2.226224542E-1,9.943779945E0,-1.202234030E0
7.571798438E0,2.413163781E-1,9.940629959E0,-1.177736521E0
7.575767188E0,2.591867149E-1,9.922950745E0,-1.182323813E0
7.579739063E0,2.940462530E-1,9.933389664E0,-1.177382231E0
7.583709375E0,2.692327499E-1,9.922348022E0,-1.188299775E0
7.587679688E0,2.979919016E-1,9.905674934E0,-1.199399233E0
7.591651563E0,3.237439692E-1,9.891549110E0,-1.200337768E0
7.595620313E0,2.979153097E-1,9.856564522E0,-1.200414419E0
7.599592188E0,3.177871704E-1,9.832324982E0,-1.188912749E0
7.603562500E0,3.481360674E-1,9.805128098E0,-1.180485129E0
7.607532813E0,3.591972888E-1,9.820641518E0,-1.171281695E0
7.611503125E0,3.714077175E-1,9.821915627E0,-1.168600202E0
7.615473438E0,4.009138346E-1,9.839585304E0,-1.179881692E0
7.619443750E0,4.317703247E-1,9.865749359E0,-1.154340506E0
7.623415625E0,4.296346903E-1,9.917751312E0,-1.175275326E0
7.627385938E0,4.190906286E-1,9.956642151E0,-1.196784735E0
7.631356250E0,3.917584121E-1,9.988341331E0,-1.204982519E0
7.635326563E0,4.136989117E-1,1.003752708E1,-1.206581950E0
7.639296875E0,3.962882757E-1,1.007188034E1,-1.221694112E0
7.643267188E0,3.697892427E-1,1.009089947E1,-1.216244817E0
7.647237500E0,3.121559918E-1,1.009793854E1,-1.237610698E0
7.651209375E0,2.571947277E-1,1.007157326E1,-1.275688052E0
7.655178125E0,2.390370965E-1,1.004678917E1,-1.313459158E0
7.659150000E0,2.085924298E-1,1.003141785E1,-1.303642869E0
7.663120313E0,1.740488857E-1,1.003353405E1,-1.311151028E0
7.667090625E0,1.840566546E-1,1.002005005E1,-1.293462634E0
7.671060938E0,1.617426872E-1,1.001131630E1,-1.261140943E0
7.675031250E0,1.676228493E-1,9.992546082E0,-1.187562346E0
7.679001563E0,1.281280965E-1,9.958528519E0,-1.145338297E0
7.682973438E0,1.111005321E-1,9.858038902E0,-1.127937078E0
7.686943750E0,2.099619210E-1,9.719395638E0,-1.134612203E0
7.690914063E0,2.581523955E-1,9.650069237E0,-1.099168420E0
7.694884375E0,2.511613369E-1,9.634171486E0,-1.115899086E0
7.698854688E0,3.010469377E-1,9.642887115E0,-1.169902682E0
7.702825000E0,3.047148585E-1,9.657999039E0,-1.245147705E0
7.706796875E0,1.884428263E-1,9.656600952E0,-1.269338727E0
7.710765625E0,1.433456391E-1,9.629306793E0,-1.353681684E0
7.714735938E0,3.084402084E-1,9.691738129E0,-1.300731421E0
7.718707813E0,3.264254332E-1,9.718831062E0,-1.318889141E0
7.722678125E0,4.340017438E-1,9.769856453E0,-1.296824098E0
7.726648438E0,3.560464978E-1,9.824578285E0,-1.230485559E0
7.730618750E0,3.937408328E-1,9.870671272E0,-1.192934990E0
7.734589063E0,3.963457346E-1,9.936290741E0,-1.176520228E0
7.738559375E0,3.711874783E-1,9.991070747E0,-1.206735134E0
7.742531250E0,4.213890731E-1,1.007914829E1,-1.208449364E0
7.746501563E0,2.915658951E-1,1.011650753E1,-1.206668139E0
7.750471875E0,2.918531895E-1,1.010656738E1,-1.206878781E0
7.754442188E0,3.509708345E-1,1.013120842E1,-1.177707791E0
7.758412500E0,3.651732206E-1,1.013863945E1,-1.159770489E0
7.762382813E0,3.410300910E-1,1.012358475E1,-1.120342731E0
7.766354688E0,2.725176215E-1,1.009243202E1,-1.034955978E0
7.770325000E0,2.971778810E-1,1.001168919E1,-1.033442736E0
7.774295313E0,3.555772603E-1,9.968440056E0,-1.063705564E0
7.778265625E0,1.128147915E-2,9.992410660E0,-1.165976167E0
7.782235938E0,-3.293655515E-1,9.949191093E0,-1.474330187E0
7.786206250E0,9.255983680E-2,1.001123905E1,-1.620204210E0
7.790176563E0,2.951763272E-1,1.011872959E1,-1.593092322E0
7.794146875E0,4.287249148E-1,1.014253712E1,-1.508969545E0
7.798117188E0,5.618808866E-1,1.005696869E1,-1.353250742E0
7.802089063E0,6.162291765E-1,9.958509445E0,-1.274165392E0
7.806059375E0,6.445190907E-1,9.847639084E0,-1.202703238E0
7.810029688E0,5.876520276E-1,9.740628242E0,-1.157098532E0
7.814000000E0,5.370002985E-1,9.660316467E0,-1.149523258E0
7.817970313E0,5.093328953E-1,9.603277206E0,-1.154244661E0
7.821940625E0,4.752394855E-1,9.584238052E0,-1.179182649E0
7.825910938E0,4.256794751E-1,9.613572121E0,-1.238252401E0
7.829882813E0,3.926490843E-1,9.677248001E0,-1.273926020E0
7.833853125E0,3.944207728E-1,9.772939682E0,-1.291604757E0
7.837823438E0,4.340592027E-1,9.880248070E0,-1.305730581E0
7.841793750E0,4.268478751E-1,9.953692436E0,-1.294066072E0
7.845764063E0,4.866645932E-1,1.003253841E1,-1.289315939E0
7.849734375E0,4.823454618E-1,1.005809879E1,-1.256515384E0
7.853704688E0,4.693688750E-1,1.004856014E1,-1.232295632E0
7.857676563E0,4.287057519E-1,9.994106293E0,-1.213228106E0
7.861646875E0,3.757364452E-1,9.948434830E0,-1.219366908E0
7.865617188E0,3.074633777E-1,9.884346962E0,-1.178292036E0
7.869587500E0,3.068600595E-1,9.847437859E0,-1.189314961E0
7.873557813E0,2.627396882E-1,9.841232300E0,-1.185675621E0
7.877528125E0,2.204197794E-1,9.842151642E0,-1.192887068E0
7.881500000E0,2.192035317E-1,9.862531662E0,-1.216235399E0
7.885470313E0,2.519178987E-1,9.893061638E0,-1.255864143E0
7.889440625E0,2.287899107E-1,9.918622017E0,-1.291758060E0
7.893410938E0,4.922479019E-2,9.926513672E0,-1.293520093E0
7.897381250E0,-8.555918932E-2,9.894210815E0,-1.276080847E0
7.901351563E0,-9.749189019E-2,9.877010345E0,-1.298270226E0
7.905323438E0,-4.368939251E-2,9.938551903E0,-1.302828908E0
7.909293750E0,5.226063356E-2,9.989758492E0,-1.311744809E0
7.913264063E0,1.179096475E-1,1.003438663E1,-1.324931979E0
7.917234375E0,2.189066410E-1,1.008545017E1,-1.309187770E0
7.921204688E0,2.656031549E-1,1.011503315E1,-1.318553925E0
7.925175000E0,2.653541565E-1,1.014647388E1,-1.293031693E0
7.929145313E0,3.071281910E-1,1.014207840E1,-1.296814561E0
7.933115625E0,3.422846496E-1,1.013372612E1,-1.293357253E0
7.937085938E0,3.593983948E-1,1.011964989E1,-1.322336793E0
7.941057813E0,3.582875133E-1,1.008290195E1,-1.321225882E0
7.945026563E0,3.449374437E-1,1.002888012E1,-1.345397711E0
7.948998438E0,3.505494297E-1,9.965624809E0,-1.343865395E0
7.952968750E0,3.675386906E-1,9.878533363E0,-1.357177138E0
7.956939063E0,4.065929055E-1,9.807856560E0,-1.361352682E0
7.960909375E0,4.530595839E-1,9.745464325E0,-1.338760972E0
7.964881250E0,4.852567911E-1,9.698901176E0,-1.285207510E0
7.968850000E0,5.071206093E-1,9.664079666E0,-1.228464842E0
7.972821875E0,5.258529186E-1,9.673705101E0,-1.177746058E0
7.976792188E0,5.371534824E-1,9.696277618E0,-1.127276421E0
7.980762500E0,5.532904863E-1,9.731988907E0,-1.071070075E0
7.984732813E0,5.559336543E-1,9.775296211E0,-1.048985958E0
7.988703125E0,5.485211611E-1,9.823418617E0,-1.039715528E0
7.992673438E0,5.224243999E-1,9.866629601E0,-1.007154465E0
7.996645313E0,5.330546498E-1,9.918536186E0,-1.004405975E0
8.000615625E0,5.027632117E-1,9.974244118E0,-1.010468006E0
8.004585938E0,4.810621738E-1,1.002916718E1,-1.021730304E0
8.008556250E0,4.643793702E-1,1.005871201E1,-1.036258459E0
8.012557813E0,4.536150098E-1,1.008631229E1,-1.071941495E0
8.016496875E0,4.417110682E-1,1.008078575E1,-1.088030696E0
8.020468750E0,4.369035065E-1,1.006620979E1,-1.132696748E0
8.024439063E0,4.389433563E-1,1.005168247E1,-1.197541356E0
8.028407813E0,4.570818543E-1,1.004060173E1,-1.230571747E0
8.032379688E0,5.050999522E-1,1.004562950E1,-1.289765954E0
8.036350000E0,5.009340048E-1,1.004189491E1,-1.353154898E0
8.040320313E0,5.088157058E-1,1.003569794E1,-1.370910287E0
8.044290625E0,4.746840298E-1,9.984663963E0,-1.403548121E0
8.048260938E0,4.537395239E-1,9.931942940E0,-1.398472428E0
8.052231250E0,4.537778199E-1,9.886683464E0,-1.422050357E0
8.056203125E0,4.688038230E-1,9.845426559E0,-1.425632238E0
8.060173438E0,4.596292675E-1,9.814475060E0,-1.419052958E0
8.064142188E0,4.745786786E-1,9.792169571E0,-1.396173954E0
8.068114063E0,4.639675617E-1,9.766532898E0,-1.394124508E0
8.072084375E0,4.692635238E-1,9.779902458E0,-1.400282383E0
8.076054688E0,4.587481916E-1,9.782181740E0,-1.411860704E0
8.080026563E0,4.398148358E-1,9.804236412E0,-1.397236943E0
8.083995313E0,4.385986030E-1,9.828198433E0,-1.351766229E0
8.087967188E0,4.195503294E-1,9.858566284E0,-1.302311659E0
8.091937500E0,3.948038518E-1,9.897122383E0,-1.258832932E0
8.095907813E0,3.801992238E-1,9.910701752E0,-1.217461228E0
8.099878125E0,3.740604818E-1,9.925047874E0,-1.176797986E0
8.103848438E0,3.743669391E-1,9.930861473E0,-1.126347423E0
8.107818750E0,3.858303726E-1,9.920805931E0,-1.113351703E0
8.111789063E0,4.002626240E-1,9.919139862E0,-1.082399368E0
8.115760938E0,4.026855826E-1,9.941692352E0,-1.030234575E0
8.119731250E0,4.024174213E-1,9.936243057E0,-1.033117175E0
8.123701563E0,4.161792994E-1,9.956393242E0,-1.036852121E0
8.127671875E0,4.254975319E-1,9.963039398E0,-1.048669934E0
8.131642188E0,4.713225365E-1,9.975853920E0,-1.058294535E0
8.135612500E0,4.644176662E-1,9.991022110E0,-1.100068569E0
8.139584375E0,4.746169746E-1,1.000568485E1,-1.158362627E0
8.143553125E0,4.768100679E-1,1.000392246E1,-1.184296608E0
8.147525000E0,4.799608290E-1,9.998761177E0,-1.227899909E0
8.151495313E0,4.750287831E-1,9.978850365E0,-1.272910833E0
8.155465625E0,4.804205000E-1,9.979836464E0,-1.298538327E0
8.159435938E0,4.734102786E-1,9.965597153E0,-1.309513450E0
8.163406250E0,4.692539573E-1,9.939585686E0,-1.341758490E0
8.167376563E0,4.718684256E-1,9.930880547E0,-1.358335972E0
8.171348438E0,4.590163529E-1,9.926388741E0,-1.363392591E0
8.175318750E0,4.159590006E-1,9.916476250E0,-1.378667474E0
8.179289063E0,4.074643850E-1,9.896614075E0,-1.374673963E0
8.183259375E0,3.737253249E-1,9.916677475E0,-1.381435156E0
8.187229688E0,3.641963899E-1,9.930373192E0,-1.367635012E0
8.191200000E0,3.871136904E-1,9.935094833E0,-1.355577826E0
8.195171875E0,3.667150736E-1,9.948338509E0,-1.316935420E0
