"Time (s)","Gyroscope x (rad/s)","Gyroscope y (rad/s)","Gyroscope z (rad/s)"
3.791828100E-2,-5.433709621E-1,-1.118856192E0,2.914860547E-1
4.294296900E-2,-5.486972332E-1,-1.086898327E0,3.298355341E-1
4.796765600E-2,-6.158088446E-1,-1.058136106E0,3.138566017E-1
5.299239600E-2,-7.159436345E-1,-9.974162579E-1,2.989428937E-1
5.801708300E-2,-8.288615346E-1,-9.047383070E-1,2.659197450E-1
6.328505200E-2,-9.577584863E-1,-7.598624825E-1,2.094607651E-1
6.830974000E-2,-1.097308040E0,-5.681149960E-1,1.412838995E-1
7.333442700E-2,-1.225139618E0,-4.136517942E-1,8.695546538E-2
7.835911500E-2,-1.334861755E0,-3.497360051E-1,4.967124388E-2
8.338380200E-2,-1.421148181E0,-3.571928442E-1,1.664807089E-2
8.840854200E-2,-1.473345995E0,-4.253696799E-1,-3.591935150E-3
9.363317700E-2,-1.477607131E0,-5.627887249E-1,-3.591935150E-3
9.865791700E-2,-1.429670215E0,-7.534708977E-1,2.517017908E-2
1.036826040E-1,-1.373211265E0,-1.003807783E0,9.441231191E-2
1.087073440E-1,-1.292251348E0,-1.196620345E0,1.700460166E-1
1.137320310E-1,-1.179333329E0,-1.330843687E0,2.435492128E-1
1.187567190E-1,-1.056828022E0,-1.418195248E0,3.138566017E-1
1.240766150E-1,-9.343226552E-1,-1.441630960E0,3.767071366E-1
1.291013020E-1,-8.214046955E-1,-1.427782655E0,4.193176627E-1
1.341259900E-1,-7.138130665E-1,-1.414999366E0,4.534060955E-1
1.391506770E-1,-6.104825735E-1,-1.408607960E0,4.779071808E-1
1.441753650E-1,-4.933035374E-1,-1.417129993E0,4.832334816E-1
1.492000520E-1,-3.676024377E-1,-1.442696333E0,4.661892653E-1
1.544118750E-1,-2.344445437E-1,-1.465066791E0,4.182524085E-1
1.594365630E-1,-1.023518592E-1,-1.461871147E0,3.372924030E-1
1.644612500E-1,2.547977120E-2,-1.426717281E0,2.275702506E-1
1.694859380E-1,1.437240094E-1,-1.363866806E0,1.029344201E-1
1.745106250E-1,2.577072382E-1,-1.286102533E0,-2.276667953E-2
1.795353130E-1,3.642335832E-1,-1.204077244E0,-1.388803869E-1
1.848313020E-1,4.633030891E-1,-1.108203530E0,-2.390151620E-1
1.898559900E-1,5.527851582E-1,-9.729151726E-1,-3.221057355E-1
1.948806770E-1,6.305494905E-1,-7.641234994E-1,-3.860215545E-1
1.999054170E-1,6.891389489E-1,-4.946118295E-1,-4.233057499E-1
2.049301040E-1,7.274884582E-1,-1.942075342E-1,-4.190447032E-1
2.099547920E-1,7.509242296E-1,1.072620451E-1,-3.721731305E-1
2.151872400E-1,7.509242296E-1,3.799695075E-1,-2.794951797E-1
2.202119270E-1,7.338799834E-1,5.759779811E-1,-1.537940800E-1
2.252366150E-1,7.029873133E-1,6.196537614E-1,-3.591935150E-3
2.302613540E-1,6.529199481E-1,5.205842853E-1,1.466102302E-1
2.352860420E-1,5.868736506E-1,2.862263322E-1,2.797681689E-1
2.403106770E-1,5.016525388E-1,-7.063695788E-2,3.724460900E-1
2.455892190E-1,4.164315164E-1,-5.127213597E-1,4.203829467E-1
2.506139060E-1,3.621030450E-1,-1.001677155E0,4.374271631E-1
2.556385940E-1,3.301451802E-1,-1.514068961E0,4.342313409E-1
2.606633330E-1,3.099051416E-1,-2.022199631E0,4.193176627E-1
2.656879690E-1,2.875346243E-1,-2.497307301E0,4.065345228E-1
2.707126560E-1,2.523809075E-1,-2.936195850E0,3.948166072E-1
2.759757290E-1,1.916608661E-1,-3.291993856E0,3.873597682E-1
2.810004690E-1,1.266798079E-1,-3.452848673E0,3.777723908E-1
2.860251560E-1,5.530714989E-2,-3.486937046E0,3.724460900E-1
2.910498440E-1,-4.269709066E-2,-3.468827724E0,3.788376451E-1
2.960745310E-1,-1.705287248E-1,-3.387867689E0,3.958818614E-1
3.010992190E-1,-3.377750516E-1,-3.290928841E0,4.289050400E-1
3.063818230E-1,-5.295224786E-1,-3.196120262E0,4.757766426E-1
3.114065110E-1,-7.415099740E-1,-3.135400057E0,5.354313850E-1
3.164311980E-1,-9.300616384E-1,-3.053374767E0,5.908250809E-1
3.214558860E-1,-1.078133225E0,-2.921282291E0,6.345009208E-1
3.264805730E-1,-1.182529092E0,-2.664553642E0,6.451535821E-1
3.315052610E-1,-1.245379567E0,-2.325799942E0,6.174566746E-1
3.367642710E-1,-1.275207043E0,-2.005155563E0,5.673893094E-1
3.417889580E-1,-1.282663941E0,-1.733513236E0,5.258439779E-1
3.468135940E-1,-1.248575449E0,-1.630182624E0,5.162566304E-1
3.518383330E-1,-1.162289143E0,-1.770797491E0,5.737808943E-1
3.568630210E-1,-1.094112277E0,-1.902890205E0,6.302398443E-1
3.618877080E-1,-1.064284921E0,-1.988111258E0,6.430230141E-1
3.671398440E-1,-1.081329107E0,-1.998763800E0,6.462188363E-1
3.721645310E-1,-1.135657549E0,-1.909281731E0,6.696546078E-1
3.771892190E-1,-1.195312262E0,-1.776123762E0,7.165262103E-1
3.822139060E-1,-1.242183805E0,-1.630182624E0,7.868335843E-1
3.872385940E-1,-1.264554381E0,-1.504481554E0,8.827072978E-1
3.922632810E-1,-1.276272297E0,-1.409673095E0,9.998863339E-1
3.975355210E-1,-1.295446992E0,-1.390498400E0,1.146892667E0
4.025601560E-1,-1.318882823E0,-1.477849960E0,1.313073754E0
4.075848440E-1,-1.354036570E0,-1.647226930E0,1.471797943E0
4.126095310E-1,-1.398777604E0,-1.856018543E0,1.609217048E0
4.176342190E-1,-1.443518639E0,-2.062679768E0,1.725330710E0
4.226589060E-1,-1.481868148E0,-2.254427195E0,1.827596068E0
4.279180730E-1,-1.508499742E0,-2.433391333E0,1.919208765E0
4.329427610E-1,-1.525543928E0,-2.598507404E0,2.012952089E0
4.379674480E-1,-1.522348166E0,-2.756166220E0,2.115217447E0
4.429921880E-1,-1.515956640E0,-2.934065342E0,2.235592127E0
4.480168750E-1,-1.503173470E0,-3.118355989E0,2.383663654E0
4.530415110E-1,-1.490390182E0,-3.293059111E0,2.551975250E0
4.582994270E-1,-1.481868148E0,-3.443261147E0,2.750114441E0
4.633241150E-1,-1.495716691E0,-3.511438370E0,2.967428207E0
4.683488020E-1,-1.564958692E0,-3.399585485E0,3.174089193E0
4.733734900E-1,-1.722617745E0,-3.077876091E0,3.340270281E0
4.783981770E-1,-1.963367224E0,-2.693315744E0,3.475558758E0
4.834228650E-1,-2.150853395E0,-2.489850283E0,3.616173744E0
4.886753650E-1,-2.242466211E0,-2.455761909E0,3.812181950E0
4.937000520E-1,-2.296794653E0,-2.484524250E0,4.059322834E0
4.987247920E-1,-2.348992586E0,-2.523938894E0,4.291550159E0
5.037494790E-1,-2.408647299E0,-2.545244217E0,4.476906300E0
5.087741150E-1,-2.446996689E0,-2.569745064E0,4.612194538E0
5.137988020E-1,-2.453388453E0,-2.584658861E0,4.711264133E0
5.190575000E-1,-2.435278893E0,-2.559092522E0,4.795420170E0
5.240821880E-1,-2.388407230E0,-2.489850283E0,4.861466408E0
5.291068750E-1,-2.312773705E0,-2.387585163E0,4.913664341E0
5.341315630E-1,-2.196659803E0,-2.221404076E0,4.933904171E0
5.391562500E-1,-2.065632582E0,-2.013677597E0,4.922186375E0
5.441809380E-1,-1.933539867E0,-1.775058508E0,4.883836746E0
5.494480210E-1,-1.803577781E0,-1.449087977E0,4.794354916E0
5.544726560E-1,-1.700247169E0,-1.097550988E0,4.678241253E0
5.594973960E-1,-1.611830354E0,-7.950161695E-1,4.568519115E0
5.645220310E-1,-1.546849251E0,-5.670498013E-1,4.477971554E0
5.695467190E-1,-1.489325047E0,-3.891507387E-1,4.422577858E0
5.745714580E-1,-1.427539825E0,-2.346875519E-1,4.407663822E0
5.798304170E-1,-1.367884994E0,-7.915906608E-2,4.418316841E0
5.848551040E-1,-1.297577620E0,7.743466645E-2,4.425773621E0
5.898797920E-1,-1.211291194E0,2.372241765E-1,4.418316841E0
5.949044790E-1,-1.105830193E0,3.863610923E-1,4.386358738E0
5.999292190E-1,-9.822595119E-1,5.078011155E-1,4.330965042E0
6.049538540E-1,-8.448405266E-1,5.781084895E-1,4.267049313E0
6.102130730E-1,-7.074215412E-1,5.983484983E-1,4.194611073E0
6.152377610E-1,-5.763941407E-1,6.090011001E-1,4.110455513E0
6.202624480E-1,-4.666719437E-1,6.143274903E-1,4.014581680E0
6.252871360E-1,-3.814508617E-1,6.058053374E-1,3.903794765E0
6.303118230E-1,-3.196655810E-1,6.004790068E-1,3.773832560E0
6.353365110E-1,-2.813161016E-1,5.940874219E-1,3.639609575E0
6.405889580E-1,-2.536192536E-1,5.759779811E-1,3.508581877E0
6.456136460E-1,-2.280529588E-1,5.525421500E-1,3.381815434E0
6.506383860E-1,-1.918339878E-1,5.514768958E-1,3.258244991E0
6.556630210E-1,-1.364402771E-1,5.930221677E-1,3.141066074E0
6.606877080E-1,-5.654551834E-2,6.846348643E-1,3.043061972E0
6.657123960E-1,4.145872593E-2,8.167275190E-1,2.962101698E0
6.709710940E-1,1.447892785E-1,9.552117586E-1,2.909904003E0
6.759958330E-1,2.417282462E-1,1.093696117E0,2.896055460E0
6.810204690E-1,3.376020193E-1,1.254550815E0,2.876880646E0
6.860451560E-1,4.377367795E-1,1.407948852E0,2.843857527E0
6.910698440E-1,5.304147005E-1,1.529388905E0,2.812964916E0
6.960945310E-1,6.007220745E-1,1.621001601E0,2.792725086E0
7.013610940E-1,6.401367784E-1,1.728593111E0,2.740526915E0
7.063857290E-1,6.667683721E-1,1.874534249E0,2.636131287E0
7.114104170E-1,6.806168556E-1,2.011953115E0,2.490190029E0
7.164351040E-1,6.774210334E-1,2.117414236E0,2.335726976E0
7.214597920E-1,6.603767872E-1,2.195178509E0,2.179133177E0
7.264844790E-1,6.273536682E-1,2.230332136E0,2.009756327E0
7.317361460E-1,5.932652354E-1,2.213287830E0,1.826530814E0
7.367608860E-1,5.762209892E-1,2.177068949E0,1.636913776E0
7.417855210E-1,5.868736506E-1,2.167481661E0,1.459014893E0
7.468102080E-1,5.964609981E-1,2.218614340E0,1.320530653E0
7.518349480E-1,6.167010069E-1,2.277203798E0,1.198025227E0
7.568595830E-1,6.390715837E-1,2.324075460E0,1.101086259E0
7.621189060E-1,6.571810842E-1,2.361359596E0,9.594062567E-1
7.671435940E-1,6.795515418E-1,2.338989019E0,7.729851604E-1
7.721682810E-1,7.029873133E-1,2.288921595E0,6.004124880E-1
7.771929690E-1,7.104441524E-1,2.256963730E0,4.427534938E-1
7.822176560E-1,7.019220591E-1,2.249506712E0,3.042692244E-1
7.872423440E-1,6.806168556E-1,2.258028984E0,1.860249788E-1
7.925088540E-1,6.433326006E-1,2.272942543E0,7.843335718E-2
7.975335420E-1,5.921999812E-1,2.276138306E0,-2.383194305E-2
8.025582810E-1,5.357409716E-1,2.235658407E0,-1.292930096E-1
8.075829170E-1,4.963262379E-1,2.095043659E0,-1.814909428E-1
8.126076040E-1,4.750210047E-1,1.892643809E0,-1.655119807E-1
8.176322920E-1,4.920652211E-1,1.814879537E0,-2.411456853E-1
8.228925520E-1,5.836778283E-1,1.790378332E0,-4.083921015E-1
8.279172400E-1,7.317494750E-1,1.771203756E0,-6.150532365E-1
8.329419270E-1,8.531895280E-1,1.703026772E0,-7.801690698E-1
8.379666150E-1,9.298884869E-1,1.514475226E0,-8.227795959E-1
8.429913020E-1,9.852821827E-1,1.156546593E0,-7.205142975E-1
8.480159900E-1,1.059850574E0,4.875611365E-1,-4.946784079E-1
8.532482290E-1,1.196204305E0,-4.669149816E-1,-2.507330775E-1
8.582729170E-1,1.326166391E0,-8.589319587E-1,-2.262319922E-1
8.632976040E-1,1.396473765E0,-8.781067133E-1,-5.000047088E-1
8.683222920E-1,1.291012764E0,-4.232391715E-1,-7.961480021E-1
8.733469790E-1,8.329494596E-1,4.630600512E-1,-9.857649207E-1
8.783716670E-1,1.756819189E-1,1.236441374E0,-9.793732762E-1
8.836566670E-1,-5.050214529E-1,1.877730012E0,-8.941522241E-1
8.886813540E-1,-1.024870038E0,2.337923765E0,-8.760427833E-1
8.937060420E-1,-1.272011161E0,2.500909090E0,-9.175879955E-1
8.987307290E-1,-1.317817569E0,2.396513224E0,-9.516764283E-1
9.037554170E-1,-1.252836466E0,2.154698372E0,-9.261101484E-1
9.087801560E-1,-1.129265904E0,1.894774318E0,-8.739122152E-1
9.140176040E-1,-1.019543767E0,1.631654143E0,-8.621943593E-1
9.190422920E-1,-9.833248258E-1,1.386643529E0,-8.057353497E-1
9.240669270E-1,-9.694763422E-1,1.302487731E0,-7.226448059E-1
9.290916150E-1,-9.417794943E-1,1.272660375E0,-6.470111012E-1
9.341163020E-1,-8.895815611E-1,1.182113051E0,-5.862910748E-1
9.391409900E-1,-8.096867800E-1,1.063868761E0,-5.255710483E-1
9.444222920E-1,-7.138130665E-1,9.424286485E-1,-4.627205133E-1
9.494469790E-1,-6.200699210E-1,8.082054257E-1,-4.073268175E-1
9.544716670E-1,-5.305877924E-1,6.867653728E-1,-3.657815158E-1
9.594963540E-1,-4.389750957E-1,5.983484983E-1,-3.253014982E-1
9.645210420E-1,-3.473624289E-1,4.374937415E-1,-2.326235771E-1
9.695457810E-1,-2.919687331E-1,2.105926126E-1,-1.250319630E-1
9.747779170E-1,-2.951645255E-1,-5.785379559E-2,-1.165098622E-1
9.798026040E-1,-3.068824112E-1,-3.156475425E-1,-1.804256737E-1
9.848273440E-1,-2.983603179E-1,-5.159171224E-1,-2.283625305E-1
9.898519790E-1,-3.036866188E-1,-7.023382187E-1,-2.560593784E-1
9.948766670E-1,-3.271224499E-1,-9.153909683E-1,-2.837562561E-1
9.999014060E-1,-3.558845222E-1,-1.144422531E0,-3.135836124E-1
1.005177136E0,-3.771898150E-1,-1.314864635E0,-3.370194137E-1
1.010233229E0,-4.166045487E-1,-1.378780603E0,-3.519330919E-1
1.015289271E0,-4.741287827E-1,-1.359605789E0,-3.657815158E-1
1.020345365E0,-5.529583693E-1,-1.337235212E0,-3.849562705E-1
1.025401458E0,-6.477667689E-1,-1.343626857E0,-4.083921015E-1
1.030457500E0,-7.138130665E-1,-1.375584722E0,-4.573941827E-1
1.035585313E0,-7.755984068E-1,-1.440565825E0,-5.106573701E-1
1.040641406E0,-8.512321115E-1,-1.526852131E0,-5.649858117E-1
1.045697500E0,-9.023647904E-1,-1.568397403E0,-6.139879227E-1
1.050753542E0,-9.343226552E-1,-1.564136386E0,-6.448805332E-1
1.055809636E0,-9.375184774E-1,-1.462936282E0,-6.470111012E-1
1.060865677E0,-8.949079514E-1,-1.255210042E0,-6.150532365E-1
1.065967500E0,-8.693416119E-1,-1.019786716E0,-5.660510659E-1
1.071023594E0,-9.076910615E-1,-7.886245847E-1,-5.095921159E-1
1.076079688E0,-9.886510968E-1,-5.223087072E-1,-4.680468440E-1
1.081135729E0,-1.071741700E0,-2.080559582E-1,-4.382194579E-1
1.086191823E0,-1.127135515E0,1.211104617E-1,-3.977394402E-1
1.091247865E0,-1.171876431E0,4.513421655E-1,-3.455415368E-1
1.096351511E0,-1.233661771E0,7.517464161E-1,-2.912130952E-1
1.101407604E0,-1.322078586E0,1.001018167E0,-2.432762086E-1
1.106463698E0,-1.415821910E0,1.200222492E0,-2.145140916E-1
1.111519740E0,-1.494651318E0,1.346163511E0,-1.921435744E-1
1.116575833E0,-1.574546099E0,1.437776208E0,-1.697730422E-1
1.121631875E0,-1.650179744E0,1.487843633E0,-1.303582937E-1
1.126733646E0,-1.730074525E0,1.526193142E0,-8.455196023E-2
1.131789740E0,-1.824882984E0,1.568803668E0,-4.194141924E-2
1.136845833E0,-1.906908274E0,1.595435143E0,-2.383194305E-2
1.141901875E0,-1.949518919E0,1.544302583E0,-3.128878772E-2
1.146957969E0,-1.944192529E0,1.437776208E0,-3.768036515E-2
1.152014011E0,-1.911169410E0,1.314205647E0,-4.513721168E-2
1.157109688E0,-1.862167239E0,1.208744645E0,-4.087615758E-2
1.162165781E0,-1.831274629E0,1.108609796E0,-1.104878075E-2
1.167221823E0,-1.807838798E0,1.015931845E0,-6.787725724E-3
1.172277917E0,-1.798251390E0,8.955570459E-1,-1.424457133E-2
1.177333958E0,-1.821687222E0,7.592032552E-1,-9.983517230E-3
1.182390052E0,-1.866428375E0,6.217842698E-1,-1.957088895E-2
1.187499063E0,-1.932474613E0,4.960832298E-1,-8.774774522E-2
1.192555156E0,-2.010238647E0,4.225800335E-1,-1.985351592E-1
1.197611250E0,-2.035804987E0,4.875611365E-1,-2.219709456E-1
1.202667292E0,-2.021956682E0,6.356326938E-1,-1.687077731E-1
1.207723386E0,-2.004912376E0,8.177927732E-1,-1.111835465E-1
1.212779427E0,-2.005977631E0,1.029780269E0,-1.637509838E-2
1.217881250E0,-2.030478716E0,1.255616188E0,6.458493322E-2
1.222937344E0,-2.024087191E0,1.504887819E0,1.008038893E-1
1.227993438E0,-2.014499903E0,1.761616349E0,1.870902479E-1
1.233049479E0,-2.034739733E0,1.978929996E0,3.095955253E-1
1.238105573E0,-2.061371326E0,2.155763626E0,4.374271631E-1
1.243161615E0,-2.067762852E0,2.356033087E0,4.193176627E-1
1.248264167E0,-2.090133429E0,2.500909090E0,3.426187038E-1
1.253320261E0,-2.142331600E0,2.566955328E0,1.796333939E-1
1.258376354E0,-2.211573362E0,2.548846006E0,-4.513721168E-2
1.263432448E0,-2.285076618E0,2.494517565E0,1.508712769E-1
1.268488490E0,-2.207312584E0,2.071607828E0,5.141261220E-1
1.273544531E0,-1.952714562E0,1.396230936E0,3.756418824E-1
1.278646615E0,-1.638461828E0,7.197885513E-1,9.228178114E-2
1.283702708E0,-1.310360670E0,-8.128959686E-2,9.654283524E-2
1.288758802E0,-9.385837317E-1,-9.441530704E-1,2.414186895E-1
1.293814844E0,-5.465667248E-1,-1.666401625E0,3.500755429E-1
1.298870938E0,-2.514887154E-1,-2.143639803E0,3.841639757E-1
1.303926979E0,-1.801160872E-1,-2.200098991E0,4.012081921E-1
1.309029844E0,-2.962297797E-1,-1.916738510E0,4.736461043E-1
1.314085938E0,-5.050214529E-1,-1.615268946E0,5.908250809E-1
1.319142031E0,-7.138130665E-1,-1.240296245E0,6.813725233E-1
1.324198073E0,-8.757331967E-1,-7.215129733E-1,6.099998355E-1
1.329254167E0,-9.790636897E-1,-2.474707067E-1,4.374271631E-1
1.334310208E0,-1.009956479E0,1.030009910E-1,2.744418383E-1
1.339411458E0,-9.268658161E-1,3.224452734E-1,1.061302051E-1
1.344467552E0,-7.084867954E-1,4.460158348E-1,-1.957088895E-2
1.349523646E0,-4.506930113E-1,5.354979634E-1,-5.365931988E-2
1.354579740E0,-2.003560960E-1,4.342979491E-1,-2.276667953E-2
1.359635781E0,3.932819515E-2,2.830305398E-1,-6.787725724E-3
1.364691823E0,2.736861706E-1,1.466767937E-1,1.345228031E-2
1.369794167E0,4.973915517E-1,1.564938761E-2,-2.170141600E-2
1.374850261E0,6.710294485E-1,-3.015694581E-2,-1.037267074E-1
1.379906354E0,7.434673905E-1,-8.342012018E-2,-1.367498636E-1
1.384962396E0,6.976610422E-1,-3.454749584E-1,-2.603204250E-1
1.390018490E0,7.370757461E-1,-5.287002921E-1,-6.075963974E-1
1.395074583E0,7.743600011E-1,-5.361571312E-1,-9.026743174E-1
1.400181563E0,8.808863759E-1,-5.116560459E-1,-1.002809167E0
1.405237604E0,8.872779012E-1,-3.188433647E-1,-1.004939675E0
1.410293646E0,7.221620679E-1,9.554415196E-2,-8.004090786E-1
1.415349792E0,4.430631101E-1,4.598642886E-1,-5.756384134E-1
1.420405833E0,1.607682258E-1,6.345674992E-1,-4.936131537E-1
1.425461927E0,-7.678553462E-2,7.506811619E-1,-5.394194722E-1
1.430565417E0,-2.376403213E-1,8.284453750E-1,-6.257058382E-1
1.435621511E0,-3.399055898E-1,8.401632905E-1,-6.725774407E-1
1.440677552E0,-4.219308794E-1,7.986180782E-1,-7.822995782E-1
1.445733646E0,-4.890424907E-1,7.176579833E-1,-8.643248081E-1
1.450789740E0,-6.094172597E-1,6.462853551E-1,-7.428848147E-1
1.455845781E0,-6.797246933E-1,7.570728064E-1,-9.729817510E-1
1.460925781E0,-6.829204559E-1,7.080706358E-1,-1.209470272E0
1.465981875E0,-7.447057366E-1,5.876958966E-1,-1.143423915E0
1.471037917E0,-7.809247375E-1,5.046052933E-1,-1.177512288E0
1.476094011E0,-7.862510085E-1,3.544031978E-1,-1.277647138E0
1.481150052E0,-8.437752128E-1,1.615904868E-1,-1.253146052E0
1.486206146E0,-8.959732056E-1,-2.696115337E-2,-1.266994476E0
1.491294063E0,-9.183437228E-1,-1.175085530E-1,-1.268059731E0
1.496350156E0,-9.108868837E-1,-1.843904518E-2,-1.228644967E0
1.501406250E0,-1.033392191E0,-1.950431056E-2,-1.000678539E0
1.506462292E0,-1.122874379E0,-2.219043821E-1,-7.205142975E-1
1.511518386E0,-1.064284921E0,-4.381528497E-1,-6.044005752E-1
1.516574479E0,-8.842552900E-1,-6.299002767E-1,-6.289016008E-1
1.521678958E0,-6.616151929E-1,-8.301699162E-1,-6.406195164E-1
1.526735052E0,-5.178046227E-1,-9.654583335E-1,-5.756384134E-1
1.531791094E0,-4.134087563E-1,-1.174249887E0,-5.010700226E-1
1.536847136E0,-3.654718995E-1,-1.340431094E0,-4.201099873E-1
1.541903229E0,-3.867771924E-1,-1.412868977E0,-3.103878498E-1
1.546959323E0,-4.624108970E-1,-1.335104823E0,-1.676425040E-1
1.552065261E0,-5.401751399E-1,-1.034700394E0,2.799645998E-3
1.557121354E0,-5.934383273E-1,-6.512055993E-1,2.190481424E-1
1.562177448E0,-6.168740988E-1,-4.157823324E-1,3.852292597E-1
1.567233490E0,-6.360488534E-1,-3.635843992E-1,4.438187182E-1
1.572289583E0,-6.562888622E-1,-4.115212858E-1,5.066692829E-1
1.577345677E0,-6.743983626E-1,-5.777024031E-1,5.993472338E-1
1.582476146E0,-6.861162186E-1,-8.312351108E-1,6.419577599E-1
1.587532240E0,-6.797246933E-1,-9.601320028E-1,6.536756754E-1
1.592588333E0,-6.669415236E-1,-9.430878162E-1,6.494145989E-1
1.597644375E0,-6.275267601E-1,-8.610625267E-1,6.259788275E-1
1.602700469E0,-5.582846403E-1,-7.087298036E-1,5.865640044E-1
1.607756511E0,-4.581498504E-1,-5.350918770E-1,5.290398002E-1
1.612835573E0,-3.303182125E-1,-3.987380862E-1,4.640587568E-1
1.617891615E0,-1.907687336E-1,-3.039296567E-1,3.948166072E-1
1.622947708E0,-4.908867180E-2,-2.155127972E-1,3.266397417E-1
1.628003802E0,7.661241293E-2,-1.388138235E-1,2.637891769E-1
1.633059844E0,1.756819189E-1,-8.874643594E-2,1.977428794E-1
1.638115886E0,2.353366762E-1,-1.417799201E-2,1.061302051E-1
1.643243438E0,2.534461915E-1,1.351885963E-2,1.984386146E-2
1.648299531E0,2.353366762E-1,-1.394829364E-3,1.771333441E-2
1.653355625E0,1.756819189E-1,-4.080957547E-2,3.688807786E-2
1.658411667E0,6.489451230E-2,-9.620328248E-2,1.238701679E-2
1.663467761E0,-1.055476516E-1,-1.590538323E-1,-5.259405449E-2
1.668523854E0,-3.079476953E-1,-2.474707067E-1,-1.442067176E-1
1.673600417E0,-5.188699365E-1,-4.168475866E-1,-3.178446591E-1
1.678656511E0,-7.574889064E-1,-7.662540674E-1,-5.362237096E-1
1.683712604E0,-1.029131174E0,-1.147618294E0,-5.788342357E-1
1.688768646E0,-1.290120721E0,-1.454414248E0,-4.105226099E-1
1.693824740E0,-1.492520809E0,-1.596094251E0,-1.101182848E-1
1.698880781E0,-1.601177692E0,-1.541765809E0,2.371576279E-1
1.704005208E0,-1.617156625E0,-1.342561603E0,5.546061397E-1
1.709061302E0,-1.576676607E0,-1.057070971E0,7.910946608E-1
1.714117396E0,-1.540457606E0,-7.801024914E-1,9.530147314E-1
1.719173438E0,-1.526609182E0,-5.159171224E-1,1.061671495E0
1.724229531E0,-1.522348166E0,-2.314917594E-1,1.151153684E0
1.729285625E0,-1.494651318E0,-4.933168367E-2,1.209743142E0
1.734364271E0,-1.472280741E0,-4.187484086E-2,1.263006330E0
1.739420365E0,-1.414756536E0,-5.252747610E-2,1.304551601E0
1.744476458E0,-1.311426044E0,-8.342012018E-2,1.318400025E0
1.749532500E0,-1.250706077E0,-2.005991191E-1,1.307747483E0
1.754588594E0,-1.247510195E0,-3.603886068E-1,1.286442161E0
1.759644636E0,-1.397712350E0,-5.425487161E-1,1.284311652E0
1.764770625E0,-1.586264014E0,-6.437487602E-1,1.212939024E0
1.769826719E0,-1.633135557E0,-5.798329115E-1,1.172459006E0
1.774882813E0,-1.396647096E0,-4.296307564E-1,1.144762039E0
1.779938854E0,-9.950426817E-1,-3.731717765E-1,1.062736869E0
1.784994948E0,-6.094172597E-1,-3.092559874E-1,9.689936638E-1
1.790051042E0,-8.608660661E-3,-2.890159488E-1,8.283788562E-1
1.795156458E0,6.593115330E-1,-2.634496391E-1,6.675240397E-1
1.800212552E0,1.328297019E0,-2.133822739E-1,5.982819200E-1
1.805268646E0,1.973846674E0,-5.039694905E-2,6.046735048E-1
1.810324688E0,2.573590040E0,2.361589223E-1,6.078693271E-1
1.815380781E0,3.088112354E0,5.216494799E-1,5.929556489E-1
1.820436823E0,3.423670530E0,7.442895770E-1,6.355661750E-1
1.825535833E0,3.612221956E0,8.604033589E-1,7.559409142E-1
1.830591927E0,3.720878839E0,1.076651812E0,9.349052310E-1
1.835648021E0,3.746445417E0,1.367468834E0,1.178850532E0
1.840704115E0,3.632462263E0,1.536845684E0,1.368467450E0
1.845760156E0,3.375733614E0,1.695569992E0,1.500560164E0
1.850816198E0,3.000760794E0,1.883056402E0,1.658219099E0
1.855918490E0,2.587438583E0,1.986386895E0,1.854227662E0
1.860974583E0,2.206074238E0,1.905426860E0,2.033191919E0
1.866030677E0,1.875842452E0,1.712614179E0,2.171676159E0
1.871086719E0,1.636158109E0,1.550694227E0,2.268615246E0
1.876142813E0,1.443345428E0,1.446298361E0,2.346379519E0
1.881198854E0,1.224966407E0,1.407948852E0,2.406034231E0
1.886305417E0,9.618464112E-1,1.354685664E0,2.465689182E0
1.891361511E0,6.870083809E-1,1.210875034E0,2.430535316E0
1.896417604E0,2.971220016E-1,9.605380893E-1,2.087520361E0
1.901473646E0,-1.918339878E-1,5.248453021E-1,1.429187536E0
1.906529740E0,-5.795899034E-1,6.039045379E-2,6.046735048E-1
1.911585781E0,-7.372489572E-1,-1.579885781E-1,-2.198404223E-1
1.916688906E0,-6.243309379E-1,-1.931422800E-1,-6.874910593E-1
1.921745000E0,-3.420360982E-1,-1.239001304E-1,-8.142574430E-1
1.926801094E0,-4.376235604E-2,-2.270009927E-2,-8.078659177E-1
1.931857136E0,1.266798079E-1,6.062015425E-3,-6.970784664E-1
1.936913229E0,1.490503401E-1,-2.376536466E-2,-5.191795230E-1
1.941969271E0,1.107008457E-1,-2.270009927E-2,-3.466067910E-1
1.947068490E0,7.874293625E-2,3.375886753E-2,-2.177098989E-1
1.952124583E0,5.211136118E-2,7.636940479E-2,-1.260972321E-1
1.957180677E0,1.482713688E-2,7.210835069E-2,-4.726773873E-2
1.962236771E0,-2.565287612E-2,6.571677327E-2,-6.111616641E-2
1.967292813E0,-3.737077489E-2,5.080308393E-2,-1.101182848E-1
1.972348854E0,-2.884866670E-2,5.186834559E-2,-9.520459920E-2
1.977453750E0,-2.032655850E-2,7.210835069E-2,-5.578984693E-2
1.982509844E0,-9.673924185E-3,7.956518978E-2,-3.128878772E-2
1.987565938E0,8.435555734E-3,7.423887402E-2,-1.530983485E-2
1.992621979E0,2.761030197E-2,6.145572290E-2,-3.591935150E-3
1.997678073E0,3.719767183E-2,4.973781854E-2,3.864909522E-3
2.002734115E0,3.400187939E-2,3.908518702E-2,4.930173047E-3
2.007822708E0,3.187135234E-2,2.949781157E-2,2.799645998E-3
2.012885000E0,3.080609068E-2,3.162834048E-2,-5.722461734E-3
2.017947292E0,3.400187939E-2,3.908518702E-2,-1.637509838E-2
2.023009636E0,4.039346427E-2,5.293361470E-2,-2.809299529E-2
2.028071927E0,4.891556874E-2,6.891255826E-2,-3.874563053E-2
2.033134219E0,5.530714989E-2,8.169572800E-2,-5.046352744E-2
2.038222969E0,5.743768066E-2,9.341362119E-2,-6.218142807E-2
2.043285261E0,5.637241155E-2,1.061967835E-1,-7.389932871E-2
2.048347552E0,4.998083413E-2,1.168494150E-1,-8.135616779E-2
2.053409844E0,3.932819515E-2,1.253715158E-1,-8.455196023E-2
2.058472136E0,3.187135234E-2,1.328283697E-1,-8.561722189E-2
2.063534427E0,2.121871896E-2,1.349588931E-1,-8.561722189E-2
2.068604948E0,4.174501169E-3,1.338936239E-1,-8.242142946E-2
2.073667240E0,-5.412870552E-3,1.306978315E-1,-7.602985203E-2
2.078729531E0,-1.819603145E-2,1.253715158E-1,-7.176879793E-2
2.083791823E0,-3.097919375E-2,1.093925685E-1,-6.218142807E-2
2.088854115E0,-3.097919375E-2,9.447888285E-2,-5.685510859E-2
2.093916406E0,-3.417498618E-2,7.317361236E-2,-5.046352744E-2
2.098984740E0,-3.524024785E-2,5.080308393E-2,-3.661510348E-2
2.104047031E0,-3.204445913E-2,3.482412919E-2,-2.809299529E-2
2.109109323E0,-2.671813965E-2,1.564938761E-2,-2.063615061E-2
2.114171615E0,-1.500024181E-2,7.356976275E-4,-9.983517230E-3
2.119233906E0,-8.655275451E-5,-9.916937910E-3,-2.526671626E-3
2.124296198E0,9.500817396E-3,-1.950431056E-2,1.734382473E-3
2.129349115E0,2.121871896E-2,-2.163483761E-2,5.995436572E-3
2.134411406E0,2.654503658E-2,-1.950431056E-2,1.238701679E-2
2.139473698E0,2.547977120E-2,-1.630851813E-2,1.771333441E-2
2.144535990E0,2.121871896E-2,-1.417799201E-2,1.771333441E-2
2.149598281E0,1.589240134E-2,-1.098220143E-2,1.877859794E-2
2.154660573E0,1.056608278E-2,-1.098220143E-2,1.771333441E-2
2.159748333E0,-8.655275451E-5,-1.311272848E-2,1.877859794E-2
2.164810625E0,-1.286971476E-2,-1.950431056E-2,1.558280736E-2
2.169872917E0,-2.352234907E-2,-2.696115337E-2,1.025648974E-2
2.174935208E0,-3.417498618E-2,-3.548325971E-2,7.060699631E-3
2.179997500E0,-4.056656361E-2,-4.613589495E-2,8.125962690E-3
2.185059792E0,-4.589288309E-2,-5.572326854E-2,5.995436572E-3
2.190132604E0,-4.802341014E-2,-6.424538046E-2,4.930173047E-3
2.195194844E0,-4.908867180E-2,-6.850643456E-2,8.125962690E-3
2.200257188E0,-4.695814475E-2,-7.383275032E-2,1.025648974E-2
2.205319479E0,-4.163182899E-2,-8.022432774E-2,1.345228031E-2
2.210381771E0,-3.310972080E-2,-8.342012018E-2,1.984386146E-2
2.215444063E0,-2.565287612E-2,-8.555065095E-2,2.517017908E-2
2.220474219E0,-2.139182203E-2,-8.555065095E-2,3.049649857E-2
2.225536511E0,-1.500024181E-2,-8.874643594E-2,3.475755453E-2
2.230598854E0,-7.543397602E-3,-9.194222838E-2,3.688807786E-2
2.235661146E0,-8.655275451E-5,-9.194222838E-2,4.114913195E-2
2.240723438E0,6.305028219E-3,-9.300749004E-2,4.541018605E-2
2.245785729E0,1.163134631E-2,-9.194222838E-2,4.860597849E-2
2.250896511E0,1.695766300E-2,-9.300749004E-2,4.754071683E-2
2.255958750E0,2.228398249E-2,-9.726854414E-2,4.541018605E-2
2.261021094E0,2.441450767E-2,-9.513802081E-2,4.327965900E-2
2.266083386E0,2.228398249E-2,-9.407275170E-2,4.114913195E-2
2.271145677E0,2.547977120E-2,-9.726854414E-2,3.795334324E-2
2.276207969E0,2.334924601E-2,-1.025948673E-1,3.262702376E-2
2.281278698E0,1.695766300E-2,-1.047253907E-1,2.730070613E-2
2.286340990E0,1.269660983E-2,-1.068559214E-1,2.410491370E-2
2.291403281E0,6.305028219E-3,-1.057906598E-1,2.090912499E-2
2.296465573E0,-8.655275451E-5,-1.036601290E-1,1.558280736E-2
2.301527865E0,-7.543397602E-3,-1.004643366E-1,1.451754384E-2
2.306590156E0,-1.500024181E-2,-9.726854414E-2,9.191226214E-3
2.311661927E0,-2.032655850E-2,-9.194222838E-2,9.191226214E-3
2.316724219E0,-2.352234907E-2,-8.661591262E-2,5.995436572E-3
2.321786511E0,-2.458761260E-2,-8.235485852E-2,5.995436572E-3
2.326848802E0,-2.778340131E-2,-7.383275032E-2,4.930173047E-3
2.331911094E0,-2.671813965E-2,-6.957169622E-2,3.864909522E-3
2.336973386E0,-2.139182203E-2,-6.424538046E-2,3.864909522E-3
2.342044636E0,-1.500024181E-2,-5.998432264E-2,5.995436572E-3
2.347106927E0,-1.073918771E-2,-5.998432264E-2,5.995436572E-3
2.352169219E0,-6.478134077E-3,-5.572326854E-2,8.125962690E-3
2.357231511E0,-2.217079746E-3,-5.252747610E-2,8.125962690E-3
2.362293802E0,2.043973887E-3,-5.146221071E-2,1.238701679E-2
2.367356094E0,5.239764694E-3,-4.933168367E-2,1.664807089E-2
2.372398906E0,7.370292209E-3,-5.039694905E-2,2.090912499E-2
2.377461198E0,7.370292209E-3,-5.359273776E-2,2.197438851E-2
2.382523490E0,4.174501169E-3,-5.785379559E-2,2.197438851E-2
2.387585781E0,3.109237878E-3,-5.785379559E-2,2.410491370E-2
2.392648073E0,2.043973887E-3,-5.891905725E-2,2.517017908E-2
2.397710365E0,2.043973887E-3,-5.678853020E-2,2.517017908E-2
2.402809792E0,2.043973887E-3,-4.933168367E-2,2.623544261E-2
2.407872083E0,3.109237878E-3,-3.974431381E-2,2.410491370E-2
2.412934375E0,3.109237878E-3,-3.122220747E-2,1.984386146E-2
2.417996667E0,-1.151816221E-3,-2.163483761E-2,1.558280736E-2
2.423058958E0,-3.282343270E-3,-1.098220143E-2,1.345228031E-2
2.428121250E0,-6.478134077E-3,-3.295658971E-4,8.125962690E-3
2.433171615E0,-8.608660661E-3,9.257805534E-3,5.995436572E-3
2.438233906E0,-9.673924185E-3,1.777991466E-2,3.864909522E-3
2.443296198E0,-1.180445123E-2,2.204096876E-2,-3.961445764E-4
2.448358490E0,-1.713076793E-2,2.097570337E-2,-2.526671626E-3
2.453420781E0,-1.713076793E-2,2.097570337E-2,-4.657198675E-3
2.458483073E0,-1.500024181E-2,1.884517632E-2,-7.852989249E-3
2.463575261E0,-1.606550440E-2,1.245359425E-2,-9.983517230E-3
2.468637552E0,-1.500024181E-2,9.257805534E-3,-8.918252774E-3
2.473699844E0,-1.393497828E-2,8.192542009E-3,-9.983517230E-3
2.478762136E0,-1.180445123E-2,6.062015425E-3,-9.983517230E-3
2.483824427E0,-1.286971476E-2,8.192542009E-3,-7.852989249E-3
2.488886719E0,-8.608660661E-3,1.032306906E-2,-6.787725724E-3
2.493935886E0,-6.478134077E-3,1.458412316E-2,-3.591935150E-3
2.498998177E0,-7.543397602E-3,1.884517632E-2,-1.461408101E-3
2.504060469E0,-6.478134077E-3,2.097570337E-2,6.691189483E-4
2.509122761E0,-4.347607028E-3,2.310623415E-2,2.799645998E-3
2.514185052E0,-3.282343270E-3,2.204096876E-2,3.864909522E-3
2.519247344E0,-1.151816221E-3,2.204096876E-2,7.060699631E-3
2.524340886E0,-2.217079746E-3,2.097570337E-2,1.132175326E-2
2.529403177E0,2.043973887E-3,1.671464927E-2,1.238701679E-2
2.534465469E0,-1.151816221E-3,1.458412316E-2,1.238701679E-2
2.539527761E0,-1.151816221E-3,1.245359425E-2,1.132175326E-2
2.544590052E0,-8.655275451E-5,1.351885963E-2,9.191226214E-3
2.549652344E0,-1.151816221E-3,1.351885963E-2,8.125962690E-3
2.554716875E0,-2.217079746E-3,1.245359425E-2,4.930173047E-3
2.559779167E0,-2.217079746E-3,9.257805534E-3,6.691189483E-4
2.564841458E0,-1.151816221E-3,1.032306906E-2,-2.526671626E-3
2.569903750E0,-4.347607028E-3,1.138833258E-2,-6.787725724E-3
2.574966042E0,-9.673924185E-3,8.192542009E-3,-9.983517230E-3
2.580028333E0,-1.180445123E-2,7.127278950E-3,-1.104878075E-2
2.585098854E0,-1.180445123E-2,6.062015425E-3,-9.983517230E-3
2.590161146E0,-1.286971476E-2,3.931488376E-3,-1.104878075E-2
2.595223438E0,-1.393497828E-2,1.800961210E-3,-9.983517230E-3
2.600285729E0,-1.819603145E-2,-1.394829364E-3,-8.918252774E-3
2.605347969E0,-1.393497828E-2,-6.721146870E-3,-6.787725724E-3
2.610410313E0,-1.180445123E-2,-7.786410395E-3,-3.591935150E-3
2.615483125E0,-1.180445123E-2,-8.851674385E-3,-3.961445764E-4
2.620545417E0,-7.543397602E-3,-1.417799201E-2,6.691189483E-4
2.625607708E0,-6.478134077E-3,-1.524325553E-2,1.734382473E-3
2.630670000E0,-9.673924185E-3,-1.630851813E-2,1.734382473E-3
2.635732292E0,-9.673924185E-3,-1.630851813E-2,2.799645998E-3
2.640794583E0,-1.073918771E-2,-1.524325553E-2,3.864909522E-3
2.645864063E0,-1.180445123E-2,-1.950431056E-2,7.060699631E-3
2.650926354E0,-1.393497828E-2,-1.950431056E-2,5.995436572E-3
2.655988594E0,-1.606550440E-2,-1.843904518E-2,1.734382473E-3
2.661050938E0,-1.606550440E-2,-1.630851813E-2,4.930173047E-3
2.666113229E0,-1.606550440E-2,-1.737378165E-2,4.930173047E-3
2.671175521E0,-1.606550440E-2,-1.843904518E-2,4.930173047E-3
2.676254271E0,-1.926129498E-2,-2.056957223E-2,3.864909522E-3
2.681316563E0,-2.032655850E-2,-2.056957223E-2,4.930173047E-3
2.686378854E0,-1.713076793E-2,-1.843904518E-2,4.930173047E-3
2.691441146E0,-1.713076793E-2,-1.843904518E-2,3.864909522E-3
2.696503438E0,-1.819603145E-2,-1.630851813E-2,1.734382473E-3
2.701565729E0,-1.926129498E-2,-1.630851813E-2,1.734382473E-3
2.706636458E0,-1.819603145E-2,-1.417799201E-2,1.734382473E-3
2.711698750E0,-2.352234907E-2,-1.311272848E-2,6.691189483E-4
2.716761042E0,-2.565287612E-2,-1.417799201E-2,1.734382473E-3
2.721823333E0,-2.458761260E-2,-1.417799201E-2,6.691189483E-4
2.726885625E0,-2.778340131E-2,-1.204746496E-2,-3.961445764E-4
2.731947917E0,-2.991393022E-2,-1.311272848E-2,-3.961445764E-4
2.737019948E0,-3.310972080E-2,-1.524325553E-2,-1.461408101E-3
2.742082240E0,-3.630550951E-2,-1.630851813E-2,-4.657198675E-3
2.747144531E0,-4.056656361E-2,-1.737378165E-2,-6.787725724E-3
2.752206823E0,-4.269709066E-2,-1.843904518E-2,-6.787725724E-3
2.757269115E0,-4.482761770E-2,-2.376536466E-2,-1.104878075E-2
2.762331406E0,-4.695814475E-2,-2.589589171E-2,-1.211404428E-2
2.767402969E0,-4.695814475E-2,-2.483062632E-2,-1.424457133E-2
2.772465261E0,-4.908867180E-2,-2.376536466E-2,-1.530983485E-2
2.777527552E0,-5.015393347E-2,-1.737378165E-2,-1.850562543E-2
2.782589844E0,-4.589288309E-2,-1.204746496E-2,-1.957088895E-2
2.787652136E0,-4.482761770E-2,-3.525356529E-3,-1.850562543E-2
2.792714427E0,-4.376235604E-2,2.866224619E-3,-1.744036190E-2
2.797778542E0,-4.163182899E-2,9.257805534E-3,-1.957088895E-2
2.802840833E0,-3.630550951E-2,1.564938761E-2,-1.957088895E-2
2.807903125E0,-3.524024785E-2,2.097570337E-2,-2.063615061E-2
2.812965469E0,-3.097919375E-2,2.417149581E-2,-1.957088895E-2
2.818027761E0,-2.671813965E-2,2.523675747E-2,-1.850562543E-2
2.823090052E0,-2.671813965E-2,2.523675747E-2,-1.744036190E-2
2.828167813E0,-2.565287612E-2,2.523675747E-2,-1.850562543E-2
2.833230104E0,-2.458761260E-2,2.736728452E-2,-1.637509838E-2
2.838292396E0,-2.458761260E-2,3.162834048E-2,-1.637509838E-2
2.843354688E0,-2.352234907E-2,3.162834048E-2,-1.530983485E-2
2.848416979E0,-2.458761260E-2,3.908518702E-2,-1.530983485E-2
2.853479271E0,-2.458761260E-2,4.441150278E-2,-1.424457133E-2
2.858550261E0,-2.565287612E-2,4.973781854E-2,-1.744036190E-2
2.863612552E0,-2.458761260E-2,5.186834559E-2,-1.850562543E-2
2.868674844E0,-2.778340131E-2,5.399887636E-2,-1.850562543E-2
2.873737136E0,-2.991393022E-2,5.399887636E-2,-2.063615061E-2
2.878799427E0,-3.204445913E-2,5.399887636E-2,-2.276667953E-2
2.883861719E0,-3.524024785E-2,5.506413803E-2,-2.596247010E-2
2.888934063E0,-3.630550951E-2,5.612940714E-2,-3.128878772E-2
2.893996354E0,-3.950130194E-2,5.825993046E-2,-3.341931105E-2
2.899058646E0,-4.482761770E-2,6.571677327E-2,-3.874563053E-2
2.904120938E0,-4.908867180E-2,7.423887402E-2,-4.300668091E-2
2.909183229E0,-5.228446424E-2,8.169572800E-2,-4.513721168E-2
2.914245521E0,-5.761078000E-2,9.234835953E-2,-4.939826578E-2
2.919316250E0,-5.867604539E-2,1.030009910E-1,-5.152879283E-2
2.924378542E0,-5.974130705E-2,1.115230992E-1,-5.046352744E-2
2.929440833E0,-6.080657244E-2,1.189799383E-1,-5.472458154E-2
2.934503125E0,-5.974130705E-2,1.253715158E-1,-5.685510859E-2
2.939565417E0,-5.974130705E-2,1.264367849E-1,-5.792037025E-2
2.944627708E0,-6.080657244E-2,1.275020391E-1,-6.005089730E-2
2.949697396E0,-5.974130705E-2,1.243062690E-1,-6.218142807E-2
2.954759688E0,-6.080657244E-2,1.200452074E-1,-6.324668974E-2
2.959821979E0,-5.867604539E-2,1.147188917E-1,-6.537722051E-2
2.964884271E0,-5.974130705E-2,1.093925685E-1,-6.537722051E-2
2.969946563E0,-6.613289565E-2,1.051315218E-1,-6.431195885E-2
2.975008854E0,-6.932868809E-2,1.030009910E-1,-6.644248217E-2
2.980042604E0,-7.252448052E-2,9.660941362E-2,-6.644248217E-2
2.985104896E0,-8.211185038E-2,9.554415196E-2,-6.750774384E-2
2.990167188E0,-8.850342780E-2,9.767467529E-2,-6.750774384E-2
2.995229531E0,-9.169922024E-2,9.980520606E-2,-6.644248217E-2
3.000291823E0,-9.276448190E-2,1.040662527E-1,-6.537722051E-2
3.005354115E0,-1.002213284E-1,1.061967835E-1,-6.750774384E-2
3.010465000E0,-1.044823825E-1,1.125883609E-1,-6.644248217E-2
3.015528542E0,-1.044823825E-1,1.157841608E-1,-6.857300550E-2
3.020592083E0,-1.023518592E-1,1.168494150E-1,-7.070353627E-2
3.025655625E0,-9.915606678E-2,1.147188917E-1,-6.857300550E-2
3.030719167E0,-9.276448190E-2,1.147188917E-1,-6.537722051E-2
3.035782708E0,-8.637290448E-2,1.040662527E-1,-6.431195885E-2
3.040847136E0,-8.104658872E-2,9.341362119E-2,-6.324668974E-2
3.045910677E0,-6.080657244E-2,9.021783620E-2,-6.857300550E-2
3.050974219E0,-4.695814475E-2,7.104308903E-2,-7.389932871E-2
3.056037708E0,-5.121920258E-2,4.334624112E-2,-7.283405960E-2
3.061101302E0,-4.802341014E-2,3.056307696E-2,-7.283405960E-2
3.066164844E0,-3.843604028E-2,2.630202286E-2,-7.283405960E-2
3.071230156E0,-2.778340131E-2,1.884517632E-2,-7.389932871E-2
3.076293698E0,-1.606550440E-2,1.671464927E-2,-7.496459037E-2
3.081357240E0,-2.217079746E-3,1.138833258E-2,-7.283405960E-2
3.086420781E0,1.269660983E-2,8.192542009E-3,-7.496459037E-2
3.091484323E0,3.506714478E-2,3.931488376E-3,-7.816037536E-2
3.096547865E0,5.317662284E-2,-3.525356529E-3,-8.029090613E-2
3.101612865E0,7.341662049E-2,-8.851674385E-3,-8.774774522E-2
3.106676406E0,9.578716010E-2,-7.786410395E-3,-9.733512253E-2
3.111739948E0,1.075050533E-1,-1.204746496E-2,-1.069224924E-1
3.116803490E0,1.213534772E-1,-2.163483761E-2,-1.186403930E-1
3.121867031E0,1.320061088E-1,-3.228746727E-2,-1.271624863E-1
3.126930573E0,1.426587552E-1,-4.507062957E-2,-1.335540712E-1
3.131995781E0,1.511808634E-1,-5.785379559E-2,-1.452719718E-1
3.137059323E0,1.565071791E-1,-7.063695788E-2,-1.569898725E-1
3.142122865E0,1.575724483E-1,-8.555065095E-2,-1.719035655E-1
3.147186406E0,1.554419249E-1,-1.004643366E-1,-1.889477819E-1
3.152249948E0,1.490503401E-1,-1.100517139E-1,-2.081225216E-1
3.157313438E0,1.447892785E-1,-1.153780296E-1,-2.283625305E-1
3.162379063E0,1.373324394E-1,-1.153780296E-1,-2.507330775E-1
3.167442604E0,1.256145239E-1,-1.175085530E-1,-2.762994170E-1
3.172506146E0,1.192229539E-1,-1.196390837E-1,-3.039962351E-1
3.177569688E0,1.181576848E-1,-1.228348687E-1,-3.412804902E-1
3.182633229E0,1.245492697E-1,-1.388138235E-1,-3.774994314E-1
3.187696719E0,1.341366321E-1,-1.537275165E-1,-4.211752415E-1
3.192741771E0,1.469198167E-1,-1.505317241E-1,-4.786994755E-1
3.197805313E0,1.628987491E-1,-1.441401541E-1,-5.362237096E-1
3.202868854E0,1.852692962E-1,-1.633148938E-1,-6.001394987E-1
3.207932344E0,2.076398283E-1,-1.942075342E-1,-6.810995340E-1
3.212995938E0,2.406629920E-1,-2.027296424E-1,-7.929521799E-1
3.218059479E0,2.907304168E-1,-2.165780663E-1,-9.314364791E-1
3.223144219E0,3.503851593E-1,-2.368180752E-1,-1.042223930E0
3.228207761E0,4.249536097E-1,-2.346875519E-1,-1.114661694E0
3.233271302E0,5.080441833E-1,-2.187085897E-1,-1.170055509E0
3.238334844E0,5.900694132E-1,-1.942075342E-1,-1.213731289E0
3.243398386E0,6.688989401E-1,-1.835549027E-1,-1.241428137E0
3.248461927E0,7.349452972E-1,-1.803591102E-1,-1.258472443E0
3.253519583E0,7.860779166E-1,-1.707717478E-1,-1.259537578E0
3.258583125E0,8.191010952E-1,-1.537275165E-1,-1.246754527E0
3.263646667E0,8.404063582E-1,-1.228348687E-1,-1.229710221E0
3.268710208E0,8.436021209E-1,-6.957169622E-2,-1.204143882E0
3.273773750E0,8.372105360E-1,4.547676817E-2,-1.191360712E0
3.278837292E0,8.425368667E-1,1.658515334E-1,-1.221188068E0
3.283909427E0,8.467979431E-1,2.414852530E-1,-1.256341815E0
3.288972969E0,8.436021209E-1,2.979442179E-1,-1.235036492E0
3.294036511E0,8.510589600E-1,3.852958381E-1,-1.127444983E0
3.299100052E0,8.862126470E-1,5.205842853E-1,-9.878954291E-1
3.304163594E0,9.416064024E-1,6.622642875E-1,-8.568680286E-1
3.309227136E0,1.002326369E0,7.197885513E-1,-7.428848147E-1
3.314292917E0,1.042806268E0,6.739822030E-1,-6.278363466E-1
3.319356458E0,1.058785319E0,5.972832441E-1,-5.085268617E-1
3.324420000E0,1.049197912E0,5.195190310E-1,-3.956089020E-1
3.329483542E0,1.016174793E0,4.257758558E-1,-3.050615191E-1
3.334547083E0,9.586505890E-1,3.022052944E-1,-2.358193696E-1
3.339610625E0,8.744947910E-1,1.509378552E-1,-1.953393519E-1
3.344675104E0,7.828820944E-1,-1.630851813E-2,-1.793604046E-1
3.349738646E0,6.923347712E-1,-1.824896336E-1,-1.687077731E-1
3.354802188E0,5.900694132E-1,-2.890159488E-1,-1.495330334E-1
3.359865729E0,4.803473055E-1,-3.721065223E-1,-1.260972321E-1
3.364929271E0,3.674293756E-1,-4.115212858E-1,-1.058572307E-1
3.369992813E0,2.726209462E-1,-3.987380862E-1,-8.881301433E-2
3.375057761E0,1.980524510E-1,-3.657149374E-1,-8.561722189E-2
3.380121302E0,1.447892785E-1,-3.167128265E-1,-8.987828344E-2
3.385184844E0,1.181576848E-1,-2.581233382E-1,-1.079877615E-1
3.390248386E0,1.096355841E-1,-2.069906890E-1,-1.335540712E-1
3.395311875E0,1.224187464E-1,-2.101864964E-1,-1.591204107E-1
3.400375469E0,1.330713779E-1,-2.091212124E-1,-2.017309368E-1
3.405439219E0,1.426587552E-1,-1.675759405E-1,-2.411456853E-1
3.410502761E0,1.554419249E-1,-1.494664550E-1,-2.720383704E-1
3.415566302E0,1.639640182E-1,-1.558580548E-1,-2.965393960E-1
3.420629844E0,1.660945565E-1,-1.856854260E-1,-3.178446591E-1
3.425693386E0,1.671598107E-1,-2.176433206E-1,-3.316931129E-1
3.430756927E0,1.597029716E-1,-2.517317533E-1,-3.391499519E-1
3.435822761E0,1.479850709E-1,-2.783633471E-1,-3.423457444E-1
3.440886302E0,1.309408545E-1,-3.028644025E-1,-3.423457444E-1
3.445949844E0,1.138966307E-1,-3.241696656E-1,-3.402152061E-1
3.451013386E0,9.046084434E-2,-3.454749584E-1,-3.295626044E-1
3.456076927E0,7.341662049E-2,-3.646496832E-1,-3.146488965E-1
3.461140469E0,5.211136118E-2,-3.742370605E-1,-3.029310107E-1
3.466205938E0,3.080609068E-2,-4.008686543E-1,-2.731035948E-1
3.471269479E0,2.228398249E-2,-4.605233967E-1,-2.230362147E-1
3.476333021E0,2.334924601E-2,-5.159171224E-1,-1.825561970E-1
3.481396563E0,9.500817396E-3,-4.679802656E-1,-1.697730422E-1
3.486460104E0,-1.500024181E-2,-4.083254635E-1,-1.292930096E-1
3.491523646E0,-3.417498618E-2,-3.731717765E-1,-8.029090613E-2
3.496588698E0,-4.589288309E-2,-3.508012593E-1,-4.407195002E-2
3.501652240E0,-4.908867180E-2,-3.337570429E-1,-1.637509838E-2
3.506715781E0,-4.056656361E-2,-3.103212416E-1,9.191226214E-3
3.511779323E0,-1.926129498E-2,-2.890159488E-1,2.943123318E-2
3.516842865E0,1.482713688E-2,-2.687759697E-1,4.008387029E-2
3.521906406E0,5.637241155E-2,-2.517317533E-1,4.754071683E-2
3.526970886E0,1.043092683E-1,-2.357528061E-1,5.180177093E-2
3.532034427E0,1.469198167E-1,-2.304265052E-1,5.393229425E-2
3.537097969E0,1.842040271E-1,-2.282959521E-1,5.286703259E-2
3.542161511E0,2.161619365E-1,-2.251001745E-1,5.073650554E-2
3.547225052E0,2.364019454E-1,-2.304265052E-1,4.434492439E-2
3.552288594E0,2.438587844E-1,-2.346875519E-1,3.262702376E-2
3.557353854E0,2.395977229E-1,-2.368180752E-1,2.197438851E-2
3.562417396E0,2.289450914E-1,-2.389486134E-1,9.191226214E-3
3.567480938E0,2.172272056E-1,-2.357528061E-1,-7.852989249E-3
3.572544479E0,1.969871968E-1,-2.261654288E-1,-2.489720657E-2
3.577608021E0,1.714208573E-1,-2.144475430E-1,-4.726773873E-2
3.582671563E0,1.415934861E-1,-1.942075342E-1,-6.644248217E-2
3.587736823E0,1.138966307E-1,-1.750327945E-1,-8.987828344E-2
3.592800365E0,8.939557523E-2,-1.611843705E-1,-1.229014471E-1
3.597863906E0,6.702504307E-2,-1.633148938E-1,-1.697730422E-1
3.602927448E0,4.678504169E-2,-1.707717478E-1,-2.070572525E-1
3.607990990E0,2.228398249E-2,-1.590538323E-1,-2.177098989E-1
3.613054531E0,4.174501169E-3,-1.164432913E-1,-2.262319922E-1
3.618111719E0,-9.673924185E-3,-8.661591262E-2,-2.464720011E-1
3.623175261E0,-2.991393022E-2,-8.661591262E-2,-2.294277996E-1
3.628238802E0,-4.695814475E-2,-6.104958430E-2,-2.145140916E-1
3.633302344E0,-5.228446424E-2,-5.465799943E-2,-2.187751681E-1
3.638365886E0,-3.417498618E-2,-1.313569844E-1,-2.145140916E-1
3.643429427E0,-1.286971476E-2,-1.771633178E-1,-2.017309368E-1
3.648494688E0,7.370292209E-3,-1.920770109E-1,-1.665772349E-1
3.653558229E0,2.334924601E-2,-2.293612361E-1,-1.292930096E-1
3.658621771E0,3.932819515E-2,-2.613191307E-1,-8.774774522E-2
3.663685261E0,5.317662284E-2,-2.900812328E-1,-3.874563053E-2
3.668748802E0,5.956820399E-2,-3.028644025E-1,5.995436572E-3
3.673812344E0,6.169873103E-2,-3.060601950E-1,5.712808669E-2
3.678878490E0,6.809030473E-2,-3.039296567E-1,1.114565283E-1
3.683942031E0,6.915556639E-2,-2.954075634E-1,1.668502390E-1
3.689005573E0,6.382925063E-2,-2.762328088E-1,2.254397273E-1
3.694069115E0,4.891556874E-2,-2.485359609E-1,2.818986773E-1
3.699132656E0,2.015345544E-2,-2.144475430E-1,3.245092034E-1
3.704196198E0,-2.139182203E-2,-1.707717478E-1,3.543366194E-1
3.709260156E0,-6.613289565E-2,-1.175085530E-1,3.671197593E-1
3.714323750E0,-1.098086983E-1,-6.744117290E-2,3.777723908E-1
3.719387292E0,-1.481581926E-1,-2.056957223E-2,3.745765984E-1
3.724450781E0,-1.747897714E-1,8.192542009E-3,3.394229114E-1
3.729514323E0,-1.918339878E-1,1.884517632E-2,2.957471013E-1
3.734577865E0,-1.897034645E-1,3.801992536E-2,2.531365752E-1
3.739643646E0,-1.694634557E-1,7.849992812E-2,2.179828733E-1
3.744707188E0,-1.428318620E-1,1.413504779E-1,1.913512945E-1
3.749770781E0,-1.119392291E-1,2.095273435E-1,1.711112857E-1
3.754834271E0,-8.211185038E-2,2.478768080E-1,1.593933851E-1
3.759897813E0,-5.334972963E-2,2.563989460E-1,1.625891924E-1
3.764961354E0,-3.843604028E-2,2.659863234E-1,1.828291863E-1
3.770012396E0,-4.482761770E-2,3.022052944E-1,2.307660580E-1
3.775075938E0,-5.761078000E-2,3.245758116E-1,2.840292156E-1
3.780139479E0,-7.785079628E-2,3.139231801E-1,3.309007883E-1
3.785203021E0,-1.002213284E-1,2.809000015E-1,3.756418824E-1
3.790266563E0,-1.098086983E-1,2.617252469E-1,4.235787392E-1
3.795330104E0,-1.012865975E-1,2.755737007E-1,4.704503119E-1
3.800408281E0,-6.506762654E-2,3.192494810E-1,5.247787237E-1
3.805471823E0,-2.139182203E-2,3.757084608E-1,5.823029876E-1
3.810535365E0,1.695766300E-2,4.460158348E-1,6.345009208E-1
3.815598906E0,5.424188450E-2,5.323021412E-1,6.835030317E-1
3.820662448E0,7.128609717E-2,6.068706512E-1,7.325051427E-1
3.825725990E0,5.637241155E-2,6.654601097E-1,7.878988385E-1
3.830798073E0,7.370292209E-3,7.080706358E-1,8.390315175E-1
3.835861615E0,-8.104658872E-2,7.123317122E-1,8.763157129E-1
3.840925156E0,-2.120739967E-1,6.793084741E-1,8.997515440E-1
3.845988698E0,-3.580150902E-1,6.260454059E-1,9.104042053E-1
3.851052240E0,-4.954340458E-1,5.557379723E-1,8.986862898E-1
3.856115781E0,-6.115478277E-1,4.928874671E-1,8.603367805E-1
3.861181302E0,-6.967688799E-1,4.321674109E-1,8.038778305E-1
3.866244844E0,-7.489668131E-1,3.469463587E-1,7.420925498E-1
3.871308386E0,-7.585541606E-1,2.649210393E-1,6.771114469E-1
3.876371927E0,-7.234004736E-1,2.137883902E-1,6.121303439E-1
3.881435469E0,-6.743983626E-1,1.743736416E-1,5.791071653E-1
3.886499011E0,-6.424404383E-1,1.211104617E-1,5.737808943E-1
3.891564271E0,-6.328530908E-1,3.482412919E-2,5.769766569E-1
3.896627813E0,-6.285920143E-1,-4.933168367E-2,5.801724792E-1
3.901691354E0,-6.104825735E-1,-6.318011880E-2,5.769766569E-1
3.906754896E0,-5.827856660E-1,-1.950431056E-2,5.727156401E-1
3.911818438E0,-5.582846403E-1,5.399887636E-2,5.705850720E-1
3.916881979E0,-5.593498945E-1,1.157841608E-1,5.631282330E-1
3.921945469E0,-5.838509798E-1,1.583946794E-1,5.492798686E-1
3.927009011E0,-6.051562428E-1,2.521378696E-1,5.354313850E-1
3.932072552E0,-6.115478277E-1,3.767737150E-1,5.407577157E-1
3.937136094E0,-6.030257344E-1,4.769084752E-1,5.641934872E-1
3.942199636E0,-5.806551576E-1,5.482810736E-1,6.004124880E-1
3.947263177E0,-5.508278012E-1,6.207190156E-1,6.345009208E-1
3.952307292E0,-5.273920298E-1,6.633295417E-1,6.813725233E-1
3.957370833E0,-5.124782920E-1,6.750474572E-1,7.346357107E-1
3.962434375E0,-5.156741142E-1,6.654601097E-1,7.548756599E-1
3.967497917E0,-5.220656991E-1,6.537421942E-1,7.548756599E-1
3.972561458E0,-4.794551134E-1,7.325716615E-1,7.793766856E-1
3.977625000E0,-4.006256163E-1,8.604033589E-1,8.123999238E-1
3.982716875E0,-3.441666365E-1,9.126012325E-1,8.230525255E-1
3.987780417E0,-3.260571659E-1,9.030138850E-1,8.134651780E-1
3.992843958E0,-3.292529583E-1,8.795781136E-1,7.878988385E-1
3.997907500E0,-3.388403356E-1,8.465548754E-1,7.559409142E-1
4.002971042E0,-3.558845222E-1,7.837044001E-1,7.122651339E-1
4.008034583E0,-3.878424466E-1,6.729169488E-1,6.696546078E-1
4.013070886E0,-4.293877184E-1,5.568032265E-1,6.281093359E-1
4.018134531E0,-4.688024521E-1,4.747779667E-1,5.897598267E-1
4.023198177E0,-5.050214529E-1,4.097968936E-1,5.620629787E-1
4.028261823E0,-5.348488688E-1,3.607947826E-1,5.386272073E-1
4.033325417E0,-5.529583693E-1,3.458810747E-1,5.119956136E-1
4.038389063E0,-5.646762252E-1,3.639905751E-1,4.842987359E-1
4.043482240E0,-5.742635727E-1,3.938179314E-1,4.544713795E-1
4.048545886E0,-5.785246491E-1,4.225800335E-1,4.225134552E-1
4.053609531E0,-5.763941407E-1,4.566684961E-1,4.044039845E-1
4.058673177E0,-5.721330643E-1,4.918221533E-1,3.916208148E-1
4.063736823E0,-5.593498945E-1,5.216494799E-1,3.916208148E-1
4.068800469E0,-5.401751399E-1,5.482810736E-1,3.948166072E-1
4.073865052E0,-5.220656991E-1,5.631948113E-1,4.001429081E-1
4.078928646E0,-5.071519613E-1,5.706516504E-1,4.171871245E-1
4.083992292E0,-4.996950924E-1,5.834347606E-1,4.416882098E-1
4.089055938E0,-4.954340458E-1,5.876958966E-1,4.640587568E-1
4.094119583E0,-4.975645840E-1,5.919569135E-1,4.853640199E-1
4.099183229E0,-4.975645840E-1,5.940874219E-1,5.141261220E-1
4.104244583E0,-4.975645840E-1,6.068706512E-1,5.524755716E-1
4.109308229E0,-4.954340458E-1,6.228495836E-1,5.780419111E-1
4.114371875E0,-5.071519613E-1,6.260454059E-1,5.748461485E-1
4.119435521E0,-5.273920298E-1,6.207190156E-1,5.641934872E-1
4.124499167E0,-5.444362164E-1,6.239148378E-1,5.567366481E-1
4.129562813E0,-5.486972332E-1,6.420243382E-1,5.535408854E-1
4.134629636E0,-5.359141231E-1,6.569380164E-1,5.439534783E-1
4.139693281E0,-5.071519613E-1,6.867653728E-1,5.407577157E-1
4.144756927E0,-4.858466983E-1,6.920917034E-1,5.588672161E-1
4.149820573E0,-4.634761810E-1,7.133969665E-1,5.897598267E-1
4.154884219E0,-4.538888037E-1,7.293758988E-1,6.376967430E-1
4.159947865E0,-4.496277273E-1,7.719864845E-1,6.653935313E-1
4.165003542E0,-4.368445873E-1,8.092706800E-1,6.749808788E-1
4.170067188E0,-4.304529727E-1,8.359022737E-1,6.866987944E-1
4.175130833E0,-4.293877184E-1,8.582727909E-1,6.952209473E-1
4.180194479E0,-4.336487651E-1,8.540117741E-1,7.080041170E-1
4.185258125E0,-4.166045487E-1,8.955570459E-1,7.026777267E-1
4.190321771E0,-4.048866630E-1,8.827738166E-1,6.994820237E-1
4.195383854E0,-3.793203533E-1,9.147318006E-1,6.632630229E-1
4.200447500E0,-3.484277129E-1,9.008833170E-1,6.131955981E-1
4.205511146E0,-3.132739961E-1,8.785127997E-1,5.535408854E-1
4.210574792E0,-2.813161016E-1,8.327064514E-1,5.056040287E-1
4.215638438E0,-2.536192536E-1,7.677253485E-1,4.661892653E-1
4.220702083E0,-2.142045200E-1,7.197885513E-1,4.171871245E-1
4.225766094E0,-1.747897714E-1,6.686559319E-1,3.681850433E-1
4.230829740E0,-1.257876456E-1,6.132621765E-1,3.266397417E-1
4.235893386E0,-6.826342642E-2,5.536074638E-1,2.893555164E-1
4.240957083E0,1.908819191E-2,4.737127125E-1,2.392881513E-1
4.246020677E0,1.202882230E-1,4.034053087E-1,1.934818327E-1
4.251084323E0,2.289450914E-1,3.299021423E-1,1.412838995E-1
4.256146042E0,3.290798962E-1,2.574642003E-1,1.039996818E-1
4.261209688E0,4.164315164E-1,1.860915422E-1,7.310704142E-2
4.266273333E0,4.931304753E-1,9.447888285E-2,2.730070613E-2
4.271336979E0,5.623725653E-1,-1.950431056E-2,-3.554983810E-2
4.276400573E0,6.390715837E-1,-1.526622623E-1,-1.175751239E-1
4.281464219E0,7.264232039E-1,-3.092559874E-1,-2.166446149E-1
4.286543177E0,8.308190107E-1,-4.796981514E-1,-3.274320364E-1
4.291606823E0,9.437369108E-1,-6.533361673E-1,-4.510026276E-1
4.296670521E0,1.053459048E0,-8.141908646E-1,-5.841605663E-1
4.301734115E0,1.134418964E0,-9.303046465E-1,-7.290363908E-1
4.306797761E0,1.168507457E0,-9.782415032E-1,-8.717816472E-1
4.311861406E0,1.147202134E0,-9.569362402E-1,-1.013461709E0
4.316925938E0,1.076894760E0,-8.844982982E-1,-1.158337593E0
4.321989583E0,9.756947756E-1,-7.790371776E-1,-1.308539748E0
4.327053229E0,8.595810533E-1,-6.789024472E-1,-1.470459819E0
4.332116875E0,7.541199923E-1,-6.117908359E-1,-1.631314516E0
4.337180521E0,6.731600165E-1,-5.819634795E-1,-1.791104078E0
4.342244167E0,6.145704389E-1,-6.011382341E-1,-1.948763013E0
4.347308906E0,5.890041590E-1,-6.842287779E-1,-2.090442896E0
4.352372552E0,6.529199481E-1,-8.482792974E-1,-2.167141914E0
4.357436198E0,7.189663053E-1,-9.920899272E-1,-2.200165272E0
4.362499844E0,7.700989842E-1,-1.035765648E0,-2.199100018E0
4.367563490E0,8.489284515E-1,-1.028308749E0,-2.146902084E0
4.372627136E0,9.479979277E-1,-1.008068800E0,-2.063811302E0
4.377691354E0,1.037479997E0,-9.750456810E-1,-1.981786251E0
4.382755000E0,1.089678049E0,-9.292393327E-1,-1.897630453E0
4.387818646E0,1.068372726E0,-8.631930351E-1,-1.803887367E0
4.392882292E0,1.008717895E0,-7.769067287E-1,-1.692034602E0
4.397945938E0,9.650421739E-1,-6.512055993E-1,-1.550354600E0
4.403009583E0,9.565200210E-1,-5.073950291E-1,-1.391630292E0
4.408074636E0,1.004456878E0,-3.369528055E-1,-1.228644967E0
4.413138281E0,1.125896931E0,-1.409443468E-1,-1.072051287E0
4.418201927E0,1.279294848E0,4.121571407E-2,-9.506112337E-1
4.423265625E0,1.418844342E0,1.488073170E-1,-8.717816472E-1
4.428329219E0,1.518979192E0,1.349588931E-1,-8.291711211E-1
4.433392865E0,1.570111871E0,1.777991466E-2,-8.131921887E-1
4.438456875E0,1.576503277E0,-1.430748850E-1,-8.068006635E-1
4.443520521E0,1.557328582E0,-2.709065080E-1,-7.961480021E-1
4.448584167E0,1.508326530E0,-3.593233526E-1,-7.961480021E-1
4.453647813E0,1.417779088E0,-4.892855287E-1,-8.174532652E-1
4.458711406E0,1.302730560E0,-6.149866581E-1,-8.568680286E-1
4.463775052E0,1.185551643E0,-7.023382187E-1,-8.984132409E-1
4.468839844E0,1.072633743E0,-7.556014061E-1,-9.388933182E-1
4.473903542E0,9.565200210E-1,-7.705150843E-1,-9.687206745E-1
4.478967136E0,8.499937654E-1,-7.864940763E-1,-9.878954291E-1
4.484030781E0,7.615768909E-1,-8.109951615E-1,-1.001743793E0
4.489094427E0,7.072484493E-1,-8.152561784E-1,-1.032636523E0
4.494158073E0,6.859431267E-1,-8.056687713E-1,-1.085899711E0
4.499222240E0,6.827473640E-1,-8.077993393E-1,-1.141293287E0
4.504285886E0,6.880736947E-1,-8.269740939E-1,-1.175381780E0
4.509349531E0,6.891389489E-1,-8.727804422E-1,-1.198817611E0
4.514413177E0,6.763557792E-1,-9.217824936E-1,-1.210535526E0
4.519476823E0,6.507894397E-1,-1.004873037E0,-1.197752357E0
4.524540469E0,6.124399900E-1,-1.103942513E0,-1.194556475E0
4.529605208E0,5.655683875E-1,-1.179576159E0,-1.165794492E0
4.534668854E0,5.165662766E-1,-1.231774211E0,-1.123183846E0
4.539732500E0,4.654336274E-1,-1.246687770E0,-1.077377558E0
4.544796146E0,4.111051857E-1,-1.232839346E0,-1.014527082E0
4.549859792E0,3.674293756E-1,-1.179576159E0,-9.580680728E-1
4.554923438E0,3.269493580E-1,-1.109268785E0,-8.898911476E-1
4.559989531E0,2.939262092E-1,-9.771762490E-1,-8.099964261E-1
4.565053177E0,2.726209462E-1,-8.365614414E-1,-7.034701109E-1
4.570116823E0,2.555767298E-1,-7.481445670E-1,-6.203795075E-1
4.575180469E0,2.342714220E-1,-5.958119035E-1,-5.522026420E-1
4.580244115E0,2.140314132E-1,-4.605233967E-1,-4.712426066E-1
4.585307761E0,1.927261353E-1,-3.806286454E-1,-3.913478553E-1
4.590339167E0,1.660945565E-1,-3.348222971E-1,-3.125183582E-1
4.595402813E0,1.426587552E-1,-3.188433647E-1,-2.315583229E-1
4.600466458E0,1.298755854E-1,-3.742370605E-1,-1.431414485E-1
4.605530104E0,1.064397916E-1,-3.784981072E-1,-8.029090613E-2
4.610593698E0,8.513452113E-2,-3.305612504E-1,-4.087615758E-2
4.615657344E0,7.448188215E-2,-2.815591097E-1,1.771333441E-2
4.620753386E0,7.128609717E-2,-2.219043821E-1,9.973862767E-2
4.625817031E0,7.767767459E-2,-2.091212124E-1,2.062649876E-1
4.630880677E0,8.300399035E-2,-2.112517506E-1,3.575323820E-1
4.635944323E0,7.554715127E-2,-1.878159493E-1,4.715155959E-1
4.641007969E0,4.785030708E-2,-1.771633178E-1,5.450187325E-1
4.646071615E0,1.269660983E-2,-1.867506802E-1,6.153261662E-1
4.651131667E0,-1.819603145E-2,-2.123170197E-1,6.792419553E-1
4.656195313E0,-4.589288309E-2,-2.496012449E-1,7.325051427E-1
4.661258958E0,-7.039394975E-2,-3.007338643E-1,7.783114910E-1
4.666322604E0,-9.169922024E-2,-3.667802215E-1,8.145304322E-1
4.671386250E0,-1.140697524E-1,-4.424138963E-1,8.432925344E-1
4.676449896E0,-1.343097538E-1,-5.148518682E-1,8.709893823E-1
4.681518854E0,-1.620066166E-1,-5.819634795E-1,8.890988827E-1
4.686582552E0,-1.928992569E-1,-6.320308447E-1,8.976209760E-1
4.691646146E0,-2.205961049E-1,-6.586624384E-1,8.880336285E-1
4.696709792E0,-2.344445437E-1,-6.650540233E-1,8.688588738E-1
4.701773438E0,-2.440318912E-1,-6.554666162E-1,8.347704411E-1
4.706837083E0,-2.525539696E-1,-6.267045736E-1,7.900293469E-1
4.711880729E0,-2.610760927E-1,-5.872897506E-1,7.293093204E-1
4.716944323E0,-2.717287242E-1,-5.382876992E-1,6.526103616E-1
4.722008021E0,-2.855771482E-1,-4.903507829E-1,5.503451228E-1
4.727071615E0,-2.994255722E-1,-4.530665576E-1,4.235787392E-1
4.732135261E0,-3.004908562E-1,-4.466749430E-1,2.829639316E-1
4.737198906E0,-2.855771482E-1,-4.498707652E-1,1.530018151E-1
4.742279844E0,-2.440318912E-1,-4.562623203E-1,4.327965900E-2
4.747343490E0,-1.897034645E-1,-4.530665576E-1,-4.833300412E-2
4.752407136E0,-1.257876456E-1,-4.445444345E-1,-1.303582937E-1
4.757470781E0,-5.867604539E-2,-4.424138963E-1,-2.006656826E-1
4.762534427E0,3.109237878E-3,-4.520012736E-1,-2.592552006E-1
4.767598073E0,4.891556874E-2,-4.860897362E-1,-2.997351885E-1
4.772641823E0,7.874293625E-2,-5.095255375E-1,-3.082572818E-1
4.777705469E0,8.726505190E-2,-4.935465753E-1,-2.826909721E-1
4.782769115E0,7.022083551E-2,-4.530665576E-1,-2.219709456E-1
4.787832761E0,3.826293349E-2,-4.008686543E-1,-1.452719718E-1
4.792896406E0,5.239764694E-3,-3.465401828E-1,-6.324668974E-2
4.797960052E0,-1.073918771E-2,-3.071254492E-1,2.197438851E-2
4.803026771E0,-8.608660661E-3,-2.453401834E-1,9.867336601E-2
4.808090417E0,1.589240134E-2,-1.089864448E-1,1.806986481E-1
4.813154063E0,5.424188450E-2,9.980520606E-2,2.755071223E-1
4.818217708E0,9.791768342E-2,3.362936974E-1,3.681850433E-1
4.823281302E0,1.373324394E-1,5.237800479E-1,4.534060955E-1
4.828344948E0,1.447892785E-1,6.580032706E-1,5.354313850E-1
4.833414479E0,9.046084434E-2,7.102011442E-1,6.110651493E-1
4.838478125E0,-1.286971476E-2,7.293758988E-1,6.760461926E-1
4.843541771E0,-1.502887160E-1,8.018138409E-1,6.856335402E-1
4.848605417E0,-2.759897709E-1,8.976875544E-1,5.844335556E-1
4.853669063E0,-2.632066011E-1,9.541465044E-1,3.372924030E-1
4.858732708E0,-9.382974356E-2,9.850391746E-1,-5.898563564E-2
4.863815938E0,1.075050533E-1,9.552117586E-1,-4.318278730E-1
4.868879583E0,2.278798372E-1,7.464201450E-1,-5.159837008E-1
4.873943229E0,2.417282462E-1,4.992789924E-1,-4.190447032E-1
4.879006875E0,1.565071791E-1,3.448158205E-1,-2.635162473E-1
4.884070521E0,-7.543397602E-3,2.350936532E-1,-6.431195885E-2
4.889134115E0,-2.152697891E-1,1.275020391E-1,1.689807624E-1
4.894198698E0,-4.144740403E-1,4.760729522E-2,4.267745018E-1
4.899262344E0,-5.636109114E-1,1.777991466E-2,6.685893536E-1
4.904325990E0,-6.541583538E-1,6.062015425E-3,8.145304322E-1
4.909389636E0,-6.861162186E-1,-2.696115337E-2,8.677935600E-1
4.914453229E0,-6.616151929E-1,-1.004643366E-1,9.412968159E-1
4.919516875E0,-5.923730731E-1,-1.366833001E-1,1.090433717E0
4.924580833E0,-5.028909445E-1,-6.318011880E-2,1.258745313E0
4.929644479E0,-4.315182567E-1,1.338936239E-1,1.402555943E0
4.934708125E0,-3.952992857E-1,3.970137239E-1,1.515473843E0
4.939771771E0,-4.208655953E-1,6.303064227E-1,1.575128555E0
4.944835417E0,-4.901077449E-1,8.050096035E-1,1.576193810E0
4.949899063E0,-5.742635727E-1,9.339064956E-1,1.515473843E0
4.954964011E0,-6.456362605E-1,1.013801336E0,1.415339112E0
4.960027656E0,-6.754636168E-1,1.025519252E0,1.285376906E0
4.965091302E0,-6.818552017E-1,8.401632905E-1,1.100021005E0
4.970154948E0,-6.957036257E-1,5.674558282E-1,8.997515440E-1
4.975218594E0,-7.244657278E-1,3.544031978E-1,7.516798973E-1
4.980282240E0,-7.958384156E-1,2.329631299E-1,6.547409296E-1
4.985346771E0,-9.471058249E-1,8.595678210E-2,5.567366481E-1
4.990410417E0,-1.001434326E0,1.157841608E-1,4.768418968E-1
4.995474115E0,-7.564236522E-1,5.994138122E-1,5.066692829E-1
5.000537761E0,-4.911729991E-1,9.541465044E-1,5.908250809E-1
5.005601354E0,-3.974298239E-1,9.893001914E-1,6.579366922E-1
5.010665000E0,-3.782550693E-1,9.807780981E-1,6.973514557E-1
5.015729063E0,-3.505582213E-1,9.871696830E-1,7.175914049E-1
5.020792917E0,-3.068824112E-1,1.007409811E0,7.442229986E-1
5.025856823E0,-2.674676478E-1,1.038302302E0,7.836378217E-1
5.030920677E0,-2.333792597E-1,1.081978202E0,8.251830339E-1
5.035984531E0,-2.078129500E-1,1.140567660E0,8.496841192E-1
5.041048438E0,-1.928992569E-1,1.191700339E0,8.645978570E-1
5.046111615E0,-1.790508330E-1,1.232180357E0,8.624672890E-1
5.051175469E0,-1.726592481E-1,1.262007833E0,8.464883566E-1
5.056239375E0,-1.715939790E-1,1.271595120E0,8.187915087E-1
5.061303229E0,-1.726592481E-1,1.259877205E0,7.815072536E-1
5.066367083E0,-1.726592481E-1,1.232180357E0,7.314398885E-1
5.071430990E0,-1.726592481E-1,1.182113051E0,6.760461926E-1
5.076493750E0,-1.705287248E-1,1.124588728E0,6.185219884E-1
5.081557604E0,-1.641371399E-1,1.064933896E0,5.716503263E-1
5.086621511E0,-1.545497626E-1,1.016997218E0,5.258439779E-1
5.091685365E0,-1.747897714E-1,9.754518270E-1,4.502103329E-1
5.096749219E0,-2.312487364E-1,9.381675720E-1,3.554018438E-1
5.101813125E0,-3.079476953E-1,9.243191481E-1,2.669849992E-1
5.106876719E0,-3.814508617E-1,9.402980804E-1,1.956123561E-1
5.111940573E0,-4.570845664E-1,9.679949880E-1,1.508712769E-1
5.117004427E0,-5.295224786E-1,9.935612082E-1,1.253049523E-1
5.122068333E0,-5.955688953E-1,1.011670828E0,1.167828441E-1
5.127132188E0,-6.520277858E-1,1.019127607E0,1.199786291E-1
5.132196094E0,-7.010299563E-1,1.024453998E0,1.327617913E-1
5.137260000E0,-7.415099740E-1,1.030845523E0,1.519365460E-1
5.142323854E0,-7.713373303E-1,1.031910896E0,1.785681248E-1
5.147387761E0,-7.937078476E-1,1.016997218E0,2.073302418E-1
5.152451615E0,-7.926425934E-1,1.018062353E0,2.147870958E-1
5.157515469E0,-7.819899917E-1,1.011670828E0,2.275702506E-1
5.162579375E0,-7.777289152E-1,9.839739203E-1,2.627239525E-1
5.167642761E0,-7.542931437E-1,9.530812502E-1,3.010734320E-1
5.172706615E0,-7.202047110E-1,9.179275632E-1,3.383576274E-1
5.177770521E0,-6.893120408E-1,8.806433678E-1,3.788376451E-1
5.182834375E0,-6.573541760E-1,8.497506976E-1,4.278397858E-1
5.187898229E0,-6.243309379E-1,8.337717652E-1,4.821682274E-1
5.192962136E0,-6.019604206E-1,8.465548754E-1,5.503451228E-1
5.198014792E0,-5.817204118E-1,8.635990620E-1,6.163914204E-1
5.203078698E0,-5.582846403E-1,8.976875544E-1,6.611325145E-1
5.208142552E0,-5.455014706E-1,9.424286485E-1,7.005472183E-1
5.213206406E0,-5.572193861E-1,9.924959540E-1,7.420925498E-1
5.218270313E0,-5.817204118E-1,1.078782439E0,7.740504146E-1
5.223334167E0,-6.094172597E-1,1.148024559E0,7.751156688E-1
5.228407136E0,-6.232657433E-1,1.224723458E0,7.548756599E-1
5.233470990E0,-6.126130819E-1,1.309944510E0,7.143957019E-1
5.238534896E0,-5.955688953E-1,1.349359393E0,6.547409296E-1
5.243598750E0,-5.785246491E-1,1.331249833E0,5.823029876E-1
5.248662604E0,-5.657414794E-1,1.258811951E0,4.992124140E-1
5.253726511E0,-5.423057079E-1,1.150155067E0,4.203829467E-1
5.258791146E0,-5.060867071E-1,9.999528527E-1,3.490102887E-1
5.263855000E0,-4.453666806E-1,8.625338674E-1,2.818986773E-1
5.268918906E0,-3.803856075E-1,7.251148224E-1,2.339618355E-1
5.273982761E0,-3.217961192E-1,5.802390575E-1,2.062649876E-1
5.279046615E0,-2.621413767E-1,4.449505806E-1,2.009386569E-1
5.284110521E0,-1.971603185E-1,3.597294986E-1,2.233092040E-1
5.289172813E0,-1.204613373E-1,3.330979347E-1,2.701807916E-1
5.294236667E0,-5.654551834E-2,2.840957940E-1,3.309007883E-1
5.299300573E0,1.056608278E-2,2.073968053E-1,3.852292597E-1
5.304364427E0,8.406925201E-2,9.447888285E-2,4.235787392E-1
5.309428281E0,1.703556031E-1,-2.802641876E-2,4.406229556E-1
5.314492188E0,2.587725222E-1,-2.027296424E-1,4.352966249E-1
5.319556094E0,3.503851593E-1,-3.465401828E-1,4.054692388E-1
5.324619948E0,4.473241568E-1,-4.647844434E-1,3.511407971E-1
5.329683854E0,5.410673022E-1,-5.840939879E-1,2.765723467E-1
5.334747708E0,6.412020326E-1,-6.991423965E-1,1.753723472E-1
5.339811563E0,7.509242296E-1,-8.035383224E-1,4.647544771E-2
5.344875417E0,8.670379519E-1,-8.972814679E-1,-1.069224924E-1
5.349938490E0,9.938042760E-1,-9.825025201E-1,-2.805604637E-1
5.355002344E0,1.117374778E0,-1.042157292E0,-4.659163058E-1
5.360066250E0,1.215379000E0,-1.064527750E0,-6.491416097E-1
5.365130104E0,1.265446424E0,-1.049614072E0,-8.323669434E-1
5.370193958E0,1.268642187E0,-9.974162579E-1,-1.031571269E0
5.375257865E0,1.232423186E0,-9.100645781E-1,-1.244623899E0
5.380322188E0,1.162115932E0,-8.024730086E-1,-1.468329191E0
5.385386042E0,1.074764252E0,-7.151214480E-1,-1.708013535E0
5.390449948E0,9.724990726E-1,-6.671845317E-1,-1.972198844E0
5.395513750E0,8.755600452E-1,-6.757066250E-1,-2.242775679E0
5.400577656E0,7.807515860E-1,-7.279045582E-1,-2.473937750E0
5.405641563E0,6.987262964E-1,-8.227130175E-1,-2.655032635E0
5.410704427E0,6.678336263E-1,-9.654583335E-1,-2.777538061E0
5.415768281E0,6.912694573E-1,-1.131639481E0,-2.832931757E0
5.420832188E0,7.509242296E-1,-1.271188855E0,-2.833997011E0
5.425896042E0,7.988610268E-1,-1.319125772E0,-2.811626434E0
5.430959896E0,8.414716125E-1,-1.250948906E0,-2.720013857E0
5.436023802E0,8.766253591E-1,-1.148683667E0,-2.506961107E0
5.441046771E0,9.394758344E-1,-1.028308749E0,-2.160750389E0
5.446110677E0,1.071568489E0,-8.291046023E-1,-1.713339806E0
5.451174531E0,1.220705390E0,-6.448140144E-1,-1.251015544E0
5.456238386E0,1.365581155E0,-5.095255375E-1,-8.568680286E-1
5.461302292E0,1.518979192E0,-3.987380862E-1,-5.756384134E-1
5.466366146E0,1.644680262E0,-3.188433647E-1,-3.870867789E-1
5.471443229E0,1.718183398E0,-2.634496391E-1,-2.592552006E-1
5.476507136E0,1.711791873E0,-2.890159488E-1,-1.985351592E-1
5.481571042E0,1.642549753E0,-4.147170782E-1,-2.017309368E-1
5.486634896E0,1.537088633E0,-6.096603274E-1,-2.592552006E-1
5.491698750E0,1.411387444E0,-8.333656192E-1,-3.615204692E-1
5.496762656E0,1.286751747E0,-1.035765648E0,-4.840257764E-1
5.501852604E0,1.166376948E0,-1.194489956E0,-6.012047529E-1
5.506916458E0,1.043871641E0,-1.326582551E0,-7.002742887E-1
5.511980365E0,9.661074281E-1,-1.392628908E0,-8.089311719E-1
5.517044219E0,9.533243179E-1,-1.389433146E0,-9.303712249E-1
5.522108073E0,9.575853348E-1,-1.311668873E0,-1.002809167E0
5.527171927E0,9.416064024E-1,-1.183837295E0,-9.889606833E-1
5.532209271E0,8.595810533E-1,-1.061331987E0,-9.719164371E-1
5.537273177E0,7.328147292E-1,-9.505446553E-1,-9.804385900E-1
5.542337083E0,5.921999812E-1,-8.312351108E-1,-1.030506015E0
5.547400938E0,4.718251824E-1,-6.927508712E-1,-1.139162898E0
5.552464792E0,3.844735920E-1,-6.245740056E-1,-1.203078628E0
5.557528698E0,3.344062269E-1,-5.819634795E-1,-1.261668086E0
5.562584427E0,3.131009340E-1,-5.606581569E-1,-1.266994476E0
5.567648333E0,2.928609252E-1,-6.160519123E-1,-1.248885036E0
5.572712188E0,2.726209462E-1,-7.193824649E-1,-1.232905984E0
5.577776042E0,2.300103605E-1,-8.908898830E-1,-1.200948119E0
5.582839948E0,1.810082346E-1,-1.073049784E0,-1.172186017E0
5.587903802E0,1.415934861E-1,-1.281841636E0,-1.139162898E0
5.592986198E0,1.192229539E-1,-1.467197418E0,-1.090160728E0
5.598050052E0,1.149618998E-1,-1.613138437E0,-1.020918608E0
5.603113958E0,1.181576848E-1,-1.715403795E0,-9.474154115E-1
5.608177813E0,1.341366321E-1,-1.784645915E0,-8.749774694E-1
5.613241667E0,1.586377025E-1,-1.802755356E0,-8.057353497E-1
5.618305573E0,1.884650886E-1,-1.771862745E0,-7.332974076E-1
5.623382969E0,2.257493138E-1,-1.683445811E0,-6.427500844E-1
5.628446823E0,2.662293315E-1,-1.548157334E0,-5.383542180E-1
5.633510729E0,3.035135865E-1,-1.374519467E0,-4.201099873E-1
5.638574583E0,3.365367353E-1,-1.151879430E0,-2.880173028E-1
5.643638438E0,3.589072824E-1,-9.377614856E-1,-1.719035655E-1
5.648702344E0,3.599725366E-1,-7.513403893E-1,-6.963827461E-2
5.653765677E0,3.407977819E-1,-5.947465897E-1,2.836596966E-2
5.658829531E0,3.013830483E-1,-4.413486719E-1,1.253049523E-1
5.663893438E0,2.417282462E-1,-3.007338643E-1,2.190481424E-1
5.668957240E0,1.842040271E-1,-2.112517506E-1,3.362271190E-1
5.674021146E0,1.256145239E-1,-1.505317241E-1,4.502103329E-1
5.679085052E0,6.063347310E-2,-1.196390837E-1,5.396924615E-1
5.684149427E0,-4.347607028E-3,-1.196390837E-1,6.174566746E-1
5.689213281E0,-5.761078000E-2,-1.292264462E-1,6.835030317E-1
5.694277188E0,-9.382974356E-2,-1.388138235E-1,7.420925498E-1
5.699341042E0,-1.108739674E-1,-1.526622623E-1,7.889640927E-1
5.704404896E0,-1.066129133E-1,-1.590538323E-1,8.358356953E-1
5.709468802E0,-8.956868947E-2,-1.622496396E-1,8.805767894E-1
5.714491823E0,-7.358974218E-2,-1.803591102E-1,9.189262986E-1
5.719555729E0,-6.506762654E-2,-2.080559582E-1,9.530147314E-1
5.724619583E0,-5.761078000E-2,-2.527970076E-1,9.796463251E-1
5.729683438E0,-5.548025668E-2,-3.071254492E-1,9.956252575E-1
5.734747344E0,-6.187183410E-2,-3.667802215E-1,1.009473681E0
5.739811198E0,-8.104658872E-2,-4.264349639E-1,1.020126224E0
5.744913854E0,-1.076781750E-1,-4.818286598E-1,1.019061089E0
5.749977708E0,-1.460276544E-1,-5.276350379E-1,1.013734698E0
5.755041615E0,-1.897034645E-1,-5.585277081E-1,1.006277919E0
5.760105469E0,-2.397708446E-1,-5.787676573E-1,9.881684184E-1
5.765169323E0,-2.898381948E-1,-5.894203186E-1,9.519494176E-1
5.770233229E0,-3.313834965E-1,-5.840939879E-1,8.880336285E-1
5.775297083E0,-3.601455986E-1,-5.617234707E-1,7.953557372E-1
5.780360938E0,-3.739940226E-1,-5.191128850E-1,6.749808788E-1
5.785424844E0,-3.697329760E-1,-4.711760283E-1,5.396924615E-1
5.790488698E0,-3.452319205E-1,-4.338918030E-1,4.001429081E-1
5.795552552E0,-3.058171570E-1,-4.136517942E-1,2.680502534E-1
5.800616458E0,-2.653371394E-1,-4.040644169E-1,1.519365460E-1
5.805674844E0,-2.312487364E-1,-3.870202005E-1,4.434492439E-2
5.810738698E0,-2.046171427E-1,-3.614538908E-1,-6.431195885E-2
5.815802604E0,-1.843771338E-1,-3.337570429E-1,-1.740340889E-1
5.820866458E0,-1.577455699E-1,-3.081907034E-1,-2.837562561E-1
5.825930313E0,-1.311139762E-1,-2.890159488E-1,-3.838910162E-1
5.830994219E0,-1.108739674E-1,-2.879507244E-1,-4.605900049E-1
5.836057292E0,-9.809080511E-2,-2.847549021E-1,-5.053310394E-1
5.841121146E0,-7.465500385E-2,-2.602538466E-1,-5.234405398E-1
5.846185052E0,-5.334972963E-2,-2.165780663E-1,-5.319626331E-1
5.851248906E0,-5.228446424E-2,-1.654454172E-1,-5.553984642E-1
5.856312761E0,-7.145921886E-2,-1.143127605E-1,-6.001394987E-1
5.861376615E0,-9.809080511E-2,-6.744117290E-2,-6.416848302E-1
5.866440781E0,-1.098086983E-1,1.800961210E-3,-6.597942710E-1
5.871504636E0,-9.489500523E-2,1.253715158E-1,-6.374236941E-1
5.876568542E0,-6.826342642E-2,2.574642003E-1,-5.639205575E-1
5.881632396E0,-2.032655850E-2,4.076663554E-1,-4.818952680E-1
5.886696250E0,4.571978003E-2,5.834347606E-1,-3.849562705E-1
5.891760156E0,9.685242176E-2,7.432243228E-1,-2.486025244E-1
5.896822448E0,1.426587552E-1,8.689254522E-1,-6.750774384E-2
5.901886302E0,1.948566735E-1,9.935612082E-1,1.135870516E-1
5.906950208E0,2.555767298E-1,1.123523474E0,2.211786807E-1
5.912014063E0,3.290798962E-1,1.223658323E0,1.806986481E-1
5.917077917E0,3.866041303E-1,1.184243441E0,1.345228031E-2
5.922141771E0,3.929956853E-1,9.264496565E-1,-8.242142946E-2
5.927199427E0,3.578419983E-1,6.068706512E-1,-6.787725724E-3
5.932263281E0,2.896651626E-1,4.108621478E-1,1.231744215E-1
5.937327188E0,1.937913895E-1,3.171189427E-1,2.627239525E-1
5.942391042E0,6.382925063E-2,2.553336918E-1,4.246439934E-1
5.947454896E0,-9.169922024E-2,1.818304956E-1,6.195872426E-1
5.952518802E0,-2.323140055E-1,9.554415196E-2,8.177261949E-1
5.957593854E0,-3.409708738E-1,-2.909168042E-2,9.359704852E-1
5.962657708E0,-4.144740403E-1,-2.133822739E-1,9.583410025E-1
5.967721615E0,-4.581498504E-1,-3.582580984E-1,9.657978415E-1
5.972785469E0,-4.698677361E-1,-3.689107299E-1,1.002016783E0
5.977849323E0,-4.709329903E-1,-2.378833294E-1,1.065932631E0
5.982913229E0,-5.092825294E-1,-2.163483761E-2,1.112804174E0
5.987976094E0,-5.934383273E-1,2.116578668E-1,1.128783226E0
5.993039948E0,-6.839857697E-1,4.502769113E-1,1.123456955E0
5.998103854E0,-7.745330930E-1,6.484158635E-1,1.104282141E0
6.003167708E0,-8.661457896E-1,7.528117299E-1,1.068063140E0
6.008231563E0,-9.236699939E-1,7.879654169E-1,1.023322105E0
6.013295469E0,-9.343226552E-1,7.517464161E-1,9.807115197E-1
6.018359844E0,-9.044952989E-1,6.643948555E-1,9.285135865E-1
6.023423646E0,-8.640152812E-1,5.354979634E-1,8.454231024E-1
6.028487448E0,-8.203394413E-1,4.087316394E-1,7.410272360E-1
6.033551302E0,-7.969036698E-1,3.309673965E-1,6.419577599E-1
6.038615052E0,-7.969036698E-1,2.798347473E-1,5.716503263E-1
6.043678854E0,-8.171436787E-1,2.244410217E-1,5.375619531E-1
6.048736771E0,-8.267310262E-1,2.532031536E-1,5.173218846E-1
6.053800573E0,-6.168740988E-1,6.068706512E-1,5.471493006E-1
6.058864375E0,-3.228613734E-1,9.253844023E-1,6.110651493E-1
6.063928229E0,-1.737245023E-1,1.041498184E0,6.920251250E-1
6.068992031E0,-1.364402771E-1,1.044693947E0,7.506146431E-1
6.074055833E0,-1.332444996E-1,1.006344557E0,7.740504146E-1
6.079124427E0,-1.364402771E-1,9.722560048E-1,7.740504146E-1
6.084188229E0,-1.289834380E-1,9.658644199E-1,7.708545923E-1
6.089252031E0,-1.247223839E-1,9.839739203E-1,7.740504146E-1
6.094315886E0,-1.247223839E-1,1.023388743E0,7.772462368E-1
6.099379688E0,-1.321792305E-1,1.060672998E0,7.751156688E-1
6.104443490E0,-1.438971311E-1,1.096891880E0,7.580714822E-1
6.109501146E0,-1.620066166E-1,1.111805677E0,7.261135578E-1
6.114564948E0,-1.843771338E-1,1.116066575E0,6.835030317E-1
6.119628750E0,-2.046171427E-1,1.101152897E0,6.345009208E-1
6.124692604E0,-2.269876897E-1,1.068129778E0,5.844335556E-1
6.129756406E0,-2.610760927E-1,1.034041405E0,5.301051140E-1
6.134820208E0,-3.015561104E-1,1.001018167E0,4.640587568E-1
6.139885469E0,-3.399055898E-1,9.637338519E-1,3.862944841E-1
6.144949271E0,-3.857119083E-1,9.232538939E-1,3.063997626E-1
6.150013073E0,-4.432361424E-1,8.902306557E-1,2.499407679E-1
6.155076927E0,-5.135436058E-1,8.667948842E-1,2.211786807E-1
6.160140729E0,-5.849162340E-1,8.561422229E-1,2.051997185E-1
6.165204531E0,-6.498973370E-1,8.625338674E-1,2.030691952E-1
6.170267604E0,-7.095520496E-1,8.849043846E-1,2.158523500E-1
6.175331406E0,-7.649457455E-1,9.062097073E-1,2.392881513E-1
6.180395208E0,-8.150131702E-1,9.157970548E-1,2.680502534E-1
6.185459063E0,-8.618847132E-1,9.168622494E-1,2.893555164E-1
6.190522865E0,-8.991689682E-1,9.211233258E-1,3.159871101E-1
6.195586667E0,-9.236699939E-1,9.221886396E-1,3.500755429E-1
6.200650104E0,-9.385837317E-1,9.136664867E-1,3.862944841E-1
6.205713906E0,-9.534974098E-1,8.966223001E-1,4.321008325E-1
6.210777708E0,-9.598889351E-1,8.710559607E-1,4.779071808E-1
6.215841563E0,-9.524321556E-1,8.433591127E-1,5.226482749E-1
6.220905365E0,-9.343226552E-1,8.199232817E-1,5.727156401E-1
6.225969167E0,-9.076910615E-1,8.145970106E-1,6.334356070E-1
6.231010833E0,-8.736026287E-1,8.252496123E-1,6.973514557E-1
6.236074636E0,-8.277962804E-1,8.486854434E-1,7.474188209E-1
6.241138438E0,-7.798594832E-1,8.774475455E-1,7.889640927E-1
6.246202292E0,-7.340531349E-1,9.147318006E-1,8.273136020E-1
6.251266094E0,-6.893120408E-1,9.594728351E-1,8.560757041E-1
6.256329896E0,-6.477667689E-1,1.014866590E0,8.731199503E-1
6.261415261E0,-6.072867513E-1,1.076651812E0,8.741852045E-1
6.266479063E0,-5.774593949E-1,1.140567660E0,8.582062125E-1
6.271542865E0,-5.593498945E-1,1.200222492E0,8.283788562E-1
6.276606719E0,-5.380446315E-1,1.264138222E0,7.847030759E-1
6.281670521E0,-5.188699365E-1,1.302487731E0,7.271788120E-1
6.286734323E0,-5.146088004E-1,1.286508799E0,6.653935313E-1
6.291778229E0,-5.092825294E-1,1.240702510E0,5.929556489E-1
6.296842031E0,-4.975645840E-1,1.189569831E0,5.173218846E-1
6.301905833E0,-4.794551134E-1,1.115001321E0,4.352966249E-1
6.306969688E0,-4.560193121E-1,1.032976031E0,3.554018438E-1
6.312033490E0,-4.261919260E-1,9.275149107E-1,2.872250080E-1
6.317097292E0,-3.931687772E-1,7.826390862E-1,2.531365752E-1
6.322181511E0,-3.548192680E-1,6.217842698E-1,2.435492128E-1
6.327245313E0,-3.058171570E-1,4.769084752E-1,2.669849992E-1
6.332309115E0,-2.578803003E-1,3.554684520E-1,3.010734320E-1
6.337372969E0,-1.971603185E-1,2.340283990E-1,3.191829026E-1
6.342436771E0,-1.130044907E-1,1.179146841E-1,3.330313563E-1
6.347500573E0,-1.286971476E-2,8.192542009E-3,3.383576274E-1
6.352563698E0,1.149618998E-1,-1.132474989E-1,3.117260337E-1
6.357627500E0,2.640988231E-1,-2.474707067E-1,2.787028849E-1
6.362691302E0,4.270841181E-1,-3.753023148E-1,2.595281303E-1
6.367755156E0,6.017873287E-1,-5.063297153E-1,2.265049964E-1
6.372818958E0,7.871431708E-1,-6.394876838E-1,1.647197157E-1
6.377882761E0,9.756947756E-1,-7.886245847E-1,7.949861884E-2
6.382945677E0,1.129092693E0,-9.697194099E-1,-2.702773362E-2
6.388009479E0,1.254793882E0,-1.116725683E0,-1.697730422E-1
6.393073281E0,1.367711663E0,-1.192359447E0,-3.316931129E-1
6.398137136E0,1.441214919E0,-1.208338380E0,-4.925478697E-1
6.403200938E0,1.456128597E0,-1.185967803E0,-6.640552878E-1
6.408264740E0,1.409256935E0,-1.125247836E0,-8.717816472E-1
6.413329115E0,1.318709612E0,-1.032569885E0,-1.114661694E0
6.418392917E0,1.195139050E0,-9.207172394E-1,-1.402282953E0
6.423456719E0,1.057719946E0,-8.120604157E-1,-1.688838840E0
6.428520573E0,9.181705713E-1,-7.428182960E-1,-1.951958895E0
6.433584375E0,7.903389335E-1,-7.065992951E-1,-2.210817814E0
6.438648177E0,6.965957880E-1,-6.916856170E-1,-2.440914631E0
6.443712396E0,6.433326006E-1,-6.895551085E-1,-2.623074770E0
6.448776198E0,6.230925918E-1,-6.991423965E-1,-2.749841213E0
6.453840000E0,6.188315749E-1,-7.268393040E-1,-2.802038908E0
6.458903854E0,6.156357527E-1,-7.193824649E-1,-2.758363247E0
6.463967656E0,6.124399900E-1,-5.702455640E-1,-2.630531549E0
6.469031458E0,6.188315749E-1,-3.539970517E-1,-2.431327343E0
6.474095156E0,6.518546939E-1,-2.133822739E-1,-2.182055712E0
6.479158958E0,7.136399746E-1,-1.675759405E-1,-1.918935776E0
6.484222761E0,7.977958322E-1,-2.165780663E-1,-1.665403128E0
6.489286615E0,9.160400629E-1,-3.582580984E-1,-1.418261886E0
6.494350417E0,1.065176964E0,-5.595929027E-1,-1.182838678E0
6.499414219E0,1.226031661E0,-7.364266515E-1,-9.751122594E-1
6.504481771E0,1.418844342E0,-8.046035171E-1,-7.748427391E-1
6.509545573E0,1.630831838E0,-7.247087955E-1,-5.969437361E-1
6.514609375E0,1.824709773E0,-6.075298190E-1,-4.680468440E-1
6.519673177E0,1.944019318E0,-5.872897506E-1,-3.977394402E-1
6.524737031E0,1.966389775E0,-6.384224296E-1,-3.817605078E-1
6.529800833E0,1.908865571E0,-7.034035325E-1,-3.988047242E-1
6.534859792E0,1.779968619E0,-7.950161695E-1,-4.478068352E-1
6.539923594E0,1.591417074E0,-9.260436296E-1,-5.053310394E-1
6.544987396E0,1.401800156E0,-1.008068800E0,-5.458111167E-1
6.550051250E0,1.248402238E0,-9.835677743E-1,-6.086615920E-1
6.555115052E0,1.147202134E0,-8.898246288E-1,-7.151879668E-1
6.560178854E0,1.057719946E0,-7.864940763E-1,-8.259753585E-1
6.565243021E0,9.490631819E-1,-6.852940321E-1,-8.771080375E-1
6.570306823E0,8.073831797E-1,-6.011382341E-1,-9.101311564E-1
6.575370625E0,6.337451935E-1,-5.191128850E-1,-9.889606833E-1
6.580434479E0,4.686294198E-1,-4.509360492E-1,-1.094421744E0
6.585498281E0,3.407977819E-1,-4.040644169E-1,-1.209470272E0
6.590562083E0,2.555767298E-1,-3.923465312E-1,-1.315996528E0
6.595630990E0,2.044440359E-1,-4.189781249E-1,-1.401217699E0
6.600694740E0,1.714208573E-1,-4.903507829E-1,-1.423588276E0
6.605758542E0,1.565071791E-1,-5.915508270E-1,-1.407609224E0
6.610822396E0,1.660945565E-1,-6.970119476E-1,-1.353280783E0
6.615886198E0,1.905956119E-1,-8.482792974E-1,-1.285104036E0
6.620950000E0,2.012482435E-1,-1.052809834E0,-1.226514459E0
6.626011094E0,1.895303428E-1,-1.316995263E0,-1.170055509E0
6.631074896E0,1.756819189E-1,-1.560940623E0,-1.122118592E0
6.636138750E0,1.703556031E-1,-1.729252219E0,-1.070985913E0
6.641202552E0,1.692903340E-1,-1.819799542E0,-1.010265946E0
6.646266354E0,1.756819189E-1,-1.831517458E0,-9.420890808E-1
6.651330156E0,1.948566735E-1,-1.772927999E0,-8.621943593E-1
6.656396094E0,2.150966823E-1,-1.632313251E0,-7.684511542E-1
6.661459896E0,2.438587844E-1,-1.424586773E0,-6.480763555E-1
6.666523698E0,2.651640773E-1,-1.180641532E0,-5.170489550E-1
6.671587552E0,2.811430395E-1,-9.409572482E-1,-3.860215545E-1
6.676651354E0,2.854040861E-1,-7.140561342E-1,-2.762994170E-1
6.681715156E0,2.822082937E-1,-5.223087072E-1,-1.804256737E-1
6.686775469E0,2.704904079E-1,-3.699759841E-1,-8.987828344E-2
6.691839271E0,2.449240386E-1,-2.282959521E-1,2.799645998E-3
6.696903125E0,2.119008750E-1,-1.089864448E-1,9.441231191E-2
6.701966927E0,1.724861264E-1,-4.187484086E-2,1.828291863E-1
6.707030729E0,1.330713779E-1,-3.122220747E-2,3.127913177E-1
6.712094531E0,9.152610600E-2,-1.311272848E-2,4.406229556E-1
6.717160573E0,5.637241155E-2,7.127278950E-3,5.343661308E-1
6.722224375E0,1.376187336E-2,-4.294010624E-2,6.366314292E-1
6.727288177E0,-2.778340131E-2,-1.143127605E-1,7.048082948E-1
6.732352031E0,-6.293710321E-2,-1.867506802E-1,7.463535666E-1
6.737415833E0,-7.785079628E-2,-2.208391279E-1,7.815072536E-1
6.742479636E0,-7.998131961E-2,-2.112517506E-1,8.432925344E-1
6.747543594E0,-7.891605794E-2,-2.144475430E-1,9.008167982E-1
6.752607396E0,-7.145921886E-2,-2.219043821E-1,9.487536550E-1
6.757671250E0,-5.974130705E-2,-2.272306979E-1,9.892336726E-1
6.762735052E0,-5.334972963E-2,-2.378833294E-1,1.024387360E0
6.767798854E0,-5.441499129E-2,-2.496012449E-1,1.053149462E0
6.772862656E0,-7.039394975E-2,-2.698412240E-1,1.077650547E0
6.777926302E0,-8.956868947E-2,-2.890159488E-1,1.102151632E0
6.782990104E0,-1.162002832E-1,-3.060601950E-1,1.121326327E0
6.788053958E0,-1.438971311E-1,-3.316265345E-1,1.128783226E0
6.793117761E0,-1.652023941E-1,-3.657149374E-1,1.119195819E0
6.798181563E0,-1.790508330E-1,-4.083254635E-1,1.089368463E0
6.803245365E0,-1.833118796E-1,-4.562623203E-1,1.042496800E0
6.808309531E0,-1.843771338E-1,-4.967423379E-1,9.743199348E-1
6.813373333E0,-1.747897714E-1,-5.191128850E-1,8.816420436E-1
6.818437136E0,-1.545497626E-1,-5.265697837E-1,7.570062280E-1
6.823500990E0,-1.300487071E-1,-5.287002921E-1,5.886945724E-1
6.828564792E0,-8.956868947E-2,-5.500055552E-1,3.948166072E-1
6.833628594E0,-2.671813965E-2,-5.808982253E-1,1.870902479E-1
6.838692552E0,4.785030708E-2,-5.979424119E-1,1.734382473E-3
6.843756354E0,1.053745300E-1,-5.883550644E-1,-1.356845945E-1
6.848820156E0,1.405282319E-1,-5.627887249E-1,-2.539288700E-1
6.853884011E0,1.565071791E-1,-5.425487161E-1,-3.721731305E-1
6.858947813E0,1.554419249E-1,-5.244392157E-1,-4.829605222E-1
6.864011615E0,1.447892785E-1,-4.999381304E-1,-5.713773966E-1
6.869074688E0,1.320061088E-1,-4.818286598E-1,-6.289016008E-1
6.874138490E0,1.181576848E-1,-4.733065367E-1,-6.534026861E-1
6.879202292E0,1.128313690E-1,-4.690454900E-1,-6.470111012E-1
6.884266146E0,1.107008457E-1,-4.541318119E-1,-5.990742445E-1
6.889329948E0,1.043092683E-1,-3.987380862E-1,-5.223752260E-1
6.894393750E0,6.702504307E-2,-3.135170341E-1,-4.424805045E-1
6.899457396E0,9.787108283E-4,-2.400138676E-1,-3.838910162E-1
6.904521198E0,-8.743816614E-2,-1.824896336E-1,-3.189099431E-1
6.909585000E0,-1.790508330E-1,-1.398790926E-1,-2.336888462E-1
6.914648854E0,-2.333792597E-1,-1.164432913E-1,-1.410109252E-1
6.919712656E0,-2.791855931E-1,-1.249653995E-1,-4.194141924E-2
6.924776458E0,-3.090129495E-1,-1.175085530E-1,6.884598732E-2
6.929810208E0,-3.004908562E-1,-6.531064212E-2,1.934818327E-1
6.934874011E0,-2.664024234E-1,4.121571407E-2,3.543366194E-1
6.939937813E0,-2.120739967E-1,1.690473109E-1,5.471493006E-1
6.945001615E0,-1.321792305E-1,2.936831713E-1,7.090693116E-1
6.950065469E0,-2.991393022E-2,4.268410802E-1,8.070735931E-1
6.955129271E0,9.259136766E-2,5.589337349E-1,8.006820083E-1
6.960222865E0,2.236187905E-1,6.782432795E-1,6.558061242E-1
6.965286667E0,3.280146420E-1,7.528117299E-1,3.980123997E-1
6.970350469E0,3.812777996E-1,7.378980517E-1,1.221091598E-1
6.975414323E0,3.695599139E-1,5.770432353E-1,-9.200880677E-2
6.980478125E0,2.896651626E-1,3.203147650E-1,-1.932088286E-1
6.985541927E0,1.895303428E-1,1.104578376E-1,-1.782951355E-1
6.990607292E0,9.472189844E-2,2.523675747E-2,-1.292930096E-1
6.995671094E0,-7.543397602E-3,2.843254991E-2,-6.218142807E-2
7.000734896E0,-1.343097538E-1,4.334624112E-2,3.688807786E-2
7.005798698E0,-2.834466398E-1,3.801992536E-2,1.444797069E-1
7.010862500E0,-4.293877184E-1,7.127278950E-3,2.510060370E-1
7.015926302E0,-5.540236235E-1,-5.572326854E-2,3.479450047E-1
7.020988073E0,-6.552236080E-1,-1.515969932E-1,4.257092476E-1
7.026051875E0,-7.265962958E-1,-2.655801773E-1,4.896250665E-1
7.031115625E0,-7.574889064E-1,-3.465401828E-1,5.695198178E-1
7.036179427E0,-7.947731614E-1,-4.125865400E-1,6.781767011E-1
7.041243229E0,-9.162131548E-1,-5.649192333E-1,7.783114910E-1
7.046307031E0,-1.027000666E0,-6.022034883E-1,9.306441545E-1
7.051341354E0,-1.013152242E0,-4.221739173E-1,1.141566277E0
7.056405208E0,-9.343226552E-1,-1.952728033E-1,1.338640094E0
7.061468958E0,-8.192741871E-1,6.039045379E-2,1.512278080E0
7.066532761E0,-6.562888622E-1,3.948832154E-1,1.614543319E0
7.071596563E0,-4.815856516E-1,7.293758988E-1,1.601760149E0
7.076660313E0,-3.526887596E-1,9.477549195E-1,1.498429537E0
7.081755104E0,-2.781203091E-1,1.034041405E0,1.332248569E0
7.086818854E0,-2.461624295E-1,1.037237167E0,1.140501142E0
7.091882656E0,-2.600108087E-1,9.956918359E-1,9.892336726E-1
7.096946458E0,-2.940992415E-1,9.839739203E-1,8.795115352E-1
7.102010208E0,-2.845118642E-1,1.050020218E0,7.985514402E-1
7.107074011E0,-2.333792597E-1,1.142698169E0,7.229177952E-1
7.112116198E0,-1.673329324E-1,1.187439322E0,6.600672007E-1
7.117180000E0,-1.172655448E-1,1.154416084E0,6.121303439E-1
7.122243802E0,-7.252448052E-2,1.106479168E0,5.854988098E-1
7.127307604E0,-2.778340131E-2,1.083043456E0,5.844335556E-1
7.132371354E0,2.043973887E-3,1.064933896E0,5.918903947E-1
7.137435156E0,2.043973887E-3,1.056411862E0,6.046735048E-1
7.142518438E0,-1.606550440E-2,1.071325541E0,6.131955981E-1
7.147582292E0,-4.482761770E-2,1.112870812E0,6.259788275E-1
7.152646042E0,-7.998131961E-2,1.173590899E0,6.387619376E-1
7.157709844E0,-1.151350215E-1,1.236441374E0,6.494145989E-1
7.162773594E0,-1.438971311E-1,1.283312917E0,6.504798532E-1
7.167837396E0,-1.769203097E-1,1.309944510E0,6.472840309E-1
7.172901406E0,-2.110087276E-1,1.326988816E0,6.302398443E-1
7.177965208E0,-2.376403213E-1,1.336576104E0,6.131955981E-1
7.183028958E0,-2.600108087E-1,1.344033003E0,5.897598267E-1
7.188092761E0,-2.823813558E-1,1.335510969E0,5.482145548E-1
7.193156563E0,-3.058171570E-1,1.313140392E0,4.981471598E-1
7.198220313E0,-3.345792592E-1,1.287574053E0,4.438187182E-1
7.203285469E0,-3.633413613E-1,1.258811951E0,3.841639757E-1
7.208349271E0,-4.006256163E-1,1.230049729E0,3.330313563E-1
7.213413021E0,-4.389750957E-1,1.199157238E0,2.882902622E-1
7.218476823E0,-4.783898294E-1,1.167199254E0,2.478102595E-1
7.223540573E0,-5.220656991E-1,1.133110762E0,2.211786807E-1
7.228604375E0,-5.625457168E-1,1.100087643E0,1.870902479E-1
7.233665052E0,-5.955688953E-1,1.068129778E0,1.572628617E-1
7.238728854E0,-6.264615059E-1,1.042563438E0,1.391533762E-1
7.243792604E0,-6.637457013E-1,1.014866590E0,1.157175750E-1
7.248856406E0,-7.084867954E-1,9.861044288E-1,9.547757357E-2
7.253920208E0,-7.425752282E-1,9.573423266E-1,7.949861884E-2
7.258983958E0,-7.755984068E-1,9.328412414E-1,8.056388050E-2
7.264050365E0,-7.947731614E-1,9.062097073E-1,9.973862767E-2
7.269114167E0,-8.011646867E-1,8.742517233E-1,1.348923296E-1
7.274177917E0,-7.883815765E-1,8.433591127E-1,1.743070781E-1
7.279241719E0,-7.628152370E-1,7.986180782E-1,2.158523500E-1
7.284305521E0,-7.308573127E-1,7.517464161E-1,2.669849992E-1
7.289369271E0,-6.935731173E-1,7.123317122E-1,3.170523643E-1
7.294432865E0,-6.509625316E-1,6.803737879E-1,3.692502677E-1
7.299496667E0,-6.072867513E-1,6.697211862E-1,4.427534938E-1
7.304560417E0,-5.646762252E-1,6.835696101E-1,5.247787237E-1
7.309624219E0,-5.241962075E-1,7.059400678E-1,5.748461485E-1
7.314688021E0,-4.858466983E-1,7.474853992E-1,6.099998355E-1
7.319751771E0,-4.634761810E-1,8.018138409E-1,6.462188363E-1
7.324815573E0,-4.538888037E-1,8.561422229E-1,6.792419553E-1
7.329879375E0,-4.634761810E-1,8.976875544E-1,7.005472183E-1
7.334943125E0,-4.783898294E-1,9.232538939E-1,7.143957019E-1
7.340006979E0,-4.996950924E-1,9.488202333E-1,7.143957019E-1
7.345070729E0,-5.146088004E-1,9.882349372E-1,6.941556334E-1
7.350134479E0,-5.220656991E-1,1.025519252E0,6.621977687E-1
7.355198854E0,-5.263267756E-1,1.045759201E0,6.259788275E-1
7.360262656E0,-5.316530466E-1,1.037237167E0,5.908250809E-1
7.365326406E0,-5.369793177E-1,9.850391746E-1,5.492798686E-1
7.370390208E0,-5.380446315E-1,9.094054103E-1,5.077345371E-1
7.375454011E0,-5.273920298E-1,8.699907064E-1,4.608629346E-1
7.380517761E0,-5.263267756E-1,7.560074925E-1,4.246439934E-1
7.385542240E0,-5.178046227E-1,5.972832441E-1,3.862944841E-1
7.390606094E0,-4.805203676E-1,4.587990046E-1,3.500755429E-1
7.395669844E0,-4.432361424E-1,3.149884343E-1,3.234439790E-1
7.400733646E0,-4.134087563E-1,1.733083874E-1,3.032039404E-1
7.405797396E0,-3.825161159E-1,5.719466880E-2,2.882902622E-1
7.410861198E0,-3.452319205E-1,-2.909168042E-2,2.882902622E-1
7.415924375E0,-2.962297797E-1,-7.915906608E-2,3.223786950E-1
7.420988177E0,-2.280529588E-1,-1.153780296E-1,3.639239669E-1
7.426051979E0,-1.364402771E-1,-1.558580548E-1,4.044039845E-1
7.431115729E0,-1.926129498E-2,-2.080559582E-1,4.331661165E-1
7.436179531E0,1.181576848E-1,-2.762328088E-1,4.470145404E-1
7.441243333E0,2.577072382E-1,-3.518665135E-1,4.416882098E-1
7.446334531E0,3.823430836E-1,-4.147170782E-1,4.075997770E-1
7.451398333E0,4.835431278E-1,-4.637191892E-1,3.468797505E-1
7.456462083E0,5.602420568E-1,-5.180476904E-1,2.595281303E-1
7.461525886E0,6.305494905E-1,-5.777024031E-1,1.508712769E-1
7.466589688E0,7.136399746E-1,-6.373571754E-1,1.345228031E-2
7.471653438E0,8.148400784E-1,-6.831634641E-1,-1.537940800E-1
7.476728750E0,9.181705713E-1,-7.353613973E-1,-3.423457444E-1
7.481792552E0,1.007652640E0,-7.907550931E-1,-5.362237096E-1
7.486856302E0,1.067307353E0,-8.333656192E-1,-7.301017046E-1
7.491920104E0,1.097134829E0,-8.514751196E-1,-9.346322417E-1
7.496983906E0,1.102461100E0,-8.514751196E-1,-1.159402847E0
7.502047656E0,1.090743184E0,-8.344309330E-1,-1.403348088E0
7.507112188E0,1.069437861E0,-7.822329998E-1,-1.660076618E0
7.512175990E0,1.036414862E0,-7.247087955E-1,-1.937045217E0
7.517239792E0,9.895432591E-1,-6.980772018E-1,-2.232123137E0
7.522303542E0,9.203011394E-1,-7.151214480E-1,-2.519744158E0
7.527367344E0,8.180357814E-1,-7.747761607E-1,-2.775407553E0
7.532431094E0,6.965957880E-1,-8.642582893E-1,-3.037462234E0
7.537495417E0,5.623725653E-1,-9.686541557E-1,-3.302712917E0
7.542559219E0,4.132357240E-1,-1.042157292E0,-3.527483463E0
7.547622969E0,2.885998785E-1,-1.036831021E0,-3.688338280E0
7.552686771E0,2.577072382E-1,-9.878289104E-1,-3.746927977E0
7.557750573E0,3.205578029E-1,-8.834329844E-1,-3.678750753E0
7.562814375E0,4.451936185E-1,-7.545361519E-1,-3.482742548E0
7.567872708E0,6.007220745E-1,-6.022034883E-1,-3.164228678E0
7.572936511E0,7.754252553E-1,-4.061949551E-1,-2.720013857E0
7.578000261E0,9.362800717E-1,-2.219043821E-1,-2.162880898E0
7.583064063E0,1.101395845E0,-2.163483761E-2,-1.550354600E0
7.588127865E0,1.363450766E0,3.117926717E-1,-9.655249119E-1
7.593191615E0,1.690486550E0,6.803737879E-1,-5.138531327E-1
7.598259271E0,1.990890861E0,8.433591127E-1,-1.921435744E-1
7.603323073E0,2.213531017E0,6.899611354E-1,5.180177093E-2
7.608386875E0,2.301948071E0,3.299021423E-1,2.073302418E-1
7.613450677E0,2.252945900E0,-8.768117428E-2,2.776376307E-1
7.618514427E0,2.092091084E0,-5.105907917E-1,2.744418383E-1
7.623578229E0,1.849210858E0,-1.002742410E0,2.009386569E-1
7.628642813E0,1.575438142E0,-1.532178521E0,7.630282640E-2
7.633706563E0,1.313383341E0,-1.996633291E0,-5.898563564E-2
7.638770365E0,1.110983133E0,-2.325799942E0,-1.921435744E-1
7.643834167E0,1.005522132E0,-2.476001978E0,-3.572594225E-1
7.648897969E0,9.948695302E-1,-2.441913605E0,-5.021352768E-1
7.653961719E0,1.051328540E0,-2.284254551E0,-6.363584399E-1
7.659025573E0,1.114179015E0,-2.072267056E0,-7.620595694E-1
7.664089375E0,1.105656862E0,-1.851757526E0,-8.099964261E-1
7.669153125E0,1.027892709E0,-1.590767980E0,-7.812343240E-1
7.674216927E0,8.744947910E-1,-1.293559432E0,-7.450153232E-1
7.679280729E0,6.976610422E-1,-9.409572482E-1,-7.705816627E-1
7.684344479E0,5.176314712E-1,-6.480097771E-1,-8.068006635E-1
7.689406458E0,3.684946597E-1,-4.818286598E-1,-8.217142820E-1
7.694470261E0,2.779472470E-1,-4.008686543E-1,-8.483458757E-1
7.699534011E0,2.097703516E-1,-3.667802215E-1,-8.430196047E-1
7.704597813E0,1.362671703E-1,-3.614538908E-1,-7.950826883E-1
7.709661615E0,6.489451230E-2,-4.306960106E-1,-7.705816627E-1
7.714725365E0,-2.458761260E-2,-5.734413862E-1,-7.791037560E-1
7.719792031E0,-1.162002832E-1,-7.247087955E-1,-7.833648324E-1
7.724855833E0,-1.992908418E-1,-9.643930197E-1,-7.769732475E-1
7.729919583E0,-2.770550251E-1,-1.234969854E0,-7.705816627E-1
7.734983386E0,-3.303182125E-1,-1.472523689E0,-7.151879668E-1
7.740047188E0,-3.580150902E-1,-1.672793269E0,-6.438152790E-1
7.745110938E0,-3.622761369E-1,-1.821930051E0,-5.724426508E-1
7.750146250E0,-3.388403356E-1,-1.900759697E0,-4.968089461E-1
7.755210052E0,-2.972950637E-1,-1.928456426E0,-4.126531482E-1
7.760273802E0,-2.387055904E-1,-1.901824832E0,-3.221057355E-1
7.765337604E0,-1.715939790E-1,-1.833647966E0,-2.272972763E-1
7.770401406E0,-9.809080511E-2,-1.717534304E0,-1.314235479E-1
7.775465156E0,-2.884866670E-2,-1.494894147E0,-2.383194305E-2
7.780556250E0,2.228398249E-2,-1.299950957E0,1.039996818E-1
7.785620052E0,5.637241155E-2,-1.065593004E0,2.414186895E-1
7.790683802E0,7.128609717E-2,-8.599972129E-1,4.001429081E-1
7.795747656E0,6.489451230E-2,-6.980772018E-1,5.279745460E-1
7.800811406E0,4.039346427E-2,-5.105907917E-1,6.664587855E-1
7.805875156E0,1.908819191E-2,-3.593233526E-1,8.038778305E-1
7.810933125E0,-1.073918771E-2,-2.804938555E-1,9.167957306E-1
7.815996927E0,-3.204445913E-2,-2.346875519E-1,1.000951529E0
7.821060677E0,-4.482761770E-2,-2.261654288E-1,1.080846310E0
7.826124479E0,-4.589288309E-2,-2.229696512E-1,1.143696904E0
7.831188281E0,-3.204445913E-2,-2.133822739E-1,1.191633701E0
7.836252031E0,-2.217079746E-3,-2.016643882E-1,1.241701007E0
7.841322448E0,3.293661773E-2,-1.846201569E-1,1.298160076E0
7.846386250E0,6.489451230E-2,-1.686412096E-1,1.352488518E0
7.851450000E0,8.406925201E-2,-1.611843705E-1,1.397229671E0
7.856513802E0,8.300399035E-2,-1.729022712E-1,1.433448434E0
7.861577604E0,6.702504307E-2,-2.048601657E-1,1.464341164E0
7.866641406E0,2.974082530E-2,-2.506664991E-1,1.477124333E0
7.871689167E0,-1.286971476E-2,-3.028644025E-1,1.467537045E0
7.876752969E0,-6.506762654E-2,-3.603886068E-1,1.431318045E0
7.881816719E0,-1.353750229E-1,-4.115212858E-1,1.382315874E0
7.886880521E0,-2.078129500E-1,-4.477402270E-1,1.320530653E0
7.891944323E0,-2.855771482E-1,-4.647844434E-1,1.237440109E0
7.897008073E0,-3.494929671E-1,-4.498707652E-1,1.123456955E0
7.902085000E0,-3.867771924E-1,-3.902159929E-1,9.657978415E-1
7.907148802E0,-3.782550693E-1,-2.922117710E-1,7.697893977E-1
7.912212552E0,-3.228613734E-1,-1.920770109E-1,5.514103174E-1
7.917276354E0,-2.195308357E-1,-1.313569844E-1,3.138566017E-1
7.922340156E0,-9.489500523E-2,-1.249653995E-1,9.547757357E-2
7.927403906E0,1.695766300E-2,-1.494664550E-1,-7.922564447E-2
7.932470313E0,9.259136766E-2,-1.729022712E-1,-2.315583229E-1
7.937534115E0,1.298755854E-1,-2.005991191E-1,-3.828257322E-1
7.942597865E0,1.415934861E-1,-2.314917594E-1,-5.330278873E-1
7.947661667E0,1.394629627E-1,-2.634496391E-1,-6.619247794E-1
7.952725469E0,1.341366321E-1,-3.081907034E-1,-7.514069080E-1
7.957789219E0,1.288103312E-1,-3.593233526E-1,-7.961480021E-1
7.962853125E0,1.234840006E-1,-4.051297009E-1,-8.046700954E-1
7.967916927E0,1.170924231E-1,-4.424138963E-1,-7.727122307E-1
7.972980677E0,1.043092683E-1,-4.690454900E-1,-7.066658139E-1
7.978044479E0,7.341662049E-2,-4.498707652E-1,-6.246405840E-1
7.983108281E0,3.826293349E-2,-3.657149374E-1,-5.703121424E-1
7.988172031E0,-8.655275451E-5,-2.602538466E-1,-5.383542180E-1
7.993206615E0,-2.671813965E-2,-1.462706774E-1,-4.882868230E-1
7.998270417E0,-4.802341014E-2,-4.187484086E-2,-3.689773381E-1
8.003334219E0,-8.211185038E-2,6.784729660E-2,-2.081225216E-1
8.008397969E0,-1.076781750E-1,2.382894456E-1,-1.530983485E-2
8.013461771E0,-1.204613373E-1,4.641253352E-1,2.179828733E-1
8.018525573E0,-1.588108242E-1,6.750474572E-1,4.576671422E-1
8.023618490E0,-2.099434733E-1,8.529465199E-1,6.643283367E-1
8.028682292E0,-2.355097979E-1,1.003148675E0,7.921599150E-1
8.033746042E0,-1.982255727E-1,1.103283405E0,8.017472625E-1
8.038809844E0,-8.211185038E-2,1.177851915E0,6.771114469E-1
8.043873646E0,7.448188215E-2,1.222592950E0,4.363618791E-1
8.048937448E0,2.140314132E-1,1.154416084E0,1.508712769E-1
8.054000781E0,2.981872559E-1,9.104707241E-1,-2.809299529E-2
8.059064583E0,3.226883113E-1,6.015442610E-1,-1.850562543E-2
8.064128333E0,2.928609252E-1,3.565337360E-1,3.795334324E-2
8.069192136E0,2.108356059E-1,1.892873198E-1,6.991124898E-2
8.074255938E0,7.661241293E-2,6.252098083E-2,1.210438907E-1
8.079319740E0,-7.998131961E-2,-3.015694581E-2,2.009386569E-1
8.084383490E0,-2.333792597E-1,-7.702854276E-2,3.000081480E-1
8.089447292E0,-3.622761369E-1,-9.939906746E-2,4.086650312E-1
8.094511042E0,-4.666719437E-1,-1.473359317E-1,5.066692829E-1
8.099574844E0,-5.337836146E-1,-2.016643882E-1,5.844335556E-1
8.104638646E0,-5.763941407E-1,-1.899464726E-1,6.536756754E-1
8.109702448E0,-6.264615059E-1,-1.175085530E-1,7.527451515E-1
8.114766719E0,-6.765289307E-1,1.564938761E-2,9.082736373E-1
8.119830521E0,-7.116826177E-1,1.978094280E-1,1.105347395E0
8.124894271E0,-7.329878211E-1,3.618600368E-1,1.300290704E0
8.129958073E0,-7.713373303E-1,4.556032121E-1,1.423861265E0
8.135021875E0,-8.863857985E-1,3.852958381E-1,1.451557994E0
8.140085677E0,-9.439100027E-1,3.607947826E-1,1.452623248E0
8.145147865E0,-8.821247220E-1,4.406895339E-1,1.406816840E0
8.150211667E0,-7.958384156E-1,4.598642886E-1,1.296029568E0
8.155275417E0,-7.383142114E-1,3.970137239E-1,1.124522090E0
8.160339219E0,-7.020952106E-1,3.512074053E-1,9.700589180E-1
8.165403021E0,-6.392446756E-1,3.948832154E-1,8.880336285E-1
8.170466823E0,-5.092825294E-1,5.749126673E-1,8.369009495E-1
8.175531719E0,-3.910382390E-1,8.316411972E-1,8.187915087E-1
8.180595469E0,-3.399055898E-1,9.775823355E-1,7.932251692E-1
8.185659271E0,-3.409708738E-1,9.935612082E-1,7.357009053E-1
8.190723073E0,-3.473624289E-1,9.807780981E-1,6.728504300E-1
8.195786875E0,-3.292529583E-1,9.722560048E-1,6.440882683E-1
8.200850677E0,-2.823813558E-1,9.861044288E-1,6.547409296E-1
8.205877761E0,-2.323140055E-1,1.025519252E0,6.898946166E-1
8.210941563E0,-1.950297803E-1,1.060672998E0,7.293093204E-1
8.216005365E0,-1.822466105E-1,1.088369727E0,7.580714822E-1
8.221069115E0,-1.939645112E-1,1.101152897E0,7.772462368E-1
8.226132917E0,-2.355097979E-1,1.106479168E0,7.772462368E-1
8.231196719E0,-2.919687331E-1,1.109675050E0,7.644630671E-1
8.236298177E0,-3.452319205E-1,1.112870812E0,7.442229986E-1
8.241361979E0,-3.835813999E-1,1.111805677E0,7.111998796E-1
8.246425729E0,-4.048866630E-1,1.107544541E0,6.707198620E-1
8.251489531E0,-4.155393243E-1,1.092630863E0,6.355661750E-1
8.256553333E0,-4.187350869E-1,1.071325541E0,5.972166657E-1
8.261617136E0,-4.251266718E-1,1.046824574E0,5.524755716E-1
8.266680938E0,-4.293877184E-1,1.014866590E0,4.928208590E-1
8.271744740E0,-4.304529727E-1,9.775823355E-1,4.310355783E-1
8.276808490E0,-4.400403500E-1,9.371023178E-1,3.713808060E-1
8.281872292E0,-4.581498504E-1,9.040791392E-1,3.149218559E-1
8.286936094E0,-4.879772067E-1,8.870349526E-1,2.669849992E-1
8.291999844E0,-5.188699365E-1,8.849043846E-1,2.265049964E-1
8.297064115E0,-5.561540723E-1,8.891654611E-1,2.009386569E-1
8.302127917E0,-5.955688953E-1,8.998180628E-1,1.870902479E-1
8.307191667E0,-6.360488534E-1,9.147318006E-1,1.860249788E-1
8.312255469E0,-6.775941253E-1,9.381675720E-1,1.945470870E-1
8.317319271E0,-7.127478123E-1,9.573423266E-1,1.956123561E-1
8.322383073E0,-7.361836433E-1,9.637338519E-1,1.977428794E-1
8.327446198E0,-7.521625757E-1,9.626685977E-1,2.105260342E-1
8.332509948E0,-7.574889064E-1,9.616033435E-1,2.318313122E-1
8.337573750E0,-7.489668131E-1,9.616033435E-1,2.701807916E-1
8.342637552E0,-7.372489572E-1,9.647991657E-1,3.223786950E-1
8.347701354E0,-7.234004736E-1,9.690601826E-1,3.777723908E-1
8.352765156E0,-7.020952106E-1,9.690601826E-1,4.193176627E-1
8.357823386E0,-6.786593795E-1,9.626685977E-1,4.491450489E-1
8.362887188E0,-6.509625316E-1,9.552117586E-1,4.715155959E-1
8.367950938E0,-6.360488534E-1,9.477549195E-1,4.970819056E-1
8.373014740E0,-6.222004890E-1,9.392328262E-1,5.194524527E-1
8.378078542E0,-6.136783361E-1,9.317759871E-1,5.460840464E-1
8.383142344E0,-6.072867513E-1,9.307107329E-1,5.695198178E-1
8.388206563E0,-6.040909886E-1,9.477549195E-1,5.886945724E-1
8.393270365E0,-6.040909886E-1,9.797128439E-1,6.004124880E-1
8.398334115E0,-6.072867513E-1,1.022323489E0,6.099998355E-1
8.403397917E0,-6.168740988E-1,1.062803388E0,6.121303439E-1
8.408461719E0,-6.200699210E-1,1.093696117E0,5.950860977E-1
8.413525521E0,-6.072867513E-1,1.101152897E0,5.503451228E-1
8.418593750E0,-5.955688953E-1,1.100087643E0,5.024082065E-1
8.423657552E0,-5.870467424E-1,1.095826626E0,4.608629346E-1
8.428721302E0,-5.774593949E-1,1.080912948E0,4.086650312E-1
8.433785104E0,-5.582846403E-1,1.051085591E0,3.500755429E-1
8.438848906E0,-5.359141231E-1,9.924959540E-1,2.840292156E-1
8.443912708E0,-5.092825294E-1,8.923612237E-1,2.328965813E-1
8.448977344E0,-4.762593210E-1,7.698559165E-1,1.945470870E-1
8.454041094E0,-4.198003709E-1,6.590685248E-1,1.657849699E-1
8.459104844E0,-3.388403356E-1,5.365632176E-1,1.721765548E-1
8.464168646E0,-2.706634700E-1,4.002095461E-1,1.902860254E-1
8.469232448E0,-2.259224355E-1,2.457462996E-1,2.051997185E-1
8.474296250E0,-1.790508330E-1,1.136536226E-1,2.339618355E-1
8.479359531E0,-1.225918606E-1,4.334624112E-2,2.808333933E-1
8.484423333E0,-4.376235604E-2,1.884517632E-2,3.340965807E-1
8.489487083E0,5.424188450E-2,6.062015425E-3,3.799029291E-1
8.494550886E0,1.692903340E-1,-1.950431056E-2,4.235787392E-1
8.499614688E0,3.013830483E-1,-8.128959686E-2,4.512755871E-1
8.504678490E0,4.473241568E-1,-1.760980487E-1,4.502103329E-1
8.509718281E0,5.964609981E-1,-2.826243937E-1,4.129260778E-1
8.514782083E0,7.306842208E-1,-3.998033702E-1,3.436839581E-1
8.519845833E0,8.404063582E-1,-5.574624538E-1,2.520712912E-1
8.524909636E0,9.426716566E-1,-6.863592863E-1,1.423491687E-1
8.529973438E0,1.037479997E0,-7.822329998E-1,1.984386146E-2
8.535037240E0,1.134418964E0,-8.674540520E-1,-1.282277554E-1
8.540125208E0,1.233488560E0,-9.505446553E-1,-3.103878498E-1
8.545189011E0,1.328297019E0,-1.011264563E0,-5.234405398E-1
8.550252761E0,1.407126546E0,-1.031504631E0,-7.482111454E-1
8.555316563E0,1.456128597E0,-1.011264563E0,-9.932217598E-1
8.560380365E0,1.450802326E0,-9.729151726E-1,-1.275516629E0
8.565444167E0,1.397539139E0,-8.887593746E-1,-1.545028210E0
8.570482396E0,1.302730560E0,-7.417530417E-1,-1.810278773E0
8.575546198E0,1.180225372E0,-5.798329115E-1,-2.078725338E0
8.580609948E0,1.039610624E0,-4.498707652E-1,-2.338649511E0
8.585673750E0,8.947347403E-1,-3.784981072E-1,-2.601769447E0
8.590737604E0,7.637073398E-1,-3.689107299E-1,-2.844649553E0
8.595801354E0,6.667683721E-1,-4.147170782E-1,-3.047049761E0
8.600890469E0,6.049830914E-1,-5.041992068E-1,-3.183403492E0
8.605954271E0,5.794167519E-1,-5.872897506E-1,-3.241992712E0
8.611018021E0,5.890041590E-1,-5.446792245E-1,-3.236666679E0
8.616081823E0,6.262883544E-1,-4.445444345E-1,-3.151445389E0
8.621145625E0,6.933999658E-1,-3.816938996E-1,-2.979938030E0
8.626209427E0,7.690337300E-1,-3.774328232E-1,-2.733862162E0
8.631219896E0,8.638421297E-1,-3.412139118E-1,-2.419609547E0
8.636283698E0,9.820864201E-1,-2.527970076E-1,-2.054224014E0
8.641347500E0,1.096069455E0,-1.675759405E-1,-1.660076618E0
8.646411302E0,1.238814831E0,-7.702854276E-2,-1.245689154E0
8.651475104E0,1.426301122E0,1.777991466E-2,-8.483458757E-1
8.656538854E0,1.646810770E0,1.615904868E-1,-5.330278873E-1
8.661656146E0,1.857732892E0,3.064663410E-1,-3.167794049E-1
8.666719948E0,1.981303453E0,2.787694633E-1,-1.857519895E-1
8.671783698E0,1.989825606E0,9.021783620E-2,-1.388803869E-1
8.676847500E0,1.898212910E0,-1.547927856E-1,-1.548593491E-1
8.681911354E0,1.740553975E0,-4.125865400E-1,-2.017309368E-1
8.686975104E0,1.550937057E0,-6.757066250E-1,-2.635162473E-1
8.692036250E0,1.370907545E0,-9.388267398E-1,-3.434109986E-1
8.697100052E0,1.210052729E0,-1.191294074E0,-4.478068352E-1
8.702163802E0,1.086482167E0,-1.397955179E0,-5.692468882E-1
8.707227604E0,1.004456878E0,-1.517264843E0,-6.970784664E-1
8.712291406E0,9.490631819E-1,-1.537504792E0,-8.313016891E-1
8.717355208E0,9.245621562E-1,-1.468262553E0,-9.378280640E-1
8.722418229E0,8.904737234E-1,-1.369193196E0,-1.006004930E0
8.727482031E0,8.105789423E-1,-1.287167907E0,-1.024114370E0
8.732545781E0,6.912694573E-1,-1.177445769E0,-1.027310133E0
8.737609583E0,5.645030737E-1,-1.031504631E0,-1.044354320E0
8.742673438E0,4.611725807E-1,-8.972814679E-1,-1.075247049E0
8.747737188E0,3.876693845E-1,-7.971466780E-1,-1.107204914E0
8.752801511E0,3.386672735E-1,-7.321656346E-1,-1.123183846E0
8.757865313E0,2.971220016E-1,-6.970119476E-1,-1.112531304E0
8.762929063E0,2.513156831E-1,-7.247087955E-1,-1.092291236E0
8.767992865E0,1.937913895E-1,-7.694498301E-1,-1.042223930E0
8.773056667E0,1.266798079E-1,-8.418877721E-1,-1.002809167E0
8.778120469E0,5.637241155E-2,-9.335004091E-1,-9.591333270E-1
8.783186771E0,-1.393497828E-2,-1.086898327E0,-9.261101484E-1
8.788250573E0,-7.785079628E-2,-1.214729905E0,-8.803038597E-1
8.793314323E0,-1.321792305E-1,-1.325517416E0,-8.142574430E-1
8.798378125E0,-1.630718708E-1,-1.401151061E0,-7.375584841E-1
8.803441979E0,-1.747897714E-1,-1.422456384E0,-6.544679403E-1
8.808505729E0,-1.758550406E-1,-1.407542586E0,-5.543332100E-1
8.813565104E0,-1.620066166E-1,-1.348953128E0,-4.510026276E-1
8.818628906E0,-1.396360844E-1,-1.248818398E0,-3.561941385E-1
8.823692656E0,-1.098086983E-1,-1.128443599E0,-2.656467557E-1
8.828756458E0,-7.039394975E-2,-1.010199308E0,-1.761646122E-1
8.833820261E0,-3.417498618E-2,-9.079341292E-1,-9.520459920E-2
8.838884063E0,2.043973887E-3,-8.259087801E-1,-1.744036190E-2
8.843939740E0,3.506714478E-2,-7.513403893E-1,9.228178114E-2
8.849003542E0,5.424188450E-2,-6.906203032E-1,2.243744731E-1
8.854067292E0,6.382925063E-2,-6.000729799E-1,3.617934287E-1
8.859131146E0,6.595978141E-2,-4.743718207E-1,4.960166216E-1
8.864194896E0,6.915556639E-2,-3.827591538E-1,6.238482594E-1
8.869258698E0,8.193872869E-2,-3.220391572E-1,7.378314734E-1
8.874322708E0,8.939557523E-2,-2.826243937E-1,8.337051868E-1
8.879386511E0,1.032439992E-1,-2.570580542E-1,9.093388915E-1
8.884450261E0,1.149618998E-1,-2.368180752E-1,9.647325873E-1
8.889514063E0,1.288103312E-1,-2.187085897E-1,1.014799953E0
8.894577865E0,1.437240094E-1,-2.037949115E-1,1.063802123E0
8.899641667E0,1.575724483E-1,-1.974033266E-1,1.111738920E0
8.904713542E0,1.660945565E-1,-1.952728033E-1,1.160741091E0
8.909777344E0,1.565071791E-1,-2.048601657E-1,1.201221108E0
8.914841094E0,1.277450621E-1,-2.282959521E-1,1.235309601E0
8.919904896E0,7.874293625E-2,-2.581233382E-1,1.261941195E0
8.924968698E0,9.500817396E-3,-2.975380719E-1,1.278985381E0
8.930032500E0,-7.465500385E-2,-3.422791362E-1,1.282181144E0
8.935095052E0,-1.652023941E-1,-3.827591538E-1,1.270463228E0
8.940158854E0,-2.557497621E-1,-4.211086333E-1,1.235309601E0
8.945222604E0,-3.420360982E-1,-4.530665576E-1,1.177785277E0
8.950286406E0,-4.059519470E-1,-4.615886509E-1,1.095759988E0
8.955350208E0,-4.432361424E-1,-4.381528497E-1,9.934946895E-1
8.960414011E0,-4.517582357E-1,-3.891507387E-1,8.720546961E-1
8.965478490E0,-4.379098117E-1,-3.188433647E-1,7.207872272E-1
8.970542292E0,-3.910382390E-1,-2.378833294E-1,5.407577157E-1
8.975606094E0,-3.111434579E-1,-1.697064638E-1,3.511407971E-1
8.980669844E0,-2.110087276E-1,-1.345527768E-1,1.657849699E-1
8.985733646E0,-9.063395858E-2,-1.217696071E-1,-7.852989249E-3
8.990797448E0,4.039346427E-2,-1.334875077E-1,-1.846867204E-1
8.995846719E0,1.628987491E-1,-1.760980487E-1,-3.679120541E-1
9.000910469E0,2.683598995E-1,-2.325570285E-1,-5.447458029E-1
9.005974271E0,3.525156677E-1,-2.826243937E-1,-6.938827038E-1
9.011038073E0,4.153662324E-1,-3.177780807E-1,-7.950826883E-1
9.016101823E0,4.537157118E-1,-3.326917589E-1,-8.440848589E-1
9.021165625E0,4.696946740E-1,-3.454749584E-1,-8.430196047E-1
9.026248646E0,4.664988816E-1,-3.742370605E-1,-8.068006635E-1
9.031312448E0,4.494546652E-1,-4.285655022E-1,-7.482111454E-1
9.036376250E0,4.121704400E-1,-5.105907917E-1,-6.619247794E-1
9.041440000E0,3.567767441E-1,-5.851592422E-1,-5.362237096E-1
9.046503802E0,2.758167088E-1,-5.691803098E-1,-3.849562705E-1
9.051567604E0,1.628987491E-1,-4.541318119E-1,-2.390151620E-1
9.056632136E0,4.571978003E-2,-3.390833437E-1,-1.037267074E-1
9.061695938E0,-7.678553462E-2,-2.741023004E-1,3.688807786E-2
9.066759688E0,-1.843771338E-1,-2.464054376E-1,1.679154932E-1
9.071823542E0,-2.759897709E-1,-2.538622916E-1,3.138566017E-1
9.076887292E0,-3.612108529E-1,-2.559928000E-1,4.736461043E-1
9.081951094E0,-4.198003709E-1,-1.952728033E-1,6.408924460E-1
9.087013333E0,-4.027561247E-1,-2.696115337E-2,8.294441104E-1
9.092077136E0,-3.175350726E-1,2.255062908E-1,1.016930461E0
9.097140886E0,-2.227266282E-1,4.215148091E-1,1.153284192E0
9.102204688E0,-1.428318620E-1,5.397589803E-1,1.178850532E0
9.107268490E0,-5.867604539E-2,6.228495836E-1,1.040366292E0
9.112332292E0,2.761030197E-2,6.526769996E-1,7.197219729E-1
9.117396823E0,8.833031356E-2,6.260454059E-1,3.138566017E-1
9.122460625E0,1.021787375E-1,5.685211420E-1,-6.218142807E-2
9.127524375E0,7.554715127E-2,5.184537768E-1,-3.700425923E-1
9.132588177E0,4.252399132E-2,4.875611365E-1,-5.585942268E-1
9.137651979E0,3.506714478E-2,4.715821743E-1,-5.745731592E-1
9.142715781E0,4.785030708E-2,4.481464028E-1,-5.213099718E-1
9.147779792E0,2.547977120E-2,3.938179314E-1,-4.605900049E-1
9.152843542E0,-5.974130705E-2,2.926179171E-1,-3.487372994E-1
9.157907344E0,-1.886382103E-1,1.978094280E-1,-1.729688197E-1
9.162971146E0,-3.324487209E-1,1.317631006E-1,2.943123318E-2
9.168034948E0,-4.677372277E-1,6.145572290E-2,2.307660580E-1
9.173098750E0,-5.763941407E-1,-1.737378165E-2,4.054692388E-1
9.178163073E0,-6.371141076E-1,-9.194222838E-2,5.354313850E-1
9.183226875E0,-6.392446756E-1,-1.910117418E-1,6.653935313E-1
9.188290625E0,-6.403099298E-1,-3.433444202E-1,8.166609406E-1
9.193354427E0,-6.424404383E-1,-4.264349639E-1,1.032909393E0
9.198418229E0,-5.976994038E-1,-3.294959664E-1,1.343966484E0
9.203482031E0,-5.497625470E-1,-1.430748850E-1,1.650762320E0
9.208545261E0,-5.380446315E-1,6.997781992E-2,1.862749815E0
9.213609063E0,-5.561540723E-1,2.638558149E-1,1.987385511E0
9.218672865E0,-5.774593949E-1,4.364284575E-1,2.045975208E0
9.223736615E0,-5.923730731E-1,6.462853551E-1,2.005495071E0
9.228800417E0,-6.200699210E-1,8.550769687E-1,1.875532866E0
9.233864219E0,-6.445709467E-1,1.007409811E0,1.668871880E0
9.238924636E0,-6.285920143E-1,1.139502406E0,1.402555943E0
9.243988438E0,-5.817204118E-1,1.248159289E0,1.157545328E0
9.249052188E0,-5.540236235E-1,1.282247782E0,9.988210797E-1
9.254115990E0,-5.614804626E-1,1.268399239E0,8.827072978E-1
9.259179792E0,-5.753288269E-1,1.198091865E0,7.506146431E-1
9.264243594E0,-5.561540723E-1,1.129914999E0,6.387619376E-1
9.269284219E0,-4.911729991E-1,1.096891880E0,5.663240552E-1
9.274348021E0,-4.240614176E-1,1.065999269E0,5.460840464E-1
9.279411771E0,-3.729287386E-1,1.057477117E0,5.695198178E-1
9.284475573E0,-3.494929671E-1,1.090500355E0,6.153261662E-1
9.289539375E0,-3.377750516E-1,1.152285576E0,6.728504300E-1
9.294603177E0,-3.335140049E-1,1.219397187E0,7.367661595E-1
9.299682031E0,-3.494929671E-1,1.275856137E0,7.878988385E-1
9.304745833E0,-3.889077306E-1,1.334445596E0,8.230525255E-1
9.309809583E0,-4.379098117E-1,1.395165563E0,8.528799415E-1
9.314873386E0,-4.805203676E-1,1.456950903E0,8.752503991E-1
9.319937188E0,-5.124782920E-1,1.507018328E0,8.859030604E-1
9.325000938E0,-5.327183008E-1,1.537910938E0,8.816420436E-1
9.330052448E0,-5.401751399E-1,1.556020498E0,8.709893823E-1
9.335116250E0,-5.369793177E-1,1.574129939E0,8.486188650E-1
9.340180052E0,-5.231309533E-1,1.583717227E0,8.123999238E-1
9.345243854E0,-5.007603765E-1,1.580521584E0,7.655283213E-1
9.350307656E0,-4.783898294E-1,1.554955125E0,7.026777267E-1
9.355371406E0,-4.592151046E-1,1.511279345E0,6.323703527E-1
9.360458177E0,-4.464319646E-1,1.458016157E0,5.514103174E-1
9.365521979E0,-4.464319646E-1,1.411144614E0,4.661892653E-1
9.370585729E0,-4.613456130E-1,1.374925613E0,3.777723908E-1
9.375649531E0,-4.975645840E-1,1.347228885E0,2.968123853E-1
9.380713333E0,-5.455014706E-1,1.332315207E0,2.254397273E-1
9.385777136E0,-5.966341496E-1,1.322727799E0,1.668502390E-1
9.390831563E0,-6.520277858E-1,1.320597291E0,1.242396757E-1
9.395895365E0,-7.074215412E-1,1.319531918E0,9.867336601E-2
9.400959115E0,-7.510973215E-1,1.322727799E0,8.589019626E-2
9.406022917E0,-7.819899917E-1,1.322727799E0,8.695546538E-2
9.411086719E0,-8.011646867E-1,1.316336155E0,1.039996818E-1
9.416150469E0,-8.086215854E-1,1.305683613E0,1.359575987E-1
9.421223906E0,-7.969036698E-1,1.289704561E0,1.753723472E-1
9.426287656E0,-7.798594832E-1,1.258811951E0,2.190481424E-1
9.431351406E0,-7.532278895E-1,1.219397187E0,2.627239525E-1
9.436415208E0,-7.180742025E-1,1.179982424E0,3.021386862E-1
9.441479011E0,-6.743983626E-1,1.139502406E0,3.404881656E-1
9.446542813E0,-6.264615059E-1,1.101152897E0,3.713808060E-1
9.451607917E0,-5.859814882E-1,1.059607625E0,3.948166072E-1
9.456671719E0,-5.518930554E-1,1.022323489E0,4.182524085E-1
9.461735469E0,-5.284572244E-1,9.956918359E-1,4.448840022E-1
9.466799271E0,-5.146088004E-1,9.807780981E-1,4.725808501E-1
9.471863073E0,-5.146088004E-1,9.765170813E-1,4.960166216E-1
9.476926875E0,-5.188699365E-1,9.967570901E-1,5.226482749E-1
9.481952865E0,-5.241962075E-1,1.037237167E0,5.418229699E-1
9.487016667E0,-5.401751399E-1,1.087304592E0,5.482145548E-1
9.492080469E0,-5.497625470E-1,1.126719236E0,5.524755716E-1
9.497144271E0,-5.561540723E-1,1.156546593E0,5.439534783E-1
9.502208073E0,-5.295224786E-1,1.151220322E0,5.087997913E-1
9.507271823E0,-4.975645840E-1,1.091565490E0,4.619282186E-1
9.512372083E0,-4.869119525E-1,1.002083421E0,4.267745018E-1
9.517435886E0,-4.773245752E-1,8.827738166E-1,4.033387303E-1
9.522499636E0,-4.528235197E-1,7.453548908E-1,3.894903064E-1
9.527563438E0,-4.176698327E-1,5.791737437E-1,3.969471455E-1
9.532627240E0,-3.729287386E-1,3.884916008E-1,4.235787392E-1
9.537691042E0,-3.207308352E-1,2.116578668E-1,4.502103329E-1
9.542754271E0,-2.557497621E-1,7.636940479E-2,4.917555749E-1
9.547818073E0,-1.854424030E-1,-2.163483761E-2,5.439534783E-1
9.552881823E0,-1.140697524E-1,-7.063695788E-2,6.078693271E-1
9.557945625E0,-4.163182899E-2,-7.383275032E-2,6.728504300E-1
9.563009427E0,3.080609068E-2,-6.957169622E-2,7.335704565E-1
9.568073229E0,9.898294508E-2,-9.513802081E-2,7.868335843E-1
9.573138333E0,1.778124571E-1,-1.302917153E-1,8.166609406E-1
9.578202136E0,2.609030306E-1,-2.048601657E-1,8.454231024E-1
9.583265886E0,3.493199050E-1,-3.028644025E-1,8.635325432E-1
9.588329688E0,4.356062710E-1,-4.008686543E-1,8.528799415E-1
9.593393490E0,4.973915517E-1,-5.127213597E-1,8.155956864E-1
9.598457292E0,5.346757174E-1,-6.277698278E-1,7.484840751E-1
9.603520521E0,5.581115484E-1,-7.524055839E-1,6.536756754E-1
9.608584323E0,5.911346674E-1,-8.749108911E-1,5.173218846E-1
9.613648073E0,6.443978548E-1,-9.633277655E-1,3.213134110E-1
9.618711927E0,7.200315595E-1,-9.974162579E-1,9.760810435E-2
9.623775677E0,8.159052730E-1,-1.038961411E0,-1.335540712E-1
9.628839479E0,9.139094949E-1,-1.079441428E0,-3.764341772E-1
9.633902240E0,1.011913776E0,-1.065593004E0,-6.182489395E-1
9.638966042E0,1.093938947E0,-1.014460444E0,-8.536722660E-1
9.644029792E0,1.140810609E0,-9.452183247E-1,-1.089095473E0
9.649093594E0,1.152528524E0,-8.621277809E-1,-1.326649189E0
9.654157396E0,1.132288456E0,-7.822329998E-1,-1.588704109E0
9.659221198E0,1.080090642E0,-7.215129733E-1,-1.878455639E0
9.664282865E0,9.959347844E-1,-6.629235148E-1,-2.159685135E0
9.669346667E0,8.926042914E-1,-6.341614127E-1,-2.455828428E0
9.674410417E0,7.967305779E-1,-6.778371930E-1,-2.774342060E0
9.679474219E0,7.147052288E-1,-8.205825090E-1,-3.061963320E0
9.684538021E0,6.529199481E-1,-1.025112987E0,-3.288864374E0
9.689601823E0,6.049830914E-1,-1.185967803E0,-3.476351023E0
9.694667656E0,5.815473199E-1,-1.259470940E0,-3.623357296E0
9.699731458E0,5.772863030E-1,-1.290363669E0,-3.716035128E0
9.704795208E0,5.794167519E-1,-1.299950957E0,-3.751188755E0
9.709859011E0,5.858083963E-1,-1.221121550E0,-3.691534042E0
9.714922813E0,5.879388452E-1,-1.092224598E0,-3.528548717E0
9.719986615E0,5.996568203E-1,-9.867635965E-1,-3.263298273E0
9.725051719E0,6.390715837E-1,-8.674540520E-1,-2.891521215E0
9.730115469E0,7.019220591E-1,-7.108603120E-1,-2.443045378E0
9.735179271E0,7.796863317E-1,-5.329613090E-1,-1.962611556E0
9.740243021E0,8.989958167E-1,-3.124517798E-1,-1.480047107E0
9.745306823E0,1.061981082E0,-3.654852509E-2,-1.049680710E0
9.750370625E0,1.236684322E0,2.350936532E-1,-7.290363908E-1
9.755433646E0,1.413518071E0,4.779737592E-1,-5.372889638E-1
9.760497448E0,1.577568650E0,6.004790068E-1,-4.435457885E-1
9.765561198E0,1.695812941E0,5.450853109E-1,-4.296973646E-1
9.770625000E0,1.748010755E0,3.437505364E-1,-4.829605222E-1
9.775688802E0,1.746945620E0,8.169572800E-2,-5.522026420E-1
9.780752604E0,1.700073957E0,-1.739675254E-1,-6.118574142E-1
9.785816875E0,1.615918159E0,-4.253696799E-1,-6.917521954E-1
9.790880677E0,1.521109700E0,-7.023382187E-1,-7.982785106E-1
9.795944479E0,1.436953902E0,-9.835677743E-1,-9.293059111E-1
9.801008229E0,1.383690715E0,-1.183837295E0,-1.052876472E0
9.806072031E0,1.343210697E0,-1.297820449E0,-1.125314474E0
9.811135833E0,1.282490611E0,-1.369193196E0,-1.165794492E0
9.816199375E0,1.207922101E0,-1.339365721E0,-1.193491340E0
9.821263177E0,1.136549592E0,-1.229643583E0,-1.189230204E0
9.826326927E0,1.054524183E0,-1.082637191E0,-1.159402847E0
9.831390781E0,9.490631819E-1,-9.473488331E-1,-1.134901762E0
9.836454531E0,8.372105360E-1,-8.291046023E-1,-1.095487118E0
9.841518333E0,7.157705426E-1,-7.470793128E-1,-1.070985913E0
9.846546146E0,5.975262523E-1,-7.236435413E-1,-1.070985913E0
9.851609948E0,4.941957295E-1,-7.705150843E-1,-1.091225982E0
9.856673750E0,4.057788551E-1,-8.493446112E-1,-1.112531304E0
9.861737552E0,3.248188496E-1,-9.430878162E-1,-1.113596559E0
9.866801302E0,2.555767298E-1,-1.058136106E0,-1.148750186E0
9.871865104E0,1.895303428E-1,-1.141226768E0,-1.101878643E0
9.876965104E0,1.362671703E-1,-1.206207752E0,-1.000678539E0
9.882028906E0,1.032439992E-1,-1.195555210E0,-8.941522241E-1
9.887092656E0,9.046084434E-2,-1.131639481E0,-7.972132564E-1
9.892156458E0,9.259136766E-2,-1.044287801E0,-7.098616362E-1
9.897220261E0,1.053745300E-1,-9.409572482E-1,-6.161184907E-1
9.902284063E0,1.245492697E-1,-8.546709418E-1,-5.191795230E-1
9.907347083E0,1.352019012E-1,-7.811677456E-1,-4.265015423E-1
9.912410833E0,1.341366321E-1,-7.140561342E-1,-3.338236511E-1
9.917474583E0,1.277450621E-1,-6.820982099E-1,-2.443414778E-1
9.922538386E0,1.245492697E-1,-7.002077103E-1,-1.569898725E-1
9.927602188E0,1.075050533E-1,-6.927508712E-1,-7.602985203E-2
9.932665990E0,7.874293625E-2,-6.618582606E-1,5.995436572E-3
9.937730052E0,3.719767183E-2,-6.490750313E-1,8.802072704E-2
9.942793854E0,-1.286971476E-2,-6.181824207E-1,2.169176191E-1
9.947857604E0,-5.761078000E-2,-5.840939879E-1,3.735113442E-1
9.952921406E0,-1.044823825E-1,-5.681149960E-1,5.066692829E-1
9.957985208E0,-1.407013386E-1,-5.766371489E-1,6.291745901E-1
9.963049011E0,-1.673329324E-1,-5.819634795E-1,7.314398885E-1
9.968111198E0,-1.907687336E-1,-5.819634795E-1,8.081388474E-1
9.973175000E0,-2.174003124E-1,-5.840939879E-1,8.784462214E-1
9.978238750E0,-2.429666370E-1,-5.851592422E-1,9.519494176E-1
9.983302552E0,-2.600108087E-1,-5.883550644E-1,1.019061089E0
9.988366354E0,-2.759897709E-1,-5.872897506E-1,1.081911564E0
9.993430156E0,-2.855771482E-1,-5.819634795E-1,1.140501142E0
9.998484323E0,-2.994255722E-1,-5.808982253E-1,1.195894718E0
1.000354812E1,-3.122087419E-1,-5.840939879E-1,1.250223279E0
1.000861193E1,-3.335140049E-1,-5.958119035E-1,1.298160076E0
1.001367573E1,-3.569498062E-1,-6.139213443E-1,1.339705348E0
1.001873948E1,-3.793203533E-1,-6.405529380E-1,1.375924349E0
1.002380328E1,-4.059519470E-1,-6.842287779E-1,1.404686451E0
1.002887906E1,-4.336487651E-1,-7.374919057E-1,1.418534756E0
1.003394281E1,-4.592151046E-1,-7.907550931E-1,1.415339112E0
1.003900662E1,-4.837161601E-1,-8.365614414E-1,1.395099044E0
1.004407037E1,-4.975645840E-1,-8.599972129E-1,1.343966484E0
1.004913417E1,-5.018256903E-1,-8.472141027E-1,1.250223279E0
1.005419797E1,-4.869119525E-1,-8.014077544E-1,1.118130445E0
1.005926156E1,-4.549540579E-1,-7.279045582E-1,9.466230869E-1
1.006432531E1,-4.123435020E-1,-6.394876838E-1,7.420925498E-1
1.006938912E1,-3.494929671E-1,-5.468097925E-1,5.141261220E-1
1.007445287E1,-2.717287242E-1,-4.583928883E-1,2.850944698E-1
1.007951667E1,-2.014213651E-1,-3.646496832E-1,8.269441128E-2
1.008458047E1,-1.502887160E-1,-2.709065080E-1,-9.520459920E-2
1.008962120E1,-1.247223839E-1,-1.984685808E-1,-2.624509931E-1
1.009468500E1,-1.300487071E-1,-1.643801630E-1,-4.233057499E-1
1.009974880E1,-1.545497626E-1,-1.579885781E-1,-5.692468882E-1
1.010481255E1,-1.705287248E-1,-1.547927856E-1,-6.842953563E-1
1.010987635E1,-1.715939790E-1,-1.473359317E-1,-7.418195605E-1
1.011494016E1,-1.449623853E-1,-1.430748850E-1,-7.439500690E-1
1.012002677E1,-9.596027434E-2,-1.579885781E-1,-7.034701109E-1
1.012509052E1,-3.524024785E-2,-1.665106863E-1,-6.427500844E-1
1.013015432E1,2.654503658E-2,-1.633148938E-1,-5.777689815E-1
1.013521807E1,6.595978141E-2,-1.515969932E-1,-5.234405398E-1
1.014028188E1,7.235135883E-2,-9.300749004E-2,-4.850910306E-1
