"Time (s)","Gyroscope x (rad/s)","Gyroscope y (rad/s)","Gyroscope z (rad/s)"
8.385138000E-2,-2.839317620E-1,3.981615603E-2,-6.412433088E-2
8.633968700E-2,-2.764822841E-1,5.365075544E-2,-6.412433088E-2
8.882776400E-2,-2.690329254E-1,6.642124057E-2,-6.625270098E-2
9.131599500E-2,-2.541339397E-1,7.706335187E-2,-6.731694937E-2
9.380432700E-2,-2.402993292E-1,8.451283723E-2,-7.157368958E-2
9.629240400E-2,-2.254003435E-1,9.089808166E-2,-7.689481229E-2
9.878063500E-2,-2.105015069E-1,9.621907026E-2,-8.221580088E-2
1.012687110E-1,-1.913457811E-1,1.004759446E-1,-8.753678948E-2
1.037570190E-1,-1.785752922E-1,1.015401930E-1,-9.285791218E-2
1.062452680E-1,-1.679331809E-1,1.079253033E-1,-9.817890078E-2
1.087333450E-1,-1.498417109E-1,1.100538000E-1,-1.013715193E-1
1.112215760E-1,-1.391995996E-1,1.121821702E-1,-1.035000235E-1
1.137098830E-1,-1.285574883E-1,1.175032929E-1,-1.056283936E-1
1.161979600E-1,-1.221722513E-1,1.217600331E-1,-1.024357751E-1
1.186862010E-1,-1.136586368E-1,1.302737743E-1,-1.024357751E-1
1.211745090E-1,-1.072733998E-1,1.377231330E-1,-9.924315661E-2
1.236625860E-1,-1.051448956E-1,1.419800073E-1,-9.392203391E-2
1.261508160E-1,-9.982390702E-2,1.515578628E-1,-9.285791218E-2
1.286388930E-1,-9.450291842E-2,1.600714773E-1,-9.392203391E-2
1.311272290E-1,-9.450291842E-2,1.664568484E-1,-8.966529369E-2
1.336154600E-1,-9.024604410E-2,1.770988256E-1,-8.647267520E-2
1.361035370E-1,-8.492505550E-2,1.866766959E-1,-8.647267520E-2
1.385917680E-1,-7.747556269E-2,1.941261739E-1,-8.753678948E-2
1.410800750E-1,-7.641131431E-2,2.015756667E-1,-9.072940797E-2
1.435681720E-1,-6.896195561E-2,2.068966627E-1,-9.711465240E-2
1.460564030E-1,-6.364083290E-2,2.154102772E-1,-1.035000235E-1
1.485447110E-1,-5.193460360E-2,2.249881327E-1,-1.088210121E-1
1.510327880E-1,-4.129249230E-2,2.345659882E-1,-1.162705049E-1
1.535210180E-1,-2.426514030E-2,2.452080995E-1,-1.247841120E-1
1.560091290E-1,-6.173669361E-3,2.547859550E-1,-1.301051080E-1
1.584974370E-1,5.532427225E-3,2.622354627E-1,-1.375546008E-1
1.609856680E-1,1.830304228E-2,2.728775740E-1,-1.471324563E-1
1.634737450E-1,3.533026204E-2,2.856480479E-1,-1.492608190E-1
1.659619750E-1,5.342186615E-2,2.962900400E-1,-1.577745676E-1
1.684503350E-1,6.619234383E-2,3.037395179E-1,-1.673524231E-1
1.709384120E-1,7.896282524E-2,3.090605140E-1,-1.716091633E-1
1.734264120E-1,8.960480243E-2,3.143816292E-1,-1.737376750E-1
1.759149510E-1,1.045037881E-1,3.218309879E-1,-1.801229119E-1
1.784029510E-1,1.140816510E-1,3.303447366E-1,-1.865081489E-1
1.808912770E-1,1.183385178E-1,3.441794813E-1,-1.907648891E-1
1.833793540E-1,1.247237623E-1,3.580140769E-1,-1.982143819E-1
1.858676620E-1,1.332373768E-1,3.686561882E-1,-2.067279965E-1
1.883558930E-1,1.289805025E-1,3.782340288E-1,-2.120491117E-1
1.908439700E-1,1.257878840E-1,3.846192658E-1,-2.173701078E-1
1.933322190E-1,1.268521249E-1,3.899404109E-1,-2.205627263E-1
1.958205270E-1,1.268521249E-1,3.952613771E-1,-2.280122191E-1
1.983086040E-1,1.225952581E-1,4.016466439E-1,-2.301405817E-1
2.007966040E-1,1.183385178E-1,4.122887552E-1,-2.333332002E-1
2.032851420E-1,1.172742695E-1,4.165454805E-1,-2.397184521E-1
2.057732420E-1,1.183385178E-1,4.239949882E-1,-2.450395674E-1
2.082612420E-1,1.172742695E-1,4.325085878E-1,-2.535531819E-1
2.107497810E-1,1.204668880E-1,4.357011914E-1,-2.588742971E-1
2.132377810E-1,1.247237623E-1,4.420864582E-1,-2.673878968E-1
2.157258580E-1,1.321731210E-1,4.442149401E-1,-2.769657671E-1
2.182142000E-1,1.417509764E-1,4.442149401E-1,-2.844152749E-1
2.207024300E-1,1.481362283E-1,4.474075735E-1,-2.950572371E-1
2.231907380E-1,1.545214653E-1,4.527285695E-1,-3.003783524E-1
2.256788150E-1,1.619709581E-1,4.527285695E-1,-3.078277111E-1
2.281668150E-1,1.672919393E-1,4.495359361E-1,-3.163414598E-1
2.306554060E-1,1.715488136E-1,4.442149401E-1,-3.237909675E-1
2.331434060E-1,1.811266690E-1,4.367654622E-1,-3.291119337E-1
2.356317140E-1,1.864477992E-1,4.239949882E-1,-3.365612924E-1
2.381197910E-1,1.917687804E-1,4.176097214E-1,-3.429465592E-1
2.406080990E-1,1.960256547E-1,4.048392475E-1,-3.450750411E-1
2.430961370E-1,2.024109066E-1,3.920687735E-1,-3.461391628E-1
2.455844440E-1,2.077318877E-1,3.792982996E-1,-3.482676744E-1
2.480726750E-1,2.098602504E-1,3.718487918E-1,-3.503960371E-1
2.505607520E-1,2.098602504E-1,3.675919175E-1,-3.493319154E-1
2.530489830E-1,2.087961435E-1,3.697204292E-1,-3.440108001E-1
2.555370170E-1,2.130528837E-1,3.675919175E-1,-3.354972005E-1
2.580255550E-1,2.130528837E-1,3.707845509E-1,-3.323045671E-1
2.605136320E-1,2.151813805E-1,3.750414252E-1,-3.205983341E-1
2.630016320E-1,2.194381207E-1,3.835550249E-1,-3.088919818E-1
2.654899400E-1,2.162455022E-1,3.941971362E-1,-2.982499897E-1
2.679781710E-1,2.151813805E-1,3.995182514E-1,-2.865436375E-1
2.704662480E-1,2.151813805E-1,4.112244844E-1,-2.801584005E-1
2.729545550E-1,2.162455022E-1,4.250592291E-1,-2.673878968E-1
2.754427860E-1,2.130528837E-1,4.399580657E-1,-2.567457855E-1
2.779310940E-1,2.130528837E-1,4.559211731E-1,-2.482321858E-1
2.804191320E-1,2.109245062E-1,4.718842804E-1,-2.375900745E-1
2.829072090E-1,2.141171247E-1,4.931683540E-1,-2.343974560E-1
2.853957470E-1,2.151813805E-1,5.155166984E-1,-2.280122191E-1
2.878837470E-1,2.130528837E-1,5.357367992E-1,-2.280122191E-1
2.903718240E-1,2.141171247E-1,5.591492653E-1,-2.290764600E-1
2.928601370E-1,2.205023766E-1,5.783051252E-1,-2.343974560E-1
2.953483680E-1,2.236949950E-1,5.889471173E-1,-2.418469489E-1
2.978364450E-1,2.322085947E-1,6.027818322E-1,-2.461036891E-1
3.003246750E-1,2.385938466E-1,6.123597026E-1,-2.535531819E-1
3.028129830E-1,2.471075803E-1,6.240659356E-1,-2.631310523E-1
3.053010500E-1,2.577497065E-1,6.347080469E-1,-2.769657671E-1
3.077892810E-1,2.705201805E-1,6.410933137E-1,-2.929288745E-1
3.102773580E-1,2.843547761E-1,6.400290132E-1,-3.088919818E-1
3.127656650E-1,2.960611284E-1,6.336438060E-1,-3.312403262E-1
3.152539730E-1,3.045747578E-1,6.230016947E-1,-3.450750411E-1
3.177419880E-1,3.098957241E-1,6.006533504E-1,-3.674233854E-1
3.202302960E-1,3.152168691E-1,5.697913766E-1,-3.844507337E-1
3.227185270E-1,3.162809908E-1,5.389292836E-1,-3.982854784E-1
3.252066030E-1,3.130883574E-1,5.016821027E-1,-4.131843150E-1
3.276949110E-1,3.098957241E-1,4.527285695E-1,-4.248905480E-1
3.301831510E-1,3.056389987E-1,4.027108848E-1,-4.344684184E-1
3.326714590E-1,2.939326465E-1,3.516288400E-1,-4.419178963E-1
3.351594590E-1,2.779695392E-1,2.941616476E-1,-4.461747706E-1
3.376475360E-1,2.588137984E-1,2.409512401E-1,-4.504315257E-1
3.401358590E-1,2.385938466E-1,1.909335554E-1,-4.504315257E-1
3.426240900E-1,2.151813805E-1,1.462368816E-1,-4.429820180E-1
3.451121670E-1,1.896404177E-1,1.026043147E-1,-4.323400557E-1
3.476004750E-1,1.651635766E-1,6.216450036E-2,-4.238264263E-1
3.500887050E-1,1.353657395E-1,2.598142438E-2,-4.078633487E-1
3.525770170E-1,1.013111696E-1,-1.020151656E-2,-3.919000924E-1
3.550650940E-1,7.364170253E-2,-3.680672869E-2,-3.727443814E-1
3.575533250E-1,4.597237334E-2,-5.702656880E-2,-3.535886705E-1
3.600414020E-1,1.404616982E-2,-7.618242502E-2,-3.301762044E-1
3.625295810E-1,-1.149465889E-2,-9.320964664E-2,-3.056993484E-1
3.650178880E-1,-4.022824019E-2,-1.070443764E-1,-2.844152749E-1
3.675059650E-1,-6.683345139E-2,-1.166222394E-1,-2.578100562E-1
3.699941960E-1,-9.450291842E-2,-1.262000948E-1,-2.312048376E-1
3.724822730E-1,-1.211079955E-1,-1.304569691E-1,-2.067279965E-1
3.749706000E-1,-1.509058326E-1,-1.336495876E-1,-1.843796521E-1
3.774588300E-1,-1.785752922E-1,-1.389705837E-1,-1.620313078E-1
3.799469070E-1,-2.073088735E-1,-1.410989463E-1,-1.428755820E-1
3.824352150E-1,-2.307214737E-1,-1.464200765E-1,-1.269124895E-1
3.849234460E-1,-2.605191767E-1,-1.559979320E-1,-1.173346266E-1
3.874115370E-1,-2.913812697E-1,-1.645115465E-1,-1.066925153E-1
3.898997670E-1,-3.179864585E-1,-1.751536578E-1,-1.003072709E-1
3.923880750E-1,-3.435274363E-1,-1.879241318E-1,-9.817890078E-2
3.948761520E-1,-3.680041432E-1,-2.038872391E-1,-9.817890078E-2
3.973643830E-1,-3.935451210E-1,-2.241072059E-1,-9.817890078E-2
3.998524650E-1,-4.169577062E-1,-2.432629317E-1,-1.024357751E-1
4.023407720E-1,-4.361134171E-1,-2.634828985E-1,-1.066925153E-1
4.048290030E-1,-4.552691281E-1,-2.858312428E-1,-1.141420007E-1
4.073173110E-1,-4.691038728E-1,-3.071153462E-1,-1.194631234E-1
4.098053880E-1,-4.797459841E-1,-3.283995688E-1,-1.258483678E-1
4.122936240E-1,-4.967733324E-1,-3.539405167E-1,-1.332977265E-1
4.147817010E-1,-5.010300875E-1,-3.709678650E-1,-1.407472193E-1
4.172699310E-1,-5.084794164E-1,-3.890593350E-1,-1.450040936E-1
4.197582390E-1,-5.159289241E-1,-4.103434384E-1,-1.481967121E-1
4.222463160E-1,-5.127363205E-1,-4.273707867E-1,-1.503250748E-1
4.247345280E-1,-5.084794164E-1,-4.390770197E-1,-1.503250748E-1
4.272228350E-1,-5.063510537E-1,-4.539760053E-1,-1.492608190E-1
4.297109120E-1,-4.989016950E-1,-4.699391127E-1,-1.460682005E-1
4.321991430E-1,-4.935805798E-1,-4.859021902E-1,-1.396829635E-1
4.346872200E-1,-4.935805798E-1,-5.008010268E-1,-1.311693490E-1
4.371754890E-1,-4.893238544E-1,-5.114431381E-1,-1.237198636E-1
4.396637200E-1,-4.850669801E-1,-5.252779126E-1,-1.120136380E-1
4.421517970E-1,-4.829386175E-1,-5.380483866E-1,-1.013715193E-1
4.446400270E-1,-4.829386175E-1,-5.465620160E-1,-8.966529369E-2
4.471283350E-1,-4.797459841E-1,-5.550757051E-1,-7.476630807E-2
4.496164550E-1,-4.797459841E-1,-5.603967309E-1,-5.880320817E-2
4.521046860E-1,-4.786817431E-1,-5.646535754E-1,-3.645486757E-2
4.545927630E-1,-4.765533805E-1,-5.646535754E-1,-1.836339571E-2
4.570810700E-1,-4.733607471E-1,-5.603967309E-1,1.856444171E-3
4.595693010E-1,-4.691038728E-1,-5.593324900E-1,2.207641676E-2
4.620573500E-1,-4.691038728E-1,-5.497546196E-1,4.229625687E-2
4.645456580E-1,-4.691038728E-1,-5.369841456E-1,6.464473158E-2
4.670338880E-1,-4.712322354E-1,-5.231493711E-1,8.380044997E-2
4.695219650E-1,-4.691038728E-1,-5.082505345E-1,1.018919200E-1
4.720102730E-1,-4.605902731E-1,-4.954800606E-1,1.199835241E-1
4.744984840E-1,-4.637828767E-1,-4.848379493E-1,1.338181198E-1
4.769865610E-1,-4.573975205E-1,-4.731317163E-1,1.455244869E-1
4.794747920E-1,-4.510124028E-1,-4.603612423E-1,1.497812271E-1
4.819630990E-1,-4.456912875E-1,-4.486550093E-1,1.572307199E-1
4.844511760E-1,-4.403702915E-1,-4.369486570E-1,1.593590826E-1
4.869394120E-1,-4.329208136E-1,-4.284350276E-1,1.582949758E-1
4.894274890E-1,-4.275998175E-1,-4.167286754E-1,1.625517160E-1
4.919157970E-1,-4.180219471E-1,-4.071508050E-1,1.636159569E-1
4.944040270E-1,-4.073798358E-1,-4.007655680E-1,1.625517160E-1
4.968921040E-1,-3.967377245E-1,-3.911877275E-1,1.625517160E-1
4.993804120E-1,-3.860957623E-1,-3.816098571E-1,1.604233384E-1
5.018687200E-1,-3.765178919E-1,-3.709678650E-1,1.540381014E-1
5.043567200E-1,-3.658757806E-1,-3.613898754E-1,1.519097239E-1
5.068449510E-1,-3.531053066E-1,-3.518120050E-1,1.444602311E-1
5.093332580E-1,-3.424631953E-1,-3.422341645E-1,1.391392499E-1
5.118213350E-1,-3.318212032E-1,-3.411700428E-1,1.370107532E-1
5.143095660E-1,-3.222432137E-1,-3.358489275E-1,1.348823756E-1
5.167976430E-1,-3.105369806E-1,-3.315921724E-1,1.295613945E-1
5.192859510E-1,-2.988307476E-1,-3.337205350E-1,1.284971386E-1
5.217742580E-1,-2.881886363E-1,-3.294636905E-1,1.274328828E-1
5.242622580E-1,-2.722255290E-1,-3.252069354E-1,1.263687611E-1
5.267505660E-1,-2.594550550E-1,-3.209500611E-1,1.242402643E-1
5.292387970E-1,-2.498770654E-1,-3.145648241E-1,1.221118942E-1
5.317268740E-1,-2.392350882E-1,-3.113722205E-1,1.221118942E-1
5.342151040E-1,-2.275288552E-1,-3.017943501E-1,1.263687611E-1
5.367033970E-1,-2.147582322E-1,-2.932807207E-1,1.295613945E-1
5.391914740E-1,-1.977310181E-1,-2.837028801E-1,1.359466314E-1
5.416797050E-1,-1.838962883E-1,-2.741248906E-1,1.433959901E-1
5.441677820E-1,-1.721900553E-1,-2.602902949E-1,1.508454829E-1
5.466560890E-1,-1.594195813E-1,-2.432629317E-1,1.604233384E-1
5.491443050E-1,-1.509058326E-1,-2.241072059E-1,1.742580682E-1
5.516323820E-1,-1.360069811E-1,-2.038872391E-1,1.838359386E-1
5.541206900E-1,-1.232364997E-1,-1.804746389E-1,1.923495382E-1
5.566089980E-1,-1.125943884E-1,-1.613189131E-1,1.997990310E-1
5.590969980E-1,-9.982390702E-2,-1.432274431E-1,2.115052640E-1
5.615852620E-1,-9.237441421E-2,-1.293927133E-1,2.200190127E-1
5.640735700E-1,-8.811768144E-2,-1.123653650E-1,2.274683714E-1
5.665616470E-1,-7.960393280E-2,-9.746651351E-2,2.327894866E-1
5.690498780E-1,-7.747556269E-2,-8.150341362E-2,2.381104827E-1
5.715381850E-1,-6.896195561E-2,-6.979718059E-2,2.466240823E-1
5.740262520E-1,-6.257671863E-2,-6.021919101E-2,2.508809566E-1
5.765145600E-1,-5.619134381E-2,-5.170558020E-2,2.551378310E-1
5.790025600E-1,-5.406297371E-2,-4.106346890E-2,2.583304644E-1
5.814908680E-1,-5.512722582E-2,-3.254985809E-2,2.604588270E-1
5.839790990E-1,-5.087541416E-2,-3.148840368E-2,2.594046891E-1
5.864671610E-1,-5.300378427E-2,-3.042415343E-2,2.572761774E-1
5.889554690E-1,-5.193953216E-2,-2.829578519E-2,2.540835738E-1
5.914437000E-1,-5.193953216E-2,-3.574514389E-2,2.487625778E-1
5.939317770E-1,-5.513215438E-2,-3.680939600E-2,2.402489781E-1
5.964200850E-1,-5.938902497E-2,-4.319463298E-2,2.338637263E-1
5.989080610E-1,-6.045327708E-2,-5.277249590E-2,2.221573740E-1
6.013963680E-1,-6.471001357E-2,-6.128610671E-2,2.147080153E-1
6.038846760E-1,-6.577426940E-2,-7.192821801E-2,2.040659040E-1
6.063726760E-1,-7.215950638E-2,-8.257032931E-2,1.944880337E-1
6.088612140E-1,-7.748049498E-2,-9.214819223E-2,1.859742999E-1
6.113492810E-1,-8.599423617E-2,-9.853342921E-2,1.732038110E-1
6.138372810E-1,-9.025097638E-2,-1.070470437E-1,1.657544523E-1
6.163258200E-1,-9.344359487E-2,-1.155607849E-1,1.604333371E-1
6.188138200E-1,-9.557209909E-2,-1.262027621E-1,1.529839784E-1
6.213018970E-1,-9.982883930E-2,-1.304596364E-1,1.476628482E-1
6.237901990E-1,-9.770046920E-2,-1.368448734E-1,1.444702297E-1
6.262784300E-1,-9.770046920E-2,-1.336522549E-1,1.434061080E-1
6.287667380E-1,-9.876471758E-2,-1.283312589E-1,1.434061080E-1
6.312547380E-1,-9.450785071E-2,-1.219460219E-1,1.434061080E-1
6.337428150E-1,-8.918686211E-2,-1.134322807E-1,1.444702297E-1
6.362313870E-1,-8.599423617E-2,-1.006617993E-1,1.412776113E-1
6.387193870E-1,-8.280161768E-2,-8.789131790E-2,1.434061080E-1
6.412076950E-1,-7.215950638E-2,-7.299246639E-2,1.434061080E-1
6.436957720E-1,-6.045327708E-2,-5.702936649E-2,1.434061080E-1
6.461840800E-1,-5.619640648E-2,-4.425888509E-2,1.423418671E-1
6.486722960E-1,-4.874691367E-2,-2.829578519E-2,1.423418671E-1
6.511603730E-1,-3.704068437E-2,-1.020418108E-2,1.380849928E-1
6.536486040E-1,-2.639857121E-2,2.566166921E-3,1.370208710E-1
6.561369120E-1,-1.362809073E-2,1.852926798E-2,1.327639967E-1
6.586249120E-1,-5.114480853E-3,3.662073985E-2,1.263787597E-1
6.611132050E-1,7.655866910E-3,5.258383974E-2,1.263787597E-1
6.636015120E-1,1.829797961E-2,7.067544013E-2,1.231861413E-1
6.660895890E-1,2.787583880E-2,9.302378446E-2,1.178650185E-1
6.685778200E-1,4.171057045E-2,1.143078730E-1,1.146724001E-1
6.710658970E-1,5.235268548E-2,1.313352287E-1,1.104156598E-1
6.735541950E-1,6.086629257E-2,1.494268328E-1,1.093514040E-1
6.760421950E-1,7.257252187E-2,1.728392988E-1,1.040304154E-1
6.785305020E-1,8.002201468E-2,1.941235214E-1,9.977354854E-2
6.810188100E-1,9.066412598E-2,2.143433541E-1,9.445255995E-2
6.835070410E-1,1.023703590E-1,2.356275767E-1,8.593881130E-2
6.859950460E-1,1.098198518E-1,2.590401769E-1,8.168207854E-2
6.884833530E-1,1.151408404E-1,2.771316469E-1,7.636095583E-2
6.909714300E-1,1.225903332E-1,2.941589952E-1,6.571897864E-2
6.934597380E-1,1.300398260E-1,3.079937398E-1,5.401261151E-2
6.959477380E-1,1.353608072E-1,3.196999431E-1,4.549900070E-2
6.984362820E-1,1.417460442E-1,3.303420842E-1,3.698539361E-2
7.009243590E-1,1.481312960E-1,3.388556838E-1,2.634328045E-2
7.034125890E-1,1.545165330E-1,3.484335542E-1,1.038017962E-2
7.059006660E-1,1.619660258E-1,3.590756655E-1,-2.390168607E-3
7.083889740E-1,1.715438813E-1,3.686535060E-1,-1.196802966E-2
7.108771860E-1,1.768648773E-1,3.846166134E-1,-1.941752061E-2
7.133652630E-1,1.853786111E-1,4.048365951E-1,-2.686701342E-2
7.158534930E-1,1.928279698E-1,4.261206686E-1,-3.750899062E-2
7.183418010E-1,1.981490999E-1,4.495332837E-1,-4.602273554E-2
7.208298780E-1,2.066627145E-1,4.697532356E-1,-5.240797624E-2
7.233180800E-1,2.130479515E-1,4.867804646E-1,-5.985746533E-2
7.258063870E-1,2.204974443E-1,5.070004463E-1,-6.411420554E-2
7.282943880E-1,2.236900628E-1,5.261561871E-1,-6.943532825E-2
7.307826950E-1,2.300752997E-1,5.421192646E-1,-7.262794673E-2
7.332710030E-1,2.332679182E-1,5.623391271E-1,-7.582056522E-2
7.357590850E-1,2.428457886E-1,5.889443159E-1,-8.220580965E-2
7.382473160E-1,2.502951324E-1,6.123569012E-1,-8.433417976E-2
7.407353930E-1,2.566803694E-1,6.400262117E-1,-8.539842814E-2
7.432236230E-1,2.662583888E-1,6.730168462E-1,-9.071941674E-2
7.457119310E-1,2.747719884E-1,7.060071230E-1,-9.604040533E-2
7.482000370E-1,2.907350957E-1,7.379333377E-1,-9.710466117E-2
7.506882680E-1,3.024413288E-1,7.730522752E-1,-9.604040533E-2
7.531765750E-1,3.141476810E-1,8.092352152E-1,-1.002972797E-1
7.556646520E-1,3.301107883E-1,8.464825749E-1,-9.497629106E-2
7.581528830E-1,3.450096250E-1,8.826656342E-1,-9.284778684E-2
7.606412060E-1,3.641653657E-1,9.177844524E-1,-9.710466117E-2
7.631292830E-1,3.822569549E-1,9.560959339E-1,-1.002972797E-1
7.656175140E-1,3.960915506E-1,9.901504517E-1,-1.013615280E-1
7.681055900E-1,4.216326475E-1,1.019948363E0,-1.056182683E-1
7.705938980E-1,4.450451136E-1,1.048681974E0,-1.109393910E-1
7.730821190E-1,4.705860615E-1,1.077415586E0,-1.183888838E-1
7.755701960E-1,4.982555509E-1,1.107213497E0,-1.247741207E-1
7.780584270E-1,5.291174650E-1,1.140203714E0,-1.322234869E-1
7.805467340E-1,5.610437989E-1,1.174258471E0,-1.418013424E-1
7.830348110E-1,5.919057727E-1,1.213634014E0,-1.492508352E-1
7.855230470E-1,6.323457360E-1,1.255138278E0,-1.577644497E-1
7.880113550E-1,6.749138832E-1,1.303027511E0,-1.684065610E-1
7.904994320E-1,7.142896056E-1,1.358366251E0,-1.769201607E-1
7.929876620E-1,7.589862943E-1,1.420090318E0,-1.864980310E-1
7.954757390E-1,8.079398274E-1,1.477557540E0,-1.950117648E-1
7.979640470E-1,8.579574823E-1,1.539281607E0,-2.013970166E-1
8.004522780E-1,9.047827125E-1,1.598877072E0,-2.045896351E-1
8.029403550E-1,9.537362456E-1,1.653151631E0,-2.088463753E-1
8.054285860E-1,1.003753901E0,1.709554791E0,-2.173601091E-1
8.079168930E-1,1.046322346E0,1.758508205E0,-2.237453461E-1
8.104049750E-1,1.085697889E0,1.797883987E0,-2.311948389E-1
8.128932060E-1,1.127202153E0,1.839388013E0,-2.429010719E-1
8.153815140E-1,1.166577816E0,1.872378469E0,-2.524789274E-1
8.178695910E-1,1.203824997E0,1.893662572E0,-2.641851604E-1
8.203578210E-1,1.233622909E0,1.911754012E0,-2.812125087E-1
8.228459110E-1,1.258099556E0,1.928781390E0,-2.950472534E-1
8.253342190E-1,1.285768986E0,1.943680406E0,-3.067534864E-1
8.278224500E-1,1.305988908E0,1.950065494E0,-3.195239604E-1
8.303105270E-1,1.327273130E0,1.952194095E0,-3.354870677E-1
8.327988340E-1,1.348557234E0,1.954322457E0,-3.461291790E-1
8.352870520E-1,1.363456130E0,1.961771846E0,-3.599638939E-1
8.377751290E-1,1.376226664E0,1.968157172E0,-3.727343976E-1
8.402633600E-1,1.387932897E0,1.974542260E0,-3.865691125E-1
8.427516680E-1,1.400703311E0,1.986248612E0,-4.046605825E-1
8.452397440E-1,1.413473845E0,1.993698001E0,-4.184953272E-1
8.477280370E-1,1.427308559E0,1.999019027E0,-4.344584346E-1
8.502162680E-1,1.432629704E0,1.999019027E0,-4.504215121E-1
8.527045760E-1,1.437950730E0,1.999019027E0,-4.653204978E-1
8.551925760E-1,1.437950730E0,1.996890664E0,-4.780908525E-1
8.576806530E-1,1.436886430E0,1.986248612E0,-4.855403602E-1
8.601689790E-1,1.435822129E0,1.981991768E0,-4.876687229E-1
8.626572100E-1,1.430501223E0,1.972413898E0,-4.855403602E-1
8.651455180E-1,1.418794990E0,1.961771846E0,-4.812834859E-1
8.676335950E-1,1.410281181E0,1.945808768E0,-4.738341272E-1
8.701218250E-1,1.399639130E0,1.927717209E0,-4.578710198E-1
8.726101420E-1,1.388997078E0,1.893662572E0,-4.376510382E-1
8.750982190E-1,1.375162363E0,1.861736298E0,-4.195595682E-1
8.775864500E-1,1.356006622E0,1.827681661E0,-3.961469829E-1
8.800747580E-1,1.334722638E0,1.785113454E0,-3.737986386E-1
8.825627580E-1,1.311309814E0,1.730838895E0,-3.503860533E-1
8.850510560E-1,1.282576442E0,1.675500154E0,-3.269734383E-1
8.875393640E-1,1.249585986E0,1.615904450E0,-3.046251237E-1
8.900273640E-1,1.215531349E0,1.552052021E0,-2.812125087E-1
8.925156720E-1,1.176155567E0,1.490327954E0,-2.663136721E-1
8.950036720E-1,1.137844086E0,1.428604007E0,-2.546072900E-1
8.974920600E-1,1.096340060E0,1.370072603E0,-2.492863089E-1
8.999802910E-1,1.050579190E0,1.315798044E0,-2.482220680E-1
9.024683680E-1,1.002689838E0,1.258330822E0,-2.439653277E-1
9.049566760E-1,9.558647275E-1,1.195542574E0,-2.365158349E-1
9.074449060E-1,9.101037979E-1,1.145524859E0,-2.397084534E-1
9.099329250E-1,8.622143865E-1,1.096571326E0,-2.429010719E-1
9.124212330E-1,8.121967316E-1,1.051874518E0,-2.450294495E-1
9.149095410E-1,7.664358020E-1,1.013563156E0,-2.482220680E-1
9.173976180E-1,7.270600796E-1,9.848294854E-1,-2.556715608E-1
9.198858490E-1,6.823633909E-1,9.635453820E-1,-2.620567977E-1
9.223739410E-1,6.429877281E-1,9.465180635E-1,-2.663136721E-1
9.248622480E-1,6.078688502E-1,9.337475896E-1,-2.695062757E-1
9.273504790E-1,5.770068169E-1,9.316192269E-1,-2.780199051E-1
9.298385560E-1,5.461448431E-1,9.380044341E-1,-2.865336239E-1
9.323268640E-1,5.152828693E-1,9.443897009E-1,-2.929188907E-1
9.348150940E-1,4.939986765E-1,9.518390298E-1,-2.993041277E-1
9.373031710E-1,4.705860615E-1,9.603527784E-1,-3.067534864E-1
9.397914020E-1,4.461093545E-1,9.763158560E-1,-3.173955977E-1
9.422797100E-1,4.269536436E-1,9.965357184E-1,-3.248450756E-1
9.447677870E-1,4.099262953E-1,1.015691519E0,-3.376155496E-1
9.472559880E-1,3.918348253E-1,1.033783078E0,-3.525144160E-1
9.497440650E-1,3.769358397E-1,1.060388088E0,-3.631565273E-1
9.522323730E-1,3.641653657E-1,1.082736611E0,-3.759270012E-1
9.547206040E-1,3.524591327E-1,1.107213497E0,-3.940184712E-1
9.572086810E-1,3.450096250E-1,1.128497481E0,-4.131742120E-1
9.596969800E-1,3.354317844E-1,1.156166911E0,-4.270089269E-1
9.621852100E-1,3.311749101E-1,1.183836222E0,-4.451005459E-1
9.646732870E-1,3.290465176E-1,1.208312869E0,-4.653204978E-1
9.671615180E-1,3.311749101E-1,1.241303444E0,-4.866046011E-1
9.696498260E-1,3.343676627E-1,1.268972874E0,-5.121454000E-1
9.721379210E-1,3.418170214E-1,1.295578003E0,-5.355580449E-1
9.746261510E-1,3.524591327E-1,1.321118951E0,-5.610991120E-1
9.771142280E-1,3.641653657E-1,1.342403173E0,-5.855758190E-1
9.796025360E-1,3.790643215E-1,1.366879940E0,-6.047315598E-1
9.820908110E-1,3.939631879E-1,1.391356707E0,-6.228230000E-1
9.845788110E-1,4.120546579E-1,1.414769411E0,-6.377220154E-1
9.870671180E-1,4.354672432E-1,1.437117577E0,-6.483641267E-1
9.895553490E-1,4.631367028E-1,1.450952291E0,-6.558134556E-1
9.920434260E-1,4.897419214E-1,1.459465981E0,-6.632629633E-1
9.945317440E-1,5.142186284E-1,1.467979670E0,-6.717765927E-1
9.970200520E-1,5.461448431E-1,1.477557540E0,-6.760334373E-1
9.995080520E-1,5.780711770E-1,1.480749965E0,-6.760334373E-1
1.001996359E0,6.057404876E-1,1.483942747E0,-6.749691963E-1
1.004484359E0,6.440519691E-1,1.489263773E0,-6.707123518E-1
1.006972680E0,6.812991500E-1,1.496713281E0,-6.600703597E-1
1.009460988E0,7.132253647E-1,1.513740420E0,-6.504924893E-1
1.011948988E0,7.536652684E-1,1.538217306E0,-6.345293522E-1
1.014437526E0,7.930409908E-1,1.566951036E0,-6.185662746E-1
1.016925526E0,8.398661613E-1,1.604198098E0,-6.004748344E-1
1.019413623E0,8.781774640E-1,1.638252854E0,-5.738695860E-1
1.021901931E0,9.186174273E-1,1.670179009E0,-5.493927598E-1
1.024390162E0,9.665067196E-1,1.707426310E0,-5.259801745E-1
1.026878238E0,1.006946683E0,1.740416646E0,-5.004391670E-1
1.029366546E0,1.044193864E0,1.771278739E0,-4.802193642E-1
1.031854777E0,1.089954853E0,1.804269195E0,-4.653204978E-1
1.034343085E0,1.130394697E0,1.834066868E0,-4.621277452E-1
1.036831162E0,1.168706179E0,1.852158427E0,-4.631920159E-1
1.039319162E0,1.208081841E0,1.865993261E0,-4.685129821E-1
1.041807469E0,1.245329022E0,1.871314168E0,-4.823477268E-1
1.044295719E0,1.282576442E0,1.868121505E0,-5.004391670E-1
1.046784027E0,1.318759322E0,1.867057323E0,-5.153381824E-1
1.049272334E0,1.350685716E0,1.862800479E0,-5.302370191E-1
1.051760334E0,1.384740353E0,1.860672116E0,-5.408791304E-1
1.054248642E0,1.414538145E0,1.847901583E0,-5.557779670E-1
1.056736714E0,1.437950730E0,1.834066868E0,-5.642917156E-1
1.059224945E0,1.457106352E0,1.822360635E0,-5.706769824E-1
1.061713253E0,1.472005367E0,1.811718702E0,-5.717411041E-1
1.064201329E0,1.478390455E0,1.797883987E0,-5.642917156E-1
1.066689560E0,1.482647419E0,1.778728127E0,-5.515212417E-1
1.069177878E0,1.479454756E0,1.763829350E0,-5.334296227E-1
1.071665955E0,1.470941186E0,1.747866273E0,-5.174665451E-1
1.074154186E0,1.466684222E0,1.738288283E0,-4.940540791E-1
1.076642493E0,1.457106352E0,1.734031558E0,-4.685129821E-1
1.079130570E0,1.446464300E0,1.729774714E0,-4.419079125E-1
1.081618810E0,1.434757948E0,1.720196843E0,-4.153026938E-1
1.084106887E0,1.415593863E0,1.711678505E0,-3.854876757E-1
1.086595195E0,1.401759028E0,1.703165054E0,-3.599467278E-1
1.089083425E0,1.380475044E0,1.706357598E0,-3.312131464E-1
1.091571502E0,1.357062340E0,1.718063712E0,-3.024795651E-1
1.094059719E0,1.333649755E0,1.730834365E0,-2.758743465E-1
1.096548027E0,1.308108807E0,1.749990106E0,-2.471407503E-1
1.099036104E0,1.281503677E0,1.781916261E0,-2.237281650E-1
1.101524335E0,1.255962849E0,1.819163561E0,-2.088293135E-1
1.104012642E0,1.230421662E0,1.864924550E0,-1.949945837E-1
1.106500714E0,1.207009196E0,1.917070627E0,-1.864809692E-1
1.108988945E0,1.188917637E0,1.968152642E0,-1.832883507E-1
1.111477253E0,1.171890259E0,2.019234419E0,-1.854167283E-1
1.113965330E0,1.158055663E0,2.066059351E0,-1.960588396E-1
1.116453560E0,1.147413611E0,2.111820459E0,-2.109576762E-1
1.118941656E0,1.145285130E0,2.151196241E0,-2.301134020E-1
1.121429887E0,1.148477793E0,2.185250759E0,-2.535260022E-1
1.123918195E0,1.154863119E0,2.216112614E0,-2.843880951E-1
1.126406272E0,1.175082922E0,2.240589142E0,-3.195069134E-1
1.128894579E0,1.207009196E0,2.265066147E0,-3.652678430E-1
1.131382574E0,1.245320678E0,2.288478851E0,-4.120928943E-1
1.133870882E0,1.297466874E0,2.304442167E0,-4.567895830E-1
1.136359113E0,1.362383366E0,2.317212343E0,-5.089357495E-1
1.138847421E0,1.435813785E0,2.322533369E0,-5.568251610E-1
1.141335497E0,1.516693592E0,2.321469307E0,-5.983292460E-1
1.143823738E0,1.609279513E0,2.315084219E0,-6.366405487E-1
1.146311815E0,1.708250761E0,2.275708199E0,-6.664385200E-1
1.148800354E0,1.808286428E0,2.188443184E0,-6.930437684E-1
1.151288354E0,1.911514282E0,2.085215092E0,-7.196488380E-1
1.153776661E0,2.030705690E0,1.963895679E0,-7.334835529E-1
1.156264651E0,2.167988300E0,1.847897053E0,-7.260340452E-1
1.158752959E0,2.313784838E0,1.789365649E0,-7.068783641E-1
1.161241267E0,2.448939085E0,1.807457328E0,-6.834658980E-1
1.163729344E0,2.548974514E0,1.848961234E0,-6.728237867E-1
1.166217574E0,2.630918503E0,1.852153897E0,-6.728237867E-1
1.168705868E0,2.701156139E0,1.789365649E0,-6.632459164E-1
1.171193868E0,2.755430937E0,1.695715547E0,-6.451542974E-1
1.173682176E0,2.804384470E0,1.585037827E0,-6.174849868E-1
1.176170484E0,2.832053661E0,1.459461451E0,-5.823659897E-1
1.178658560E0,2.843760014E0,1.337077618E0,-5.515040755E-1
1.181146820E0,2.848016977E0,1.221079111E0,-5.302199721E-1
1.183634897E0,2.848016977E0,1.111465693E0,-5.099999905E-1
1.186123128E0,2.844824076E0,1.002916455E0,-4.961652756E-1
1.188611436E0,2.834182024E0,9.050093293E-1,-4.908442795E-1
1.191099513E0,2.819283485E0,8.145517111E-1,-4.855231643E-1
1.193587829E0,2.794806480E0,7.358003259E-1,-4.823306799E-1
1.196076060E0,2.766072989E0,6.644983888E-1,-4.706242979E-1
1.198564137E0,2.739467621E0,6.102238894E-1,-4.610464573E-1
1.201052368E0,2.712862492E0,5.591419339E-1,-4.450833499E-1
1.203540675E0,2.683064938E0,5.027390122E-1,-4.195423722E-1
1.206028738E0,2.658587933E0,4.442076087E-1,-3.833593130E-1
1.208516969E0,2.638367891E0,3.973824382E-1,-3.493047357E-1
1.211005046E0,2.616019487E0,3.601352274E-1,-3.109931648E-1
1.213493354E0,2.596863985E0,3.260805309E-1,-2.716175914E-1
1.215981585E0,2.580900669E0,3.111816943E-1,-2.333060205E-1
1.218469633E0,2.558552742E0,3.069248199E-1,-2.003156990E-1
1.220957940E0,2.536204338E0,3.154385686E-1,-1.694536209E-1
1.223446171E0,2.472351313E0,3.090531826E-1,-1.428484023E-1
1.225934248E0,2.283986807E0,1.983757317E-1,-1.119864583E-1
1.228422479E0,2.285051107E0,2.547786236E-1,-1.087938324E-1
1.230910815E0,2.263767242E0,2.781912386E-1,-1.162433252E-1
1.233398892E0,2.221198797E0,2.984111905E-1,-1.194359437E-1
1.235887123E0,2.167988300E0,3.207595348E-1,-1.205000654E-1
1.238375431E0,2.123291731E0,3.505572379E-1,-1.226285696E-1
1.240863508E0,2.070081234E0,3.622636199E-1,-1.279495507E-1
1.243351704E0,2.011550188E0,3.548141122E-1,-1.311421841E-1
1.245839781E0,1.953018427E0,3.367226422E-1,-1.407200396E-1
1.248328012E0,1.896615624E0,3.207595348E-1,-1.534905136E-1
1.250816320E0,1.844469309E0,3.111816943E-1,-1.673252583E-1
1.253304628E0,1.791259050E0,2.973469496E-1,-1.896735877E-1
1.255792700E0,1.741241336E0,2.909617126E-1,-2.141503096E-1
1.258281007E0,1.695480227E0,2.920259535E-1,-2.407555133E-1
1.260769007E0,1.656104565E0,3.026679456E-1,-2.684249878E-1
1.263257238E0,1.614600539E0,3.207595348E-1,-2.939659357E-1
1.265745546E0,1.578417540E0,3.441721499E-1,-3.152500391E-1
1.268233844E0,1.546491265E0,3.643919826E-1,-3.301488757E-1
1.270721921E0,1.522014499E0,3.782266974E-1,-3.301488757E-1
1.273210152E0,1.504987001E0,3.931255639E-1,-3.237637877E-1
1.275698152E0,1.486895680E0,4.080245495E-1,-3.078006804E-1
1.278186537E0,1.477317810E0,4.133455455E-1,-2.833238244E-1
1.280674763E0,1.464547276E0,4.197307825E-1,-2.513976395E-1
1.283163070E0,1.452841163E0,4.271802604E-1,-2.173429281E-1
1.285651147E0,1.449648499E0,4.452717304E-1,-1.832883507E-1
1.288139378E0,1.439006448E0,4.516569674E-1,-1.385916620E-1
1.290627455E0,1.431556821E0,4.591064751E-1,-9.708747268E-2
1.293115763E0,1.428364396E0,4.633633494E-1,-6.728976965E-2
1.295603993E0,1.421979189E0,4.601707160E-1,-4.494142905E-2
1.298092070E0,1.410272717E0,4.484643638E-1,-3.642768785E-2
1.300580301E0,1.393245459E0,4.282443821E-1,-3.749193624E-2
1.303068378E0,1.369832873E0,3.973824382E-1,-4.494142905E-2
1.305556691E0,1.344291925E0,3.473647535E-1,-6.303290278E-2
1.308044921E0,1.310237288E0,2.686133683E-1,-8.112437278E-2
1.310533229E0,1.275118351E0,1.781557500E-1,-1.013443395E-1
1.313021306E0,1.246384859E0,7.918439060E-2,-1.332705468E-1
1.315509537E0,1.201688170E0,-4.319929704E-2,-1.662610024E-1
1.317997609E0,1.156991482E0,-1.794178486E-1,-1.981872022E-1
1.320485916E0,1.118679881E0,-3.252142668E-1,-2.311776578E-1
1.322974147E0,1.076111674E0,-4.795242846E-1,-2.705533504E-1
1.325462224E0,1.028222322E0,-6.476690173E-1,-3.088648021E-1
1.327950455E0,9.813972116E-1,-8.179421425E-1,-3.354700208E-1
1.330438773E0,9.345719814E-1,-9.828944206E-1,-3.578183353E-1
1.332927080E0,8.973248005E-1,-1.147846580E0,-3.663319647E-1
1.335415080E0,8.749763370E-1,-1.329825878E0,-3.652678430E-1
1.337903388E0,8.547564745E-1,-1.487328529E0,-3.514330983E-1
1.340391696E0,8.398576379E-1,-1.577786207E0,-3.312131464E-1
1.342879691E0,8.132524490E-1,-1.638445973E0,-3.067364395E-1
1.345367998E0,7.898396850E-1,-1.684207082E0,-2.652323544E-1
1.347856075E0,7.664272189E-1,-1.715069056E0,-2.162788063E-1
1.350344306E0,7.430146337E-1,-1.721454144E0,-1.556188911E-1
1.352832383E0,7.110884786E-1,-1.704427004E0,-8.857386559E-2
1.355320711E0,6.812906265E-1,-1.649088144E0,-3.004244529E-2
1.357808942E0,6.483001709E-1,-1.575657845E0,2.316771448E-2
1.360297249E0,5.993467569E-1,-1.500099182E0,8.169913292E-2
1.362785249E0,5.546499491E-1,-1.390485764E0,1.391662955E-1
1.365273557E0,5.120817423E-1,-1.245753527E0,1.859914809E-1
1.367761841E0,4.492934644E-1,-1.095700264E0,2.328166664E-1
1.370249918E0,3.971472681E-1,-9.371333718E-1,2.860269547E-1
1.372738225E0,3.503222167E-1,-7.849518657E-1,3.254026473E-1
1.375226456E0,3.024327755E-1,-6.593754292E-1,3.520078659E-1
1.377714533E0,2.556077242E-1,-5.476335883E-1,3.647783399E-1
1.380202749E0,2.172962874E-1,-4.433412254E-1,3.669067323E-1
1.382690826E0,1.747279763E-1,-3.656540811E-1,3.498795033E-1
1.385179133E0,1.342880279E-1,-3.347921371E-1,3.041185737E-1
1.387667364E0,9.597659111E-2,-3.241500258E-1,2.360092849E-1
1.390155441E0,5.553677678E-2,-3.209573925E-1,1.583221555E-1
1.392643667E0,1.828945242E-2,-3.145721555E-1,7.424977422E-2
1.395131975E0,-8.315628394E-3,-2.932880521E-1,-1.833621599E-2
1.397620051E0,-3.066396900E-2,-2.879669368E-1,-1.162433252E-1
1.400108359E0,-5.301231146E-2,-2.964806855E-1,-2.152145505E-1
1.402596590E0,-6.791116297E-2,-3.081869185E-1,-3.088648021E-1
1.405084653E0,-7.536065578E-2,-3.049942851E-1,-4.025150239E-1
1.407572884E0,-7.429639995E-2,-2.688112259E-1,-4.919084013E-1
1.410061191E0,-6.152592227E-2,-2.198576629E-1,-5.717240572E-1
1.412549268E0,-4.237020016E-2,-1.698399931E-1,-6.462185383E-1
1.415037499E0,-1.044399757E-2,-1.049233377E-1,-7.090067267E-1
1.417525580E0,2.573894337E-2,-2.085095644E-2,-7.526392937E-1
1.420013811E0,7.149987668E-2,6.747815758E-2,-7.845655084E-1
1.422502118E0,1.247101724E-1,1.494221687E-1,-8.058497310E-1
1.424990195E0,1.896268278E-1,2.132745683E-1,-8.164916635E-1
1.427478503E0,2.566718459E-1,2.654207647E-1,-8.186202049E-1
1.429966739E0,3.279738724E-1,3.090531826E-1,-8.218128085E-1
1.432454816E0,4.109820127E-1,3.292731643E-1,-8.218128085E-1
1.434943123E0,4.982469976E-1,3.356584013E-1,-8.228770494E-1
1.437431354E0,5.918972492E-1,3.303374052E-1,-8.207485676E-1
1.439919662E0,6.961895823E-1,3.047964573E-1,-8.271337748E-1
1.442407677E0,8.015460968E-1,2.622281313E-1,-8.367116451E-1
1.444895754E0,9.047741890E-1,2.068893313E-1,-8.420327902E-1
1.447384062E0,1.008002400E0,1.515505314E-1,-8.441610336E-1
1.449872292E0,1.104845285E0,1.004686132E-1,-8.367116451E-1
1.452360600E0,1.200623870E0,5.045080930E-2,-8.175559044E-1
1.454848672E0,1.298530936E0,4.689873196E-3,-7.845655084E-1
1.457336903E0,1.396438003E0,-3.468555585E-2,-7.409330606E-1
1.459825210E0,1.493281007E0,-6.980437785E-2,-6.855941415E-1
1.462313287E0,1.580545902E0,-1.059874520E-1,-6.174849868E-1
1.464801518E0,1.668875098E0,-1.421705335E-1,-5.461829305E-1
1.467289840E0,1.742305279E0,-1.772893518E-1,-4.791380465E-1
1.469777917E0,1.804029465E0,-2.060229331E-1,-4.131571352E-1
1.472266148E0,1.860432386E0,-2.368850112E-1,-3.524972200E-1
1.474754455E0,1.911514282E0,-2.666828632E-1,-3.003511727E-1
1.477242532E0,1.949825883E0,-2.996732891E-1,-2.556545138E-1
1.479730749E0,1.981752157E0,-3.379847407E-1,-2.301134020E-1
1.482218826E0,2.003036261E0,-3.699109554E-1,-2.152145505E-1
1.484707134E0,2.013678312E0,-3.858740628E-1,-2.056366950E-1
1.487195364E0,2.016870975E0,-3.943876624E-1,-2.098935694E-1
1.489683441E0,2.008357286E0,-3.901307881E-1,-2.184071690E-1
1.492171749E0,1.994522572E0,-3.773603141E-1,-2.343702763E-1
1.494659980E0,1.975366831E0,-3.603330851E-1,-2.535260022E-1
1.497148057E0,1.951954365E0,-3.379847407E-1,-2.716175914E-1
1.499636287E0,1.928541660E0,-3.145721555E-1,-2.865164578E-1
1.502124595E0,1.906193376E0,-3.007374108E-1,-2.982226908E-1
1.504612672E0,1.888101935E0,-2.996732891E-1,-3.024795651E-1
1.507100903E0,1.872138739E0,-2.911595702E-1,-2.918374538E-1
1.509588980E0,1.857239842E0,-2.720038295E-1,-2.833238244E-1
1.512077288E0,1.840212584E0,-2.432702631E-1,-2.694891095E-1
1.514565595E0,1.831698775E0,-2.049588114E-1,-2.513976395E-1
1.517053811E0,1.818928361E0,-1.730326116E-1,-2.343702763E-1
1.519541888E0,1.808286428E0,-1.453631520E-1,-2.098935694E-1
1.522030119E0,1.752947569E0,-1.655831188E-1,-1.949945837E-1
1.524518196E0,1.676324725E0,-1.953809559E-1,-1.896735877E-1
1.527006503E0,1.672067761E0,-1.506842673E-1,-1.875452250E-1
1.529494811E0,1.673132062E0,-9.002435207E-2,-1.737104952E-1
1.531982811E0,1.655040383E0,-3.894242644E-2,-1.449769139E-1
1.534471119E0,1.632692099E0,2.384572849E-2,-1.119864583E-1
1.536959119E0,1.605022788E0,8.982650191E-2,-7.154650986E-2
1.539447426E0,1.573096514E0,1.441010535E-1,-3.004244529E-2
1.541935710E0,1.542234540E0,1.845409870E-1,5.076243542E-3
1.544423941E0,1.501794696E0,2.058250904E-1,3.061720543E-2
1.546912249E0,1.462419033E0,2.143388242E-1,5.722241849E-2
1.549400326E0,1.423043251E0,2.281734198E-1,8.169913292E-2
1.551888556E0,1.379410863E0,2.345586717E-1,1.019190997E-1
1.554376850E0,1.336842418E0,2.185955644E-1,1.125612184E-1
1.556864927E0,1.293210030E0,1.941188574E-1,1.136253327E-1
1.559352927E0,1.252770066E0,1.579357833E-1,1.093685925E-1
1.561841235E0,1.212330222E0,1.111107245E-1,9.872648120E-2
1.564329465E0,1.176147103E0,6.534979492E-2,9.234124422E-2
1.566817792E0,1.137835622E0,2.597409673E-2,8.702025563E-2
1.569305869E0,1.108037829E0,-1.446571574E-2,8.489175141E-2
1.571794100E0,1.083561063E0,-5.277715996E-2,8.702025563E-2
1.574282408E0,1.061212659E0,-7.512550056E-2,8.595599979E-2
1.576770484E0,1.050570726E0,-9.428121895E-2,8.382762969E-2
1.579258715E0,1.044185400E0,-9.428121895E-2,7.957076281E-2
1.581747023E0,1.039928555E0,-9.002435207E-2,6.786452979E-2
1.584235100E0,1.036736012E0,-7.618974894E-2,4.232343659E-2
1.586723331E0,1.032479167E0,-5.916240066E-2,4.011992365E-3
1.589211408E0,1.030350685E0,-5.064865574E-2,-3.323506564E-2
1.591699710E0,1.022901297E0,-4.213504493E-2,-7.154650986E-2
1.594187941E0,1.000552893E0,-4.213504493E-2,-9.815172106E-2
1.596676018E0,9.824613333E-1,-5.384127796E-2,-1.013443395E-1
1.599164249E0,9.643698335E-1,-6.129076704E-2,-1.013443395E-1
1.601652633E0,9.409572482E-1,-5.490552634E-2,-1.034727097E-1
1.604140888E0,9.122236371E-1,-4.532766715E-2,-9.495910257E-2
1.606628888E0,8.877469301E-1,-3.042881750E-2,-6.835389137E-2
1.609117273E0,8.600775003E-1,-5.951972678E-3,-4.174881056E-2
1.611605273E0,8.302796483E-1,2.810246684E-2,-4.501483869E-3
1.614093504E0,7.983534336E-1,6.109292060E-2,4.338768497E-2
1.616581806E0,7.589777708E-1,9.195500612E-2,9.659811109E-2
1.619070114E0,7.206662893E-1,1.217527017E-1,1.551294029E-1
1.621558191E0,6.780980229E-1,1.504862905E-1,2.168534398E-1
1.624046422E0,6.355298162E-1,1.760273874E-1,2.785774767E-1
1.626534499E0,5.897687674E-1,1.919904798E-1,3.360447586E-1
1.629022777E0,5.386869311E-1,2.005040944E-1,3.903193176E-1
1.631511008E0,4.907975197E-1,2.068893313E-1,4.328876138E-1
1.633999085E0,4.429082274E-1,1.983757317E-1,4.637495875E-1
1.636487393E0,3.982115388E-1,1.696420163E-1,4.829052985E-1
1.638975623E0,3.684136868E-1,1.377158016E-1,4.967400432E-1
1.641463696E0,3.354232311E-1,1.164317131E-1,5.414367318E-1
1.643951927E0,3.024327755E-1,1.089822203E-1,6.106102467E-1
1.646440235E0,2.726349533E-1,9.408337623E-2,6.712700129E-1
1.648928312E0,2.449656278E-1,8.024863899E-2,7.149025798E-1
1.651416543E0,2.247456461E-1,5.896455050E-2,7.425719500E-1
1.653904638E0,2.034615576E-1,2.384572849E-2,7.553424239E-1
1.656392946E0,1.864342093E-1,-2.191507444E-2,7.457645535E-1
1.658881177E0,1.768563539E-1,-7.086862624E-2,7.266088128E-1
1.661369254E0,1.651501209E-1,-1.283357888E-1,7.010678649E-1
1.663857562E0,1.608932465E-1,-1.985735744E-1,6.659490466E-1
1.666345777E0,1.577006280E-1,-2.688112259E-1,6.255090833E-1
1.668833854E0,1.545080096E-1,-3.411773741E-1,5.456935763E-1
1.671322162E0,1.885627061E-1,-5.188999772E-1,3.530719876E-1
1.673810393E0,2.566718459E-1,-7.977222204E-1,1.710926294E-1
1.676298700E0,3.226527572E-1,-1.053131938E0,1.019190997E-1
1.678786777E0,3.694779575E-1,-1.234047174E0,9.659811109E-2
1.681274777E0,3.907620311E-1,-1.341532111E0,1.125612184E-1
1.683763316E0,3.758631945E-1,-1.384100437E0,1.370379329E-1
1.686251316E0,3.439369798E-1,-1.370265722E0,1.295885742E-1
1.688739393E0,3.141391575E-1,-1.327697515E0,1.242674440E-1
1.691227931E0,2.907265723E-1,-1.271294475E0,1.157538369E-1
1.693716008E0,2.875339389E-1,-1.212763071E0,7.850650698E-2
1.696204239E0,2.981760502E-1,-1.154231668E0,6.467191130E-2
1.698692547E0,3.056254089E-1,-1.094636202E0,7.105714828E-2
1.701180547E0,3.205243945E-1,-1.041425705E0,8.276338130E-2
1.703668854E0,3.386158645E-1,-1.003114223E0,1.029833555E-1
1.706156931E0,3.545789719E-1,-9.775733352E-1,1.274600625E-1
1.708645239E0,3.673494458E-1,-9.413902164E-1,1.476800442E-1
1.711133470E0,3.620284498E-1,-8.860514760E-1,1.679000109E-1
1.713621547E0,3.492579758E-1,-8.115569353E-1,1.796062440E-1
1.716109792E0,3.311663568E-1,-7.296129465E-1,1.966335922E-1
1.718598100E0,3.215885162E-1,-6.540542841E-1,2.200461924E-1
1.721086177E0,3.077539206E-1,-5.774313807E-1,2.402660251E-1
1.723574408E0,2.981760502E-1,-5.061295033E-1,2.594217360E-1
1.726062716E0,3.003044128E-1,-4.422771037E-1,2.764491141E-1
1.728550782E0,3.034970462E-1,-3.816171885E-1,2.892195880E-1
1.731039012E0,3.141391575E-1,-3.294709921E-1,3.019900620E-1
1.733527089E0,3.226527572E-1,-2.751964629E-1,3.126321733E-1
1.736015397E0,3.258453906E-1,-2.230502814E-1,3.168890476E-1
1.738503628E0,3.386158645E-1,-1.826104671E-1,3.158248067E-1
1.740991739E0,3.471296132E-1,-1.613262445E-1,3.147605360E-1
1.743479969E0,3.513863385E-1,-1.400421560E-1,3.126321733E-1
1.745968277E0,3.535148501E-1,-1.208864376E-1,3.030543029E-1
1.748456354E0,3.630927205E-1,-9.640958905E-2,2.966690660E-1
1.750944662E0,3.662853241E-1,-7.725387067E-2,2.902838290E-1
1.753432901E0,3.843767941E-1,-6.874026358E-2,2.828343511E-1
1.755920978E0,4.109820127E-1,-6.980437785E-2,2.785774767E-1
1.758409209E0,4.461008310E-1,-9.215285629E-2,2.615502477E-1
1.760897286E0,4.929260314E-1,-1.272716820E-1,2.455871552E-1
1.763385594E0,5.386869311E-1,-1.591978818E-1,2.296240479E-1
1.765873888E0,5.865761042E-1,-1.826104671E-1,2.115324438E-1
1.768362118E0,6.344655752E-1,-1.964450777E-1,1.955693364E-1
1.770850195E0,6.844832301E-1,-2.209219187E-1,1.817346066E-1
1.773338426E0,7.387579083E-1,-2.581691146E-1,1.785419881E-1
1.775826734E0,7.951608300E-1,-2.794533372E-1,1.859914809E-1
1.778314714E0,8.536922336E-1,-2.624259889E-1,2.008903325E-1
1.780803098E0,9.037100673E-1,-2.283714116E-1,2.115324438E-1
1.783291329E0,9.547919631E-1,-1.943167001E-1,2.243029177E-1
1.785779406E0,1.017580271E0,-1.623905003E-1,2.328166664E-1
1.788267637E0,1.080368519E0,-1.145011932E-1,2.402660251E-1
1.790755940E0,1.150606155E0,-5.171290785E-2,2.477155179E-1
1.793244017E0,1.215522885E0,4.300145060E-2,2.423945218E-1
1.795732248E0,1.271925926E0,1.653852761E-1,2.296240479E-1
1.798220325E0,1.335778356E0,2.579712570E-1,2.221745551E-1
1.800708633E0,1.399630666E0,3.335300386E-1,2.253671736E-1
1.803196844E0,1.474125266E0,4.186666608E-1,2.306881696E-1
1.805684921E0,1.564582944E0,5.399862528E-1,2.274955511E-1
1.808173228E0,1.661425710E0,6.921678782E-1,2.189819366E-1
1.810661459E0,1.764653802E0,8.709547520E-1,1.945050955E-1
1.813149536E0,1.865753412E0,1.079539418E0,1.540652812E-1
1.815637840E0,1.973238349E0,1.285995603E0,9.872648120E-2
1.818126070E0,2.087108612E0,1.482874155E0,3.700244799E-2
1.820614147E0,2.198850393E0,1.666981816E0,-2.897832729E-2
1.823102455E0,2.301014423E0,1.841511846E0,-9.389485419E-2
1.825590686E0,2.404242277E0,2.009656668E0,-1.577473879E-1
1.828078739E0,2.509599209E0,2.159709692E0,-2.035083324E-1
1.830566970E0,2.623469114E0,2.291671515E0,-2.471407503E-1
1.833055046E0,2.745852947E0,2.401284695E0,-2.801312208E-1
1.835543585E0,2.873557806E0,2.498127699E0,-2.854521871E-1
1.838031585E0,2.998070240E0,2.601355791E0,-2.705533504E-1
1.840519903E0,3.113004446E0,2.702455521E0,-2.311776578E-1
1.843008210E0,3.223682165E0,2.791848898E0,-1.705178767E-1
1.845496287E0,3.325846195E0,2.866343260E0,-8.112437278E-2
1.847984287E0,3.426945448E0,2.928067446E0,2.529621683E-2
1.850472595E0,3.518467665E0,2.983406067E0,1.498084068E-1
1.852960807E0,3.594026327E0,3.035552263E0,2.828343511E-1
1.855449114E0,3.660007238E0,3.073863745E0,4.073466659E-1
1.857937191E0,3.710024834E0,3.104726076E0,5.180241466E-1
1.860425422E0,3.739822626E0,3.126009941E0,6.052892804E-1
1.862913730E0,3.751528740E0,3.132395506E0,6.765911579E-1
1.865401792E0,3.761106730E0,3.121752977E0,7.468287945E-1
1.867890023E0,3.766427755E0,3.081313133E0,8.202590346E-1
1.870378330E0,3.768556356E0,2.998305082E0,8.947535753E-1
1.872866407E0,3.767492056E0,2.913168430E0,9.617987275E-1
1.875354638E0,3.770684481E0,2.842930794E0,1.013944745E0
1.877842735E0,3.764299393E0,2.781206608E0,1.040549994E0
1.880331043E0,3.748336315E0,2.734381914E0,1.045871019E0
1.882819273E0,3.717474461E0,2.675850391E0,1.020330071E0
1.885307350E0,3.663199663E0,2.613061905E0,9.745690823E-1
1.887795581E0,3.585512161E0,2.561980247E0,9.117809534E-1
1.890283903E0,3.486540794E0,2.520475864E0,8.277085423E-1
1.892771980E0,3.358836412E0,2.503448725E0,7.351225615E-1
1.895260210E0,3.207719088E0,2.491742373E0,6.340228319E-1
1.897748595E0,3.040638208E0,2.476843357E0,5.403724909E-1
1.900236826E0,2.868236780E0,2.476843357E0,4.584285915E-1
1.902724811E0,2.697963476E0,2.488549948E0,3.977687955E-1
1.905213119E0,2.531947136E0,2.503448725E0,3.605214655E-1
1.907701195E0,2.372316360E0,2.497063398E0,3.424298763E-1
1.910189503E0,2.181823015E0,2.394899607E0,3.339162767E-1
1.912677734E0,1.977495193E0,2.226754665E0,3.349805176E-1
1.915165797E0,1.754011750E0,2.026683807E0,3.434941173E-1
1.917654105E0,1.523078799E0,1.834062338E0,3.509436250E-1
1.920142335E0,1.280439496E0,1.651018739E0,3.594572246E-1
1.922630412E0,1.028222322E0,1.463718414E0,3.658426106E-1
1.925118720E0,7.728124857E-1,1.283867240E0,3.679709733E-1
1.927606951E0,5.067605972E-1,1.084860444E0,3.658426106E-1
1.930095028E0,2.311310321E-1,8.507347703E-1,3.679709733E-1
1.932583335E0,-3.704921156E-2,6.080955267E-1,3.786129355E-1
1.935071566E0,-2.818168402E-1,3.739698529E-1,3.956403136E-1
1.937559643E0,-4.914656878E-1,1.536789089E-1,4.201171398E-1
1.940047869E0,-6.596105695E-1,-5.916240066E-2,4.563002288E-1
1.942535946E0,-7.873153687E-1,-2.517838776E-1,4.967400432E-1
1.945024253E0,-8.703234792E-1,-4.114150107E-1,5.520788431E-1
1.947512484E0,-9.096992016E-1,-5.348631144E-1,6.074176431E-1
1.950000561E0,-9.171487093E-1,-6.295775771E-1,6.670132875E-1
1.952489100E0,-8.788372278E-1,-6.998152137E-1,7.276730537E-1
1.954977177E0,-7.990217209E-1,-7.519614100E-1,7.904612422E-1
1.957465177E0,-6.915366054E-1,-7.860159874E-1,8.521852493E-1
1.959953715E0,-5.606392026E-1,-8.104926944E-1,9.139093161E-1
1.962441715E0,-4.148427844E-1,-8.221990466E-1,9.713765979E-1
1.964929792E0,-2.573401332E-1,-8.243274093E-1,1.022458434E0
1.967418100E0,-9.983736277E-2,-8.179421425E-1,1.074604750E0
1.969906407E0,5.872939900E-2,-8.030433059E-1,1.117172837E0
1.972394638E0,2.172962874E-1,-7.838876247E-1,1.155484438E0
1.974882715E0,3.630927205E-1,-7.551540136E-1,1.185282111E0
1.977370946E0,5.014396310E-1,-7.136499286E-1,1.215080023E0
1.979859254E0,6.163740754E-1,-6.657605171E-1,1.249134660E0
1.982347330E0,7.089600563E-1,-6.104218364E-1,1.283189297E0
1.984835561E0,7.749408484E-1,-5.518904328E-1,1.320436597E0
1.987323869E0,8.185734153E-1,-4.933590293E-1,1.349170089E0
1.989811946E0,8.377291560E-1,-4.326991141E-1,1.369390011E0
1.992300177E0,8.334722519E-1,-3.677825928E-1,1.375775337E0
1.994788254E0,8.121882081E-1,-2.922238111E-1,1.376839519E0
1.997276561E0,7.642988563E-1,-2.177293003E-1,1.369390011E0
1.999764792E0,7.004464865E-1,-1.549410075E-1,1.358748078E0
2.002252869E0,6.185024381E-1,-1.027948335E-1,1.349170089E0
2.004741100E0,5.269805789E-1,-5.277715996E-2,1.341720700E0
2.007229407E0,4.322661161E-1,2.561503788E-3,1.331078529E0
2.009717484E0,3.322306275E-1,5.470767990E-2,1.326821804E0
2.012205734E0,2.321951389E-1,1.100464761E-1,1.319372296E0
2.014694119E0,1.321596652E-1,1.653852761E-1,1.317243934E0
2.017182119E0,3.105993383E-2,2.303019315E-1,1.315115452E0
2.019670350E0,-5.939755216E-2,2.867048383E-1,1.312987208E0
2.022158657E0,-1.434699297E-1,3.335300386E-1,1.319372296E0
2.024646980E0,-2.179644406E-1,3.920614421E-1,1.332142949E0
2.027135057E0,-2.786242366E-1,4.495286047E-1,1.347041845E0
2.029623288E0,-3.254494071E-1,5.038031340E-1,1.364068985E0
2.032111365E0,-3.488618731E-1,5.357294679E-1,1.375775337E0
2.034599672E0,-3.605682552E-1,5.389219522E-1,1.385353208E0
2.037087926E0,-3.520546257E-1,5.250872374E-1,1.388545871E0
2.039576003E0,-3.403482735E-1,5.080600381E-1,1.387481570E0
2.042064311E0,-3.297061622E-1,4.984821677E-1,1.382160544E0
2.044552541E0,-3.190641701E-1,4.910326600E-1,1.375775337E0
2.047040618E0,-3.126789331E-1,4.846474230E-1,1.357683778E0
2.049528921E0,-3.094863296E-1,4.793264270E-1,1.327885985E0
2.052017152E0,-3.094863296E-1,4.761338234E-1,1.288510442E0
2.054505229E0,-3.073578179E-1,4.782621861E-1,1.241685152E0
2.056993460E0,-3.243851662E-1,4.803906977E-1,1.186346412E0
2.059481537E0,-3.488618731E-1,4.910326600E-1,1.140585423E0
2.061969868E0,-3.861092031E-1,5.027390122E-1,1.100145578E0
2.064458099E0,-4.425121248E-1,5.080600381E-1,1.071411967E0
2.066946176E0,-5.116856694E-1,4.995464087E-1,1.051191926E0
2.069434714E0,-5.840517879E-1,4.771980643E-1,1.038421631E0
2.071922714E0,-6.628030539E-1,4.410150051E-1,1.032036304E0
2.074410796E0,-7.404903173E-1,3.952540755E-1,1.030972123E0
2.076899104E0,-8.192415833E-1,3.463005126E-1,1.037357330E0
2.079387412E0,-8.958646059E-1,2.973469496E-1,1.055448890E0
2.081875412E0,-9.692948461E-1,2.505218983E-1,1.083118320E0
2.084363719E0,-1.040597796E0,1.994393170E-1,1.119303823E0
2.086851950E0,-1.105514526E0,1.472931355E-1,1.164000511E0
2.089340258E0,-1.158724904E0,1.057889387E-1,1.210825682E0
2.091828335E0,-1.198100448E0,5.896388367E-2,1.255522370E0
2.094316566E0,-1.223641515E0,2.810180001E-2,1.305539966E0
2.096804873E0,-1.244925618E0,1.533131860E-2,1.352365136E0
2.099292950E0,-1.265145659E0,2.065244131E-2,1.395997643E0
2.101781181E0,-1.282173038E0,4.300078377E-2,1.425795436E0
2.104269489E0,-1.292815089E0,6.854174286E-2,1.448143840E0
2.106757566E0,-1.301328659E0,9.940369427E-2,1.457721472E0
2.109245796E0,-1.310906529E0,1.398436427E-1,1.448143840E0
2.111733873E0,-1.323676944E0,1.887971908E-1,1.424731374E0
2.114222181E0,-1.336447477E0,2.441359907E-1,1.384291291E0
2.116710412E0,-1.353474855E0,3.047957718E-1,1.331080914E0
2.119198489E0,-1.368373752E0,3.675839305E-1,1.275742173E0
2.121686725E0,-1.383272767E0,4.250512421E-1,1.210825682E0
2.124175032E0,-1.402428269E0,4.825184047E-1,1.138459444E0
2.126663109E0,-1.426905155E0,5.453065634E-1,1.061836481E0
2.129151417E0,-1.450317621E0,6.187369227E-1,9.841493368E-1
2.131639648E0,-1.479051232E0,6.932314634E-1,9.064621925E-1
2.134127931E0,-1.518426895E0,7.709186077E-1,8.309035897E-1
2.136616008E0,-1.554610133E0,8.358352780E-1,7.596016526E-1
2.139104008E0,-1.585471869E0,8.901097775E-1,6.861714125E-1
2.141592547E0,-1.609948754E0,9.326781034E-1,6.127409935E-1
2.144080624E0,-1.630168676E0,9.720538259E-1,5.339897275E-1
2.146568614E0,-1.648260236E0,1.017814636E0,4.626877308E-1
2.149056921E0,-1.663159132E0,1.062511444E0,3.913858235E-1
2.151545229E0,-1.675929546E0,1.098694324E0,3.307260275E-1
2.154033460E0,-1.681250691E0,1.130620718E0,2.817724943E-1
2.156521537E0,-1.682314873E0,1.154033184E0,2.466536611E-1
2.159009859E0,-1.674865365E0,1.158290029E0,2.338831872E-1
2.161498090E0,-1.658902407E0,1.147648096E0,2.455894202E-1
2.163986167E0,-1.634425640E0,1.127428055E0,2.721946239E-1
2.166474398E0,-1.605692029E0,1.114657521E0,3.030565679E-1
2.168962706E0,-1.572701454E0,1.091245055E0,3.403038979E-1
2.171450816E0,-1.540775299E0,1.053997874E0,3.732943535E-1
2.173939046E0,-1.503528118E0,1.005044222E0,4.030921757E-1
2.176427354E0,-1.473730206E0,9.528979659E-1,4.360825121E-1
2.178915431E0,-1.446060896E0,9.082012773E-1,4.733298421E-1
2.181403662E0,-1.423712492E0,8.805319667E-1,5.137696266E-1
2.183891753E0,-1.414134622E0,8.666971922E-1,5.616590977E-1
2.186380060E0,-1.417327285E0,8.752108216E-1,6.052916646E-1
2.188868291E0,-1.423712492E0,8.954308033E-1,6.446672082E-1
2.191356599E0,-1.432226300E0,9.199076295E-1,6.734008193E-1
2.193844676E0,-1.448189378E0,9.465128779E-1,6.936207414E-1
2.196332969E0,-1.467345119E0,9.795033336E-1,7.085196376E-1
2.198821200E0,-1.489693403E0,1.028456807E0,7.191617489E-1
2.201309277E0,-1.519491076E0,1.089116454E0,7.361890674E-1
2.203797508E0,-1.553545713E0,1.157225966E0,7.478953004E-1
2.206285816E0,-1.602499247E0,1.220014095E0,7.564090490E-1
2.208773874E0,-1.650388718E0,1.265774965E0,7.691795230E-1
2.211262104E0,-1.695085287E0,1.285995007E0,7.723720074E-1
2.213750412E0,-1.740846276E0,1.276417017E0,7.659869194E-1
2.216238489E0,-1.785542965E0,1.244490862E0,7.447028160E-1
2.218726720E0,-1.821726084E0,1.193408847E0,7.063912749E-1
2.221215018E0,-1.861101627E0,1.129556417E0,6.510524750E-1
2.223703095E0,-1.893028021E0,1.075281739E0,5.861358047E-1
2.226191326E0,-1.914312005E0,1.049740911E0,5.105771422E-1
2.228679403E0,-1.932403564E0,1.049740911E0,4.307615161E-1
2.231167711E0,-1.943045616E0,1.060382962E0,3.509460092E-1
2.233655903E0,-1.939853072E0,1.075281739E0,2.711303830E-1
2.236143979E0,-1.919633031E0,1.091245055E0,1.945074946E-1
2.238632210E0,-1.886642694E0,1.106143832E0,1.242698431E-1
2.241120595E0,-1.839817524E0,1.119978547E0,6.361005455E-2
2.243608595E0,-1.783414483E0,1.138070107E0,1.891324110E-2
2.246096932E0,-1.713176966E0,1.165739536E0,-2.046218701E-2
2.248585239E0,-1.632297039E0,1.202986717E0,-4.387478158E-2
2.251073470E0,-1.541839480E0,1.249811888E0,-5.451689288E-2
2.253561470E0,-1.451381803E0,1.304086447E0,-5.877376348E-2
2.256049778E0,-1.358796000E0,1.362617850E0,-4.813165218E-2
2.258537865E0,-1.265145659E0,1.426470280E0,-2.684742771E-2
2.261026172E0,-1.169367075E0,1.488194466E0,-5.563336890E-3
2.263514403E0,-1.066138864E0,1.530762672E0,1.891324110E-2
2.266002480E0,-9.565254450E-1,1.547789931E0,3.061960451E-2
2.268490788E0,-8.479763865E-1,1.539276242E0,3.381222486E-2
2.270978999E0,-7.447482347E-1,1.511606812E0,2.423436381E-2
2.273467075E0,-6.553549170E-1,1.483937383E0,1.886021462E-3
2.275955383E0,-5.766034722E-1,1.471166968E0,-2.365480736E-2
2.278443614E0,-5.148794651E-1,1.481809020E0,-5.026002228E-2
2.280931691E0,-4.701827765E-1,1.504157424E0,-7.580098510E-2
2.283419908E0,-4.254859686E-1,1.529698491E0,-9.602095932E-2
2.285908215E0,-3.871745169E-1,1.537147999E0,-1.183692962E-1
2.288396292E0,-3.414135873E-1,1.525441527E0,-1.396535188E-1
2.290884523E0,-2.903316617E-1,1.478616476E0,-1.683871001E-1
2.293372600E0,-2.339287549E-1,1.412635565E0,-2.024416775E-1
2.295860922E0,-1.807183176E-1,1.336012840E0,-2.428816259E-1
2.298349229E0,-1.338932663E-1,1.268967628E0,-2.822573185E-1
2.300837229E0,-1.019669324E-1,1.213628650E0,-3.120550215E-1
2.303325768E0,-8.600383252E-2,1.171060681E0,-3.301466107E-1
2.305813845E0,-9.132495522E-2,1.140198469E0,-3.386602402E-1
2.308301840E0,-1.062238067E-1,1.121042848E0,-3.365318477E-1
2.310790148E0,-1.264437735E-1,1.099758625E0,-3.344034851E-1
2.313278455E0,-1.498563737E-1,1.068896651E0,-3.301466107E-1
2.315766686E0,-1.764614433E-1,1.022071481E0,-3.184402585E-1
2.318254763E0,-1.934888065E-1,9.582191110E-1,-3.014130294E-1
2.320742988E0,-2.073235363E-1,8.901097775E-1,-2.865140438E-1
2.323231295E0,-2.115802765E-1,8.241289258E-1,-2.609730959E-1
2.325719372E0,-2.030666620E-1,7.613407373E-1,-2.333037555E-1
2.328207603E0,-1.807183176E-1,6.974883676E-1,-2.088269144E-1
2.330695911E0,-1.402783692E-1,6.378926635E-1,-1.726438403E-1
2.333184008E0,-8.600383252E-2,5.846824050E-1,-1.311397851E-1
2.335672238E0,-9.380945005E-3,5.144445896E-1,-8.325047791E-2
2.338160546E0,1.002322584E-1,3.909966648E-1,-3.429691866E-2
2.340648623E0,2.300655693E-1,1.887971908E-1,8.271262050E-3
2.343136854E0,3.875682056E-1,-8.789664507E-2,3.806909546E-2
2.345625166E0,5.471993685E-1,-3.773609698E-1,5.403219536E-2
2.348113166E0,6.919315457E-1,-6.221287251E-1,5.190369487E-2
2.350601473E0,8.313426971E-1,-8.147501945E-1,4.764695466E-2
2.353089781E0,9.537265301E-1,-9.445835352E-1,4.232583195E-2
2.355577858E0,1.065468311E0,-1.012692809E0,4.019746557E-2
2.358066162E0,1.164439678E0,-1.039298058E0,4.871107265E-2
2.360554392E0,1.253833055E0,-1.030784249E0,6.254580617E-2
2.363042469E0,1.327263474E0,-1.010564446E0,8.276578039E-2
2.365530777E0,1.390051603E0,-9.679961205E-1,1.104351133E-1
2.368019008E0,1.442197919E0,-9.126573205E-1,1.391686946E-1
2.370507094E0,1.481573462E0,-8.466764092E-1,1.679022759E-1
2.372995324E0,1.504985809E0,-7.732461691E-1,1.923791170E-1
2.375483632E0,1.516692400E0,-6.891737580E-1,2.157917172E-1
2.377971709E0,1.516692400E0,-5.955235362E-1,2.413326800E-1
2.380459940E0,1.503921866E0,-5.061301589E-1,2.721946239E-1
2.382948003E0,1.492215514E0,-4.326997697E-1,3.200839162E-1
2.385436311E0,1.487958789E0,-3.848104775E-1,3.754227161E-1
2.387924541E0,1.478380799E0,-3.667190075E-1,4.403393865E-1
2.390412849E0,1.483701944E0,-3.880030811E-1,5.212191343E-1
2.392900926E0,1.501793504E0,-4.561123550E-1,6.031631231E-1
2.395389224E0,1.528398514E0,-5.763677955E-1,6.755293012E-1
2.397877454E0,1.559260607E0,-7.306778431E-1,7.436385751E-1
2.400365531E0,1.585865736E0,-8.839237690E-1,8.021699786E-1
2.402853762E0,1.606085658E0,-1.018013835E0,8.532519341E-1
2.405342070E0,1.617792130E0,-1.122306228E0,8.862423897E-1
2.407830089E0,1.624177337E0,-1.178709030E0,9.171043038E-1
2.410318397E0,1.627369881E0,-1.184030294E0,9.511588812E-1
2.412806704E0,1.620984554E0,-1.161682010E0,9.905346036E-1
2.415294781E0,1.612470984E0,-1.120177746E0,1.035231352E0
2.417783012E0,1.605021596E0,-1.064839005E0,1.079928041E0
2.420271335E0,1.599700451E0,-1.005243421E0,1.120367885E0
2.422759412E0,1.597572088E0,-9.424550533E-1,1.157615066E0
2.425247642E0,1.595443606E0,-8.775385022E-1,1.184220433E0
2.427735719E0,1.596507907E0,-7.966587543E-1,1.206568837E0
2.430224027E0,1.597572088E0,-7.125863433E-1,1.219339252E0
2.432712267E0,1.605021596E0,-6.253213882E-1,1.225724459E0
2.435200344E0,1.623113036E0,-5.337995291E-1,1.231045604E0
2.437688574E0,1.640140295E0,-4.231218994E-1,1.243816137E0
2.440176959E0,1.666745663E0,-2.922244668E-1,1.266164303E0
2.442664959E0,1.709313750E0,-1.719690263E-1,1.303411603E0
2.445153176E0,1.771037817E0,-1.113091111E-1,1.345979810E0
2.447641560E0,1.863623977E0,-1.730331481E-1,1.380034566E0
2.450129560E0,1.978558302E0,-3.496916294E-1,1.388548136E0
2.452617868E0,2.095621109E0,-5.614689589E-1,1.372585177E0
2.455106176E0,2.186078548E0,-7.370630503E-1,1.341723084E0
2.457594180E0,2.232903719E0,-8.307133317E-1,1.304475904E0
2.460082488E0,2.241417408E0,-8.519975543E-1,1.266164303E0
2.462570718E0,2.232903719E0,-8.456122875E-1,1.235302329E0
2.465058795E0,2.210555553E0,-8.370985389E-1,1.208697200E0
2.467547103E0,2.174372435E0,-8.349701762E-1,1.192734003E0
2.470035320E0,2.122226238E0,-8.317775726E-1,1.182092071E0
2.472523397E0,2.050924301E0,-8.147501945E-1,1.175706863E0
2.475011704E0,1.966851950E0,-7.817599177E-1,1.179963589E0
2.477499935E0,1.870009184E0,-7.221642137E-1,1.203376174E0
2.479988012E0,1.754010439E0,-6.412844658E-1,1.252329707E0
2.482476330E0,1.626305699E0,-5.529552102E-1,1.318310618E0
2.484964561E0,1.492215514E0,-4.635618627E-1,1.378970265E0
2.487452637E0,1.374088526E0,-3.794894814E-1,1.415153384E0
2.489940945E0,1.263410926E0,-3.028664589E-1,1.434309244E0
2.492429176E0,1.147412419E0,-2.336930633E-1,1.455593348E0
2.494917484E0,1.028221130E0,-1.730331481E-1,1.477941513E0
2.497405561E0,8.973236084E-1,-1.453638077E-1,1.511996150E0
2.499893791E0,7.611050606E-1,-1.538774222E-1,1.579041243E0
2.502382099E0,6.270148754E-1,-1.751616448E-1,1.675884128E0
2.504870176E0,5.035668015E-1,-1.943173707E-1,1.783369064E0
2.507358397E0,4.045955837E-1,-2.453992963E-1,1.905752897E0
2.509846704E0,3.173305690E-1,-3.188295662E-1,2.038778782E0
2.512334781E0,2.236803323E-1,-3.933240771E-1,2.192024469E0
2.514823012E0,1.353510916E-1,-4.827175736E-1,2.338885069E0
2.517311089E0,7.469130307E-2,-5.731751919E-1,2.475103617E0
2.519799378E0,3.957247734E-2,-6.455413699E-1,2.593230724E0
2.522287609E0,2.254512534E-2,-6.902379990E-1,2.677303076E0
2.524775685E0,1.935250498E-2,-7.125863433E-1,2.729449272E0
2.527263916E0,2.786611393E-2,-7.210999727E-1,2.751797676E0
2.529752224E0,4.915033653E-2,-7.019442320E-1,2.748605251E0
2.532240301E0,7.894816995E-2,-6.519265771E-1,2.711357594E0
2.534728532E0,1.130027398E-1,-5.604047179E-1,2.638991594E0
2.537216839E0,1.449289471E-1,-4.252504110E-1,2.529378414E0
2.539705147E0,1.789836437E-1,-2.507202923E-1,2.374003887E0
2.542193224E0,2.141024768E-1,-5.490619317E-2,2.204795122E0
2.544681204E0,2.470929325E-1,1.419720054E-1,2.021751404E0
2.547169742E0,2.843401134E-1,3.292726278E-1,1.837643623E0
2.549657819E0,3.226515651E-1,5.144445896E-1,1.657792568E0
2.552145819E0,3.598988950E-1,7.060019374E-1,1.484326839E0
2.554634127E0,3.896967173E-1,9.028803110E-1,1.322567344E0
2.557122440E0,4.226870537E-1,1.099758625E0,1.186348796E0
2.559610671E0,4.578059912E-1,1.260453939E0,1.059708118E0
2.562098747E0,5.014384389E-1,1.379645228E0,9.458379149E-1
2.564587055E0,5.408141017E-1,1.466910243E0,8.575086594E-1
2.567075286E0,5.631624460E-1,1.529698491E0,7.840783596E-1
2.569563339E0,5.716760755E-1,1.575459480E0,7.223543525E-1
2.572051570E0,5.727403164E-1,1.603128791E0,6.765935421E-1
2.574539877E0,5.620982051E-1,1.609513879E0,6.350893378E-1
2.577027954E0,5.354930162E-1,1.603128791E0,5.978421569E-1
2.579516185E0,5.067594051E-1,1.572266698E0,5.616590977E-1
2.582004483E0,4.737690985E-1,1.515863776E0,5.254760385E-1
2.584492560E0,4.354447424E-1,1.444554806E0,4.871905446E-1
2.586980790E0,3.832985461E-1,1.376445532E0,4.478148520E-1
2.589468867E0,3.215745091E-1,1.330684662E0,4.190812707E-1
2.591957406E0,2.460157573E-1,1.301951051E0,3.935403228E-1
2.594445421E0,1.630076319E-1,1.276409984E0,3.648067415E-1
2.596933729E0,8.532048762E-2,1.248740673E0,3.382015228E-1
2.599422036E0,2.040383220E-2,1.207236528E0,3.052110672E-1
2.601910113E0,-2.642122097E-2,1.154026151E0,2.711564898E-1
2.604398344E0,-6.260429323E-2,1.098687410E0,2.328450382E-1
2.606886416E0,-1.062367260E-1,1.060375929E0,1.892124861E-1
2.609374647E0,-1.519976556E-1,1.031642318E0,1.402589232E-1
2.611862954E0,-1.966943443E-1,9.922667146E-1,8.279176056E-2
2.614351031E0,-2.307490557E-1,9.465057850E-1,3.170983493E-2
2.616839262E0,-2.435193956E-1,8.975523710E-1,-1.937208883E-2
2.619327565E0,-2.381984144E-1,8.507272005E-1,-6.194027141E-2
2.621815642E0,-2.254279256E-1,8.113514781E-1,-9.705922753E-2
2.624303872E0,-2.094648331E-1,7.868747711E-1,-1.172790676E-1
2.626792180E0,-1.732817590E-1,7.592053413E-1,-1.268569231E-1
2.629280257E0,-1.221998259E-1,7.187654972E-1,-1.279211789E-1
2.631768488E0,-6.473266333E-2,6.751329303E-1,-1.183433160E-1
2.634256796E0,-9.393868037E-3,6.389498711E-1,-9.812334180E-2
2.636745103E0,3.423856571E-2,6.134089231E-1,-6.406877190E-2
2.639233103E0,6.403626502E-2,5.963815451E-1,-3.427093849E-2
2.641721411E0,8.532048762E-2,5.793543458E-1,-4.473105539E-3
2.644209493E0,1.055404618E-1,5.484922528E-1,1.042561140E-2
2.646697724E0,1.502371430E-1,4.793188572E-1,1.681085117E-2
2.649186031E0,1.757781059E-1,4.420715272E-1,3.383820504E-2
2.651674108E0,1.725854874E-1,4.356862903E-1,6.257178634E-2
2.654162416E0,1.683286130E-1,4.229157865E-1,8.279176056E-2
2.656650642E0,1.502371430E-1,4.186589420E-1,9.981910884E-2
2.659138719E0,1.332097948E-1,4.090810716E-1,1.136537120E-1
2.661626949E0,1.225676835E-1,3.771548569E-1,1.200389490E-1
2.664115257E0,1.002193391E-1,3.377791643E-1,1.200389490E-1
2.666603334E0,9.276998043E-2,3.026603460E-1,1.200389490E-1
2.669091575E0,9.915521741E-2,2.781836390E-1,1.104610935E-1
2.671579883E0,1.204393134E-1,2.537067831E-1,9.556224197E-2
2.674067960E0,1.885485947E-1,1.898543835E-1,6.576440483E-2
2.676556267E0,2.672999799E-1,1.440934539E-1,3.809507564E-2
2.679044267E0,2.939050496E-1,1.962396353E-1,3.064558469E-2
2.681532551E0,3.088040352E-1,2.462573051E-1,1.574673317E-2
2.684020859E0,3.268955052E-1,2.707341313E-1,-2.344736597E-3
2.686509089E0,3.673354685E-1,2.792477608E-1,-2.575732954E-2
2.688997166E0,3.715921938E-1,3.399076760E-1,-3.533519059E-2
2.691485474E0,3.237029016E-1,4.548420012E-1,-2.788569964E-2
2.693973705E0,2.502726316E-1,5.750974417E-1,-2.469307929E-2
2.696461782E0,1.608792543E-1,6.804540753E-1,-2.894994989E-2
2.698950013E0,6.829313934E-2,7.560126781E-1,-3.852780908E-2
2.701438320E0,-2.535697073E-2,7.900673747E-1,-6.619714200E-2
2.703926397E0,-1.275208145E-1,7.730400562E-1,-9.705922753E-2
2.706414637E0,-2.339415401E-1,7.294074893E-1,-1.268569231E-1
2.708902945E0,-3.392981291E-1,6.655550599E-1,-1.630399972E-1
2.711391022E0,-4.414619803E-1,6.144731641E-1,-1.970947087E-1
2.713879252E0,-5.532038212E-1,5.931890607E-1,-2.247640342E-1
2.716367329E0,-6.596245766E-1,5.942531824E-1,-2.492408752E-1
2.718855642E0,-7.639169097E-1,6.208583713E-1,-2.705249786E-1
2.721343950E0,-8.756586313E-1,6.485277414E-1,-2.875523269E-1
2.723832180E0,-9.863362312E-1,6.559771895E-1,-3.109647930E-1
2.726320257E0,-1.100206494E0,6.506562233E-1,-3.333132565E-1
2.728808565E0,-1.215140820E0,6.432067156E-1,-3.439552486E-1
2.731296796E0,-1.320497513E0,6.346929669E-1,-3.503404856E-1
2.733784796E0,-1.417340398E0,6.495919824E-1,-3.514047265E-1
2.736273104E0,-1.508861899E0,6.708762050E-1,-3.386342525E-1
2.738761411E0,-1.592934489E0,6.879034042E-1,-3.173501492E-1
2.741249488E0,-1.671685815E0,6.932244301E-1,-2.918092012E-1
2.743737825E0,-1.736602545E0,6.889676452E-1,-2.630754709E-1
2.746226056E0,-1.787684321E0,6.644909382E-1,-2.215714157E-1
2.748714133E0,-1.825995922E0,6.336288452E-1,-1.715536118E-1
2.751202440E0,-1.858986378E0,5.985100269E-1,-1.194075719E-1
2.753690440E0,-1.872821093E0,5.623269677E-1,-6.832551211E-2
2.756178777E0,-1.870692492E0,5.250796676E-1,-2.043620683E-2
2.758667008E0,-1.856857777E0,4.782545865E-1,2.745296434E-2
2.761155085E0,-1.829188466E0,4.282367826E-1,7.959914207E-2
2.763643392E0,-1.785556078E0,3.654486239E-1,1.360020489E-1
2.766131700E0,-1.716382504E0,2.941467464E-1,1.881482303E-1
2.768619695E0,-1.640823722E0,2.366794348E-1,2.296522856E-1
2.771108234E0,-1.550366163E0,1.973038763E-1,2.520006299E-1
2.773596310E0,-1.463101149E0,1.824048907E-1,2.573217452E-1
2.776084310E0,-1.379028797E0,1.887901425E-1,2.413586527E-1
2.778572618E0,-1.305598497E0,2.058174908E-1,2.104965746E-1
2.781060921E0,-1.233232498E0,2.207163423E-1,1.668641418E-1
2.783549152E0,-1.162994623E0,2.207163423E-1,1.157822162E-1
2.786037229E0,-1.089564323E0,2.004964948E-1,5.831491575E-2
2.788525459E0,-1.015069842E0,1.664417982E-1,-5.537356716E-3
2.791013536E0,-9.267405272E-1,1.196167395E-1,-7.790350169E-2
2.793501854E0,-8.288335800E-1,6.534206122E-2,-1.587832570E-1
2.795990085E0,-7.266695499E-1,1.851701178E-2,-2.407271415E-1
2.798478392E0,-6.213130951E-1,-3.043641150E-2,-3.205427825E-1
2.800966700E0,-5.191491246E-1,-9.641731530E-2,-3.961014152E-1
2.803454700E0,-4.201779068E-1,-1.666549593E-1,-4.663392007E-1
2.805942781E0,-3.329128921E-1,-2.113516480E-1,-5.238063335E-1
2.808431089E0,-2.520331442E-1,-2.294432521E-1,-5.812734962E-1
2.810919396E0,-1.690250188E-1,-2.113516480E-1,-6.280987263E-1
2.813407396E0,-7.537477463E-2,-1.677192152E-1,-6.589606404E-1
2.815895704E0,2.466070279E-2,-1.336645037E-1,-6.770521402E-1
2.818384046E0,1.395950317E-1,-1.081235483E-1,-6.781163812E-1
2.820872277E0,2.641073465E-1,-9.854568541E-2,-6.621533036E-1
2.823360354E0,3.907479048E-1,-1.091877967E-1,-6.398049593E-1
2.825848661E0,5.014255047E-1,-1.315361410E-1,-6.174566150E-1
2.828336892E0,6.131673455E-1,-1.400497556E-1,-6.025577188E-1
2.830824955E0,7.249090672E-1,-1.294076443E-1,-5.908513665E-1
2.833313186E0,8.249446750E-1,-8.577520400E-2,-5.823376179E-1
2.835801493E0,9.079527855E-1,-1.660167798E-2,-5.716956854E-1
2.838289801E0,9.824472070E-1,5.150746554E-2,-5.695672631E-1
2.840777801E0,1.058005929E0,1.068462580E-1,-5.631819367E-1
2.843265868E0,1.137821436E0,1.387724578E-1,-5.536040664E-1
2.845754407E0,1.209123373E0,1.494144350E-1,-5.472187996E-1
2.848242483E0,1.259141207E0,1.472860724E-1,-5.365768671E-1
2.850730483E0,1.302773714E0,1.398365796E-1,-5.163568854E-1
2.853218791E0,1.326186180E0,1.419650763E-1,-4.908159077E-1
2.855707080E0,1.330443025E0,1.345155984E-1,-4.642106891E-1
2.858195311E0,1.324057698E0,1.089746282E-1,-4.376054704E-1
2.860683388E0,1.302773714E0,6.959893554E-2,-4.046150148E-1
2.863171695E0,1.275104284E0,3.022324108E-2,-3.716247082E-1
2.865659926E0,1.232535958E0,1.106751896E-2,-3.396984935E-1
2.868147988E0,1.181453943E0,-3.831197508E-3,-3.130932748E-1
2.870636219E0,1.131436229E0,-2.405117080E-2,-2.875523269E-1
2.873124526E0,1.073969007E0,-4.001427069E-2,-2.630754709E-1
2.875612603E0,9.994745255E-1,-4.107852280E-2,-2.449840158E-1
2.878100834E0,9.132738113E-1,-3.362902999E-2,-2.343419045E-1
2.880588926E0,8.206878304E-1,-1.660167798E-2,-2.322135270E-1
2.883077234E0,7.259733081E-1,5.746529903E-3,-2.311492711E-1
2.885565465E0,6.333872080E-1,2.064538002E-2,-2.407271415E-1
2.888053772E0,5.418654680E-1,3.873698413E-2,-2.556261122E-1
2.890542080E0,4.631140530E-1,6.108532473E-2,-2.652039826E-1
2.893030041E0,3.811700642E-1,8.981890976E-2,-2.779744565E-1
2.895518118E0,2.896483243E-1,1.536713094E-1,-2.769102156E-1
2.898006656E0,2.002548128E-1,2.356153280E-1,-2.769102156E-1
2.900494733E0,1.268245578E-1,2.930824757E-1,-2.843596935E-1
2.902982964E0,6.510051340E-2,3.207519650E-1,-3.056437969E-1
2.905471065E0,8.697468787E-3,3.388434350E-1,-3.311847448E-1
2.907959296E0,-7.111790776E-2,3.920538425E-1,-3.514047265E-1
2.910447603E0,-2.264921814E-1,5.431712270E-1,-3.631109595E-1
2.912935680E0,-4.180495441E-1,7.187654972E-1,-3.854593039E-1
2.915423988E0,-5.808731914E-1,8.134798408E-1,-4.216423631E-1
2.917912249E0,-7.032571435E-1,8.241219521E-1,-4.642106891E-1
2.920400326E0,-8.086135983E-1,7.794252634E-1,-5.014578700E-1
2.922888557E0,-9.118416905E-1,7.166370153E-1,-5.429620743E-1
2.925376864E0,-1.016134024E0,6.676836014E-1,-5.929799080E-1
2.927865172E0,-1.145967484E0,6.868391633E-1,-6.398049593E-1
2.930353181E0,-1.281121731E0,7.134443521E-1,-6.759880185E-1
2.932841489E0,-1.393927693E0,7.017381191E-1,-6.940794587E-1
2.935329566E0,-1.557815671E0,7.581412196E-1,-6.940794587E-1
2.937817873E0,-1.804711819E0,9.188364744E-1,-6.504468918E-1
2.940306104E0,-1.950508237E0,9.326711893E-1,-6.344839334E-1
2.942794172E0,-2.017553091E0,8.358281851E-1,-6.440618038E-1
2.945282480E0,-2.079277039E0,7.655905485E-1,-6.429975629E-1
2.947770710E0,-2.133551598E0,7.198296189E-1,-6.323555708E-1
2.950258787E0,-2.122909546E0,6.346929669E-1,-6.387406588E-1
2.952747095E0,-2.063313961E0,5.527490973E-1,-6.493827701E-1
2.955235306E0,-1.966471314E0,4.920893312E-1,-6.685385108E-1
2.957723383E0,-1.815353751E0,4.271726608E-1,-6.876942515E-1
2.960211614E0,-1.621667981E0,3.792832494E-1,-7.132351995E-1
2.962699921E0,-1.404569864E0,3.739622533E-1,-7.313266993E-1
2.965187998E0,-1.162994623E0,4.058884382E-1,-7.281340361E-1
2.967676254E0,-9.022638202E-1,4.612272382E-1,-7.036573291E-1
2.970164331E0,-6.362119317E-1,5.484922528E-1,-6.664101481E-1
2.972652639E0,-3.690959811E-1,6.463993788E-1,-6.100071073E-1
2.975140869E0,-1.041083559E-1,7.347285748E-1,-5.397694707E-1
2.977629177E0,1.427876502E-1,7.932600379E-1,-4.663392007E-1
2.980117480E0,3.737207055E-1,7.964526415E-1,-4.003582895E-1
2.982605557E0,5.769842863E-1,7.485633492E-1,-3.428911269E-1
2.985093787E0,7.493858933E-1,6.581056118E-1,-2.960659266E-1
2.987581864E0,8.877328038E-1,5.282722712E-1,-2.598828673E-1
2.990070172E0,9.824472070E-1,3.728981316E-1,-2.364704013E-1
2.992558403E0,1.038850188E0,2.249732167E-1,-2.183787972E-1
2.995046480E0,1.054813147E0,1.004610211E-1,-2.045440674E-1
2.997534711E0,1.039914370E0,2.915912308E-2,-1.896452159E-1
3.000023018E0,1.002667189E0,7.874898612E-3,-1.779389828E-1
3.002511095E0,9.526494741E-1,5.746529903E-3,-1.641042531E-1
3.004999388E0,8.909254670E-1,2.553909784E-3,-1.449485272E-1
3.007487696E0,8.270730376E-1,-5.959699862E-3,-1.236643046E-1
3.009975696E0,7.557710409E-1,-1.766593009E-2,-9.173810482E-2
3.012463926E0,6.823407412E-1,-3.788590431E-2,-5.874764919E-2
3.014952234E0,6.067821383E-1,-4.427114502E-2,-3.852780908E-2
3.017440528E0,5.344159603E-1,-3.043641150E-2,-2.150045894E-2
3.019928605E0,4.684351981E-1,-1.702828566E-3,-1.192259789E-2
3.022416836E0,4.013900161E-1,4.405797273E-2,-8.729977533E-3
3.024904912E0,3.375376165E-1,1.036536396E-1,-1.511521731E-2
3.027393220E0,2.811345756E-1,1.643134207E-1,-1.830783859E-2
3.029881460E0,2.311169058E-1,2.228448391E-1,-2.682144754E-2
3.032369768E0,1.874843389E-1,2.771193981E-1,-3.746356070E-2
3.034857845E0,1.385307759E-1,3.175592124E-1,-3.107831813E-2
3.037346075E0,7.680674642E-2,3.579991460E-1,-2.362882718E-2
3.039834152E0,8.697468787E-3,3.941822052E-1,-6.601607893E-3
3.042322470E0,-7.324627042E-2,4.048243165E-1,1.042561140E-2
3.044810701E0,-1.551902890E-1,3.824760020E-1,2.319609188E-2
3.047298778E0,-2.286205441E-1,3.260729313E-1,2.851721458E-2
3.049787008E0,-2.828950882E-1,2.324227095E-1,1.042561140E-2
3.052275316E0,-3.233350515E-1,1.185524911E-1,-2.575732954E-2
3.054763614E0,-3.510043621E-1,1.106751896E-2,-7.790350169E-2
3.057251691E0,-3.573895991E-1,-7.406884432E-2,-1.502695233E-1
3.059739922E0,-3.478118777E-1,-1.400497556E-1,-2.236997932E-1
3.062228229E0,-3.073719442E-1,-1.751685739E-1,-2.950016856E-1
3.064716306E0,-2.456479073E-1,-1.730402112E-1,-3.450194895E-1
3.067204547E0,-1.817954928E-1,-1.411139965E-1,-3.737530708E-1
3.069692855E0,-1.232640818E-1,-9.003207833E-2,-3.886520565E-1
3.072180932E0,-4.876956344E-2,-1.128068939E-2,-3.907804191E-1
3.074669162E0,3.636693209E-2,7.704842836E-2,-3.971656561E-1
3.077157239E0,1.002193391E-1,1.196167395E-1,-4.120645225E-1
3.079645523E0,1.630076319E-1,1.653775424E-1,-4.333487451E-1
3.082133754E0,2.226032913E-1,2.122027278E-1,-4.493118525E-1
3.084621831E0,2.821937501E-1,2.824377120E-1,-4.493017197E-1
3.087110061E0,3.428536952E-1,3.569322228E-1,-4.493017197E-1
3.089598446E0,3.981924653E-1,4.090783894E-1,-4.461090863E-1
3.092086489E0,4.609806240E-1,4.410046041E-1,-4.333386123E-1
3.094574797E0,5.312182903E-1,4.697381854E-1,-4.216323793E-1
3.097063104E0,6.110339165E-1,5.112422705E-1,-4.003483057E-1
3.099551335E0,6.738222241E-1,5.346548557E-1,-3.779998124E-1
3.102039412E0,7.334177494E-1,5.772231817E-1,-3.556514680E-1
3.104527653E0,7.802429199E-1,5.942503810E-1,-3.354315162E-1
3.107015961E0,8.068479896E-1,5.985072255E-1,-3.226611614E-1
3.109504038E0,8.313248754E-1,6.197914481E-1,-3.205326498E-1
3.111992268E0,8.526089191E-1,6.559745669E-1,-3.226611614E-1
3.114480345E0,8.536732197E-1,6.857722402E-1,-3.247895241E-1
3.116968653E0,8.579300642E-1,7.294048071E-1,-3.258537650E-1
3.119456884E0,8.600584269E-1,7.453679442E-1,-3.311747611E-1
3.121945191E0,8.643153310E-1,7.421752810E-1,-3.375599980E-1
3.124433268E0,8.749572635E-1,7.336617112E-1,-3.524588645E-1
3.126921576E0,8.760215044E-1,7.155700922E-1,-3.662935793E-1
3.129409576E0,8.941130042E-1,6.921575069E-1,-3.854493201E-1
3.131897884E0,9.100760818E-1,6.708734035E-1,-4.024766684E-1
3.134386191E0,9.239108562E-1,6.538460255E-1,-4.173755050E-1
3.136874422E0,9.324246049E-1,6.187272072E-1,-4.237607419E-1
3.139362422E0,9.441308379E-1,5.836083889E-1,-4.237607419E-1
3.141850725E0,9.547729492E-1,5.431684256E-1,-4.152471423E-1
3.144339033E0,9.664791822E-1,4.952791631E-1,-4.024766684E-1
3.146827110E0,9.888274670E-1,4.473898411E-1,-3.865135610E-1
3.149315417E0,1.010111690E0,3.941795528E-1,-3.684219718E-1
3.151803648E0,1.037781239E0,3.473543525E-1,-3.482021093E-1
3.154291715E0,1.068643093E0,3.218134046E-1,-3.258537650E-1
3.156780023E0,1.098440886E0,3.026576936E-1,-2.949917018E-1
3.159268253E0,1.114404082E0,2.962724566E-1,-2.588086128E-1
3.161756330E0,1.128238797E0,3.026576936E-1,-2.279466689E-1
3.164244638E0,1.141009331E0,3.345838785E-1,-1.970845759E-1
3.166732614E0,1.155908227E0,3.909869194E-1,-1.789931059E-1
3.169220922E0,1.171871185E0,4.665455818E-1,-1.662226319E-1
3.171709229E0,1.182513475E0,5.389117002E-1,-1.577088833E-1
3.174197460E0,1.186770082E0,5.921221375E-1,-1.481310278E-1
3.176685537E0,1.180384994E0,6.314976811E-1,-1.374890506E-1
3.179173864E0,1.163357615E0,6.421397924E-1,-1.268469393E-1
3.181662095E0,1.131431460E0,6.197914481E-1,-1.193974465E-1
3.184150172E0,1.092055678E0,5.782874227E-1,-1.183333248E-1
3.186638479E0,1.045230508E0,5.218843818E-1,-1.236543134E-1
3.189126710E0,9.920201302E-1,4.622888267E-1,-1.268469393E-1
3.191614802E0,9.302961826E-1,4.090783894E-1,-1.257826835E-1
3.194103033E0,8.579300642E-1,3.760879636E-1,-1.076912135E-1
3.196591340E0,7.696008086E-1,3.697026968E-1,-8.534286916E-2
3.199079417E0,6.748863459E-1,3.814089298E-1,-5.235241726E-2
3.201567725E0,5.716582537E-1,4.048215449E-1,-2.042621560E-2
3.204055710E0,4.620448947E-1,4.271698594E-1,2.986245090E-3
3.206544249E0,3.492389321E-1,4.516467154E-1,2.214196697E-2
3.209032325E0,2.385613322E-1,4.803802967E-1,3.597670048E-2
3.211520325E0,1.225627512E-1,5.165633559E-1,4.129768908E-2
3.214008633E0,2.307298593E-3,5.633884072E-1,4.555455968E-2
3.216496927E0,-1.179480180E-1,6.229841113E-1,5.406817049E-2
3.218985158E0,-2.435244620E-1,6.793870330E-1,5.619653687E-2
3.221473235E0,-3.669725358E-1,7.219552994E-1,6.151765957E-2
3.223961542E0,-4.925489724E-1,7.400467992E-1,5.300391838E-2
3.226449773E0,-6.096118093E-1,7.432394028E-1,3.597670048E-2
3.228937835E0,-7.192251682E-1,7.389826775E-1,1.894934662E-2
3.231426066E0,-8.171322346E-1,7.251479626E-1,5.114614032E-3
3.233914373E0,-8.905625343E-1,7.123774886E-1,-1.404097397E-2
3.236402450E0,-9.395160675E-1,6.964143515E-1,-3.532506526E-2
3.238890758E0,-9.650570154E-1,6.655524373E-1,-5.554503947E-2
3.241378965E0,-9.650570154E-1,6.176629663E-1,-7.789337635E-2
3.243867273E0,-9.331308603E-1,5.591315627E-1,-1.002417207E-1
3.246355350E0,-8.650215864E-1,4.814445376E-1,-1.247185692E-1
3.248843580E0,-7.649860978E-1,3.931153119E-1,-1.523879021E-1
3.251331888E0,-6.308960319E-1,3.132996559E-1,-1.736719906E-1
3.253819970E0,-4.521091580E-1,2.632820010E-1,-1.683509946E-1
3.256308201E0,-2.360749692E-1,2.622177303E-1,-1.491952837E-1
3.258796278E0,-4.026088119E-2,2.515756190E-1,-1.566447616E-1
3.261284585E0,1.502320766E-1,2.164568007E-1,-1.662226319E-1
3.263772816E0,3.375325501E-1,1.898517162E-1,-1.800573617E-1
3.266260840E0,5.131267905E-1,1.728243679E-1,-2.013414502E-1
3.268749225E0,6.589232087E-1,1.472834051E-1,-2.290107906E-1
3.271237455E0,7.717291713E-1,1.057793424E-1,-2.662581205E-1
3.273725532E0,8.547374606E-1,5.150466785E-2,-3.077621758E-1
3.276213840E0,8.941130042E-1,-1.234760508E-2,-3.503304720E-1
3.278702109E0,9.036908746E-1,-8.152113110E-2,-3.790640831E-1
3.281190186E0,8.962414861E-1,-1.283461899E-1,-3.886419237E-1
3.283678494E0,8.717646599E-1,-1.549513936E-1,-3.865135610E-1
3.286166724E0,8.270679712E-1,-1.666576266E-1,-3.726788163E-1
3.288654801E0,7.632156014E-1,-1.719786227E-1,-3.599083424E-1
3.291143100E0,6.961705685E-1,-1.783639938E-1,-3.460736275E-1
3.293631331E0,6.174191833E-1,-1.858133525E-1,-3.290462494E-1
3.296119638E0,5.354751348E-1,-1.911344677E-1,-3.098905385E-1
3.298607715E0,4.577880204E-1,-1.964554638E-1,-2.886064649E-1
3.301095946E0,3.747798800E-1,-1.964554638E-1,-2.662581205E-1
3.303584225E0,3.034780025E-1,-1.943270862E-1,-2.439097613E-1
3.306072302E0,2.374970764E-1,-1.794281155E-1,-2.204971761E-1
3.308560532E0,2.321760952E-1,-9.003474563E-2,-1.949562132E-1
3.311048609E0,2.428182065E-1,1.486993860E-3,-1.779288650E-1
3.313536917E0,2.119561136E-1,1.486993860E-3,-1.864425987E-1
3.316025133E0,1.874794066E-1,-2.086121403E-2,-1.992130876E-1
3.318513441E0,1.779015511E-1,-5.598003790E-2,-2.162403017E-1
3.321001441E0,1.661951840E-1,-9.322736412E-2,-2.375245243E-1
3.323489825E0,1.630025655E-1,-1.262178123E-1,-2.641297281E-1
3.325977825E0,1.608741879E-1,-1.794281155E-1,-2.854138315E-1
3.328466114E0,1.481037140E-1,-2.539226413E-1,-3.045695424E-1
3.330954422E0,1.321406066E-1,-3.348023891E-1,-3.247895241E-1
3.333442652E0,1.246911213E-1,-4.061042964E-1,-3.450095057E-1
3.335930729E0,1.183058769E-1,-4.720851779E-1,-3.599083424E-1
3.338418960E0,1.193701327E-1,-5.295523405E-1,-3.705504537E-1
3.340907278E0,1.427827179E-1,-5.636070371E-1,-3.811924458E-1
3.343395355E0,1.789656579E-1,-5.934048891E-1,-3.950271606E-1
3.345883586E0,2.353687137E-1,-6.210741997E-1,-4.014123976E-1
3.348371662E0,3.173127174E-1,-6.295879483E-1,-4.077976644E-1
3.350860201E0,4.056418240E-1,-6.189458370E-1,-4.131187797E-1
3.353348278E0,4.939710796E-1,-5.870196819E-1,-4.141829014E-1
3.355836278E0,5.876213312E-1,-5.316808820E-1,-4.141829014E-1
3.358324816E0,6.759505868E-1,-4.667642117E-1,-4.131187797E-1
3.360812893E0,7.515093684E-1,-3.912054300E-1,-4.024766684E-1
3.363301124E0,7.940775156E-1,-3.156466782E-1,-3.950271606E-1
3.365789219E0,8.100407720E-1,-2.475373894E-1,-3.854493201E-1
3.368277527E0,7.951417565E-1,-1.964554638E-1,-3.822566867E-1
3.370765757E0,7.472524643E-1,-1.570797712E-1,-3.843850493E-1
3.373253834E0,6.621158719E-1,-1.368597895E-1,-3.982197940E-1
3.375742065E0,5.525025129E-1,-1.262178123E-1,-4.258891344E-1
3.378230387E0,4.216049314E-1,-1.251535714E-1,-4.631364346E-1
3.380718464E0,2.821937501E-1,-1.230251938E-1,-5.067690015E-1
3.383206695E0,1.438468397E-1,-1.262178123E-1,-5.472088456E-1
3.385695002E0,9.756790474E-3,-1.389883012E-1,-5.961623788E-1
3.388183310E0,-1.307184994E-1,-1.592082679E-1,-6.451159120E-1
3.390671373E0,-2.648086846E-1,-1.858133525E-1,-6.866199970E-1
3.393159604E0,-3.914492428E-1,-2.283816636E-1,-7.238672972E-1
3.395647681E0,-5.117046833E-1,-2.773352265E-1,-7.494083047E-1
3.398135988E0,-6.159970760E-1,-3.305456340E-1,-7.664356232E-1
3.400624219E0,-7.085831761E-1,-3.869485557E-1,-7.802702188E-1
3.403112292E0,-7.905270457E-1,-4.422873557E-1,-7.866556048E-1
3.405600600E0,-8.714067936E-1,-5.018830299E-1,-7.898480892E-1
3.408088830E0,-9.448372126E-1,-5.625427961E-1,-7.972975969E-1
3.410576907E0,-1.018267512E0,-6.168173552E-1,-7.983618379E-1
3.413065215E0,-1.083184004E0,-6.785413623E-1,-7.951691151E-1
3.415553446E0,-1.155550122E0,-7.519717813E-1,-7.877197266E-1
3.418041523E0,-1.224723697E0,-8.275304437E-1,-7.781418562E-1
3.420529830E0,-1.292832971E0,-9.009608030E-1,-7.653713822E-1
3.423018061E0,-1.353492618E0,-9.648132324E-1,-7.589861751E-1
3.425506369E0,-1.387547255E0,-1.003124714E0,-7.557935119E-1
3.427994479E0,-1.379033685E0,-1.011638284E0,-7.547292709E-1
3.430482710E0,-1.310924411E0,-9.935467839E-1,-7.504724264E-1
3.432971017E0,-1.191733241E0,-9.477858543E-1,-7.334451675E-1
3.435459094E0,-1.038487315E0,-8.711628318E-1,-6.972621083E-1
3.437947325E0,-8.618289232E-1,-7.881547213E-1,-6.525654197E-1
3.440435652E0,-6.745284796E-1,-7.136603594E-1,-6.057402492E-1
3.442923729E0,-4.808427393E-1,-6.487435699E-1,-5.535940528E-1
3.445411959E0,-2.892853916E-1,-5.997899771E-1,-5.184752345E-1
3.447900267E0,-1.073059067E-1,-5.721206665E-1,-4.971911609E-1
3.450388344E0,5.551772565E-2,-5.561575890E-1,-4.908059239E-1
3.452876589E0,1.959930211E-1,-5.401944518E-1,-5.067690015E-1
3.455364666E0,3.056063652E-1,-5.135892630E-1,-5.301814675E-1
3.457852973E0,3.779725134E-1,-4.603788257E-1,-5.567867160E-1
3.460341204E0,4.184124470E-1,-3.933337927E-1,-5.876487494E-1
3.462829512E0,4.354396760E-1,-3.252245188E-1,-6.270244718E-1
3.465317575E0,4.301186800E-1,-2.666931152E-1,-6.759780049E-1
3.467805883E0,4.088344574E-1,-2.219964266E-1,-7.345094085E-1
3.470293883E0,3.630735278E-1,-1.858133525E-1,-8.058113456E-1
3.472782190E0,3.024137318E-1,-1.528228968E-1,-8.898835778E-1
3.475270498E0,2.396255881E-1,-1.230251938E-1,-9.824696779E-1
3.477758729E0,1.683236808E-1,-8.897048980E-2,-1.077184081E0
3.480246806E0,9.276491404E-2,-4.427380860E-2,-1.172962785E0
3.482735036E0,1.720614918E-2,1.486993860E-3,-1.257035136E0
3.485223344E0,-5.515973270E-2,3.447744623E-2,-1.335786462E0
3.487711652E0,-1.243332624E-1,4.299105704E-2,-1.409216881E0
3.490199657E0,-1.871214211E-1,3.341319785E-2,-1.475197554E0
3.492687734E0,-2.531023324E-1,3.615363035E-3,-1.531600595E0
3.495176272E0,-3.275968432E-1,-3.256757930E-2,-1.576297522E0
3.497664349E0,-4.084765911E-1,-5.810853839E-2,-1.601838470E0
3.500152580E0,-4.957416058E-1,-7.726426423E-2,-1.605030894E0
3.502640892E0,-5.819424987E-1,-9.429161251E-2,-1.580554247E0
3.505128969E0,-6.660148501E-1,-1.251535714E-1,-1.541178465E0
3.507617199E0,-7.468945980E-1,-1.645292640E-1,-1.491160870E0
3.510105276E0,-8.235175014E-1,-2.145469338E-1,-1.429436684E0
3.512593584E0,-8.831130266E-1,-2.773352265E-1,-1.360263228E0
3.515081801E0,-9.235529900E-1,-3.539581001E-1,-1.280447721E0
3.517569878E0,-9.533508420E-1,-4.444157183E-1,-1.198503733E0
3.520058108E0,-9.671855569E-1,-5.455154777E-1,-1.115495682E0
3.522546416E0,-9.661213160E-1,-6.466152072E-1,-1.028230548E0
3.525034493E0,-9.416444302E-1,-7.434580326E-1,-9.367087483E-1
3.527522820E0,-8.852415085E-1,-8.158242106E-1,-8.515721560E-1
3.530011051E0,-7.979765534E-1,-8.445577621E-1,-7.770777345E-1
3.532499358E0,-6.723999381E-1,-8.254020810E-1,-7.089684606E-1
3.534987435E0,-5.085120797E-1,-7.636780143E-1,-6.440517902E-1
3.537475666E0,-3.158906102E-1,-6.785413623E-1,-5.833920240E-1
3.539963969E0,-1.083701625E-1,-5.816986561E-1,-5.237962604E-1
3.542452046E0,1.012785286E-1,-4.976261556E-1,-4.790995419E-1
3.544940276E0,3.034780025E-1,-4.295168817E-1,-4.461090863E-1
3.547428353E0,4.886500835E-1,-3.667287230E-1,-4.248250127E-1
3.549916661E0,6.567948461E-1,-2.996835709E-1,-4.195040166E-1
3.552404907E0,7.962059975E-1,-2.347669005E-1,-4.280176163E-1
3.554892984E0,9.090119600E-1,-1.772997379E-1,-4.450449646E-1
3.557381291E0,9.984053373E-1,-1.283461899E-1,-4.631364346E-1
3.559869522E0,1.059065223E0,-7.407163829E-2,-4.812279046E-1
3.562357599E0,1.093119860E0,-1.234760508E-2,-4.993195236E-1
3.564845883E0,1.108018637E0,5.682579055E-2,-5.110257268E-1
3.567334114E0,1.099505186E0,1.217424497E-1,-5.174111128E-1
3.569822421E0,1.066514730E0,1.760169864E-1,-5.174111128E-1
3.572310498E0,1.018625379E0,2.111358196E-1,-5.142183900E-1
3.574798729E0,9.590296745E-1,2.302915305E-1,-5.078332424E-1
3.577287022E0,8.887920380E-1,2.366767824E-1,-5.025121570E-1
3.579775099E0,8.174901009E-1,2.260346711E-1,-4.982552826E-1
3.582263329E0,7.493808270E-1,2.015579492E-1,-4.971911609E-1
3.584751637E0,6.780869365E-1,1.781497598E-1,-4.886933863E-1
3.587239714E0,6.110419035E-1,1.547371596E-1,-4.791155457E-1
3.589727950E0,5.429325104E-1,1.398381740E-1,-4.599598050E-1
3.592216257E0,4.641812444E-1,1.323888153E-1,-4.333546162E-1
3.594704565E0,3.875582218E-1,1.334529370E-1,-4.003641605E-1
3.597192565E0,3.056143522E-1,1.451593041E-1,-3.599243462E-1
3.599680642E0,2.151567340E-1,1.643150300E-1,-3.194843829E-1
3.602168965E0,1.215064973E-1,1.813422441E-1,-2.833013237E-1
3.604657273E0,1.934251189E-2,1.919843554E-1,-2.545677423E-1
3.607145503E0,-8.601382375E-2,1.792138815E-1,-2.354120165E-1
3.609633580E0,-1.924345493E-1,1.462234259E-1,-2.173205465E-1
3.612121888E0,-2.903416455E-1,1.025909856E-1,-2.109352946E-1
3.614610128E0,-3.850561380E-1,4.512382299E-2,-2.077426761E-1
3.617098205E0,-4.680642784E-1,-2.085695043E-2,-2.024215609E-1
3.619586512E0,-5.351092815E-1,-7.193887234E-2,-1.928436905E-1
3.622074743E0,-5.744850039E-1,-9.535146505E-2,-1.704953611E-1
3.624562820E0,-5.712924004E-1,-9.215884656E-2,-1.438901424E-1
3.627051114E0,-5.244672894E-1,-7.087475806E-2,-9.919346124E-2
3.629539344E0,-4.318811893E-1,-4.533366114E-2,-3.640530258E-2
3.632027421E0,-3.169468641E-1,-2.830644324E-2,4.234595224E-2
3.634515729E0,-1.934987903E-1,-2.830644324E-2,1.402530670E-1
3.637003729E0,-6.366547942E-2,-4.533366114E-2,2.541232705E-1
3.639492017E0,6.297507882E-2,-6.981050968E-2,3.786354661E-1
3.641980325E0,1.811020225E-1,-8.683785796E-2,4.988909066E-1
3.644468555E0,2.981648743E-1,-9.322310239E-2,6.095685363E-1
3.646956863E0,4.024572074E-1,-9.854409099E-2,7.096039653E-1
3.649444940E0,4.588601291E-1,-1.251493096E-1,7.883553505E-1
3.651933167E0,4.439612627E-1,-1.921943277E-1,8.298594356E-1
3.654421244E0,3.205131888E-1,-3.039361835E-1,8.245384693E-1
3.656909551E0,8.319505304E-2,-4.199347496E-1,7.798416615E-1
3.659397782E0,-2.201040089E-1,-4.848512709E-1,7.021545172E-1
3.661885859E0,-5.404304266E-1,-5.018786192E-1,5.925411582E-1
3.664374162E0,-8.554357290E-1,-5.040069818E-1,4.797351956E-1
3.666862393E0,-1.150221348E0,-5.093281269E-1,3.669292331E-1
3.669350700E0,-1.416272998E0,-4.869797826E-1,2.722147405E-1
3.671838700E0,-1.650398731E0,-4.337693453E-1,1.977202296E-1
3.674327085E0,-1.853662252E0,-3.784305453E-1,1.445098072E-1
3.676815075E0,-2.016485929E0,-3.273486197E-1,1.125836000E-1
3.679303383E0,-2.127163410E0,-2.986150384E-1,1.019416153E-1
3.681791613E0,-2.185694933E0,-3.018076718E-1,1.030057371E-1
3.684279921E0,-2.205914736E0,-3.326697648E-1,1.104552299E-1
3.686767998E0,-2.198465347E0,-3.880085349E-1,1.264183372E-1
3.689256239E0,-2.166539192E0,-4.603745639E-1,1.530235410E-1
3.691744316E0,-2.123970985E0,-5.274195671E-1,1.977202296E-1
3.694232623E0,-2.067568064E0,-5.934004784E-1,2.562516332E-1
3.696720854E0,-2.004779577E0,-6.647024155E-1,3.243609071E-1
3.699208931E0,-1.940927267E0,-7.221695781E-1,3.988554478E-1
3.701697465E0,-1.868561268E0,-7.562242746E-1,4.765425622E-1
3.704185541E0,-1.802580357E0,-7.764442563E-1,5.542297363E-1
3.706673541E0,-1.723828912E0,-7.892147303E-1,6.308525801E-1
3.709162080E0,-1.632307053E0,-7.966640592E-1,7.010903955E-1
3.711650157E0,-1.543977976E0,-8.041135669E-1,7.617501616E-1
3.714138417E0,-1.450327754E0,-8.158197999E-1,8.107036948E-1
3.716626494E0,-1.353484750E0,-8.328471780E-1,8.468868136E-1
3.719114724E0,-1.250256658E0,-8.541312218E-1,8.734918833E-1
3.721603032E0,-1.130001307E0,-8.754154444E-1,9.032897353E-1
3.724091109E0,-1.007617474E0,-9.052131772E-1,9.309590459E-1
3.726579316E0,-8.703346848E-1,-9.158554077E-1,9.596927762E-1
3.729067623E0,-7.319877744E-1,-8.839290738E-1,9.862978458E-1
3.731555700E0,-5.904480815E-1,-8.126271963E-1,1.010774732E0
3.734044008E0,-4.521011710E-1,-7.264264226E-1,1.025673509E0
3.736532239E0,-3.275889754E-1,-6.466107965E-1,1.023545027E0
3.739020562E0,-2.169113904E-1,-5.731804967E-1,1.017159820E0
3.741508638E0,-1.126190349E-1,-5.189059973E-1,1.009710431E0
3.743996869E0,-2.216141857E-2,-4.784661531E-1,9.990683198E-1
3.746484946E0,5.339721590E-2,-4.497325718E-1,9.777842164E-1
3.748973254E0,1.268274784E-1,-4.337693453E-1,9.426653981E-1
3.751461480E0,1.811020225E-1,-4.199347496E-1,9.192528129E-1
3.753949557E0,2.140924782E-1,-4.124852717E-1,9.011613131E-1
3.756437864E0,2.460186779E-1,-4.124852717E-1,8.841339946E-1
3.758926095E0,2.747522593E-1,-3.986505270E-1,8.713635206E-1
3.761414172E0,3.034858406E-1,-3.688527048E-1,8.585930467E-1
3.763902739E0,3.566962779E-1,-3.103212714E-1,8.107036948E-1
3.766390739E0,4.045855701E-1,-2.592393458E-1,7.723921537E-1
3.768878816E0,4.258697927E-1,-2.102857977E-1,7.681352496E-1
3.771367124E0,4.354476631E-1,-1.847448349E-1,7.723921537E-1
3.773855432E0,4.482181370E-1,-1.783595979E-1,7.819700241E-1
3.776343667E0,4.641812444E-1,-1.783595979E-1,8.021899462E-1
3.778831743E0,4.971715808E-1,-1.772954762E-1,8.181532025E-1
3.781319974E0,5.365472436E-1,-1.900659651E-1,8.362445235E-1
3.783808282E0,5.706019402E-1,-2.134785503E-1,8.564646244E-1
3.786296359E0,6.014640331E-1,-2.411478758E-1,8.798770905E-1
3.788784590E0,6.301975250E-1,-2.805235684E-1,9.075465798E-1
3.791272897E0,6.387112141E-1,-3.369264901E-1,9.341516495E-1
3.793761205E0,6.206197739E-1,-4.018431604E-1,9.650137424E-1
3.796249205E0,5.769872069E-1,-4.593104422E-1,9.969399571E-1
3.798737513E0,5.131347775E-1,-4.986860156E-1,1.028866172E0
3.801225595E0,4.397043884E-1,-4.997502565E-1,1.050150275E0
3.803713902E0,3.747877479E-1,-4.625030756E-1,1.058663964E0
3.806201902E0,3.013574779E-1,-4.103568792E-1,1.055471420E0
3.808690210E0,2.279272079E-1,-3.582107127E-1,1.043764949E0
3.811178518E0,1.523684412E-1,-3.060645461E-1,1.023545027E0
3.813666701E0,8.745178580E-2,-2.709457278E-1,9.916189313E-1
3.816154777E0,2.785625495E-2,-2.464688718E-1,9.501149058E-1
3.818643085E0,-2.322566882E-2,-2.177352905E-1,8.947761059E-1
3.821131316E0,-7.537171245E-2,-1.804880947E-1,8.309235573E-1
3.823619393E0,-1.328390092E-1,-1.368555278E-1,7.585575581E-1
3.826107706E0,-1.977556646E-1,-8.258099109E-2,6.861913800E-1
3.828595936E0,-2.541585863E-1,-2.192120254E-2,6.127611399E-1
3.831084244E0,-3.116258681E-1,2.916072123E-2,5.467802286E-1
3.833572321E0,-3.627077937E-1,6.108692288E-2,4.829278290E-1
3.836060321E0,-4.063402414E-1,8.237101883E-2,4.286532700E-1
3.838548873E0,-4.435875714E-1,8.769200742E-2,3.839564621E-1
3.841036950E0,-4.701927602E-1,7.811414450E-2,3.456450105E-1
3.843525181E0,-4.872199893E-1,4.512382299E-2,3.158473074E-1
3.846013489E0,-4.989263415E-1,1.319748722E-2,2.966914475E-1
3.848501566E0,-5.042473674E-1,-1.660007983E-2,2.913704515E-1
3.850989797E0,-5.010547042E-1,-4.746216536E-2,2.956273258E-1
3.853478104E0,-4.936052263E-1,-8.151673526E-2,3.105261922E-1
3.855966181E0,-4.701927602E-1,-1.134429425E-1,3.318104148E-1
3.858454412E0,-4.361380637E-1,-1.517545134E-1,3.477735221E-1
3.860942489E0,-3.850561380E-1,-1.900659651E-1,3.584156334E-1
3.863430788E0,-3.297173381E-1,-2.358268946E-1,3.722502291E-1
3.865919018E0,-2.743785381E-1,-2.730740905E-1,3.828923404E-1
3.868407326E0,-2.137187719E-1,-3.050002754E-1,3.882133365E-1
3.870895403E0,-1.530589759E-1,-3.379907310E-1,3.850207031E-1
3.873383711E0,-9.133494645E-2,-3.688527048E-1,3.765071034E-1
3.875871936E0,-2.961090952E-2,-4.039716423E-1,3.594797552E-1
3.878360013E0,3.636986390E-2,-4.401547313E-1,3.413882852E-1
3.880848321E0,1.076717600E-1,-4.667598009E-1,3.254251778E-1
3.883336552E0,1.779094040E-1,-4.656956792E-1,3.073335588E-1
3.885824629E0,2.417618185E-1,-4.390904605E-1,2.903063595E-1
3.888312869E0,3.045501113E-1,-3.986505270E-1,2.711504996E-1
3.890801176E0,3.609531522E-1,-3.496971130E-1,2.509306669E-1
3.893289484E0,4.056498408E-1,-2.975509167E-1,2.328390479E-1
3.895777484E0,4.365117848E-1,-2.475331277E-1,2.190043181E-1
3.898265561E0,4.546033740E-1,-2.028364390E-1,2.072980851E-1
3.900753874E0,4.631170034E-1,-1.645250022E-1,1.966559738E-1
3.903242181E0,4.769517183E-1,-9.960833937E-2,1.615371555E-1
3.905730412E0,5.195200443E-1,2.490385063E-2,8.704263717E-2
3.908218720E0,5.120705366E-1,6.534366310E-2,7.427215576E-2
3.910706797E0,4.652453661E-1,4.938055947E-2,1.030057371E-1
3.913195042E0,4.194844365E-1,2.555508399E-3,1.370604485E-1
3.915683119E0,3.854298592E-1,-6.236101314E-2,1.636656523E-1
3.918171427E0,3.641457558E-1,-1.006724611E-1,1.838854998E-1
3.920659658E0,3.375405669E-1,-9.854409099E-2,2.019771039E-1
3.923147735E0,2.992291152E-1,-7.832411677E-2,2.200685740E-1
3.925636067E0,2.619817853E-1,-6.555363536E-2,2.370959222E-1
3.928124297E0,2.204777151E-1,-7.087475806E-2,2.583800256E-1
3.930612374E0,1.800377816E-1,-8.258099109E-2,2.828568518E-1
3.933100682E0,1.342769712E-1,-9.428721666E-2,3.073335588E-1
3.935588913E0,9.596553445E-2,-1.155714393E-1,3.264892995E-1
3.938076975E0,6.084657460E-2,-1.517545134E-1,3.339387774E-1
3.940565282E0,2.892037295E-2,-1.921943277E-1,3.445808887E-1
3.943053513E0,4.443661775E-3,-2.368910164E-1,3.445808887E-1
3.945541821E0,-1.258355752E-2,-2.869088054E-1,3.360671401E-1
3.948029898E0,-3.493189812E-2,-3.411833644E-1,3.232966661E-1
3.950518133E0,-5.940860882E-2,-3.805590570E-1,3.041409552E-1
3.953006210E0,-8.175708354E-2,-3.975864053E-1,2.785999775E-1
3.955494518E0,-1.200685278E-1,-4.029074013E-1,2.445452809E-1
3.957982826E0,-1.626368463E-1,-3.975864053E-1,2.083623409E-1
3.960470826E0,-2.105261534E-1,-3.954578936E-1,1.689866483E-1
3.962959359E0,-2.648006976E-1,-3.912011683E-1,1.253540814E-1
3.965447359E0,-3.041763902E-1,-3.688527048E-1,7.427215576E-2
3.967935436E0,-3.361025751E-1,-3.358623683E-1,2.638285048E-2
3.970423744E0,-3.733497858E-1,-2.922298014E-1,-8.735839278E-3
3.972912052E0,-4.127255976E-1,-2.464688718E-1,-3.321268409E-2
3.975400287E0,-4.457159340E-1,-2.092216760E-1,-4.172629490E-2
3.977888364E0,-4.797706306E-1,-1.847448349E-1,-3.534105420E-2
3.980376595E0,-5.074399710E-1,-1.730386019E-1,-2.257057093E-2
3.982864903E0,-5.319167972E-1,-1.783595979E-1,-2.222297189E-4
3.985352980E0,-5.425587893E-1,-1.996438205E-1,2.106186189E-2
3.987841206E0,-5.542651415E-1,-2.251847833E-1,4.128170013E-2
3.990329513E0,-5.500082970E-1,-2.624319792E-1,6.150167435E-2
3.992817590E0,-5.383019447E-1,-3.060645461E-1,7.746477425E-2
3.995305898E0,-5.053116083E-1,-3.241560161E-1,7.640052587E-2
3.997794129E0,-4.563580453E-1,-3.433117270E-1,6.575854123E-2
4.000282446E0,-4.372023344E-1,-3.933295310E-1,7.533640414E-2
4.002770523E0,-4.191107154E-1,-4.401547313E-1,9.129950404E-2
4.005258754E0,-3.935697675E-1,-4.933650196E-1,1.061983556E-1
4.007746831E0,-3.563225567E-1,-5.433827043E-1,1.232257113E-1
4.010235139E0,-3.169468641E-1,-5.785016418E-1,1.328035742E-1
4.012723426E0,-2.754428089E-1,-5.955288410E-1,1.317393184E-1
4.015211503E0,-2.275533676E-1,-6.019141078E-1,1.253540814E-1
4.017699734E0,-1.754073203E-1,-6.051067114E-1,1.200330928E-1
4.020188042E0,-1.221968979E-1,-6.082993746E-1,1.136478484E-1
4.022676119E0,-7.430759072E-2,-6.082993746E-1,1.040699854E-1
4.025164436E0,-2.641828917E-2,-5.934004784E-1,1.008773670E-1
4.027652744E0,1.721414179E-2,-5.678595304E-1,9.236375988E-2
4.030140975E0,4.914034531E-2,-5.252912045E-1,7.852902263E-2
4.032629052E0,6.191082671E-2,-4.752735496E-1,6.150167435E-2
4.035117360E0,5.765395612E-2,-4.082285166E-1,4.234595224E-2
4.037605576E0,4.701197520E-2,-3.305412531E-1,1.893335953E-2
4.040093653E0,2.466363460E-2,-2.517899871E-1,-8.735839278E-3
4.042581884E0,-1.790454611E-2,-1.762312204E-1,-4.172629490E-2
4.045070192E0,-6.472973526E-2,-1.123788208E-1,-6.939562410E-2
4.047558269E0,-1.243252680E-1,-6.981050968E-2,-1.023860797E-1
4.050046479E0,-2.020124048E-1,-4.959053546E-2,-1.268629283E-1
4.052534787E0,-2.892775238E-1,-4.426954314E-2,-1.449543983E-1
4.055023095E0,-3.776066601E-1,-4.107692465E-2,-1.609174907E-1
4.057511095E0,-4.595506489E-1,-2.830644324E-2,-1.779448539E-1
4.059999403E0,-5.361735225E-1,2.555508399E-3,-1.949722022E-1
4.062487494E0,-6.181175709E-1,4.725219309E-2,-2.066784352E-1
4.064975802E0,-6.958047152E-1,8.769200742E-2,-2.151920348E-1
4.067464033E0,-7.522077560E-1,1.217467114E-1,-2.258341461E-1
4.069952110E0,-7.915832996E-1,1.536729187E-1,-2.428615093E-1
4.072440418E0,-8.181884885E-1,1.749570072E-1,-2.535034716E-1
4.074928643E0,-8.394727111E-1,1.898559928E-1,-2.535034716E-1
4.077416720E0,-8.650137186E-1,2.036907226E-1,-2.481824905E-1
4.079905028E0,-8.831051588E-1,2.100759596E-1,-2.364762574E-1
4.082393259E0,-8.948113918E-1,2.058190852E-1,-2.141279280E-1
4.084881312E0,-9.022667408E-1,1.941096634E-1,-1.800614893E-1
4.087369619E0,-8.916246295E-1,1.802749336E-1,-1.406857967E-1
4.089857927E0,-8.745973110E-1,1.462202221E-1,-9.811748564E-2
4.092345927E0,-8.533132076E-1,8.768893778E-2,-4.597130790E-2
4.094834235E0,-8.192586303E-1,8.937551640E-3,6.174735259E-3
4.097322490E0,-7.873322964E-1,-9.429041296E-2,5.299978703E-2
4.099810797E0,-7.490208745E-1,-2.177384943E-1,1.072744653E-1
4.102298874E0,-7.085810304E-1,-3.294803202E-1,1.626132578E-1
4.104787105E0,-6.606917381E-1,-4.295158088E-1,2.147593051E-1
4.107275413E0,-6.096096635E-1,-5.029460788E-1,2.541350126E-1
4.109763476E0,-5.574635267E-1,-5.370007753E-1,2.796759605E-1
4.112251706E0,-5.010606050E-1,-5.540279746E-1,2.924464345E-1
4.114740014E0,-4.446576834E-1,-5.572206378E-1,2.967033088E-1
4.117228091E0,-3.914472461E-1,-5.508353710E-1,2.956391871E-1
4.119716322E0,-3.254663348E-1,-5.423217416E-1,2.839328349E-1
4.122204384E0,-2.626781762E-1,-5.263586640E-1,2.594561279E-1
4.124692691E0,-2.073393911E-1,-5.135881901E-1,2.264656723E-1
4.127180999E0,-1.509363353E-1,-5.093313456E-1,1.860257238E-1
4.129669230E0,-1.009186730E-1,-4.997534454E-1,1.413290352E-1
4.132157307E0,-5.090086162E-2,-4.774051011E-1,9.769660234E-2
4.134645538E0,-7.268430665E-3,-4.507999122E-1,5.512829125E-2
4.137133845E0,2.997876145E-2,-4.252589345E-1,1.894521713E-2
4.139621922E0,6.509758532E-2,-3.975895941E-1,-1.936609298E-2
4.142110230E0,9.063854814E-2,-3.571496606E-1,-4.703556001E-2
4.144598461E0,1.044732779E-1,-3.103244901E-1,-7.576914132E-2
4.147086543E0,1.076658964E-1,-2.656278014E-1,-1.034384742E-1
4.149574850E0,9.915215522E-2,-2.305089682E-1,-1.215300784E-1
4.152063081E0,9.063854814E-2,-1.943258941E-1,-1.385573000E-1
4.154551158E0,7.254707813E-2,-1.687849313E-1,-1.534562856E-1
4.157039389E0,4.594186321E-2,-1.506934613E-1,-1.598415226E-1
4.159527696E0,1.401566062E-2,-1.315377355E-1,-1.513277739E-1
4.162015773E0,-1.897465996E-2,-1.134461388E-1,-1.385573000E-1
4.164504081E0,-4.451562092E-2,-9.429041296E-2,-1.236584410E-1
4.166992312E0,-7.324920595E-2,-6.449258327E-2,-1.055669710E-1
4.169480620E0,-1.051754057E-1,-1.766752824E-2,-9.173224121E-2
4.171968677E0,-1.381658614E-1,4.086375237E-2,-9.173224121E-2
4.174456908E0,-1.605142057E-1,1.164225191E-1,-1.311079413E-1
4.176944985E0,-1.743489355E-1,2.164580077E-1,-2.279507965E-1
4.179433293E0,-1.924404055E-1,2.771177888E-1,-2.822253406E-1
4.181921601E0,-1.945689023E-1,3.133008480E-1,-3.067021966E-1
4.184409826E0,-1.988256425E-1,3.069156110E-1,-3.375641406E-1
4.186897826E0,-2.115961313E-1,2.558336854E-1,-3.811967075E-1
4.189386211E0,-2.147887498E-1,1.973022819E-1,-4.418564737E-1
4.191874442E0,-2.137246281E-1,1.749539375E-1,-5.067731142E-1
4.194362519E0,-2.169172466E-1,2.026232630E-1,-5.716897845E-1
4.196850830E0,-2.084035128E-1,2.611546814E-1,-6.344779730E-1
4.199339061E0,-1.903120428E-1,3.111723661E-1,-6.951377392E-1
4.201827138E0,-1.690279394E-1,3.345849514E-1,-7.653754950E-1
4.204315446E0,-1.445510983E-1,3.356491923E-1,-8.462553024E-1
4.206803677E0,-1.296522468E-1,3.175576031E-1,-9.228781462E-1
4.209291749E0,-1.243311316E-1,2.952092588E-1,-9.995011687E-1
4.211779980E0,-1.200743914E-1,2.654115558E-1,-1.067610383E0
4.214268288E0,-1.222027615E-1,2.334852219E-1,-1.121885061E0
4.216756596E0,-1.243311316E-1,2.026232630E-1,-1.159132004E0
4.219244673E0,-1.264596283E-1,1.834675521E-1,-1.155939579E0
4.221732893E0,-1.328448653E-1,1.941096634E-1,-1.113371253E0
4.224220970E0,-1.498722285E-1,2.249716073E-1,-1.044197917E0
4.226709278E0,-1.605142057E-1,2.505125701E-1,-9.569328427E-1
4.229197509E0,-1.626427025E-1,2.483842075E-1,-8.707320094E-1
4.231685816E0,-1.488079727E-1,2.185863703E-1,-7.706965208E-1
4.234173907E0,-1.243311316E-1,1.855959147E-1,-6.685326695E-1
4.236662215E0,-9.240492433E-2,1.685687006E-1,-5.748824477E-1
4.239150215E0,-6.367134303E-2,1.685687006E-1,-4.886815250E-1
4.241638446E0,-4.877249524E-2,1.887885332E-1,-4.024807811E-1
4.244126830E0,-4.451562092E-2,2.217789888E-1,-3.375641406E-1
4.246615085E0,-5.409348384E-2,2.686040401E-1,-2.939315736E-1
4.249103085E0,-6.260722876E-2,3.143651187E-1,-2.439139038E-1
4.251591393E0,-6.899246573E-2,3.250070810E-1,-2.109234482E-1
4.254079701E0,-7.857032865E-2,3.143651187E-1,-1.907034665E-1
4.256567778E0,-8.708393574E-2,2.962734997E-1,-1.566489041E-1
4.259056100E0,-8.601968735E-2,2.824387848E-1,-9.811748564E-2
4.261544331E0,-8.601968735E-2,2.717967927E-1,-2.255871333E-2
4.264032408E0,-9.772604704E-2,2.558336854E-1,2.426620573E-2
4.266520639E0,-1.328448653E-1,2.494484633E-1,3.171569854E-2
4.269008946E0,-1.849910468E-1,2.600904405E-1,2.107358538E-2
4.271497037E0,-2.435223311E-1,2.664756775E-1,-2.338874387E-3
4.273985345E0,-2.914117575E-1,2.845672667E-1,-1.723772474E-2
4.276473576E0,-3.318517208E-1,3.154292405E-1,-3.320082650E-2
4.278961653E0,-3.946398795E-1,3.452270627E-1,-7.151226699E-2
4.281449884E0,-4.701986313E-1,3.899237514E-1,-1.140805855E-1
4.283938181E0,-5.649129748E-1,4.399415553E-1,-1.545205265E-1
4.286426489E0,-6.692053676E-1,4.771887362E-1,-1.960245967E-1
4.288914566E0,-7.671124339E-1,5.314632654E-1,-2.354001552E-1
4.291402797E0,-8.767257929E-1,5.580685139E-1,-2.673265040E-1
4.293890874E0,-1.003366470E0,5.421053767E-1,-3.056379259E-1
4.296379153E0,-1.119365096E0,5.325275660E-1,-3.216010332E-1
4.298867461E0,-1.238556385E0,4.920876026E-1,-3.247936666E-1
4.301355461E0,-1.357747436E0,4.601613879E-1,-3.258579075E-1
4.303843692E0,-1.475874543E0,4.676108956E-1,-3.258579075E-1
4.306331999E0,-1.574845791E0,5.112433434E-1,-3.013810515E-1
4.308820307E0,-1.669560313E0,5.644537210E-1,-2.694548666E-1
4.311308384E0,-1.748311639E0,6.155356765E-1,-2.300791591E-1
4.313796615E0,-1.808971405E0,6.495903730E-1,-1.875108480E-1
4.316284923E0,-1.865374327E0,6.453335285E-1,-1.598415226E-1
4.318773000E0,-1.910071015E0,6.229851842E-1,-1.300436854E-1
4.321261244E0,-1.944125772E0,5.676465034E-1,-1.023743525E-1
4.323749552E0,-1.982437134E0,4.644182622E-1,-7.896175981E-2
4.326237629E0,-2.016491890E0,3.356491923E-1,-5.767753720E-2
4.328725860E0,-2.029262304E0,2.313568592E-1,-1.510935556E-2
4.331214167E0,-1.986693978E0,1.504770964E-1,4.555042833E-2
4.333702239E0,-1.863246083E0,9.833092242E-2,1.189806983E-1
4.336190470E0,-1.663174987E0,1.036520451E-1,2.211445421E-1
4.338678778E0,-1.379031658E0,1.696328223E-1,3.275654018E-1
4.341166855E0,-1.031035781E0,2.366779745E-1,4.095092714E-1
4.343655162E0,-6.351507902E-1,2.941451371E-1,4.542059600E-1
4.346143374E0,-2.190456241E-1,3.473554254E-1,4.903890193E-1
4.348631451E0,1.555552036E-1,3.792816401E-1,5.074163675E-1
4.351119759E0,4.428911507E-1,3.665111661E-1,5.095447302E-1
4.353607990E0,6.248706579E-1,3.026587367E-1,5.031595230E-1
4.356096067E0,6.961725354E-1,1.919811517E-1,4.903890193E-1
4.358584297E0,7.036220431E-1,6.959733367E-2,4.999668896E-1
4.361072605E0,6.770168543E-1,-6.449258327E-2,5.435994864E-1
4.363560913E0,6.131644249E-1,-1.964543909E-1,5.819109082E-1
4.366048913E0,5.290920138E-1,-3.092603683E-1,5.946813822E-1
4.368536990E0,4.471480250E-1,-3.773696423E-1,6.021308899E-1
4.371025566E0,3.683966398E-1,-3.975895941E-1,6.244792342E-1
4.373513643E0,2.917737663E-1,-3.709844053E-1,6.425706744E-1
4.376001874E0,2.098297477E-1,-3.135172427E-1,6.436349154E-1
4.378490182E0,1.289499849E-1,-2.230594754E-1,6.298002005E-1
4.380978258E0,5.019873381E-2,-1.389870942E-1,6.010666490E-1
4.383466499E0,-2.003891207E-2,-6.981370598E-2,5.457278490E-1
4.385954807E0,-8.282706887E-2,-6.401761202E-4,4.776185453E-1
4.388442884E0,-1.381658614E-1,4.724899307E-2,4.169587791E-1
4.390931115E0,-1.807341725E-1,5.895522609E-2,3.680052161E-1
4.393419192E0,-2.126603723E-1,6.108372658E-2,3.296937644E-1
4.395907504E0,-2.339446098E-1,7.066158950E-2,3.020243049E-1
4.398395735E0,-2.467150837E-1,9.513829648E-2,2.892538309E-1
4.400884043E0,-2.520360649E-1,1.291930079E-1,2.860611975E-1
4.403372350E0,-2.552286983E-1,1.589908302E-1,2.892538309E-1
4.405860427E0,-2.488434464E-1,1.877244264E-1,3.009601831E-1
4.408348398E0,-2.382013351E-1,1.941096634E-1,3.339506388E-1
4.410836706E0,-2.147887498E-1,1.834675521E-1,3.669409454E-1
4.413325014E0,-1.871194094E-1,1.515413523E-1,3.882251680E-1
4.415813245E0,-1.626427025E-1,9.726680070E-2,3.924819231E-1
4.418301321E0,-1.381658614E-1,3.235014528E-2,3.914178014E-1
4.420789561E0,-1.115606502E-1,-2.724538930E-2,3.807756901E-1
4.423277638E0,-9.985441715E-2,-6.129996106E-2,3.711978197E-1
4.425766177E0,-8.708393574E-2,-6.342846155E-2,3.648125827E-1
4.428254177E0,-7.537771016E-2,-3.363062814E-2,3.690694571E-1
4.430742484E0,-7.218508422E-2,1.319442317E-2,3.722620904E-1
4.433230802E0,-7.431345433E-2,5.150586739E-2,3.786473274E-1
4.435718879E0,-8.176294714E-2,8.236781508E-2,3.882251680E-1
4.438207110E0,-9.666179866E-2,9.939517081E-2,4.009956717E-1
4.440695417E0,-1.275237501E-1,9.726680070E-2,4.137661457E-1
4.443183494E0,-1.530647129E-1,8.768893778E-2,4.297292531E-1
4.445671715E0,-1.754131913E-1,8.023944497E-2,4.446280897E-1
4.448159792E0,-1.988256425E-1,6.001947448E-2,4.520775974E-1
4.450648100E0,-2.264951169E-1,2.383640222E-2,4.542059600E-1
4.453136407E0,-2.531003356E-1,-2.511702105E-2,4.637838304E-1
4.455624407E0,-2.807696462E-1,-7.726306468E-2,4.765543044E-1
4.458112710E0,-2.967327535E-1,-1.102535129E-1,4.935816526E-1
4.460601018E0,-3.265305758E-1,-1.389870942E-1,5.042237639E-1
4.463089018E0,-3.701631427E-1,-1.815554202E-1,5.138016343E-1
4.465577326E0,-3.861262500E-1,-1.804911643E-1,5.372142196E-1
4.468065633E0,-3.946398795E-1,-1.783627868E-1,5.563699603E-1
4.470553864E0,-4.020893574E-1,-1.879406571E-1,5.648835301E-1
4.473041941E0,-4.031534791E-1,-2.028396428E-1,5.616909266E-1
4.475530172E0,-4.031534791E-1,-2.273163497E-1,5.467920899E-1
4.478018479E0,-3.978324831E-1,-2.496646941E-1,5.212511420E-1
4.480506787E0,-3.861262500E-1,-2.688204050E-1,4.786828160E-1
4.482994797E0,-3.733556569E-1,-2.762699127E-1,4.222797453E-1
4.485482874E0,-3.616494238E-1,-2.720130384E-1,3.637483418E-1
4.487971182E0,-3.499431908E-1,-2.730772793E-1,3.084096611E-1
4.490459489E0,-3.456863165E-1,-2.730772793E-1,2.541350126E-1
4.492947797E0,-3.414294422E-1,-2.773341537E-1,2.019888163E-1
4.495436023E0,-3.382369578E-1,-2.805267870E-1,1.551637650E-1
4.497924100E0,-3.339800835E-1,-2.890403867E-1,1.083385870E-1
4.500412331E0,-3.371727169E-1,-3.081960976E-1,6.789877266E-2
4.502900408E0,-3.552641869E-1,-3.326729536E-1,4.448617995E-2
4.505388715E0,-3.754841387E-1,-3.667275310E-1,3.490831703E-2
4.507876946E0,-4.031534791E-1,-4.071674645E-1,3.171569854E-2
4.510365023E0,-4.372081757E-1,-4.444146454E-1,3.490831703E-2
4.512853331E0,-4.723269939E-1,-4.603777528E-1,4.555042833E-2
4.515341561E0,-5.085100532E-1,-4.667629898E-1,6.364189833E-2
4.517829638E0,-5.500141382E-1,-4.582493901E-1,8.386187255E-2
4.520318167E0,-5.840687156E-1,-4.390936792E-1,1.072744653E-1
4.522806244E0,-6.170591712E-1,-4.199379385E-1,1.360080540E-1
4.525294475E0,-6.457927227E-1,-4.061032236E-1,1.689984947E-1
4.527782551E0,-6.787831783E-1,-4.029105902E-1,1.956035793E-1
4.530270859E0,-7.096451521E-1,-3.997179866E-1,2.126309276E-1
4.532759095E0,-7.277367711E-1,-3.890758753E-1,2.147593051E-1
4.535247403E0,-7.373146415E-1,-3.688558936E-1,2.115666866E-1
4.537735403E0,-7.447640896E-1,-3.539570272E-1,2.158235610E-1
4.540223480E0,-7.511493564E-1,-3.348013163E-1,2.349792719E-1
4.542711787E0,-7.617914677E-1,-3.220308423E-1,2.615844905E-1
4.545200109E0,-7.766903043E-1,-3.209666014E-1,2.913823128E-1
4.547688340E0,-7.947818041E-1,-3.209666014E-1,3.286295235E-1
4.550176647E0,-8.160660267E-1,-3.241592050E-1,3.743904531E-1
4.552664724E0,-8.341574669E-1,-3.369296789E-1,4.180228710E-1
4.555152955E0,-8.458636999E-1,-3.507644236E-1,4.573985636E-1
4.557641249E0,-8.565058112E-1,-3.720486462E-1,4.946458936E-1
4.560129326E0,-8.628910780E-1,-4.082315862E-1,5.308289528E-1
4.562617557E0,-8.575700521E-1,-4.625061154E-1,5.563699603E-1
4.565105633E0,-8.543774486E-1,-5.252944231E-1,5.638194084E-1
4.567593941E0,-8.565058112E-1,-5.870184302E-1,5.542414188E-1
4.570082234E0,-8.533132076E-1,-6.412929893E-1,5.393425822E-1
4.572570234E0,-8.596984148E-1,-6.827971935E-1,5.308289528E-1
4.575058542E0,-8.724689484E-1,-7.051454186E-1,5.233795047E-1
4.577546849E0,-8.852394223E-1,-7.200443745E-1,5.223152041E-1
4.580034849E0,-8.980098963E-1,-7.264296412E-1,5.265721083E-1
4.582523148E0,-9.075877666E-1,-7.392001152E-1,5.340216160E-1
4.585011456E0,-9.267368317E-1,-7.572879791E-1,5.542280078E-1
4.587499686E0,-9.437640309E-1,-7.753794789E-1,5.882825255E-1
4.589987763E0,-9.629197717E-1,-7.945351601E-1,6.404287219E-1
4.592475994E0,-9.820755720E-1,-8.222045302E-1,6.989601254E-1
4.594964287E0,-1.014001846E0,-8.807359338E-1,7.564272881E-1
4.597452364E0,-1.058698535E0,-9.743862748E-1,8.064450026E-1
4.599940595E0,-1.111908913E0,-1.061651349E0,8.511418104E-1
4.602428902E0,-1.139578342E0,-1.095705867E0,8.905174732E-1
4.604916979E0,-1.135321498E0,-1.065908074E0,9.245720506E-1
4.607405316E0,-1.143835068E0,-1.082935333E0,9.373425245E-1
4.609893547E0,-1.157669663E0,-1.115925789E0,9.426635504E-1
4.612381854E0,-1.101266861E0,-1.040367126E0,9.618192315E-1
4.614869931E0,-1.040606856E0,-9.977988601E-1,9.724613428E-1
4.617358162E0,-9.884608388E-1,-9.807715416E-1,9.713972211E-1
4.619846234E0,-9.448283911E-1,-9.499095678E-1,9.575625062E-1
4.622334542E0,-9.033241868E-1,-9.233042598E-1,9.777824879E-1
4.624822772E0,-8.320223093E-1,-8.732865453E-1,1.029928684E0
4.627310849E0,-7.692340016E-1,-8.828644156E-1,1.066111684E0
4.629799157E0,-7.405004501E-1,-9.584230781E-1,1.075689554E0
4.632287369E0,-7.064458728E-1,-9.616156816E-1,1.084203243E0
4.634775446E0,-6.691986918E-1,-8.988275528E-1,1.073561072E0
4.637263754E0,-6.819690466E-1,-8.637086749E-1,1.043763399E0
4.639752061E0,-6.553639770E-1,-7.147196531E-1,1.033121109E0
4.642240292E0,-6.202450991E-1,-5.284833312E-1,1.034185529E0
4.644728388E0,-6.255661249E-1,-3.656596839E-1,1.043763399E0
4.647216619E0,-6.372723579E-1,-2.507252097E-1,1.070368528E0
4.649704926E0,-6.564282179E-1,-2.060285211E-1,1.107615829E0
4.652193003E0,-6.809049249E-1,-2.049644142E-1,1.155505300E0
4.654681234E0,-7.043175101E-1,-2.294411212E-1,1.208715558E0
4.657169297E0,-7.256016135E-1,-2.688168287E-1,1.271503806E0
4.659657605E0,-7.468858361E-1,-3.177703619E-1,1.339613080E0
4.662145912E0,-7.553994060E-1,-3.645954132E-1,1.409850717E0
4.664634143E0,-7.543351650E-1,-4.284478426E-1,1.467317939E0
4.667122451E0,-7.596561909E-1,-5.242265463E-1,1.510950327E0
4.669610528E0,-8.075454831E-1,-7.072702050E-1,1.535427213E0
4.672098759E0,-8.160592318E-1,-8.041131496E-1,1.557775497E0
4.674587066E0,-7.660413980E-1,-8.062415123E-1,1.566289306E0
4.677075143E0,-7.085742354E-1,-7.743151784E-1,1.548197627E0
4.679563374E0,-6.521713138E-1,-7.328112721E-1,1.530106068E0
4.682051451E0,-5.872546434E-1,-6.870502234E-1,1.518399835E0
4.684539682E0,-5.265947580E-1,-6.466103792E-1,1.510950327E0
4.687027989E0,-4.669992328E-1,-6.029779315E-1,1.509886146E0
4.689516297E0,-4.116604328E-1,-5.508316755E-1,1.502436757E0
4.692004297E0,-3.605785072E-1,-4.944287241E-1,1.484345317E0
4.694492672E0,-3.084323108E-1,-4.252553284E-1,1.455611587E0
4.696980903E0,-2.552219033E-1,-3.624670506E-1,1.422621131E0
4.699468979E0,-1.934978664E-1,-2.954220176E-1,1.381116986E0
4.701957287E0,-1.179392263E-1,-2.156063914E-1,1.338548899E0
4.704445518E0,-2.854572609E-2,-1.336625069E-1,1.290659547E0
4.706933595E0,6.084750965E-2,-4.746163264E-2,1.250219584E0
4.709421826E0,1.449198872E-1,1.532638911E-2,1.218293309E0
4.711910133E0,2.109007984E-1,4.193160310E-2,1.192752481E0
4.714398210E0,2.694322169E-1,4.725272581E-2,1.177853465E0
4.716886518E0,3.130646348E-1,4.406010360E-2,1.168275714E0
4.719374542E0,3.492477238E-1,5.470208451E-2,1.155505300E0
4.721863080E0,3.609539568E-1,6.534419209E-2,1.143798709E0
4.724351080E0,3.641465604E-1,6.853681803E-2,1.132092595E0
4.726839388E0,3.609539568E-1,7.492205501E-2,1.117193699E0
4.729327696E0,3.471193612E-1,8.343566954E-2,1.111872673E0
4.731815783E0,3.268993795E-1,8.769253641E-2,1.119322062E0
4.734304014E0,2.917805612E-1,8.556416631E-2,1.122514606E0
4.736792090E0,2.502763569E-1,8.769253641E-2,1.112936974E0
4.739280398E0,1.630113572E-1,4.193160310E-2,1.060790658E0
4.741768629E0,6.084750965E-2,8.941148408E-3,9.980024695E-1
4.744256691E0,4.701277614E-2,9.939876944E-2,9.586266279E-1
4.746744999E0,5.552651733E-2,1.866638958E-1,9.011594653E-1
4.749233229E0,4.382015392E-2,2.515804172E-1,8.266649246E-1
4.751721537E0,3.211392462E-2,2.994698584E-1,7.553630471E-1
4.754209614E0,3.317817673E-2,3.431023061E-1,7.000242472E-1
4.756697903E0,4.807702824E-2,4.133399427E-1,6.478782296E-1
4.759186133E0,7.042536885E-2,5.165681839E-1,5.999889374E-1
4.761674210E0,1.012874544E-1,6.102184057E-1,5.499711037E-1
4.764162441E0,1.449198872E-1,6.910981536E-1,4.956964254E-1
4.766650749E0,2.034513056E-1,7.368590832E-1,4.350366592E-1
4.769139038E0,2.704963386E-1,7.560148239E-1,3.828906119E-1
4.771627038E0,3.386056125E-1,7.506936789E-1,3.275516629E-1
4.774115114E0,4.003296494E-1,7.262169719E-1,2.849834859E-1
4.776603653E0,4.684389234E-1,7.006760240E-1,2.615709007E-1
4.779091653E0,5.280345678E-1,6.676855683E-1,2.636992633E-1
4.781579720E0,5.823091269E-1,6.123467684E-1,2.807266116E-1
4.784068258E0,6.280700564E-1,5.538153648E-1,3.083961010E-1
4.786556335E0,6.770235896E-1,4.835775793E-1,3.339370489E-1
4.789044566E0,7.100140452E-1,4.080189466E-1,3.499001563E-1
4.791532643E0,7.259770632E-1,3.122403324E-1,3.605421185E-1
4.794020946E0,7.408760190E-1,2.302963287E-1,3.658632636E-1
4.796509176E0,7.610960007E-1,1.994343847E-1,3.616063893E-1
4.798997253E0,7.791874409E-1,1.834711432E-1,3.573495150E-1
4.801485484E0,7.802515626E-1,1.249398664E-1,3.520285189E-1
4.803973792E0,7.877010703E-1,8.130729944E-2,3.413864076E-1
4.806462100E0,8.143063188E-1,9.088515490E-2,3.232949376E-1
4.808950176E0,8.281410336E-1,7.917892933E-2,3.083961010E-1
4.811438484E0,8.228200078E-1,5.257371441E-2,2.807266116E-1
4.813926715E0,8.323978782E-1,6.321582943E-2,2.498646677E-1
4.816414792E0,8.398473859E-1,5.895895511E-2,2.179383337E-1
4.818903076E0,8.504893780E-1,8.556416631E-2,1.828195155E-1
4.821391306E0,8.409115076E-1,8.237154782E-2,1.498290598E-1
4.823879383E0,8.281410336E-1,5.895895511E-2,1.168387383E-1
4.826367614E0,8.026000857E-1,4.299585521E-2,7.852729410E-2
4.828855691E0,7.504538894E-1,4.684410524E-3,3.915159777E-2
4.831344244E0,6.897941232E-1,-1.340705995E-2,-2.352464013E-3
4.833832321E0,6.067858338E-1,-4.746163264E-2,-4.172802344E-2
4.836320321E0,5.099430084E-1,-6.023211405E-2,-8.216796815E-2
4.838808860E0,4.120358825E-1,-6.023211405E-2,-1.258004010E-1
4.841296937E0,3.151929975E-1,-4.320489243E-2,-1.747539639E-1
4.843785134E0,2.268638909E-1,-2.511329018E-2,-2.194507718E-1
4.846273441E0,1.374703944E-1,-1.872804947E-2,-2.620189488E-1
4.848761518E0,5.659063533E-2,-1.659967937E-2,-2.960736752E-1
4.851249749E0,-2.535310574E-2,-3.469115123E-2,-3.237429857E-1
4.853737826E0,-1.094254851E-1,-5.597537383E-2,-3.375777304E-1
4.856226124E0,-1.881768703E-1,-8.151634037E-2,-3.375777304E-1
4.858714354E0,-2.658640146E-1,-1.059930474E-1,-3.311924934E-1
4.861202431E0,-3.467437625E-1,-1.443044841E-1,-3.237429857E-1
4.863690739E0,-4.063394368E-1,-1.560108513E-1,-2.928810418E-1
4.866179047E0,-4.414582551E-1,-8.258045465E-2,-2.673400939E-1
4.868667277E0,-5.446863770E-1,-1.677170843E-1,-2.960736752E-1
4.871155354E0,-6.425934434E-1,-2.262485027E-1,-3.365134597E-1
4.873643662E0,-7.224089503E-1,-2.198632658E-1,-3.716324270E-1
4.876131893E0,-7.745551467E-1,-1.453687400E-1,-3.801460266E-1
4.878619970E0,-8.235086799E-1,-9.747944027E-2,-3.737607896E-1
4.881108206E0,-8.788474798E-1,-9.747944027E-2,-3.631186783E-1
4.883596513E0,-9.214158058E-1,-1.102499217E-1,-3.652470708E-1
4.886084821E0,-9.458925128E-1,-1.187635288E-1,-3.695039153E-1
4.888572821E0,-9.544062614E-1,-1.187635288E-1,-3.737607896E-1
4.891060898E0,-9.458925128E-1,-1.070572957E-1,-3.854670227E-1
4.893549220E0,-9.256725311E-1,-9.215831757E-2,-4.014301300E-1
4.896037527E0,-9.033241868E-1,-7.513109595E-2,-4.216501117E-1
4.898525758E0,-8.650127649E-1,-5.810374394E-2,-4.525120556E-1
4.901014066E0,-8.213801980E-1,-3.788376972E-2,-4.876310229E-1
4.903502143E0,-7.692340016E-1,-1.979229972E-2,-5.153003335E-1
4.905990353E0,-7.085742354E-1,-4.893316887E-3,-5.504191518E-1
4.908478430E0,-6.425934434E-1,6.812779699E-3,-5.844738483E-1
4.910966738E0,-5.734199286E-1,1.319801994E-2,-6.164000630E-1
4.913454969E0,-5.053106546E-1,1.000539958E-2,-6.398126483E-1
4.915943046E0,-4.340087771E-1,7.877030410E-3,-6.621609926E-1
4.918431334E0,-3.680278659E-1,5.748528522E-3,-6.770598292E-1
4.920919642E0,-3.084323108E-1,7.877030410E-3,-6.930229664E-1
4.923407873E0,-2.467082888E-1,1.319801994E-2,-6.951514482E-1
4.925895950E0,-1.892411262E-1,3.128949180E-2,-6.845093369E-1
4.928384258E0,-1.190033481E-1,9.088515490E-2,-6.493905187E-1
4.930872493E0,-6.472880393E-2,1.185546219E-1,-6.036295891E-1
4.933360570E0,-4.025208950E-2,1.068482623E-1,-5.525475144E-1
4.935848878E0,-3.599521890E-2,8.769253641E-2,-4.908236265E-1
4.938337109E0,-3.067422844E-2,9.194941074E-2,-4.205858409E-1
4.940825416E0,-2.428898774E-2,1.121692508E-1,-3.450272083E-1
4.943313421E0,-2.003211714E-2,1.302608550E-1,-2.747894526E-1
4.945801729E0,-2.641735785E-2,1.440955848E-1,-2.141296566E-1
4.948289806E0,-3.599521890E-2,1.494165808E-1,-1.641119868E-1
4.950778114E0,-5.195831880E-2,1.430313289E-1,-1.300572753E-1
4.953266345E0,-7.004992664E-2,1.451597065E-1,-1.023879424E-1
4.955754676E0,-8.707714081E-2,1.504808217E-1,-8.429633826E-2
4.958242753E0,-1.030402407E-1,1.675080508E-1,-8.216796815E-2
4.960731061E0,-1.243244708E-1,1.909206361E-1,-8.642484248E-2
4.963219292E0,-1.402875632E-1,2.292320877E-1,-9.706681967E-2
4.965707369E0,-1.551864147E-1,2.654151618E-1,-1.172867939E-1
4.968195603E0,-1.807273775E-1,2.866992354E-1,-1.470846236E-1
4.970683680E0,-2.030757219E-1,2.962772250E-1,-1.853960752E-1
4.973171988E0,-2.296809405E-1,2.898918688E-1,-2.279643863E-1
4.975660296E0,-2.552219033E-1,2.792498767E-1,-2.705326974E-1
4.978148526E0,-2.765061259E-1,2.728646398E-1,-3.162936270E-1
4.980636618E0,-2.945975959E-1,2.824425101E-1,-3.588618040E-1
4.983124926E0,-3.041754663E-1,3.079834580E-1,-4.024943709E-1
4.985613157E0,-3.169459403E-1,3.367170393E-1,-4.408058226E-1
4.988101234E0,-3.286522925E-1,3.590653837E-1,-4.780531526E-1
4.990589542E0,-3.446153998E-1,3.782211244E-1,-5.089151263E-1
4.993077849E0,-3.637711108E-1,3.952484727E-1,-5.408412814E-1
4.995565849E0,-3.850552142E-1,4.069547057E-1,-5.748960376E-1
4.998054080E0,-4.052751958E-1,4.229178131E-1,-6.153358221E-1
5.000542465E0,-4.191099107E-1,4.399451613E-1,-6.547115445E-1
5.003030465E0,-4.329445064E-1,4.569725096E-1,-6.951514482E-1
5.005518680E0,-4.467792511E-1,4.814493358E-1,-7.345271707E-1
5.008006988E0,-4.595497251E-1,5.037975311E-1,-7.760311961E-1
5.010495296E0,-4.733844697E-1,5.250817537E-1,-8.154067993E-1
5.012983373E0,-4.829623103E-1,5.474300981E-1,-8.526540995E-1
5.015471603E0,-4.861549437E-1,5.782921910E-1,-8.909655213E-1
5.017959925E0,-4.946685433E-1,6.027688980E-1,-9.250200987E-1
5.020448002E0,-5.031822920E-1,6.346951127E-1,-9.590748549E-1
5.022936233E0,-5.031822920E-1,6.687498093E-1,-9.888726473E-1
5.025424541E0,-5.063748956E-1,6.889697909E-1,-1.006964087E0
5.027912618E0,-5.170170069E-1,6.772634387E-1,-1.016541958E0
5.030400911E0,-5.372368693E-1,6.357593536E-1,-1.020798922E0
5.032889142E0,-5.606494546E-1,5.750995874E-1,-1.011221051E0
5.035377219E0,-5.904473066E-1,5.059260726E-1,-9.920652509E-1
5.037865527E0,-6.191808581E-1,4.431377649E-1,-9.654600620E-1
5.040353757E0,-6.394008398E-1,3.846063614E-1,-9.260843992E-1
5.042841848E0,-6.606849432E-1,3.335244358E-1,-8.771308064E-1
5.045330156E0,-6.798406839E-1,2.760572731E-1,-8.196636438E-1
5.047818387E0,-6.926111579E-1,2.228468359E-1,-7.494260073E-1
