"Time (s)","Gyroscope x (rad/s)","Gyroscope y (rad/s)","Gyroscope z (rad/s)"
5.099994800E-2,-2.248355746E-1,1.394638062E0,-6.223838925E-1
5.349750000E-2,-2.227055728E-1,1.381854057E0,-6.213188767E-1
5.599510500E-2,-2.344235629E-1,1.360548973E0,-6.000139117E-1
5.849265700E-2,-2.525325418E-1,1.322200060E0,-5.797739029E-1
6.099026100E-2,-2.653155625E-1,1.282785058E0,-5.659258962E-1
6.348786500E-2,-2.802295387E-1,1.232717991E0,-5.520768762E-1
6.598541700E-2,-2.908815444E-1,1.166671991E0,-5.392938852E-1
6.848302100E-2,-3.057955503E-1,1.099560976E0,-5.243799090E-1
7.106875000E-2,-3.111215532E-1,1.030318975E0,-5.126628876E-1
7.356630200E-2,-3.132525384E-1,9.600120187E-1,-5.020098686E-1
7.606390700E-2,-3.100565672E-1,8.886390328E-1,-4.860309064E-1
7.856151100E-2,-2.994045615E-1,8.247230053E-1,-4.700519145E-1
8.105906300E-2,-2.855555415E-1,7.671990395E-1,-4.583339095E-1
8.355666700E-2,-2.642505467E-1,7.150020003E-1,-4.455509186E-1
8.605421900E-2,-2.312275618E-1,6.596080065E-1,-4.348989129E-1
8.855182300E-2,-2.003345639E-1,6.106060147E-1,-4.231809080E-1
9.104942700E-2,-1.619855613E-1,5.669310093E-1,-4.082669318E-1
9.354698000E-2,-1.257665753E-1,5.307120085E-1,-3.976139128E-1
9.604453200E-2,-9.167855978E-2,5.019500256E-1,-3.837659061E-1
9.854213600E-2,-5.865556374E-2,4.742529988E-1,-3.656569123E-1
1.010850000E-1,-2.350156195E-2,4.465560019E-1,-3.496779203E-1
1.035825520E-1,6.324437447E-3,4.327079952E-1,-3.315679133E-1
1.060801570E-1,3.402143717E-2,4.241859913E-1,-3.134589195E-1
1.085777610E-1,5.852243677E-2,4.263159931E-1,-3.006759286E-1
1.110753130E-1,7.876244187E-2,4.220550060E-1,-2.857619226E-1
1.135729170E-1,9.154544026E-2,4.103370011E-1,-2.665879130E-1
1.160704690E-1,1.011324376E-1,3.975539804E-1,-2.474129051E-1
1.185680730E-1,1.021974385E-1,3.794449866E-1,-2.282378972E-1
1.210656250E-1,9.474144131E-2,3.538790047E-1,-2.111939043E-1
1.235632300E-1,8.408843726E-2,3.187249899E-1,-1.909539104E-1
1.260607820E-1,7.876244187E-2,2.878319919E-1,-1.717789024E-1
1.285583860E-1,7.663144171E-2,2.622659802E-1,-1.536699086E-1
1.311201050E-1,7.450143993E-2,2.398959994E-1,-1.323648989E-1
1.336176570E-1,7.982744277E-2,2.228519917E-1,-1.121249050E-1
1.361152610E-1,9.154544026E-2,2.058070004E-1,-8.762390167E-2
1.386128130E-1,1.032634377E-1,1.866329908E-1,-6.312290579E-2
1.411104170E-1,1.160464361E-1,1.674579978E-1,-3.755690902E-2
1.436080210E-1,1.373514384E-1,1.482829899E-1,-1.305590663E-2
1.461055730E-1,1.597224325E-1,1.312389970E-1,8.249093778E-3
1.486031770E-1,1.735704392E-1,1.152600050E-1,3.381509334E-2
1.511007300E-1,1.938104331E-1,9.608600289E-2,6.151209399E-2
1.535983340E-1,2.129854262E-1,8.223700523E-2,8.601309359E-2
1.560958860E-1,2.342904359E-1,6.945399940E-2,1.137090996E-1
1.585934900E-1,2.534644604E-1,5.773599818E-2,1.414060891E-1
1.611476050E-1,2.715744376E-1,4.814899713E-2,1.701681018E-1
1.636451570E-1,2.918144464E-1,4.388799891E-2,1.968000978E-1
1.661427610E-1,3.099234402E-1,3.856199980E-2,2.223660946E-1
1.686403130E-1,3.237724602E-1,3.643099964E-2,2.511280775E-1
1.711379170E-1,3.386854529E-1,3.643099964E-2,2.788250744E-1
1.736355210E-1,3.546644449E-1,3.536599874E-2,3.065210879E-1
1.761330730E-1,3.663824499E-1,3.749600053E-2,3.342180848E-1
1.786306770E-1,3.770354390E-1,3.643099964E-2,3.629800677E-1
1.811282820E-1,3.898184597E-1,3.749600053E-2,3.906770945E-1
1.836258340E-1,4.036664367E-1,3.856199980E-2,4.151780903E-1
1.861233860E-1,4.153844416E-1,3.749600053E-2,4.418090880E-1
1.886209900E-1,4.281674325E-1,4.282299802E-2,4.673760831E-1
1.911779170E-1,4.398854375E-1,4.069199786E-2,4.918770790E-1
1.936754690E-1,4.537334442E-1,3.536599874E-2,5.142471194E-1
1.961730730E-1,4.750384390E-1,3.323499858E-2,5.366181135E-1
1.986706250E-1,4.878224432E-1,2.897400036E-2,5.589880943E-1
2.011682300E-1,5.080624223E-1,2.364800125E-2,5.813581347E-1
2.036658340E-1,5.304324031E-1,1.832200028E-2,6.015980840E-1
2.061633860E-1,5.464113951E-1,1.512599923E-2,6.239691377E-1
2.086609900E-1,5.677164197E-1,1.086500008E-2,6.431441307E-1
2.111585420E-1,5.954134464E-1,6.603999995E-3,6.655141115E-1
2.136561460E-1,6.188493967E-1,2.342999913E-3,6.825581193E-1
2.161536980E-1,6.412194371E-1,1.277999952E-3,7.006680965E-1
2.186513020E-1,6.689164042E-1,5.539000034E-3,7.198421359E-1
2.212001050E-1,6.966134310E-1,4.472999834E-3,7.400820851E-1
2.236976570E-1,7.285704017E-1,5.539000034E-3,7.603220940E-1
2.261952610E-1,7.594634295E-1,5.539000034E-3,7.784321308E-1
2.286928130E-1,7.988784313E-1,1.277999952E-3,7.922801375E-1
2.311904170E-1,8.393574357E-1,-2.982999897E-3,8.082591295E-1
2.336880210E-1,8.787724376E-1,-9.374000132E-3,8.178461194E-1
2.361855730E-1,9.203174114E-1,-1.576599851E-2,8.274341226E-1
2.386831770E-1,9.607974291E-1,-2.641799860E-2,8.348901272E-1
2.411807300E-1,1.002342463E0,-3.920100257E-2,8.412821293E-1
2.436783340E-1,1.039626360E0,-5.198500305E-2,8.508691192E-1
2.461758860E-1,1.077976465E0,-6.689799577E-2,8.593910933E-1
2.486734900E-1,1.113129377E0,-7.968099415E-2,8.679131269E-1
2.511878650E-1,1.145087361E0,-9.459500015E-2,8.806971312E-1
2.536854690E-1,1.169588447E0,-1.116390005E-1,8.902841210E-1
2.561830730E-1,1.193024397E0,-1.286830008E-1,9.009361267E-1
2.586806250E-1,1.213264465E0,-1.467930079E-1,9.083930850E-1
2.611782300E-1,1.228177428E0,-1.617060006E-1,9.179810882E-1
2.636757820E-1,1.233504415E0,-1.808810085E-1,9.286330938E-1
2.661733860E-1,1.239895463E0,-1.947290003E-1,9.328941107E-1
2.686709380E-1,1.240960360E0,-2.085780054E-1,9.371551275E-1
2.711685420E-1,1.234569430E0,-2.245570123E-1,9.382210970E-1
2.736661460E-1,1.223916411E0,-2.394700050E-1,9.371551275E-1
2.761636980E-1,1.212198377E0,-2.490580082E-1,9.339601398E-1
2.786613020E-1,1.190893412E0,-2.692980170E-1,9.318290949E-1
2.812510940E-1,1.167457461E0,-2.842110097E-1,9.286330938E-1
2.837486980E-1,1.145087361E0,-2.948639989E-1,9.243721366E-1
2.862462500E-1,1.116325378E0,-3.076470196E-1,9.179810882E-1
2.887438550E-1,1.080106378E0,-3.193649948E-1,9.083930850E-1
2.912414070E-1,1.037496448E0,-3.310829997E-1,8.988060951E-1
2.937390110E-1,9.906244278E-1,-3.353440166E-1,8.902841210E-1
2.962365630E-1,9.416224360E-1,-3.310829997E-1,8.817620873E-1
2.987341670E-1,8.883594275E-1,-3.076470196E-1,8.743051291E-1
3.012317190E-1,8.340314031E-1,-2.692980170E-1,8.679131269E-1
3.037293230E-1,7.828994393E-1,-2.117740065E-1,8.647181392E-1
3.062268750E-1,7.349624038E-1,-1.318790019E-1,8.604571223E-1
3.087244800E-1,6.785033941E-1,-3.281000257E-2,8.593910933E-1
3.112753650E-1,6.295014024E-1,7.691100240E-2,8.561961055E-1
3.137729170E-1,5.826303959E-1,1.951549947E-1,8.530001044E-1
3.162705210E-1,5.346934199E-1,3.123329878E-1,8.444781303E-1
3.187680730E-1,4.856914580E-1,4.209899902E-1,8.348901272E-1
3.212656770E-1,4.377544522E-1,5.136680007E-1,8.231720924E-1
3.237632820E-1,3.908834457E-1,5.935620070E-1,8.039981127E-1
3.262608340E-1,3.450774550E-1,6.489560008E-1,7.816271186E-1
3.287584380E-1,2.939444482E-1,6.841090322E-1,7.539311051E-1
3.312559900E-1,2.310944349E-1,6.958270073E-1,7.241030931E-1
3.337535940E-1,1.661134362E-1,6.873050332E-1,6.953411102E-1
3.362511460E-1,9.580644220E-2,6.628040075E-1,6.569921374E-1
3.387487500E-1,2.549943700E-2,6.340420246E-1,6.175771356E-1
3.412695320E-1,-4.161156341E-2,6.074100137E-1,5.749670863E-1
3.437670840E-1,-1.097875610E-1,5.861050487E-1,5.291610956E-1
3.462646880E-1,-1.641165614E-1,5.690610409E-1,4.865500927E-1
3.487622400E-1,-2.067265660E-1,5.616040230E-1,4.503310919E-1
3.512598440E-1,-2.333575636E-1,5.637350082E-1,4.141130745E-1
3.537573960E-1,-2.525325418E-1,5.701259971E-1,3.864160776E-1
3.562550000E-1,-2.578585446E-1,5.893010497E-1,3.597840667E-1
3.587525520E-1,-2.504025400E-1,6.148670316E-1,3.395440876E-1
3.612501570E-1,-2.354885638E-1,6.404340267E-1,3.214350939E-1
3.637477610E-1,-2.088565677E-1,6.777180433E-1,3.054560721E-1
3.662453130E-1,-1.694425642E-1,7.235240340E-1,2.979990840E-1
3.687429170E-1,-1.225705594E-1,7.650690079E-1,2.873470783E-1
3.713279690E-1,-6.611256301E-2,8.151360154E-1,2.745640874E-1
3.738255210E-1,-6.656248297E-5,8.652030230E-1,2.639110684E-1
3.763231250E-1,7.024043798E-2,9.142050147E-1,2.575190961E-1
3.788207300E-1,1.511994302E-1,9.546850324E-1,2.458020896E-1
3.813182820E-1,2.353554368E-1,9.877080321E-1,2.266270965E-1
3.838158860E-1,3.259024322E-1,1.010079026E0,2.085170895E-1
3.863134380E-1,4.143194556E-1,1.018601060E0,1.861470938E-1
3.888110420E-1,4.984744489E-1,1.005818009E0,1.605810970E-1
3.913085940E-1,5.773034096E-1,9.653380513E-1,1.350151002E-1
3.938061980E-1,6.518723965E-1,9.078140259E-1,1.041220948E-1
3.963037500E-1,7.179183960E-1,8.225930333E-1,7.322909683E-2
3.988013550E-1,7.733114362E-1,7.171320319E-1,4.127209261E-2
4.013565630E-1,8.127264380E-1,5.797140002E-1,1.570509374E-2
4.038541150E-1,8.265744448E-1,4.220550060E-1,-9.859906510E-3
4.063517190E-1,8.148564100E-1,2.377649993E-1,-3.329590708E-2
4.088492710E-1,7.839643955E-1,4.069199786E-2,-5.460090935E-2
4.113468750E-1,7.285704017E-1,-1.563799977E-1,-7.697090507E-2
4.138444800E-1,6.433504224E-1,-3.513230085E-1,-1.089289039E-1
4.163420320E-1,5.432153940E-1,-5.292209983E-1,-1.387559026E-1
4.188396360E-1,4.473424554E-1,-6.591829658E-1,-1.717789024E-1
4.213371880E-1,3.472074568E-1,-7.465339899E-1,-2.058679014E-1
4.238347920E-1,2.470734268E-1,-8.019279838E-1,-2.388909012E-1
4.263323440E-1,1.511994302E-1,-8.285589814E-1,-2.719139159E-1
4.288299480E-1,5.745743588E-2,-8.253629804E-1,-3.081329167E-1
4.313832300E-1,-3.095856309E-2,-7.976669669E-1,-3.432859182E-1
4.338807820E-1,-1.108535603E-1,-7.433379889E-1,-3.869619071E-1
4.363783860E-1,-1.939435750E-1,-6.815529466E-1,-4.146589041E-1
4.388759380E-1,-2.738375664E-1,-6.080499887E-1,-4.093319178E-1
4.413735420E-1,-3.366885483E-1,-5.270899534E-1,-3.954839110E-1
4.438711460E-1,-3.824945390E-1,-4.525220096E-1,-3.890919089E-1
4.463686980E-1,-4.027345479E-1,-3.854109943E-1,-3.922879100E-1
4.488663020E-1,-3.963425457E-1,-3.289520144E-1,-3.890919089E-1
4.513638550E-1,-3.761025667E-1,-2.671670020E-1,-3.720479310E-1
4.538614590E-1,-3.420145512E-1,-2.085780054E-1,-3.475469053E-1
4.563590110E-1,-2.940775454E-1,-1.489230096E-1,-3.081329167E-1
4.588566150E-1,-2.301625609E-1,-8.607299626E-2,-2.601959109E-1
4.614081770E-1,-1.545285732E-1,-2.109199949E-2,-1.962798983E-1
4.639057300E-1,-7.569956034E-2,3.962699696E-2,-1.238429025E-1
4.664033340E-1,1.165043749E-2,9.608600289E-2,-4.607890919E-2
4.689008860E-1,1.011324376E-1,1.354999989E-1,3.275009245E-2
4.713984900E-1,1.831574291E-1,1.600009948E-1,1.073180959E-1
4.738960940E-1,2.577254474E-1,1.685229987E-1,1.701681018E-1
4.763936460E-1,3.227064610E-1,1.674579978E-1,2.191700935E-1
4.788912500E-1,3.844914436E-1,1.621319950E-1,2.575190961E-1
4.813888020E-1,4.249714613E-1,1.408270001E-1,2.916080952E-1
4.838864070E-1,4.462764561E-1,1.003470048E-1,3.256960809E-1
4.863840110E-1,4.398854375E-1,4.708399996E-2,3.576540947E-1
4.888815630E-1,4.143194556E-1,-1.470000017E-2,3.874810934E-1
4.914326050E-1,3.685124516E-1,-8.394199610E-2,4.130470753E-1
4.939301570E-1,3.056624532E-1,-1.606409997E-1,4.407440722E-1
4.964277610E-1,2.204414308E-1,-2.554489970E-1,4.822890759E-1
4.989253130E-1,1.160464361E-1,-3.566490114E-1,5.195730925E-1
5.014229170E-1,9.984376375E-4,-4.493260086E-1,5.600531101E-1
5.039205210E-1,-1.151145622E-1,-5.249599814E-1,6.026641130E-1
5.064180730E-1,-2.237705737E-1,-5.739619732E-1,6.420781016E-1
5.089156770E-1,-3.175135553E-1,-5.984629989E-1,6.814931035E-1
5.114132300E-1,-3.984735608E-1,-6.016589999E-1,7.155811191E-1
5.139108340E-1,-4.645195603E-1,-5.856799483E-1,7.443431020E-1
5.164083860E-1,-5.188475847E-1,-5.622439981E-1,7.752361298E-1
5.189059900E-1,-5.646535754E-1,-5.334819555E-1,8.008021116E-1
5.214598960E-1,-6.040685773E-1,-5.025889874E-1,8.210421205E-1
5.239584900E-1,-6.381565928E-1,-4.685010016E-1,8.380861282E-1
5.264570320E-1,-6.615926027E-1,-4.397390187E-1,8.519350886E-1
5.289556250E-1,-6.828975677E-1,-4.163030088E-1,8.647181392E-1
5.314542190E-1,-7.052685618E-1,-4.077810049E-1,8.721740842E-1
5.339527610E-1,-7.265735865E-1,-4.088470042E-1,8.743051291E-1
5.364513550E-1,-7.436175942E-1,-4.088470042E-1,8.732401133E-1
5.389499480E-1,-7.510746121E-1,-4.067160189E-1,8.721740842E-1
5.414484900E-1,-7.510746121E-1,-4.099119902E-1,8.689790964E-1
5.439470840E-1,-7.446826100E-1,-4.173690081E-1,8.636521101E-1
5.464456770E-1,-7.244426012E-1,-4.194990098E-1,8.636521101E-1
5.489442710E-1,-6.988765597E-1,-4.205639958E-1,8.647181392E-1
5.514865630E-1,-6.647886038E-1,-4.216299951E-1,8.679131269E-1
5.539851570E-1,-6.275045872E-1,-4.163030088E-1,8.700441122E-1
5.564836980E-1,-5.880895853E-1,-4.109770060E-1,8.796311021E-1
5.589822920E-1,-5.518705845E-1,-4.205639958E-1,8.902841210E-1
5.614808860E-1,-5.199126005E-1,-4.301519990E-1,9.020020962E-1
5.639794270E-1,-4.911505580E-1,-4.471960068E-1,9.169151187E-1
5.664780210E-1,-4.602585435E-1,-4.716970026E-1,9.328941107E-1
5.689766150E-1,-4.389535487E-1,-5.057849884E-1,9.467431307E-1
5.714751570E-1,-4.219085574E-1,-5.420039892E-1,9.541991353E-1
5.739737500E-1,-4.016695619E-1,-5.771579742E-1,9.627221227E-1
5.764722920E-1,-3.878205419E-1,-6.272249818E-1,9.680480957E-1
5.789708860E-1,-3.665155470E-1,-6.900749803E-1,9.744390845E-1
5.815121880E-1,-3.409495652E-1,-7.635779977E-1,9.861571193E-1
5.840107300E-1,-3.271005452E-1,-8.541249633E-1,9.968101382E-1
5.865093230E-1,-3.185785413E-1,-9.659779668E-1,1.012789011E0
5.890079170E-1,-3.015345633E-1,-1.107656956E0,1.037290096E0
5.915065110E-1,-2.919475436E-1,-1.268510938E0,1.071377993E0
5.940050520E-1,-2.834255397E-1,-1.441084027E0,1.104400992E0
5.965036460E-1,-2.823595405E-1,-1.634961009E0,1.126772046E0
5.990022400E-1,-2.791645527E-1,-1.827772975E0,1.140619993E0
6.015007820E-1,-2.717075646E-1,-2.006736994E0,1.138489008E0
6.039993750E-1,-2.589245439E-1,-2.149481058E0,1.129967093E0
6.064979690E-1,-2.365535647E-1,-2.245355129E0,1.110792994E0
6.089965630E-1,-2.067265660E-1,-2.296487093E0,1.082031012E0
6.115375520E-1,-1.790295690E-1,-2.315662146E0,1.052203059E0
6.140361460E-1,-1.470715702E-1,-2.305009127E0,1.017050028E0
6.165346880E-1,-1.247015595E-1,-2.269855976E0,9.818961024E-1
6.190332820E-1,-1.023305580E-1,-2.217658043E0,9.414160848E-1
6.215318750E-1,-8.741755784E-2,-2.162265062E0,8.956100941E-1
6.240304170E-1,-7.676456124E-2,-2.113263130E0,8.476731181E-1
6.265290110E-1,-7.676456124E-2,-2.079174042E0,7.890841365E-1
6.290276050E-1,-7.996056229E-2,-2.052543163E0,7.262341380E-1
6.315261460E-1,-9.167855978E-2,-2.040825129E0,6.655141115E-1
6.340247400E-1,-1.012655571E-1,-2.049347162E0,6.026641130E-1
6.365233340E-1,-1.076575592E-1,-2.062130213E0,5.440741181E-1
6.390218750E-1,-1.161795631E-1,-2.069586992E0,4.993330836E-1
6.415285940E-1,-1.236365587E-1,-2.085566044E0,4.524620771E-1
6.440271360E-1,-1.225705594E-1,-2.101545095E0,4.109170735E-1
6.465257300E-1,-1.204405576E-1,-2.112197161E0,3.778940737E-1
6.490243230E-1,-1.076575592E-1,-2.119654179E0,3.448710740E-1
6.515228650E-1,-8.954755962E-2,-2.128176212E0,3.107820749E-1
6.540214590E-1,-5.972056463E-2,-2.130307198E0,2.788250744E-1
6.565200520E-1,-2.350156195E-2,-2.130307198E0,2.521930933E-1
6.590185940E-1,1.378143765E-2,-2.121785164E0,2.266270965E-1
6.615171880E-1,5.213043466E-2,-2.119654179E0,2.010610998E-1
6.640157820E-1,8.515343815E-2,-2.126046181E0,1.776250899E-1
6.665143230E-1,1.160464361E-1,-2.132436991E0,1.605810970E-1
6.690129170E-1,1.437434256E-1,-2.138828993E0,1.499280930E-1
6.715915630E-1,1.693094373E-1,-2.142024994E0,1.371451020E-1
6.740901570E-1,1.927454323E-1,-2.139894009E0,1.264920980E-1
6.765886980E-1,2.119194269E-1,-2.138828993E0,1.094480976E-1
6.790872920E-1,2.268334329E-1,-2.134567976E0,9.666509926E-2
6.815858860E-1,2.396164387E-1,-2.123915195E0,7.855609804E-2
6.840844270E-1,2.492034286E-1,-2.110067129E0,6.470709294E-2
6.865830210E-1,2.545304596E-1,-2.091957092E0,5.618509278E-2
6.890815630E-1,2.534644604E-1,-2.072782993E0,4.233709350E-2
6.915801570E-1,2.577254474E-1,-2.050412178E0,3.061909415E-2
6.940787500E-1,2.566604614E-1,-2.022716045E0,1.464009378E-2
6.965773440E-1,2.534644604E-1,-2.006736994E0,-2.402906306E-3
6.990759380E-1,2.481384277E-1,-1.980104923E0,-1.198990643E-2
7.016189070E-1,2.438774258E-1,-1.939625025E0,-2.157790586E-2
7.041175000E-1,2.385514379E-1,-1.898079991E0,-2.370790578E-2
7.066160420E-1,2.353554368E-1,-1.859730959E0,-3.116490506E-2
7.091146360E-1,2.300294340E-1,-1.820315957E0,-3.542590886E-2
7.116132300E-1,2.278984338E-1,-1.772378922E0,-3.862190619E-2
7.141117710E-1,2.268334329E-1,-1.723376989E0,-4.181790724E-2
7.166103650E-1,2.342904359E-1,-1.663722992E0,-4.394790903E-2
7.191089590E-1,2.406814247E-1,-1.604067922E0,-5.033990741E-2
7.216075000E-1,2.523994446E-1,-1.558261991E0,-5.886190757E-2
7.241060940E-1,2.619864345E-1,-1.523108959E0,-6.418790668E-2
7.266046880E-1,2.747704387E-1,-1.487954974E0,-6.738390028E-2
7.291032820E-1,2.875534594E-1,-1.448539972E0,-7.164490223E-2
7.316418750E-1,3.120544553E-1,-1.404865026E0,-7.484090328E-2
7.341404690E-1,3.450774550E-1,-1.360123992E0,-8.549290150E-2
7.366390110E-1,3.823614419E-1,-1.315382957E0,-9.188490361E-2
7.391376050E-1,4.143194556E-1,-1.273837924E0,-9.934190661E-2
7.416361980E-1,4.377544522E-1,-1.238683939E0,-9.508090466E-2
7.441347400E-1,4.516034424E-1,-1.202464938E0,-7.910190523E-2
7.466333340E-1,4.707774520E-1,-1.166245937E0,-6.205790862E-2
7.491319270E-1,4.899524450E-1,-1.125766993E0,-4.501290619E-2
7.516304690E-1,5.080624223E-1,-1.083155990E0,-2.903490514E-2
7.541290630E-1,5.314974189E-1,-1.035218954E0,-1.625090651E-2
7.566276570E-1,5.549334288E-1,-9.915439487E-1,-1.412090659E-2
7.591262500E-1,5.762383938E-1,-9.510639906E-1,-6.663906388E-3
7.616328130E-1,5.879564285E-1,-9.180409908E-1,1.144409366E-2
7.641313550E-1,5.847604275E-1,-8.860829473E-1,2.742309496E-2
7.666298960E-1,5.826303959E-1,-8.551909924E-1,4.340209067E-2
7.691284900E-1,5.826303959E-1,-8.242979646E-1,4.872809350E-2
7.716270840E-1,5.762383938E-1,-7.902099490E-1,5.192409083E-2
7.741256770E-1,5.751734376E-1,-7.550559640E-1,5.085909367E-2
7.766242710E-1,5.762383938E-1,-7.220329642E-1,4.766309261E-2
7.791228130E-1,5.687814355E-1,-6.879449487E-1,4.553309083E-2
7.816214070E-1,5.687814355E-1,-6.549219489E-1,4.340209067E-2
7.841199480E-1,5.698474050E-1,-6.229639649E-1,3.594509140E-2
7.866185420E-1,5.655863881E-1,-5.984629989E-1,2.635809407E-2
7.891171360E-1,5.613254309E-1,-5.760920048E-1,2.529309504E-2
7.916970840E-1,5.559984446E-1,-5.526569486E-1,2.316209488E-2
7.941956770E-1,5.581294298E-1,-5.345469713E-1,1.677109487E-2
7.966942190E-1,5.570634007E-1,-5.132419467E-1,1.890109479E-2
7.991928130E-1,5.581294298E-1,-4.972630143E-1,1.890109479E-2
8.016913550E-1,5.623904467E-1,-4.834150076E-1,2.209709398E-2
8.041899480E-1,5.677164197E-1,-4.695660174E-1,3.061909415E-2
8.066885420E-1,5.741084218E-1,-4.610440135E-1,3.914109245E-2
8.091871360E-1,5.783694386E-1,-4.546529949E-1,4.766309261E-2
8.116856770E-1,5.858263969E-1,-4.503920078E-1,5.725109205E-2
8.141842710E-1,5.932824016E-1,-4.450649917E-1,6.790309399E-2
8.166828650E-1,5.986093879E-1,-4.440000057E-1,7.749009877E-2
8.191814590E-1,6.050004363E-1,-4.450649917E-1,9.346909821E-2
8.217217190E-1,6.135224104E-1,-4.408040047E-1,1.073180959E-1
8.242203130E-1,6.167184114E-1,-4.376090169E-1,1.211660951E-1
8.267188550E-1,6.220444441E-1,-4.333480000E-1,1.328841001E-1
8.292174480E-1,6.273714304E-1,-4.280210137E-1,1.499280930E-1
8.317160420E-1,6.305664182E-1,-4.237599969E-1,1.627110988E-1
8.342145840E-1,6.337624192E-1,-4.216299951E-1,1.776250899E-1
8.367131770E-1,6.348274350E-1,-4.216299951E-1,1.946690977E-1
8.392117710E-1,6.369584203E-1,-4.205639958E-1,2.106480896E-1
8.417103130E-1,6.412194371E-1,-4.194990098E-1,2.266270965E-1
8.442089070E-1,6.412194371E-1,-4.290870130E-1,2.404751033E-1
8.467075000E-1,6.476114392E-1,-4.333480000E-1,2.532580793E-1
8.492060940E-1,6.529374123E-1,-4.333480000E-1,2.671070695E-1
8.517456250E-1,6.571984291E-1,-4.418700039E-1,2.809550762E-1
8.542442190E-1,6.689164042E-1,-4.471960068E-1,2.926730812E-1
8.567427610E-1,6.774384379E-1,-4.493260086E-1,3.022600710E-1
8.592413550E-1,6.880904436E-1,-4.567829967E-1,3.161090910E-1
8.617399480E-1,7.019394040E-1,-4.642400146E-1,3.246310949E-1
8.642384900E-1,7.147223949E-1,-4.706320167E-1,3.342180848E-1
8.667370840E-1,7.285704017E-1,-4.791539907E-1,3.384790719E-1
8.692356770E-1,7.456154227E-1,-4.876759946E-1,3.448710740E-1
8.717342190E-1,7.615934014E-1,-4.983280003E-1,3.470010757E-1
8.742328130E-1,7.818334103E-1,-5.111119747E-1,3.501970768E-1
8.767314070E-1,8.020734191E-1,-5.217639804E-1,3.512620926E-1
8.792300000E-1,8.223134279E-1,-5.324169993E-1,3.480670750E-1
8.817366150E-1,8.553364277E-1,-5.377429724E-1,3.448710740E-1
8.842351570E-1,8.819684386E-1,-5.430689454E-1,3.416750729E-1
8.867336980E-1,9.149914384E-1,-5.462649465E-1,3.363490701E-1
8.892323440E-1,9.469494224E-1,-5.451999903E-1,3.342180848E-1
8.917308860E-1,9.842334390E-1,-5.441349745E-1,3.310220838E-1
8.942294270E-1,1.023647428E0,-5.420039892E-1,3.278270960E-1
8.967280730E-1,1.059866428E0,-5.345469713E-1,3.299570680E-1
8.992266150E-1,1.093955398E0,-5.238949656E-1,3.288920820E-1
9.017252090E-1,1.125912428E0,-5.143069625E-1,3.267610669E-1
9.042238020E-1,1.153609395E0,-5.047199726E-1,3.235660791E-1
9.067223440E-1,1.172784448E0,-4.961979985E-1,3.214350939E-1
9.092209380E-1,1.195154428E0,-4.823499918E-1,3.182390928E-1
9.118011460E-1,1.212198377E0,-4.663709998E-1,3.139780760E-1
9.142997400E-1,1.227112412E0,-4.450649917E-1,3.171740770E-1
9.167982820E-1,1.243091464E0,-4.226950109E-1,3.129130900E-1
9.192968750E-1,1.249482393E0,-3.960630000E-1,3.118480742E-1
9.217954690E-1,1.255874395E0,-3.704970181E-1,3.097170889E-1
9.242940110E-1,1.260135412E0,-3.438659906E-1,3.107820749E-1
9.267926050E-1,1.260135412E0,-3.140380085E-1,3.139780760E-1
9.292911980E-1,1.259070396E0,-2.799499929E-1,3.182390928E-1
9.317897400E-1,1.253744364E0,-2.565140128E-1,3.225000799E-1
9.342883340E-1,1.242026448E0,-2.362740040E-1,3.246310949E-1
9.367869270E-1,1.226047397E0,-2.181650102E-1,3.320880830E-1
9.392855210E-1,1.209003448E0,-2.085780054E-1,3.363490701E-1
9.418243230E-1,1.183436394E0,-2.075120062E-1,3.459360898E-1
9.443229170E-1,1.156805396E0,-2.096430063E-1,3.544580936E-1
9.468214590E-1,1.122717381E0,-2.181650102E-1,3.597840667E-1
9.493200520E-1,1.080106378E0,-2.352090031E-1,3.661760688E-1
9.518186460E-1,1.033235431E0,-2.629060149E-1,3.693720698E-1
9.543171880E-1,9.789063931E-1,-2.959290147E-1,3.672410846E-1
9.568157820E-1,9.245784283E-1,-3.278869987E-1,3.640450835E-1
9.593143750E-1,8.606634140E-1,-3.651710153E-1,3.555230796E-1
9.618129170E-1,7.967474461E-1,-3.918020129E-1,3.459360898E-1
9.643115110E-1,7.338973880E-1,-4.184339941E-1,3.352830708E-1
9.668100520E-1,6.667854190E-1,-4.461309910E-1,3.193050921E-1
9.693086980E-1,6.018044353E-1,-4.727620184E-1,3.065210879E-1
9.718505210E-1,5.336284041E-1,-5.004589558E-1,2.926730812E-1
9.743491150E-1,4.643864334E-1,-5.313519835E-1,2.820200920E-1
9.768476570E-1,3.866224587E-1,-5.697009563E-1,2.756290734E-1
9.793462500E-1,3.088584542E-1,-6.059199572E-1,2.734980881E-1
9.818447920E-1,2.268334329E-1,-6.506609917E-1,2.724330723E-1
9.843433860E-1,1.373514384E-1,-6.975319982E-1,2.766940892E-1
9.868419800E-1,5.639143661E-2,-7.444039583E-1,2.862810791E-1
9.893405730E-1,-2.563256212E-2,-7.912749648E-1,2.948040664E-1
9.918391150E-1,-1.076575592E-1,-8.402769566E-1,3.043910861E-1
9.943377090E-1,-1.822255701E-1,-8.914089799E-1,3.075870872E-1
9.968363020E-1,-2.514675558E-1,-9.361499548E-1,3.075870872E-1
9.993348960E-1,-3.121875525E-1,-9.766299725E-1,3.054560721E-1
1.001840990E0,-3.675805628E-1,-1.013913989E0,3.011950850E-1
1.004339532E0,-4.133865535E-1,-1.045871973E0,2.916080952E-1
1.006838073E0,-4.496055543E-1,-1.069307923E0,2.745640874E-1
1.009336719E0,-4.836945534E-1,-1.084221005E0,2.511280775E-1
1.011835261E0,-5.145865679E-1,-1.097005010E0,2.255620956E-1
1.014333855E0,-5.454795957E-1,-1.106591940E0,1.946690977E-1
1.016832448E0,-5.753065944E-1,-1.102330923E0,1.605810970E-1
1.019330990E0,-6.030035615E-1,-1.085286975E0,1.222310960E-1
1.021829584E0,-6.338955760E-1,-1.056524992E0,9.240409732E-2
1.024328177E0,-6.669185758E-1,-1.018175006E0,6.044609100E-2
1.026826719E0,-6.978116035E-1,-9.681079984E-1,2.955409512E-2
1.029325313E0,-7.361605763E-1,-9.116489887E-1,3.988093697E-3
1.031904740E0,-7.798365951E-1,-8.530599475E-1,-1.944690570E-2
1.034404011E0,-8.299036026E-1,-7.891439795E-1,-3.755690902E-2
1.036903334E0,-8.821015954E-1,-7.262939811E-1,-5.353590846E-2
1.039402605E0,-9.396255612E-1,-6.613129973E-1,-6.525290012E-2
1.041901927E0,-9.971495867E-1,-5.878099799E-1,-8.229790628E-2
1.044401198E0,-1.055738568E0,-5.121769905E-1,-9.934190661E-2
1.046900521E0,-1.114327550E0,-4.248259962E-1,-1.163859069E-1
1.049399792E0,-1.169721603E0,-3.300170004E-1,-1.419519037E-1
1.051899115E0,-1.219788551E0,-2.277520001E-1,-1.749749035E-1
1.054398386E0,-1.267725587E0,-1.095089987E-1,-2.037369013E-1
1.056897709E0,-1.313531637E0,2.790900134E-2,-2.431519032E-1
1.059396980E0,-1.357207537E0,1.759800017E-1,-2.900229096E-1
1.061931563E0,-1.403013587E0,3.315079808E-1,-3.347639143E-1
1.064430834E0,-1.449884534E0,4.955579937E-1,-3.837659061E-1
1.066930157E0,-1.497821569E0,6.649340391E-1,-4.402249157E-1
1.069429427E0,-1.546823621E0,8.353760242E-1,-4.998789132E-1
1.071928750E0,-1.594760537E0,1.007948041E0,-5.648598671E-1
1.074428021E0,-1.629913568E0,1.170933008E0,-6.383628845E-1
1.076927344E0,-1.657610536E0,1.330721974E0,-7.171918750E-1
1.079426615E0,-1.681046605E0,1.491576076E0,-7.992178798E-1
1.081925938E0,-1.702351570E0,1.637516975E0,-8.876338601E-1
1.084425209E0,-1.716199636E0,1.771740079E0,-9.813768864E-1
1.086924532E0,-1.723656535E0,1.886788011E0,-1.084706903E0
1.089423802E0,-1.721526623E0,1.992248058E0,-1.194428921E0
1.091920782E0,-1.709808588E0,2.073207855E0,-1.307346940E0
1.094420105E0,-1.685307622E0,2.130731821E0,-1.418133974E0
1.096919375E0,-1.650153637E0,2.174407959E0,-1.521463990E0
1.099418698E0,-1.595825553E0,2.189321995E0,-1.620532990E0
1.101917969E0,-1.518061638E0,2.190387011E0,-1.717471957E0
1.104417292E0,-1.417927623E0,2.182929993E0,-1.814409971E0
1.106916563E0,-1.310335636E0,2.179733992E0,-1.901761889E0
1.109415886E0,-1.195287585E0,2.179733992E0,-1.973133922E0
1.111915157E0,-1.077043533E0,2.169081926E0,-2.029592991E0
1.114414480E0,-9.619956017E-1,2.133927822E0,-2.081790924E0
1.116913750E0,-8.554695845E-1,2.094512939E0,-2.127596855E0
1.119413073E0,-7.617265582E-1,2.057228804E0,-2.155292988E0
1.121981146E0,-6.765065789E-1,2.008226871E0,-2.164880991E0
1.124480417E0,-5.934155583E-1,1.950703025E0,-2.153162956E0
1.126979740E0,-5.124565959E-1,1.896375060E0,-2.119075060E0
1.129479011E0,-4.346925616E-1,1.863352060E0,-2.058354855E0
1.131978334E0,-3.665155470E-1,1.853765011E0,-1.973133922E0
1.134477605E0,-3.281665444E-1,1.882526994E0,-1.857020974E0
1.136976927E0,-3.430795670E-1,1.966682076E0,-1.703622937E0
1.139476198E0,-4.059305489E-1,2.114753008E0,-1.512941957E0
1.141975521E0,-4.836945534E-1,2.264954805E0,-1.309476972E0
1.144474792E0,-5.582625866E-1,2.342718840E0,-1.116665006E0
1.146974115E0,-6.232435703E-1,2.383198977E0,-9.526149035E-1
1.149473386E0,-6.860935688E-1,2.403438807E0,-8.183918595E-1
1.152008490E0,-7.489435673E-1,2.399177790E0,-7.225188613E-1
1.154507761E0,-8.043375611E-1,2.360827923E0,-6.745818853E-1
1.157007084E0,-8.522745967E-1,2.309695959E0,-6.671248674E-1
1.159506355E0,-8.948845863E-1,2.245779991E0,-6.756469011E-1
1.162005677E0,-9.225815535E-1,2.192516804E0,-6.969528794E-1
1.164504948E0,-9.396255612E-1,2.150971889E0,-7.108008862E-1
1.167004271E0,-9.524086118E-1,2.126470804E0,-7.150619030E-1
1.169503542E0,-9.641265869E-1,2.115818977E0,-7.193228602E-1
1.172002865E0,-9.769095778E-1,2.112622976E0,-7.182579041E-1
1.174502136E0,-9.843665957E-1,2.107296944E0,-7.129309177E-1
1.177001459E0,-9.854316115E-1,2.106230974E0,-6.990829110E-1
1.179500730E0,-9.790396094E-1,2.119014025E0,-6.820389032E-1
1.182035938E0,-9.683876038E-1,2.146710873E0,-6.596679091E-1
1.184535209E0,-9.545385838E-1,2.181864977E0,-6.372978687E-1
1.187034532E0,-9.364295602E-1,2.206365824E0,-6.181228757E-1
1.189533802E0,-9.204505682E-1,2.214887857E0,-6.021438837E-1
1.192033125E0,-9.002105594E-1,2.213822842E0,-5.861659050E-1
1.194532396E0,-8.757095933E-1,2.197843790E0,-5.733819008E-1
1.197031719E0,-8.661226034E-1,2.154167891E0,-5.765779018E-1
1.199530990E0,-8.565355539E-1,2.088121891E0,-5.776429176E-1
1.202030313E0,-8.586655855E-1,1.997575045E0,-5.733819008E-1
1.204529584E0,-8.693186045E-1,1.885722041E0,-5.755128860E-1
1.207028907E0,-8.948845863E-1,1.753630042E0,-5.819038749E-1
1.209528177E0,-9.215155840E-1,1.617277026E0,-5.946878791E-1
1.212059948E0,-9.524086118E-1,1.479858041E0,-6.138619184E-1
1.214559219E0,-9.811705947E-1,1.342440009E0,-6.372978687E-1
1.217058542E0,-1.019519567E0,1.194369078E0,-6.649948955E-1
1.219557813E0,-1.078109622E0,1.026058078E0,-7.001478672E-1
1.222057136E0,-1.151612639E0,8.513550162E-1,-7.331708670E-1
1.224556407E0,-1.233637571E0,6.606730223E-1,-7.555418611E-1
1.227055730E0,-1.328445554E0,4.625349939E-1,-7.566068769E-1
1.229555000E0,-1.421122551E0,2.931590080E-1,-7.566068769E-1
1.232054323E0,-1.490364552E0,1.738499999E-1,-7.587378621E-1
1.234553594E0,-1.557476640E0,7.371500134E-2,-7.502158880E-1
1.237052917E0,-1.641631603E0,-1.789600030E-2,-7.470198870E-1
1.239552188E0,-1.730048537E0,-9.779100120E-2,-7.416929007E-1
1.242089063E0,-1.819530606E0,-1.755550057E-1,-7.267798781E-1
1.244588334E0,-1.895163536E0,-2.309480011E-1,-7.044088840E-1
1.247087657E0,-1.934578538E0,-2.192300111E-1,-6.862998605E-1
1.249586927E0,-1.940969586E0,-1.489230096E-1,-6.756469011E-1
1.252086250E0,-1.923925638E0,-5.624600127E-2,-6.713858843E-1
1.254585521E0,-1.878119588E0,7.051900029E-2,-6.756469011E-1
1.257084844E0,-1.817399621E0,2.111340016E-1,-6.767128706E-1
1.259584115E0,-1.750288606E0,3.421609998E-1,-6.703208685E-1
1.262083438E0,-1.687437534E0,4.529480040E-1,-6.681908965E-1
1.264582709E0,-1.629913568E0,5.530820489E-1,-6.703208685E-1
1.267082032E0,-1.578781605E0,6.436290145E-1,-6.799079180E-1
1.269581302E0,-1.529779553E0,7.245890498E-1,-7.012138963E-1
1.272111355E0,-1.480777621E0,7.885050178E-1,-7.278448939E-1
1.274610625E0,-1.422188640E0,8.534860015E-1,-7.566068769E-1
1.277109948E0,-1.359337568E0,9.120750427E-1,-7.725858688E-1
1.279609219E0,-1.292226553E0,9.664030075E-1,-7.917608619E-1
1.282108542E0,-1.216592550E0,1.028187990E0,-8.098698854E-1
1.284607813E0,-1.138828635E0,1.100625992E0,-8.226528764E-1
1.287107136E0,-1.052542567E0,1.191173077E0,-8.354358673E-1
1.289606407E0,-9.662565589E-1,1.289177060E0,-8.492848873E-1
1.292105730E0,-8.714485765E-1,1.390377045E0,-8.652638793E-1
1.294605000E0,-7.755755782E-1,1.492642045E0,-8.759158850E-1
1.297104323E0,-6.797015667E-1,1.588515043E0,-8.865689039E-1
1.299603594E0,-5.827636123E-1,1.675866008E0,-8.929598927E-1
1.302127865E0,-4.836945534E-1,1.749369025E0,-8.950908780E-1
1.304627136E0,-3.942125440E-1,1.807958007E0,-9.004169106E-1
1.307126459E0,-3.132525384E-1,1.843111992E0,-9.004169106E-1
1.309625730E0,-2.440105677E-1,1.865483046E0,-8.972209096E-1
1.312125052E0,-1.790295690E-1,1.872938991E0,-8.897649050E-1
1.314624323E0,-1.247015595E-1,1.876134992E0,-8.780468702E-1
1.317123646E0,-7.782956213E-2,1.870809078E0,-8.631328940E-1
1.319622917E0,-3.628456593E-2,1.853765011E0,-8.450238705E-1
1.322122240E0,-7.522562519E-3,1.819676042E0,-8.258488774E-1
1.324621511E0,1.378143765E-2,1.778131008E0,-8.034788966E-1
1.327120834E0,2.976043709E-2,1.734456062E0,-7.789778709E-1
1.329620105E0,3.615143523E-2,1.682258010E0,-7.555418611E-1
1.332163907E0,3.721743450E-2,1.633256078E0,-7.363668680E-1
1.334663177E0,3.508643433E-2,1.586384058E0,-7.225188613E-1
1.337162500E0,2.123843692E-2,1.537382007E0,-7.076048851E-1
1.339661771E0,2.063437598E-3,1.489446044E0,-6.905608773E-1
1.342161094E0,-2.456656285E-2,1.432986975E0,-6.724519134E-1
1.344660365E0,-6.078556553E-2,1.370136976E0,-6.522119045E-1
1.347159688E0,-1.023305580E-1,1.308351994E0,-6.362329125E-1
1.349658959E0,-1.470715702E-1,1.248697042E0,-6.213188767E-1
1.352158282E0,-1.864865720E-1,1.194369078E0,-6.042748690E-1
1.354657552E0,-2.301625609E-1,1.137910008E0,-5.893608928E-1
1.357156875E0,-2.685115635E-1,1.080386043E0,-5.787088871E-1
1.359656146E0,-3.057955503E-1,1.019666076E0,-5.648598671E-1
1.362191094E0,-3.409495652E-1,9.504240155E-1,-5.542078614E-1
1.364690365E0,-3.697115481E-1,8.854430318E-1,-5.435549021E-1
1.367189688E0,-3.942125440E-1,8.140709996E-1,-5.307719111E-1
1.369688959E0,-4.144525528E-1,7.490900159E-1,-5.233148932E-1
1.372188282E0,-4.219085574E-1,6.926310062E-1,-5.094668865E-1
1.374687552E0,-4.229745567E-1,6.425639987E-1,-4.998789132E-1
1.377186875E0,-4.176475406E-1,5.978230238E-1,-4.870959222E-1
1.379686146E0,-4.059305489E-1,5.637350082E-1,-4.764439166E-1
1.382185469E0,-3.878205419E-1,5.392340422E-1,-4.657909274E-1
1.384684740E0,-3.665155470E-1,5.200590491E-1,-4.498119056E-1
1.387184063E0,-3.505365551E-1,4.998189807E-1,-4.348989129E-1
1.389683334E0,-3.345575631E-1,4.785139859E-1,-4.210499227E-1
1.392214688E0,-3.239055574E-1,4.550780058E-1,-4.040059149E-1
1.394713959E0,-3.164485395E-1,4.295119941E-1,-3.858969212E-1
1.397213282E0,-3.143175542E-1,4.092719853E-1,-3.688519299E-1
1.399712552E0,-3.143175542E-1,3.858360052E-1,-3.507429063E-1
1.402211875E0,-3.143175542E-1,3.592050076E-1,-3.294379115E-1
1.404711146E0,-3.175135553E-1,3.304429948E-1,-3.081329167E-1
1.407210469E0,-3.228395581E-1,2.974199951E-1,-2.878929079E-1
1.409709740E0,-3.324275613E-1,2.505480051E-1,-2.623259127E-1
1.412209063E0,-3.494715393E-1,1.940899938E-1,-2.399559021E-1
1.414708334E0,-3.697115481E-1,1.461529881E-1,-2.186509073E-1
1.417207657E0,-3.782335520E-1,1.173910052E-1,-1.920189112E-1
1.419706927E0,-3.761025667E-1,9.608600289E-2,-1.632568985E-1
1.422243542E0,-3.686455488E-1,9.182500094E-2,-1.387559026E-1
1.424742813E0,-3.420145512E-1,1.024769992E-1,-1.174509004E-1
1.427242136E0,-3.057955503E-1,1.195209995E-1,-9.934190661E-2
1.429741407E0,-2.642505467E-1,1.397610009E-1,-7.057990134E-2
1.432240730E0,-2.248355746E-1,1.482829899E-1,-4.075190797E-2
1.434740000E0,-1.896825731E-1,1.418920010E-1,-1.092490647E-2
1.437239323E0,-1.577245742E-1,1.323039979E-1,1.890109479E-2
1.439738594E0,-1.364195645E-1,1.205869988E-1,5.299009383E-2
1.442237917E0,-1.129835621E-1,1.078040004E-1,9.133909643E-2
1.444737188E0,-8.741755784E-2,9.395500273E-2,1.264920980E-1
1.447236511E0,-6.398156285E-2,8.649799973E-2,1.595160961E-1
1.449735782E0,-4.267656431E-2,7.797600329E-2,1.978650987E-1
1.452269636E0,-2.137156203E-2,7.371500134E-2,2.298230976E-1
1.454768907E0,4.194437526E-3,7.797600329E-2,2.639110684E-1
1.457268230E0,2.549943700E-2,8.436800539E-2,3.033260703E-1
1.459767500E0,4.786943644E-2,9.715100378E-2,3.374140859E-1
1.462266823E0,7.237043977E-2,1.088690013E-1,3.693720698E-1
1.464766094E0,9.687144309E-2,1.237820014E-1,3.991990685E-1
1.467265417E0,1.213724390E-1,1.397610009E-1,4.332870841E-1
1.469764688E0,1.501344293E-1,1.557399929E-1,4.609840810E-1
1.472264011E0,1.757004261E-1,1.717189997E-1,4.886810780E-1
1.474763282E0,2.023324370E-1,1.823719889E-1,5.163781047E-1
1.477262605E0,2.236374319E-1,1.855669916E-1,5.451400876E-1
1.479761875E0,2.492034286E-1,1.930239946E-1,5.675101280E-1
1.482263282E0,2.715744376E-1,1.994159967E-1,5.952070951E-1
1.484762552E0,2.907484472E-1,2.047419995E-1,6.197081208E-1
1.487261875E0,3.088584542E-1,2.068729997E-1,6.442090869E-1
1.489761146E0,3.280334473E-1,2.058070004E-1,6.665791273E-1
1.492260469E0,3.418814540E-1,2.015459985E-1,6.889501214E-1
1.494759792E0,3.557294607E-1,1.940899938E-1,7.166461349E-1
1.497259063E0,3.759694397E-1,1.845019907E-1,7.390171289E-1
1.499758386E0,3.876874447E-1,1.759800017E-1,7.656481266E-1
1.502257657E0,4.015364349E-1,1.653279960E-1,7.912151217E-1
1.504756980E0,4.239064455E-1,1.482829899E-1,8.157160878E-1
1.507256250E0,4.430814385E-1,1.269779950E-1,8.359560966E-1
1.509755521E0,4.611904323E-1,1.046079993E-1,8.572611213E-1
1.512322865E0,4.856914580E-1,8.010700345E-2,8.796311021E-1
1.514822136E0,5.080624223E-1,5.560600013E-2,9.030671120E-1
1.517321459E0,5.400193930E-1,2.790900134E-2,9.275681376E-1
1.519820730E0,5.730423927E-1,1.277999952E-3,9.467431307E-1
1.522320052E0,6.081964374E-1,-2.428799868E-2,9.659171104E-1
1.524819323E0,6.486763954E-1,-5.091900006E-2,9.808310866E-1
1.527318646E0,6.891564131E-1,-7.009399682E-2,9.936141372E-1
1.529817917E0,7.360274196E-1,-8.500799537E-2,1.007462025E0
1.532317240E0,7.903554440E-1,-9.459500015E-2,1.018115044E0
1.534816511E0,8.489454389E-1,-9.779100120E-2,1.029833078E0
1.537315834E0,9.043384194E-1,-8.926899731E-2,1.043681026E0
1.539815105E0,9.618624449E-1,-7.328999788E-2,1.051138043E0
1.542347032E0,1.018321395E0,-5.305000022E-2,1.059660077E0
1.544846927E0,1.069454432E0,-2.428799868E-2,1.066052079E0
1.547346771E0,1.115260363E0,3.407999873E-3,1.073509097E0
1.549846667E0,1.151479363E0,3.856199980E-2,1.077769995E0
1.552346511E0,1.177045465E0,6.732400507E-2,1.078835011E0
1.554846407E0,1.194089413E0,1.003470048E-1,1.078835011E0
1.557346250E0,1.203676462E0,1.365659982E-1,1.075639009E0
1.559846146E0,1.201546431E0,1.727840006E-1,1.073509097E0
1.562346042E0,1.189828396E0,2.026119977E-1,1.067117095E0
1.564845886E0,1.170653462E0,2.388300002E-1,1.059660077E0
1.567345782E0,1.148283362E0,2.825059891E-1,1.050073028E0
1.569845625E0,1.120586395E0,3.261820078E-1,1.042616010E0
1.572373386E0,1.092889428E0,3.709229827E-1,1.029833078E0
1.574873282E0,1.063062429E0,4.145979881E-1,1.012789011E0
1.577373125E0,1.036430359E0,4.572089911E-1,1.000006080E0
1.579873021E0,1.012995362E0,4.966230094E-1,9.872230887E-1
1.582372865E0,9.884943962E-1,5.328420401E-1,9.691131115E-1
1.584872761E0,9.682543874E-1,5.616040230E-1,9.510040879E-1
1.587372605E0,9.469494224E-1,5.871710181E-1,9.371551275E-1
1.589872500E0,9.288394451E-1,6.159330010E-1,9.222421050E-1
1.592372396E0,9.181874394E-1,6.468250155E-1,9.062631130E-1
1.594872240E0,9.107304215E-1,6.787829995E-1,8.956100941E-1
1.597372136E0,9.032734036E-1,7.224590182E-1,8.870881200E-1
1.599871980E0,9.043384194E-1,7.703950405E-1,8.775011301E-1
1.602400730E0,9.054043889E-1,8.257890344E-1,8.668481112E-1
1.604900625E0,9.000774026E-1,8.790520430E-1,8.551301360E-1
1.607400469E0,8.862293959E-1,9.216620326E-1,8.391510844E-1
1.609900365E0,8.574674129E-1,9.504240155E-1,8.231720924E-1
1.612400209E0,8.148564100E-1,9.695990086E-1,7.944101095E-1
1.614900105E0,7.679854035E-1,9.813170433E-1,7.645831108E-1
1.617399948E0,7.093964219E-1,9.855780005E-1,7.283641100E-1
1.619899844E0,6.486763954E-1,9.898390174E-1,6.868191361E-1
1.622399740E0,5.858263969E-1,9.845120311E-1,6.420781016E-1
1.624899584E0,5.283014178E-1,9.791859984E-1,6.005331278E-1
1.627399480E0,4.729084373E-1,9.706640244E-1,5.525960922E-1
1.629899323E0,4.196454585E-1,9.685340524E-1,4.993330836E-1
1.632426094E0,3.685124516E-1,9.674680233E-1,4.482010901E-1
1.634925990E0,3.216414452E-1,9.706640244E-1,3.960030675E-1
1.637425834E0,2.726394534E-1,9.877080321E-1,3.416750729E-1
1.639925730E0,2.278984338E-1,1.015405059E0,2.873470783E-1
1.642425573E0,1.852884293E-1,1.052689075E0,2.362141013E-1
1.644925469E0,1.426774263E-1,1.096364975E0,1.936040968E-1
1.647425313E0,1.064594388E-1,1.144301057E0,1.595160961E-1
1.649925209E0,7.663144171E-2,1.192237973E0,1.339491010E-1
1.652425105E0,5.319643393E-2,1.231652975E0,1.201010942E-1
1.654924948E0,3.721743450E-2,1.259350061E0,1.179700941E-1
1.657424844E0,3.189043701E-2,1.271067023E0,1.243620962E-1
1.659924688E0,3.721743450E-2,1.265740991E0,1.382101029E-1
1.662454844E0,5.426143482E-2,1.245501041E0,1.531240940E-1
1.664954740E0,7.876244187E-2,1.208217025E0,1.691031009E-1
1.667454584E0,1.096544415E-1,1.153889060E0,1.797550917E-1
1.669954480E0,1.458734274E-1,1.083582044E0,1.818860918E-1
1.672454323E0,1.831574291E-1,1.002622008E0,1.754940897E-1
1.674954219E0,2.268334329E-1,9.120750427E-1,1.563200951E-1
1.677454063E0,2.683784366E-1,8.162010312E-1,1.318190992E-1
1.679953959E0,3.163154423E-1,7.128710151E-1,1.019910946E-1
1.682453802E0,3.685124516E-1,6.074100137E-1,7.109909505E-2
1.684953698E0,4.153844416E-1,4.902319908E-1,4.553309083E-2
1.687453594E0,4.675824344E-1,3.581399918E-1,2.635809407E-2
1.689953438E0,5.123234391E-1,1.962199956E-1,7.183094043E-3
1.692477605E0,5.485414267E-1,1.725600101E-2,-5.598905962E-3
1.694977500E0,5.773034096E-1,-1.585109979E-1,-6.663906388E-3
1.697477344E0,6.039354205E-1,-3.278869987E-1,2.922093496E-3
1.699977240E0,6.199144125E-1,-4.940670133E-1,2.316209488E-2
1.702477084E0,6.081964374E-1,-6.559869647E-1,4.233709350E-2
1.704976980E0,5.655863881E-1,-8.200369477E-1,5.831609294E-2
1.707476823E0,4.793004394E-1,-9.723689556E-1,6.044609100E-2
1.709976719E0,3.599904478E-1,-1.095938921E0,4.659809172E-2
1.712476615E0,2.161804289E-1,-1.183290958E0,6.118093617E-3
1.714976459E0,5.000043660E-2,-1.222705007E0,-1.092490647E-2
1.717476355E0,-1.193755642E-1,-1.188616991E0,-2.729063272E-4
1.719976198E0,-2.908815444E-1,-1.112982988E0,9.314093739E-3
1.722507448E0,-4.613235593E-1,-1.019240975E0,-3.467906499E-3
1.725007344E0,-6.338955760E-1,-9.105839729E-1,-2.583890595E-2
1.727507188E0,-7.904886007E-1,-7.934049964E-1,-2.690390497E-2
1.730007084E0,-9.268425703E-1,-6.847489476E-1,-6.663906388E-3
1.732506927E0,-1.028041601E0,-5.899409652E-1,2.103209496E-2
1.735006823E0,-1.094088554E0,-5.164379478E-1,5.085909367E-2
1.737506667E0,-1.124980569E0,-4.493260086E-1,8.068609983E-2
1.740006563E0,-1.124980569E0,-3.907369971E-1,1.147750989E-1
1.742506407E0,-1.088761568E0,-3.470619917E-1,1.488630921E-1
1.745006302E0,-1.016324639E0,-3.129729927E-1,1.840160936E-1
1.747506198E0,-9.193856120E-1,-2.969940007E-1,2.138440907E-1
1.750006042E0,-7.990115881E-1,-3.055160046E-1,2.351491004E-1
1.752532605E0,-6.573315859E-1,-3.321480155E-1,2.543240786E-1
1.755032500E0,-5.092605948E-1,-3.747580051E-1,2.756290734E-1
1.757532344E0,-3.622545600E-1,-4.365430176E-1,2.873470783E-1
1.760032240E0,-2.141835690E-1,-5.100459456E-1,2.905420959E-1
1.762532084E0,-7.037355751E-2,-5.888759494E-1,2.873470783E-1
1.765031980E0,6.384843588E-2,-6.772919893E-1,2.766940892E-1
1.767531823E0,1.863534302E-1,-7.689039707E-1,2.639110684E-1
1.770031719E0,2.950104475E-1,-8.605169654E-1,2.585850954E-1
1.772531615E0,3.834264576E-1,-9.393459558E-1,2.607150674E-1
1.775031459E0,4.484074414E-1,-9.958049655E-1,2.713680863E-1
1.777531355E0,4.899524450E-1,-1.032024026E0,2.905420959E-1
1.780031198E0,5.069963932E-1,-1.051198006E0,3.182390928E-1
1.782559532E0,5.123234391E-1,-1.038414955E0,3.448710740E-1
1.785059427E0,5.069963932E-1,-1.011783957E0,3.810900748E-1
1.787559271E0,4.867564440E-1,-9.627819657E-1,4.194390774E-1
1.790059167E0,4.654514492E-1,-8.988659978E-1,4.524620771E-1
1.792559011E0,4.398854375E-1,-8.349509835E-1,4.822890759E-1
1.795058907E0,4.057974517E-1,-7.752959728E-1,5.153121352E-1
1.797558750E0,3.674474359E-1,-7.241639495E-1,5.494011045E-1
1.800058646E0,3.280334473E-1,-6.868789792E-1,5.845541358E-1
1.802558542E0,2.843574584E-1,-6.591829658E-1,6.186431050E-1
1.805058386E0,2.406814247E-1,-6.357469559E-1,6.506001353E-1
1.807558282E0,1.927454323E-1,-6.250939965E-1,6.793621182E-1
1.810058125E0,1.511994302E-1,-6.176379919E-1,7.102550864E-1
1.812585417E0,1.117854416E-1,-6.091150045E-1,7.358211279E-1
1.815085313E0,8.195844293E-2,-5.963319540E-1,7.613871098E-1
1.817585157E0,5.745743588E-2,-5.824839473E-1,7.901490927E-1
1.820085052E0,3.828243539E-2,-5.739619732E-1,8.221071362E-1
1.822584896E0,2.336843684E-2,-5.792879462E-1,8.551301360E-1
1.825084792E0,5.259437487E-3,-5.931369662E-1,8.924140930E-1
1.827584636E0,-1.497956272E-2,-6.218989491E-1,9.339601398E-1
1.830084532E0,-4.054556414E-2,-6.613129973E-1,9.818961024E-1
1.832584427E0,-6.930755824E-2,-7.092499733E-1,1.033029079E0
1.835084271E0,-1.065925583E-1,-7.561209798E-1,1.096944094E0
1.837584167E0,-1.428105682E-1,-8.019279838E-1,1.164056063E0
1.840084011E0,-1.758335680E-1,-8.509299755E-1,1.235428095E0
1.842575521E0,-2.205745727E-1,-9.148449898E-1,1.311062098E0
1.845075417E0,-2.780985534E-1,-9.926089644E-1,1.380303025E0
1.847575261E0,-3.313615620E-1,-1.073568940E0,1.445284009E0
1.850075157E0,-3.824945390E-1,-1.159855008E0,1.506004095E0
1.852575000E0,-4.261705577E-1,-1.247205973E0,1.561398029E0
1.855074896E0,-4.581275582E-1,-1.327100992E0,1.608269095E0
1.857574740E0,-4.751715660E-1,-1.392081976E0,1.650880098E0
1.860074636E0,-4.741065502E-1,-1.440017939E0,1.686033010E0
1.862574532E0,-4.559975564E-1,-1.459192991E0,1.712665081E0
1.865074375E0,-4.261705577E-1,-1.468779922E0,1.730774045E0
1.867574271E0,-4.069955647E-1,-1.491150975E0,1.741427064E0
1.870074115E0,-3.952775598E-1,-1.528434992E0,1.741427064E0
1.872636355E0,-3.867555559E-1,-1.584893942E0,1.731839061E0
1.875136250E0,-3.867555559E-1,-1.653069973E0,1.722252011E0
1.877636094E0,-3.867555559E-1,-1.730834007E0,1.699881077E0
1.880135990E0,-3.867555559E-1,-1.808597922E0,1.661532044E0
1.882635834E0,-3.878205419E-1,-1.888492942E0,1.613595009E0
1.885135730E0,-3.878205419E-1,-1.968387008E0,1.555006027E0
1.887635573E0,-3.942125440E-1,-2.044021130E0,1.485764027E0
1.890135469E0,-3.920815587E-1,-2.103675127E0,1.405870080E0
1.892635365E0,-3.920815587E-1,-2.146286011E0,1.321714044E0
1.895135209E0,-3.867555559E-1,-2.178243160E0,1.225841045E0
1.897635105E0,-3.835595548E-1,-2.207005024E0,1.125706077E0
1.900134948E0,-3.803635538E-1,-2.229376078E0,1.021311045E0
1.902625261E0,-3.803635538E-1,-2.254942179E0,9.126541018E-1
1.905125157E0,-3.771685660E-1,-2.278378010E0,7.986721396E-1
1.907625000E0,-3.686455488E-1,-2.303944111E0,6.889501214E-1
1.910124896E0,-3.579935431E-1,-2.338032007E0,5.739021301E-1
1.912624740E0,-3.452105522E-1,-2.371056080E0,4.609840810E-1
1.915124636E0,-3.228395581E-1,-2.383839130E0,3.544580936E-1
1.917624480E0,-2.962085605E-1,-2.381708145E0,2.447360903E-1
1.920124375E0,-2.599895597E-1,-2.368925095E0,1.392761022E-1
1.922624271E0,-2.205745727E-1,-2.349750042E0,3.275009245E-2
1.925124115E0,-1.705075651E-1,-2.325249195E0,-6.951390207E-2
1.927624011E0,-1.225705594E-1,-2.305009127E0,-1.685838997E-1
1.930123855E0,-7.676456124E-2,-2.292226076E0,-2.623259127E-1
1.932686823E0,-3.308956325E-2,-2.283704042E0,-3.560689092E-1
1.935186719E0,9.984376375E-4,-2.280508041E0,-4.434209168E-1
1.937686563E0,3.721743450E-2,-2.270920992E0,-5.233148932E-1
1.940186459E0,7.130543888E-2,-2.256007195E0,-5.957528949E-1
1.942686302E0,1.053934395E-1,-2.238963127E0,-6.639288664E-1
1.945186198E0,1.352214366E-1,-2.218723059E0,-7.225188613E-1
1.947686042E0,1.586564332E-1,-2.197418213E0,-7.736508846E-1
1.950185938E0,1.810274273E-1,-2.178243160E0,-8.141309023E-1
1.952685834E0,2.044624388E-1,-2.147351027E0,-8.460888863E-1
1.955185677E0,2.247024328E-1,-2.120719194E0,-8.769809008E-1
1.957685573E0,2.428124249E-1,-2.088762045E0,-9.025478959E-1
1.960185417E0,2.651824355E-1,-2.048282146E0,-9.185268879E-1
1.962715365E0,2.886184454E-1,-2.001410007E0,-9.281138778E-1
1.965215261E0,3.109884560E-1,-1.956668973E0,-9.291788936E-1
1.967715105E0,3.269674480E-1,-1.917254925E0,-9.249178767E-1
1.970215000E0,3.408164382E-1,-1.885296941E0,-9.121348858E-1
1.972714844E0,3.472074568E-1,-1.853338957E0,-8.908298612E-1
1.975214740E0,3.472074568E-1,-1.820315957E0,-8.610028625E-1
1.977714584E0,3.386854529E-1,-1.787292957E0,-8.215878606E-1
1.980214480E0,3.248374462E-1,-1.752138972E0,-7.779119015E-1
1.982714375E0,3.056624532E-1,-1.705268025E0,-7.246488929E-1
1.985214219E0,2.800964415E-1,-1.649874926E0,-6.617988944E-1
1.987714115E0,2.523994446E-1,-1.585958958E0,-5.904268622E-1
1.990213959E0,2.183114290E-1,-1.516716957E0,-5.158578753E-1
1.992740157E0,1.788964272E-1,-1.450670958E0,-4.338329136E-1
1.995240052E0,1.384164393E-1,-1.400604010E0,-3.528739214E-1
1.997739896E0,9.687144309E-2,-1.354797006E0,-2.719139159E-1
2.000239792E0,5.106543750E-2,-1.311121941E0,-1.952148974E-1
2.002739636E0,6.324437447E-3,-1.267445922E0,-1.227769032E-1
2.005239532E0,-3.202356398E-2,-1.223770976E0,-5.246990919E-2
2.007739375E0,-6.185156479E-2,-1.182224989E0,2.209709398E-2
2.010239271E0,-8.741755784E-2,-1.140679955E0,9.027409554E-2
2.012739167E0,-1.044615582E-1,-1.094874024E0,1.541890949E-1
2.015239011E0,-1.225705594E-1,-1.053328991E0,2.063871026E-1
2.017738907E0,-1.321585625E-1,-1.020305991E0,2.543240786E-1
2.020238750E0,-1.374845654E-1,-9.830219746E-1,2.926730812E-1
2.022766042E0,-1.353545636E-1,-9.425419569E-1,3.267610669E-1
2.025265938E0,-1.236365587E-1,-9.009969831E-1,3.544580936E-1
2.027765782E0,-1.065925583E-1,-8.594519496E-1,3.789590895E-1
2.030265677E0,-8.315656334E-2,-8.211019635E-1,3.949380815E-1
2.032765521E0,-5.545956269E-2,-7.859489918E-1,4.034600854E-1
2.035265417E0,-2.350156195E-2,-7.593169808E-1,4.077210724E-1
2.037765261E0,1.165043749E-2,-7.390769720E-1,4.077210724E-1
2.040265157E0,5.106543750E-2,-7.177719474E-1,3.970680833E-1
2.042765052E0,9.367544204E-2,-7.071189880E-1,3.821550906E-1
2.045264896E0,1.373514384E-1,-6.900749803E-1,3.651110828E-1
2.047764792E0,1.852884293E-1,-6.740959883E-1,3.448710740E-1
2.050264636E0,2.300294340E-1,-6.666399837E-1,3.225000799E-1
2.052793021E0,2.800964415E-1,-6.613129973E-1,3.001300693E-1
2.055293386E0,3.237724602E-1,-6.570519805E-1,2.745640874E-1
2.057793698E0,3.653174341E-1,-6.527909636E-1,2.468670905E-1
2.060294063E0,4.111234546E-1,-6.474649906E-1,2.202350944E-1
2.062794375E0,4.558644593E-1,-6.389429569E-1,1.914730966E-1
2.065294688E0,4.952784479E-1,-6.282899976E-1,1.701681018E-1
2.067795052E0,5.293673873E-1,-6.229639649E-1,1.456670910E-1
2.070295365E0,5.613254309E-1,-6.155069470E-1,1.201010942E-1
2.072795730E0,5.922174454E-1,-6.123109460E-1,9.666509926E-2
2.075296042E0,6.241754293E-1,-6.080499887E-1,7.429509610E-2
2.077796407E0,6.518723965E-1,-5.984629989E-1,5.512009189E-2
2.080296719E0,6.753073931E-1,-5.920709968E-1,3.594509140E-2
2.082820730E0,7.008743882E-1,-5.867449641E-1,1.890109479E-2
2.085321094E0,7.253754139E-1,-5.760920048E-1,2.922093496E-3
2.087821407E0,7.434844375E-1,-5.686360002E-1,-4.533906002E-3
2.090321771E0,7.605284452E-1,-5.611789823E-1,-8.794906549E-3
2.092822084E0,7.765074372E-1,-5.505259633E-1,-8.794906549E-3
2.095322396E0,7.871603966E-1,-5.441349745E-1,-3.467906499E-3
2.097822761E0,7.871603966E-1,-5.334819555E-1,3.988093697E-3
2.100323073E0,7.892904282E-1,-5.175029635E-1,1.357509382E-2
2.102823438E0,7.882254124E-1,-5.047199726E-1,2.529309504E-2
2.105323750E0,7.797034383E-1,-4.887410104E-1,4.020609334E-2
2.107824115E0,7.775723934E-1,-4.727620184E-1,5.512009189E-2
2.110324427E0,7.765074372E-1,-4.589140117E-1,7.216409594E-2
2.112844271E0,7.647894025E-1,-4.503920078E-1,8.920809627E-2
2.115344636E0,7.615934014E-1,-4.386740029E-1,1.009260938E-1
2.117844948E0,7.605284452E-1,-4.312170148E-1,1.222310960E-1
2.120345313E0,7.605284452E-1,-4.269559979E-1,1.414060891E-1
2.122845625E0,7.637244463E-1,-4.237599969E-1,1.563200951E-1
2.125345938E0,7.658544183E-1,-4.237599969E-1,1.733641028E-1
2.127846302E0,7.701154351E-1,-4.258910120E-1,1.925390959E-1
2.130346615E0,7.818334103E-1,-4.269559979E-1,2.106480896E-1
2.132846980E0,7.946164012E-1,-4.312170148E-1,2.266270965E-1
2.135347292E0,8.063344359E-1,-4.376090169E-1,2.415411025E-1
2.137847657E0,8.201833963E-1,-4.461309910E-1,2.617800832E-1
2.140347969E0,8.329664469E-1,-4.557180107E-1,2.788250744E-1
2.142868073E0,8.489454389E-1,-4.621100128E-1,2.926730812E-1
2.145368438E0,8.638584018E-1,-4.685010016E-1,3.065210879E-1
2.147868750E0,8.819684386E-1,-4.802190065E-1,3.203700781E-1
2.150369115E0,8.968814015E-1,-4.898059964E-1,3.342180848E-1
2.152869427E0,9.096654058E-1,-4.961979985E-1,3.480670750E-1
2.155369740E0,9.245784283E-1,-5.036549568E-1,3.608500957E-1
2.157870105E0,9.405574203E-1,-5.089809895E-1,3.736330867E-1
2.160370417E0,9.544054270E-1,-5.143069625E-1,3.832200766E-1
2.162870782E0,9.703844190E-1,-5.196339488E-1,3.960030675E-1
2.165371094E0,9.874294400E-1,-5.196339488E-1,4.066560864E-1
2.167871459E0,1.001277447E0,-5.228289962E-1,4.151780903E-1
2.170371771E0,1.020452380E0,-5.228289962E-1,4.226350784E-1
2.172897448E0,1.039626360E0,-5.185679793E-1,4.279610813E-1
2.175397813E0,1.055605412E0,-5.153729916E-1,4.311570823E-1
2.177898125E0,1.071584463E0,-5.079159737E-1,4.375480711E-1
2.180398490E0,1.090759397E0,-5.025889874E-1,4.428750873E-1
2.182898802E0,1.105672359E0,-4.983280003E-1,4.471360743E-1
2.185399167E0,1.117390394E0,-4.908719957E-1,4.492660761E-1
2.187899480E0,1.126978397E0,-4.844799936E-1,4.513970912E-1
2.190399792E0,1.134434462E0,-4.802190065E-1,4.492660761E-1
2.192900157E0,1.140826464E0,-4.738270044E-1,4.482010901E-1
2.195400469E0,1.146152377E0,-4.674360156E-1,4.471360743E-1
2.197900834E0,1.145087361E0,-4.621100128E-1,4.396790862E-1
2.200401146E0,1.146152377E0,-4.589140117E-1,4.343530834E-1
2.202926771E0,1.139761448E0,-4.546529949E-1,4.268960953E-1
2.205427136E0,1.133369446E0,-4.493260086E-1,4.247650802E-1
2.207927448E0,1.121651411E0,-4.429350197E-1,4.151780903E-1
2.210427813E0,1.110999465E0,-4.397390187E-1,4.066560864E-1
2.212928125E0,1.097150445E0,-4.386740029E-1,3.991990685E-1
2.215428438E0,1.076910377E0,-4.344130158E-1,3.864160776E-1
2.217928802E0,1.059866428E0,-4.386740029E-1,3.715020716E-1
2.220429115E0,1.042822361E0,-4.386740029E-1,3.597840667E-1
2.222929480E0,1.023647428E0,-4.344130158E-1,3.491320908E-1
2.225429792E0,1.002342463E0,-4.376090169E-1,3.352830708E-1
2.227930157E0,9.714503884E-1,-4.440000057E-1,3.214350939E-1
2.230430469E0,9.437534213E-1,-4.493260086E-1,3.107820749E-1
2.232949271E0,9.117954373E-1,-4.578489959E-1,2.969340682E-1
2.235449636E0,8.702504039E-1,-4.621100128E-1,2.884120941E-1
2.237949948E0,8.308354020E-1,-4.610440135E-1,2.788250744E-1
2.240450313E0,7.818334103E-1,-4.599789977E-1,2.745640874E-1
2.242950625E0,7.360274196E-1,-4.535880089E-1,2.766940892E-1
2.245450938E0,6.816993952E-1,-4.471960068E-1,2.777590752E-1
2.247951302E0,6.241754293E-1,-4.386740029E-1,2.788250744E-1
2.250451615E0,5.591944456E-1,-4.344130158E-1,2.830860913E-1
2.252951980E0,4.878224432E-1,-4.290870130E-1,2.926730812E-1
2.255452292E0,4.207104445E-1,-4.226950109E-1,3.033260703E-1
2.257952657E0,3.472074568E-1,-4.163030088E-1,3.129130900E-1
2.260452969E0,2.737044394E-1,-4.088470042E-1,3.278270960E-1
2.262938802E0,2.002014369E-1,-4.099119902E-1,3.406100869E-1
2.265439167E0,1.352214366E-1,-4.067160189E-1,3.576540947E-1
2.267939480E0,6.597943604E-2,-4.088470042E-1,3.757630885E-1
2.270439844E0,-1.131562516E-3,-4.088470042E-1,4.013300836E-1
2.272940157E0,-6.717756391E-2,-4.067160189E-1,4.247650802E-1
2.275440469E0,-1.236365587E-1,-4.067160189E-1,4.492660761E-1
2.277940834E0,-1.747685671E-1,-4.045860171E-1,4.748320878E-1
2.280441146E0,-2.259015739E-1,-3.981940150E-1,4.961380959E-1
2.282941511E0,-2.770335674E-1,-3.949980140E-1,5.195730925E-1
2.285441823E0,-3.281665444E-1,-3.907369971E-1,5.408791304E-1
2.287942136E0,-3.729075491E-1,-3.758240044E-1,5.632491112E-1
2.290442500E0,-4.197785556E-1,-3.598450124E-1,5.888150930E-1
2.292966771E0,-4.655845463E-1,-3.406700194E-1,6.133161187E-1
2.295467136E0,-5.081955791E-1,-3.246909976E-1,6.346210837E-1
2.297967448E0,-5.508055687E-1,-3.044510186E-1,6.516661048E-1
2.300467761E0,-5.934155583E-1,-2.906030118E-1,6.644490957E-1
2.302968125E0,-6.370915771E-1,-2.927330136E-1,6.719061136E-1
2.305468438E0,-6.786366105E-1,-2.927330136E-1,6.782971025E-1
2.307968802E0,-7.148556113E-1,-2.895370126E-1,6.740360856E-1
2.310469115E0,-7.478786111E-1,-2.863419950E-1,6.623181105E-1
2.312969480E0,-7.798365951E-1,-2.735590041E-1,6.452741027E-1
2.315469792E0,-8.075335622E-1,-2.501229942E-1,6.250340939E-1
2.317970105E0,-8.362956047E-1,-2.117740065E-1,5.952070951E-1
2.320470469E0,-8.618615866E-1,-1.521190107E-1,5.557920933E-1
2.323027865E0,-8.906235695E-1,-6.902899593E-2,5.121170878E-1
2.325528230E0,-9.225815535E-1,3.004000150E-2,4.641800821E-1
2.328028542E0,-9.545385838E-1,1.418920010E-1,4.109170735E-1
2.330528907E0,-9.864965677E-1,2.707879841E-1,3.523280919E-1
2.333029219E0,-1.016324639E0,4.199250042E-1,2.937380672E-1
2.335529532E0,-1.048281550E0,5.775830150E-1,2.276920974E-1
2.338029896E0,-1.075978637E0,7.437640429E-1,1.573850960E-1
2.340530209E0,-1.111132622E0,9.163360000E-1,8.068609983E-2
2.343030573E0,-1.139894605E0,1.084647059E0,2.922093496E-3
2.345530886E0,-1.170786619E0,1.250827074E0,-7.590590417E-2
2.348031250E0,-1.199548602E0,1.408486009E0,-1.504739076E-1
2.350531563E0,-1.224049568E0,1.562949061E0,-2.282378972E-1
2.353054740E0,-1.249615550E0,1.711019993E0,-3.070669174E-1
2.355555105E0,-1.268790603E0,1.840982080E0,-3.912229240E-1
2.358055417E0,-1.291161537E0,1.957095027E0,-4.775089324E-1
2.360555782E0,-1.303944588E0,2.065750837E0,-5.648598671E-1
2.363056094E0,-1.307140589E0,2.156297922E0,-6.607338786E-1
2.365556407E0,-1.306074619E0,2.235127926E0,-7.608678937E-1
2.368056771E0,-1.290095568E0,2.299042940E0,-8.641979098E-1
2.370557084E0,-1.259203553E0,2.345914841E0,-9.664629102E-1
2.373057448E0,-1.216592550E0,2.370415926E0,-1.074054956E0
2.375557761E0,-1.160134554E0,2.380002975E0,-1.175253987E0
2.378058125E0,-1.089826584E0,2.370415926E0,-1.272192955E0
2.380558438E0,-1.007801533E0,2.353371859E0,-1.359543920E0
2.383080938E0,-9.215155840E-1,2.337392807E0,-1.437307954E0
2.385581302E0,-8.309685588E-1,2.325675011E0,-1.507614970E0
2.388081615E0,-7.414866090E-1,2.316087008E0,-1.575791955E0
2.390581980E0,-6.626575589E-1,2.316087008E0,-1.643968940E0
2.393082292E0,-5.912855864E-1,2.324609995E0,-1.710014939E0
2.395582605E0,-5.284345746E-1,2.331000805E0,-1.781386971E0
2.398082969E0,-4.719765484E-1,2.326739788E0,-1.852759957E0
2.400583282E0,-4.187135398E-1,2.318217993E0,-1.924131989E0
2.403083646E0,-3.782335520E-1,2.306499958E0,-1.985916972E0
2.405583959E0,-3.441445529E-1,2.304369926E0,-2.043441057E0
2.408084323E0,-3.164485395E-1,2.309695959E0,-2.092442989E0
2.410584636E0,-2.876865566E-1,2.318217993E0,-2.129726887E0
2.413107188E0,-2.578585446E-1,2.332065821E0,-2.157423973E0
2.415607552E0,-2.333575636E-1,2.356566906E0,-2.167011023E0
2.418107865E0,-2.131185681E-1,2.389589787E0,-2.161684990E0
2.420608230E0,-1.971395612E-1,2.438591957E0,-2.133987904E0
2.423108542E0,-1.950085610E-1,2.491854906E0,-2.093508005E0
2.425608855E0,-1.950085610E-1,2.550444841E0,-2.037050009E0
2.428109219E0,-2.003345639E-1,2.609033823E0,-1.965676904E0
2.430609532E0,-2.120525688E-1,2.653774977E0,-1.891108990E0
2.433109896E0,-2.301625609E-1,2.675079823E0,-1.816540956E0
2.435610209E0,-2.440105677E-1,2.666557789E0,-1.741972923E0
2.438110573E0,-2.653155625E-1,2.635664940E0,-1.672730923E0
2.440610886E0,-2.898165584E-1,2.591989994E0,-1.615206957E0
2.443134375E0,-3.175135553E-1,2.537661791E0,-1.574726939E0
2.445634740E0,-3.473405540E-1,2.471614838E0,-1.550225973E0
2.448135052E0,-3.824945390E-1,2.391721010E0,-1.538507938E0
2.450635417E0,-4.251045585E-1,2.301173925E0,-1.534246922E0
2.453135730E0,-4.762375653E-1,2.209560871E0,-1.527854919E0
2.455636042E0,-5.380225778E-1,2.120079994E0,-1.518267989E0
2.458136407E0,-6.072645783E-1,2.040184975E0,-1.505484939E0
2.460636719E0,-6.765065789E-1,1.964552045E0,-1.479918957E0
2.463137084E0,-7.457485795E-1,1.891049027E0,-1.456483006E0
2.465637396E0,-8.096635938E-1,1.822872043E0,-1.430916905E0
2.468137761E0,-8.671875596E-1,1.769608974E0,-1.397893906E0
2.470638073E0,-9.193856120E-1,1.719542027E0,-1.373392940E0
2.473122917E0,-9.641265869E-1,1.660953045E0,-1.359543920E0
2.475623282E0,-1.006736636E0,1.595972061E0,-1.346760988E0
2.478123594E0,-1.034433603E0,1.545904994E0,-1.339303970E0
2.480623907E0,-1.053608537E0,1.503293991E0,-1.333977938E0
2.483124271E0,-1.069587588E0,1.455357075E0,-1.331847906E0
2.485624584E0,-1.079174638E0,1.396767974E0,-1.335042953E0
2.488124948E0,-1.083435535E0,1.334982991E0,-1.343564987E0
2.490625261E0,-1.087696552E0,1.264675975E0,-1.353152990E0
2.493125625E0,-1.094088554E0,1.189041972E0,-1.358478904E0
2.495625938E0,-1.106871605E0,1.101691008E0,-1.371261954E0
2.498126250E0,-1.117523551E0,1.013275027E0,-1.387241006E0
2.500626615E0,-1.122850537E0,9.291190505E-1,-1.395762920E0
2.503185573E0,-1.130306602E0,8.460290432E-1,-1.400023937E0
2.505685938E0,-1.130306602E0,7.735910416E-1,-1.397893906E0
2.508186250E0,-1.148416638E0,6.713260412E-1,-1.395762920E0
2.510686615E0,-1.189961553E0,5.296460390E-1,-1.393633008E0
2.513186927E0,-1.254942536E0,3.655959964E-1,-1.386175990E0
2.515687240E0,-1.335902572E0,1.898289919E-1,-1.364870906E0
2.518187605E0,-1.424318552E0,3.004000150E-2,-1.330781937E0
2.520687917E0,-1.497821569E0,-8.713799715E-2,-1.294562936E0
2.523188282E0,-1.562802553E0,-1.670330018E-1,-1.249821901E0
2.525688594E0,-1.626718640E0,-2.458620071E-1,-1.198689938E0
2.528188959E0,-1.691698551E0,-3.140380085E-1,-1.150752902E0
2.530689271E0,-1.757745624E0,-3.651710153E-1,-1.113469005E0
2.533211615E0,-1.817399621E0,-3.918020129E-1,-1.081510901E0
2.535711980E0,-1.869597554E0,-3.928680122E-1,-1.046357989E0
2.538212292E0,-1.914338589E0,-3.726280034E-1,-1.008008003E0
2.540712657E0,-1.948426604E0,-3.353440166E-1,-9.664629102E-1
2.543212969E0,-1.963340640E0,-2.714280188E-1,-9.334399104E-1
2.545713282E0,-1.952687621E0,-1.766200066E-1,-9.089388847E-1
2.548213646E0,-1.922860622E0,-7.328999788E-2,-8.929598927E-1
2.550713959E0,-1.877054572E0,5.240999907E-2,-8.801769018E-1
2.553214323E0,-1.812073588E0,2.015459985E-1,-8.684588671E-1
2.555714636E0,-1.738570571E0,3.624010086E-1,-8.460888863E-1
2.558215000E0,-1.659741640E0,5.285810232E-1,-8.215878606E-1
2.560715313E0,-1.581977606E0,6.755869985E-1,-8.066738844E-1
2.563201094E0,-1.508474588E0,7.948960066E-1,-7.992178798E-1
2.565701771E0,-1.436036587E0,9.088790417E-1,-7.906948924E-1
2.568202448E0,-1.371055603E0,1.012209058E0,-7.906948924E-1
2.570703073E0,-1.315662622E0,1.105952024E0,-8.045439124E-1
2.573203750E0,-1.267725587E0,1.195433974E0,-8.247838616E-1
2.575704427E0,-1.219788551E0,1.274263024E0,-8.492848873E-1
2.578205105E0,-1.166525602E0,1.338178992E0,-8.769809008E-1
2.580705782E0,-1.110066533E0,1.382920027E0,-8.993518949E-1
2.583206407E0,-1.052542567E0,1.409551024E0,-9.142658710E-1
2.585707136E0,-9.971495867E-1,1.427661061E0,-9.238528609E-1
2.588207761E0,-9.385606050E-1,1.445770025E0,-9.238528609E-1
2.590708438E0,-8.714485765E-1,1.457488060E0,-9.195919037E-1
2.593264844E0,-8.054025769E-1,1.464945078E0,-9.131999016E-1
2.595765521E0,-7.308346033E-1,1.472401977E0,-9.046778679E-1
2.598266198E0,-6.573315859E-1,1.481989026E0,-8.982868791E-1
2.600766875E0,-5.838285685E-1,1.486250043E0,-8.918948770E-1
2.603267500E0,-5.071296096E-1,1.488380075E0,-8.812428713E-1
2.605768177E0,-4.346925616E-1,1.480924010E0,-8.663288951E-1
2.608268855E0,-3.633195460E-1,1.461749077E0,-8.588718772E-1
2.610769532E0,-2.919475436E-1,1.432986975E0,-8.450238705E-1
2.613270209E0,-2.237705737E-1,1.394638062E0,-8.290448785E-1
2.615770886E0,-1.619855613E-1,1.352027059E0,-8.130658865E-1
2.618271563E0,-1.065925583E-1,1.305155993E0,-7.992178798E-1
2.620772188E0,-5.972056463E-2,1.261479974E0,-7.768468857E-1
2.623289167E0,-1.711056195E-2,1.209282041E0,-7.598028779E-1
2.625789844E0,1.591143757E-2,1.153889060E0,-7.427588701E-1
2.628290521E0,4.360843450E-2,1.104887009E0,-7.246488929E-1
2.630791198E0,6.384843588E-2,1.060145974E0,-7.065398693E-1
2.633291823E0,7.982744277E-2,1.014340043E0,-6.841688752E-1
2.635792500E0,8.941444010E-2,9.738600254E-1,-6.639288664E-1
2.638293177E0,9.367544204E-2,9.419020414E-1,-6.479508877E-1
2.640793855E0,9.580644220E-2,9.099439979E-1,-6.287758946E-1
2.643294532E0,9.474144131E-2,8.801169991E-1,-6.085358858E-1
2.645795209E0,9.367544204E-2,8.502900004E-1,-5.904268622E-1
2.648295886E0,8.728443831E-2,8.193970323E-1,-5.691208839E-1
2.650796511E0,8.089243621E-2,7.895700336E-1,-5.499469042E-1
2.653280730E0,6.704443693E-2,7.586770058E-1,-5.307719111E-1
2.655781407E0,5.852243677E-2,7.245890498E-1,-5.105319023E-1
2.658282084E0,4.360843450E-2,7.000880241E-1,-4.881619215E-1
2.660782709E0,3.082543798E-2,6.787829995E-1,-4.679219127E-1
2.663283386E0,1.378143765E-2,6.628040075E-1,-4.476819038E-1
2.665784063E0,-4.327562638E-3,6.532170177E-1,-4.274419248E-1
2.668284740E0,-1.924056187E-2,6.414990425E-1,-4.082669318E-1
2.670785417E0,-3.095856309E-2,6.372380257E-1,-3.858969212E-1
2.673286042E0,-4.161156341E-2,6.372380257E-1,-3.645909131E-1
2.675786719E0,-4.693756253E-2,6.308460236E-1,-3.432859182E-1
2.678287396E0,-5.652456358E-2,6.255200505E-1,-3.251769245E-1
2.680788073E0,-6.185156479E-2,6.223240495E-1,-2.996109128E-1
2.683308855E0,-6.291656196E-2,6.159330010E-1,-2.761749327E-1
2.685809532E0,-6.291656196E-2,6.084760427E-1,-2.538039088E-1
2.688310209E0,-6.185156479E-2,6.010190248E-1,-2.314338982E-1
2.690810834E0,-5.332956463E-2,5.871710181E-1,-2.090629041E-1
2.693311511E0,-4.374156520E-2,5.733219981E-1,-1.866929084E-1
2.695812188E0,-3.521956503E-2,5.562780499E-1,-1.611268967E-1
2.698312865E0,-2.030556276E-2,5.402989984E-1,-1.344949007E-1
2.700813542E0,-1.131562516E-3,5.232550502E-1,-1.142549068E-1
2.703314167E0,1.910743676E-2,4.976890087E-1,-8.655890077E-2
2.705814844E0,3.828243539E-2,4.657309949E-1,-6.099190935E-2
2.708315521E0,6.384843588E-2,4.359039962E-1,-3.436090797E-2
2.710816198E0,8.515343815E-2,3.996849954E-1,-1.092490647E-2
2.713368438E0,1.053934395E-1,3.624010086E-1,1.890109479E-2
2.715869115E0,1.256334335E-1,3.261820078E-1,4.553309083E-2
2.718369792E0,1.480044276E-1,2.931590080E-1,7.429509610E-2
2.720870469E0,1.714394391E-1,2.601360083E-1,1.030570939E-1
2.723371094E0,1.948754340E-1,2.239169925E-1,1.275580972E-1
2.725871771E0,2.119194269E-1,1.887629926E-1,1.552540958E-1
2.728372448E0,2.374854386E-1,1.546749920E-1,1.840160936E-1
2.730873125E0,2.555954456E-1,1.280429959E-1,2.127790898E-1
2.733373802E0,2.737044394E-1,1.024769992E-1,2.426061034E-1
2.735874480E0,2.907484472E-1,8.117200434E-2,2.703030705E-1
2.738375105E0,3.067274392E-1,6.412800401E-2,2.979990840E-1
2.740875782E0,3.227064610E-1,4.495299980E-2,3.246310949E-1
2.743357969E0,3.365554512E-1,2.790900134E-2,3.512620926E-1
2.745858646E0,3.472074568E-1,7.668999955E-3,3.768290877E-1
2.748359323E0,3.567954600E-1,-1.043900009E-2,4.002640843E-1
2.750859948E0,3.653174341E-1,-3.387499973E-2,4.258310795E-1
2.753360625E0,3.706434369E-1,-5.624600127E-2,4.524620771E-1
2.755861302E0,3.770354390E-1,-8.074700087E-2,4.790940881E-1
2.758361980E0,3.812964559E-1,-1.031169966E-1,5.014641285E-1
2.760862657E0,3.876874447E-1,-1.265529990E-1,5.238341093E-1
2.763363282E0,3.951444328E-1,-1.467930079E-1,5.472701192E-1
2.765863959E0,4.068624377E-1,-1.670330018E-1,5.717710853E-1
2.768364636E0,4.164494574E-1,-1.840770096E-1,5.941421390E-1
2.770865313E0,4.281674325E-1,-1.968600005E-1,6.175771356E-1
2.773423386E0,4.462764561E-1,-2.043170035E-1,6.420781016E-1
2.775924063E0,4.633214474E-1,-2.096430063E-1,6.655141115E-1
2.778424740E0,4.835614562E-1,-2.107080072E-1,6.868191361E-1
2.780925417E0,5.133883953E-1,-2.075120062E-1,7.091901302E-1
2.783426042E0,5.453464389E-1,-2.000560015E-1,7.336910963E-1
2.785926719E0,5.804994106E-1,-1.925989985E-1,7.571260929E-1
2.788427396E0,6.209794283E-1,-1.862070113E-1,7.794970870E-1
2.790928073E0,6.646553874E-1,-1.819460094E-1,8.050631285E-1
2.793428750E0,7.083303928E-1,-1.808810085E-1,8.253031373E-1
2.795929427E0,7.552024126E-1,-1.755550057E-1,8.466081023E-1
2.798430052E0,8.105953932E-1,-1.659670025E-1,8.679131269E-1
2.800930730E0,8.606634140E-1,-1.563799977E-1,8.860231042E-1
2.803412188E0,9.139264226E-1,-1.382710040E-1,9.062631130E-1
2.805912865E0,9.671894312E-1,-1.169649959E-1,9.254370928E-1
2.808413542E0,1.020452380E0,-9.885599464E-2,9.435471296E-1
2.810914167E0,1.071584463E0,-7.968099415E-2,9.616560936E-1
2.813414844E0,1.118456364E0,-5.624600127E-2,9.787001014E-1
2.815915521E0,1.162131429E0,-3.387499973E-2,9.914841056E-1
2.818416198E0,1.200481415E0,-1.363500021E-2,1.004267097E0
2.820916875E0,1.230308414E0,2.129998757E-4,1.013854027E0
2.823417500E0,1.250548363E0,7.668999955E-3,1.020246029E0
2.825918177E0,1.266527414E0,1.086500008E-2,1.024507046E0
2.828418855E0,1.273983359E0,6.603999995E-3,1.023441076E0
2.830919532E0,1.270788431E0,-2.982999897E-3,1.014919043E0
2.833473125E0,1.261200428E0,-1.257000025E-2,1.006397009E0
2.835973802E0,1.248417377E0,-2.428799868E-2,9.989401102E-1
2.838474480E0,1.222851396E0,-3.920100257E-2,9.840270877E-1
2.840975157E0,1.199415445E0,-5.091900006E-2,9.701781273E-1
2.843475782E0,1.168523431E0,-6.689799577E-2,9.510040879E-1
2.845976459E0,1.134434462E0,-8.074700087E-2,9.307641387E-1
2.848477136E0,1.097150445E0,-8.500799537E-2,9.073281288E-1
2.850977813E0,1.057736397E0,-8.500799537E-2,8.881531358E-1
2.853478490E0,1.021517396E0,-7.541999966E-2,8.679131269E-1
2.855979167E0,9.884943962E-1,-5.624600127E-2,8.466081023E-1
2.858479792E0,9.522753954E-1,-3.281000257E-2,8.263680935E-1
2.860980469E0,9.192523956E-1,-4.048000090E-3,8.082591295E-1
2.863498438E0,8.883594275E-1,3.643099964E-2,7.848231196E-1
2.865999115E0,8.553364277E-1,8.223700523E-2,7.645831108E-1
2.868499792E0,8.212484121E-1,1.354999989E-1,7.475391030E-1
2.871000469E0,7.839643955E-1,1.962199956E-1,7.358211279E-1
2.873501094E0,7.413533926E-1,2.580049932E-1,7.230381370E-1
2.876001771E0,6.902214289E-1,3.219209909E-1,7.038630843E-1
2.878502448E0,6.316323876E-1,3.879669905E-1,6.836231351E-1
2.881003125E0,5.687814355E-1,4.540129900E-1,6.612530947E-1
2.883503802E0,5.059314370E-1,5.189940333E-1,6.314260960E-1
2.886004480E0,4.377544522E-1,5.754530430E-1,5.984030962E-1
2.888505105E0,3.653174341E-1,6.201940179E-1,5.621840954E-1
2.891005782E0,2.992714345E-1,6.542820334E-1,5.291610956E-1
2.893526459E0,2.321594357E-1,6.713260412E-1,4.929420948E-1
2.896027136E0,1.767664254E-1,6.862400174E-1,4.545930922E-1
2.898527813E0,1.256334335E-1,7.022190094E-1,4.215690792E-1
2.901028490E0,8.408843726E-2,7.107410431E-1,3.970680833E-1
2.903529115E0,5.639143661E-2,7.171320319E-1,3.736330867E-1
2.906029792E0,3.508643433E-2,7.213930488E-1,3.587190807E-1
2.908530469E0,1.804243773E-2,7.309810519E-1,3.438050747E-1
2.911031146E0,9.520437568E-3,7.405680418E-1,3.278270960E-1
2.913531823E0,-6.656248297E-5,7.490900159E-1,3.161090910E-1
2.916032500E0,-5.392562598E-3,7.586770058E-1,3.075870872E-1
2.918533125E0,-1.071856264E-2,7.682650089E-1,3.033260703E-1
2.921033802E0,-1.391456276E-2,7.799830437E-1,3.022600710E-1
2.923536302E0,-2.030556276E-2,7.948960066E-1,3.043910861E-1
2.926036980E0,-2.669756301E-2,8.140709996E-1,3.075870872E-1
2.928537657E0,-2.989356220E-2,8.396370411E-1,3.129130900E-1
2.931038334E0,-2.456656285E-2,8.705300093E-1,3.214350939E-1
2.933538959E0,-1.497956272E-2,9.035530090E-1,3.374140859E-1
2.936039636E0,-2.196562476E-3,9.312490225E-1,3.501970768E-1
2.938540313E0,1.484643761E-2,9.482940435E-1,3.672410846E-1
2.941040990E0,3.934743628E-2,9.578810334E-1,3.864160776E-1
2.943541667E0,6.917443871E-2,9.525550008E-1,3.991990685E-1
2.946042344E0,1.021974385E-1,9.355110526E-1,4.119820893E-1
2.948542969E0,1.352214366E-1,9.078140259E-1,4.183740914E-1
2.951043646E0,1.778314263E-1,8.673340082E-1,4.151780903E-1
2.953579271E0,2.172464281E-1,8.193970323E-1,4.002640843E-1
2.956079948E0,2.587914467E-1,7.618730068E-1,3.800240755E-1
2.958580625E0,3.003364503E-1,6.990230083E-1,3.555230796E-1
2.961081302E0,3.376204371E-1,6.340420246E-1,3.342180848E-1
2.963581927E0,3.749044538E-1,5.584080219E-1,3.065210879E-1
2.966082605E0,4.132534564E-1,4.689269960E-1,2.745640874E-1
2.968583282E0,4.420154393E-1,3.709229827E-1,2.362141013E-1
2.971083959E0,4.718434513E-1,2.548089921E-1,2.031911016E-1
2.973584636E0,4.984744489E-1,1.259129941E-1,1.733641028E-1
2.976085313E0,5.133883953E-1,-1.576599851E-2,1.488630921E-1
2.978585938E0,5.197794437E-1,-1.723590046E-1,1.307530999E-1
2.981086615E0,5.080624223E-1,-3.385390043E-1,1.126440987E-1
2.983604740E0,4.739734530E-1,-4.961979985E-1,9.133909643E-2
2.986105417E0,4.185804427E-1,-6.304209828E-1,6.577309966E-2
2.988606094E0,3.333594501E-1,-7.412079573E-1,2.316209488E-2
2.991106771E0,2.151154280E-1,-8.242979646E-1,-4.607890919E-2
2.993607396E0,6.597943604E-2,-8.669079542E-1,-1.281038970E-1
2.996108073E0,-9.700456262E-2,-8.477339745E-1,-1.877579093E-1
2.998608750E0,-2.653155625E-1,-7.806219459E-1,-2.303688973E-1
3.001109427E0,-4.304315448E-1,-6.751619577E-1,-2.633919120E-1
3.003610105E0,-5.667845607E-1,-5.377429724E-1,-2.580649257E-1
3.006110782E0,-6.722455621E-1,-3.779540062E-1,-2.111939043E-1
3.008611407E0,-7.414866090E-1,-2.309480011E-1,-1.462129056E-1
3.011112084E0,-7.819665670E-1,-1.169649959E-1,-8.655890077E-2
3.013606459E0,-7.883585691E-1,-4.133200273E-2,-3.436090797E-2
3.016107136E0,-7.723795772E-1,9.800000116E-3,1.783609390E-2
3.018607813E0,-7.287035584E-1,4.921399802E-2,6.896809489E-2
3.021108490E0,-6.733105779E-1,8.436800539E-2,1.158400998E-1
3.023609167E0,-6.040685773E-1,1.099340022E-1,1.584500968E-1
3.026109792E0,-5.220435858E-1,1.216519997E-1,1.904080957E-1
3.028610469E0,-4.325615466E-1,1.152600050E-1,2.138440907E-1
3.031111146E0,-3.388185501E-1,9.182500094E-2,2.298230976E-1
3.033611823E0,-2.376185656E-1,5.347499996E-2,2.415411025E-1
3.036112500E0,-1.332235634E-1,8.733999915E-3,2.447360903E-1
3.038613177E0,-2.989356220E-2,-3.813600168E-2,2.436710894E-1
3.041113802E0,7.556644082E-2,-9.566000104E-2,2.383451015E-1
3.043621198E0,1.788964272E-1,-1.627719998E-1,2.287570983E-1
3.046121875E0,2.705094516E-1,-2.352090031E-1,2.181050926E-1
3.048622552E0,3.546644449E-1,-3.183000088E-1,2.138440907E-1
3.051123177E0,4.153844416E-1,-4.035200179E-1,2.138440907E-1
3.053623855E0,4.601254463E-1,-4.866110086E-1,2.255620956E-1
3.056124532E0,4.803654552E-1,-5.611789823E-1,2.489970922E-1
3.058625209E0,4.771694541E-1,-6.282899976E-1,2.798900902E-1
3.061125886E0,4.558644593E-1,-6.922059655E-1,3.235660791E-1
3.063626511E0,4.121884406E-1,-7.412079573E-1,3.757630885E-1
3.066127188E0,3.567954600E-1,-7.784919739E-1,4.290260673E-1
3.068627865E0,2.950104475E-1,-8.051229715E-1,4.833550751E-1
3.071128542E0,2.278984338E-1,-8.253629804E-1,5.419440866E-1
3.073646980E0,1.607874334E-1,-8.306899667E-1,6.015980840E-1
3.076147917E0,9.687144309E-2,-8.211019635E-1,6.527311206E-1
3.078648907E0,4.573943466E-2,-7.934049964E-1,7.038630843E-1
3.081149844E0,-8.588562720E-3,-7.593169808E-1,7.507351041E-1
3.083650834E0,-5.545956269E-2,-7.177719474E-1,7.890841365E-1
3.086151823E0,-1.002005637E-1,-6.709010005E-1,8.210421205E-1
3.088652761E0,-1.460065693E-1,-6.187029481E-1,8.508691192E-1
3.091153750E0,-1.896825731E-1,-5.569179654E-1,8.796311021E-1
3.093654740E0,-2.280315608E-1,-4.898059964E-1,9.041321278E-1
3.096155677E0,-2.749035656E-1,-4.258910120E-1,9.318290949E-1
3.098656667E0,-3.217745423E-1,-3.609099984E-1,9.573951364E-1
3.101157657E0,-3.665155470E-1,-3.001900017E-1,9.808310866E-1
3.103708334E0,-4.165825546E-1,-2.490580082E-1,9.978750944E-1
3.106209271E0,-4.591935575E-1,-2.064470053E-1,1.018115044E0
3.108710261E0,-4.986075461E-1,-1.872730106E-1,1.030898094E0
3.111211250E0,-5.380225778E-1,-1.894030124E-1,1.046877027E0
3.113712188E0,-5.699805617E-1,-2.000560015E-1,1.066052079E0
3.116213177E0,-5.976765752E-1,-2.160350084E-1,1.083096027E0
3.118714167E0,-6.115255952E-1,-2.469270080E-1,1.094814062E0
3.121215105E0,-6.189825535E-1,-2.799499929E-1,1.106532097E0
3.123716094E0,-6.147215962E-1,-3.161689937E-1,1.117184043E0
3.126217084E0,-5.998075604E-1,-3.502570093E-1,1.120380044E0
3.128718021E0,-5.806325674E-1,-3.928680122E-1,1.124641061E0
3.131219011E0,-5.540015697E-1,-4.461309910E-1,1.127837062E0
3.133735105E0,-5.231086016E-1,-5.057849884E-1,1.132098079E0
3.136236042E0,-4.943465590E-1,-5.942019820E-1,1.136359096E0
3.138737032E0,-4.719765484E-1,-6.975319982E-1,1.148077011E0
3.141238021E0,-4.538665414E-1,-8.104499578E-1,1.164056063E0
3.143738959E0,-4.442795515E-1,-9.414770007E-1,1.175774097E0
3.146239948E0,-4.378875494E-1,-1.074633956E0,1.187491059E0
3.148740938E0,-4.314965606E-1,-1.216313958E0,1.196013093E0
3.151241875E0,-4.261705577E-1,-1.376102924E0,1.194948077E0
3.153742865E0,-4.187135398E-1,-1.541217923E0,1.186426044E0
3.156243855E0,-4.037995636E-1,-1.696745992E0,1.165121078E0
3.158744792E0,-3.878205419E-1,-1.829903007E0,1.132098079E0
3.161245782E0,-3.590585589E-1,-1.947081923E0,1.093749046E0
3.163760313E0,-3.260355592E-1,-2.038694143E0,1.047942042E0
3.166261250E0,-2.887515426E-1,-2.106871128E0,1.000006080E0
3.168762240E0,-2.557285428E-1,-2.154808044E0,9.456771016E-1
3.171263230E0,-2.163135707E-1,-2.180374146E0,8.870881200E-1
3.173764167E0,-1.726385653E-1,-2.181439161E0,8.221071362E-1
3.176265157E0,-1.310925633E-1,-2.161199093E0,7.528651357E-1
3.178766146E0,-8.954755962E-2,-2.143090010E0,6.825581193E-1
3.181267084E0,-5.439456552E-2,-2.131372213E0,6.154471040E-1
3.183768073E0,-3.308956325E-2,-2.128176212E0,5.408791304E-1
3.186269063E0,-2.030556276E-2,-2.124980211E0,4.652450681E-1
3.188770000E0,-2.243656293E-2,-2.121785164E0,3.885460794E-1
3.191270990E0,-3.948056325E-2,-2.117524147E0,3.065210879E-1
3.193777396E0,-6.398156285E-2,-2.116458178E0,2.276920974E-1
3.196278386E0,-8.635255694E-2,-2.119654179E0,1.605810970E-1
3.198779323E0,-1.012655571E-1,-2.119654179E0,1.009260938E-1
3.201280313E0,-1.129835621E-1,-2.118589163E0,4.127209261E-2
3.203781250E0,-1.193755642E-1,-2.116458178E0,-7.728906348E-3
3.206282240E0,-1.183095574E-1,-2.112197161E0,-5.460090935E-2
3.208783230E0,-1.087225601E-1,-2.110067129E0,-9.614590555E-2
3.211284167E0,-9.274356067E-2,-2.101545095E0,-1.398219019E-1
3.213785157E0,-7.676456124E-2,-2.094088078E0,-1.760399044E-1
3.216286146E0,-5.972056463E-2,-2.082370043E0,-2.101289034E-1
3.218787136E0,-3.841556609E-2,-2.071717024E0,-2.420869023E-1
3.221288073E0,-1.178356260E-2,-2.055739164E0,-2.697829306E-1
3.223817448E0,9.520437568E-3,-2.048282146E0,-2.996109128E-1
3.226318386E0,2.762943693E-2,-2.040825129E0,-3.273069263E-1
3.228819375E0,4.893443733E-2,-2.035499096E0,-3.464819193E-1
3.231320365E0,6.491343677E-2,-2.030172110E0,-3.603299260E-1
3.233821302E0,8.089243621E-2,-2.025911093E0,-3.752439320E-1
3.236322292E0,9.580644220E-2,-2.013128042E0,-3.795049191E-1
3.238823282E0,1.085894406E-1,-1.999279857E0,-3.773749173E-1
3.241324219E0,1.149814427E-1,-1.980104923E0,-3.731139302E-1
3.243825209E0,1.245684400E-1,-1.948146939E0,-3.550039232E-1
3.246326198E0,1.309594363E-1,-1.917254925E0,-3.379599154E-1
3.248827136E0,1.298944354E-1,-1.889557958E0,-3.241119087E-1
3.251328125E0,1.277644336E-1,-1.851208925E0,-3.006759286E-1
3.253839584E0,1.245684400E-1,-1.816054940E0,-2.751099169E-1
3.256340521E0,1.192424372E-1,-1.787292957E0,-2.484779060E-1
3.258841511E0,1.107204407E-1,-1.761726975E0,-2.229119092E-1
3.261342500E0,9.900243580E-2,-1.732964993E0,-1.952148974E-1
3.263843490E0,8.834943920E-2,-1.704203010E0,-1.632568985E-1
3.266344427E0,8.302343637E-2,-1.669049025E0,-1.334298998E-1
3.268845417E0,8.195844293E-2,-1.629634976E0,-1.089289039E-1
3.271346355E0,8.302343637E-2,-1.593415976E0,-8.655890077E-2
3.273847344E0,8.089243621E-2,-1.561457992E0,-5.992690846E-2
3.276348334E0,7.450143993E-2,-1.528434992E0,-3.329590708E-2
3.278849271E0,7.024043798E-2,-1.483693957E0,9.314093739E-3
3.281350261E0,6.704443693E-2,-1.429365993E0,4.979409277E-2
3.283834896E0,6.278344244E-2,-1.363319993E0,8.388209343E-2
3.286335834E0,6.065243483E-2,-1.301533937E0,1.179700941E-1
3.288836823E0,5.426143482E-2,-1.245075941E0,1.552540958E-1
3.291337761E0,4.467343539E-2,-1.189682007E0,1.882780939E-1
3.293838750E0,3.721743450E-2,-1.138549924E0,2.213010937E-1
3.296339740E0,3.082543798E-2,-1.084221005E0,2.543240786E-1
3.298840677E0,2.976043709E-2,-1.037349939E0,2.798900902E-1
3.301341667E0,2.869543806E-2,-9.915439487E-1,3.043910861E-1
3.303842657E0,3.189043701E-2,-9.499989748E-1,3.214350939E-1
3.306343594E0,3.508643433E-2,-9.180409908E-1,3.374140859E-1
3.308844584E0,4.467343539E-2,-8.871479630E-1,3.480670750E-1
3.311345573E0,6.384843588E-2,-8.573209643E-1,3.501970768E-1
3.313890677E0,7.982744277E-2,-8.328199983E-1,3.501970768E-1
3.316391615E0,1.011324376E-1,-8.061890006E-1,3.459360898E-1
3.318892605E0,1.266984344E-1,-7.774269581E-1,3.395440876E-1
3.321393594E0,1.575914323E-1,-7.444039583E-1,3.288920820E-1
3.323894532E0,1.916794330E-1,-7.103149891E-1,3.150430918E-1
3.326395521E0,2.278984338E-1,-6.730309725E-1,2.958690822E-1
3.328896511E0,2.609214485E-1,-6.389429569E-1,2.745640874E-1
3.331397448E0,2.971404493E-1,-6.037889719E-1,2.532580793E-1
3.333898438E0,3.354894519E-1,-5.728969574E-1,2.298230976E-1
3.336399427E0,3.663824499E-1,-5.483959913E-1,2.042561024E-1
3.338900365E0,3.972744346E-1,-5.260249972E-1,1.797550917E-1
3.341401355E0,4.260374606E-1,-5.025889874E-1,1.541890949E-1
3.343920625E0,4.611904323E-1,-4.834150076E-1,1.307530999E-1
3.346421563E0,4.942134321E-1,-4.674360156E-1,1.062530950E-1
3.348922552E0,5.283014178E-1,-4.557180107E-1,8.494709432E-2
3.351423542E0,5.581294298E-1,-4.482609928E-1,6.683809310E-2
3.353924480E0,5.890214443E-1,-4.376090169E-1,4.979409277E-2
3.356425469E0,6.156533957E-1,-4.322820008E-1,3.168409318E-2
3.358926459E0,6.412194371E-1,-4.322820008E-1,1.783609390E-2
3.361427396E0,6.646553874E-1,-4.333480000E-1,7.183094043E-3
3.363928386E0,6.848953962E-1,-4.312170148E-1,-2.729063272E-4
3.366429375E0,7.030044198E-1,-4.280210137E-1,-5.598905962E-3
3.368930313E0,7.179183960E-1,-4.312170148E-1,-8.794906549E-3
3.371431302E0,7.285704017E-1,-4.354780018E-1,-8.794906549E-3
3.373946615E0,7.370924354E-1,-4.397390187E-1,-7.728906348E-3
3.376447605E0,7.413533926E-1,-4.418700039E-1,-4.533906002E-3
3.378948542E0,7.424194217E-1,-4.471960068E-1,2.922093496E-3
3.381449532E0,7.445493937E-1,-4.514569938E-1,1.570509374E-2
3.383950469E0,7.424194217E-1,-4.535880089E-1,2.848909423E-2
3.386451459E0,7.360274196E-1,-4.567829967E-1,4.233709350E-2
3.388952448E0,7.296364307E-1,-4.599789977E-1,5.831609294E-2
3.391453386E0,7.179183960E-1,-4.653050005E-1,7.642509788E-2
3.393954375E0,7.030044198E-1,-4.663709998E-1,9.879609942E-2
3.396455365E0,6.902214289E-1,-4.685010016E-1,1.211660951E-1
3.398956302E0,6.742424369E-1,-4.716970026E-1,1.414060891E-1
3.401457292E0,6.561334133E-1,-4.738270044E-1,1.669721007E-1
3.403970834E0,6.369584203E-1,-4.759580195E-1,1.957340986E-1
3.406471771E0,6.167184114E-1,-4.770230055E-1,2.202350944E-1
3.408972761E0,5.964784026E-1,-4.780890048E-1,2.489970922E-1
3.411473750E0,5.730423927E-1,-4.812839925E-1,2.766940892E-1
3.413974688E0,5.474764109E-1,-4.887410104E-1,3.043910861E-1
3.416475677E0,5.272364020E-1,-4.940670133E-1,3.331530690E-1
3.418976667E0,5.101923943E-1,-5.004589558E-1,3.587190807E-1
3.421477605E0,4.974094331E-1,-5.068509579E-1,3.832200766E-1
3.423978594E0,4.878224432E-1,-5.079159737E-1,4.077210724E-1
3.426479584E0,4.782344401E-1,-5.132419467E-1,4.279610813E-1
3.428980521E0,4.729084373E-1,-5.164379478E-1,4.439400733E-1
3.431481511E0,4.707774520E-1,-5.185679793E-1,4.641800821E-1
3.433962084E0,4.729084373E-1,-5.164379478E-1,4.812240899E-1
3.436463021E0,4.729084373E-1,-5.185679793E-1,4.950720668E-1
3.438964011E0,4.814304411E-1,-5.228289962E-1,5.078561306E-1
3.441464948E0,4.899524450E-1,-5.238949656E-1,5.163781047E-1
3.443965938E0,5.059314370E-1,-5.238949656E-1,5.259650946E-1
3.446466927E0,5.229754448E-1,-5.238949656E-1,5.280951262E-1
3.448967865E0,5.400193930E-1,-5.228289962E-1,5.270301104E-1
3.451468855E0,5.666514039E-1,-5.302859545E-1,5.227690935E-1
3.453969844E0,5.911524296E-1,-5.356130004E-1,5.131821036E-1
3.456470782E0,6.188493967E-1,-5.420039892E-1,5.014641285E-1
3.458971771E0,6.561334133E-1,-5.388079882E-1,4.918770790E-1
3.461472761E0,6.944824457E-1,-5.281559825E-1,4.822890759E-1
3.464020886E0,7.392234206E-1,-5.196339488E-1,4.695060849E-1
3.466521823E0,7.786384225E-1,-5.153729916E-1,4.567230940E-1
3.469022813E0,8.169873953E-1,-5.153729916E-1,4.396790862E-1
3.471523802E0,8.595974445E-1,-5.217639804E-1,4.226350784E-1
3.474024740E0,8.958164454E-1,-5.217639804E-1,4.087860882E-1
3.476525730E0,9.352313876E-1,-5.206989646E-1,3.896120787E-1
3.479026719E0,9.714503884E-1,-5.217639804E-1,3.715020716E-1
3.481527657E0,1.004473448E0,-5.164379478E-1,3.544580936E-1
3.484028646E0,1.035365462E0,-5.185679793E-1,3.374140859E-1
3.486529636E0,1.060931444E0,-5.175029635E-1,3.193050921E-1
3.489030573E0,1.085432410E0,-5.206989646E-1,3.033260703E-1
3.491531563E0,1.109933376E0,-5.249599814E-1,2.905420959E-1
3.494014636E0,1.125912428E0,-5.302859545E-1,2.745640874E-1
3.496515573E0,1.137630463E0,-5.324169993E-1,2.607150674E-1
3.499016563E0,1.144022465E0,-5.292209983E-1,2.543240786E-1
3.501517500E0,1.148283362E0,-5.260249972E-1,2.447360903E-1
3.504018490E0,1.145087361E0,-5.153729916E-1,2.362141013E-1
3.506519480E0,1.136565447E0,-5.036549568E-1,2.287570983E-1
3.509020417E0,1.125912428E0,-4.887410104E-1,2.266270965E-1
3.511521407E0,1.108868361E0,-4.802190065E-1,2.244960964E-1
3.514022396E0,1.085432410E0,-4.674360156E-1,2.213010937E-1
3.516523334E0,1.055605412E0,-4.567829967E-1,2.170400918E-1
3.519024323E0,1.020452380E0,-4.461309910E-1,2.117130905E-1
3.521525313E0,9.831674099E-1,-4.365430176E-1,2.106480896E-1
3.524075990E0,9.405574203E-1,-4.312170148E-1,2.053221017E-1
3.526576927E0,8.958164454E-1,-4.301519990E-1,1.978650987E-1
3.529077917E0,8.478794098E-1,-4.280210137E-1,1.914730966E-1
3.531578907E0,8.010084033E-1,-4.237599969E-1,1.808210909E-1
3.534079844E0,7.541373968E-1,-4.194990098E-1,1.712331027E-1
3.536580834E0,7.093964219E-1,-4.120419919E-1,1.595160961E-1
3.539081823E0,6.614594460E-1,-4.035200179E-1,1.477980912E-1
3.541582761E0,6.124573946E-1,-3.949980140E-1,1.382101029E-1
3.544083750E0,5.687814355E-1,-3.822149932E-1,1.307530999E-1
3.546584740E0,5.155184269E-1,-3.683670163E-1,1.254270971E-1
3.549085677E0,4.590604603E-1,-3.577139974E-1,1.232970953E-1
3.551586667E0,4.047314525E-1,-3.427999914E-1,1.158400998E-1
3.554101198E0,3.440114558E-1,-3.278869987E-1,1.126440987E-1
3.556602136E0,2.864874601E-1,-3.108429909E-1,1.158400998E-1
3.559103125E0,2.257684320E-1,-2.980599999E-1,1.190360934E-1
3.561604115E0,1.671784371E-1,-2.863419950E-1,1.275580972E-1
3.564105052E0,1.053934395E-1,-2.778199911E-1,1.371451020E-1
3.566606042E0,4.360843450E-2,-2.735590041E-1,1.499280930E-1
3.569107032E0,-1.391456276E-2,-2.639710009E-1,1.659070998E-1
3.571607969E0,-7.143855840E-2,-2.639710009E-1,1.840160936E-1
3.574108959E0,-1.257665753E-1,-2.650370002E-1,2.042561024E-1
3.576609948E0,-1.737035662E-1,-2.703630030E-1,2.255620956E-1
3.579110886E0,-2.227055728E-1,-2.799499929E-1,2.458020896E-1
3.581611875E0,-2.663815618E-1,-2.895370126E-1,2.692370713E-1
3.584126615E0,-3.025995493E-1,-3.044510186E-1,2.937380672E-1
3.586627917E0,-3.366885483E-1,-3.172340095E-1,3.171740770E-1
3.589129115E0,-3.611895442E-1,-3.342780173E-1,3.352830708E-1
3.591630365E0,-3.856905401E-1,-3.481270075E-1,3.555230796E-1
3.594131615E0,-4.037995636E-1,-3.598450124E-1,3.661760688E-1
3.596632865E0,-4.133865535E-1,-3.630400002E-1,3.768290877E-1
3.599134115E0,-4.208435416E-1,-3.673010170E-1,3.778940737E-1
3.601635365E0,-4.219085574E-1,-3.736930192E-1,3.746980727E-1
3.604136615E0,-4.219085574E-1,-3.790189922E-1,3.672410846E-1
3.606637865E0,-4.208435416E-1,-3.822149932E-1,3.533930779E-1
3.609139115E0,-4.165825546E-1,-3.822149932E-1,3.363490701E-1
3.611640365E0,-4.133865535E-1,-3.843460083E-1,3.150430918E-1
3.614151771E0,-4.069955647E-1,-3.822149932E-1,2.905420959E-1
3.616653021E0,-4.027345479E-1,-3.790189922E-1,2.692370713E-1
3.619154271E0,-4.016695619E-1,-3.768889904E-1,2.479320914E-1
3.621655521E0,-4.016695619E-1,-3.747580051E-1,2.287570983E-1
3.624156771E0,-4.112565517E-1,-3.779540062E-1,2.106480896E-1
3.626658021E0,-4.261705577E-1,-3.790189922E-1,1.850820929E-1
3.629159271E0,-4.400185645E-1,-3.779540062E-1,1.627110988E-1
3.631660521E0,-4.581275582E-1,-3.704970181E-1,1.392761022E-1
3.634161771E0,-4.751715660E-1,-3.566490114E-1,1.126440987E-1
3.636663021E0,-4.943465590E-1,-3.310829997E-1,8.175209910E-2
3.639164271E0,-5.145865679E-1,-2.906030118E-1,4.979409277E-2
3.641665521E0,-5.316305757E-1,-2.394700050E-1,1.677109487E-2
3.644183490E0,-5.529356003E-1,-1.798160076E-1,-2.477290481E-2
3.646684740E0,-5.795676112E-1,-1.116390005E-1,-7.057990134E-2
3.649185990E0,-6.179165840E-1,-3.920100257E-2,-1.227769032E-1
3.651687240E0,-6.626575589E-1,3.856199980E-2,-1.792359054E-1
3.654188490E0,-7.116596103E-1,1.323039979E-1,-2.442169040E-1
3.656689740E0,-7.681185603E-1,2.335039973E-1,-3.145239055E-1
3.659190990E0,-8.352295756E-1,3.474870026E-1,-3.880269229E-1
3.661692240E0,-9.076675773E-1,4.699919820E-1,-4.647259116E-1
3.664193490E0,-9.822356105E-1,5.914320350E-1,-5.392938852E-1
3.666694740E0,-1.055738568E0,7.107410431E-1,-6.138619184E-1
3.669195990E0,-1.127111554E0,8.311150074E-1,-6.841688752E-1
3.671697240E0,-1.188896537E0,9.461629987E-1,-7.566068769E-1
3.674206667E0,-1.245354533E0,1.053753972E0,-8.205229044E-1
3.676707917E0,-1.286900640E0,1.154954076E0,-8.801769018E-1
3.679209167E0,-1.317792535E0,1.236979008E0,-9.408968687E-1
3.681710417E0,-1.333771586E0,1.301959991E0,-9.973558784E-1
3.684211719E0,-1.339097619E0,1.355223060E0,-1.054879904E0
3.686712969E0,-1.327379584E0,1.391442060E0,-1.108142972E0
3.689214219E0,-1.306074619E0,1.412747025E0,-1.159274936E0
3.691715417E0,-1.275182605E0,1.427661061E0,-1.211472988E0
3.694216667E0,-1.233637571E0,1.432986975E0,-1.263670921E0
3.696717917E0,-1.188896537E0,1.432986975E0,-1.317999005E0
3.699219167E0,-1.140959620E0,1.435117006E0,-1.367000937E0
3.701720417E0,-1.090892553E0,1.430855989E0,-1.418133974E0
3.704232448E0,-1.045086622E0,1.428726077E0,-1.463939905E0
3.706733698E0,-1.001410604E0,1.432986975E0,-1.499092937E0
3.709234948E0,-9.598655701E-1,1.442574024E0,-1.526789904E0
3.711736198E0,-9.279075861E-1,1.457488060E0,-1.551290989E0
3.714237448E0,-9.034065604E-1,1.486250043E0,-1.572595954E0
3.716738750E0,-8.852975965E-1,1.530991077E0,-1.593900919E0
3.719239948E0,-8.746445775E-1,1.582123041E0,-1.608814955E0
3.721741198E0,-8.629266024E-1,1.633256078E0,-1.622662902E0
3.724242448E0,-8.501436114E-1,1.687584043E0,-1.631185889E0
3.726743698E0,-8.373605609E-1,1.745108008E0,-1.639707923E0
3.729244948E0,-8.299036026E-1,1.804763079E0,-1.647163987E0
3.731746198E0,-8.181855679E-1,1.867613077E0,-1.643968940E0
3.734221042E0,-7.958155870E-1,1.929398060E0,-1.635446906E0
3.736722292E0,-7.713145614E-1,1.981595993E0,-1.631185889E0
3.739223542E0,-7.393565774E-1,2.032727957E0,-1.622662902E0
3.741724792E0,-6.999415755E-1,2.087056875E0,-1.613075972E0
3.744226042E0,-6.594615579E-1,2.143514872E0,-1.598162889E0
3.746727292E0,-6.275045872E-1,2.210626841E0,-1.566204906E0
3.749228542E0,-6.189825535E-1,2.308630943E0,-1.518267989E0
3.751729792E0,-6.221776009E-1,2.421547890E0,-1.451156974E0
3.754231042E0,-6.306995749E-1,2.535530806E0,-1.370196939E0
3.756732292E0,-6.413525939E-1,2.626077890E0,-1.290301919E0
3.759233542E0,-6.456136107E-1,2.697450876E0,-1.209342957E0
3.761734792E0,-6.392225623E-1,2.748582840E0,-1.133708954E0
3.764286042E0,-6.275045872E-1,2.779475927E0,-1.071923971E0
3.766787344E0,-6.072645783E-1,2.786931992E0,-1.029313922E0
3.769288542E0,-5.870245695E-1,2.762430906E0,-9.973558784E-1
3.771789792E0,-5.689145923E-1,2.704906940E0,-9.749848843E-1
3.774291042E0,-5.571965575E-1,2.618620872E0,-9.558109045E-1
3.776792292E0,-5.486745834E-1,2.529138803E0,-9.345058799E-1
3.779293542E0,-5.401526093E-1,2.440722942E0,-9.163959026E-1
3.781794792E0,-5.337615609E-1,2.366154909E0,-9.014818668E-1
3.784296042E0,-5.220435858E-1,2.308630943E0,-8.886988759E-1
3.786797292E0,-5.135216117E-1,2.263889790E0,-8.844379187E-1
3.789298542E0,-5.039336085E-1,2.227670908E0,-8.865689039E-1
3.791799792E0,-4.836945534E-1,2.198908806E0,-8.908298612E-1
3.794309688E0,-4.634545445E-1,2.173342943E0,-8.993518949E-1
3.796810938E0,-4.378875494E-1,2.146710873E0,-9.100049138E-1
3.799312188E0,-4.133865535E-1,2.117949009E0,-9.291788936E-1
3.801813438E0,-3.920815587E-1,2.082795858E0,-9.547448754E-1
3.804314688E0,-3.750375509E-1,2.041249990E0,-9.813768864E-1
3.806815938E0,-3.516015410E-1,1.997575045E0,-1.010138988E0
3.809317188E0,-3.313615620E-1,1.945376992E0,-1.042096972E0
3.811818438E0,-3.217745423E-1,1.869744062E0,-1.070858955E0
3.814319688E0,-3.228395581E-1,1.764283061E0,-1.095359921E0
3.816820938E0,-3.345575631E-1,1.633256078E0,-1.117729902E0
3.819322188E0,-3.665155470E-1,1.477728009E0,-1.135839939E0
3.821823438E0,-4.112565517E-1,1.314743042E0,-1.147557974E0
3.824300886E0,-4.655845463E-1,1.154954076E0,-1.151818991E0
3.826802136E0,-5.252395868E-1,1.006883025E0,-1.152884007E0
3.829303386E0,-5.859595537E-1,8.790520430E-1,-1.147557974E0
3.831804636E0,-6.498745680E-1,7.735910416E-1,-1.129447937E0
3.834305886E0,-7.116596103E-1,6.979580522E-1,-1.103881955E0
3.836807136E0,-7.862275839E-1,6.244550347E-1,-1.079380989E0
3.839308386E0,-8.746445775E-1,5.285810232E-1,-1.054879904E0
3.841809636E0,-9.673225880E-1,4.252510071E-1,-1.023986936E0
3.844310886E0,-1.073848605E0,3.304429948E-1,-9.813768864E-1
3.846812136E0,-1.176113605E0,2.516140044E-1,-9.355708957E-1
3.849313386E0,-1.277312636E0,1.834369898E-1,-8.972209096E-1
3.851814636E0,-1.377447605E0,1.333699971E-1,-8.588718772E-1
3.854364948E0,-1.461602569E0,1.248480007E-1,-8.237178922E-1
3.856866198E0,-1.516996622E0,1.557399929E-1,-7.938908935E-1
3.859367448E0,-1.555345535E0,2.090030015E-1,-7.800428867E-1
3.861868698E0,-1.584107637E0,2.633309960E-1,-7.693898678E-1
3.864369948E0,-1.607543588E0,2.878319919E-1,-7.619329095E-1
3.866871250E0,-1.617130637E0,3.251169920E-1,-7.491499186E-1
3.869372448E0,-1.610739589E0,4.028809965E-1,-7.278448939E-1
3.871873698E0,-1.586238623E0,4.976890087E-1,-7.097358704E-1
3.874374948E0,-1.543627620E0,5.861050487E-1,-6.980178952E-1
3.876876198E0,-1.502082586E0,6.478900313E-1,-6.894958615E-1
3.879377448E0,-1.459472537E0,6.862400174E-1,-6.841688752E-1
3.881878698E0,-1.415796638E0,7.150020003E-1,-6.820389032E-1
3.884391459E0,-1.366794586E0,7.363070250E-1,-6.809738874E-1
3.886892761E0,-1.315662622E0,7.565470338E-1,-6.862998605E-1
3.889394011E0,-1.261333585E0,7.735910416E-1,-6.905608773E-1
3.891895209E0,-1.199548602E0,8.023530245E-1,-6.916258931E-1
3.894396459E0,-1.134567618E0,8.364410400E-1,-6.969528794E-1
3.896897709E0,-1.072782636E0,8.705300093E-1,-6.969528794E-1
3.899398959E0,-1.012063622E0,8.886390328E-1,-6.937568784E-1
3.901900209E0,-9.630615711E-1,8.939650059E-1,-6.948218942E-1
3.904401459E0,-9.140595794E-1,8.939650059E-1,-6.969528794E-1
3.906902709E0,-8.586655855E-1,9.003570080E-1,-7.022789121E-1
3.909403959E0,-7.926195860E-1,9.248580337E-1,-7.065398693E-1
3.911905209E0,-7.212475538E-1,9.717290401E-1,-7.076048851E-1
3.914413855E0,-6.488096118E-1,1.023926973E0,-7.086699009E-1
3.916915105E0,-5.731756091E-1,1.077190042E0,-7.108008862E-1
3.919416355E0,-5.007385612E-1,1.122995973E0,-7.076048851E-1
3.921917605E0,-4.336265624E-1,1.163475990E0,-7.044088840E-1
3.924418855E0,-3.686455488E-1,1.206086993E0,-7.012138963E-1
3.926920157E0,-3.047305644E-1,1.246566057E0,-6.937568784E-1
3.929421355E0,-2.461415678E-1,1.279590011E0,-6.788429022E-1
3.931922605E0,-1.907475740E-1,1.305155993E0,-6.649948955E-1
3.934423855E0,-1.428105682E-1,1.325396061E0,-6.479508877E-1
3.936925105E0,-1.012655571E-1,1.348831058E0,-6.319718957E-1
3.939426355E0,-6.185156479E-2,1.368005991E0,-6.159929037E-1
3.941927605E0,-2.882856317E-2,1.373332024E0,-5.989488959E-1
3.944441250E0,-5.392562598E-3,1.375463009E0,-5.797739029E-1
3.946942552E0,1.271643769E-2,1.374397993E0,-5.605989099E-1
3.949443750E0,2.336843684E-2,1.373332024E0,-5.435549021E-1
3.951945000E0,3.189043701E-2,1.374397993E0,-5.243799090E-1
3.954446250E0,3.295643628E-2,1.365876079E0,-5.062708855E-1
3.956947500E0,2.656443790E-2,1.354158044E0,-4.902919233E-1
3.959448802E0,1.804243773E-2,1.337113976E0,-4.732479155E-1
3.961950000E0,5.259437487E-3,1.314743042E0,-4.530079067E-1
3.964451250E0,-1.284956280E-2,1.295567989E0,-4.306379259E-1
3.966952500E0,-3.521956503E-2,1.263611078E0,-4.135929048E-1
3.969453750E0,-6.611256301E-2,1.216739058E0,-3.954839110E-1
3.971955000E0,-9.806956351E-2,1.166671991E0,-3.795049191E-1
3.974468125E0,-1.332235634E-1,1.100625992E0,-3.645909131E-1
3.976969375E0,-1.662465632E-1,1.031383991E0,-3.507429063E-1
3.979470625E0,-2.024655640E-1,9.578810334E-1,-3.400899172E-1
3.981971875E0,-2.397495657E-1,8.747910261E-1,-3.305029273E-1
3.984473125E0,-2.685115635E-1,7.938310504E-1,-3.209159076E-1
3.986974427E0,-2.983385623E-1,7.139360309E-1,-3.134589195E-1
3.989475677E0,-3.260355592E-1,6.393679976E-1,-3.038719296E-1
3.991976875E0,-3.430795670E-1,5.648000240E-1,-2.942839265E-1
3.994478125E0,-3.569285572E-1,4.912970066E-1,-2.857619226E-1
3.996979375E0,-3.707765639E-1,4.337729812E-1,-2.729789317E-1
3.999480625E0,-3.782335520E-1,3.858360052E-1,-2.623259127E-1
4.001981875E0,-3.867555559E-1,3.293780088E-1,-2.527389228E-1
4.004496198E0,-3.910165429E-1,2.686579823E-1,-2.420869023E-1
4.006997500E0,-3.931465447E-1,2.100680023E-1,-2.250419110E-1
4.009498698E0,-3.942125440E-1,1.589359939E-1,-2.079979032E-1
4.011999948E0,-3.931465447E-1,1.205869988E-1,-1.898889095E-1
4.014501198E0,-3.899515569E-1,8.969400078E-2,-1.707139015E-1
4.017002500E0,-3.814295530E-1,6.625800580E-2,-1.515389085E-1
4.019503698E0,-3.750375509E-1,4.921399802E-2,-1.312988997E-1
4.022004948E0,-3.686455488E-1,3.856199980E-2,-1.099939048E-1
4.024506198E0,-3.622545600E-1,3.323499858E-2,-8.868890256E-2
4.027007448E0,-3.558625579E-1,3.430099785E-2,-6.312290579E-2
4.029508698E0,-3.505365551E-1,3.856199980E-2,-3.222990781E-2
4.032009948E0,-3.452105522E-1,5.134499818E-2,-5.598905962E-3
4.034488594E0,-3.409495652E-1,6.838900596E-2,2.316209488E-2
4.036989844E0,-3.356225491E-1,8.543299884E-2,5.299009383E-2
4.039491094E0,-3.313615620E-1,1.046079993E-1,8.281709254E-2
4.041992344E0,-3.217745423E-1,1.280429959E-1,1.147750989E-1
4.044493594E0,-3.143175542E-1,1.493489891E-1,1.435370892E-1
4.046994844E0,-3.025995493E-1,1.695889980E-1,1.765600890E-1
4.049496094E0,-2.951435447E-1,1.898289919E-1,2.085170895E-1
4.051997344E0,-2.823595405E-1,2.079380006E-1,2.372791022E-1
4.054498594E0,-2.653155625E-1,2.239169925E-1,2.681720853E-1
4.056999844E0,-2.514675558E-1,2.398959994E-1,2.958690822E-1
4.059501094E0,-2.354885638E-1,2.494829893E-1,3.310220838E-1
4.062002344E0,-2.141835690E-1,2.537440062E-1,3.597840667E-1
4.064545209E0,-2.003345639E-1,2.569400072E-1,3.853510916E-1
4.067046459E0,-1.790295690E-1,2.569400072E-1,4.151780903E-1
4.069547709E0,-1.523985714E-1,2.569400072E-1,4.428750873E-1
4.072048959E0,-1.257665753E-1,2.526789904E-1,4.705710709E-1
4.074550209E0,-9.593956172E-2,2.526789904E-1,4.993330836E-1
4.077051459E0,-6.504656374E-2,2.505480051E-1,5.259650946E-1
4.079552709E0,-3.841556609E-2,2.441570014E-1,5.536621213E-1
4.082053959E0,-4.327562638E-3,2.409610003E-1,5.856201053E-1
4.084555209E0,2.869543806E-2,2.335039973E-1,6.079900861E-1
4.087056459E0,6.384843588E-2,2.313739955E-1,6.324911118E-1
4.089557709E0,9.474144131E-2,2.228519917E-1,6.569921374E-1
4.092058959E0,1.245684400E-1,2.185909897E-1,6.782971025E-1
4.094571927E0,1.501344293E-1,2.111340016E-1,6.964071393E-1
4.097073334E0,1.746354252E-1,1.983509958E-1,7.145161033E-1
4.099574792E0,1.980714351E-1,1.791759878E-1,7.358211279E-1
4.102076250E0,2.204414308E-1,1.546749920E-1,7.528651357E-1
4.104577657E0,2.353554368E-1,1.280429959E-1,7.688441277E-1
4.107079115E0,2.545304596E-1,1.035420001E-1,7.837581038E-1
4.109580521E0,2.726394534E-1,8.223700523E-2,7.965410948E-1
4.112081980E0,2.864874601E-1,5.986699834E-2,8.061280847E-1
4.114583386E0,3.035324514E-1,3.430099785E-2,8.199771047E-1
4.117084844E0,3.216414452E-1,1.619100012E-2,8.295640945E-1
4.119586250E0,3.482734561E-1,3.407999873E-3,8.348901272E-1
4.122087709E0,3.770354390E-1,-8.309000172E-3,8.444781303E-1
4.124563177E0,4.143194556E-1,-1.150500029E-2,8.561961055E-1
4.127064584E0,4.558644593E-1,-1.789600030E-2,8.668481112E-1
4.129566042E0,5.027354360E-1,-1.789600030E-2,8.711091280E-1
4.132067448E0,5.538684130E-1,-2.002699859E-2,8.796311021E-1
4.134568907E0,6.071314216E-1,-2.428799868E-2,8.860231042E-1
4.137070313E0,6.614594460E-1,-3.281000257E-2,8.924140930E-1
4.139571771E0,7.115263939E-1,-4.559300095E-2,8.977411389E-1
4.142073177E0,7.637244463E-1,-5.518000200E-2,9.062631130E-1
4.144574636E0,8.105953932E-1,-7.009399682E-2,9.126541018E-1
4.147076094E0,8.510754108E-1,-8.394199610E-2,9.158501029E-1
4.149577500E0,8.904904127E-1,-9.246399999E-2,9.169151187E-1
4.152078959E0,9.277744293E-1,-9.992099553E-2,9.158501029E-1
4.154623802E0,9.533404112E-1,-1.052479967E-1,9.126541018E-1
4.157125209E0,9.810374379E-1,-1.095089987E-1,9.094591141E-1
4.159626667E0,1.001277447E0,-1.063129976E-1,9.041321278E-1
4.162128125E0,1.011930466E0,-1.084429994E-1,8.988060951E-1
4.164629532E0,1.018321395E0,-1.052479967E-1,8.924140930E-1
4.167130990E0,1.017256379E0,-9.672499448E-2,8.860231042E-1
4.169632396E0,1.008734465E0,-8.820299804E-2,8.817620873E-1
4.172133855E0,9.938204288E-1,-7.541999966E-2,8.764351010E-1
4.174635261E0,9.735804200E-1,-5.624600127E-2,8.711091280E-1
4.177136719E0,9.469494224E-1,-3.067900054E-2,8.721740842E-1
4.179638125E0,9.181874394E-1,-8.519999683E-4,8.743051291E-1
4.182139584E0,8.819684386E-1,3.430099785E-2,8.753700852E-1
4.184615052E0,8.457494378E-1,7.478000224E-2,8.806971312E-1
4.187116459E0,8.031393886E-1,1.131300032E-1,8.892191052E-1
4.189617917E0,7.552024126E-1,1.557399929E-1,8.956100941E-1
4.192119323E0,7.040694356E-1,1.972849965E-1,9.030671120E-1
4.194620782E0,6.476114392E-1,2.388300002E-1,9.137201309E-1
4.197122188E0,5.922174454E-1,2.803759873E-1,9.233071208E-1
4.199623646E0,5.336284041E-1,3.251169920E-1,9.360901117E-1
4.202125052E0,4.793004394E-1,3.677269816E-1,9.456771016E-1
4.204626511E0,4.260374606E-1,4.103370011E-1,9.552651048E-1
4.207127969E0,3.759694397E-1,4.529480040E-1,9.573951364E-1
4.209629375E0,3.290984333E-1,4.944930077E-1,9.573951364E-1
4.212130834E0,2.832924426E-1,5.307120085E-1,9.541991353E-1
4.214675938E0,2.460084260E-1,5.679960251E-1,9.467431307E-1
4.217177344E0,2.161804289E-1,6.063449979E-1,9.392861128E-1
4.219678802E0,1.938104331E-1,6.446950436E-1,9.275681376E-1
4.222180261E0,1.778314263E-1,6.873050332E-1,9.147850871E-1
4.224681667E0,1.629174352E-1,7.299150229E-1,8.998711109E-1
4.227183125E0,1.533304304E-1,7.735910416E-1,8.849580884E-1
4.229684532E0,1.629174352E-1,8.289850354E-1,8.689790964E-1
4.232185990E0,1.863534302E-1,8.992920518E-1,8.508691192E-1
4.234687396E0,2.204414308E-1,9.621420503E-1,8.295640945E-1
4.237188855E0,2.630524337E-1,1.027122974E0,8.050631285E-1
4.239690261E0,3.120544553E-1,1.089972973E0,7.848231196E-1
4.242191719E0,3.621214330E-1,1.144301057E0,7.613871098E-1
4.244703750E0,4.175144434E-1,1.193302989E0,7.379521132E-1
4.247205209E0,4.782344401E-1,1.230588078E0,7.187771201E-1
4.249706615E0,5.357584357E-1,1.250827074E0,7.027981281E-1
4.252208073E0,5.900874138E-1,1.256154060E0,6.868191361E-1
4.254709480E0,6.358934045E-1,1.246566057E0,6.655141115E-1
4.257210938E0,6.699814200E-1,1.232717991E0,6.442090869E-1
4.259712344E0,6.998084188E-1,1.217804074E0,6.239691377E-1
4.262213802E0,7.147223949E-1,1.193302989E0,6.069251299E-1
4.264715209E0,7.200484276E-1,1.169867992E0,5.824241042E-1
4.267216667E0,7.147223949E-1,1.154954076E0,5.600531101E-1
4.269718073E0,7.030044198E-1,1.145367026E0,5.366181135E-1
4.272219532E0,6.848953962E-1,1.129387975E0,5.131821036E-1
4.274727448E0,6.635894179E-1,1.096364975E0,4.886810780E-1
4.277228855E0,6.422843933E-1,1.053753972E0,4.556580782E-1
4.279730313E0,6.220444441E-1,1.002622008E0,4.194390774E-1
4.282231771E0,6.124573946E-1,9.504240155E-1,3.842850924E-1
4.284733177E0,6.028704047E-1,8.769209981E-1,3.491320908E-1
4.287234636E0,5.762383938E-1,7.586770058E-1,3.203700781E-1
4.289736042E0,5.378894210E-1,6.095409989E-1,2.969340682E-1
4.292237500E0,4.952784479E-1,4.529480040E-1,2.692370713E-1
4.294738959E0,4.494724572E-1,2.974199951E-1,2.404751033E-1
4.297240365E0,4.015364349E-1,1.440219879E-1,2.010610998E-1
4.299741771E0,3.706434369E-1,-8.519999683E-4,1.573850960E-1
4.302243230E0,3.578604460E-1,-1.158999950E-1,1.158400998E-1
4.304756719E0,3.557294607E-1,-2.256219983E-1,7.322909683E-2
4.307258125E0,3.599904478E-1,-3.310829997E-1,2.635809407E-2
4.309759584E0,3.823614419E-1,-4.152379930E-1,-2.157790586E-2
4.312261042E0,4.175144434E-1,-4.887410104E-1,-7.377490401E-2
4.314762448E0,4.558644593E-1,-5.515909791E-1,-1.185159013E-1
4.317263907E0,4.920834601E-1,-5.973979831E-1,-1.600619107E-1
4.319765313E0,5.123234391E-1,-6.304209828E-1,-2.069329023E-1
4.322266771E0,5.101923943E-1,-6.591829658E-1,-2.548699081E-1
4.324768177E0,4.782344401E-1,-6.751619577E-1,-2.878929079E-1
4.327269636E0,4.313634336E-1,-6.506609917E-1,-2.633919120E-1
4.329771042E0,3.844914436E-1,-5.888759494E-1,-1.898889095E-1
4.332272500E0,3.322944343E-1,-5.036549568E-1,-9.081990272E-2
4.334750730E0,2.790314555E-1,-3.971289992E-1,2.529309504E-2
4.337252136E0,2.129854262E-1,-2.810150087E-1,1.531240940E-1
4.339753594E0,1.341554374E-1,-1.670330018E-1,2.798900902E-1
4.342255000E0,3.721743450E-2,-7.222399861E-2,3.885460794E-1
4.344756459E0,-7.569956034E-2,-2.982999897E-3,4.844200909E-1
4.347257865E0,-2.024655640E-1,3.536599874E-2,5.739021301E-1
4.349759323E0,-3.388185501E-1,3.004000150E-2,6.367521286E-1
4.352260730E0,-4.858245552E-1,-2.748399973E-2,6.708400846E-1
4.354762188E0,-6.317656040E-1,-1.254869998E-1,6.740360856E-1
4.357263594E0,-7.595965862E-1,-2.426660061E-1,6.463391185E-1
4.359765052E0,-8.501436114E-1,-3.523879945E-1,5.973371267E-1
4.362266511E0,-9.023416042E-1,-4.365430176E-1,5.430091023E-1
4.364770677E0,-9.044715762E-1,-4.972630143E-1,4.940070808E-1
4.367272084E0,-8.618615866E-1,-5.462649465E-1,4.631150961E-1
4.369773542E0,-7.787715793E-1,-5.952669978E-1,4.513970912E-1
4.372274948E0,-6.722455621E-1,-6.432039738E-1,4.492660761E-1
4.374776407E0,-5.433486104E-1,-6.890099645E-1,4.513970912E-1
4.377277813E0,-4.037995636E-1,-7.358809710E-1,4.482010901E-1
4.379779271E0,-2.546635568E-1,-7.880789638E-1,4.386140704E-1
4.382280677E0,-1.065925583E-1,-8.498639464E-1,4.258310795E-1
4.384782136E0,2.549943700E-2,-9.276279807E-1,4.130470753E-1
4.387283542E0,1.330904365E-1,-1.017109990E0,4.045250714E-1
4.389785000E0,2.119194269E-1,-1.117244959E0,4.045250714E-1
4.392286459E0,2.715744376E-1,-1.219509006E0,4.066560864E-1
4.394835365E0,3.056624532E-1,-1.310056925E0,4.173080921E-1
4.397336771E0,3.216414452E-1,-1.391016006E0,4.247650802E-1
4.399838230E0,3.322944343E-1,-1.446409941E0,4.343530834E-1
4.402339688E0,3.322944343E-1,-1.471975923E0,4.418090880E-1
4.404841094E0,3.312284350E-1,-1.469846010E0,4.492660761E-1
4.407342552E0,3.354894519E-1,-1.425104976E0,4.545930922E-1
4.409843959E0,3.408164382E-1,-1.349470973E0,4.588540792E-1
4.412345417E0,3.429464400E-1,-1.263185024E0,4.641800821E-1
4.414846823E0,3.322944343E-1,-1.182224989E0,4.641800821E-1
4.417348282E0,3.109884560E-1,-1.109787941E0,4.556580782E-1
4.419849688E0,2.875534594E-1,-1.038414955E0,4.439400733E-1
4.422351146E0,2.598564327E-1,-9.734339714E-1,4.322220683E-1
4.424862084E0,2.321594357E-1,-9.148449898E-1,4.162430763E-1
4.427363490E0,2.161804289E-1,-8.487989902E-1,4.034600854E-1
4.429864948E0,2.033974379E-1,-7.720999718E-1,3.906770945E-1
4.432366407E0,1.948754340E-1,-7.049889565E-1,3.672410846E-1
4.434867813E0,1.980714351E-1,-6.421389580E-1,3.395440876E-1
4.437369271E0,2.236374319E-1,-5.686360002E-1,3.097170889E-1
4.439870677E0,2.353554368E-1,-5.249599814E-1,2.830860913E-1
4.442372136E0,2.300294340E-1,-5.249599814E-1,2.681720853E-1
4.444873542E0,2.129854262E-1,-5.590479970E-1,2.628460824E-1
4.447375000E0,1.927454323E-1,-6.080499887E-1,2.585850954E-1
4.449876459E0,1.725054383E-1,-6.655739546E-1,2.660420835E-1
4.452377865E0,1.480044276E-1,-7.358809710E-1,2.713680863E-1
4.454850000E0,1.160464361E-1,-8.125799894E-1,2.820200920E-1
4.457351407E0,8.089243621E-2,-8.999309540E-1,2.958690822E-1
4.459852865E0,4.893443733E-2,-9.872829914E-1,3.235660791E-1
4.462354271E0,1.484643761E-2,-1.075698972E0,3.555230796E-1
4.464855730E0,-1.924056187E-2,-1.157724023E0,3.981340826E-1
4.467357136E0,-4.800256342E-2,-1.229097009E0,4.503310919E-1
4.469858594E0,-7.676456124E-2,-1.294077992E0,5.121170878E-1
4.472360000E0,-9.700456262E-2,-1.359058976E0,5.770971179E-1
4.474861459E0,-1.108535603E-1,-1.416582942E0,6.378170848E-1
4.477362865E0,-1.257665753E-1,-1.474107027E0,7.006680965E-1
4.479864323E0,-1.513325721E-1,-1.535892010E0,7.571260929E-1
4.482365782E0,-1.811605692E-1,-1.600872993E0,8.061280847E-1
4.484911719E0,-2.163135707E-1,-1.666918993E0,8.540651202E-1
4.487413125E0,-2.525325418E-1,-1.730834007E0,8.988060951E-1
4.489914584E0,-2.898165584E-1,-1.787292957E0,9.350250959E-1
4.492416042E0,-3.611895442E-1,-1.901275992E0,9.712440968E-1
4.494917448E0,-4.602585435E-1,-2.078109026E0,1.006397009E0
4.497418907E0,-5.337615609E-1,-2.196353197E0,1.043681026E0
4.499920313E0,-5.859595537E-1,-2.242159128E0,1.070313096E0
4.502421771E0,-6.147215962E-1,-2.233637094E0,1.076704025E0
4.504923177E0,-6.179165840E-1,-2.168656111E0,1.072443008E0
4.507424636E0,-5.934155583E-1,-2.072782993E0,1.059660077E0
4.509926042E0,-5.689145923E-1,-1.986496925E0,1.027702093E0
4.512427500E0,-5.412185788E-1,-1.907666922E0,9.850921035E-1
4.514937344E0,-5.060645938E-1,-1.838425994E0,9.424821138E-1
4.517438750E0,-4.709105492E-1,-1.778770924E0,8.956100941E-1
4.519940209E0,-4.346925616E-1,-1.732964993E0,8.423470855E-1
4.522441667E0,-3.984735608E-1,-1.694615006E0,7.826930881E-1
4.524943073E0,-3.526675403E-1,-1.658396959E0,7.230381370E-1
4.527444532E0,-3.089915514E-1,-1.638157010E0,6.591221094E-1
4.529945990E0,-2.610545456E-1,-1.616850972E0,5.930761099E-1
4.532447396E0,-2.077915668E-1,-1.591284990E0,5.227690935E-1
4.534948802E0,-1.502675712E-1,-1.558261991E0,4.460700750E-1
4.537450261E0,-7.676456124E-2,-1.520977974E0,3.651110828E-1
4.539951667E0,-2.196562476E-3,-1.515651941E0,2.585850954E-1
4.542453125E0,6.491343677E-2,-1.548674941E0,1.531240940E-1
4.544964896E0,1.181764379E-1,-1.599807024E0,7.962109894E-2
4.547466355E0,1.650484353E-1,-1.660526991E0,2.635809407E-2
4.549967761E0,2.044624388E-1,-1.721246958E0,-1.731690578E-2
4.552469219E0,2.396164387E-1,-1.773445010E0,-6.312290579E-2
4.554970625E0,2.822264433E-1,-1.808597922E0,-1.099939048E-1
4.557472084E0,3.248374462E-1,-1.827772975E0,-1.600619107E-1
4.559973490E0,3.685124516E-1,-1.838425994E0,-2.090629041E-1
4.562474948E0,4.079274535E-1,-1.839491010E0,-2.548699081E-1
4.564976355E0,4.430814385E-1,-1.829903007E0,-2.953499258E-1
4.567477813E0,4.643864334E-1,-1.812858939E0,-3.326339126E-1
4.569979219E0,4.739734530E-1,-1.795814991E0,-3.667219281E-1
4.572480677E0,4.793004394E-1,-1.765987992E0,-3.976139128E-1
4.574990990E0,4.793004394E-1,-1.734030008E0,-4.242459238E-1
4.577492396E0,4.665164351E-1,-1.707399011E0,-4.455509186E-1
4.579993855E0,4.547994435E-1,-1.682897925E0,-4.551389217E-1
4.582495313E0,4.377544522E-1,-1.664788008E0,-4.604649246E-1
4.584996719E0,4.143194556E-1,-1.646678925E0,-4.593999088E-1
4.587498177E0,3.951444328E-1,-1.616850972E0,-4.519429207E-1
4.589999636E0,3.727744520E-1,-1.587023973E0,-4.423549175E-1
4.592501042E0,3.535994589E-1,-1.552935958E0,-4.306379259E-1
4.595002448E0,3.365554512E-1,-1.509259939E0,-4.146589041E-1
4.597503907E0,3.205764592E-1,-1.464519024E0,-3.944189250E-1
4.600005313E0,3.045974374E-1,-1.431496024E0,-3.699179292E-1
4.602506771E0,2.822264433E-1,-1.398473024E0,-3.464819193E-1
4.605017761E0,2.577254474E-1,-1.365450025E0,-3.219809234E-1
4.607519323E0,2.278984338E-1,-1.337752938E0,-2.953499258E-1
4.610020938E0,2.002014369E-1,-1.311121941E0,-2.644569278E-1
4.612522552E0,1.661134362E-1,-1.281294942E0,-2.314338982E-1
4.615024115E0,1.352214366E-1,-1.253597975E0,-1.984108984E-1
4.617525677E0,1.053934395E-1,-1.220574975E0,-1.643228978E-1
4.620027292E0,7.769644260E-2,-1.187551975E0,-1.312988997E-1
4.622528855E0,4.893443733E-2,-1.154528975E0,-9.614590555E-2
4.625030469E0,2.336843684E-2,-1.120440006E0,-6.205790862E-2
4.627532032E0,2.063437598E-3,-1.092743993E0,-2.903490514E-2
4.630033594E0,-2.137156203E-2,-1.063982010E0,2.922093496E-3
4.632535209E0,-3.841556609E-2,-1.038414955E0,3.275009245E-2
4.635044896E0,-5.226356536E-2,-1.014979959E0,6.257709861E-2
4.637546511E0,-6.291656196E-2,-9.872829914E-1,8.707809448E-2
4.640048073E0,-7.143855840E-2,-9.638469815E-1,1.062530950E-1
4.642549688E0,-6.824255735E-2,-9.404109716E-1,1.254270971E-1
4.645051250E0,-6.611256301E-2,-9.265629649E-1,1.435370892E-1
4.647552813E0,-6.824255735E-2,-9.073879719E-1,1.573850960E-1
4.650054375E0,-6.185156479E-2,-8.882139921E-1,1.691031009E-1
4.652555990E0,-5.013356358E-2,-8.722350001E-1,1.776250899E-1
4.655057605E0,-3.628456593E-2,-8.498639464E-1,1.840160936E-1
4.657559167E0,-2.030556276E-2,-8.274939656E-1,1.872120947E-1
4.660060782E0,-6.656248297E-5,-8.093839884E-1,1.840160936E-1
4.662562344E0,1.697743684E-2,-7.944709659E-1,1.840160936E-1
4.665071719E0,3.615143523E-2,-7.763609886E-1,1.808210909E-1
4.667573334E0,5.852243677E-2,-7.550559640E-1,1.776250899E-1
4.670074896E0,8.195844293E-2,-7.369470000E-1,1.712331027E-1
4.672576511E0,1.064594388E-1,-7.156409621E-1,1.659070998E-1
4.675078073E0,1.309594363E-1,-6.985969543E-1,1.595160961E-1
4.677579636E0,1.575914323E-1,-6.783569455E-1,1.531240940E-1
4.680081250E0,1.874184310E-1,-6.570519805E-1,1.488630921E-1
4.682582813E0,2.161804289E-1,-6.325509548E-1,1.392761022E-1
4.685084427E0,2.406814247E-1,-6.155069470E-1,1.286230981E-1
4.687585990E0,2.673134506E-1,-5.973979831E-1,1.232970953E-1
4.690087605E0,2.960754335E-1,-5.760920048E-1,1.179700941E-1
4.692589167E0,3.237724602E-1,-5.601139665E-1,1.137090996E-1
4.695096407E0,3.514684439E-1,-5.398739576E-1,1.083830968E-1
4.697597969E0,3.812964559E-1,-5.249599814E-1,1.051870957E-1
4.700099584E0,4.111234546E-1,-5.089809895E-1,1.009260938E-1
4.702601198E0,4.409504533E-1,-4.930019975E-1,9.773009270E-2
4.705102761E0,4.697124362E-1,-4.844799936E-1,9.133909643E-2
4.707604323E0,5.006054044E-1,-4.685010016E-1,8.494709432E-2
4.710105886E0,5.293673873E-1,-4.546529949E-1,8.175209910E-2
4.712607500E0,5.591944456E-1,-4.418700039E-1,7.642509788E-2
4.715109115E0,5.868914127E-1,-4.290870130E-1,7.322909683E-2
4.717610677E0,6.156533957E-1,-4.173690081E-1,7.322909683E-2
4.720112292E0,6.422843933E-1,-4.045860171E-1,6.790309399E-2
4.722613855E0,6.689164042E-1,-3.939329982E-1,6.364209950E-2
4.725085730E0,6.944824457E-1,-3.875409961E-1,6.151209399E-2
4.727587292E0,7.200484276E-1,-3.800849915E-1,5.831609294E-2
4.730088907E0,7.466804385E-1,-3.736930192E-1,5.938109383E-2
4.732590469E0,7.722464204E-1,-3.651710153E-1,5.618509278E-2
4.735092084E0,7.988784313E-1,-3.577139974E-1,5.299009383E-2
4.737593646E0,8.233784437E-1,-3.555839956E-1,5.299009383E-2
4.740095209E0,8.489454389E-1,-3.545179963E-1,5.192409083E-2
4.742596823E0,8.787724376E-1,-3.534530103E-1,5.192409083E-2
4.745098386E0,9.000774026E-1,-3.566490114E-1,5.085909367E-2
4.747600000E0,9.267094135E-1,-3.587790132E-1,5.725109205E-2
4.750101563E0,9.565364122E-1,-3.545179963E-1,6.364209950E-2
4.752603177E0,9.831674099E-1,-3.577139974E-1,6.896809489E-2
4.755147969E0,1.014060378E0,-3.577139974E-1,7.429509610E-2
4.757649584E0,1.046018362E0,-3.481270075E-1,8.068609983E-2
4.760151146E0,1.077976465E0,-3.396050036E-1,8.920809627E-2
4.762652761E0,1.109933376E0,-3.353440166E-1,9.027409554E-2
4.765154323E0,1.144022465E0,-3.310829997E-1,9.133909643E-2
4.767655886E0,1.174914360E0,-3.236260116E-1,9.560009837E-2
4.770157500E0,1.205807447E0,-3.225609958E-1,9.560009837E-2
4.772659063E0,1.233504415E0,-3.225609958E-1,9.666509926E-2
4.775160677E0,1.263331413E0,-3.257560134E-1,9.666509926E-2
4.777662240E0,1.288897395E0,-3.374740183E-1,9.346909821E-2
4.780163855E0,1.314463377E0,-3.491919935E-1,9.133909643E-2
4.782665417E0,1.335769415E0,-3.683670163E-1,8.601309359E-2
4.785173021E0,1.356008410E0,-3.918020129E-1,8.494709432E-2
4.787674636E0,1.373053432E0,-4.173690081E-1,8.281709254E-2
4.790176198E0,1.389032364E0,-4.471960068E-1,8.388209343E-2
4.792677813E0,1.400749445E0,-4.759580195E-1,8.388209343E-2
4.795179375E0,1.403945446E0,-5.100459456E-1,8.175209910E-2
4.797680938E0,1.401815414E0,-5.441349745E-1,8.920809627E-2
4.800182552E0,1.399684429E0,-5.739619732E-1,9.346909821E-2
4.802684115E0,1.389032364E0,-6.091150045E-1,9.879609942E-2
4.805185730E0,1.374118447E0,-6.346819997E-1,1.073180959E-1
4.807687292E0,1.359204412E0,-6.538559794E-1,1.115790978E-1
4.810188855E0,1.338964462E0,-6.698349714E-1,1.126440987E-1
4.812690469E0,1.317659378E0,-6.804879904E-1,1.201010942E-1
4.815198802E0,1.286767364E0,-6.879449487E-1,1.201010942E-1
4.817700417E0,1.252678394E0,-6.879449487E-1,1.222310960E-1
4.820201980E0,1.212198377E0,-6.783569455E-1,1.232970953E-1
4.822703594E0,1.166392446E0,-6.666399837E-1,1.201010942E-1
4.825205157E0,1.116325378E0,-6.517259479E-1,1.147750989E-1
4.827706719E0,1.066258430E0,-6.325509548E-1,1.137090996E-1
4.830208282E0,1.014060378E0,-6.059199572E-1,1.137090996E-1
4.832709896E0,9.533404112E-1,-5.803529620E-1,1.083830968E-1
4.835211511E0,8.862293959E-1,-5.473299623E-1,1.051870957E-1
4.837713073E0,8.223134279E-1,-5.121769905E-1,9.773009270E-2
4.840214636E0,7.530714273E-1,-4.706320167E-1,9.346909821E-2
4.842716198E0,6.827644110E-1,-4.269559979E-1,9.027409554E-2
4.845225573E0,6.039354205E-1,-3.790189922E-1,8.601309359E-2
4.847727188E0,5.304324031E-1,-3.310829997E-1,8.601309359E-2
4.850228750E0,4.526684582E-1,-2.756890059E-1,8.388209343E-2
4.852730365E0,3.685124516E-1,-2.202960104E-1,8.281709254E-2
4.855231927E0,2.886184454E-1,-1.680980027E-1,8.920809627E-2
4.857733490E0,2.065934390E-1,-1.127039939E-1,9.666509926E-2
4.860235105E0,1.213724390E-1,-6.370199472E-2,1.051870957E-1
4.862736667E0,4.041243717E-2,-2.215699852E-2,1.147750989E-1
4.865238282E0,-3.628456593E-2,1.938700117E-2,1.275580972E-1
4.867739844E0,-1.151145622E-1,5.560600013E-2,1.403411031E-1
4.870241459E0,-1.864865720E-1,8.330300450E-2,1.509930938E-1
4.872743021E0,-2.557285428E-1,1.046079993E-1,1.627110988E-1
4.875251563E0,-3.217745423E-1,1.205869988E-1,1.712331027E-1
4.877753177E0,-3.846245408E-1,1.323039979E-1,1.808210909E-1
4.880254740E0,-4.442795515E-1,1.418920010E-1,1.840160936E-1
4.882756355E0,-4.975425601E-1,1.493489891E-1,1.840160936E-1
4.885257917E0,-5.412185788E-1,1.557399929E-1,1.893430948E-1
4.887759480E0,-5.848935843E-1,1.578709930E-1,1.936040968E-1
4.890261042E0,-6.285696030E-1,1.557399929E-1,1.946690977E-1
4.892762657E0,-6.679846048E-1,1.546749920E-1,1.978650987E-1
4.895264271E0,-7.020725608E-1,1.546749920E-1,1.968000978E-1
4.897765834E0,-7.382915616E-1,1.482829899E-1,1.978650987E-1
4.900267448E0,-7.691835761E-1,1.418920010E-1,1.989300996E-1
4.902769011E0,-7.990115881E-1,1.354999989E-1,1.999951005E-1
4.905279063E0,-8.277735710E-1,1.269779950E-1,2.010610998E-1
4.907780677E0,-8.565355539E-1,1.099340022E-1,1.946690977E-1
4.910282240E0,-8.821015954E-1,8.862899989E-2,1.904080957E-1
4.912783855E0,-9.066025615E-1,6.945399940E-2,1.840160936E-1
4.915285417E0,-9.364295602E-1,4.708399996E-2,1.733641028E-1
4.917786980E0,-9.598655701E-1,2.471300028E-2,1.616460979E-1
4.920288594E0,-9.822356105E-1,1.086500008E-2,1.488630921E-1
4.922790157E0,-9.982146025E-1,8.733999915E-3,1.339491010E-1
4.925291771E0,-1.014193535E0,1.086500008E-2,1.137090996E-1
4.927793334E0,-1.030172586E0,1.406099927E-2,9.560009837E-2
4.930294948E0,-1.040825605E0,2.897400036E-2,7.003409415E-2
4.932796459E0,-1.054673553E0,5.347499996E-2,4.127209261E-2
4.935304115E0,-1.061064601E0,8.649799973E-2,1.357509382E-2
4.937805730E0,-1.065326571E0,1.301739961E-1,-9.859906510E-3
4.940307292E0,-1.066391587E0,1.855669916E-1,-4.288290814E-2
4.942808907E0,-1.071717620E0,2.580049932E-1,-7.803590596E-2
4.945310469E0,-1.074913621E0,3.453559875E-1,-1.185159013E-1
4.947812032E0,-1.083435535E0,4.561440051E-1,-1.685838997E-1
4.950313646E0,-1.103675604E0,5.701259971E-1,-2.293028980E-1
4.952815209E0,-1.134567618E0,6.894350052E-1,-3.081329167E-1
4.955316823E0,-1.175047636E0,8.279190063E-1,-3.954839110E-1
4.957818386E0,-1.225115538E0,9.802510142E-1,-4.892269075E-1
4.960320000E0,-1.289030552E0,1.137910008E0,-5.957528949E-1
4.962821563E0,-1.355076551E0,1.277459025E0,-7.065398693E-1
4.965329844E0,-1.418992639E0,1.397832990E0,-8.183918595E-1
4.967831459E0,-1.474385619E0,1.503293991E0,-9.281138778E-1
4.970333021E0,-1.516996622E0,1.591711044E0,-1.036769986E0
4.972834636E0,-1.537236571E0,1.652431011E0,-1.136904955E0
4.975336198E0,-1.535105586E0,1.683323026E0,-1.219994903E0
4.977837761E0,-1.504213572E0,1.679062009E0,-1.288172007E0
4.980339375E0,-1.443493605E0,1.650300026E0,-1.346760988E0
4.982840938E0,-1.365729570E0,1.610885024E0,-1.396827936E0
4.985342500E0,-1.273051620E0,1.565078974E0,-1.440503955E0
4.987844115E0,-1.172917604E0,1.518208027E0,-1.485244989E0
4.990345677E0,-1.066391587E0,1.471336007E0,-1.526789904E0
4.992847292E0,-9.662565589E-1,1.421269059E0,-1.558748007E0
4.995345469E0,-8.799706101E-1,1.373332024E0,-1.586444974E0
4.997847032E0,-8.043375611E-1,1.322200060E0,-1.603488922E0
5.000348646E0,-7.340306044E-1,1.267871976E0,-1.615206957E0
5.002850261E0,-6.818326116E-1,1.222064972E0,-1.626924992E0
5.005351823E0,-6.413525939E-1,1.195433974E0,-1.634380937E0
5.007853386E0,-6.040685773E-1,1.173063993E0,-1.638641953E0
5.010355000E0,-5.657196045E-1,1.154954076E0,-1.631185889E0
5.012856563E0,-5.209785700E-1,1.129387975E0,-1.615206957E0
5.015358177E0,-4.709105492E-1,1.105952024E0,-1.586444974E0
5.017859740E0,-4.187135398E-1,1.099560976E0,-1.533181906E0
5.020361355E0,-3.803635538E-1,1.135779023E0,-1.459679008E0
5.022862865E0,-3.739725649E-1,1.242305040E0,-1.359543920E0
5.025385105E0,-3.963425457E-1,1.393571973E0,-1.232777953E0
5.027886719E0,-4.602585435E-1,1.584254026E0,-1.075119972E0
5.030388282E0,-5.497406125E-1,1.776000977E0,-9.014818668E-1
5.032889896E0,-6.285696030E-1,1.917680025E0,-7.374318838E-1
5.035391459E0,-6.882236004E-1,2.014618874E0,-5.925568938E-1
5.037893021E0,-7.350955606E-1,2.094512939E0,-4.775089324E-1
5.040394636E0,-7.755755782E-1,2.164820910E0,-3.997449279E-1
5.042896198E0,-8.107286096E-1,2.231931925E0,-3.496779203E-1
5.045397813E0,-8.448175788E-1,2.289455891E0,-3.209159076E-1
5.047899375E0,-8.714485765E-1,2.327804804E0,-3.123939335E-1
5.050400938E0,-8.948845863E-1,2.356566906E0,-3.198509216E-1
5.052902552E0,-9.108635783E-1,2.383198977E0,-3.368949294E-1
