"Time (s)","Acceleration x (m/s^2)","Acceleration y (m/s^2)","Acceleration z (m/s^2)"
0.000000000E0,-3.389301300E0,3.320687056E0,6.321643829E0
2.402968000E-3,-3.238472939E0,2.990301132E0,6.257003307E0
4.805937000E-3,-3.140315056E0,2.731738806E0,6.110963345E0
7.208906000E-3,-3.140315056E0,2.731738806E0,6.110963345E0
9.611875000E-3,-3.128344536E0,2.487540483E0,6.053504467E0
1.201484300E-2,-3.128344536E0,2.487540483E0,6.053504467E0
1.441781200E-2,-3.128344536E0,2.487540483E0,6.053504467E0
1.686328100E-2,-3.128344536E0,2.487540483E0,6.053504467E0
1.935109300E-2,-3.128344536E0,2.487540483E0,6.053504467E0
2.183864500E-2,-2.965545654E0,2.719768286E0,6.096598625E0
2.433932300E-2,-3.061309814E0,2.659915686E0,6.075051785E0
2.685072900E-2,-3.226502419E0,2.413323402E0,6.082233906E0
2.935791600E-2,-3.207349777E0,1.970415115E0,5.869159222E0
3.186208300E-2,-3.386907339E0,1.764522672E0,6.008016586E0
3.436411400E-2,-3.564070463E0,1.510748267E0,6.216303349E0
3.686463500E-2,-3.619134665E0,1.144451261E0,6.094203949E0
3.936390600E-2,-3.434789181E0,6.656314731E-1,6.000834465E0
4.186213500E-2,-3.269596338E0,1.939940006E-1,6.005622864E0
4.435953100E-2,-3.236078978E0,-3.327077329E-1,5.790153503E0
4.685625000E-2,-3.252837658E0,-8.450448513E-1,5.622566700E0
4.935239500E-2,-3.408453941E0,-1.352593780E0,5.644113541E0
5.184802000E-2,-3.540129423E0,-1.668614864E0,5.816488743E0
5.434317700E-2,-3.547311783E0,-1.738043785E0,5.850006104E0
5.683796800E-2,-3.655046225E0,-1.864930868E0,5.993652344E0
5.933244800E-2,-3.841785908E0,-1.879295588E0,6.601753235E0
6.182656200E-2,-4.145836353E0,-1.884083748E0,6.462895870E0
6.429380200E-2,-4.354123116E0,-1.977453709E0,6.283338070E0
6.673432300E-2,-4.500163078E0,-2.140252113E0,5.840429783E0
6.917447900E-2,-4.478616238E0,-3.006916046E0,4.238778114E0
7.161385400E-2,-4.332575798E0,-4.156083584E0,2.409686089E0
7.405322900E-2,-4.181747913E0,-4.268606186E0,2.550937891E0
7.649343700E-2,-4.040496349E0,-4.333246708E0,2.898082256E0
7.893359300E-2,-3.882485867E0,-4.369158268E0,3.410419464E0
8.137302000E-2,-3.688563824E0,-4.326064587E0,4.059220314E0
8.381239500E-2,-3.430001020E0,-4.254241467E0,4.772661686E0
8.625255200E-2,-3.116374016E0,-4.175236225E0,5.462162018E0
8.869270800E-2,-2.668677568E0,-4.156083584E0,6.058292866E0
9.113213500E-2,-2.151552200E0,-4.115383625E0,6.558659554E0
9.357151000E-2,-1.603303671E0,-4.127354145E0,6.970444679E0
9.601171800E-2,-1.011961222E0,-4.084260464E0,7.375047207E0
9.845187500E-2,-3.871014714E-1,-3.734722137E0,7.882596016E0
1.008912500E-1,4.149215817E-1,-3.030857086E0,9.582406044E0
1.033306250E-1,1.382137537E0,-1.343017459E0,1.802160454E1
1.057708330E-1,6.567255855E-1,-1.232888937E0,2.146192360E1
1.082109890E-1,7.117898464E-1,-1.297529578E0,1.832565498E1
1.106504160E-1,6.303905249E-1,-9.791143537E-1,1.763136673E1
1.130897910E-1,6.878488660E-1,-7.373104095E-1,1.832804871E1
1.155300000E-1,1.209762335E0,-3.877719939E-1,1.854590988E1
1.179701560E-1,1.832227945E0,-1.220270321E-1,1.732013130E1
1.204095310E-1,2.184160471E0,-8.611555398E-2,1.550780010E1
1.228489060E-1,2.265559912E0,2.275113910E-1,1.362364483E1
1.252891140E-1,1.674217463E0,2.299054712E-1,1.211296844E1
1.277292700E-1,1.427625418E0,3.400340080E-1,1.258699989E1
1.301686450E-1,1.362984776E0,4.980446100E-1,1.308976078E1
1.326080200E-1,1.348620176E0,6.823901534E-1,1.318552494E1
1.350482290E-1,1.365378737E0,8.284302354E-1,1.293175030E1
1.374883850E-1,1.331861377E0,8.619474769E-1,1.272585773E1
1.399278120E-1,1.264826655E0,8.882825971E-1,1.269473457E1
1.423671870E-1,1.133151293E0,8.044891953E-1,1.253433037E1
1.448073950E-1,9.847171307E-1,7.494249344E-1,1.258939457E1
1.472475520E-1,8.506475687E-1,6.991488338E-1,1.253433037E1
1.496869270E-1,6.160258651E-1,5.890203118E-1,1.239547253E1
1.521263020E-1,4.244979918E-1,4.741035700E-1,1.220394421E1
1.545665100E-1,1.563589424E-1,3.520045280E-1,1.189031696E1
1.570066660E-1,-1.309329122E-1,2.945461869E-1,1.161499596E1
1.594460410E-1,-4.900477529E-1,2.299054712E-1,1.128221607E1
1.618854160E-1,-7.390339971E-1,1.580825299E-1,1.098774242E1
1.643256250E-1,-9.473205805E-1,1.461120397E-1,1.061665726E1
1.667657810E-1,-1.059843302E0,1.365356296E-1,1.026472378E1
1.692052080E-1,-1.213065505E0,5.513626337E-2,9.872092247E0
1.716445830E-1,-1.490780950E0,-1.435739249E-1,9.501007080E0
1.740847910E-1,-1.581756711E0,-3.135549426E-1,9.134710312E0
1.765249480E-1,-1.545845270E0,-4.380480647E-1,8.811506271E0
1.789643230E-1,-1.445293188E0,-5.673294067E-1,8.643918991E0
1.814036980E-1,-1.284888506E0,-6.654874682E-1,8.421268463E0
1.838439060E-1,-1.155607104E0,-7.708277702E-1,8.301563263E0
1.862840620E-1,-1.138848543E0,-8.713799119E-1,8.098065376E0
1.887234890E-1,-1.153213143E0,-1.065301895E0,7.920901775E0
1.911628640E-1,-1.251371145E0,-1.194583297E0,7.734162331E0
1.936030200E-1,-1.294464827E0,-1.340623260E0,7.595304012E0
1.960431770E-1,-1.390228868E0,-1.553698182E0,7.492358208E0
1.984826040E-1,-1.596121430E0,-1.759590626E0,7.439687729E0
2.009219790E-1,-2.165916681E0,-2.145040512E0,7.365470886E0
2.033621870E-1,-2.912875652E0,-2.645406961E0,7.284070969E0
2.058023430E-1,-3.561676502E0,-3.102679968E0,7.037479401E0
2.082417180E-1,-4.021343708E0,-3.631775856E0,7.023114681E0
2.106810930E-1,-4.126683712E0,-4.048348904E0,7.109302044E0
2.131213020E-1,-3.635893583E0,-3.990890503E0,7.090149403E0
2.155614580E-1,-3.176226616E0,-3.866397619E0,7.207460403E0
2.180008850E-1,-2.766835690E0,-3.775421858E0,6.838768959E0
2.204402600E-1,-2.654313087E0,-3.315754890E0,7.039873123E0
2.228804680E-1,-2.955969572E0,-2.865664244E0,7.279283047E0
2.253206250E-1,-3.274384499E0,-2.458667517E0,7.327165127E0
2.277600000E-1,-3.307902098E0,-2.130675793E0,7.159578323E0
2.301993750E-1,-2.941604853E0,-1.970271349E0,7.020720482E0
2.326395830E-1,-2.177887201E0,-1.929571629E0,6.793281078E0
2.350797390E-1,-1.246582866E0,-2.054064751E0,6.568235874E0
2.375191140E-1,-3.823132813E-1,-2.166587353E0,6.628087997E0
2.399584890E-1,-1.381152123E-1,-2.295868874E0,7.123666763E0
2.423986980E-1,-6.217231154E-1,-2.434726477E0,7.873019695E0
2.448388540E-1,-1.347135186E0,-2.520914078E0,8.586461067E0
2.472782810E-1,-1.799619794E0,-2.499366999E0,9.024580956E0
2.497176560E-1,-2.000724077E0,-2.458667517E0,9.366937637E0
2.521578640E-1,-1.974389076E0,-2.403603315E0,9.529736519E0
2.545980200E-1,-2.007906437E0,-2.341356516E0,9.649440765E0
2.570373950E-1,-2.084517479E0,-2.365297556E0,9.663805008E0
2.594767700E-1,-2.122823000E0,-2.473031998E0,9.551282883E0
2.619169790E-1,-2.192251921E0,-2.559219599E0,9.350177765E0
2.643571350E-1,-2.153946161E0,-2.633436441E0,9.125133514E0
2.667965620E-1,-2.153946161E0,-2.666954041E0,8.885723114E0
2.692359370E-1,-2.082123518E0,-2.700471640E0,8.567308426E0
2.716761450E-1,-1.986359596E0,-2.712441921E0,8.220164299E0
2.741163020E-1,-1.821166635E0,-2.724412441E0,7.853866577E0
2.765556770E-1,-1.615274072E0,-2.666954041E0,7.444476128E0
2.789950520E-1,-1.418957949E0,-2.554431200E0,7.068602562E0
2.814352600E-1,-1.301647305E0,-2.362903595E0,6.728640556E0
2.838754160E-1,-1.260947466E0,-2.111523151E0,6.460501671E0
2.863148430E-1,-1.193912745E0,-1.864930868E0,6.189968109E0
2.887542180E-1,-1.181942225E0,-1.704526305E0,5.972105026E0
2.911943750E-1,-1.232218385E0,-1.687767625E0,5.785365582E0
2.936345830E-1,-1.387834787E0,-1.682979465E0,5.668054581E0
2.960739580E-1,-1.521904230E0,-1.723679185E0,5.553138256E0
2.985133330E-1,-1.445293188E0,-1.735649705E0,5.397521496E0
3.009535410E-1,-1.318405867E0,-1.771561146E0,5.318516254E0
3.033936980E-1,-1.225036025E0,-1.869719148E0,5.328092575E0
3.058330730E-1,-1.220247865E0,-1.922389269E0,5.354427814E0
3.082724480E-1,-1.189124465E0,-2.022941589E0,5.375974655E0
3.107126560E-1,-1.114907503E0,-2.121099472E0,5.390339375E0
3.131528120E-1,-9.975967407E-1,-2.171375513E0,5.553138256E0
3.155922390E-1,-8.300097585E-1,-2.219257593E0,5.703966141E0
3.180316140E-1,-7.318516970E-1,-2.298262835E0,5.921829224E0
3.204718230E-1,-7.055166364E-1,-2.336568594E0,6.261791229E0
3.229119790E-1,-7.821277380E-1,-2.410785437E0,6.668787956E0
3.253513540E-1,-9.353500605E-1,-2.607101440E0,6.987203121E0
3.277907290E-1,-1.165183663E0,-2.753141642E0,7.372653008E0
3.302309370E-1,-1.387834787E0,-2.848905563E0,7.738950253E0
3.326710930E-1,-1.641609311E0,-2.959033966E0,8.054970741E0
3.351105200E-1,-1.857078075E0,-2.994945526E0,8.320715904E0
3.375498950E-1,-2.103670359E0,-2.971004486E0,8.576885223E0
3.399900520E-1,-2.199434280E0,-2.932698965E0,8.746866226E0
3.424302600E-1,-2.254498482E0,-2.901575804E0,8.890512466E0
3.448696350E-1,-2.185069799E0,-2.836935043E0,8.981487274E0
3.473090100E-1,-2.086911440E0,-2.789052963E0,9.043734550E0
3.497492180E-1,-1.895383716E0,-2.760323763E0,9.077251434E0
3.521893750E-1,-1.629638791E0,-2.774688482E0,8.991064072E0
3.546287500E-1,-1.342346907E0,-2.858482122E0,9.038946152E0
3.570681250E-1,-1.055055022E0,-3.313360691E0,1.000137329E1
3.595083330E-1,-7.629749775E-1,-4.019619465E0,1.150247288E1
3.619484890E-1,-6.696051359E-1,-4.572656631E0,1.215845585E1
3.643879160E-1,-7.222753167E-1,-4.531957150E0,1.030781841E1
3.668272910E-1,-7.869160175E-1,-4.132142544E0,7.930478096E0
3.692675000E-1,-7.486103773E-1,-3.808938980E0,7.166760445E0
3.717076560E-1,-5.092005134E-1,-4.086654186E0,7.387017727E0
3.741470310E-1,-2.219086885E-1,-4.716302395E0,7.832320213E0
3.765864060E-1,-6.389814615E-2,-5.209486961E0,8.181859016E0
3.790266140E-1,-1.381152123E-1,-5.398620605E0,8.191434860E0
3.814667700E-1,-3.296431005E-1,-5.417773724E0,8.143552780E0
3.839061980E-1,-3.942837715E-1,-5.408196926E0,8.366204262E0
3.863455730E-1,-2.721847594E-1,-5.578177929E0,8.734894753E0
3.887857810E-1,-7.826274633E-2,-5.714641571E0,9.125133514E0
3.912259370E-1,7.974778116E-2,-5.762523651E0,9.364542961E0
3.936653120E-1,1.922704130E-1,-5.877440453E0,9.611135483E0
3.961046870E-1,2.569110692E-1,-5.980386734E0,9.855333328E0
3.985448950E-1,3.454927504E-1,-5.791253090E0,1.012586594E1
4.009850520E-1,6.232081652E-1,-5.405803204E0,1.010671425E1
4.034244790E-1,9.416233301E-1,-5.125693321E0,1.011389637E1
4.058638540E-1,1.339043736E0,-5.010776520E0,1.013304901E1
4.083040620E-1,1.657458901E0,-4.893465996E0,1.011150169E1
4.107442180E-1,2.002209187E0,-4.752213955E0,9.919974327E0
4.131835930E-1,2.275136232E0,-4.663632393E0,9.740417480E0
4.156229680E-1,2.550457716E0,-4.663632393E0,9.596771240E0
4.180631770E-1,2.789867401E0,-4.721090317E0,9.230474472E0
4.205033330E-1,2.969424963E0,-4.692361355E0,8.983880997E0
4.229427600E-1,3.105888605E0,-4.582232952E0,8.718135834E0
4.253821350E-1,3.156164646E0,-4.383522987E0,8.560126305E0
4.278222910E-1,3.168135166E0,-4.165659904E0,8.679831505E0
4.302625000E-1,3.122647285E0,-3.959767342E0,8.868965149E0
4.327018750E-1,3.101100445E0,-3.658111095E0,8.962334633E0
4.351412500E-1,3.120253325E0,-3.442641973E0,9.132315636E0
4.375814580E-1,2.983789444E0,-3.421095133E0,9.659017563E0
4.400216140E-1,2.686921358E0,-3.555164814E0,1.014023113E1
4.424610410E-1,1.918415666E0,-4.457739830E0,1.109308243E1
4.449004160E-1,1.949538827E0,-4.536745071E0,1.066453934E1
4.473405730E-1,2.004603148E0,-4.558291912E0,1.026951218E1
4.497807810E-1,2.095578909E0,-4.409858227E0,1.008037949E1
4.522201560E-1,2.148248911E0,-4.417039871E0,1.053286362E1
4.546595310E-1,2.057273388E0,-4.575050354E0,1.116490555E1
4.570997390E-1,1.769981503E0,-4.891071320E0,1.174667072E1
4.595398950E-1,1.576059461E0,-5.154422760E0,1.226619148E1
4.619793230E-1,1.511418819E0,-5.666759491E0,1.252475357E1
4.644186980E-1,1.679005742E0,-6.337107658E0,1.281443882E1
4.668588540E-1,1.959115267E0,-7.002666950E0,1.310173130E1
4.692990620E-1,2.332594633E0,-7.534157276E0,1.313524914E1
4.717384370E-1,2.842537642E0,-8.027340889E0,1.328607750E1
4.741778120E-1,3.323751450E0,-8.530101776E0,1.351591015E1
4.766180200E-1,3.651742935E0,-8.752752304E0,1.375532055E1
4.790581770E-1,3.881576538E0,-8.726417542E0,1.387023735E1
4.814975520E-1,4.132956982E0,-8.503767014E0,1.398515415E1
4.839369270E-1,4.573471069E0,-8.070434570E0,1.409528255E1
4.863771350E-1,4.966103554E0,-7.550915718E0,1.437539196E1
4.888172910E-1,5.634057045E0,-6.784803867E0,1.454537296E1
4.912567180E-1,6.287645817E0,-6.104879856E0,1.462916660E1
4.936960930E-1,6.986722469E0,-5.204698563E0,1.465071297E1
4.961363020E-1,7.403295994E0,-4.464921951E0,1.463395405E1
4.985764580E-1,7.762410641E0,-3.950191021E0,1.448073196E1
5.010158330E-1,7.961121082E0,-3.337301731E0,1.405937099E1
5.034552080E-1,7.949150562E0,-2.583160639E0,1.344887638E1
5.058954160E-1,8.037732124E0,-1.654250264E0,1.270191669E1
5.083355730E-1,7.724104881E0,-1.766772866E0,1.204114532E1
5.107750000E-1,6.831106186E0,-3.040433645E0,1.172512436E1
5.132143750E-1,6.258916378E0,-3.926249981E0,1.138516235E1
5.156545830E-1,6.203852654E0,-3.957373381E0,1.094704247E1
5.180947390E-1,6.127241135E0,-4.311699867E0,1.066453934E1
5.205341140E-1,6.053023815E0,-4.644479752E0,1.038921738E1
5.229734890E-1,5.935713291E0,-4.926982880E0,1.022641945E1
5.254136980E-1,5.756155968E0,-5.195122719E0,1.016656590E1
5.278538540E-1,5.574204445E0,-5.621272087E0,1.012826157E1
5.302932810E-1,5.351552963E0,-5.901381493E0,1.010432053E1
5.327326560E-1,5.440135002E0,-5.786464691E0,1.010432053E1
5.351728640E-1,5.792067528E0,-5.233428001E0,9.998979568E0
5.376130200E-1,6.376227379E0,-4.385917187E0,9.726052284E0
5.400523950E-1,7.166279793E0,-3.349272251E0,9.414818764E0
5.424917700E-1,7.956332684E0,-2.331780195E0,9.247232437E0
5.449319790E-1,8.483034134E0,-1.886477947E0,8.809112549E0
5.473721350E-1,8.365723610E0,-2.446696997E0,8.409297943E0
5.498115620E-1,8.459093094E0,-2.525702238E0,8.301563263E0
5.522509370E-1,8.451911926E0,-2.575978279E0,8.162705421E0
5.546911450E-1,8.205319405E0,-2.841723204E0,8.332686424E0
5.571313020E-1,7.791140079E0,-3.366030693E0,8.608008385E0
5.595706770E-1,7.293167591E0,-4.084260464E0,8.749259949E0
5.620100520E-1,6.730554104E0,-4.831219673E0,9.074856758E0
5.644502600E-1,5.988383293E0,-5.652395248E0,9.441154480E0
5.668904160E-1,5.590962887E0,-6.406536102E0,9.910398483E0
5.693298430E-1,5.234242439E0,-7.000272751E0,1.032697105E1
5.717692180E-1,4.707540512E0,-7.562886238E0,1.086803722E1
5.742094270E-1,4.094651699E0,-7.902848244E0,1.131333923E1
5.766495830E-1,3.730748177E0,-7.826237202E0,1.154796124E1
5.790889580E-1,3.690048695E0,-7.462334156E0,1.164372540E1
5.815283330E-1,3.994099140E0,-7.194194317E0,1.141868019E1
5.839685410E-1,4.094651699E0,-6.729739666E0,1.103801823E1
5.864086980E-1,4.178444862E0,-6.533423424E0,1.079142570E1
5.888481250E-1,4.307725906E0,-6.538211346E0,1.047301102E1
5.912875000E-1,4.389125347E0,-6.475965023E0,1.031739426E1
5.937277080E-1,4.839216232E0,-5.750553131E0,9.828998566E0
5.961678640E-1,5.341977119E0,-4.601386070E0,9.536918640E0
5.986072390E-1,5.023561478E0,-4.716302395E0,9.012611389E0
6.010466140E-1,4.925403595E0,-4.776154995E0,8.088488579E0
6.034868230E-1,4.906250954E0,-4.812066555E0,6.675970078E0
6.059269790E-1,5.078626156E0,-4.910224438E0,5.622566700E0
6.083664060E-1,5.265365601E0,-5.123299599E0,4.968978405E0
6.108057810E-1,5.454499722E0,-5.432137966E0,4.827726364E0
6.132459890E-1,5.368311882E0,-5.578177929E0,4.988130569E0
6.156861450E-1,5.174389839E0,-5.506354809E0,5.536379337E0
6.181255200E-1,5.066655636E0,-5.269339561E0,6.225879669E0
6.205648950E-1,5.013985634E0,-4.960500717E0,6.853133678E0
6.230051040E-1,4.966103554E0,-4.661238670E0,7.420535088E0
6.254452600E-1,4.903857231E0,-4.486469269E0,7.906537056E0
6.278846870E-1,4.920615673E0,-4.409858227E0,8.265651703E0
6.303240620E-1,4.932586193E0,-4.472104549E0,8.567308426E0
6.327642700E-1,5.090596676E0,-4.666026592E0,8.804324150E0
6.352044270E-1,5.349158764E0,-4.950923920E0,9.096404076E0
6.376438020E-1,5.698697567E0,-4.895860195E0,9.771540642E0
6.400831770E-1,6.785618305E0,-4.539139271E0,1.041794682E1
6.425233850E-1,8.205319405E0,-3.612622976E0,1.055440998E1
6.449635410E-1,9.213234901E0,-2.614283800E0,1.036767006E1
6.474029680E-1,9.605867386E0,-2.097158432E0,1.034612370E1
6.498423430E-1,9.378427505E0,-2.034911871E0,1.046104050E1
6.522825520E-1,8.818208694E0,-2.315021515E0,1.060708046E1
6.547227080E-1,8.576404572E0,-2.688501120E0,1.049695206E1
6.571620830E-1,8.612316132E0,-2.973398685E0,1.030063629E1
6.596014580E-1,8.650621414E0,-3.112256289E0,1.014501953E1
6.620416660E-1,8.720050812E0,-2.997339725E0,9.946309090E0
6.644818230E-1,8.478246689E0,-2.930304766E0,9.709293365E0
6.669212500E-1,7.927603722E0,-3.023674726E0,9.445941925E0
6.693606250E-1,7.235709190E0,-3.090709448E0,9.192168236E0
6.718008330E-1,6.543814659E0,-3.279843330E0,8.835447311E0
6.742409890E-1,6.129635334E0,-3.284631491E0,8.416480064E0
6.766803640E-1,6.108088493E0,-3.301390409E0,8.294381142E0
6.791197390E-1,5.935713291E0,-4.101019382E0,8.830658913E0
6.815599480E-1,5.648421288E0,-4.517592430E0,8.569702148E0
6.840001040E-1,5.641239166E0,-4.812066555E0,7.489963531E0
6.864395310E-1,5.521533966E0,-4.950923920E0,7.518692970E0
6.888789060E-1,5.710668087E0,-4.393098831E0,8.311140060E0
6.913191140E-1,5.904590130E0,-4.024407864E0,8.531396866E0
6.937592700E-1,5.801643848E0,-3.931038380E0,8.347051620E0
6.961986450E-1,5.425770283E0,-3.820909500E0,7.973571777E0
6.986380200E-1,4.654870510E0,-3.509676695E0,7.343923569E0
7.010782290E-1,3.512885571E0,-3.083527327E0,6.546689034E0
7.035184370E-1,1.844198465E0,-2.760323763E0,5.646507740E0
7.059578120E-1,-3.511900008E-1,-3.057192087E0,4.959401608E0
7.083971870E-1,-2.489120245E0,-4.373946667E0,4.516493320E0
7.108373950E-1,-4.421157837E0,-6.373019218E0,4.717597485E0
7.132775520E-1,-5.342885971E0,-8.364908218E0,5.888311863E0
7.157169790E-1,-4.576774597E0,-9.684056282E0,7.571362972E0
7.181563540E-1,-3.051733494E0,-1.015569496E1,9.675776482E0
7.205965100E-1,-1.629638791E0,-9.705603600E0,1.189271164E1
7.230366660E-1,-5.092005134E-1,-8.920339584E0,1.327171230E1
7.254760930E-1,-2.937316298E-1,-7.759202003E0,1.388460159E1
7.279154680E-1,-8.898621798E-1,-6.396960258E0,1.398515415E1
7.303556770E-1,-1.672732472E0,-5.008382320E0,1.353745747E1
7.327958330E-1,-1.955236077E0,-3.732327938E0,1.229252625E1
7.352352600E-1,-1.440504909E0,-2.863270044E0,1.027669525E1
7.376746350E-1,5.489911437E-1,-2.164193153E0,7.432505608E0
7.401147910E-1,1.726887703E0,-2.279109955E0,5.366398335E0
7.425549480E-1,2.830567360E0,-2.317415476E0,3.647435188E0
7.449943750E-1,3.529644012E0,-2.377268076E0,2.500661850E0
7.474337500E-1,4.219144344E0,-2.398815155E0,2.021842241E0
7.498739580E-1,4.463342667E0,-2.051670551E0,2.395321369E0
7.523141140E-1,3.788206816E0,-1.929571629E0,3.891633272E0
7.547535410E-1,3.393180609E0,-2.128281832E0,4.909125805E0
7.571929160E-1,3.163347006E0,-2.516125679E0,5.902676582E0
7.596330730E-1,3.208834648E0,-2.848905563E0,6.831586838E0
7.620732810E-1,3.244746208E0,-3.205626249E0,7.968783855E0
7.645126560E-1,3.227987766E0,-3.425883293E0,9.134710312E0
7.669520310E-1,3.431485891E0,-3.545588255E0,1.006362057E1
7.693922390E-1,3.615831852E0,-3.533617735E0,1.076987934E1
7.718323950E-1,3.682866573E0,-3.569529295E0,1.132770443E1
7.742718230E-1,3.819329977E0,-3.686840057E0,1.162217808E1
7.767111980E-1,3.991705179E0,-3.636564016E0,1.178258324E1
7.791514060E-1,4.025222778E0,-3.488130093E0,1.197411156E1
7.815915620E-1,4.077892780E0,-3.227173090E0,1.212254524E1
7.840309370E-1,4.204780102E0,-2.930304766E0,1.211775684E1
7.864703120E-1,3.929458380E0,-3.334907532E0,1.204593372E1
7.889105200E-1,3.476974010E0,-4.333246708E0,1.188074112E1
7.913506770E-1,3.558373213E0,-4.529562950E0,1.186877060E1
7.937901040E-1,3.900729418E0,-4.654056072E0,1.167006016E1
7.962294790E-1,3.915093899E0,-4.800096035E0,1.190947056E1
7.986696870E-1,3.711595535E0,-4.919801235E0,1.236434937E1
8.011098430E-1,3.591890812E0,-5.037112236E0,1.238589573E1
8.035492180E-1,3.510491133E0,-5.197516441E0,1.204593372E1
8.059885930E-1,3.299810410E0,-5.393832684E0,1.158387280E1
8.084288020E-1,2.856902361E0,-5.786464691E0,1.119124031E1
8.108689580E-1,2.246407270E0,-6.193461418E0,1.082015514E1
8.133083850E-1,1.729281902E0,-6.377807140E0,1.049934578E1
8.157477600E-1,1.324679136E0,-6.466388702E0,1.012107849E1
8.181879680E-1,1.176244974E0,-6.437659740E0,9.817028046E0
8.206281250E-1,1.367772818E0,-6.310772419E0,9.544099808E0
8.230675000E-1,1.631123781E0,-6.128820896E0,9.402849197E0
8.255068750E-1,1.851380825E0,-5.913352013E0,9.316660881E0
8.279470830E-1,1.949538827E0,-5.760129452E0,9.117951393E0
8.303872390E-1,1.894474626E0,-5.568601608E0,8.763624191E0
8.328266660E-1,1.724493623E0,-5.401014805E0,8.349445343E0
8.352660410E-1,2.390053034E0,-4.831219673E0,7.810773373E0
8.377062500E-1,4.468131065E0,-3.500100374E0,7.588122368E0
8.401464060E-1,5.092990398E0,-2.717230082E0,7.425323009E0
8.425857810E-1,5.760943890E0,-2.116311312E0,6.922562599E0
8.450251560E-1,6.261310577E0,-1.611156583E0,6.551476955E0
8.474653640E-1,6.402562618E0,-1.321470499E0,6.400649071E0
8.499055200E-1,6.318768978E0,-1.271194458E0,6.505989075E0
8.523449480E-1,6.249340057E0,-1.237677097E0,6.312067032E0
8.547843230E-1,6.462415218E0,-1.082060695E0,6.292914867E0
8.572245310E-1,6.488749981E0,-1.113183975E0,6.379102230E0
8.596646870E-1,5.648421288E0,-1.615944624E0,7.008749962E0
8.621041140E-1,4.532771587E0,-2.341356516E0,7.439687729E0
8.645434890E-1,3.812147856E0,-3.033251047E0,7.913719177E0
8.669836450E-1,4.271814346E0,-3.342089891E0,8.713348389E0
8.694238540E-1,4.841609955E0,-3.739510298E0,9.654229164E0
8.718632290E-1,4.946950436E0,-4.215936184E0,1.097337723E1
8.743026040E-1,5.251000881E0,-4.290153027E0,1.197650528E1
8.767428120E-1,4.966103554E0,-4.417039871E0,1.231407356E1
8.791829680E-1,4.415460587E0,-4.967682838E0,1.294132710E1
8.816223950E-1,3.718777657E0,-5.348344326E0,1.425568676E1
8.840617700E-1,2.969424963E0,-5.563813686E0,1.539049053E1
8.865019790E-1,2.387659073E0,-5.724217892E0,1.595549679E1
8.889421350E-1,2.622280836E0,-5.527902126E0,1.559638214E1
8.913815100E-1,3.608649254E0,-5.049082756E0,1.468662548E1
8.938208850E-1,5.009196758E0,-4.395493507E0,1.347281742E1
8.962610930E-1,6.290040016E0,-3.634170055E0,1.240983677E1
8.987012500E-1,6.742524624E0,-3.263084650E0,1.195735264E1
9.011406770E-1,6.309192657E0,-3.521647215E0,1.146895599E1
9.035800520E-1,6.428897381E0,-3.315754890E0,1.021684170E1
9.060202600E-1,6.323557377E0,-3.152956009E0,9.601559639E0
9.084604160E-1,6.562966824E0,-2.793841362E0,9.441154480E0
9.108997910E-1,7.285984993E0,-2.058852911E0,9.505795479E0
9.133391660E-1,7.788745403E0,-1.323864698E0,9.223291397E0
9.157793750E-1,8.155043602E0,-7.827982903E-1,8.447603226E0
9.182195310E-1,8.890031815E0,-2.393378615E-1,7.420535088E0
9.206589580E-1,9.301816940E0,-2.865718305E-2,6.587388515E0
9.230983330E-1,9.536438942E0,1.461120397E-1,6.115751266E0
9.255385410E-1,9.869218826E0,6.009908319E-1,5.593837738E0
9.279786980E-1,9.785424232E0,7.374544740E-1,5.572290897E0
9.304180730E-1,9.780636787E0,5.914143920E-1,5.962528706E0
9.328574480E-1,9.974558830E0,5.483206511E-1,5.984075546E0
9.352976560E-1,1.028100300E1,8.643416762E-1,5.644113541E0
9.377378120E-1,1.059462929E1,1.019958138E0,5.426250458E0
9.401772390E-1,1.075742817E1,9.624997973E-1,5.179658890E0
9.426166140E-1,1.093698692E1,9.313763976E-1,4.937854767E0
9.450568230E-1,1.096332169E1,8.116715550E-1,4.868425846E0
9.474969790E-1,1.090346813E1,5.962025523E-1,4.753509045E0
9.499363540E-1,1.082925129E1,3.352458477E-1,4.803785324E0
9.523757290E-1,1.070236492E1,1.939940006E-1,4.801391125E0
9.548159370E-1,1.065927029E1,1.676589102E-1,4.854061127E0
9.572560930E-1,1.059941864E1,1.269592196E-1,4.808573246E0
9.596955200E-1,1.058265972E1,1.006241590E-1,4.686474323E0
9.621348950E-1,1.061617661E1,1.604766399E-1,4.636198044E0
9.645751040E-1,1.064011765E1,2.729992270E-1,4.585922241E0
9.670152600E-1,1.069757652E1,4.477684498E-1,4.552404881E0
9.694546870E-1,1.072869968E1,6.201435924E-1,4.511705399E0
9.718940620E-1,1.069039345E1,8.140656352E-1,4.482975483E0
9.743342700E-1,1.070475864E1,1.015169859E0,4.358482838E0
9.767744270E-1,1.072630501E1,1.340767264E0,4.222019196E0
9.792138020E-1,1.090825653E1,1.697487950E0,4.145408154E0
9.816531770E-1,1.114287853E1,2.042238235E0,3.961062193E0
9.840933850E-1,1.125779533E1,2.473176003E0,3.838963270E0
9.865335410E-1,1.149959946E1,2.865808249E0,3.542094946E0
9.889729680E-1,1.165042782E1,3.287169456E0,3.333808184E0
9.914123430E-1,1.192814255E1,3.634314060E0,2.886111736E0
9.938525520E-1,1.211248875E1,3.935970306E0,2.548543930E0
9.962927080E-1,1.229683495E1,4.218473911E0,2.280404568E0
9.987320830E-1,1.251469707E1,4.500977516E0,2.170276403E0
1.001171458E0,1.273256016E1,4.814604282E0,2.187034845E0
1.003611666E0,1.288099480E1,5.111473083E0,2.158305883E0
1.006051823E0,1.298872852E1,5.475376129E0,2.165488005E0
1.008491250E0,1.307970428E1,5.808155537E0,2.158305883E0
1.010930625E0,1.318025684E1,6.069112301E0,2.270828485E0
1.013370833E0,1.317068005E1,6.349222183E0,2.368986368E0
1.015810989E0,1.337178421E1,6.557508469E0,2.282799006E0
1.018250364E0,1.365668201E1,6.672424793E0,2.151123524E0
1.020689739E0,1.389609241E1,6.679607391E0,2.112818003E0
1.023129948E0,1.414029026E1,6.512020588E0,2.096059322E0
1.025570104E0,1.422408390E1,6.344433308E0,2.316316128E0
1.028009531E0,1.420014286E1,6.207970142E0,2.443203449E0
1.030448906E0,1.398706722E1,5.714785576E0,2.438415527E0
1.032889114E0,1.363992310E1,5.185689926E0,2.716130733E0
1.035329270E0,1.318025684E1,4.658987999E0,3.029757738E0
1.037768698E0,1.256018543E1,4.139468670E0,3.429572105E0
1.040208073E0,1.182040882E1,3.610373020E0,4.004156113E0
1.042648229E0,1.133680058E1,3.155494213E0,4.621833801E0
1.045088437E0,1.104950809E1,2.710191727E0,5.019254208E0
1.047527812E0,1.091065121E1,2.001538515E0,5.536379337E0
1.049967187E0,1.072630501E1,1.216274142E0,6.151662827E0
1.052407395E0,1.050844288E1,5.243796706E-1,6.795675278E0
1.054847552E0,1.024509144E1,-7.175095379E-2,7.456446648E0
1.057286979E0,9.917100906E0,-7.277339697E-1,8.155523300E0
1.059726354E0,9.610655785E0,-1.328652740E0,8.835447311E0
1.062166562E0,9.311393738E0,-1.931965828E0,9.457913399E0
1.064606718E0,9.081559181E0,-2.494579077E0,9.977432251E0
1.067046093E0,8.873272896E0,-3.021280527E0,1.058074474E1
1.069485468E0,8.552463531E0,-3.593470335E0,1.108829403E1
1.071925677E0,8.277142525E0,-4.093836784E0,1.172033596E1
1.074365833E0,7.925209522E0,-4.491257668E0,1.237392521E1
1.076805260E0,7.439207554E0,-4.922194958E0,1.288865662E1
1.079244635E0,6.965176105E0,-5.417773724E0,1.322861862E1
1.081684843E0,6.555785179E0,-5.843923092E0,1.361167431E1
1.084125000E0,6.105694294E0,-6.193461418E0,1.404500580E1
1.086564375E0,5.641239166E0,-6.473570824E0,1.427962780E1
1.089003750E0,5.227059841E0,-6.720162868E0,1.427962780E1
1.091443958E0,4.820063591E0,-6.818321228E0,1.410485935E1
1.093884114E0,4.527983189E0,-6.839868069E0,1.380799007E1
1.096323541E0,4.329273224E0,-6.727345467E0,1.353985119E1
1.098762916E0,4.178444862E0,-6.468782902E0,1.328368282E1
1.101203125E0,4.130562782E0,-6.155156136E0,1.302990818E1
1.103643281E0,4.192809582E0,-5.793646812E0,1.276176929E1
1.106082656E0,4.425036907E0,-5.618877888E0,1.218957996E1
1.108522031E0,4.518406868E0,-5.638030529E0,1.156472015E1
1.110962239E0,4.199991703E0,-5.570995808E0,1.150007915E1
1.113402395E0,3.766659737E0,-5.429744244E0,1.146177387E1
1.115841823E0,3.333328009E0,-5.204698563E0,1.176343060E1
1.118281198E0,3.024489164E0,-4.977259636E0,1.217042732E1
1.120721406E0,2.844931841E0,-4.764184475E0,1.235477257E1
1.123161562E0,2.658192158E0,-4.697149754E0,1.216324425E1
1.125600989E0,2.526516676E0,-4.828824997E0,1.169878960E1
1.128040364E0,2.358929634E0,-5.125693321E0,1.101407719E1
1.130480520E0,2.234436750E0,-5.496778488E0,1.024557114E1
1.132920729E0,2.102761269E0,-5.925322533E0,9.582406044E0
1.135360104E0,2.033332348E0,-6.279649258E0,9.000639915E0
1.137799479E0,2.026149988E0,-6.631581306E0,8.545761108E0
1.140239687E0,2.097973108E0,-6.847050667E0,8.256075859E0
1.142679843E0,2.205707550E0,-6.935632229E0,8.007088661E0
1.145119270E0,2.315835953E0,-6.873385429E0,7.846684456E0
1.147558645E0,2.490605354E0,-6.758469105E0,7.671915054E0
1.149998854E0,2.739591599E0,-6.619611263E0,7.542634010E0
1.152439010E0,3.019701004E0,-6.447236061E0,7.468417168E0
1.154878385E0,3.283051968E0,-6.332319260E0,7.470811367E0
1.157317760E0,3.546402693E0,-6.226979256E0,7.592910290E0
1.159757968E0,3.759477377E0,-6.169520378E0,7.801196575E0
1.162198125E0,3.934246778E0,-6.143185616E0,8.107641220E0
1.164637552E0,4.097045422E0,-6.147973537E0,8.428450584E0
1.167076927E0,4.235902786E0,-6.124032497E0,8.789958954E0
1.169517135E0,4.389125347E0,-6.104879856E0,9.129920959E0
1.171957291E0,4.506436348E0,-6.102485657E0,9.395666122E0
1.174396666E0,4.606988430E0,-6.193461418E0,9.563253403E0
1.176836041E0,4.693175793E0,-6.361048698E0,9.608740807E0
1.179276250E0,4.724299431E0,-6.581305504E0,9.642259598E0
1.181716406E0,4.712328911E0,-6.811139107E0,9.706899643E0
1.184155833E0,4.652476311E0,-7.024213314E0,9.771540642E0
1.186595208E0,4.604594707E0,-7.158283710E0,9.874485970E0
1.189035416E0,4.585441589E0,-7.266017437E0,1.000376701E1
1.191475573E0,4.623746872E0,-7.383328438E0,1.011150169E1
1.193915000E0,4.705146313E0,-7.462334156E0,1.015220261E1
1.196354375E0,4.836822033E0,-7.507821560E0,1.016177845E1
1.198794531E0,4.954133034E0,-7.536550999E0,1.013065529E1
1.201234739E0,5.069049358E0,-7.560492039E0,9.994191170E0
1.203674114E0,5.219878197E0,-7.582038403E0,9.857727051E0
1.206113489E0,5.315641403E0,-7.596403599E0,9.718870163E0
1.208553698E0,5.409011364E0,-7.627526760E0,9.584799767E0
1.210993854E0,5.497592926E0,-7.682590961E0,9.460307121E0
1.213433281E0,5.538292885E0,-7.720896721E0,9.393272400E0
1.215872656E0,5.586174965E0,-7.768778324E0,9.335814476E0
1.218312864E0,5.634057045E0,-7.881300926E0,9.252019882E0
1.220753020E0,5.669968605E0,-8.027340889E0,9.170620918E0
1.223192395E0,5.638844967E0,-8.211686134E0,9.139497757E0
1.225631770E0,5.550263405E0,-8.355332375E0,9.120345116E0
1.228071979E0,5.294095039E0,-8.398426056E0,9.290326118E0
1.230512135E0,5.143266678E0,-8.724023819E0,9.350177765E0
1.232951562E0,5.013985634E0,-9.080744743E0,9.335814476E0
1.235390937E0,4.844004631E0,-9.394371033E0,9.364542961E0
1.237831145E0,4.688387871E0,-9.600263596E0,9.271173477E0
1.240271302E0,4.726693630E0,-9.533228874E0,9.091616631E0
1.242710677E0,4.647687912E0,-9.585898399E0,9.144286156E0
1.245150052E0,4.525588989E0,-9.669692993E0,9.113162994E0
1.247590260E0,4.374761105E0,-9.791791916E0,9.113162994E0
1.250030416E0,4.214356422E0,-9.899525642E0,9.189774513E0
1.252469843E0,4.171262264E0,-9.928256035E0,9.074856758E0
1.254909218E0,4.089863300E0,-9.980925560E0,8.897694588E0
1.257349427E0,4.053951740E0,-1.004317188E1,8.687013626E0
1.259789583E0,4.097045422E0,-1.006232452E1,8.323110580E0
1.262228958E0,4.132956982E0,-1.006471825E1,8.119611740E0
1.264668333E0,4.176050663E0,-1.001204872E1,7.880202293E0
1.267108541E0,4.221538544E0,-9.925860405E0,7.693462372E0
1.269548750E0,4.269420624E0,-9.863615036E0,7.528269768E0
1.271988125E0,4.274209023E0,-9.827702522E0,7.379835129E0
1.274427500E0,4.293361664E0,-9.736727715E0,7.257736206E0
1.276867708E0,4.267026424E0,-9.686451912E0,7.181125164E0
1.279307864E0,4.199991703E0,-9.693634033E0,7.075784683E0
1.281747291E0,4.077892780E0,-9.765456200E0,6.980020523E0
1.284186666E0,3.881576538E0,-9.904314995E0,6.869892120E0
1.286626875E0,3.718777657E0,-1.003838348E1,6.754975796E0
1.289067031E0,3.553585052E0,-1.016287613E1,6.613723755E0
1.291506406E0,3.417121410E0,-1.028976345E1,6.491624832E0
1.293945781E0,3.302204847E0,-1.040468025E1,6.336008072E0
1.296385989E0,3.232775688E0,-1.059860229E1,6.182785988E0
1.298826145E0,3.247140408E0,-1.071830750E1,6.005622864E0
1.301265573E0,3.271081448E0,-1.074464226E1,5.871552944E0
1.303704948E0,3.304598808E0,-1.075182438E1,5.737483501E0
1.306145156E0,3.304598808E0,-1.065606117E1,5.624961376E0
1.308585312E0,3.328539848E0,-1.055072021E1,5.620172501E0
1.311024687E0,3.347692490E0,-1.039989281E1,5.529197216E0
1.313464062E0,3.419515610E0,-1.017245388E1,5.481315136E0
1.315904270E0,3.548796654E0,-9.909102440E0,5.464556217E0
1.318344427E0,3.682866573E0,-9.681662560E0,5.411886215E0
1.320783854E0,3.812147856E0,-9.490134239E0,5.335275173E0
1.323223229E0,3.907911777E0,-9.370429993E0,5.287393093E0
1.325663437E0,3.977340460E0,-9.322548866E0,5.229934692E0
1.328103593E0,4.075498581E0,-9.277060509E0,5.150929451E0
1.330543020E0,4.094651699E0,-9.202843666E0,5.036012650E0
1.332982395E0,4.063528061E0,-9.166931152E0,4.990524769E0
1.335422552E0,4.027616501E0,-9.133414268E0,4.966583729E0
1.337862760E0,3.948611259E0,-9.040044785E0,5.036012650E0
1.340302135E0,3.845664978E0,-8.824575424E0,5.325698853E0
1.342741510E0,3.479367971E0,-9.676874161E0,4.839696884E0
1.345181718E0,3.371633530E0,-9.988107681E0,4.672109604E0
1.347621875E0,3.371633530E0,-9.870796204E0,4.696050644E0
1.350061302E0,3.318963528E0,-9.906708717E0,4.607469082E0
1.352500677E0,3.369239569E0,-9.988107681E0,4.561981201E0
1.354940833E0,3.577526093E0,-1.007908344E1,4.521281719E0
1.357381041E0,3.764265776E0,-1.013175392E1,4.545222759E0
1.359820416E0,3.735536575E0,-1.027779388E1,4.588315964E0
1.362259791E0,3.555979252E0,-1.038073921E1,4.700838566E0
1.364700000E0,3.326145649E0,-1.040707493E1,4.878002167E0
1.367140156E0,3.278263807E0,-1.058902645E1,4.753509045E0
1.369579583E0,3.285445929E0,-1.062733173E1,4.454246521E0
1.372018958E0,3.318963528E0,-1.063451481E1,4.198078156E0
1.374459166E0,3.486550331E0,-1.064648438E1,3.937121153E0
1.376899323E0,3.608649254E0,-1.066084957E1,3.510971546E0
1.379338698E0,3.596678734E0,-1.061057377E1,3.147068501E0
1.381778073E0,3.572737694E0,-1.063930225E1,2.785559654E0
1.384218281E0,3.608649254E0,-1.049565697E1,2.285192966E0
1.386658437E0,4.295755386E0,-1.016766453E1,1.200666428E0
1.389097864E0,4.820063591E0,-9.423100471E0,7.505757213E-1
1.391537239E0,4.963708878E0,-9.193266869E0,1.040261745E0
1.393977448E0,4.994832516E0,-9.267483711E0,1.284459829E0
1.396417604E0,5.047502518E0,-9.102290154E0,1.430499792E0
1.398856979E0,5.023561478E0,-8.910763741E0,1.643574715E0
1.401296354E0,4.903857231E0,-8.757540703E0,1.921290040E0
1.403736562E0,4.829639435E0,-8.585165977E0,2.127182484E0
1.406176718E0,4.757816315E0,-8.477431297E0,2.246887445E0
1.408616145E0,4.741057873E0,-8.489401817E0,2.366592407E0
1.411055520E0,4.803304672E0,-8.506160736E0,2.450385571E0
1.413495729E0,4.944556713E0,-8.496583939E0,2.526996851E0
1.415935885E0,5.102567196E0,-8.530101776E0,2.653884172E0
1.418375312E0,5.258183479E0,-8.580377579E0,2.742465973E0
1.420814687E0,5.425770283E0,-8.515736580E0,2.972299337E0
1.423254895E0,5.567021847E0,-8.340967178E0,3.352960825E0
1.425695052E0,5.605327606E0,-8.175774574E0,3.707287788E0
1.428134427E0,5.557445526E0,-8.111134529E0,4.061614513E0
1.430573802E0,5.533504486E0,-8.070434570E0,4.308206558E0
1.433014010E0,5.480834484E0,-8.080011368E0,4.406364441E0
1.435454166E0,5.411405563E0,-8.099164009E0,4.377635479E0
1.437893593E0,5.389859200E0,-8.027340889E0,4.336935520E0
1.440332968E0,5.356341362E0,-7.955518246E0,4.262718678E0
1.442773177E0,5.368311882E0,-7.859754086E0,4.068796635E0
1.445213333E0,5.432952404E0,-7.605979443E0,4.013732433E0
1.447652708E0,5.602933407E0,-7.294746876E0,3.977820635E0
1.450092083E0,5.813614368E0,-6.990696430E0,3.848539352E0
1.452532291E0,6.117664814E0,-6.729739666E0,3.755169630E0
1.454972448E0,6.397774696E0,-6.334713459E0,3.764745951E0
1.457411875E0,6.687460423E0,-5.999539375E0,3.719258070E0
1.459851250E0,6.864623547E0,-5.702671051E0,3.611523628E0
1.462291458E0,7.063333988E0,-5.491990566E0,3.417601585E0
1.464731614E0,7.137550831E0,-5.367497444E0,3.233256102E0
1.467170989E0,7.192615032E0,-5.307644844E0,2.972299337E0
1.469610364E0,7.113609791E0,-5.391438484E0,2.787953615E0
1.472050573E0,6.929264545E0,-5.642818451E0,2.639519691E0
1.474490729E0,6.546208382E0,-5.977992535E0,2.730495453E0
1.476930156E0,6.074571133E0,-6.286831379E0,2.775983095E0
1.479369531E0,5.883042812E0,-6.485541344E0,2.764012575E0
1.481809739E0,5.799249649E0,-6.617217064E0,2.622761011E0
1.484249895E0,5.981201172E0,-6.643551826E0,2.558120251E0
1.486689323E0,6.208640575E0,-6.648340225E0,2.649096012E0
1.489128698E0,6.261310577E0,-6.557364464E0,2.881323576E0
1.491568854E0,6.254128456E0,-6.435265541E0,3.264379501E0
1.494009062E0,6.230187416E0,-6.294013500E0,3.728834391E0
1.496448437E0,6.179911613E0,-6.203038216E0,4.229201317E0
1.498887812E0,6.105694294E0,-6.162338257E0,4.681686401E0
1.501328020E0,6.072176933E0,-6.131215096E0,5.071924210E0
1.503768177E0,6.029082775E0,-6.176702976E0,5.481315136E0
1.506207604E0,6.026689053E0,-6.255708218E0,5.952952862E0
1.508646979E0,5.985989571E0,-6.363442421E0,6.388678551E0
1.511087187E0,5.890225410E0,-6.576517582E0,6.824404716E0
1.513527343E0,5.758550167E0,-6.861414909E0,7.169154644E0
1.515966718E0,5.535899162E0,-7.222924232E0,7.592910290E0
1.518406093E0,5.346765041E0,-7.531762600E0,7.985542297E0
1.520846302E0,5.183966637E0,-7.842995644E0,8.370991707E0
1.523286458E0,5.104960918E0,-8.269145012E0,8.708559990E0
1.525725885E0,4.700358391E0,-8.666564941E0,9.010215759E0
1.528165260E0,4.477706909E0,-8.731205940E0,9.153862000E0
1.530605468E0,4.970891476E0,-8.455884933E0,8.813899994E0
1.533045625E0,4.609382629E0,-8.585165977E0,9.115556717E0
1.535485000E0,4.446584225E0,-8.623471260E0,9.137104034E0
1.537924375E0,4.367578506E0,-8.623471260E0,9.062887192E0
1.540364583E0,6.103300095E0,-8.024947166E0,8.701377869E0
1.542804739E0,7.678617001E0,-7.215741634E0,8.526608467E0
1.545244166E0,6.613243580E0,-7.517397881E0,8.126793861E0
1.547683541E0,5.981201172E0,-7.416846275E0,7.791620255E0
1.550123750E0,6.828711987E0,-6.277255058E0,7.774861813E0
1.552563906E0,6.955599308E0,-5.803223610E0,7.861049175E0
1.555003281E0,6.038659573E0,-6.490329742E0,7.619245052E0
1.557442708E0,5.330006599E0,-7.115189552E0,7.738950253E0
1.559882916E0,4.633323669E0,-7.328264713E0,8.347051620E0
1.562323073E0,4.566288948E0,-6.971543312E0,8.119611740E0
1.564762448E0,5.339582443E0,-6.870991707E0,7.880202293E0
1.567201823E0,5.629268646E0,-7.258835316E0,7.844290733E0
1.569642031E0,5.176784039E0,-7.570067883E0,7.726979733E0
1.572082187E0,5.013985634E0,-7.529368401E0,7.473205090E0
1.574521614E0,4.822457314E0,-7.397693157E0,7.686280251E0
1.576960989E0,4.733875275E0,-7.141524315E0,7.889778137E0
1.579401198E0,4.810486794E0,-6.844656467E0,7.631215572E0
1.581841354E0,5.440135002E0,-6.296407700E0,7.238583565E0
1.584280729E0,6.792800426E0,-5.027535439E0,6.438954830E0
1.586720104E0,5.301277161E0,-5.365103722E0,7.013538361E0
1.589160312E0,4.123380661E0,-6.351471901E0,7.614457130E0
1.591600468E0,4.283784866E0,-6.473570824E0,7.422929287E0
1.594039895E0,3.960581779E0,-6.188673496E0,7.319982529E0
1.596479270E0,2.722832680E0,-6.590881824E0,7.272100449E0
1.598919479E0,2.258377790E0,-6.923661709E0,7.152396202E0
1.601359635E0,2.447511435E0,-6.861414909E0,6.759763718E0
1.603799010E0,2.435540915E0,-6.732133389E0,6.383890152E0
1.606238385E0,2.323018312E0,-6.768044949E0,6.221091747E0
1.608678593E0,2.390053034E0,-6.811139107E0,6.134904385E0
1.611118750E0,2.483422995E0,-6.787198067E0,5.986469746E0
1.613558177E0,2.385264635E0,-6.674675465E0,5.984075546E0
1.615997552E0,2.358929634E0,-6.526240826E0,6.048716545E0
1.618437760E0,2.524122477E0,-6.478359222E0,6.187574387E0
1.620877916E0,2.823385000E0,-6.543000221E0,6.194756508E0
1.623317291E0,3.038853645E0,-6.487935543E0,6.510777473E0
1.625756718E0,3.374027729E0,-6.389777660E0,6.857921600E0
1.628196927E0,3.910305738E0,-6.418506622E0,7.267312527E0
1.630637083E0,4.281391144E0,-6.327530861E0,7.918507576E0
1.633076458E0,4.317302704E0,-6.186278820E0,8.885723114E0
1.635515833E0,4.324484825E0,-6.181490898E0,9.572830200E0
1.637956041E0,4.358002186E0,-6.152761936E0,1.034612370E1
1.640396198E0,4.322091103E0,-6.124032497E0,1.083452034E1
1.642835625E0,4.372366905E0,-6.250919819E0,1.176343060E1
1.645275000E0,4.671628952E0,-6.566941261E0,1.306581974E1
1.647715208E0,5.097778797E0,-6.794380188E0,1.411922359E1
1.650155364E0,5.406617641E0,-6.830291748E0,1.506489182E1
1.652594739E0,5.420981884E0,-6.882962227E0,1.584057999E1
1.655034114E0,5.418588161E0,-6.866202831E0,1.637446404E1
1.657474323E0,5.418588161E0,-6.844656467E0,1.685807037E1
1.659914479E0,5.454499722E0,-6.825503349E0,1.722436905E1
1.662353906E0,5.610116005E0,-6.756074429E0,1.720042801E1
1.664793281E0,5.906983852E0,-6.624399185E0,1.684610176E1
1.667233489E0,6.294827938E0,-6.394566059E0,1.613984299E1
1.669673645E0,5.878254890E0,-6.416112423E0,1.591719151E1
1.672113020E0,5.210301399E0,-6.432871342E0,1.586930943E1
1.674552395E0,4.800910473E0,-6.322742939E0,1.567299271E1
1.676992604E0,4.489677429E0,-6.234160900E0,1.518938541E1
1.679432760E0,4.425036907E0,-6.033057213E0,1.446397305E1
1.681872187E0,4.492072105E0,-5.724217892E0,1.383672047E1
1.684311562E0,4.331666946E0,-5.618877888E0,1.309454918E1
1.686751770E0,3.831300497E0,-5.611695766E0,1.273782825E1
1.689191927E0,3.438668251E0,-5.491990566E0,1.223506737E1
1.691631302E0,3.223199606E0,-5.290885925E0,1.171554852E1
1.694070677E0,7.087275028E0,-3.394760132E0,7.803590775E0
1.696510885E0,5.042714596E0,-3.792180538E0,9.175409317E0
1.698951041E0,7.309426069E-1,-5.245398521E0,1.190228844E1
1.701390468E0,-1.033508182E0,-5.556631088E0,1.303948498E1
1.703829843E0,2.664874792E-1,-4.886283398E0,1.183764744E1
1.706270052E0,5.461681843E0,-3.452218533E0,5.433433056E0
1.708710208E0,-1.004778981E0,-5.647606850E0,1.266600513E1
1.711149635E0,-1.359105587E0,-5.980386734E0,1.232364941E1
1.713589010E0,-3.583722711E-1,-5.915746212E0,1.079382038E1
1.716029166E0,2.042908669E0,-5.312433243E0,8.687013626E0
1.718469375E0,4.595017910E0,-4.350005627E0,5.816488743E0
1.720908750E0,1.451566339E0,-4.862342358E0,1.046104050E1
1.723348125E0,1.515707374E-1,-5.518325329E0,1.098534775E1
1.725788333E0,7.692481875E-1,-5.693095207E0,9.709293365E0
1.728228489E0,4.795622826E-1,-5.989963055E0,1.069326782E1
1.730667916E0,7.189721465E-1,-6.138397217E0,9.884061813E0
1.733107291E0,6.686960459E-1,-6.136003017E0,9.896033287E0
1.735547500E0,7.620659471E-1,-6.025874615E0,1.059510994E1
1.737987656E0,1.470719099E0,-5.810405731E0,9.438759804E0
1.740427031E0,2.933513403E0,-5.211881161E0,7.190701485E0
1.742866406E0,2.526516676E0,-5.329192162E0,8.011877060E0
1.745306614E0,3.201652527E0,-5.180757523E0,6.680758476E0
1.747746770E0,1.125968814E0,-5.738582611E0,7.846684456E0
1.750186198E0,-1.699067593E0,-6.985908031E0,1.087282562E1
1.752625573E0,-1.730190873E0,-7.203771114E0,1.072917938E1
1.755065781E0,-1.608091831E0,-7.196588993E0,1.230449581E1
1.757505937E0,-9.545028806E-1,-7.318687916E0,1.206748104E1
1.759945312E0,-2.985198200E-1,-7.522186756E0,1.064778042E1
1.762384687E0,-9.980963171E-2,-7.488668919E0,1.076269722E1
1.764824895E0,3.143694699E-1,-7.364175320E0,1.042273521E1
1.767265052E0,8.626180291E-1,-7.062519550E0,1.017614269E1
1.769704479E0,1.334255457E0,-6.523847103E0,1.023360157E1
1.772143854E0,1.750828743E0,-5.958839893E0,1.032457733E1
1.774584062E0,2.148248911E0,-5.374679565E0,1.030303001E1
1.777024218E0,2.538487196E0,-4.982047558E0,1.045625210E1
1.779463645E0,2.830567360E0,-4.670814514E0,1.055919838E1
1.781903020E0,3.038853645E0,-4.541533470E0,1.060229206E1
1.784343177E0,3.314175129E0,-4.529562950E0,1.059750462E1
1.786783385E0,3.575131893E0,-4.548715591E0,1.057116890E1
1.789222760E0,4.010858059E0,-4.462528229E0,1.018093109E1
1.791662135E0,4.453765869E0,-4.359581947E0,9.412425041E0
1.794102343E0,4.537559509E0,-4.302123547E0,8.655890465E0
1.796542500E0,4.848792553E0,-4.156083584E0,8.038212776E0
1.798981927E0,5.753761768E0,-3.624593496E0,7.489963531E0
1.801421302E0,6.302010536E0,-3.389971733E0,8.337474823E0
1.803861458E0,1.264637280E1,-4.979005456E-1,5.399915695E0
1.806301666E0,1.669429421E0,-4.414646149E0,9.773934364E0
1.808741041E0,3.429091930E0,-4.950923920E0,1.131333923E1
1.811180416E0,4.772181511E0,-5.594936848E0,1.195256424E1
1.813620625E0,5.370706081E0,-6.080938816E0,1.140431499E1
1.816060781E0,5.717850685E0,-6.327530861E0,1.001573849E1
1.818500208E0,5.231848717E0,-5.875046730E0,9.754780769E0
1.820939583E0,5.363523483E0,-5.815194130E0,9.838575363E0
1.823379791E0,5.698697567E0,-5.939687252E0,1.037006474E1
1.825819948E0,6.132029533E0,-6.076150417E0,1.073157310E1
1.828259323E0,6.388197899E0,-6.104879856E0,1.092549515E1
1.830698698E0,6.582119942E0,-5.989963055E0,1.126306343E1
1.833138906E0,6.716189384E0,-5.910957813E0,1.171554852E1
1.835579062E0,6.938840389E0,-5.784070492E0,1.202678108E1
1.838018489E0,7.151915550E0,-5.752947330E0,1.224703789E1
1.840457864E0,7.508635998E0,-5.700276852E0,1.249123573E1
1.842898073E0,7.748045921E0,-5.745765209E0,1.250799561E1
1.845338229E0,7.965909004E0,-5.630848408E0,1.244574833E1
1.847777604E0,8.078432083E0,-5.695488930E0,1.222309685E1
1.850216979E0,8.478246689E0,-5.597331047E0,1.162217808E1
1.852657187E0,8.514158249E0,-5.410591125E0,1.110505295E1
1.855097343E0,8.655409813E0,-5.226245403E0,1.096619511E1
1.857536770E0,9.060012817E0,-4.915012360E0,1.143543816E1
1.859976145E0,8.887637138E0,-5.118511200E0,1.101886559E1
1.862416354E0,8.653015137E0,-5.226245403E0,1.073396778E1
1.864856510E0,1.258891487E1,-4.273394108E0,9.690139771E0
1.867295937E0,1.333108425E1,-3.691628218E0,8.926423073E0
1.869735312E0,5.485622406E0,-5.022747040E0,1.007319641E1
1.872175468E0,6.000353813E0,-5.322009563E0,1.020487213E1
1.874615625E0,7.178250313E0,-6.171914577E0,9.558465004E0
1.877055052E0,7.355413914E0,-6.705798626E0,8.684618950E0
1.879494427E0,6.792800426E0,-6.691433907E0,7.573757172E0
1.881934635E0,6.249340057E0,-6.631581306E0,6.491624832E0
1.884374791E0,5.981201172E0,-6.784803867E0,5.840429783E0
1.886814218E0,5.988383293E0,-6.902114391E0,5.478920937E0
1.889253593E0,5.792067528E0,-6.983513832E0,4.693656445E0
1.891693802E0,5.361129284E0,-7.031395912E0,4.224413395E0
1.894133958E0,5.009196758E0,-7.155889034E0,3.621100187E0
1.896573333E0,4.793727875E0,-7.222924232E0,3.458301544E0
1.899012708E0,5.104960918E0,-7.177435875E0,3.039334297E0
1.901452916E0,5.231848717E0,-7.392905235E0,2.665854692E0
1.903893073E0,5.222271919E0,-7.122372150E0,2.282799006E0
1.906332500E0,5.150448799E0,-6.698616505E0,2.105635643E0
1.908771875E0,5.102567196E0,-6.231767178E0,2.376168728E0
1.911212083E0,5.258183479E0,-5.817587852E0,2.553331852E0
1.913652239E0,5.265365601E0,-5.367497444E0,3.125521660E0
1.916091614E0,5.363523483E0,-5.015564919E0,3.520547867E0
1.918530989E0,5.497592926E0,-4.598991394E0,3.592370987E0
1.920971198E0,5.753761768E0,-4.364369869E0,3.118339539E0
1.923411354E0,6.244552135E0,-4.424222469E0,2.407291889E0
1.925850781E0,6.486355782E0,-4.543927670E0,1.969172001E0
1.928290156E0,6.594090462E0,-4.524774551E0,1.696244836E0
1.930730364E0,6.771254063E0,-4.385917187E0,1.267701149E0
1.933170520E0,6.673095703E0,-4.323670387E0,8.176105022E-1
1.935609895E0,6.807165623E0,-4.333246708E0,6.332648993E-1
1.938049270E0,6.838288307E0,-4.227906704E0,7.721226215E-1
1.940489479E0,6.969964027E0,-4.211147785E0,1.049838185E0
1.942929635E0,7.087275028E0,-4.239877224E0,1.054626346E0
1.945369062E0,7.195009708E0,-4.247059345E0,1.373041391E0
1.947808437E0,6.914899349E0,-4.481680870E0,1.454440832E0
1.950248645E0,7.321896553E0,-4.515198231E0,1.210242748E0
1.952688802E0,7.149521351E0,-4.740243435E0,1.073779106E0
1.955128229E0,7.381749153E0,-4.821642876E0,9.540741444E-1
1.957567604E0,7.398507595E0,-4.814460754E0,9.085862637E-1
1.960007760E0,6.883776665E0,-4.977259636E0,8.750688434E-1
1.962447968E0,6.381015301E0,-5.049082756E0,9.684387445E-1
1.964887343E0,6.225399494E0,-4.974864960E0,1.143208027E0
1.967326718E0,5.672362328E0,-5.178363323E0,1.327553511E0
1.969766927E0,4.863156796E0,-5.405803204E0,1.298824430E0
1.972207083E0,3.962975979E0,-5.468049526E0,1.198272347E0
1.974646510E0,2.981395483E0,-5.661971569E0,1.092931867E0
1.977085885E0,2.014179707E0,-5.764917850E0,1.217425108E0
1.979526041E0,1.334255457E0,-5.726612091E0,8.918275237E-1
1.981966250E0,5.585675240E-1,-5.712247372E0,6.787527800E-1
1.984405625E0,-1.069919318E-1,-5.740976810E0,6.691763401E-1
1.986845000E0,-4.685008526E-1,-5.817587852E0,6.955115199E-1
1.989285208E0,-8.228274584E-1,-5.834346771E0,6.332648993E-1
1.991725364E0,-7.031224966E-1,-5.887017250E0,4.752543867E-1
1.994164791E0,-7.390339971E-1,-5.836740494E0,4.752543867E-1
1.996604166E0,-6.025703549E-1,-5.556631088E0,6.548117995E-1
1.999044375E0,-3.703427911E-1,-5.434532166E0,4.752543867E-1
2.001484531E0,-4.278011620E-1,-5.436926365E0,8.439456224E-1
2.003923906E0,-2.769729495E-1,-5.247792721E0,1.116872907E0
2.006363281E0,-1.309329122E-1,-5.116117001E0,9.516800642E-1
2.008803489E0,-2.602142692E-1,-5.202304363E0,1.404164791E0
2.011243645E0,-3.655546010E-1,-5.202304363E0,1.825526118E0
2.013683073E0,-5.139886737E-1,-5.470443726E0,2.163094044E0
2.016122448E0,-6.815756559E-1,-5.810405731E0,2.701766253E0
2.018562656E0,-6.983343363E-1,-5.977992535E0,2.993846178E0
2.021002812E0,-5.858116746E-1,-6.315560341E0,3.393660784E0
2.023442187E0,-3.918896914E-1,-6.531029701E0,3.831780672E0
2.025881562E0,-2.362732589E-1,-6.607640743E0,3.985003233E0
2.028321770E0,1.156592518E-1,-6.780015469E0,4.499734879E0
2.030761927E0,3.790101111E-1,-7.191800594E0,5.002495289E0
2.033201354E0,6.663019657E-1,-7.498245716E0,4.925884247E0
2.035640729E0,8.554357290E-1,-7.699349403E0,5.050377369E0
2.038080937E0,1.027810931E0,-7.989035606E0,5.103047848E0
2.040521093E0,1.025416851E0,-8.554042816E0,5.689601898E0
2.042960468E0,1.046963692E0,-8.867669106E0,5.696784019E0
2.045399843E0,1.214550614E0,-9.317759514E0,6.218697548E0
2.047840052E0,1.116392493E0,-9.602657318E0,6.680758476E0
2.050280208E0,1.073298693E0,-9.605051994E0,6.798069000E0
2.052719635E0,6.974252462E-1,-1.088828850E1,8.694194794E0
2.055159010E0,9.272587299E-1,-1.140541363E1,8.373386383E0
2.057599218E0,9.775348306E-1,-1.164721775E1,7.947236538E0
2.060039375E0,1.054145932E0,-1.184113979E1,7.482781887E0
2.062478750E0,1.276797175E0,-1.167594719E1,6.704699516E0
2.064918125E0,2.303865433E0,-1.210927868E1,5.548349857E0
2.067358333E0,1.750828743E0,-1.158975983E1,5.459768295E0
2.069798489E0,1.054145932E0,-1.115642738E1,6.549083233E0
2.072237916E0,1.293555856E0,-1.087392426E1,5.988863945E0
2.074677291E0,1.513812900E0,-1.102475262E1,6.774127960E0
2.077117500E0,1.185821414E0,-1.051002121E1,6.321643829E0
2.079557656E0,8.817708492E-1,-1.044059277E1,6.522747993E0
2.081997031E0,3.239458501E-1,-1.035440445E1,6.534718513E0
2.084436406E0,2.305759937E-1,-1.090265369E1,6.240244389E0
2.086876614E0,4.149215817E-1,-1.093377686E1,5.656084061E0
2.089316823E0,4.173156917E-1,-1.055311489E1,4.988130569E0
2.091756198E0,6.327845454E-1,-1.072548962E1,4.801391125E0
2.094195573E0,1.020628572E0,-1.086913586E1,4.327359676E0
2.096635781E0,8.362829685E-1,-1.056987381E1,3.642647028E0
2.099075937E0,1.216944575E0,-9.933043480E0,2.330680847E0
2.101515364E0,1.063722372E0,-9.399159431E0,2.850200176E0
2.103954739E0,9.751406908E-1,-1.011499500E1,2.852594376E0
2.106394895E0,8.410711884E-1,-9.674480438E0,2.345045328E0
2.108835104E0,4.747740626E-1,-9.356065750E0,2.227734566E0
2.111274479E0,5.322324634E-1,-9.016103745E0,2.565302372E0
2.113713854E0,6.854547262E-1,-8.568407059E0,1.935654640E0
2.116154062E0,1.006263971E0,-7.404875755E0,2.064935923E0
2.118594218E0,1.473113298E0,-6.904509068E0,1.464017153E0
2.121033645E0,2.023756027E0,-6.571729183E0,1.543022513E0
2.123473020E0,1.367772818E0,-6.674675465E0,2.060147762E0
2.125913229E0,7.836127877E-1,-7.179830074E0,2.914840937E0
2.128353385E0,9.368351102E-1,-7.258835316E0,3.405631065E0
2.130792760E0,1.262432456E0,-7.230105877E0,3.673770189E0
2.133232135E0,2.236830711E0,-7.526974678E0,3.250014782E0
2.135672343E0,2.864084482E0,-8.252386093E0,3.187768221E0
2.138112500E0,2.895207882E0,-9.291424751E0,3.501395226E0
2.140551927E0,2.899996042E0,-1.041904545E1,4.164560795E0
2.142991302E0,2.840143681E0,-1.070633793E1,4.380029678E0
2.145431510E0,3.110676765E0,-1.049326229E1,4.229201317E0
2.147871666E0,3.067583084E0,-1.105348110E1,4.992918491E0
2.150311041E0,2.756350279E0,-1.181480503E1,5.967317104E0
2.152750416E0,2.378082514E0,-1.231277752E1,6.395860672E0
2.155190625E0,2.021361828E0,-1.255218792E1,6.573024273E0
2.157630781E0,2.296683311E0,-1.214279652E1,6.242638588E0
2.160070208E0,2.730015039E0,-1.143174934E1,5.902676582E0
2.162509583E0,2.643827438E0,-1.133598518E1,5.842823982E0
2.164949791E0,2.267954111E0,-1.171904087E1,5.723119259E0
2.167389948E0,2.198525190E0,-1.182198715E1,5.658478260E0
2.169829323E0,2.291894913E0,-1.125697994E1,4.995313168E0
2.172268698E0,2.507364035E0,-1.077097797E1,4.521281719E0
2.174708906E0,2.459481955E0,-1.030412865E1,3.913180113E0
2.177149062E0,2.603127718E0,-1.005035496E1,3.357749224E0
2.179588489E0,2.947877884E0,-9.506893158E0,2.687401772E0
2.182027864E0,3.333328009E0,-8.709658623E0,2.347439528E0
2.184468073E0,3.426697731E0,-8.130287170E0,1.667515635E0
2.186908229E0,3.828906536E0,-7.493456841E0,1.157572508E0
2.189347604E0,3.874394178E0,-7.598797321E0,7.146642208E-1
2.191786979E0,3.690048695E0,-7.495851040E0,2.166917324E-1
2.194227187E0,3.551191092E0,-7.819054604E0,-6.308192015E-1
2.196667343E0,3.632590294E0,-8.036917686E0,-9.228993058E-1
2.199106770E0,4.987649918E0,-9.933043480E0,-2.340205908E0
2.201546145E0,2.955060244E0,-9.569140434E0,-1.954755902E0
2.203986354E0,2.349353552E0,-8.695294380E0,-1.200614691E0
2.206426510E0,3.534432173E0,-7.400086880E0,-7.553123832E-1
2.208865885E0,4.755422592E0,-6.521452904E0,-4.153503776E-1
2.211305260E0,5.693909645E0,-5.532690048E0,-4.368972182E-1
2.213745468E0,5.981201172E0,-5.429744244E0,-8.534703851E-1
2.216185625E0,5.047502518E0,-6.356259823E0,-7.505241632E-1
2.218625052E0,3.776236296E0,-8.594742775E0,-3.171922863E-1
2.221064427E0,3.350086689E0,-9.238754272E0,-3.147982061E-1
2.223504635E0,3.541614532E0,-9.214813232E0,1.161395907E-1
2.225944791E0,3.812147856E0,-9.202843666E0,1.138419747E0
2.228384218E0,4.025222778E0,-9.485346794E0,1.923684120E0
2.230823593E0,4.252662182E0,-9.923466682E0,2.644307613E0
2.233263750E0,4.365184307E0,-1.011499500E1,3.199738741E0
2.235703958E0,4.736269951E0,-9.348883629E0,4.296236038E0
2.238143333E0,5.059473038E0,-8.929915428E0,4.336935520E0
2.240582708E0,4.360396385E0,-8.594742775E0,5.368792057E0
2.243022916E0,4.018040180E0,-9.190872192E0,5.567502499E0
2.245463073E0,4.465736389E0,-1.027061176E1,4.755903244E0
2.247902500E0,4.882309914E0,-1.089068222E1,3.908391953E0
2.250341875E0,5.124114037E0,-1.092180538E1,3.393660784E0
2.252782031E0,4.626141548E0,-1.175255871E1,4.217230797E0
2.255222239E0,3.654137135E0,-1.288017845E1,4.533252239E0
2.257661614E0,4.322091103E0,-1.196084499E1,3.803051710E0
2.260100989E0,4.348425865E0,-1.127373886E1,4.238778114E0
2.262541198E0,3.828906536E0,-1.130246735E1,4.731962204E0
2.264981354E0,3.230381727E0,-1.134316730E1,4.985736847E0
2.267420781E0,2.497787476E0,-1.149878311E1,5.117412090E0
2.269860156E0,1.487477899E0,-1.307649422E1,5.421462536E0
2.272300364E0,1.947144747E0,-1.316028881E1,3.769534111E0
2.274740520E0,1.683794022E0,-1.380190659E1,3.563641787E0
2.277179895E0,2.028544188E0,-1.371571922E1,3.573218107E0
2.279619270E0,2.404417753E0,-1.308128357E1,3.120733500E0
2.282059479E0,2.727621078E0,-1.255458164E1,2.797530174E0
2.284499635E0,2.162114084E-1,-1.555917549E1,3.475060225E0
2.286939062E0,-1.158001304E0,-1.747205925E1,4.032885075E0
2.289378437E0,-4.661067724E-1,-1.657666779E1,4.245960236E0
2.291818593E0,1.032599092E0,-1.532694721E1,3.894027472E0
2.294258802E0,2.923937082E0,-1.373487282E1,4.090343475E0
2.296698177E0,4.269420624E0,-1.179565239E1,3.989791155E0
2.299137552E0,4.535165310E0,-1.047171593E1,3.791081190E0
2.301577760E0,4.465736389E0,-9.868402481E0,4.066402435E0
2.304017916E0,4.269420624E0,-9.590687752E0,4.425517559E0
2.306457343E0,4.065922260E0,-9.727150917E0,4.772661686E0
2.308896718E0,4.034799099E0,-9.928256035E0,4.815755844E0
2.311336927E0,4.068316460E0,-1.015330029E1,4.607469082E0
2.313777083E0,4.259843826E0,-1.027061176E1,4.054431915E0
2.316216458E0,4.281391144E0,-1.046453381E1,3.443936586E0
2.318655833E0,4.278996944E0,-1.062254333E1,2.840623856E0
2.321096041E0,4.281391144E0,-1.057944965E1,2.237310886E0
2.323536198E0,4.369972706E0,-1.041425800E1,1.756097317E0
2.325975625E0,4.489677429E0,-1.031131077E1,1.329947710E0
2.328415000E0,4.836822033E0,-9.968955040E0,1.090537786E0
2.330855208E0,5.047502518E0,-9.684056282E0,9.085862637E-1
2.333295364E0,5.092990398E0,-9.523653030E0,9.085862637E-1
2.335734739E0,5.588569164E0,-9.090320587E0,7.170583606E-1
2.338174114E0,5.480834484E0,-8.989768982E0,7.002996802E-1
2.340614323E0,5.667574406E0,-8.803028107E0,7.912754416E-1
2.343054479E0,5.598145485E0,-9.099896431E0,8.223987222E-1
2.345493906E0,5.090596676E0,-9.873190880E0,9.037980437E-1
2.347933281E0,4.669235229E0,-1.015808868E1,8.295809627E-1
2.350373489E0,4.343637466E0,-1.038313389E1,8.080341220E-1
2.352813645E0,4.130562782E0,-1.059381485E1,9.588623643E-1
2.355253020E0,4.238297462E0,-1.073985481E1,1.186301827E0
2.357692395E0,3.946217299E0,-1.071830750E1,1.095326066E0
2.360132604E0,3.939034939E0,-1.062493801E1,1.018714786E0
2.362572760E0,4.161686420E0,-1.042143917E1,1.136025786E0
2.365012187E0,4.264632702E0,-1.028018761E1,1.303612709E0
2.367451562E0,4.532771587E0,-1.017005825E1,1.531051993E0
2.369891770E0,4.460948467E0,-1.027061176E1,1.736944556E0
2.372331927E0,4.724299431E0,-1.026821709E1,1.904531479E0
2.374771302E0,5.284518719E0,-1.017005825E1,2.163094044E0
2.377210677E0,5.495199203E0,-1.026582241E1,2.352227688E0
2.379650885E0,5.789673328E0,-1.026103497E1,2.469538689E0
2.382091041E0,6.055418491E0,-1.033764553E1,2.529391289E0
2.384530468E0,6.505508900E0,-1.035919285E1,2.613184452E0
2.386969843E0,6.871806145E0,-1.057944965E1,2.663460732E0
2.389410052E0,7.118398190E0,-1.087152958E1,2.663460732E0
2.391850208E0,7.501453876E0,-1.121628094E1,2.905264616E0
2.394289583E0,7.654675961E0,-1.160412502E1,3.240438461E0
2.396728958E0,7.420054436E0,-1.198717976E1,3.309867144E0
2.399169166E0,7.554123878E0,-1.210927868E1,3.305078983E0
2.401609323E0,7.496665478E0,-1.212603760E1,3.235650063E0
2.404048750E0,7.578064919E0,-1.200633240E1,3.051304579E0
2.406488125E0,7.415266514E0,-1.187705135E1,3.144674540E0
2.408928333E0,7.499060154E0,-1.150357151E1,2.799924135E0
2.411368489E0,7.499060154E0,-1.108460426E1,2.579667091E0
2.413807864E0,7.209373951E0,-1.065127277E1,2.376168728E0
2.416247239E0,6.744918346E0,-1.033285713E1,2.172670364E0
2.418687448E0,6.316374779E0,-9.997683525E0,1.856649399E0
2.421127604E0,5.710668087E0,-9.810944557E0,1.595692635E0
2.423567031E0,4.877521515E0,-9.707997322E0,1.301218510E0
2.426006406E0,4.221538544E0,-9.600263596E0,1.169543028E0
2.428446614E0,3.687654495E0,-9.382400513E0,9.205567241E-1
2.430886770E0,3.134617805E0,-9.164537430E0,3.435789645E-1
2.433326145E0,2.849720001E0,-8.877245903E0,2.334504426E-1
2.435765520E0,3.017307043E0,-8.508554459E0,4.910482466E-2
2.438205729E0,2.993366003E0,-8.197321892E0,1.807802618E-1
2.440645885E0,2.868872643E0,-8.020158768E0,3.938550651E-1
2.443085312E0,2.172189951E0,-8.060858727E0,7.553639412E-1
2.445524687E0,2.023756027E0,-8.068040848E0,1.375435591E0
2.447964895E0,1.899262905E0,-8.010581970E0,1.885378718E0
2.450405052E0,1.710129023E0,-7.950729847E0,2.254069567E0
2.452844427E0,2.162613630E0,-7.766384602E0,2.608396530E0
2.455283802E0,2.919148922E0,-7.534157276E0,2.627549171E0
2.457724010E0,4.231114864E0,-7.057731152E0,2.373774767E0
2.460164166E0,6.713795662E0,-5.939687252E0,1.897349000E0
2.462603593E0,8.959460258E0,-4.462528229E0,9.947738051E-1
2.465042968E0,9.874006271E0,-2.202498913E0,4.752543867E-1
2.467483177E0,9.356880188E0,-3.105127811E-2,7.912754416E-1
2.469923333E0,7.436812878E0,9.648397565E-3,1.401770711E0
2.472362760E0,5.933319092E0,-1.273588538E0,2.170276403E0
2.474802135E0,5.198330879E0,-2.798629522E0,2.809500694E0
2.477242291E0,3.996493340E0,-4.742637634E0,2.785559654E0
2.479682500E0,3.512885571E0,-5.992357254E0,3.276350021E0
2.482121875E0,3.067583084E0,-6.729739666E0,3.151856661E0
2.484561250E0,2.804232359E0,-6.799168587E0,2.905264616E0
2.487001458E0,3.824118137E0,-7.067307472E0,2.321104527E0
2.489441614E0,5.425770283E0,-6.353866100E0,3.336202383E0
2.491881041E0,6.732947826E0,-4.393098831E0,5.680025101E0
2.494320416E0,6.541420460E0,-2.975792885E0,5.598625660E0
2.496760625E0,5.789673328E0,-2.101946831E0,4.583528042E0
2.499200781E0,5.727426529E0,-1.189795017E0,4.698444843E0
2.501640156E0,4.915826797E0,-1.596791863E0,4.377635479E0
2.504079531E0,4.257450104E0,-2.432332277E0,3.635464668E0
2.506519739E0,5.636450768E0,-2.391632795E0,2.538967371E0
2.508959895E0,7.163886070E0,-1.829019547E0,2.984269857E0
2.511399323E0,8.674562454E0,-7.444926500E-1,3.379296064E0
2.513838698E0,7.417660713E0,-1.714102745E0,3.348172903E0
2.516278854E0,6.977146626E0,-2.623860359E0,2.311528206E0
2.518719062E0,6.907717705E0,-3.373213291E0,1.698638916E0
2.521158437E0,6.694642544E0,-4.014831543E0,1.219819188E0
2.523597812E0,6.129635334E0,-4.747426033E0,9.157685637E-1
2.526038020E0,5.387464523E0,-5.403409004E0,1.006744385E0
2.528478177E0,4.721905231E0,-6.004327774E0,1.107296586E0
2.530917604E0,4.554318428E0,-6.248525620E0,1.605269074E0
2.533356979E0,4.396307945E0,-6.492723942E0,2.321104527E0
2.535797135E0,4.568683147E0,-6.569334984E0,3.616312027E0
2.538237343E0,5.176784039E0,-6.358654499E0,4.885184765E0
2.540676718E0,4.915826797E0,-6.633975506E0,5.854794502E0
2.543116093E0,4.231114864E0,-7.323475838E0,6.517959595E0
2.545556302E0,3.752295256E0,-8.149439812E0,6.721457958E0
2.547996458E0,3.539220572E0,-8.922733307E0,6.860316277E0
2.550435885E0,3.668501854E0,-9.456617355E0,6.936927319E0
2.552875260E0,3.575131893E0,-1.009344769E1,7.286465645E0
2.555315468E0,3.474579811E0,-1.067281914E1,7.853866577E0
2.557755625E0,4.034799099E0,-1.050283813E1,7.997512817E0
2.560195000E0,4.635717392E0,-9.990501404E0,8.131582260E0
2.562634375E0,5.483228683E0,-9.111867905E0,8.047788620E0
2.565074583E0,5.880649090E0,-8.724023819E0,8.136370659E0
2.567514739E0,5.602933407E0,-9.047226906E0,7.841896057E0
2.569954166E0,5.148055077E0,-9.411129951E0,7.319982529E0
2.572393541E0,4.774575710E0,-9.739121437E0,6.831586838E0
2.574833750E0,4.369972706E0,-1.003598976E1,6.218697548E0
2.577273906E0,4.092257023E0,-1.023709393E1,5.802124023E0
2.579713281E0,3.527250051E0,-1.049086857E1,5.366398335E0
2.582152656E0,3.007730484E0,-1.055550861E1,5.091077328E0
2.584592864E0,2.507364035E0,-1.054114437E1,5.105441570E0
2.587033020E0,2.301471472E0,-1.081407166E1,4.911519527E0
2.589472448E0,2.279924393E0,-1.080449581E1,4.806179047E0
2.591911823E0,2.016573668E0,-1.125458527E1,4.511705399E0
2.594352031E0,2.165007830E0,-1.171425247E1,4.686474323E0
2.596792187E0,1.741252303E0,-1.212364388E1,4.734356403E0
2.599231562E0,1.707734823E0,-1.282750893E1,4.581134319E0
2.601670937E0,1.497054219E0,-1.346673298E1,4.708021164E0
2.604111145E0,1.592818141E0,-1.387372971E1,4.736750126E0
2.606551302E0,1.465930939E0,-1.407962227E1,3.826992750E0
2.608990729E0,1.154698133E0,-1.407962227E1,3.024969339E0
2.611430104E0,1.075692892E0,-1.378993702E1,2.294769526E0
2.613870312E0,5.274442434E-1,-1.350743294E1,1.315583229E0
2.616310468E0,2.569110692E-1,-1.299270153E1,3.172438741E-1
2.618749843E0,4.843504727E-1,-1.208533764E1,-4.225326180E-1
2.621189218E0,1.121180773E0,-1.095292950E1,-1.147944450E0
2.623629427E0,1.772375584E0,-9.894737244E0,-1.794351220E0
2.626069583E0,2.301471472E0,-8.860486984E0,-2.596374273E0
2.628509010E0,2.935907602E0,-7.945941448E0,-2.830996037E0
2.630948385E0,3.673290014E0,-7.388116360E0,-2.488639832E0
2.633388593E0,4.353213787E0,-6.844656467E0,-1.952361703E0
2.635828750E0,4.872733593E0,-6.430477142E0,-1.377777934E0
2.638268125E0,5.380282402E0,-6.085727215E0,-1.131185770E0
2.640707500E0,5.689120770E0,-5.982780933E0,-1.310743213E0
2.643147708E0,5.916560650E0,-6.126426697E0,-1.751257300E0
2.645587864E0,6.021901131E0,-6.490329742E0,-2.182195425E0
2.648027291E0,6.029082775E0,-6.964361668E0,-2.447940350E0
2.650466666E0,5.880649090E0,-7.428816319E0,-2.591586113E0
2.652906875E0,5.631662846E0,-7.759202003E0,-2.737626076E0
2.655347031E0,5.346765041E0,-7.888483524E0,-2.579615593E0
2.657786406E0,5.181571960E0,-7.869330406E0,-2.265988827E0
2.660225781E0,5.088202477E0,-7.797507763E0,-1.964332223E0
2.662665989E0,4.970891476E0,-7.711319923E0,-1.576488256E0
2.665106145E0,4.863156796E0,-7.704137802E0,-1.217373371E0
2.667545573E0,4.633323669E0,-7.807084084E0,-8.917760253E-1
2.669984948E0,4.633323669E0,-7.974670887E0,-4.991438389E-1
2.672425156E0,4.755422592E0,-8.091981888E0,-1.807286739E-1
2.674865312E0,4.923009396E0,-8.204504013E0,-1.553583890E-2
2.677304687E0,5.064261436E0,-8.242809296E0,2.549973130E-1
2.679744062E0,5.294095039E0,-8.182957649E0,4.680720866E-1
2.682184270E0,5.464076042E0,-8.173380852E0,5.805947781E-1
2.684624427E0,5.442529202E0,-8.058464050E0,9.037980437E-1
2.687063854E0,5.504775524E0,-7.814266682E0,1.279671669E0
2.689503229E0,5.602933407E0,-7.565279961E0,1.595692635E0
2.691943437E0,6.024294853E0,-7.117583752E0,1.739338517E0
2.694383593E0,6.333133698E0,-6.617217064E0,1.890166759E0
2.696822968E0,6.584514141E0,-6.083333015E0,1.887772679E0
2.699262343E0,6.630002022E0,-5.594936848E0,1.964383960E0
2.701702552E0,6.591696262E0,-5.175969601E0,2.301951647E0
2.704142708E0,6.254128456E0,-5.037112236E0,2.402503967E0
2.706582135E0,5.942895412E0,-4.833613396E0,2.390533447E0
2.709021510E0,5.789673328E0,-4.730667114E0,2.469538689E0
2.711461718E0,5.926136971E0,-4.522380352E0,2.673036814E0
2.713901875E0,5.586174965E0,-4.627720833E0,2.574878931E0
2.716341250E0,5.555051327E0,-4.646873474E0,2.550937891E0
2.718780625E0,5.583780766E0,-4.654056072E0,2.696977854E0
2.721220833E0,5.871072292E0,-4.553503990E0,2.682613373E0
2.723660989E0,6.251734734E0,-4.476892471E0,2.340257168E0
2.726100416E0,6.773647785E0,-4.266211987E0,2.275616646E0
2.728539791E0,7.305138111E0,-4.069895744E0,2.187034845E0
2.730980000E0,7.872539043E0,-3.773027897E0,2.249281406E0
2.733420156E0,8.382482529E0,-3.500100374E0,2.005083561E0
2.735859531E0,8.755962372E0,-3.253508329E0,1.617239594E0
2.738298906E0,9.208446503E0,-3.205626249E0,1.399376512E0
2.740739114E0,9.713601112E0,-3.050009727E0,1.938048840E0
2.743179270E0,9.677690506E0,-3.085921288E0,2.380956888E0
2.745618698E0,9.660931587E0,-3.397154093E0,2.232522964E0
2.748058073E0,1.012299252E1,-3.825697899E0,2.471932650E0
2.750498281E0,1.047731972E1,-4.244665146E0,2.622761011E0
2.752938437E0,1.073109341E1,-4.553503990E0,2.515026331E0
2.755377812E0,1.117879009E1,-4.759396553E0,2.433627129E0
2.757817187E0,1.121948910E1,-4.871919155E0,2.230128765E0
2.760257395E0,1.090107441E1,-4.876707077E0,1.777644157E0
2.762697552E0,1.072630501E1,-4.845583916E0,1.437682152E0
2.765136979E0,1.036479664E1,-4.766578674E0,1.306006670E0
2.767576354E0,9.617837906E0,-5.075417519E0,1.126449347E0
2.770016562E0,8.878061295E0,-5.506354809E0,8.726748228E-1
2.772456718E0,8.459093094E0,-5.695488930E0,6.667823195E-1
2.774896093E0,8.317841530E0,-5.535084724E0,2.885147035E-1
2.777335468E0,7.898874283E0,-5.848711014E0,3.747022450E-1
2.779775677E0,7.676222801E0,-5.848711014E0,2.645737231E-1
2.782215833E0,7.166279793E0,-6.243737698E0,4.800425768E-1
2.784655260E0,6.859835625E0,-6.487935543E0,5.207422972E-1
2.787094635E0,6.730554104E0,-6.593276024E0,3.675199449E-1
2.789534843E0,6.582119942E0,-6.940420628E0,5.111658573E-1
2.791975000E0,6.381015301E0,-7.134342670E0,7.721226215E-1
2.794414375E0,5.954865932E0,-7.536550999E0,1.346706390E0
2.796853750E0,5.543080807E0,-8.132680893E0,1.964383960E0
2.799293958E0,5.236636639E0,-8.810210228E0,2.421656609E0
2.801734114E0,5.006803036E0,-9.432676315E0,2.725707293E0
2.804173541E0,4.923009396E0,-1.007190037E1,3.041728258E0
2.806612916E0,5.030744076E0,-1.045495701E1,3.259591103E0
2.809053125E0,5.131296158E0,-1.085477161E1,3.709681749E0
2.811493281E0,5.212695599E0,-1.130246735E1,4.248353958E0
2.813932656E0,5.176784039E0,-1.168791771E1,5.069530010E0
2.816372031E0,4.973285675E0,-1.211167336E1,5.969711304E0
2.818812239E0,4.875127316E0,-1.245881748E1,6.640058517E0
2.821252395E0,4.839216232E0,-1.282750893E1,6.927350521E0
2.823691823E0,4.891886711E0,-1.323211193E1,7.243371487E0
2.826131198E0,4.982861996E0,-1.352658558E1,7.269706726E0
2.828571406E0,5.121719360E0,-1.368459511E1,7.336741447E0
2.831011562E0,5.296488762E0,-1.366304970E1,7.394200325E0
2.833450937E0,5.452105522E0,-1.339730453E1,7.454052448E0
2.835890312E0,5.598145485E0,-1.296397209E1,7.310406685E0
2.838330520E0,5.830372810E0,-1.252345848E1,7.229007244E0
2.840770677E0,6.120059013E0,-1.217152596E1,7.018326759E0
2.843210104E0,6.383409977E0,-1.191775131E1,6.654423714E0
2.845649479E0,6.641972542E0,-1.169031143E1,6.264184952E0
2.848089687E0,6.840682507E0,-1.145808411E1,5.677631378E0
2.850529843E0,6.979540348E0,-1.120670319E1,5.059953690E0
2.852969218E0,7.048968792E0,-1.099841785E1,4.480581760E0
2.855408593E0,7.022634029E0,-1.085237789E1,4.061614513E0
2.857848802E0,6.857441425E0,-1.070633793E1,3.534912348E0
2.860288958E0,6.653943062E0,-1.044538021E1,2.941175938E0
2.862728385E0,6.527055264E0,-1.009105396E1,2.421656609E0
2.865167760E0,6.443262100E0,-9.885161400E0,2.115211964E0
2.867607968E0,6.400168419E0,-9.911496162E0,1.990718961E0
2.870048125E0,6.335527897E0,-9.916284561E0,1.823132038E0
2.872487500E0,6.290040016E0,-9.844461441E0,1.765673637E0
2.874926875E0,6.182305336E0,-9.751091957E0,1.744126797E0
2.877367083E0,6.172729015E0,-9.667298317E0,1.679486156E0
2.879807239E0,6.019506931E0,-9.849249840E0,1.815949798E0
2.882246666E0,6.062600613E0,-9.868402481E0,1.758491397E0
2.884686041E0,6.098512173E0,-9.710392952E0,1.894955039E0
2.887126250E0,6.079359055E0,-9.777426720E0,2.299557686E0
2.889566406E0,5.856708050E0,-1.006711292E1,2.613184452E0
2.892005781E0,5.155237198E0,-1.064887810E1,2.742465973E0
2.894445156E0,4.367578506E0,-1.124740314E1,3.123127460E0
2.896885364E0,3.460215330E0,-1.197520924E1,2.957934618E0
2.899325520E0,2.907178402E0,-1.266710377E1,3.060880899E0
2.901764948E0,2.600733757E0,-1.339251518E1,3.063275099E0
2.904204323E0,2.823385000E0,-1.367023182E1,3.314655542E0
2.906644531E0,3.443456411E0,-1.364868450E1,2.773589134E0
2.909084687E0,4.178444862E0,-1.361995602E1,2.467144489E0
2.911524062E0,4.808093071E0,-1.325365829E1,2.479115009E0
2.913963437E0,5.571810722E0,-1.253542900E1,2.371380329E0
2.916403645E0,6.572543621E0,-1.154427147E1,2.340257168E0
2.918843802E0,7.367384434E0,-1.062733173E1,1.645968795E0
2.921283229E0,7.649888039E0,-9.820520401E0,7.601521015E-1
2.923722604E0,7.254861355E0,-9.353672028E0,9.444977641E-1
2.926162812E0,6.737736702E0,-9.121443748E0,1.088143706E0
2.928602968E0,6.488749981E0,-9.056803703E0,1.083355546E0
2.931042343E0,5.715456009E0,-9.171719551E0,1.145602107E0
2.933481718E0,4.190415382E0,-9.126231194E0,3.364931345E0
2.935921927E0,6.354680538E0,-7.720896721E0,9.732269049E-1
2.938362083E0,7.274014473E0,-7.515004158E0,-9.923281074E-1
2.940801510E0,7.147127628E0,-7.713714123E0,-1.236526251E0
2.943240885E0,6.706613064E0,-7.641891003E0,-7.098245025E-1
2.945681093E0,6.031477451E0,-7.917212486E0,-1.232702807E-1
2.948121250E0,5.397040844E0,-8.113528252E0,-6.341781467E-2
2.950560625E0,4.796122551E0,-8.525313377E0,5.159540772E-1
2.953000000E0,3.702019215E0,-9.547593117E0,1.645968795E0
2.955440208E0,2.818596840E0,-1.022991180E1,3.479848146E0
2.957880364E0,1.058934212E0,-1.106066322E1,4.075979233E0
2.960319791E0,6.208141446E-1,-1.165200615E1,2.713736773E0
2.962759166E0,1.784346104E0,-1.164003563E1,4.904337406E0
2.965199375E0,2.591157198E0,-1.109178638E1,3.345778704E0
2.967639531E0,3.546402693E0,-1.011260033E1,1.303612709E0
2.970078906E0,3.883970737E0,-9.499711990E0,2.938781977E0
2.972518281E0,3.852847576E0,-8.645018578E0,2.268434286E0
2.974958489E0,4.235902786E0,-8.747964859E0,1.693850636E0
2.977398645E0,4.156898022E0,-8.403214455E0,1.526263833E0
2.979838073E0,3.259110928E0,-8.381667137E0,2.582061291E0
2.982277448E0,1.674217463E0,-8.932309151E0,3.554065466E0
2.984717656E0,1.777163744E0,-8.743176460E0,3.010604858E0
2.987157812E0,1.985450387E0,-8.448701859E0,2.862170696E0
2.989597187E0,2.320624352E0,-8.257174492E0,2.907658577E0
2.992036562E0,2.775502920E0,-7.919606686E0,3.278743982E0
2.994476770E0,3.187288046E0,-7.519792080E0,3.982609034E0
2.996916927E0,4.338849545E0,-6.686645985E0,3.063275099E0
2.999356354E0,5.102567196E0,-6.143185616E0,2.175064325E0
3.001795729E0,5.219878197E0,-5.633242607E0,2.500661850E0
3.004235937E0,5.006803036E0,-5.331585884E0,3.044122219E0
3.006676093E0,5.619692326E0,-4.716302395E0,1.794402957E0
3.009115468E0,5.665180206E0,-4.172842026E0,1.408952951E0
3.011554843E0,5.488017082E0,-3.598258495E0,1.464017153E0
3.013995052E0,4.839216232E0,-3.488130093E0,1.916501880E0
3.016435208E0,4.599805832E0,-3.186473608E0,1.882984519E0
3.018874635E0,4.135351181E0,-3.392365932E0,2.014659882E0
3.021314010E0,3.845664978E0,-3.581499815E0,1.923684120E0
3.023754218E0,3.553585052E0,-3.878368139E0,2.158305883E0
3.026194375E0,3.402756691E0,-4.170447826E0,2.438415527E0
3.028633750E0,3.316569328E0,-4.211147785E0,2.529391289E0
3.031073125E0,3.153770447E0,-4.352399349E0,2.677825212E0
3.033513333E0,2.873661041E0,-4.558291912E0,3.168615341E0
3.035953489E0,3.431485891E0,-4.299729347E0,2.761618614E0
3.038392916E0,3.395574570E0,-4.275788307E0,2.898082256E0
3.040832291E0,2.998154163E0,-4.440980911E0,3.283532143E0
3.043272500E0,3.611043453E0,-3.998073101E0,3.072851419E0
3.045712656E0,3.769053936E0,-3.758662939E0,3.051304579E0
3.048152031E0,3.747507095E0,-3.713175297E0,3.166221380E0
3.050591406E0,4.530377388E0,-3.399548292E0,3.194950342E0
3.053031614E0,4.741057873E0,-3.497706175E0,3.060880899E0
3.055471770E0,5.083414078E0,-3.524041176E0,3.266773462E0
3.057911198E0,5.040320396E0,-3.777815819E0,3.513365746E0
3.060350573E0,5.243818760E0,-3.931038380E0,3.429572105E0
3.062790781E0,6.031477451E0,-3.919067860E0,3.226073742E0
3.065230937E0,6.723371983E0,-3.859215260E0,3.094398499E0
3.067670312E0,7.515818596E0,-3.629381895E0,2.922023296E0
3.070109687E0,7.599611759E0,-3.756268978E0,2.957934618E0
3.072549895E0,7.795928001E0,-3.562346935E0,3.084821939E0
3.074990052E0,7.898874283E0,-3.325331211E0,2.907658577E0
3.077429479E0,8.325024605E0,-3.011704206E0,2.716130733E0
3.079868854E0,7.994637966E0,-3.210414648E0,2.761618614E0
3.082309010E0,8.181378365E0,-3.085921288E0,2.325892687E0
3.084749218E0,8.650621414E0,-2.930304766E0,2.701766253E0
3.087188593E0,8.078432083E0,-3.471371174E0,2.474326611E0
3.089627968E0,7.771986961E0,-3.650928497E0,2.522208691E0
3.092068177E0,6.890958309E0,-4.254241467E0,2.337863207E0
3.094508333E0,6.249340057E0,-4.845583916E0,2.677825212E0
3.096947760E0,6.553390980E0,-5.278915405E0,2.179852724E0
3.099387135E0,5.081019878E0,-6.217402458E0,1.890166759E0
3.101827291E0,4.130562782E0,-6.772833347E0,2.273222446E0
3.104267500E0,4.310120583E0,-7.021819592E0,2.002689362E0
3.106706875E0,3.869606018E0,-7.388116360E0,2.179852724E0
3.109146250E0,3.462609291E0,-7.673014641E0,2.436021090E0
3.111586458E0,4.516013145E0,-7.859754086E0,2.933993578E0
3.114026614E0,5.071443558E0,-7.728078842E0,2.898082256E0
3.116466041E0,4.267026424E0,-7.979458809E0,2.333075047E0
3.118905416E0,3.970158339E0,-8.429549217E0,2.445597649E0
3.121345573E0,4.384337425E0,-8.877245903E0,2.328286648E0
3.123785781E0,4.262238503E0,-9.391976357E0,1.897349000E0
3.126225156E0,3.582314253E0,-9.851643562E0,1.945231080E0
3.128664531E0,3.177711487E0,-1.034961700E1,2.172670364E0
3.131104739E0,3.962975979E0,-1.045495701E1,2.227734566E0
3.133544895E0,4.161686420E0,-1.042143917E1,2.170276403E0
3.135984323E0,3.984522820E0,-1.048368549E1,2.036206722E0
3.138423698E0,3.716383696E0,-1.057944965E1,2.093665123E0
3.140863854E0,4.334061623E0,-1.054114437E1,2.469538689E0
3.143304010E0,4.743452072E0,-1.039749813E1,2.383350849E0
3.145743437E0,3.958187819E0,-1.035919285E1,1.839890838E0
3.148182812E0,3.177711487E0,-1.055072021E1,1.914107800E0
3.150623020E0,4.030010700E0,-1.049086857E1,2.043389082E0
3.153063177E0,4.346031666E0,-1.030652237E1,1.614845395E0
3.155502604E0,4.434613705E0,-1.019160557E1,1.622027755E0
3.157941979E0,4.592624187E0,-1.021554661E1,2.270828485E0
3.160382135E0,5.059473038E0,-1.020118237E1,2.582061291E0
3.162822291E0,4.475313187E0,-9.964166641E0,2.742465973E0
3.165261718E0,5.227059841E0,-9.660115242E0,2.553331852E0
3.167701093E0,5.684332848E0,-9.710392952E0,2.447991610E0
3.170141302E0,5.667574406E0,-1.036876965E1,2.742465973E0
3.172581458E0,6.474385262E0,-1.037595177E1,3.563641787E0
3.175020885E0,7.051363468E0,-1.007190037E1,4.011338234E0
3.177460260E0,7.051363468E0,-1.004795933E1,4.346512318E0
3.179900416E0,6.436079979E0,-1.040946865E1,4.679292202E0
3.182340573E0,6.637184143E0,-1.042622757E1,5.062347889E0
3.184780000E0,6.601273060E0,-1.045735073E1,4.945037365E0
3.187219375E0,6.141605854E0,-1.052438545E1,4.755903244E0
3.189659583E0,5.796855450E0,-1.061775589E1,4.664927006E0
3.192099739E0,5.140872478E0,-1.073985481E1,4.530857563E0
3.194539114E0,5.136084557E0,-1.061057377E1,4.439882278E0
3.196978489E0,5.092990398E0,-1.044538021E1,4.121467113E0
3.199418698E0,4.822457314E0,-1.030891609E1,3.824598312E0
3.201858854E0,4.360396385E0,-1.024427700E1,3.393660784E0
3.204298281E0,3.910305738E0,-1.025145817E1,3.147068501E0
3.206737656E0,4.013252258E0,-9.834885597E0,2.929205418E0
3.209177864E0,4.441795349E0,-9.157355309E0,2.558120251E0
3.211618020E0,4.580653667E0,-8.721629143E0,2.019448042E0
3.214057395E0,4.267026424E0,-8.561224937E0,1.605269074E0
3.216496770E0,4.001281738E0,-8.419973373E0,1.554993033E0
3.218936979E0,4.207173824E0,-8.051281929E0,1.554993033E0
3.221377135E0,4.499254227E0,-7.627526760E0,1.514293313E0
3.223816562E0,4.492072105E0,-7.438393116E0,1.509505153E0
3.226255937E0,4.537559509E0,-7.237288475E0,1.648362756E0
3.228696145E0,5.160025597E0,-6.693828106E0,1.964383960E0
3.231136302E0,5.535899162E0,-6.382595539E0,2.242099285E0
3.233575677E0,5.593357086E0,-6.344289303E0,2.483903170E0
3.236015052E0,5.746579647E0,-6.315560341E0,2.744859934E0
3.238455260E0,5.866284370E0,-6.200644016E0,3.099186659E0
3.240895416E0,6.009930611E0,-6.049815655E0,3.324231863E0
3.243334843E0,6.079359055E0,-6.013904095E0,3.618705988E0
3.245774218E0,5.997960091E0,-5.977992535E0,3.774322510E0
3.248214427E0,5.808825970E0,-5.997145653E0,3.853327751E0
3.250654583E0,5.622086525E0,-5.906169415E0,3.850933790E0
3.253093958E0,5.533504486E0,-5.858287334E0,3.805445671E0
3.255533333E0,5.399435043E0,-5.812799931E0,3.812628031E0
3.257973541E0,5.344370842E0,-5.772099972E0,3.676164389E0
3.260413698E0,5.478440285E0,-5.690700531E0,3.580400467E0
3.262853125E0,5.636450768E0,-5.767312050E0,3.645041227E0
3.265292500E0,5.978806973E0,-5.683518410E0,3.779110670E0
3.267732656E0,6.452838421E0,-5.535084724E0,3.946697474E0
3.270172864E0,6.771254063E0,-5.582966328E0,4.171742916E0
3.272612239E0,7.096850872E0,-5.695488930E0,4.277083397E0
3.275051614E0,7.525394917E0,-5.980386734E0,4.468611240E0
3.277491823E0,8.195742607E0,-6.035450935E0,4.715203762E0
3.279931979E0,8.830179214E0,-6.009116173E0,4.942642689E0
3.282371406E0,9.507709503E0,-6.140791416E0,5.091077328E0
3.284810781E0,1.053238392E1,-6.238949776E0,5.246693134E0
3.287250937E0,1.145650578E1,-6.322742939E0,5.359216213E0
3.289691145E0,1.198320770E1,-6.633975506E0,5.270634174E0
3.292130520E0,1.212924767E1,-6.983513832E0,5.040800571E0
3.294569895E0,1.316110325E1,-6.049815655E0,4.758296967E0
3.297010104E0,1.281874752E1,-6.174308777E0,3.836568832E0
3.299450260E0,1.309646320E1,-5.894198895E0,3.769534111E0
3.301889687E0,1.304379272E1,-5.927716732E0,3.855721712E0
3.304329062E0,1.187547207E1,-6.507088661E0,4.370453358E0
3.306769218E0,1.165521526E1,-6.459206581E0,5.138958931E0
3.309209427E0,1.037916183E1,-7.359387398E0,5.450191498E0
3.311648802E0,9.596290588E0,-8.094375610E0,5.234722614E0
3.314088177E0,8.451911926E0,-9.104685783E0,5.170082092E0
3.316528385E0,6.845470905E0,-1.045256233E1,5.253875732E0
3.318968541E0,5.289306641E0,-1.218828487E1,5.603414059E0
3.321407916E0,4.724299431E0,-1.325365829E1,5.454980373E0
3.323847291E0,4.116198063E0,-1.354573822E1,4.746326447E0
3.326287500E0,2.040514708E0,-1.423763275E1,4.044855595E0
3.328727656E0,1.671823502E0,-1.414665699E1,2.282799006E0
3.331167083E0,2.885631561E0,-1.366544342E1,2.268434286E0
3.333606458E0,2.069243908E0,-1.325365829E1,1.739338517E0
3.336046666E0,1.786740065E0,-1.270780373E1,1.131237507E0
3.338486823E0,1.803498864E0,-1.231517124E1,8.295809627E-1
3.340926198E0,1.339043736E0,-1.193211555E1,3.435789645E-1
3.343365573E0,1.898763031E-1,-1.202548599E1,-6.810953021E-1
3.345805781E0,3.861924112E-1,-1.131204414E1,-1.320319533E0
3.348245937E0,-1.131666303E0,-1.144850731E1,-1.892509222E0
3.350685364E0,-1.107725263E0,-1.097926426E1,-2.076854706E0
3.353124739E0,-1.313617706E0,-1.058184338E1,-2.017002583E0
3.355564948E0,-2.077335358E0,-1.046453381E1,-2.048125744E0
3.358005104E0,-3.401271820E0,-1.045256233E1,-2.294717789E0
3.360444479E0,-3.825027227E0,-1.015090656E1,-2.194165707E0
3.362883854E0,-3.951914549E0,-1.012935925E1,-1.820686221E0
3.365324062E0,-4.102742672E0,-1.008865929E1,-1.729710460E0
3.367764218E0,-5.105869770E0,-1.070873165E1,-1.030633688E0
3.370203645E0,-4.038102150E0,-9.724756241E0,-7.624946237E-1
3.372643020E0,-4.648597240E0,-1.017484760E1,-6.523661613E-1
3.375083229E0,-4.004584789E0,-9.530834198E0,-1.926991642E-1
3.377523385E0,-3.355783939E0,-8.944280624E0,1.735979617E-1
3.379962760E0,-3.604770184E0,-9.413523674E0,6.165062189E-1
3.382402135E0,-3.509006262E0,-9.317759514E0,1.227001429E0
3.384842343E0,-3.580829144E0,-9.482952118E0,1.990718961E0
3.387282500E0,-3.049339294E0,-9.221995354E0,2.517420769E0
3.389721927E0,-2.163522720E0,-8.987374306E0,2.596426010E0
3.392161302E0,-1.639215112E0,-9.344094276E0,2.972299337E0
3.394601510E0,-1.397411108E0,-1.000965500E1,3.451119184E0
3.397041666E0,-1.093360662E0,-1.042143917E1,4.013732433E0
3.399481041E0,-5.259591937E-1,-1.030173492E1,4.377635479E0
3.401920416E0,8.453597128E-2,-9.901919365E0,4.370453358E0
3.404360625E0,5.657498240E-1,-9.346489906E0,4.087949753E0
3.406800781E0,1.042175531E0,-8.592347145E0,3.621100187E0
3.409240208E0,1.549724340E0,-7.907636166E0,3.431966066E0
3.411679583E0,2.153037310E0,-7.558097363E0,2.601213932E0
3.414119791E0,2.519334555E0,-7.570067883E0,1.748915076E0
3.416559948E0,2.890419722E0,-7.668226719E0,1.109690666E0
3.418999323E0,3.192076206E0,-7.802296162E0,9.421036839E-1
3.421438698E0,3.242352247E0,-7.866936684E0,7.266347408E-1
3.423878906E0,3.187288046E0,-7.689773083E0,6.165062189E-1
3.426319062E0,3.129829407E0,-7.696955681E0,7.649403811E-1
3.428758489E0,3.321357489E0,-7.699349403E0,6.811468601E-1
3.431197864E0,3.625407934E0,-7.842995644E0,8.774629831E-1
3.433638020E0,3.498520851E0,-8.115922928E0,1.023503065E0
3.436078177E0,3.785812855E0,-8.352937698E0,1.231789708E0
3.438517604E0,3.850453138E0,-8.683323860E0,1.437682152E0
3.440956979E0,3.838482857E0,-8.949069023E0,1.868619919E0
3.443397187E0,3.443456411E0,-9.097502708E0,2.158305883E0
3.445837343E0,3.304598808E0,-9.121443748E0,2.160699844E0
3.448276718E0,2.897602081E0,-9.317759514E0,2.392927408E0
3.450716093E0,2.785079241E0,-9.135808945E0,2.486297131E0
3.453156302E0,2.794655800E0,-9.099896431E0,2.371380329E0
3.455596458E0,2.701286077E0,-9.140596390E0,2.526996851E0
3.458035885E0,2.852114201E0,-9.413523674E0,2.213369846E0
3.460475260E0,2.909572601E0,-9.832491875E0,2.182246685E0
3.462915468E0,3.642166853E0,-9.897131920E0,2.534179211E0
3.465355625E0,3.970158339E0,-9.985713959E0,2.505450249E0
3.467795000E0,3.366845131E0,-1.039510441E1,2.304345608E0
3.470234375E0,2.883237600E0,-1.084998322E1,2.615578651E0
3.472674583E0,3.472185850E0,-1.078773689E1,2.651490211E0
3.475114739E0,2.397235155E0,-1.131204414E1,2.371380329E0
3.477554166E0,2.265559912E0,-1.159933567E1,2.455173969E0
3.479993541E0,2.971818924E0,-1.163524723E1,2.459962130E0
3.482433750E0,2.050091028E0,-1.214279652E1,2.495873690E0
3.484873906E0,2.842537642E0,-1.196563339E1,2.345045328E0
3.487313281E0,3.065188885E0,-1.206857967E1,2.854988337E0
3.489752656E0,3.098706245E0,-1.228644276E1,2.699372292E0
3.492192864E0,3.520067692E0,-1.248036480E1,3.240438461E0
3.494633020E0,3.486550331E0,-1.294721317E1,3.858115911E0
3.497072448E0,3.007730484E0,-1.343321514E1,4.420729160E0
3.499511823E0,3.041248083E0,-1.356249619E1,4.686474323E0
3.501952031E0,2.581580877E0,-1.388570023E1,4.715203762E0
3.504392187E0,2.749167919E0,-1.387133598E1,4.494946003E0
3.506831562E0,2.720438719E0,-1.397667599E1,4.135831833E0
3.509270937E0,2.782685280E0,-1.403174019E1,4.025702953E0
3.511711145E0,3.467397451E0,-1.358883190E1,3.501395226E0
3.514151302E0,3.352480650E0,-1.352419186E1,3.405631065E0
3.516590729E0,3.883970737E0,-1.335660458E1,3.326625824E0
3.519030104E0,3.721172094E0,-1.333984566E1,3.273955584E0
3.521470260E0,3.065188885E0,-1.359362030E1,2.797530174E0
3.523910416E0,2.603127718E0,-1.395034027E1,3.180585861E0
3.526349843E0,2.974213362E0,-1.404849815E1,3.044122219E0
3.528789218E0,4.214356422E0,-1.369656658E1,3.190162420E0
3.531229427E0,5.897407532E0,-1.306931210E1,2.883717775E0
3.533669583E0,7.058545589E0,-1.260964584E1,3.513365746E0
3.536108958E0,6.316374779E0,-1.235826588E1,5.012071609E0
3.538548333E0,5.253395081E0,-1.260007000E1,5.632143021E0
3.540988541E0,5.423376083E0,-1.280356789E1,6.601753235E0
3.543428750E0,6.316374779E0,-1.315310669E1,6.766946316E0
3.545868125E0,8.205319405E0,-1.269583321E1,7.226613045E0
3.548307500E0,9.177323341E0,-1.202069759E1,7.791620255E0
3.550747708E0,1.020678520E1,-1.119712734E1,7.229007244E0
3.553187864E0,1.092740917E1,-1.018202972E1,5.421462536E0
3.555627239E0,1.069278812E1,-9.504499435E0,8.272833824E0
3.558066614E0,1.076700592E1,-8.984980583E0,7.200278282E0
3.560506823E0,1.179886150E1,-8.278720856E0,5.332880974E0
3.562946979E0,1.163127422E1,-7.371357918E0,5.919435024E0
3.565386406E0,1.193771935E1,-6.444841862E0,3.855721712E0
3.567825781E0,1.158339214E1,-5.798435211E0,3.872480392E0
3.570265989E0,1.118836689E1,-5.032323360E0,2.831047535E0
3.572706145E0,1.000328732E1,-4.800096035E0,2.550937891E0
3.575145520E0,8.720050812E0,-4.737849712E0,1.509505153E0
3.577584895E0,7.563700676E0,-4.797701836E0,5.135599971E-1
3.580025104E0,6.012324333E0,-5.173575401E0,2.190858424E-1
3.582465260E0,5.047502518E0,-5.518325329E0,-3.387391567E-1
3.584904687E0,4.302937984E0,-5.999539375E0,2.995203435E-2
3.587344062E0,3.797783136E0,-6.286831379E0,-2.990043908E-2
3.589784270E0,2.856902361E0,-6.705798626E0,1.185336858E-1
3.592224427E0,3.172923326E0,-6.636369705E0,1.382617950E0
3.594663802E0,6.007536411E0,-4.814460754E0,1.198272347E0
3.597103177E0,8.009003639E0,-3.461794853E0,9.540741444E-1
3.599543385E0,8.820602417E0,-2.477820396E0,1.531051993E0
3.601983541E0,9.634596825E0,-1.491451502E0,2.268434286E0
3.604422968E0,9.783030510E0,-1.094031096E0,2.131970644E0
3.606862343E0,1.007511044E1,-8.953208923E-1,1.717791677E0
3.609302500E0,1.005356312E1,-7.827982903E-1,1.480775952E0
3.611742656E0,9.723178864E0,-9.288383126E-1,1.404164791E0
3.614182083E0,9.852459908E0,-1.029390454E0,1.605269074E0
3.616621458E0,9.081559181E0,-1.419628501E0,1.849467158E0
3.619061666E0,8.052097321E0,-1.900842428E0,1.583722234E0
3.621501823E0,7.630734921E0,-2.121099472E0,1.291642189E0
3.623941250E0,7.183039188E0,-2.197710752E0,8.032459021E-1
3.626380625E0,6.926869869E0,-2.104340792E0,4.249783456E-1
3.628820781E0,6.653943062E0,-2.070823431E0,1.664156616E-1
3.631260937E0,6.481567860E0,-1.991818190E0,-1.065116003E-1
3.633700364E0,6.127241135E0,-1.824231267E0,-1.352407932E-1
3.636139739E0,5.684332848E0,-1.989423990E0,1.558744162E-2
3.638579948E0,6.895747185E0,-1.778743386E0,-7.912238240E-1
3.641020104E0,7.609188557E0,-1.426810861E0,-1.078515530E0
3.643459479E0,7.908450603E0,-1.225706577E0,-9.683871865E-1
3.645898854E0,7.951544285E0,-1.331046939E0,-5.877254605E-1
3.648339062E0,8.123920441E0,-1.398081660E0,-3.746506572E-1
3.650779218E0,8.224472046E0,-1.395687699E0,1.640215665E-1
3.653218645E0,8.420788765E0,-1.613550544E0,5.327127576E-1
3.655658020E0,8.502187729E0,-1.999000549E0,8.702806830E-1
3.658098229E0,8.506975174E0,-2.496973038E0,1.169543028E0
3.660538385E0,8.387270927E0,-2.820176363E0,1.519081593E0
3.662977760E0,8.368118286E0,-3.193655729E0,2.033812761E0
3.665417135E0,8.169407845E0,-3.615016937E0,2.641913652E0
3.667857343E0,8.169407845E0,-3.887944221E0,2.737677574E0
3.670297500E0,7.858174324E0,-4.350005627E0,3.060880899E0
3.672736927E0,7.712134361E0,-4.713908672E0,2.596426010E0
3.675176302E0,6.993905067E0,-4.843190193E0,2.495873690E0
3.677616510E0,6.893352985E0,-5.125693321E0,1.052232265E0
3.680056666E0,7.410478115E0,-5.298068523E0,9.325272441E-1
3.682496041E0,7.530182838E0,-5.190333843E0,4.584957063E-1
3.684935416E0,6.823924065E0,-5.204698563E0,4.201901257E-1
3.687375625E0,6.788012505E0,-5.077811718E0,-1.304525733E-1
3.689815781E0,6.361863136E0,-5.590148449E0,4.671072960E-2
3.692255208E0,5.708273888E0,-6.191067696E0,-9.396579862E-1
3.694694583E0,5.078626156E0,-6.964361668E0,-1.270043612E0
3.697134791E0,4.276603222E0,-7.835813046E0,-1.267649412E0
3.699574948E0,3.216017246E0,-9.054409027E0,-6.403956413E-1
3.702014323E0,2.471452475E0,-1.033046341E1,-6.619424820E-1
3.704453698E0,1.398896098E0,-1.138386726E1,6.667823195E-1
3.706893906E0,-3.727368712E-1,-1.286820889E1,4.656779766E-1
3.709334062E0,-5.762352347E-1,-1.268865013E1,1.759920716E-1
3.711773437E0,-2.721847594E-1,-1.249712276E1,-1.461571455E0
3.714212812E0,-7.557926774E-1,-1.296636677E1,-1.195826411E0
3.716653020E0,-2.237739801E0,-1.412989902E1,-3.459214866E-1
3.719093229E0,-3.269596338E0,-1.518330193E1,2.837264836E-1
3.721532604E0,-4.153018951E0,-1.635641098E1,8.966158032E-1
3.723971979E0,-4.935888767E0,-1.749360847E1,9.995619655E-1
3.726412187E0,-5.141781330E0,-1.823817062E1,6.428412795E-1
3.728852343E0,-5.364432812E0,-1.900667763E1,6.093239188E-1
3.731291770E0,-6.132938385E0,-1.896118927E1,3.770963252E-1
3.733731145E0,-5.702000618E0,-1.862601471E1,2.956970036E-1
3.736171302E0,-4.617474079E0,-1.856855774E1,8.152164221E-1
3.738611458E0,-4.236812592E0,-1.856616402E1,1.198272347E0
3.741050885E0,-3.722080946E0,-1.843927574E1,1.897349000E0
3.743490260E0,-3.334237099E0,-1.839378738E1,2.785559654E0
3.745930468E0,-3.513794422E0,-1.829323578E1,2.802318335E0
3.748370625E0,-3.372542620E0,-1.819986534E1,3.331414223E0
3.750810000E0,-2.797959089E0,-1.787187576E1,2.201399326E0
3.753249375E0,-2.465179205E0,-1.788384628E1,2.005083561E0
3.755689583E0,-2.139581680E0,-1.742657089E1,1.538234353E0
3.758129739E0,-2.663889408E0,-1.695493507E1,1.995507121E0
3.760569166E0,-2.271257162E0,-1.625825310E1,1.356282830E0
3.763008541E0,-1.804407835E0,-1.546580601E1,1.104902387E0
3.765448750E0,-1.651185632E0,-1.436451912E1,4.082196057E-1
3.767888906E0,-1.950448036E0,-1.302621841E1,1.217425108E0
3.770328281E0,-1.639215112E0,-1.193450928E1,9.277390242E-1
3.772767656E0,-1.150819063E0,-1.085477161E1,3.148497939E-1
3.775207864E0,-5.092005134E-1,-9.363247871E0,-2.091219664E0
3.777648020E0,4.771681428E-1,-9.123837471E0,-2.701714754E0
3.780087448E0,1.240885615E0,-9.693634033E0,-2.160648346E0
3.782526823E0,1.568877220E0,-1.012935925E1,-1.978696704E0
3.784966979E0,1.291161776E0,-9.911496162E0,-1.961938024E0
3.787407135E0,1.319890857E0,-1.034243488E1,-9.492344260E-1
3.789846562E0,1.561694860E0,-1.039749813E1,-6.834893823E-1
3.792285937E0,1.681399822E0,-1.049565697E1,-5.302670598E-1
3.794726145E0,1.513812900E0,-1.059381485E1,9.698680043E-2
3.797166302E0,1.401290298E0,-1.079731274E1,3.052733839E-1
3.799605677E0,1.420443177E0,-1.075900745E1,4.297665358E-1
3.802045052E0,1.638306022E0,-1.061057377E1,7.984577417E-1
3.804485260E0,1.949538827E0,-1.038073921E1,8.080341220E-1
3.806925416E0,2.279924393E0,-1.017724133E1,1.011532545E0
3.809364843E0,2.612704277E0,-9.892343521E0,1.033079505E0
3.811804218E0,3.122647285E0,-9.624204636E0,7.529698610E-1
3.814244427E0,3.646955013E0,-9.387188911E0,6.093239188E-1
3.816684583E0,3.974946499E0,-9.116655350E0,8.535220027E-1
3.819123958E0,4.188021183E0,-8.994556427E0,7.793049216E-1
3.821563333E0,4.396307945E0,-8.814999580E0,9.828032851E-1
3.824003541E0,4.602200508E0,-8.223656654E0,1.282065630E0
3.826443698E0,4.678811550E0,-7.524580479E0,1.270095348E0
3.828883125E0,4.748240471E0,-7.275594234E0,1.435288072E0
3.831322500E0,4.539953709E0,-7.074490070E0,1.674697876E0
3.833762708E0,4.324484825E0,-6.981120110E0,1.751309037E0
3.836202864E0,4.068316460E0,-6.916479588E0,2.098453283E0
3.838642239E0,3.747507095E0,-6.993090630E0,2.033812761E0
3.841081614E0,3.450638771E0,-7.014637470E0,2.009871721E0
3.843521823E0,3.232775688E0,-7.057731152E0,2.076906443E0
3.845961979E0,3.026883364E0,-7.175042152E0,2.045783043E0
3.848401406E0,2.806626320E0,-7.289958477E0,2.067330122E0
3.850840781E0,2.595945597E0,-7.438393116E0,1.964383960E0
3.853280989E0,2.344565153E0,-7.711319923E0,2.146335363E0
3.855721145E0,1.987844467E0,-8.024947166E0,2.347439528E0
3.858160520E0,1.746040463E0,-8.360120773E0,2.335469246E0
3.860599895E0,2.358929634E0,-6.629187584E0,2.227734566E0
3.863040104E0,2.516940355E0,-5.125693321E0,2.668248653E0
3.865480260E0,2.358929634E0,-4.972471237E0,2.586849451E0
3.867919687E0,2.205707550E0,-4.812066555E0,2.498267651E0
3.870359062E0,2.107549429E0,-4.563079834E0,2.668248653E0
3.872799218E0,2.064455509E0,-4.421828747E0,2.838229656E0
3.875239375E0,2.028544188E0,-4.421828747E0,2.857382774E0
3.877678802E0,1.987844467E0,-4.496045589E0,2.969905138E0
3.880118177E0,1.935174227E0,-4.572656631E0,2.996240377E0
3.882558385E0,1.899262905E0,-4.601386070E0,3.072851419E0
3.884998541E0,1.865745544E0,-4.654056072E0,3.010604858E0
3.887437916E0,1.822651625E0,-4.692361355E0,2.984269857E0
3.889877291E0,1.789134264E0,-4.713908672E0,2.828653336E0
3.892317500E0,1.813075304E0,-4.814460754E0,2.608396530E0
3.894757656E0,1.769981503E0,-4.991623878E0,2.424050570E0
3.897197083E0,1.808287144E0,-5.017959118E0,2.433627129E0
3.899636458E0,1.760405064E0,-4.972471237E0,2.412080288E0
3.902076666E0,1.643094301E0,-5.149634361E0,2.299557686E0
3.904516823E0,1.611971021E0,-5.216669083E0,2.273222446E0
3.906956198E0,1.657458901E0,-5.281310081E0,2.141546965E0
3.909395573E0,1.556906700E0,-5.456079006E0,2.127182484E0
3.911835781E0,1.406078458E0,-5.681124687E0,2.199005365E0
3.914275937E0,1.288767576E0,-5.889410973E0,2.352227688E0
3.916715312E0,1.255250216E0,-5.796041012E0,2.924417496E0
3.919154739E0,1.214550614E0,-5.405803204E0,3.139886141E0
3.921594948E0,1.159486294E0,-5.412985325E0,3.410419464E0
3.924035104E0,1.130757093E0,-5.412985325E0,3.522941828E0
3.926474479E0,1.142727613E0,-5.427350044E0,3.386478424E0
3.928913854E0,1.267220736E0,-5.650001049E0,2.945964098E0
3.931354062E0,1.406078458E0,-7.380934715E0,2.696977854E0
3.933794218E0,2.212889671E0,-9.719968796E0,3.046516418E0
3.936233645E0,3.716383696E0,-1.190099239E1,2.153517485E0
3.938673020E0,4.990044594E0,-1.423523903E1,9.349213839E-1
3.941113177E0,5.715456009E0,-1.659821510E1,8.022810519E-2
3.943553333E0,6.134423733E0,-1.884387970E1,-2.956454158E-1
3.945992760E0,6.409745216E0,-2.178143692E1,-1.487906575E0
3.948432135E0,5.713061810E0,-2.380205727E1,-1.830262661E0
3.950872343E0,4.305332184E0,-2.491770744E1,-1.236526251E0
3.953312500E0,2.737197399E0,-2.611236382E1,-4.416854382E-1
3.955751875E0,1.130757093E0,-2.741235733E1,-1.639699638E-1
3.958191250E0,1.271301135E-2,-2.834845161E1,-2.477634251E-1
3.960631458E0,-1.112513423E0,-2.886318207E1,-9.454109520E-2
3.963071614E0,-2.242527962E0,-2.900443268E1,-9.693520516E-2
3.965511041E0,-3.183408737E0,-2.872911072E1,8.022810519E-2
3.967950416E0,-3.173832417E0,-2.776907921E1,6.825761497E-2
3.970390625E0,-2.759653330E0,-2.591604614E1,4.321606159E-1
3.972830781E0,-1.636821032E0,-2.328493118E1,1.181513548E0
3.975270156E0,-2.721847594E-1,-2.042158890E1,1.820737958E0
3.977709531E0,8.410711884E-1,-1.778568840E1,1.942836881E0
3.980149739E0,1.461142778E0,-1.559987450E1,2.005083561E0
3.982589895E0,1.585635900E0,-1.381148338E1,2.287587166E0
3.985029323E0,1.451566339E0,-1.236784172E1,2.541361332E0
3.987468698E0,1.317496896E0,-1.123782730E1,2.546149731E0
3.989908906E0,1.327073216E0,-1.028497601E1,2.445597649E0
3.992349062E0,1.571271300E0,-9.478164673E0,2.325892687E0
3.994788437E0,1.889686346E0,-8.817393303E0,2.254069567E0
3.997227812E0,2.181766510E0,-8.336179733E0,2.266040087E0
3.999668020E0,2.524122477E0,-7.910030365E0,2.323498726E0
4.002108177E0,2.713256598E0,-7.608374119E0,2.440809488E0
4.004547604E0,2.919148922E0,-7.297141075E0,2.615578651E0
4.006986979E0,3.055612564E0,-6.985908031E0,2.764012575E0
4.009427135E0,3.086735725E0,-6.708192348E0,2.816682816E0
4.011867343E0,3.172923326E0,-6.485541344E0,2.854988337E0
4.014306718E0,3.244746208E0,-6.392171383E0,2.938781977E0
4.016746093E0,3.328539848E0,-6.449630260E0,3.005816698E0
4.019186302E0,3.510491133E0,-6.638763905E0,3.001028538E0
4.021626458E0,3.654137135E0,-6.899720669E0,2.864564896E0
4.024065885E0,3.766659737E0,-7.127160072E0,2.752042294E0
4.026505260E0,3.797783136E0,-7.251653194E0,2.761618614E0
4.028945416E0,3.666107655E0,-7.412057400E0,2.828653336E0
4.031385573E0,3.491338491E0,-7.450363636E0,3.053698778E0
4.033825000E0,3.158558846E0,-7.481486320E0,3.400842905E0
4.036264375E0,2.691709518E0,-7.495851040E0,3.518153906E0
4.038704583E0,2.196130991E0,-7.572462559E0,3.226073742E0
4.041144739E0,1.748434663E0,-7.725684643E0,2.783165455E0
4.043584114E0,1.362984776E0,-8.115922928E0,2.232522964E0
4.046023489E0,1.087663412E0,-8.484613419E0,1.837496638E0
4.048463698E0,8.027656078E-1,-8.932309151E0,1.562175274E0
4.050903854E0,4.005569816E-1,-9.315365791E0,1.385011911E0
4.053343281E0,1.228415519E-1,-9.291424751E0,1.389800191E0
4.055782656E0,-3.277486935E-2,-9.224390030E0,1.380223751E0
4.058222864E0,-1.692385077E-1,-9.071167946E0,1.303612709E0
4.060663020E0,-3.296431005E-1,-8.922733307E0,1.236577749E0
4.063102395E0,-5.068064332E-1,-8.826969147E0,1.246154308E0
4.065541770E0,-4.924418330E-1,-8.795846939E0,1.363465071E0
4.067981979E0,-3.033080399E-1,-8.786269188E0,1.562175274E0
4.070422135E0,1.228415519E-1,-8.961039543E0,1.538234353E0
4.072861562E0,2.736697793E-1,-9.238754272E0,1.564569473E0
4.075300937E0,3.766160309E-1,-9.377612114E0,1.641180515E0
4.077741093E0,5.130796432E-1,-9.549987793E0,1.811161518E0
4.080181302E0,6.639078856E-1,-9.617022514E0,2.105635643E0
4.082620677E0,9.368351102E-1,-9.607445717E0,2.388139248E0
4.085060052E0,1.224127054E0,-9.538016319E0,2.632337332E0
4.087500260E0,1.554512620E0,-9.449435234E0,2.847806215E0
4.089940416E0,1.753222704E0,-9.423100471E0,3.092004299E0
4.092379791E0,1.911233425E0,-9.360853195E0,3.226073742E0
4.094819166E0,2.033332348E0,-9.351277351E0,3.336202383E0
4.097259375E0,2.138672829E0,-9.475770950E0,3.312261343E0
4.099699583E0,2.145854950E0,-9.645751953E0,3.288320541E0
4.102138958E0,2.153037310E0,-9.700815201E0,3.288320541E0
4.104578333E0,2.196130991E0,-9.763062477E0,3.161433220E0
4.107018541E0,2.191342831E0,-9.801367760E0,3.024969339E0
4.109458698E0,2.143460989E0,-9.882767677E0,2.799924135E0
4.111898073E0,2.169795990E0,-1.001444244E1,2.579667091E0
4.114337448E0,2.193737030E0,-1.008387184E1,2.359410048E0
4.116777656E0,2.188948631E0,-1.012217712E1,2.170276403E0
4.119217812E0,2.210495710E0,-1.006711292E1,1.990718961E0
4.121657239E0,2.157825470E0,-1.002401829E1,1.775250077E0
4.124096614E0,2.143460989E0,-1.000965500E1,1.665121555E0
4.126536823E0,2.133884430E0,-9.966560364E0,1.593298554E0
4.128976979E0,2.145854950E0,-9.885161400E0,1.507111073E0
4.131416354E0,2.169795990E0,-9.827702522E0,1.531051993E0
4.133855729E0,2.045302868E0,-9.133414268E0,2.158305883E0
4.136295937E0,1.805892944E0,-4.730667114E0,2.766407013E0
4.138736093E0,2.169795990E0,-1.199371576E0,-5.781490803E-1
4.141175520E0,2.198525190E0,-1.378928900E0,-1.511847496E0
4.143614895E0,1.779557824E0,-1.711708665E0,-9.228993058E-1
4.146055104E0,1.351014256E0,-3.023674726E0,6.069298387E-1
4.148495260E0,1.137939334E0,-5.061053276E0,2.395321369E0
4.150934635E0,1.042175531E0,-6.511876583E0,3.709681749E0
4.153374010E0,1.082875133E0,-7.064913750E0,4.320177078E0
4.155814218E0,1.351014256E0,-6.820715427E0,4.301023960E0
4.158254375E0,1.501842380E0,-6.282042980E0,3.635464668E0
4.160693802E0,1.583241701E0,-5.975598335E0,2.900476456E0
4.163133177E0,1.511418819E0,-6.061786175E0,2.110423803E0
4.165573333E0,1.403684378E0,-6.727345467E0,1.552598953E0
4.168013541E0,1.401290298E0,-7.426422596E0,1.246154308E0
4.170452916E0,1.351014256E0,-8.257174492E0,9.301331639E-1
4.172892291E0,1.319890857E0,-8.925127983E0,8.295809627E-1
4.175332500E0,1.255250216E0,-9.545199394E0,7.050878406E-1
4.177772656E0,1.295949936E0,-1.010541821E1,5.422891378E-1
4.180212031E0,1.453960538E0,-1.045256233E1,8.223987222E-1
4.182651406E0,1.475507379E0,-1.086913586E1,1.035473466E0
4.185091614E0,1.482689619E0,-1.137668419E1,1.138419747E0
4.187531770E0,1.652670622E0,-1.177171135E1,1.306006670E0
4.189971198E0,1.853775024E0,-1.211885548E1,1.396982431E0
4.192410573E0,2.038120508E0,-1.247318172E1,1.633998275E0
4.194850781E0,2.306259394E0,-1.269104481E1,1.763279557E0
4.197290937E0,2.452299833E0,-1.295678997E1,1.851861119E0
4.199730312E0,2.497787476E0,-1.315550041E1,1.959595680E0
4.202169687E0,2.524122477E0,-1.333266354E1,1.945231080E0
4.204609895E0,2.516940355E0,-1.349067402E1,1.820737958E0
4.207050052E0,2.567216396E0,-1.355770874E1,1.741732717E0
4.209489479E0,2.564822197E0,-1.345476246E1,1.641180515E0
4.211928854E0,2.572004557E0,-1.345955086E1,1.564569473E0
4.214369062E0,2.643827438E0,-1.313874149E1,1.411347032E0
4.216809218E0,2.653403997E0,-1.281075001E1,1.339524031E0
4.219248593E0,2.725226879E0,-1.222898388E1,1.329947710E0
4.221687968E0,2.799443960E0,-1.162806511E1,1.337130070E0
4.224128177E0,2.804232359E0,-1.108221054E1,1.337130070E0
4.226568333E0,2.842537642E0,-1.065845585E1,1.231789708E0
4.229007760E0,2.935907602E0,-1.032567596E1,1.284459829E0
4.231447135E0,2.907178402E0,-1.026582241E1,1.320371270E0
4.233887291E0,2.945483923E0,-1.016766453E1,1.420923471E0
4.236327500E0,2.916754723E0,-9.930649757E0,1.447258592E0
4.238766875E0,3.163347006E0,-9.459012032E0,1.578933954E0
4.241206250E0,3.431485891E0,-8.850910187E0,1.669909716E0
4.243646458E0,3.711595535E0,-8.415184975E0,1.823132038E0
4.246086614E0,3.749901295E0,-8.101557732E0,1.976354480E0
4.248526041E0,3.730748177E0,-7.933970928E0,2.024236202E0
4.250965416E0,3.579920292E0,-7.989035606E0,2.122394323E0
4.253405573E0,3.208834648E0,-8.010581970E0,2.737677574E0
4.255845729E0,2.653403997E0,-8.398426056E0,3.388872385E0
4.258285156E0,1.645488381E0,-9.717574120E0,2.522208691E0
4.260724531E0,8.698003888E-1,-1.099841785E1,2.773589134E0
4.263164739E0,5.777202845E-1,-1.192253971E1,7.601521015E-1
4.265604895E0,-3.176726401E-1,-1.302621841E1,9.875915647E-1
4.268044270E0,-7.605808973E-1,-1.296876049E1,1.136025786E0
4.270483645E0,-1.117301583E0,-1.245403004E1,1.272489309E0
4.272923854E0,-1.043084502E0,-1.179325771E1,1.124055266E0
4.275364010E0,-6.025703549E-1,-1.122585678E1,5.398950577E-1
4.277803437E0,-1.429034173E-1,-1.095771790E1,-1.711522639E-1
4.280242812E0,4.101333916E-1,-1.096490002E1,-6.571543217E-1
4.282683020E0,9.248646498E-1,-1.094335270E1,-7.529182434E-1
4.285123177E0,1.252856135E0,-1.085477161E1,-5.350552797E-1
4.287562552E0,1.528177500E0,-1.077816010E1,-2.645221055E-1
4.290001927E0,1.825045705E0,-1.073267269E1,8.501631021E-2
4.292442135E0,2.105155468E0,-1.068957901E1,4.991953969E-1
4.294882291E0,2.346959352E0,-1.072548962E1,7.601521015E-1
4.297321718E0,2.516940355E0,-1.080449581E1,1.057020426E0
4.299761093E0,2.670162439E0,-1.087871265E1,1.418529272E0
4.302201250E0,2.864084482E0,-1.092898846E1,1.832708478E0
4.304641458E0,3.038853645E0,-1.097926426E1,2.100847483E0
4.307080833E0,3.151376486E0,-1.101996422E1,2.270828485E0
4.309520208E0,3.268687248E0,-1.103432846E1,2.447991610E0
4.311960416E0,3.347692490E0,-1.107742214E1,2.572484970E0
4.314400573E0,3.433880091E0,-1.114206314E1,2.606002092E0
4.316839948E0,3.469791412E0,-1.115163994E1,2.720918894E0
4.319279323E0,3.450638771E0,-1.116360950E1,2.783165455E0
4.321719531E0,3.412333250E0,-1.123782730E1,2.732889414E0
4.324159687E0,3.345298529E0,-1.128092098E1,2.589243412E0
4.326599114E0,3.290234327E0,-1.123303890E1,2.457568169E0
4.329038489E0,3.168135166E0,-1.110615158E1,2.368986368E0
4.331478698E0,3.084341764E0,-1.091462326E1,2.278010607E0
4.333918854E0,2.921542883E0,-1.074703693E1,2.122394323E0
4.336358229E0,2.770714760E0,-1.056269169E1,2.081694603E0
4.338797604E0,2.598339796E0,-1.034243488E1,2.019448042E0
4.341237812E0,2.447511435E0,-1.011260033E1,1.875802159E0
4.343677968E0,2.296683311E0,-9.863615036E0,1.815949798E0
4.346117395E0,2.153037310E0,-9.571534157E0,1.732156277E0
4.348556770E0,2.040514708E0,-9.202843666E0,1.617239594E0
4.350996979E0,1.860957265E0,-8.716841698E0,1.564569473E0
4.353437135E0,1.662246943E0,-8.352937698E0,1.385011911E0
4.355876510E0,1.468325019E0,-8.091981888E0,1.308400750E0
4.358315885E0,1.269614816E0,-7.960306644E0,1.224607348E0
4.360756093E0,1.090057492E0,-7.704137802E0,1.102508307E0
4.363196250E0,9.511997700E-1,-7.737655163E0,1.191089869E0
4.365635677E0,8.793767691E-1,-7.574856758E0,1.033079505E0
4.368075052E0,8.650121689E-1,-7.548521519E0,1.057020426E0
4.370515208E0,8.362829685E-1,-7.464727879E0,1.016320825E0
4.372955416E0,8.219183683E-1,-7.670620441E0,1.229395509E0
4.375394791E0,8.458593488E-1,-7.907636166E0,1.351494551E0
4.377834166E0,8.841649294E-1,-8.300268173E0,1.614845395E0
4.380274375E0,9.871112108E-1,-8.645018578E0,1.871013999E0
4.382714531E0,1.118786573E0,-8.872457504E0,2.218158245E0
4.385153906E0,1.245673895E0,-8.958645821E0,2.366592407E0
4.387593281E0,1.396502137E0,-9.102290154E0,2.488691330E0
4.390033489E0,1.537753820E0,-9.164537430E0,2.526996851E0
4.392473645E0,1.647882462E0,-9.162143707E0,2.656278133E0
4.394913073E0,1.769981503E0,-9.119050026E0,2.799924135E0
4.397352448E0,1.889686346E0,-9.004132271E0,2.740071774E0
4.399792656E0,1.896868706E0,-8.980191231E0,2.888505936E0
4.402232812E0,1.968691707E0,-8.949069023E0,2.948358536E0
4.404672187E0,2.050091028E0,-8.903580666E0,2.943570137E0
4.407111562E0,2.086002588E0,-8.834151268E0,3.041728258E0
4.409551770E0,2.131490469E0,-8.757540703E0,3.175797701E0
4.411991927E0,2.150643349E0,-8.695294380E0,3.295502663E0
4.414431354E0,2.162613630E0,-8.630653381E0,3.264379501E0
4.416870729E0,2.157825470E0,-8.532495499E0,3.475060225E0
4.419310937E0,2.191342831E0,-8.472642899E0,3.415207624E0
4.421751093E0,2.210495710E0,-8.491796494E0,3.410419464E0
4.424190468E0,2.107549429E0,-8.477431297E0,3.458301544E0
4.426629843E0,2.042908669E0,-8.496583939E0,3.422389984E0
4.429070052E0,1.939962506E0,-8.506160736E0,3.372113943E0
4.431510208E0,1.803498864E0,-8.498977661E0,3.324231863E0
4.433949635E0,1.731675863E0,-8.479825974E0,3.261985064E0
4.436389010E0,1.671823502E0,-8.498977661E0,3.250014782E0
4.438829166E0,1.698158503E0,-8.501372337E0,3.137492180E0
4.441269323E0,1.669429421E0,-8.551648140E0,3.111157179E0
4.443708750E0,1.707734823E0,-8.625865936E0,3.058486938E0
4.446148125E0,1.762799263E0,-8.690505981E0,2.962723017E0
4.448588333E0,1.834622145E0,-8.755146980E0,2.843017817E0
4.451028489E0,1.971085787E0,-8.843729019E0,2.749648094E0
4.453467864E0,2.062061548E0,-8.937098503E0,2.685007334E0
4.455907239E0,2.179372549E0,-9.073561668E0,2.634731531E0
4.458347448E0,2.337383032E0,-9.214813232E0,2.584455490E0
4.460787604E0,2.483422995E0,-9.363247871E0,2.486297131E0
4.463227031E0,2.574398756E0,-9.554775238E0,2.426445007E0
4.465666406E0,2.753956079E0,-9.636174202E0,2.426445007E0
4.468106614E0,2.878449202E0,-9.782214165E0,2.392927408E0
4.470546770E0,2.988577843E0,-9.918678284E0,2.409686089E0
4.472986145E0,3.110676765E0,-1.009823704E1,2.397715569E0
4.475425520E0,3.268687248E0,-1.019639492E1,2.335469246E0
4.477865729E0,3.362057209E0,-1.032088757E1,2.306740046E0
4.480305885E0,3.381210089E0,-1.048847485E1,2.287587166E0
4.482745312E0,3.503309011E0,-1.060817909E1,2.237310886E0
4.485184687E0,3.551191092E0,-1.066563797E1,2.163094044E0
4.487624895E0,3.627801895E0,-1.072070122E1,2.115211964E0
4.490065052E0,3.642166853E0,-1.079491901E1,2.026630402E0
4.492504427E0,3.692442656E0,-1.079252434E1,1.961989760E0
4.494943802E0,3.694837093E0,-1.079013062E1,1.899743199E0
4.497384010E0,3.754689217E0,-1.076858330E1,1.880590439E0
4.499824166E0,3.773842335E0,-1.069436646E1,1.830314279E0
4.502263593E0,3.747507095E0,-1.062733173E1,1.751309037E0
4.504702968E0,3.785812855E0,-1.045256233E1,1.753703117E0
4.507143125E0,3.840877056E0,-1.029215813E1,1.736944556E0
4.509583281E0,3.941428900E0,-1.007908344E1,1.739338517E0
4.512022708E0,3.917488098E0,-9.973742485E0,1.780038357E0
4.514462083E0,3.864818096E0,-9.856432915E0,1.820737958E0
4.516902291E0,3.749901295E0,-9.803761482E0,1.856649399E0
4.519342448E0,3.646955013E0,-9.698421478E0,1.866225839E0
4.521781823E0,3.539220572E0,-9.650539398E0,1.916501880E0
4.524221198E0,3.474579811E0,-9.533228874E0,1.973960280E0
4.526661406E0,3.378815651E0,-9.466193199E0,2.052965403E0
4.529101562E0,3.309386969E0,-9.363247871E0,2.148729324E0
4.531540989E0,3.196864128E0,-9.279454231E0,2.230128765E0
4.533980364E0,3.108282804E0,-9.200448990E0,2.330680847E0
4.536420573E0,3.019701004E0,-9.157355309E0,2.395321369E0
4.538860729E0,2.967030764E0,-9.109473228E0,2.491085529E0
4.541300104E0,2.902390242E0,-9.092714310E0,2.524602890E0
4.543739479E0,2.840143681E0,-9.154961586E0,2.474326611E0
4.546179687E0,2.818596840E0,-8.975403786E0,2.620366812E0
4.548619843E0,2.804232359E0,-8.894004822E0,2.701766253E0
4.551059218E0,2.773108721E0,-8.805422783E0,2.799924135E0
4.553498593E0,2.761138201E0,-8.738387108E0,2.787953615E0
4.555938802E0,2.718044519E0,-8.652200699E0,2.838229656E0
4.558378958E0,2.674950838E0,-8.618682861E0,2.811894655E0
4.560818385E0,2.631856918E0,-8.618682861E0,2.764012575E0
4.563257760E0,2.619886398E0,-8.645018578E0,2.744859934E0
4.565697968E0,2.627068758E0,-8.707264900E0,2.749648094E0
4.568138125E0,2.617492437E0,-8.798240662E0,2.689795732E0
4.570577500E0,2.574398756E0,-8.810210228E0,2.629943132E0
4.573016875E0,2.619886398E0,-8.793452263E0,2.641913652E0
4.575457083E0,2.605521917E0,-8.786269188E0,2.637125492E0
4.577897239E0,2.593551397E0,-8.743176460E0,2.673036814E0
4.580336666E0,2.574398756E0,-8.731205940E0,2.658672333E0
4.582776041E0,2.588763237E0,-8.712052345E0,2.658672333E0
4.585216250E0,2.579186678E0,-8.692900658E0,2.620366812E0
4.587656406E0,2.583975077E0,-8.690505981E0,2.608396530E0
4.590095781E0,2.550457716E0,-8.697688103E0,2.584455490E0
4.592535156E0,2.569610596E0,-8.702476501E0,2.565302372E0
4.594975364E0,2.538487196E0,-8.702476501E0,2.558120251E0
4.597415520E0,2.562428236E0,-8.724023819E0,2.558120251E0
4.599854948E0,2.586369276E0,-8.764723778E0,2.558120251E0
4.602294323E0,2.634251356E0,-8.800634384E0,2.517420769E0
4.604734531E0,2.629462957E0,-8.848516464E0,2.515026331E0
4.607174687E0,2.662980318E0,-8.838940620E0,2.491085529E0
4.609614062E0,2.708468199E0,-8.874851227E0,2.479115009E0
4.612053437E0,2.777896881E0,-8.939492226E0,2.510238171E0
4.614493645E0,2.847326040E0,-8.961039543E0,2.493479729E0
4.616933802E0,2.897602081E0,-9.037650108E0,2.510238171E0
4.619373229E0,2.959848404E0,-9.073561668E0,2.510238171E0
4.621812604E0,3.024489164E0,-9.099896431E0,2.471932650E0
4.624252760E0,3.096312284E0,-9.116655350E0,2.455173969E0
4.626692916E0,3.137012005E0,-9.154961586E0,2.407291889E0
4.629132343E0,3.204046726E0,-9.198054314E0,2.390533447E0
4.631571718E0,3.216017246E0,-9.221995354E0,2.373774767E0
4.634011927E0,3.297416449E0,-9.212419510E0,2.383350849E0
4.636452083E0,3.338116169E0,-9.221995354E0,2.392927408E0
4.638891458E0,3.371633530E0,-9.207631111E0,2.443203449E0
4.641330833E0,3.385998249E0,-9.188478470E0,2.455173969E0
4.643771041E0,3.378815651E0,-9.176507950E0,2.459962130E0
4.646211198E0,3.350086689E0,-9.145384789E0,2.457568169E0
4.648650625E0,3.304598808E0,-9.102290154E0,2.476721048E0
4.651090000E0,3.297416449E0,-9.049620628E0,2.476721048E0
4.653530208E0,3.239958048E0,-8.992162704E0,2.447991610E0
4.655970364E0,3.199258566E0,-8.968221664E0,2.443203449E0
4.658409739E0,3.218411207E0,-8.901186943E0,2.433627129E0
4.660849114E0,3.199258566E0,-8.850910187E0,2.404897928E0
4.663289323E0,3.211229086E0,-8.786269188E0,2.412080288E0
4.665729479E0,3.232775688E0,-8.714447021E0,2.424050570E0
4.668168906E0,3.244746208E0,-8.668959618E0,2.440809488E0
4.670608281E0,3.239958048E0,-8.604318619E0,2.455173969E0
4.673048437E0,3.290234327E0,-8.568407059E0,2.491085529E0
4.675488645E0,3.335721970E0,-8.510948181E0,2.531785250E0
4.677928020E0,3.397968769E0,-8.472642899E0,2.536573410E0
4.680367395E0,3.443456411E0,-8.417578697E0,2.531785250E0
4.682807604E0,3.510491133E0,-8.374485016E0,2.565302372E0
4.685247760E0,3.555979252E0,-8.345755577E0,2.584455490E0
4.687687135E0,3.608649254E0,-8.305055618E0,2.608396530E0
4.690126510E0,3.646955013E0,-8.276327133E0,2.634731531E0
4.692566718E0,3.666107655E0,-8.257174492E0,2.646701813E0
4.695006875E0,3.690048695E0,-8.226051331E0,2.639519691E0
4.697446302E0,3.735536575E0,-8.206897736E0,2.649096012E0
4.699885677E0,3.730748177E0,-8.202110291E0,2.639519691E0
4.702325885E0,3.759477377E0,-8.190139771E0,2.644307613E0
4.704766041E0,3.769053936E0,-8.185351372E0,2.651490211E0
4.707205416E0,3.795388937E0,-8.185351372E0,2.644307613E0
4.709644791E0,3.788206816E0,-8.180562973E0,2.615578651E0
4.712085000E0,3.807359457E0,-8.218868256E0,2.613184452E0
4.714525156E0,3.843271017E0,-8.194927216E0,2.615578651E0
4.716964583E0,3.819329977E0,-8.194927216E0,2.610790491E0
4.719403958E0,3.848059177E0,-8.209292412E0,2.610790491E0
4.721844114E0,3.852847576E0,-8.209292412E0,2.591637611E0
4.724284323E0,3.816936016E0,-8.245203972E0,2.579667091E0
4.726723698E0,3.833694458E0,-8.240415573E0,2.565302372E0
4.729163073E0,3.821723938E0,-8.245203972E0,2.560514450E0
4.731603281E0,3.802571297E0,-8.266750336E0,2.538967371E0
4.734043437E0,3.766659737E0,-8.271538734E0,2.512632370E0
4.736482864E0,3.718777657E0,-8.259568214E0,2.498267651E0
4.738922239E0,3.730748177E0,-8.281115532E0,2.483903170E0
4.741362395E0,3.666107655E0,-8.300268173E0,2.469538689E0
4.743802604E0,3.613437414E0,-8.324209213E0,2.476721048E0
4.746241979E0,3.577526093E0,-8.350543976E0,2.481509209E0
4.748681354E0,3.524855852E0,-8.372091293E0,2.469538689E0
4.751121562E0,3.493732452E0,-8.367302895E0,2.436021090E0
4.753561718E0,3.443456411E0,-8.355332375E0,2.433627129E0
4.756001093E0,3.357269049E0,-8.355332375E0,2.440809488E0
4.758440468E0,3.285445929E0,-8.355332375E0,2.436021090E0
4.760880677E0,3.237564087E0,-8.326602936E0,2.459962130E0
4.763320833E0,3.192076206E0,-8.328996658E0,2.452780008E0
4.765760260E0,3.177711487E0,-8.309844971E0,2.476721048E0
4.768199635E0,3.153770447E0,-8.312238693E0,2.493479729E0
4.770639843E0,3.108282804E0,-8.259568214E0,2.519814730E0
4.773080000E0,3.110676765E0,-8.249992371E0,2.570090771E0
4.775519375E0,3.086735725E0,-8.235627174E0,2.586849451E0
4.777958750E0,3.079553604E0,-8.214080811E0,2.625154972E0
4.780398958E0,3.091523886E0,-8.197321892E0,2.651490211E0
4.782839114E0,3.144194365E0,-8.159016609E0,2.704160213E0
4.785278489E0,3.184893847E0,-8.137469292E0,2.723313093E0
4.787717864E0,3.206440687E0,-8.125498772E0,2.775983095E0
4.790158073E0,3.278263807E0,-8.113528252E0,2.790347815E0
4.792598229E0,3.352480650E0,-8.127892494E0,2.792742014E0
4.795037656E0,3.419515610E0,-8.113528252E0,2.799924135E0
4.797477031E0,3.529644012E0,-8.123105049E0,2.807106495E0
4.799917239E0,3.611043453E0,-8.161410332E0,2.835835695E0
4.802357395E0,3.711595535E0,-8.149439812E0,2.821471214E0
4.804796770E0,3.826512337E0,-8.182957649E0,2.828653336E0
4.807236145E0,3.931852818E0,-8.197321892E0,2.807106495E0
4.809676354E0,4.034799099E0,-8.257174492E0,2.809500694E0
4.812116510E0,4.137745380E0,-8.297874451E0,2.828653336E0
4.814555937E0,4.243085384E0,-8.317026138E0,2.809500694E0
4.816995312E0,4.324484825E0,-8.376878738E0,2.804712534E0
4.819435520E0,4.448977947E0,-8.446308136E0,2.795135975E0
4.821875677E0,4.504042625E0,-8.482219696E0,2.773589134E0
4.824315052E0,4.616565228E0,-8.525313377E0,2.783165455E0
4.826754427E0,4.690782070E0,-8.582771301E0,2.773589134E0
4.829194635E0,4.750634670E0,-8.652200699E0,2.802318335E0
4.831634791E0,4.779363632E0,-8.745570183E0,2.768800974E0
4.834074166E0,4.841609955E0,-8.812604904E0,2.764012575E0
4.836513541E0,4.891886711E0,-8.884428024E0,2.761618614E0
4.838953750E0,4.903857231E0,-8.958645821E0,2.742465973E0
4.841393906E0,4.913433075E0,-9.044832230E0,2.720918894E0
4.843833333E0,4.920615673E0,-9.119050026E0,2.716130733E0
4.846272708E0,4.923009396E0,-9.221995354E0,2.685007334E0
4.848712916E0,4.920615673E0,-9.296212196E0,2.675431252E0
4.851153073E0,4.882309914E0,-9.377612114E0,2.629943132E0
4.853592448E0,4.896674633E0,-9.461405754E0,2.548543930E0
4.856031823E0,4.865550995E0,-9.533228874E0,2.515026331E0
4.858472031E0,4.827245712E0,-9.554775238E0,2.486297131E0
4.860912187E0,4.784152031E0,-9.612233162E0,2.424050570E0
4.863351614E0,4.709935188E0,-9.590687752E0,2.428838968E0
4.865790989E0,4.652476311E0,-9.612233162E0,2.433627129E0
4.868231198E0,4.561500549E0,-9.585898399E0,2.433627129E0
4.870671354E0,4.501647949E0,-9.535622597E0,2.443203449E0
4.873110729E0,4.437007427E0,-9.470982552E0,2.488691330E0
4.875550104E0,4.384337425E0,-9.406341553E0,2.548543930E0
4.877990312E0,4.322091103E0,-9.301001549E0,2.608396530E0
4.880430468E0,4.259843826E0,-9.226784706E0,2.685007334E0
4.882869895E0,4.190415382E0,-9.178902626E0,2.787953615E0
4.885309270E0,4.142533302E0,-9.087926865E0,2.926811457E0
4.887749427E0,4.092257023E0,-8.994556427E0,3.087216139E0
4.890189583E0,4.049163342E0,-8.922733307E0,3.266773462E0
4.892629010E0,4.001281738E0,-8.877245903E0,3.508577347E0
4.895068385E0,3.986917019E0,-8.814999580E0,3.697711229E0
4.897508593E0,3.953399420E0,-8.793452263E0,3.898815393E0
4.899948750E0,3.977340460E0,-8.771905899E0,4.037673473E0
4.902388125E0,3.991705179E0,-8.795846939E0,4.152590275E0
4.904827500E0,4.030010700E0,-8.829363823E0,4.245960236E0
4.907267708E0,4.073104382E0,-8.877245903E0,4.296236038E0
4.909707864E0,4.106621742E0,-8.973009109E0,4.272294998E0
4.912147291E0,4.188021183E0,-9.049620628E0,4.253142357E0
4.914586666E0,4.267026424E0,-9.133414268E0,4.186107635E0
4.917026875E0,4.343637466E0,-9.190872192E0,4.145408154E0
4.919467031E0,4.413066387E0,-9.303395271E0,4.052038193E0
4.921906406E0,4.489677429E0,-9.372824669E0,3.949091673E0
4.924345781E0,4.566288948E0,-9.439858437E0,3.860509872E0
4.926785989E0,4.659658432E0,-9.487740517E0,3.740804911E0
4.929226145E0,4.733875275E0,-9.490134239E0,3.613917589E0
4.931665573E0,4.822457314E0,-9.535622597E0,3.501395226E0
4.934104948E0,4.846398354E0,-9.578716278E0,3.391266584E0
4.936545104E0,4.887097836E0,-9.588292122E0,3.276350021E0
4.938985260E0,4.860763073E0,-9.600263596E0,3.221285582E0
4.941424687E0,4.841609955E0,-9.588292122E0,3.130309820E0
4.943864062E0,4.827245712E0,-9.545199394E0,3.060880899E0
4.946304270E0,4.772181511E0,-9.509287834E0,3.015393257E0
4.948744427E0,4.721905231E0,-9.561957359E0,2.977087498E0
4.951183802E0,4.628535271E0,-9.640963554E0,2.953146458E0
4.953623177E0,4.563894272E0,-9.846855164E0,2.919629097E0
4.956063385E0,4.413066387E0,-1.014132977E1,2.874141216E0
4.958503541E0,4.281391144E0,-1.058423901E1,2.778377533E0
4.960942968E0,4.118592262E0,-1.104390526E1,2.708948374E0
4.963382343E0,3.927064419E0,-1.154427147E1,2.596426010E0
4.965822552E0,3.737930775E0,-1.199436283E1,2.512632370E0
4.968262708E0,3.572737694E0,-1.241332912E1,2.457568169E0
4.970702083E0,3.405150890E0,-1.277723217E1,2.409686089E0
4.973141458E0,3.227987766E0,-1.306931210E1,2.397715569E0
4.975581666E0,3.081947565E0,-1.327999401E1,2.380956888E0
4.978021823E0,2.849720001E0,-1.343082142E1,2.328286648E0
4.980461198E0,2.595945597E0,-1.345715618E1,2.357015848E0
4.982900573E0,2.248801231E0,-1.330632877E1,2.404897928E0
4.985340781E0,1.798710585E0,-1.302382469E1,2.436021090E0
4.987780937E0,1.231309295E0,-1.269822788E1,2.486297131E0
4.990220364E0,5.513852239E-1,-1.230080700E1,2.510238171E0
4.992659739E0,-5.192765966E-2,-1.185311031E1,2.565302372E0
4.995099948E0,-5.546883941E-1,-1.141020298E1,2.594031572E0
4.997540104E0,-8.778917789E-1,-1.109896946E1,2.617972612E0
4.999979479E0,-1.023931742E0,-1.091941166E1,2.639519691E0
5.002418854E0,-1.021537662E0,-1.079013062E1,2.646701813E0
5.004859062E0,-9.066209197E-1,-1.070154858E1,2.677825212E0
5.007299218E0,-5.834175944E-1,-1.064169693E1,2.632337332E0
5.009738645E0,-1.165683120E-1,-1.059860229E1,2.589243412E0
5.012178020E0,5.394147635E-1,-1.061536121E1,2.436021090E0
5.014618229E0,1.178639174E0,-1.075422001E1,2.201399326E0
5.017058385E0,1.726887703E0,-1.091222954E1,1.971566200E0
5.019497760E0,2.200919151E0,-1.121149158E1,1.705821157E0
5.021937135E0,2.591157198E0,-1.154905987E1,1.456834912E0
5.024377343E0,2.818596840E0,-1.191296291E1,1.291642189E0
5.026817500E0,2.955060244E0,-1.229362488E1,1.270095348E0
5.029256927E0,3.014912844E0,-1.259049225E1,1.358676910E0
5.031696302E0,2.935907602E0,-1.278441429E1,1.554993033E0
5.034136458E0,2.799443960E0,-1.281793213E1,1.806373358E0
5.036576614E0,2.629462957E0,-1.264076900E1,2.031418562E0
5.039016041E0,2.452299833E0,-1.235826588E1,2.239705086E0
5.041455416E0,2.294289112E0,-1.197760391E1,2.282799006E0
5.043895625E0,2.102761269E0,-1.158018398E1,2.335469246E0
5.046335781E0,1.992632627E0,-1.116121578E1,2.335469246E0
5.048775156E0,1.889686346E0,-1.076858330E1,2.323498726E0
5.051214531E0,1.848986745E0,-1.043580341E1,2.151123524E0
5.053654739E0,1.858563066E0,-1.008626556E1,1.911713719E0
5.056094895E0,1.837016225E0,-9.813338280E0,1.665121555E0
5.058534323E0,1.808287144E0,-9.557169914E0,1.310794950E0
5.060973698E0,1.762799263E0,-9.312971115E0,9.971679449E-1
5.063413906E0,1.623941541E0,-9.116655350E0,7.098760605E-1
5.065854062E0,1.499448419E0,-8.992162704E0,4.369488060E-1
5.068293437E0,1.406078458E0,-8.826969147E0,1.305041909E-1
5.070732812E0,1.317496896E0,-8.697688103E0,-2.271813154E-2
5.073173020E0,1.243279696E0,-8.558830261E0,-2.022755444E-1
5.075613177E0,1.219338775E0,-8.388849258E0,-2.549457252E-1
5.078052552E0,1.319890857E0,-8.166198730E0,-3.411332965E-1
5.080491927E0,1.406078458E0,-7.984247684E0,-3.243745863E-1
5.082932135E0,1.532965779E0,-7.823842525E0,-2.669162154E-1
