"Time (s)","Gyroscope x (rad/s)","Gyroscope y (rad/s)","Gyroscope z (rad/s)"
4.180908000E-3,6.475171447E-2,3.952298164E-1,6.389650702E-1
6.042480000E-3,6.475171447E-2,3.952298164E-1,6.389650702E-1
8.026123000E-3,6.475171447E-2,3.952298164E-1,6.389650702E-1
1.004028300E-2,6.475171447E-2,3.952298164E-1,6.389650702E-1
1.202392600E-2,6.475171447E-2,3.952298164E-1,6.389650702E-1
1.403808600E-2,6.475171447E-2,3.952298164E-1,6.389650702E-1
1.602172900E-2,6.475171447E-2,3.952298164E-1,6.389650702E-1
1.803588900E-2,6.475171447E-2,3.952298164E-1,6.389650702E-1
2.001953100E-2,6.475171447E-2,3.952298164E-1,6.389650702E-1
2.203369100E-2,6.475171447E-2,3.952298164E-1,6.389650702E-1
2.404785200E-2,6.475171447E-2,3.952298164E-1,6.389650702E-1
2.603149400E-2,6.475171447E-2,3.952298164E-1,6.389650702E-1
2.804565400E-2,6.475171447E-2,3.952298164E-1,6.389650702E-1
3.002929700E-2,6.475171447E-2,3.952298164E-1,6.389650702E-1
3.204345700E-2,6.475171447E-2,3.952298164E-1,6.389650702E-1
3.402710000E-2,6.475171447E-2,3.952298164E-1,6.389650702E-1
3.601074200E-2,6.475171447E-2,3.952298164E-1,6.389650702E-1
3.799438500E-2,6.475171447E-2,3.952298164E-1,6.389650702E-1
3.997802700E-2,6.475171447E-2,3.952298164E-1,6.389650702E-1
4.199218800E-2,6.475171447E-2,3.952298164E-1,6.389650702E-1
4.394531300E-2,6.475171447E-2,3.952298164E-1,6.389650702E-1
4.595947300E-2,6.475171447E-2,3.952298164E-1,6.389650702E-1
4.794311500E-2,6.475171447E-2,3.952298164E-1,6.389650702E-1
4.995727500E-2,6.475171447E-2,3.952298164E-1,6.389650702E-1
5.194091800E-2,6.475171447E-2,3.952298164E-1,6.389650702E-1
5.392456100E-2,6.475171447E-2,3.952298164E-1,6.389650702E-1
5.590820300E-2,6.475171447E-2,3.952298164E-1,6.389650702E-1
5.792236300E-2,6.475171447E-2,3.952298164E-1,6.389650702E-1
5.990600600E-2,6.475171447E-2,3.952298164E-1,6.389650702E-1
6.188964800E-2,6.475171447E-2,3.952298164E-1,6.389650702E-1
6.387329100E-2,6.475171447E-2,3.952298164E-1,6.389650702E-1
6.585693400E-2,6.475171447E-2,3.952298164E-1,6.389650702E-1
6.787109400E-2,6.505714655E-1,3.518583775E-1,-1.236391306E0
6.985473600E-2,6.029239893E-1,3.274237812E-1,-1.285260439E0
7.186889700E-2,5.729916096E-1,3.194825351E-1,-1.308473349E0
7.385253900E-2,5.039638281E-1,3.005456924E-1,-1.352455616E0
7.586669900E-2,4.312708676E-1,2.852740586E-1,-1.392161846E0
7.785034200E-2,3.909537494E-1,2.803871334E-1,-1.412931323E0
7.983398400E-2,3.072652221E-1,2.657263875E-1,-1.451415777E0
8.184814500E-2,2.620611787E-1,2.535090744E-1,-1.470352650E0
8.380127000E-2,1.637118906E-1,2.370157093E-1,-1.496619821E0
8.581543000E-2,6.230825558E-2,2.174680233E-1,-1.525941372E0
8.779907200E-2,1.099557430E-2,2.052507252E-1,-1.538158655E0
8.981323200E-2,-1.001819000E-1,1.850921661E-1,-1.552208543E0
9.179687500E-2,-2.186897546E-1,1.679879427E-1,-1.568701982E0
9.381103500E-2,-2.779437006E-1,1.612684280E-1,-1.569923639E0
9.579467800E-2,-3.921754956E-1,1.484402567E-1,-1.577254057E0
9.780883800E-2,-5.021312237E-1,1.441642046E-1,-1.566869378E0
9.979248000E-2,-5.546656251E-1,1.374446750E-1,-1.558317184E0
1.018371580E-1,-6.517932415E-1,1.313360333E-1,-1.529606581E0
1.037902830E-1,-7.360926270E-1,1.197295859E-1,-1.486235142E0
1.057739260E-1,-7.764097452E-1,1.221730486E-1,-1.466687441E0
1.077575680E-1,-8.503243923E-1,1.356120855E-1,-1.407433510E0
1.097412110E-1,-9.187413454E-1,1.649336219E-1,-1.337184072E0
1.117248540E-1,-9.517280459E-1,1.850921661E-1,-1.298699498E0
1.137084960E-1,-1.012203693E0,2.461786866E-1,-1.204626322E0
1.156921390E-1,-1.036027431E0,2.816088796E-1,-1.153313637E0
1.176757810E-1,-1.072679400E0,3.701843321E-1,-1.037249207E0
1.196594240E-1,-1.080620646E0,4.746423066E-1,-9.114109278E-1
1.216735840E-1,-1.074512005E0,5.338962078E-1,-8.448266387E-1
1.236572270E-1,-1.045190454E0,6.462954283E-1,-7.067710757E-1
1.256408690E-1,-9.804387093E-1,7.611380816E-1,-5.632177591E-1
1.276550290E-1,-9.352346659E-1,8.142833710E-1,-4.935791194E-1
1.296386720E-1,-8.326093554E-1,9.187413454E-1,-3.530801237E-1
1.316528320E-1,-7.110471725E-1,1.010371089E0,-2.211332172E-1
1.336364750E-1,-6.426302195E-1,1.053131700E0,-1.594358236E-1
1.356506350E-1,-5.027421117E-1,1.132544160E0,-4.031710699E-2
1.376342770E-1,-3.579670191E-1,1.202182770E0,8.429940045E-2
1.396484380E-1,-2.822197378E-1,1.231504321E0,1.508837193E-1
1.416625980E-1,-1.331686229E-1,1.287703991E0,2.852740586E-1
1.436462400E-1,2.015855350E-2,1.321912408E0,4.373795092E-1
1.456298830E-1,9.468411654E-2,1.338405728E0,5.180137157E-1
1.476440430E-1,2.541199327E-1,1.339016676E0,6.817256212E-1
1.496276860E-1,3.365867436E-1,1.329242826E0,7.641924024E-1
1.516418460E-1,4.935791194E-1,1.292590857E0,9.217956662E-1
1.536254880E-1,6.499606371E-1,1.197295904E0,1.058018565E0
1.556701660E-1,7.232644558E-1,1.130711555E0,1.108109593E0
1.576232910E-1,8.588765264E-1,9.572258592E-1,1.170417786E0
1.596069340E-1,9.688322544E-1,7.367035151E-1,1.181413412E0
1.616210940E-1,1.011592865E0,6.218608022E-1,1.176526427E0
1.635742190E-1,1.090394497E0,3.775147200E-1,1.156367898E0
1.655578610E-1,1.139874578E0,1.869247705E-1,1.142318010E0
1.675415040E-1,1.163087368E0,1.136209369E-1,1.141096234E0
1.695556640E-1,1.183246017E0,2.932153270E-2,1.148426652E0
1.715393070E-1,1.183246017E0,9.773843922E-3,1.155757070E0
1.735534670E-1,1.177748203E0,1.832595654E-2,1.158811331E0
1.755371090E-1,1.145983219E0,9.162978828E-2,1.161254883E0
1.775512700E-1,1.095281363E0,2.003637999E-1,1.148426652E0
1.795349120E-1,1.063516378E0,2.614503205E-1,1.136209369E0
1.815795900E-1,9.859365225E-1,3.878994286E-1,1.099557400E0
1.835327150E-1,8.985827565E-1,5.051855445E-1,1.080009699E0
1.855468750E-1,8.564330935E-1,5.742133260E-1,1.027475357E0
1.875305180E-1,7.690793276E-1,7.232644558E-1,9.566149712E-1
1.895446780E-1,7.250970602E-1,8.038986921E-1,9.193521738E-1
1.915283200E-1,6.444628239E-1,9.615018964E-1,8.387179971E-1
1.935424800E-1,5.711590052E-1,1.092837930E0,7.538077235E-1
1.955261230E-1,5.338962078E-1,1.141096234E0,7.092145681E-1
1.975402830E-1,4.667010605E-1,1.205237150E0,6.200281978E-1
1.995239260E-1,3.982841372E-1,1.222341299E0,5.167919993E-1
2.015686040E-1,3.646865487E-1,1.219897866E0,4.599815309E-1
2.035217290E-1,2.858849466E-1,1.188132882E0,3.420845270E-1
2.055358890E-1,1.997529417E-1,1.123381138E0,2.235766798E-1
2.075195310E-1,1.545489132E-1,1.084285855E0,1.655444801E-1
2.095336910E-1,5.986479297E-2,9.963212013E-1,6.047565863E-2
2.115173340E-1,-3.726277873E-2,8.918632865E-1,-3.543018550E-2
2.135314940E-1,-8.735372871E-2,8.454375267E-1,-8.246681094E-2
2.155151370E-1,-1.869247705E-1,7.483099103E-1,-1.692096740E-1
2.175292970E-1,-2.919935882E-1,6.627888083E-1,-2.510656118E-1
2.195129390E-1,-3.396410644E-1,6.194173694E-1,-2.907718420E-1
2.215576170E-1,-4.343251884E-1,5.436700583E-1,-3.659082949E-1
2.235107420E-1,-5.210680366E-1,4.899139404E-1,-4.398229718E-1
2.255249020E-1,-5.528330207E-1,4.721988440E-1,-4.764748812E-1
2.275085450E-1,-5.900958180E-1,4.538728893E-1,-5.546656251E-1
2.295227050E-1,-5.931501389E-1,4.514294267E-1,-5.980370641E-1
2.315063480E-1,-5.601634383E-1,4.563163519E-1,-6.786713004E-1
2.335205080E-1,-4.874704778E-1,4.954117239E-1,-7.617489696E-1
2.355041500E-1,-4.422664344E-1,5.192354321E-1,-8.075638413E-1
2.375183110E-1,-3.652974069E-1,5.461135507E-1,-9.065240026E-1
2.395019530E-1,-3.304781020E-1,5.161811113E-1,-1.026864529E0
2.415466310E-1,-3.347541690E-1,4.538728893E-1,-1.093448758E0
2.435302730E-1,-3.878994286E-1,3.127630055E-1,-1.221730471E0
2.455139160E-1,-4.709770977E-1,1.233947799E-1,-1.310916781E0
2.475280760E-1,-5.161811113E-1,1.649336144E-2,-1.337794900E0
2.495117190E-1,-5.974262357E-1,-1.276708394E-1,-1.346346974E0
2.515258790E-1,-6.249151230E-1,-1.631010175E-1,-1.279762745E0
2.535095220E-1,-6.175847650E-1,-1.435533315E-1,-1.211345792E0
2.555236820E-1,-5.589417219E-1,-1.160643995E-2,-9.957103729E-1
2.575073240E-1,-4.618141353E-1,1.789835095E-1,-6.835582256E-1
2.595214840E-1,-4.147774875E-1,2.687807083E-1,-4.948008358E-1
2.615356450E-1,-3.414736688E-1,4.575380683E-1,-9.040805697E-2
2.635192870E-1,-2.981022298E-1,6.157521605E-1,2.974913716E-1
2.655029300E-1,-2.840523422E-1,6.707300544E-1,4.758640230E-1
2.675170900E-1,-2.730567753E-1,7.892379165E-1,8.057312369E-1
2.695007320E-1,-2.657263875E-1,8.827002645E-1,1.080620646E0
2.715148930E-1,-2.608394623E-1,9.211847782E-1,1.198517561E0
2.734985350E-1,-2.419026345E-1,9.975429177E-1,1.373835921E0
2.755126950E-1,-2.144137025E-1,1.068403363E0,1.455080986E0
2.774963380E-1,-1.979203373E-1,1.102000952E0,1.463633180E0
2.795104980E-1,-1.643227488E-1,1.166752577E0,1.412931323E0
2.815246580E-1,-1.466076523E-1,1.183246017E0,1.364062071E0
2.835083010E-1,-1.240056455E-1,1.191798091E0,1.227228284E0
2.854919430E-1,-1.117883399E-1,1.150870085E0,1.061072946E0
2.875061040E-1,-1.093448773E-1,1.116661668E0,9.755517840E-1
2.894897460E-1,-1.111774743E-1,1.025031924E0,7.971791625E-1
2.915039060E-1,-1.123992056E-1,9.016370773E-1,6.175847650E-1
2.934875490E-1,-1.191187203E-1,8.265006542E-1,5.265658498E-1
2.955017090E-1,-1.313360333E-1,6.487388611E-1,3.335324228E-1
2.974853520E-1,-1.484402567E-1,4.208861589E-1,1.374446750E-1
2.994995120E-1,-1.508837193E-1,2.932153046E-1,4.092797264E-2
3.015136720E-1,-1.588249654E-1,2.260201424E-2,-1.551597714E-1
3.034973140E-1,-1.618792862E-1,-2.504547536E-1,-3.329215646E-1
3.054809570E-1,-1.551597714E-1,-3.848451078E-1,-4.159992337E-1
3.074951170E-1,-1.325577646E-1,-6.414085031E-1,-5.607742667E-1
3.094787600E-1,-9.590584040E-2,-8.735373020E-1,-6.963863969E-1
3.114929200E-1,-7.635815442E-2,-9.828822017E-1,-7.635815740E-1
3.134765630E-1,-1.771509275E-2,-1.188132882E0,-8.985827565E-1
3.154907230E-1,4.642575979E-2,-1.370781660E0,-1.034194827E0
3.174743650E-1,8.185594529E-2,-1.457524419E0,-1.102000952E0
3.194885250E-1,1.521054506E-1,-1.618792892E0,-1.231504321E0
3.215026860E-1,2.302961946E-1,-1.774563551E0,-1.350623012E0
3.234558110E-1,2.767219543E-1,-1.860695481E0,-1.410487890E0
3.254699710E-1,3.817907870E-1,-2.046398640E0,-1.526552200E0
3.274536130E-1,4.459316432E-1,-2.147802114E0,-1.586417079E0
3.294677730E-1,5.900958180E-1,-2.348165989E0,-1.697594523E0
3.314514160E-1,7.519751191E-1,-2.532036543E0,-1.792889476E0
3.334655760E-1,8.442157507E-1,-2.616335869E0,-1.835650086E0
3.354492190E-1,1.027475357E0,-2.753780603E0,-1.905288696E0
3.374633790E-1,1.205847979E0,-2.852740765E0,-1.961488247E0
3.394470220E-1,1.290758252E0,-2.875953674E0,-1.987755537E0
3.414916990E-1,1.445918083E0,-2.865568876E0,-2.028072596E0
3.434448240E-1,1.568091035E0,-2.765387058E0,-2.051285505E0
3.454589840E-1,1.598023534E0,-2.702467918E0,-2.061059237E0
3.474426270E-1,1.546710849E0,-2.588236094E0,-2.084882975E0
3.494567870E-1,1.343292713E0,-2.480112791E0,-2.118480682E0
3.514404300E-1,1.204015374E0,-2.401311398E0,-2.127032757E0
3.534545900E-1,8.674286604E-1,-2.183232307E0,-2.139860868E0
3.554382320E-1,5.235115290E-1,-1.855197787E0,-2.105041742E0
3.574523930E-1,3.530801237E-1,-1.655444860E0,-2.062891960E0
3.594360350E-1,4.825835302E-2,-1.218676209E0,-1.924836397E0
3.614807130E-1,-2.028072625E-1,-7.733554244E-1,-1.731192112E0
3.634338380E-1,-3.121521473E-1,-5.528330207E-1,-1.627955914E0
3.654479980E-1,-4.911356568E-1,-1.728748679E-1,-1.429424644E0
3.674316410E-1,-5.656611919E-1,-3.054326214E-2,-1.343292713E0
3.694458010E-1,-6.927211881E-1,1.643227488E-1,-1.218676209E0
3.714294430E-1,-7.874053121E-1,2.138028294E-1,-1.143539786E0
3.734436040E-1,-8.228355050E-1,1.924225539E-1,-1.122770309E0
3.754272460E-1,-8.772025108E-1,9.468411654E-2,-1.106887817E0
3.774414060E-1,-9.248499870E-1,-5.131268129E-2,-1.096503139E0
3.794250490E-1,-9.352346659E-1,-1.325577646E-1,-1.092837930E0
3.814697270E-1,-9.633345008E-1,-2.834414840E-1,-1.087340117E0
3.834228520E-1,-9.908234477E-1,-4.025602043E-1,-1.069014192E0
3.854370120E-1,-1.003651619E0,-4.514294267E-1,-1.062294602E0
3.874206540E-1,-1.031751394E0,-5.210680366E-1,-1.043357849E0
3.894348140E-1,-1.057407737E0,-5.662720799E-1,-1.021366715E0
3.914184570E-1,-1.067792416E0,-5.791002512E-1,-1.014647126E0
3.934326170E-1,-1.087950945E0,-5.900958180E-1,-9.987646937E-1
3.954162600E-1,-1.098946571E0,-5.864306092E-1,-9.896016717E-1
3.974304200E-1,-1.101390004E0,-5.876523852E-1,-9.841039181E-1
3.994140630E-1,-1.095892191E0,-5.962044597E-1,-9.755517840E-1
4.014282230E-1,-1.083064079E0,-6.261368990E-1,-9.743300676E-1
4.034423830E-1,-1.074512005E0,-6.530149579E-1,-9.743300676E-1
4.054260250E-1,-1.042747021E0,-7.312057018E-1,-9.718865752E-1
4.074401860E-1,-1.009760261E0,-8.307767510E-1,-9.755517840E-1
4.094238280E-1,-9.987646937E-1,-8.888089061E-1,-9.718865752E-1
4.114379880E-1,-9.639453292E-1,-1.023199320E0,-9.822713137E-1
4.134216310E-1,-9.431759119E-1,-1.105055213E0,-9.944885969E-1
4.154357910E-1,-9.108000994E-1,-1.267545342E0,-1.034194827E0
4.174194340E-1,-8.704829812E-1,-1.430646420E0,-1.093448758E0
4.194335940E-1,-8.533787727E-1,-1.518000126E0,-1.134376764E0
4.214477540E-1,-8.118399382E-1,-1.661553502E0,-1.230282545E0
4.234008790E-1,-7.678576112E-1,-1.799609065E0,-1.342681766E0
4.253845220E-1,-7.434229851E-1,-1.863749862E0,-1.398881435E0
4.273681640E-1,-6.890559793E-1,-1.976149082E0,-1.525941372E0
4.293823240E-1,-6.352998614E-1,-2.075109243E0,-1.651779652E0
4.313659670E-1,-6.096435189E-1,-2.118480682E0,-1.712866187E0
4.333801270E-1,-5.528330207E-1,-2.187508345E0,-1.827708840E0
4.353637700E-1,-5.021312237E-1,-2.252871037E0,-1.926058173E0
4.373474120E-1,-4.770857692E-1,-2.286468506E0,-1.966986060E0
4.393310550E-1,-4.184426963E-1,-2.346333504E0,-2.027461767E0
4.413757320E-1,-3.573561609E-1,-2.403754711E0,-2.062281132E0
4.433288570E-1,-3.262020350E-1,-2.431243658E0,-2.070222378E0
4.453430180E-1,-2.614503205E-1,-2.501493216E0,-2.059837580E0
4.473266600E-1,-1.912008226E-1,-2.560136318E0,-2.027461767E0
4.493408200E-1,-1.618792862E-1,-2.568688393E0,-2.003638029E0
4.513244630E-1,-1.117883399E-1,-2.578462124E0,-1.948049307E0
4.533081050E-1,-9.101892263E-2,-2.582738161E0,-1.918116927E0
4.552917480E-1,-6.230825558E-2,-2.552195072E0,-1.850921750E0
4.573059080E-1,-3.848451003E-2,-2.523484230E0,-1.777617812E0
4.592895510E-1,-3.176499158E-2,-2.506380081E0,-1.739133358E0
4.613342290E-1,-1.954768784E-2,-2.499049664E0,-1.662775159E0
4.632873540E-1,-1.221730467E-2,-2.490497589E0,-1.589471340E0
4.653015140E-1,-1.466076635E-2,-2.487443209E0,-1.550986886E0
4.672851560E-1,-2.565634064E-2,-2.519208193E0,-1.480126500E0
4.692993160E-1,-4.031710699E-2,-2.525927782E0,-1.406822681E0
4.712829590E-1,-4.948008433E-2,-2.533869028E0,-1.370781660E0
4.732971190E-1,-7.391469181E-2,-2.560136318E0,-1.298088670E0
4.752807620E-1,-1.117883399E-1,-2.585181713E0,-1.238834739E0
4.772949220E-1,-1.343903542E-1,-2.594344616E0,-1.215011001E0
4.792785640E-1,-1.881465018E-1,-2.607783794E0,-1.161865711E0
4.813232420E-1,-2.498438805E-1,-2.612059832E0,-1.092227101E0
4.833068850E-1,-2.883284092E-1,-2.599231720E0,-1.054964304E0
4.852905270E-1,-3.616322279E-1,-2.525316954E0,-9.883799553E-1
4.873046880E-1,-4.447098970E-1,-2.430632830E0,-9.279043078E-1
4.892883300E-1,-4.868595898E-1,-2.373822451E0,-9.016370773E-1
4.913024900E-1,-5.778785348E-1,-2.253481865E0,-8.515461683E-1
4.932861330E-1,-6.218608022E-1,-2.196060658E0,-8.301658630E-1
4.953002930E-1,-7.098253965E-1,-2.084272146E0,-7.947356701E-1
4.972839360E-1,-7.819074988E-1,-2.000583649E0,-7.721336484E-1
4.992980960E-1,-8.136724830E-1,-1.964542627E0,-7.617489696E-1
5.013122560E-1,-8.662069440E-1,-1.933999419E0,-7.470881939E-1
5.032958980E-1,-9.004153609E-1,-1.905899525E0,-7.360926270E-1
5.052795410E-1,-9.144652486E-1,-1.903456092E0,-7.305948138E-1
5.072937010E-1,-9.279043078E-1,-1.918727756E0,-7.214318514E-1
5.092773440E-1,-9.242390990E-1,-1.968818665E0,-7.165449262E-1
5.112915040E-1,-9.217956662E-1,-1.996918440E0,-7.183775306E-1
5.132751470E-1,-9.175195694E-1,-2.031126976E0,-7.183775306E-1
5.152893070E-1,-9.156870246E-1,-2.054339886E0,-7.220427394E-1
5.172729490E-1,-9.144652486E-1,-2.065335512E0,-7.208209634E-1
5.192871090E-1,-9.144652486E-1,-2.067778826E0,-7.281513810E-1
5.213012700E-1,-9.150761366E-1,-2.058615923E0,-7.373143435E-1
5.232849120E-1,-9.175195694E-1,-2.032348633E0,-7.476990819E-1
5.252685550E-1,-9.242390990E-1,-1.992031574E0,-7.672467232E-1
5.272827150E-1,-9.272934198E-1,-1.928501606E0,-7.886270285E-1
5.292663570E-1,-9.321803451E-1,-1.904066920E0,-8.014551997E-1
5.312805180E-1,-9.388998747E-1,-1.842980504E0,-8.222246170E-1
5.332641600E-1,-9.425650835E-1,-1.767233133E0,-8.460483551E-1
5.352783200E-1,-9.492846131E-1,-1.735468149E0,-8.539896011E-1
5.372619630E-1,-9.578366876E-1,-1.653001308E0,-8.698720932E-1
5.392761230E-1,-9.621127844E-1,-1.617571115E0,-8.784242272E-1
5.412902830E-1,-9.718865752E-1,-1.544878244E0,-8.894197941E-1
5.432434080E-1,-9.822713137E-1,-1.478293896E0,-8.985827565E-1
5.452575680E-1,-9.865473509E-1,-1.441031098E0,-9.028588533E-1
5.472412110E-1,-1.002429843E0,-1.394605398E0,-9.071348906E-1
5.492248540E-1,-1.017090678E0,-1.346957922E0,-9.028588533E-1
5.512084960E-1,-1.021366715E0,-1.317636371E0,-9.022479653E-1
5.531921390E-1,-1.034194827E0,-1.289536476E0,-9.010262489E-1
5.552062990E-1,-1.050688267E0,-1.255938888E0,-8.930850029E-1
5.571594240E-1,-1.053131700E0,-1.238834739E0,-8.875871897E-1
5.591430660E-1,-1.061683774E0,-1.215011001E0,-8.747590184E-1
5.611572270E-1,-1.070235968E0,-1.196074128E0,-8.625417352E-1
5.631103520E-1,-1.069625020E0,-1.177748203E0,-8.539896011E-1
5.650939940E-1,-1.078177214E0,-1.153313637E0,-8.405506015E-1
5.671081540E-1,-1.081842303E0,-1.159422278E0,-8.356636763E-1
5.690917970E-1,-1.094059706E0,-1.121548533E0,-8.240572214E-1
5.711059570E-1,-1.112385631E0,-1.083674908E0,-8.130616546E-1
5.730896000E-1,-1.125213742E0,-1.073901057E0,-8.038986921E-1
5.751037600E-1,-1.142318010E0,-1.047633886E0,-7.929030657E-1
5.770874020E-1,-1.167363524E0,-1.021366715E0,-7.800748944E-1
5.791015630E-1,-1.174693823E0,-1.006095052E0,-7.770205736E-1
5.811157230E-1,-1.191798091E0,-9.932668805E-1,-7.660250068E-1
5.830993650E-1,-1.215621829E0,-9.853256345E-1,-7.568620443E-1
5.850830080E-1,-1.218065262E0,-9.865473509E-1,-7.550294399E-1
5.870971680E-1,-1.228450060E0,-9.865473509E-1,-7.428121567E-1
5.890808110E-1,-1.237002134E0,-9.963212013E-1,-7.324274182E-1
5.910949710E-1,-1.240056396E0,-1.011592865E0,-7.312057018E-1
5.930786130E-1,-1.241889000E0,-1.029307961E0,-7.189884186E-1
5.950927730E-1,-1.240056396E0,-1.059851170E0,-7.098253965E-1
5.970764160E-1,-1.243110776E0,-1.073290229E0,-7.018841505E-1
5.990600590E-1,-1.243721604E0,-1.090394497E0,-6.853908300E-1
6.010742190E-1,-1.262658477E0,-1.062905550E0,-6.615670323E-1
6.030578610E-1,-1.272432327E0,-1.059851170E0,-6.536257863E-1
6.050415040E-1,-1.276708364E0,-1.071457624E0,-6.481280327E-1
6.070556640E-1,-1.276708364E0,-1.106887817E0,-6.426302195E-1
6.090393070E-1,-1.271821499E0,-1.131322384E0,-6.377432942E-1
6.110534670E-1,-1.256549835E0,-1.197295904E0,-6.243042946E-1
6.130371090E-1,-1.243721604E0,-1.233947754E0,-6.151412725E-1
6.150512700E-1,-1.218676209E0,-1.300532103E0,-5.919284225E-1
6.170349120E-1,-1.190576315E0,-1.368949056E0,-5.668829679E-1
6.190490720E-1,-1.173472166E0,-1.396438003E0,-5.540547967E-1
6.210632320E-1,-1.138041973E0,-1.443474531E0,-5.326744914E-1
6.230163570E-1,-1.103833556E0,-1.481348276E0,-5.064072609E-1
6.250000000E-1,-1.086729288E0,-1.489289522E0,-4.948008358E-1
6.269836430E-1,-1.043968678E0,-1.524719596E0,-4.715879560E-1
6.289978030E-1,-1.001819015E0,-1.552819490E0,-4.508185387E-1
6.309814450E-1,-9.834930301E-1,-1.561371565E0,-4.373795092E-1
6.329956050E-1,-9.340129495E-1,-1.571145415E0,-4.092797041E-1
6.349792480E-1,-8.875871897E-1,-1.593747377E0,-3.854559660E-1
6.369934080E-1,-8.582656980E-1,-1.598023534E0,-3.750712574E-1
6.389770510E-1,-8.100073338E-1,-1.613906026E0,-3.573561609E-1
6.410217290E-1,-7.666358948E-1,-1.624290705E0,-3.329215646E-1
6.429748540E-1,-7.434229851E-1,-1.627344966E0,-3.219259977E-1
6.449584960E-1,-7.086036801E-1,-1.635897160E0,-2.950479090E-1
6.469421390E-1,-6.927211881E-1,-1.630399346E0,-2.858849466E-1
6.489257810E-1,-6.737843752E-1,-1.624901533E0,-2.626720667E-1
6.509094240E-1,-6.621779203E-1,-1.602910399E0,-2.339613885E-1
6.528930660E-1,-6.579018831E-1,-1.602299571E0,-2.193006277E-1
6.549072270E-1,-6.560692787E-1,-1.589471340E0,-1.918116808E-1
6.568908690E-1,-6.591235995E-1,-1.581530094E0,-1.588249654E-1
6.589050290E-1,-6.640105247E-1,-1.583362699E0,-1.453859210E-1
6.609191890E-1,-6.688974500E-1,-1.582751870E0,-1.081231460E-1
6.629028320E-1,-6.762278080E-1,-1.585195303E0,-7.574728876E-2
6.648864750E-1,-6.792821288E-1,-1.584584475E0,-5.864306539E-2
6.669006350E-1,-6.860016584E-1,-1.574199796E0,-2.076941915E-2
6.688842770E-1,-6.939429045E-1,-1.574810624E0,1.649336144E-2
6.708984380E-1,-6.945537925E-1,-1.574199796E0,3.481931984E-2
6.728820800E-1,-6.945537925E-1,-1.576032281E0,7.574728876E-2
6.748962400E-1,-6.927211881E-1,-1.585806131E0,1.142318025E-1
6.768798830E-1,-6.841690540E-1,-1.587027907E0,1.319468915E-1
6.788940430E-1,-6.713408828E-1,-1.601688623E0,1.649336219E-1
6.809082030E-1,-6.572909951E-1,-1.609019041E0,1.875356287E-1
6.828918460E-1,-6.505714655E-1,-1.612073421E0,1.997529417E-1
6.848754880E-1,-6.340781450E-1,-1.612073421E0,2.125810981E-1
6.868896480E-1,-6.304129362E-1,-1.611462474E0,2.174680233E-1
6.888732910E-1,-6.163630486E-1,-1.609629869E0,2.266310006E-1
6.908874510E-1,-6.017022729E-1,-1.612073421E0,2.309070677E-1
6.928710940E-1,-5.949827433E-1,-1.615127683E0,2.351831198E-1
6.948852540E-1,-5.729916096E-1,-1.638951421E0,2.474004179E-1
6.968688970E-1,-5.516113043E-1,-1.663386106E0,2.638937831E-1
6.988830570E-1,-5.442809463E-1,-1.671938181E0,2.675589919E-1
7.008972170E-1,-5.326744914E-1,-1.685377240E0,2.767219543E-1
7.028503420E-1,-5.222898126E-1,-1.676825047E0,2.889392674E-1
7.048645020E-1,-5.204572082E-1,-1.673770785E0,2.987131178E-1
7.068481450E-1,-5.106833577E-1,-1.670716405E0,3.182607889E-1
7.088317870E-1,-5.002986193E-1,-1.680490255E0,3.433062732E-1
7.108154300E-1,-4.929682612E-1,-1.682322860E0,3.555235863E-1
7.128295900E-1,-4.856378734E-1,-1.680490255E0,3.885102868E-1
7.148132320E-1,-4.856378734E-1,-1.643838406E0,4.172209501E-1
7.167968750E-1,-4.844161272E-1,-1.616349459E0,4.318817258E-1
7.187805180E-1,-4.709770977E-1,-1.555873752E0,4.660901725E-1
7.208251950E-1,-4.483750761E-1,-1.477683067E0,5.106833577E-1
7.227783200E-1,-4.306600094E-1,-1.430646420E0,5.363397002E-1
7.247619630E-1,-3.860668242E-1,-1.343903542E0,5.809328556E-1
7.267761230E-1,-3.616322279E-1,-1.296256065E0,6.041457057E-1
7.287597660E-1,-2.944370508E-1,-1.196074128E0,6.505714655E-1
7.307739260E-1,-2.193006277E-1,-1.096503139E0,6.976081133E-1
7.327575680E-1,-1.771509200E-1,-1.043968678E0,7.226535678E-1
7.347717290E-1,-8.002334833E-2,-9.395107627E-1,7.764097452E-1
7.367553710E-1,2.443460934E-2,-8.258898258E-1,8.289441466E-1
7.387695310E-1,8.063421398E-2,-7.715228200E-1,8.594874144E-1
7.407836910E-1,2.015855312E-1,-6.475171447E-1,9.211847782E-1
7.427673340E-1,3.194825351E-1,-5.155702829E-1,9.889908433E-1
7.447509770E-1,3.824016452E-1,-4.422664344E-1,1.020755768E0
7.466735840E-1,5.015203953E-1,-3.048217595E-1,1.089172721E0
7.486877440E-1,6.243042946E-1,-1.637118906E-1,1.160643935E0
7.506713870E-1,6.835582256E-1,-8.979719132E-2,1.200961113E0
7.526855470E-1,8.002334833E-1,6.597344577E-2,1.278540969E0
7.546691890E-1,9.059131742E-1,2.217440903E-1,1.359175205E0
7.566833500E-1,9.572258592E-1,3.042109013E-1,1.397048831E0
7.586669920E-1,1.056796908E0,4.691445231E-1,1.475850463E0
7.607116700E-1,1.103833556E0,5.418374538E-1,1.516167521E0
7.626647950E-1,1.203404546E0,7.189884186E-1,1.590082288E0
7.646789550E-1,1.283427835E0,8.442157507E-1,1.669494748E0
7.666625980E-1,1.323745012E0,8.991936445E-1,1.713477015E0
7.686767580E-1,1.398881435E0,1.002429843E0,1.802052498E0
7.706604000E-1,1.472185254E0,1.095281363E0,1.882686734E0
7.726745610E-1,1.507615447E0,1.134376764E0,1.921782017E0
7.746582030E-1,1.585195303E0,1.232115149E0,2.004859686E0
7.766723630E-1,1.667051196E0,1.338405728E0,2.078163624E0
7.786560060E-1,1.705535769E0,1.390940189E0,2.112982988E0
7.807006840E-1,1.775174379E0,1.483791709E0,2.182010651E0
7.826538090E-1,1.831984878E0,1.577864885E0,2.254703522E0
7.846679690E-1,1.857030392E0,1.645060062E0,2.293188095E0
7.866516110E-1,1.887573600E0,1.712255239E0,2.368324518E0
7.886657720E-1,1.905288696E0,1.780672193E0,2.452623844E0
7.906494140E-1,1.910786510E0,1.820378423E0,2.492330313E0
7.926635740E-1,1.907732129E0,1.883297563E0,2.574796915E0
7.946472170E-1,1.900401831E0,1.951103568E0,2.659707308E0
7.966613770E-1,1.883908391E0,1.974316478E0,2.703078747E0
7.986450200E-1,1.849089146E0,2.007914066E0,2.791043282E0
8.006896970E-1,1.813048005E0,2.029905319E0,2.883283854E0
8.026428220E-1,1.796554685E0,2.040289879E0,2.929098845E0
8.046264650E-1,1.759291887E0,2.039068222E0,3.017674208E0
8.066101070E-1,1.733024716E0,2.029905319E0,3.064710855E0
8.085937500E-1,1.690264106E0,1.996307611E0,3.155118942E0
8.106079100E-1,1.640173197E0,1.927890658E0,3.243694544E0
8.125915530E-1,1.614516854E0,1.893682241E0,3.285844088E0
8.146057130E-1,1.581530094E0,1.817324162E0,3.362202406E0
8.165893550E-1,1.565036774E0,1.751350641E0,3.413515091E0
8.186035160E-1,1.562593341E0,1.717753053E0,3.427564859E0
8.206176760E-1,1.566258430E0,1.662775159E0,3.445280075E0
8.226013180E-1,1.582751870E0,1.612073421E0,3.435506105E0
8.245849610E-1,1.593747377E0,1.589471340E0,3.419623613E0
8.265991210E-1,1.620014668E0,1.545489073E0,3.370754480E0
8.285827640E-1,1.651168704E0,1.501506805E0,3.306002617E0
8.305969240E-1,1.665218711E0,1.495398164E0,3.263853073E0
8.325805660E-1,1.689042449E0,1.475850463E0,3.177110195E0
8.345947270E-1,1.705535769E0,1.466687441E0,3.070208788E0
8.365783690E-1,1.711033583E0,1.460578799E0,3.014620066E0
8.385925290E-1,1.718974829E0,1.450194120E0,2.892446995E0
8.406066890E-1,1.709200978E0,1.447139740E0,2.759889126E0
8.425903320E-1,1.704313993E0,1.441031098E0,2.688417912E0
8.445739750E-1,1.688431501E0,1.425759435E0,2.536312580E0
8.465881350E-1,1.678657651E0,1.402546644E0,2.455678225E0
8.485717770E-1,1.663996935E0,1.353066564E0,2.291966438E0
8.505859380E-1,1.649336219E0,1.313971162E0,2.122756720E0
8.525695800E-1,1.643838406E0,1.294423461E0,2.039679050E0
8.545837400E-1,1.635897160E0,1.268767118E0,1.864360690E0
8.565673830E-1,1.627955914E0,1.279762745E0,1.692096710E0
8.585510250E-1,1.624290705E0,1.288925648E0,1.606575608E0
8.605651860E-1,1.615738630E0,1.315192819E0,1.436755061E0
8.625488280E-1,1.607797384E0,1.330464482E0,1.265712738E0
8.645324710E-1,1.604132175E0,1.345736146E0,1.180191636E0
8.665466310E-1,1.602910399E0,1.358564258E0,1.015258074E0
8.685302730E-1,1.607186437E0,1.365283847E0,8.491026759E-1
8.705444340E-1,1.611462474E0,1.376279354E0,7.703011036E-1
8.725280760E-1,1.618792892E0,1.401324868E0,6.212499738E-1
8.745422360E-1,1.624290705E0,1.449583173E0,4.978551865E-1
8.765258790E-1,1.629177570E0,1.485013366E0,4.447098970E-1
8.785400390E-1,1.629788518E0,1.572367191E0,3.573561609E-1
8.805541990E-1,1.638951421E0,1.680490255E0,2.999348342E-1
8.825073240E-1,1.641394973E0,1.737300754E0,2.785545588E-1
8.845214840E-1,1.646281838E0,1.874134541E0,2.541199327E-1
8.865051270E-1,1.651779652E0,1.949881911E0,2.455678284E-1
8.885192870E-1,1.657888293E0,2.114204645E0,2.321287990E-1
8.905029300E-1,1.669494748E0,2.311514139E0,2.217440903E-1
8.925170900E-1,1.670716405E0,2.419026375E0,2.186897546E-1
8.945007320E-1,1.665218711E0,2.626109600E0,2.138028294E-1
8.965148930E-1,1.656666517E0,2.816088676E0,1.997529417E-1
8.984985350E-1,1.650557876E0,2.894890308E0,1.893682331E-1
9.005432130E-1,1.656666517E0,3.046385050E0,1.698205322E-1
9.024963380E-1,1.676214218E0,3.184440613E0,1.429424733E-1
9.045104980E-1,1.699427128E0,3.254079103E0,1.252273768E-1
9.064941410E-1,1.751961470E0,3.368310928E0,1.014036313E-1
9.085083010E-1,1.838093519E0,3.445280075E0,8.429940045E-2
9.104919430E-1,1.885740995E0,3.456886530E0,8.002334833E-2
9.125061040E-1,1.985922933E0,3.439171314E0,8.979719132E-2
9.144897460E-1,2.105041742E0,3.387247801E0,1.227839142E-1
9.165039060E-1,2.162462950E0,3.326161146E0,1.411098689E-1
9.184875490E-1,2.244318962E0,3.223536015E0,1.966986060E-1
9.205322270E-1,2.271807909E0,3.099530220E0,2.730567753E-1
9.224853520E-1,2.276083946E0,3.040887117E0,3.103195429E-1
9.244995120E-1,2.266921043E0,2.936429262E0,3.885102868E-1
9.264831540E-1,2.231490850E0,2.811201811E0,4.703662395E-1
9.284973140E-1,2.207056046E0,2.769663095E0,5.106833577E-1
9.304809570E-1,2.152689219E0,2.611449003E0,5.949827433E-1
9.324951170E-1,2.117259026E0,2.546697140E0,6.383541822E-1
9.344787600E-1,2.043955088E0,2.398867846E0,7.257078886E-1
9.364929200E-1,1.952325344E0,2.275473118E0,8.069530129E-1
9.384765630E-1,1.904677868E0,2.205223560E0,8.374962807E-1
9.404907230E-1,1.794722080E0,2.077552795E0,8.973610401E-1
9.424743650E-1,1.685988069E0,1.965764403E0,9.468411207E-1
9.444580080E-1,1.624290705E0,1.912619114E0,9.718865752E-1
9.464416500E-1,1.496008992E0,1.825876236E0,1.003040791E0
9.484252930E-1,1.365894675E0,1.756848454E0,1.025031924E0
9.504394530E-1,1.294423461E0,1.722640038E0,1.032973170E0
9.524230960E-1,1.155757070E0,1.692096710E0,1.037860036E0
9.544677730E-1,1.021977544E0,1.644449234E0,1.031140566E0
9.564514160E-1,9.572258592E-1,1.639562368E0,1.026864529E0
9.584350590E-1,8.234463334E-1,1.610240817E0,1.005484223E0
9.604492190E-1,6.896668673E-1,1.609019041E0,9.834930301E-1
9.624633790E-1,6.261368990E-1,1.598023534E0,9.682214260E-1
9.644470220E-1,4.954117239E-1,1.601077795E0,9.474520087E-1
9.664611820E-1,3.824016452E-1,1.582751870E0,9.285151958E-1
9.684448240E-1,3.280346394E-1,1.557095528E0,9.205739498E-1
9.704589840E-1,2.455678284E-1,1.496619821E0,9.065240026E-1
9.724426270E-1,2.101376504E-1,1.470963478E0,9.059131742E-1
9.744567870E-1,1.557706445E-1,1.408044338E0,9.083566070E-1
9.764404300E-1,1.160643995E-1,1.359786034E0,9.132435322E-1
9.784545900E-1,1.069014147E-1,1.317025423E0,9.138544202E-1
9.804687500E-1,9.468411654E-2,1.245554209E0,9.193521738E-1
9.824523930E-1,9.712757170E-2,1.222341299E0,9.169087410E-1
9.844360350E-1,9.957103431E-2,1.208902359E0,9.132435322E-1
9.864501950E-1,1.117883399E-1,1.202793717E0,9.010262489E-1
9.884338380E-1,1.276708394E-1,1.207680583E0,8.851437569E-1
9.904479980E-1,1.386664063E-1,1.227839112E0,8.741481900E-1
9.924316410E-1,1.600466967E-1,1.243721604E0,8.564330935E-1
9.944458010E-1,1.808161139E-1,1.276708364E0,8.491026759E-1
9.964294430E-1,1.918116808E-1,1.298699498E0,8.454375267E-1
9.984436040E-1,2.150245607E-1,1.329853654E0,8.429940343E-1
1.000457764E0,2.388483137E-1,1.331686258E0,8.393288255E-1
1.002441406E0,2.461786866E-1,1.337184072E0,8.362745047E-1
1.004425049E0,2.761110961E-1,1.331075311E0,8.283332586E-1
1.006439209E0,3.042109013E-1,1.323134065E0,8.161159754E-1
1.008422852E0,3.207042515E-1,1.320079803E0,8.081747293E-1
1.010437012E0,3.469714522E-1,1.302364707E0,7.892379165E-1
1.012420654E0,3.762930036E-1,1.297477722E0,7.629706860E-1
1.014434814E0,3.952298164E-1,1.278540969E0,7.483099103E-1
1.016418457E0,4.239404798E-1,1.258382440E0,7.153232098E-1
1.018432617E0,4.404338300E-1,1.230893493E0,6.963863969E-1
1.020446777E0,4.758640230E-1,1.203404546E0,6.591235995E-1
1.022430420E0,5.094616413E-1,1.194241524E0,6.261368990E-1
1.024414063E0,5.235115290E-1,1.187522054E0,6.047565937E-1
1.026428223E0,5.436700583E-1,1.185078621E0,5.693264008E-1
1.028411865E0,5.516113043E-1,1.190576315E0,5.283984542E-1
1.030426025E0,5.546656251E-1,1.209513187E0,5.064072609E-1
1.032409668E0,5.577199459E-1,1.209513187E0,4.489859641E-1
1.034423828E0,5.583308339E-1,1.211345792E0,3.891211748E-1
1.036407471E0,5.558874011E-1,1.210124016E0,3.573561609E-1
1.038421631E0,5.546656251E-1,1.210124016E0,2.913827300E-1
1.040435791E0,5.491678715E-1,1.216232657E0,2.229658216E-1
1.042388916E0,5.485569835E-1,1.215011001E0,1.850921661E-1
1.044403076E0,5.430592299E-1,1.204015374E0,1.117883399E-1
1.046386719E0,5.455026627E-1,1.196684957E0,3.298672289E-2
1.048400879E0,5.455026627E-1,1.184467673E0,-9.773843922E-3
1.050384522E0,5.564982295E-1,1.167363524E0,-8.979719132E-2
1.052398682E0,5.681046844E-1,1.132544160E0,-1.759291887E-1
1.054382324E0,5.754350424E-1,1.119105101E0,-2.168571651E-1
1.056396484E0,5.968153477E-1,1.095281363E0,-3.023782969E-1
1.058380127E0,6.163630486E-1,1.065348983E0,-3.830125034E-1
1.060424805E0,6.243042946E-1,1.048244715E0,-4.221078753E-1
1.062377930E0,6.462954283E-1,1.021977544E0,-5.051855445E-1
1.064361572E0,6.560692787E-1,1.006705880E0,-5.455026627E-1
1.066345215E0,6.774495840E-1,9.651671052E-1,-6.273586154E-1
1.068328857E0,6.982190013E-1,9.291260242E-1,-7.067710757E-1
1.070343018E0,7.073819637E-1,9.108000994E-1,-7.483099103E-1
1.072326660E0,7.312057018E-1,8.539896011E-1,-8.326093554E-1
1.074340820E0,7.446447611E-1,7.971791625E-1,-9.144652486E-1
1.076324463E0,7.513642311E-1,7.617489696E-1,-9.535606503E-1
1.078308105E0,7.672467232E-1,7.043276429E-1,-1.028086185E0
1.080322266E0,7.727445364E-1,6.414085031E-1,-1.089783549E0
1.082305908E0,7.745771408E-1,6.072000265E-1,-1.120326877E0
1.084289551E0,7.751879692E-1,5.430592299E-1,-1.169806957E0
1.086303711E0,7.696902156E-1,4.856378734E-1,-1.216843605E0
1.088287354E0,7.660250068E-1,4.587597847E-1,-1.240667343E0
1.090301514E0,7.513642311E-1,4.068362415E-1,-1.289536476E0
1.092285156E0,7.305948138E-1,3.616322279E-1,-1.334740520E0
1.094299316E0,7.183775306E-1,3.445279896E-1,-1.358564258E0
1.096282959E0,6.908885837E-1,3.042109013E-1,-1.404379249E0
1.098297119E0,6.762278080E-1,2.828305960E-1,-1.426981211E0
1.100311279E0,6.359107494E-1,2.394591719E-1,-1.470963478E0
1.102294922E0,5.888741016E-1,1.973094791E-1,-1.514334917E0
1.104278564E0,5.619960427E-1,1.783726513E-1,-1.532050014E0
1.106292725E0,4.996877611E-1,1.459967941E-1,-1.568091035E0
1.108276367E0,4.288274050E-1,1.148426682E-1,-1.597412586E0
1.110290527E0,3.866777122E-1,1.020144969E-1,-1.610851645E0
1.112274170E0,2.956587672E-1,8.613199741E-2,-1.635286212E0
1.114288330E0,1.924225539E-1,6.719517708E-2,-1.659109950E0
1.116271973E0,1.319468915E-1,6.597344577E-2,-1.672549009E0
1.118286133E0,1.038470957E-2,6.047565863E-2,-1.690264106E0
1.120300293E0,-1.301143020E-1,5.009094998E-2,-1.714698792E0
1.122253418E0,-1.997529417E-1,4.948008433E-2,-1.724472642E0
1.124267578E0,-3.457497358E-1,4.276056588E-2,-1.736078978E0
1.126251221E0,-4.868595898E-1,3.604105115E-2,-1.730581284E0
1.128265381E0,-5.546656251E-1,3.604105115E-2,-1.721418262E0
1.130249023E0,-6.792821288E-1,2.687807009E-2,-1.690264106E0
1.132263184E0,-7.874053121E-1,1.343903504E-2,-1.642616630E0
1.134246826E0,-8.338310719E-1,2.443460980E-3,-1.615127683E0
1.136260986E0,-9.156870246E-1,-1.771509275E-2,-1.551597714E0
1.138244629E0,-9.865473509E-1,-4.214970022E-2,-1.476461291E0
1.140289307E0,-1.014036298E0,-5.009094998E-2,-1.434922457E0
1.142242432E0,-1.059240341E0,-6.719517708E-2,-1.346346974E0
1.144256592E0,-1.073901057E0,-7.269296050E-2,-1.297477722E0
1.146240234E0,-1.088561893E0,-6.047565863E-2,-1.188743711E0
1.148254395E0,-1.085507512E0,-3.176499158E-2,-1.067181587E0
1.150238037E0,-1.072679400E0,-5.497787148E-3,-1.001819015E0
1.152252197E0,-1.028086185E0,6.475171447E-2,-8.698720932E-1
1.154235840E0,-9.578366876E-1,1.484402567E-1,-7.391469479E-1
1.156250000E0,-9.156870246E-1,1.991420686E-1,-6.750060916E-1
1.158233643E0,-8.203920126E-1,3.066543639E-1,-5.528330207E-1
1.160278320E0,-7.165449262E-1,4.147774875E-1,-4.386012554E-1
1.162231445E0,-6.585127115E-1,4.642575979E-1,-3.842342496E-1
1.164245605E0,-5.393940210E-1,5.522221923E-1,-2.773328125E-1
1.166229248E0,-4.141666293E-1,6.065891981E-1,-1.728748679E-1
1.168243408E0,-3.433062732E-1,6.261368990E-1,-1.185078546E-1
1.170227051E0,-2.034181207E-1,6.493497491E-1,-5.497787148E-3
1.172241211E0,-5.314527452E-2,6.414085031E-1,1.117883399E-1
1.174224854E0,2.199114859E-2,6.322455406E-1,1.734857261E-1
1.176239014E0,1.869247705E-1,5.925393105E-1,3.072652221E-1
1.178222656E0,3.561344445E-1,5.406157374E-1,4.599815309E-1
1.180267334E0,4.447098970E-1,5.167919993E-1,5.442809463E-1
1.182220459E0,6.120869517E-1,4.746423066E-1,7.238753438E-1
1.184204102E0,7.623597980E-1,4.239404798E-1,8.930850029E-1
1.186187744E0,8.319984674E-1,3.970624208E-1,9.663888216E-1
1.188171387E0,9.566149712E-1,3.158173263E-1,1.077566266E0
1.190155029E0,1.009149432E0,2.577851415E-1,1.115439892E0
1.192138672E0,1.098946571E0,1.295034289E-1,1.164309144E0
1.194152832E0,1.167974353E0,-9.162978269E-3,1.175915599E0
1.196136475E0,1.199739337E0,-7.330382615E-2,1.178359032E0
1.198120117E0,1.247386813E0,-1.698205322E-1,1.172861218E0
1.200134277E0,1.287093043E0,-2.272418737E-1,1.164919972E0
1.202087402E0,1.303586483E0,-2.284636050E-1,1.162476540E0
1.204101563E0,1.322523236E0,-1.985312104E-1,1.151481032E0
1.206085205E0,1.318247199E0,-1.282816976E-1,1.145983219E0
1.208099365E0,1.308473349E0,-8.063421398E-2,1.136820197E0
1.210083008E0,1.271821499E0,4.337143153E-2,1.115439892E0
1.212097168E0,1.212567568E0,1.789835095E-1,1.087340117E0
1.214080811E0,1.174693823E0,2.528982162E-1,1.068403363E0
1.216094971E0,1.085507512E0,4.263839424E-1,1.018923283E0
1.218078613E0,1.037860036E0,5.106833577E-1,9.871582389E-1
1.220123291E0,9.376781583E-1,7.061602473E-1,9.248499870E-1
1.222076416E0,8.313875794E-1,8.869763613E-1,8.491026759E-1
1.224090576E0,7.745771408E-1,9.871582389E-1,8.118399382E-1
1.226074219E0,6.633996367E-1,1.125824690E0,7.269296646E-1
1.228088379E0,5.510004759E-1,1.234558702E0,6.426302195E-1
1.230072022E0,4.948008358E-1,1.254717231E0,5.943718553E-1
1.232086182E0,3.872885704E-1,1.300532103E0,4.960225821E-1
1.234069824E0,2.803871334E-1,1.274264932E0,3.854559660E-1
1.236083984E0,2.254092693E-1,1.243110776E0,3.274237812E-1
1.238067627E0,1.148426682E-1,1.175915599E0,2.107485086E-1
1.240081787E0,4.276056774E-3,1.096503139E0,9.712757170E-2
1.242034912E0,-5.497787148E-2,1.044579625E0,4.153883830E-2
1.244049072E0,-1.685988009E-1,9.474520087E-1,-5.925392732E-2
1.246032715E0,-2.755002379E-1,8.515461683E-1,-1.447750628E-1
1.248046875E0,-3.268128932E-1,8.026769161E-1,-1.832595766E-1
1.250030518E0,-4.276056588E-1,7.128797174E-1,-2.510656118E-1
1.252044678E0,-5.204572082E-1,6.181956530E-1,-3.023782969E-1
1.254028320E0,-5.613851547E-1,5.772676468E-1,-3.280346394E-1
1.256042480E0,-6.383541822E-1,4.966334403E-1,-3.750712574E-1
1.258026123E0,-6.890559793E-1,4.245513380E-1,-4.221078753E-1
1.260070801E0,-7.061602473E-1,3.940080702E-1,-4.495968223E-1
1.262023926E0,-7.116580009E-1,3.152064681E-1,-5.088507533E-1
1.264038086E0,-7.012733221E-1,2.803871334E-1,-5.430592299E-1
1.266021729E0,-6.554583907E-1,2.211332172E-1,-6.340781450E-1
1.268035889E0,-5.778785348E-1,1.759291887E-1,-7.409795523E-1
1.270019531E0,-5.338962078E-1,1.582140923E-1,-8.020660877E-1
1.272033691E0,-4.471533597E-1,1.527163088E-1,-9.334021211E-1
1.274017334E0,-3.817907870E-1,1.997529417E-1,-1.075733662E0
1.276031494E0,-3.677408695E-1,2.174680233E-1,-1.144761443E0
1.278015137E0,-3.695734739E-1,2.370157093E-1,-1.276097536E0
1.280059814E0,-4.282165468E-1,2.131919712E-1,-1.379944563E0
1.282043457E0,-4.734205604E-1,1.850921661E-1,-1.416596532E0
1.284027100E0,-5.845980644E-1,1.270599663E-1,-1.442863703E0
1.286041260E0,-6.774495840E-1,9.529497474E-2,-1.395827055E0
1.288024902E0,-7.098253965E-1,1.038470939E-1,-1.340849161E0
1.290039063E0,-7.342600226E-1,1.404990107E-1,-1.161865711E0
1.292022705E0,-6.969972253E-1,2.461786866E-1,-8.967501521E-1
1.294036865E0,-6.652322412E-1,3.213151097E-1,-7.434229851E-1
1.296020508E0,-5.931501389E-1,4.667010605E-1,-4.056145251E-1
1.298034668E0,-5.283984542E-1,5.821545720E-1,-7.696902007E-2
1.300048828E0,-5.021312237E-1,6.255260110E-1,7.024950534E-2
1.302032471E0,-4.520402849E-1,6.908885837E-1,3.237585723E-1
1.304016113E0,-4.001167417E-1,7.293730974E-1,5.174028873E-1
1.306030273E0,-3.677408695E-1,7.519751191E-1,5.943718553E-1
1.308013916E0,-2.950479090E-1,7.538077235E-1,7.049384713E-1
1.310028076E0,-2.547308207E-1,7.519751191E-1,7.391469479E-1
1.312011719E0,-1.673770845E-1,7.195992470E-1,7.550294399E-1
1.314025879E0,-7.391469181E-2,6.725626588E-1,7.122688890E-1
1.316009522E0,-3.176499158E-2,6.444628239E-1,6.713408828E-1
1.318023682E0,4.825835302E-2,5.772676468E-1,5.760459304E-1
1.320037842E0,1.001819000E-1,4.978551865E-1,4.673119187E-1
1.322021484E0,1.166752651E-1,4.550946057E-1,4.166100919E-1
1.324005127E0,1.362229437E-1,3.701843321E-1,3.182607889E-1
1.326019287E0,1.362229437E-1,2.669481039E-1,2.284636050E-1
1.328002930E0,1.368338168E-1,2.028072625E-1,1.850921661E-1
1.330017090E0,1.374446750E-1,6.230825558E-2,1.062905490E-1
1.332000732E0,1.423316002E-1,-8.368854225E-2,4.214970022E-2
1.334014893E0,1.459967941E-1,-1.679879427E-1,1.404990070E-2
1.335998535E0,1.600466967E-1,-3.310889602E-1,-3.970624134E-2
1.338012695E0,1.685988009E-1,-4.880813360E-1,-1.032362282E-1
1.340026855E0,1.759291887E-1,-5.662720799E-1,-1.368338168E-1
1.341979980E0,1.832595766E-1,-7.226535678E-1,-2.162462920E-1
1.343963623E0,1.844813079E-1,-8.704829812E-1,-3.005456924E-1
1.345947266E0,1.844813079E-1,-9.492846131E-1,-3.475823104E-1
1.347930908E0,1.832595766E-1,-1.096503139E0,-4.349360466E-1
1.349914551E0,1.826487035E-1,-1.175304770E0,-4.850270152E-1
1.351898193E0,1.863138974E-1,-1.332907915E0,-5.809328556E-1
1.353912354E0,1.930334121E-1,-1.501506805E0,-6.676757336E-1
1.355865479E0,2.034181207E-1,-1.589471340E0,-7.122688890E-1
1.357849121E0,2.235766798E-1,-1.776396155E0,-7.867944241E-1
1.359863281E0,2.638937831E-1,-1.971873045E0,-8.588765264E-1
1.361816406E0,2.919935882E-1,-2.066557169E0,-8.924741149E-1
1.363800049E0,3.732386529E-1,-2.259590626E0,-9.590584636E-1
1.365814209E0,4.831944108E-1,-2.427578449E0,-1.030529618E0
1.367797852E0,5.461135507E-1,-2.499049664E0,-1.064127207E0
1.369781494E0,6.731734872E-1,-2.575407982E0,-1.127657294E0
1.371765137E0,7.941248417E-1,-2.591901302E0,-1.188132882E0
1.373779297E0,8.423831463E-1,-2.570520878E0,-1.217454433E0
1.375762939E0,9.077457786E-1,-2.467284679E0,-1.287703991E0
1.377746582E0,9.181304574E-1,-2.390926600E0,-1.330464482E0
1.379760742E0,8.778133392E-1,-2.233323336E0,-1.431868076E0
1.381744385E0,7.232644558E-1,-2.062281132E0,-1.538158655E0
1.383728027E0,6.133087277E-1,-1.954768777E0,-1.587027907E0
1.385742188E0,3.365867436E-1,-1.742187738E0,-1.667662144E0
1.387725830E0,2.382374369E-2,-1.503950238E0,-1.708590150E0
1.389739990E0,-1.386664063E-1,-1.385442376E0,-1.712866187E0
1.391723633E0,-4.514294267E-1,-1.154535294E0,-1.698816299E0
1.393737793E0,-7.067710757E-1,-9.083566070E-1,-1.646892667E0
1.395721436E0,-8.057312369E-1,-8.020660877E-1,-1.607186437E0
1.397705078E0,-9.468411207E-1,-6.084218025E-1,-1.504561067E0
1.399719238E0,-1.027475357E0,-4.636467099E-1,-1.386664152E0
1.401702881E0,-1.042747021E0,-4.202753007E-1,-1.332297087E0
1.403686523E0,-1.036638379E0,-3.860668242E-1,-1.241889000E0
1.405700684E0,-9.896016717E-1,-4.135557711E-1,-1.180191636E0
1.407684326E0,-9.566149712E-1,-4.569272101E-1,-1.162476540E0
1.409698486E0,-8.900306821E-1,-5.613851547E-1,-1.149648428E0
1.411682129E0,-8.546004891E-1,-6.194173694E-1,-1.150259256E0
1.413696289E0,-7.977899909E-1,-7.281513810E-1,-1.159422278E0
1.415679932E0,-7.415903807E-1,-8.234463334E-1,-1.169196129E0
1.417663574E0,-7.238753438E-1,-8.600982428E-1,-1.168585181E0
1.419677734E0,-6.927211881E-1,-8.991936445E-1,-1.165530920E0
1.421661377E0,-6.743952036E-1,-9.004153609E-1,-1.156367898E0
1.423645020E0,-6.713408828E-1,-8.936958313E-1,-1.154535294E0
1.425659180E0,-6.713408828E-1,-8.533787727E-1,-1.140485406E0
1.427642822E0,-6.725626588E-1,-8.179485798E-1,-1.131933331E0
1.429656982E0,-6.707300544E-1,-8.032878041E-1,-1.127046347E0
1.431640625E0,-6.737843752E-1,-7.794640660E-1,-1.123992085E0
1.433654785E0,-6.786713004E-1,-7.831292152E-1,-1.124602914E0
1.435638428E0,-6.829473376E-1,-7.867944241E-1,-1.122770309E0
1.437652588E0,-6.805039048E-1,-8.197811842E-1,-1.121548533E0
1.439666748E0,-6.786713004E-1,-8.881980777E-1,-1.119716048E0
1.441619873E0,-6.792821288E-1,-9.376781583E-1,-1.115439892E0
1.443634033E0,-6.792821288E-1,-1.052520871E0,-1.109331250E0
1.445617676E0,-6.908885837E-1,-1.197906733E0,-1.108109593E0
1.447631836E0,-6.969972253E-1,-1.282206178E0,-1.110553026E0
1.449615479E0,-7.171558142E-1,-1.447750688E0,-1.122159481E0
1.451599121E0,-7.336491346E-1,-1.530217409E0,-1.134376764E0
1.453582764E0,-7.635815740E-1,-1.690264106E0,-1.175304770E0
1.455596924E0,-7.935139537E-1,-1.833206654E0,-1.230893493E0
1.457580566E0,-8.057312369E-1,-1.901623487E0,-1.260215044E0
1.459625244E0,-8.216137290E-1,-2.043955088E0,-1.332297087E0
1.461578369E0,-8.313875794E-1,-2.161852121E0,-1.413542151E0
1.463592529E0,-8.362745047E-1,-2.230268955E0,-1.456302762E0
1.465576172E0,-8.374962807E-1,-2.308459759E0,-1.552208543E0
1.467590332E0,-8.246681094E-1,-2.383596182E0,-1.649947047E0
1.469573975E0,-8.155050874E-1,-2.413528681E0,-1.692096710E0
1.471588135E0,-7.776314616E-1,-2.475836754E0,-1.772730947E0
1.473571777E0,-7.257078886E-1,-2.549140692E0,-1.836260915E0
1.475585938E0,-7.000515461E-1,-2.579684019E0,-1.861917257E0
1.477569580E0,-6.377432942E-1,-2.643213987E0,-1.898569226E0
1.479614258E0,-5.699372888E-1,-2.682309389E0,-1.916895151E0
1.481567383E0,-5.393940210E-1,-2.697580814E0,-1.917505980E0
1.483581543E0,-4.758640230E-1,-2.729345798E0,-1.907121301E0
1.485565186E0,-4.202753007E-1,-2.731178522E0,-1.879632354E0
1.487579346E0,-3.976732790E-1,-2.719572067E0,-1.863749862E0
1.489562988E0,-3.585779071E-1,-2.692083120E0,-1.823432803E0
1.491577148E0,-3.310889602E-1,-2.643213987E0,-1.779450417E0
1.493560791E0,-3.188716471E-1,-2.637105227E0,-1.752572417E0
1.495574951E0,-3.036000133E-1,-2.593733788E0,-1.703092337E0
1.497558594E0,-2.993239760E-1,-2.591290474E0,-1.678046823E0
1.499603272E0,-3.048217595E-1,-2.568077564E0,-1.629788518E0
1.501556397E0,-3.237585723E-1,-2.549140692E0,-1.580919266E0
1.503570557E0,-3.408628106E-1,-2.521651745E0,-1.555873752E0
1.505554199E0,-3.817907870E-1,-2.490497589E0,-1.505782843E0
1.507568359E0,-4.324925840E-1,-2.473393440E0,-1.448972344E0
1.509552002E0,-4.532620013E-1,-2.447126150E0,-1.417818189E0
1.511566162E0,-5.131267905E-1,-2.417804718E0,-1.351233959E0
1.513549805E0,-5.662720799E-1,-2.386650562E0,-1.280373573E0
1.515563965E0,-5.949827433E-1,-2.376265764E0,-1.247997642E0
1.517547607E0,-6.591235995E-1,-2.340224743E0,-1.178969979E0
1.519592285E0,-7.171558142E-1,-2.334116220E0,-1.107498646E0
1.521575928E0,-7.446447611E-1,-2.329839945E0,-1.070846796E0
1.523559570E0,-7.935139537E-1,-2.329839945E0,-1.000597239E0
1.525573730E0,-8.356636763E-1,-2.343889952E0,-9.382890463E-1
1.527557373E0,-8.564330935E-1,-2.346333504E0,-9.059131742E-1
1.529571533E0,-8.936958313E-1,-2.365881205E0,-8.521569967E-1
1.531555176E0,-9.266825914E-1,-2.356718063E0,-8.057312369E-1
1.533569336E0,-9.401215911E-1,-2.357328892E0,-7.861835957E-1
1.535552979E0,-9.700540304E-1,-2.367713690E0,-7.501425147E-1
1.537567139E0,-9.926560521E-1,-2.351220369E0,-7.183775306E-1
1.539581299E0,-1.001208186E0,-2.337781191E0,-7.055493593E-1
1.541564941E0,-1.013425469E0,-2.302350998E0,-6.823364496E-1
1.543548584E0,-1.017090678E0,-2.293188095E0,-6.707300544E-1
1.545562744E0,-1.021977544E0,-2.252871037E0,-6.481280327E-1
1.547546387E0,-1.014036298E0,-2.233323336E0,-6.279694438E-1
1.549560547E0,-1.008538485E0,-2.209499598E0,-6.175847650E-1
1.551544189E0,-9.981538057E-1,-2.191784382E0,-6.047565937E-1
1.553558350E0,-9.792169929E-1,-2.184454203E0,-5.955936313E-1
1.555541992E0,-9.773843884E-1,-2.175901890E0,-5.882632136E-1
1.557525635E0,-9.633345008E-1,-2.156354427E0,-5.815436840E-1
1.559539795E0,-9.523389339E-1,-2.128865480E0,-5.772676468E-1
1.561523438E0,-9.541715384E-1,-2.097711325E0,-5.754350424E-1
1.563507080E0,-9.498954415E-1,-2.051896334E0,-5.687155724E-1
1.565521240E0,-9.547823668E-1,-1.995696783E0,-5.644394755E-1
1.567504883E0,-9.547823668E-1,-1.964542627E0,-5.577199459E-1
1.569519043E0,-9.535606503E-1,-1.891238809E0,-5.448917747E-1
1.571502686E0,-9.541715384E-1,-1.817324162E0,-5.314527750E-1
1.573516846E0,-9.566149712E-1,-1.775174379E0,-5.235115290E-1
1.575500488E0,-9.511171579E-1,-1.688431501E0,-5.070181489E-1
1.577484131E0,-9.553932548E-1,-1.626123309E0,-4.886921942E-1
1.579498291E0,-9.566149712E-1,-1.594969153E0,-4.819726646E-1
1.581481934E0,-9.553932548E-1,-1.525330544E0,-4.630358517E-1
1.583465576E0,-9.547823668E-1,-1.500895858E0,-4.581489265E-1
1.585479736E0,-9.547823668E-1,-1.439809442E0,-4.447098970E-1
1.587463379E0,-9.553932548E-1,-1.390940189E0,-4.276056588E-1
1.589477539E0,-9.560040832E-1,-1.362229466E0,-4.214970171E-1
1.591461182E0,-9.566149712E-1,-1.310916781E0,-4.159992337E-1
1.593475342E0,-9.578366876E-1,-1.269988894E0,-4.086688459E-1
1.595458984E0,-9.602801800E-1,-1.254717231E0,-4.068362415E-1
1.597473145E0,-9.682214260E-1,-1.215621829E0,-4.098905921E-1
1.599487305E0,-9.822713137E-1,-1.182024240E0,-4.221078753E-1
1.601440430E0,-9.877691269E-1,-1.156367898E0,-4.263839424E-1
1.603454590E0,-1.001819015E0,-1.115439892E0,-4.386012554E-1
1.605438232E0,-1.009760261E0,-1.090394497E0,-4.471533597E-1
1.607421875E0,-1.014647126E0,-1.084285855E0,-4.514294267E-1
1.609405518E0,-1.020144939E0,-1.073901057E0,-4.618141353E-1
1.611419678E0,-1.020144939E0,-1.076344609E0,-4.728097022E-1
1.613403320E0,-1.021366715E0,-1.086729288E0,-4.813618064E-1
1.615417480E0,-1.020755768E0,-1.103222609E0,-4.966334403E-1
1.617401123E0,-1.025642753E0,-1.119105101E0,-5.112941861E-1
1.619415283E0,-1.028086185E0,-1.123992085E0,-5.180137157E-1
1.621368408E0,-1.028697014E0,-1.134376764E0,-5.253441334E-1
1.623382568E0,-1.033583999E0,-1.134376764E0,-5.314527750E-1
1.625366211E0,-1.034194827E0,-1.141707182E0,-5.448917747E-1
1.627380371E0,-1.032973170E0,-1.161254883E0,-5.656611919E-1
1.629364014E0,-1.034194827E0,-1.163087368E0,-5.736024380E-1
1.631378174E0,-1.035416603E0,-1.176526427E0,-5.919284225E-1
1.633361816E0,-1.034194827E0,-1.167974353E0,-6.084218025E-1
1.635375977E0,-1.031751394E0,-1.174082994E0,-6.133087277E-1
1.637359619E0,-1.026864529E0,-1.180191636E0,-6.236934066E-1
1.639404297E0,-1.008538485E0,-1.207680583E0,-6.340781450E-1
1.641357422E0,-9.999864101E-1,-1.219287038E0,-6.383541822E-1
1.643371582E0,-9.761626720E-1,-1.236391306E0,-6.438519955E-1
1.645355225E0,-9.535606503E-1,-1.258382440E0,-6.487388611E-1
1.647369385E0,-9.364564419E-1,-1.269377947E0,-6.505714655E-1
1.649353027E0,-9.150761366E-1,-1.297477722E0,-6.487388611E-1
1.651367188E0,-8.894197941E-1,-1.320079803E0,-6.426302195E-1
1.653350830E0,-8.759807348E-1,-1.331075311E0,-6.383541822E-1
1.655364990E0,-8.484918475E-1,-1.357342601E0,-6.304129362E-1
1.657348633E0,-8.258898258E-1,-1.378722906E0,-6.194173694E-1
1.659393311E0,-8.130616546E-1,-1.397659659E0,-6.157521605E-1
1.661346436E0,-7.959573865E-1,-1.420261741E0,-5.968153477E-1
1.663360596E0,-7.898487449E-1,-1.429424644E0,-5.907067060E-1
1.665344238E0,-7.770205736E-1,-1.446528912E0,-5.711590052E-1
1.667358398E0,-7.611380816E-1,-1.456302762E0,-5.540547967E-1
1.669342041E0,-7.550294399E-1,-1.469741821E0,-5.467243791E-1
1.671356201E0,-7.415903807E-1,-1.489900351E0,-5.222898126E-1
1.673339844E0,-7.269296646E-1,-1.497841597E0,-4.935791194E-1
1.675354004E0,-7.208209634E-1,-1.514334917E0,-4.783074856E-1
1.677337647E0,-7.073819637E-1,-1.540602207E0,-4.428772926E-1
1.679382324E0,-6.933320761E-1,-1.553430319E0,-4.043927789E-1
1.681365967E0,-6.896668673E-1,-1.564425945E0,-3.848451078E-1
1.683349609E0,-6.780604124E-1,-1.583973527E0,-3.457497358E-1
1.685363770E0,-6.725626588E-1,-1.591303945E0,-3.023782969E-1
1.687347412E0,-6.713408828E-1,-1.579086661E0,-2.797762752E-1
1.689361572E0,-6.774495840E-1,-1.571756244E0,-2.345722616E-1
1.691345215E0,-6.780604124E-1,-1.564425945E0,-1.979203373E-1
1.693359375E0,-6.835582256E-1,-1.548543453E0,-1.747074574E-1
1.695343018E0,-6.860016584E-1,-1.544878244E0,-1.343903542E-1
1.697357178E0,-6.890559793E-1,-1.534493446E0,-9.590584040E-2
1.699371338E0,-6.908885837E-1,-1.532660842E0,-7.635815442E-2
1.701354980E0,-6.939429045E-1,-1.522276163E0,-3.604105115E-2
1.703338623E0,-6.994407177E-1,-1.500285029E0,6.108652335E-3
1.705352783E0,-7.037167549E-1,-1.494787216E0,2.504547499E-2
1.707336426E0,-7.006624341E-1,-1.495398164E0,5.375614017E-2
1.709350586E0,-6.969972253E-1,-1.499063253E0,7.086037099E-2
1.711334229E0,-6.884451509E-1,-1.524719596E0,1.001819000E-1
1.713348389E0,-6.743952036E-1,-1.558928132E0,1.270599663E-1
1.715332031E0,-6.640105247E-1,-1.586417079E0,1.392772794E-1
1.717315674E0,-6.499606371E-1,-1.616349459E0,1.600466967E-1
1.719329834E0,-6.383541822E-1,-1.641394973E0,1.771509200E-1
1.721313477E0,-6.304129362E-1,-1.654833913E0,1.832595766E-1
1.723297119E0,-6.181956530E-1,-1.674381614E0,1.863138974E-1
1.725311279E0,-6.047565937E-1,-1.687209845E0,1.954768747E-1
1.727294922E0,-6.029239893E-1,-1.694540143E0,1.991420686E-1
1.729309082E0,-5.968153477E-1,-1.701259732E0,2.070833147E-1
1.731292725E0,-5.968153477E-1,-1.705535769E0,2.180788964E-1
1.733306885E0,-5.968153477E-1,-1.706757545E0,2.254092693E-1
1.735290527E0,-5.968153477E-1,-1.706757545E0,2.406809032E-1
1.737304688E0,-5.949827433E-1,-1.717142224E0,2.638937831E-1
1.739318848E0,-5.986479521E-1,-1.716531396E0,2.791654170E-1
1.741302490E0,-6.047565937E-1,-1.690264106E0,3.029891551E-1
1.743286133E0,-6.133087277E-1,-1.638951421E0,3.158173263E-1
1.745300293E0,-6.145304441E-1,-1.604743004E0,3.231477141E-1
1.747283936E0,-6.108652353E-1,-1.536326051E0,3.457497358E-1
1.749298096E0,-5.955936313E-1,-1.469741821E0,3.781255782E-1
1.751281738E0,-5.833762884E-1,-1.439809442E0,3.995058835E-1
1.753326416E0,-5.534439087E-1,-1.364672899E0,4.392121136E-1
1.755279541E0,-5.351179838E-1,-1.326799273E0,4.593706727E-1
1.757263184E0,-4.868595898E-1,-1.243110776E0,4.996877611E-1
1.759277344E0,-4.349360466E-1,-1.152091861E0,5.393940210E-1
1.761230469E0,-4.043927789E-1,-1.108720422E0,5.613851547E-1
1.763214111E0,-3.341432810E-1,-1.018312335E0,6.029239893E-1
1.765228272E0,-2.535090744E-1,-9.138544202E-1,6.475171447E-1
1.767211914E0,-2.089159191E-1,-8.637634516E-1,6.664539576E-1
1.769226074E0,-1.185078546E-1,-7.617489696E-1,7.134906054E-1
1.771209717E0,-1.343903504E-2,-6.652322412E-1,7.617489696E-1
1.773223877E0,3.848451003E-2,-6.163630486E-1,7.874053121E-1
1.775207520E0,1.466076523E-1,-5.070181489E-1,8.429940343E-1
1.777221680E0,2.571742535E-1,-3.872885704E-1,9.022479653E-1
1.779235840E0,3.133738637E-1,-3.255911767E-1,9.340129495E-1
1.781219482E0,4.263839424E-1,-1.936442852E-1,1.000597239E0
1.783203125E0,5.332853794E-1,-5.131268129E-2,1.072068453E0
1.785217285E0,5.858197808E-1,2.321287990E-2,1.109331250E0
1.787200928E0,6.933320761E-1,1.912008226E-1,1.181413412E0
1.789215088E0,7.464773059E-1,2.773328125E-1,1.215621829E0
1.791198730E0,8.546004891E-1,4.563163519E-1,1.281595230E0
1.793212891E0,9.419541955E-1,6.072000265E-1,1.359786034E0
1.795196533E0,9.822713137E-1,6.707300544E-1,1.398881435E0
1.797210693E0,1.064127207E0,8.032878041E-1,1.478904724E0
1.799224854E0,1.138652802E0,9.187413454E-1,1.560149789E0
1.801177979E0,1.175304770E0,9.718865752E-1,1.600466967E0
1.803161621E0,1.250441194E0,1.072679400E0,1.678657651E0
1.805145264E0,1.318247199E0,1.156978726E0,1.756237626E0
1.807128906E0,1.351844788E0,1.200961113E0,1.794111252E0
1.809112549E0,1.417207360E0,1.273653984E0,1.871080279E0
1.811126709E0,1.486235142E0,1.353677392E0,1.944384098E0
1.813110352E0,1.518000126E0,1.401324868E0,1.980425119E0
1.815124512E0,1.584584475E0,1.479515672E0,2.047620296E0
1.817108154E0,1.643838406E0,1.564425945E0,2.117869854E0
1.819122314E0,1.667051196E0,1.610240817E0,2.152689219E0
1.821075439E0,1.713477015E0,1.672549009E0,2.224160433E0
1.823089600E0,1.733024716E0,1.711644411E0,2.261423111E0
1.825073242E0,1.756237626E0,1.769065738E0,2.336559534E0
1.827087402E0,1.765400529E0,1.813048005E0,2.412917614E0
1.829071045E0,1.760513663E0,1.827097893E0,2.451402187E0
1.831085205E0,1.748296380E0,1.835039139E0,2.523484230E0
1.833068848E0,1.724472642E0,1.833817482E0,2.598009825E0
1.835083008E0,1.711644411E0,1.825265408E0,2.629163980E0
1.837066650E0,1.679879427E0,1.795943856E0,2.699413538E0
1.839111328E0,1.641394973E0,1.737911582E0,2.768441200E0
1.841064453E0,1.623068929E0,1.702481389E0,2.803260565E0
1.843048096E0,1.579697490E0,1.629177570E0,2.871066570E0
1.845062256E0,1.546099901E0,1.562593341E0,2.934596539E0
1.847045898E0,1.534493446E0,1.526552200E0,2.964529037E0
1.849029541E0,1.511280656E0,1.458746195E0,3.020117760E0
1.851013184E0,1.505782843E0,1.406822681E0,3.061656713E0
1.853027344E0,1.508837104E0,1.387274981E0,3.076928139E0
1.855010986E0,1.508226275E0,1.344514370E0,3.091588974E0
1.857025147E0,1.531439185E0,1.306640744E0,3.092199802E0
1.859039307E0,1.542434692E0,1.304197311E0,3.085480452E0
1.861022949E0,1.559538960E0,1.299310327E0,3.061045647E0
1.863006592E0,1.569312811E0,1.302975535E0,3.039665461E0
1.865020752E0,1.583973527E0,1.318858027E0,2.988963604E0
1.867004395E0,1.596190929E0,1.334740520E0,2.924822807E0
1.869018555E0,1.597412586E0,1.335351467E0,2.888170958E0
1.871002197E0,1.596190929E0,1.347568750E0,2.801428080E0
1.873016357E0,1.588249683E0,1.353677392E0,2.701246023E0
1.875000000E0,1.582141042E0,1.364672899E0,2.645046473E0
1.877014160E0,1.563204169E0,1.382998943E0,2.522873402E0
1.879028320E0,1.539380431E0,1.405600905E0,2.386039734E0
1.881011963E0,1.520443559E0,1.414763927E0,2.315179348E0
1.882995605E0,1.488678575E0,1.448972344E0,2.169182539E0
1.885009766E0,1.448361516E0,1.471574426E0,2.020742178E0
1.886993408E0,1.428202987E0,1.481348276E0,1.943162322E0
1.889007568E0,1.392161846E0,1.503339410E0,1.787391663E0
1.890991211E0,1.355509996E0,1.543045640E0,1.640173197E0
1.893005371E0,1.341460109E0,1.567480206E0,1.566869378E0
1.894989014E0,1.311527729E0,1.594969153E0,1.423316002E0
1.897003174E0,1.290147424E0,1.627344966E0,1.290147424E0
1.899017334E0,1.284038782E0,1.643227458E0,1.223563075E0
1.901000977E0,1.269988894E0,1.664607763E0,1.098946571E0
1.902984619E0,1.266323686E0,1.665829539E0,9.779952765E-1
1.904998779E0,1.265712738E0,1.663996935E0,9.242390990E-1
1.906982422E0,1.268156290E0,1.660942554E0,8.197811842E-1
1.908996582E0,1.269377947E0,1.661553502E0,7.684684992E-1
1.910980225E0,1.265101910E0,1.677435994E0,6.835582256E-1
1.912994385E0,1.265712738E0,1.714698792E0,6.065891981E-1
1.914978027E0,1.266934514E0,1.736689925E0,5.699372888E-1
1.916992188E0,1.263269305E0,1.812437177E0,5.125159621E-1
1.919006348E0,1.262047648E0,1.921171188E0,4.660901725E-1
1.920959473E0,1.252884626E0,1.984090328E0,4.447098970E-1
1.922973633E0,1.240056396E0,2.128865480E0,4.184426963E-1
1.924957275E0,1.222341299E0,2.306627274E0,4.001167417E-1
1.926971436E0,1.206458807E0,2.398867846E0,3.952298164E-1
1.928955078E0,1.172250390E0,2.598620653E0,3.848451078E-1
1.930969238E0,1.142318010E0,2.798373699E0,3.726277947E-1
1.932952881E0,1.134376764E0,2.896723032E0,3.628539443E-1
1.934967041E0,1.129489779E0,3.064710855E0,3.341432810E-1
1.936950684E0,1.153924465E0,3.186273098E0,3.066543639E-1
1.938995361E0,1.177748203E0,3.205209970E0,2.926044464E-1
1.940948486E0,1.255328059E0,3.265074730E0,2.553416789E-1
1.942932129E0,1.356731653E0,3.312111378E0,2.247984111E-1
1.944915772E0,1.415985584E0,3.330437422E0,2.211332172E-1
1.946899414E0,1.551597714E0,3.292563677E0,2.290744632E-1
1.948913574E0,1.618792892E0,3.260187864E0,2.437352389E-1
1.950897217E0,1.740355134E0,3.158173323E0,2.846632004E-1
1.952880859E0,1.827097893E0,3.045163155E0,3.451388776E-1
1.954864502E0,1.853365183E0,2.972470284E0,3.836233616E-1
1.956848145E0,1.895514846E0,2.840523481E0,4.679227769E-1
1.958862305E0,1.926058173E0,2.667037725E0,5.583308339E-1
1.960845947E0,1.927890658E0,2.584570885E0,6.072000265E-1
1.962829590E0,1.932166815E0,2.442850113E0,7.000515461E-1
1.964843750E0,1.932777643E0,2.309070587E0,7.947356701E-1
1.966827393E0,1.930334210E0,2.236988544E0,8.393288255E-1
1.968841553E0,1.907121301E0,2.103209019E0,9.162978530E-1
1.970825195E0,1.866804242E0,1.972483873E0,9.816604257E-1
1.972839355E0,1.844812989E0,1.908343077E0,1.009760261E0
1.974822998E0,1.780061364E0,1.773952723E0,1.059851170E0
1.976837158E0,1.701259732E0,1.650557876E0,1.103222609E0
1.978851318E0,1.659109950E0,1.587638736E0,1.121548533E0
1.980834961E0,1.557095528E0,1.485013366E0,1.159422278E0
1.982818604E0,1.450194120E0,1.383609772E0,1.178359032E0
1.984832764E0,1.392161846E0,1.338405728E0,1.188132882E0
1.986816406E0,1.273653984E0,1.274875760E0,1.191187263E0
1.988830566E0,1.211956620E0,1.257771492E0,1.194852471E0
1.990814209E0,1.088561893E0,1.235169530E0,1.185689449E0
1.992828369E0,9.602801800E-1,1.237612963E0,1.168585181E0
1.994812012E0,8.991936445E-1,1.235169530E0,1.152702689E0
1.996826172E0,7.825183868E-1,1.262047648E0,1.123992085E0
1.998840332E0,6.664539576E-1,1.299310327E0,1.092837930E0
2.000793457E0,6.126978397E-1,1.310916781E0,1.075733662E0
2.002807617E0,5.027421117E-1,1.351844788E0,1.054964304E0
2.004791260E0,4.019493461E-1,1.387274981E0,1.045190454E0
2.006805420E0,3.585779071E-1,1.408044338E0,1.042136073E0
2.008789063E0,2.761110961E-1,1.429424644E0,1.045190454E0
2.010803223E0,2.089159191E-1,1.436144233E0,1.053131700E0
2.012786865E0,1.893682331E-1,1.432479024E0,1.055575132E0
2.014801025E0,1.539380401E-1,1.414153099E0,1.069014192E0
2.016784668E0,1.295034289E-1,1.398881435E0,1.083674908E0
2.018829346E0,1.319468915E-1,1.382998943E0,1.086118460E0
2.020782471E0,1.288925707E-1,1.337184072E0,1.087950945E0
2.022796631E0,1.441642046E-1,1.307862520E0,1.081842303E0
2.024780273E0,1.539380401E-1,1.323134065E0,1.082453251E0
2.026794434E0,1.783726513E-1,1.274875760E0,1.075733662E0
2.028778076E0,1.887573600E-1,1.273653984E0,1.070846796E0
2.030792236E0,2.278527319E-1,1.280373573E0,1.051299095E0
2.032775879E0,2.700024247E-1,1.259604096E0,1.021366715E0
2.034790039E0,2.950479090E-1,1.251052022E0,1.004262447E0
2.036773682E0,3.457497358E-1,1.236391306E0,9.712757468E-1
2.038818359E0,3.878994286E-1,1.269377947E0,9.572258592E-1
2.040771484E0,4.037819207E-1,1.274264932E0,9.517280459E-1
2.042785645E0,4.373795092E-1,1.297477722E0,9.346238375E-1
2.044769287E0,4.685336351E-1,1.332907915E0,9.187413454E-1
2.046783447E0,4.825835526E-1,1.321912408E0,9.077457786E-1
2.048767090E0,5.112941861E-1,1.328631878E0,8.869763613E-1
2.050781250E0,5.400048494E-1,1.323134065E0,8.564330935E-1
2.052764893E0,5.564982295E-1,1.310305953E0,8.374962807E-1
2.054779053E0,5.864306092E-1,1.302364707E0,7.941248417E-1
2.056762695E0,6.206390858E-1,1.281595230E0,7.483099103E-1
2.058807373E0,6.389650702E-1,1.262658477E0,7.226535678E-1
2.060760498E0,6.725626588E-1,1.244943380E0,6.737843752E-1
2.062774658E0,7.043276429E-1,1.208902359E0,6.181956530E-1
2.064758301E0,7.208209634E-1,1.203404546E0,5.931501389E-1
2.066772461E0,7.538077235E-1,1.171639562E0,5.320636034E-1
2.068756104E0,7.782423496E-1,1.147204876E0,4.734205604E-1
2.070770264E0,7.874053121E-1,1.130100727E0,4.447098970E-1
2.072753906E0,7.996225953E-1,1.111163855E0,3.872885704E-1
2.074768066E0,8.081747293E-1,1.105666041E0,3.585779071E-1
2.076751709E0,8.136724830E-1,1.095892191E0,2.981022298E-1
2.078796387E0,8.124507666E-1,1.095892191E0,2.327396572E-1
2.080780029E0,8.118399382E-1,1.095892191E0,1.997529417E-1
2.082763672E0,8.057312369E-1,1.086729288E0,1.368338168E-1
2.084777832E0,8.008443117E-1,1.081231475E0,6.414084882E-2
2.086761475E0,7.996225953E-1,1.082453251E0,2.871066704E-2
2.088775635E0,7.929030657E-1,1.064127207E0,-4.520402849E-2
2.090759277E0,7.898487449E-1,1.053742528E0,-1.191187203E-1
2.092773438E0,7.892379165E-1,1.050077319E0,-1.594358236E-1
2.094757080E0,7.898487449E-1,1.036027431E0,-2.321287990E-1
2.096771240E0,7.959573865E-1,1.018923283E0,-3.078760803E-1
2.098785400E0,7.971791625E-1,1.015868902E0,-3.439171314E-1
2.100769043E0,8.032878041E-1,9.975429177E-1,-4.166100919E-1
2.102752686E0,8.087855577E-1,9.639453292E-1,-4.923573732E-1
2.104766846E0,8.075638413E-1,9.480628371E-1,-5.265658498E-1
2.106750488E0,8.142833710E-1,9.108000994E-1,-5.980370641E-1
2.108764648E0,8.173376918E-1,8.643743396E-1,-6.725626588E-1
2.110748291E0,8.197811842E-1,8.387179971E-1,-7.061602473E-1
2.112762451E0,8.179485798E-1,7.770205736E-1,-7.672467232E-1
2.114746094E0,8.173376918E-1,7.202101350E-1,-8.289441466E-1
2.116760254E0,8.136724830E-1,6.896668673E-1,-8.564330935E-1
2.118774414E0,8.075638413E-1,6.328563690E-1,-9.120218158E-1
2.120758057E0,8.014551997E-1,6.096435189E-1,-9.376781583E-1
2.122741699E0,7.904596329E-1,5.607742667E-1,-9.932668805E-1
2.124755859E0,7.709119320E-1,5.167919993E-1,-1.044579625E0
2.126739502E0,7.605272532E-1,4.984660447E-1,-1.067792416E0
2.128753662E0,7.312057018E-1,4.563163519E-1,-1.117883444E0
2.130737305E0,6.957755089E-1,4.196644127E-1,-1.166752577E0
2.132751465E0,6.792821288E-1,4.013384581E-1,-1.187522054E0
2.134735107E0,6.346889734E-1,3.683517575E-1,-1.233336926E0
2.136749268E0,5.845980644E-1,3.445279896E-1,-1.273653984E0
2.138763428E0,5.583308339E-1,3.335324228E-1,-1.294423461E0
2.140747070E0,4.960225821E-1,3.103195429E-1,-1.339016676E0
2.142730713E0,4.214970171E-1,2.938261926E-1,-1.382387996E0
2.144744873E0,3.799581826E-1,2.871066630E-1,-1.401935697E0
2.146728516E0,2.852740586E-1,2.748893499E-1,-1.437976837E0
2.148742676E0,1.881465018E-1,2.706133127E-1,-1.470963478E0
2.150726318E0,1.331686229E-1,2.748893499E-1,-1.486845970E0
2.152770996E0,1.893682219E-2,2.791654170E-1,-1.510669708E0
2.154724121E0,-9.957103431E-2,2.779437006E-1,-1.532050014E0
2.156738281E0,-1.637118906E-1,2.773328125E-1,-1.538769603E0
2.158752441E0,-2.901609838E-1,2.736676335E-1,-1.544878244E0
2.160705566E0,-4.202753007E-1,2.748893499E-1,-1.544878244E0
2.162689209E0,-4.856378734E-1,2.742784917E-1,-1.540602207E0
2.164672852E0,-6.108652353E-1,2.779437006E-1,-1.528995752E0
2.166687012E0,-6.713408828E-1,2.773328125E-1,-1.522276163E0
2.168670654E0,-7.941248417E-1,2.919935882E-1,-1.498452425E0
2.170684814E0,-9.065240026E-1,3.048217595E-1,-1.466687441E0
2.172668457E0,-9.645562172E-1,3.207042515E-1,-1.447139740E0
2.174652100E0,-1.064738154E0,3.378084898E-1,-1.398270488E0
2.176635742E0,-1.154535294E0,3.549126983E-1,-1.340849161E0
2.178680420E0,-1.191187263E0,3.610213697E-1,-1.307862520E0
2.180633545E0,-1.249830246E0,3.707951903E-1,-1.229060888E0
2.182647705E0,-1.281595230E0,3.933972120E-1,-1.139874578E0
2.184631348E0,-1.295645237E0,4.098905921E-1,-1.091616154E0
2.186645508E0,-1.296866894E0,4.557054639E-1,-9.834930301E-1
2.188629150E0,-1.275486588E0,5.051855445E-1,-8.649851680E-1
2.190643311E0,-1.247997642E0,5.387831330E-1,-8.032878041E-1
2.192626953E0,-1.181413412E0,6.017022729E-1,-6.823364496E-1
2.194641113E0,-1.092227101E0,6.615670323E-1,-5.742133260E-1
2.196624756E0,-1.036027431E0,6.841690540E-1,-5.222898126E-1
2.198638916E0,-9.114109278E-1,7.171558142E-1,-4.227187634E-1
2.200592041E0,-8.399397135E-1,7.171558142E-1,-3.775147200E-1
2.202606201E0,-6.841690540E-1,7.006624341E-1,-2.889392674E-1
2.204589844E0,-5.076290369E-1,6.646214128E-1,-2.021963894E-1
2.206604004E0,-4.172209501E-1,6.414085031E-1,-1.533271819E-1
2.208587647E0,-2.333505303E-1,5.907067060E-1,-5.558873713E-2
2.210601807E0,-4.886921868E-2,5.381723046E-1,5.558873713E-2
2.212585449E0,4.948008433E-2,5.125159621E-1,1.191187203E-1
2.214599609E0,2.388483137E-1,4.502076805E-1,2.571742535E-1
2.216583252E0,4.257730842E-1,3.781255782E-1,4.147774875E-1
2.218627930E0,5.229006410E-1,3.475823104E-1,4.948008358E-1
2.220581055E0,7.098253965E-1,2.577851415E-1,6.536257863E-1
2.222595215E0,8.869763613E-1,1.594358236E-1,7.959573865E-1
2.224578857E0,9.676105380E-1,1.050688252E-1,8.600982428E-1
2.226593018E0,1.120937705E0,-9.773843922E-3,9.700540304E-1
2.228576660E0,1.249830246E0,-1.356120855E-1,1.045801282E0
2.230590820E0,1.306029916E0,-1.991420686E-1,1.074512005E0
2.232574463E0,1.398881435E0,-3.115412891E-1,1.112996459E0
2.234588623E0,1.461189628E0,-3.921754956E-1,1.138652802E0
2.236572266E0,1.485013366E0,-4.190535545E-1,1.146594048E0
2.238586426E0,1.506393671E0,-4.282165468E-1,1.150870085E0
2.240600586E0,1.497841597E0,-3.927863538E-1,1.139263630E0
2.242584229E0,1.477683067E0,-3.567453027E-1,1.127657294E0
2.244598389E0,1.426370382E0,-2.620611787E-1,1.100779176E0
2.246582031E0,1.388496757E0,-1.960877478E-1,1.081231475E0
2.248596191E0,1.298699498E0,-4.153883830E-2,1.039081812E0
2.250579834E0,1.188743711E0,1.398881376E-1,9.944885969E-1
2.252593994E0,1.125824690E0,2.321287990E-1,9.682214260E-1
2.254577637E0,9.914342761E-1,4.257730842E-1,9.108000994E-1
2.256591797E0,8.429940343E-1,6.291912198E-1,8.448266387E-1
2.258605957E0,7.690793276E-1,7.250970602E-1,8.106181622E-1
2.260589600E0,6.224716902E-1,8.991936445E-1,7.318165898E-1
2.262573242E0,4.819726646E-1,1.028697014E0,6.505714655E-1
2.264587402E0,4.117231667E-1,1.077566266E0,6.059783101E-1
2.266571045E0,2.767219543E-1,1.142318010E0,5.088507533E-1
2.268585205E0,1.490511149E-1,1.155146122E0,3.988949955E-1
2.270568848E0,9.101892263E-2,1.147204876E0,3.433062732E-1
2.272583008E0,-2.199114859E-2,1.129489779E0,2.309070677E-1
2.274566650E0,-1.301143020E-1,1.084896684E0,1.276708394E-1
2.276580811E0,-1.771509200E-1,1.058629513E0,8.124507964E-2
2.278594971E0,-2.700024247E-1,1.006705880E0,-3.054326167E-3
2.280548096E0,-3.488040566E-1,9.413433671E-1,-8.552113175E-2
2.282531738E0,-3.909537494E-1,9.162978530E-1,-1.209513173E-1
2.284515381E0,-4.605923891E-1,8.448266387E-1,-1.924225539E-1
2.286499023E0,-4.941899776E-1,8.038986921E-1,-2.260201424E-1
2.288482666E0,-5.558874011E-1,7.232644558E-1,-2.913827300E-1
2.290496826E0,-6.029239893E-1,6.444628239E-1,-3.585779071E-1
2.292480469E0,-6.206390858E-1,6.078109145E-1,-3.952298164E-1
2.294494629E0,-6.273586154E-1,5.302310586E-1,-4.685336351E-1
2.296478272E0,-5.888741016E-1,4.538728893E-1,-5.442809463E-1
2.298522949E0,-5.571091175E-1,4.312708676E-1,-5.839871764E-1
2.300476074E0,-4.813618064E-1,4.251621962E-1,-6.847799420E-1
2.302490234E0,-3.799581826E-1,4.599815309E-1,-7.935139537E-1
2.304473877E0,-3.310889602E-1,4.813618064E-1,-8.503243923E-1
2.306488037E0,-2.522873580E-1,4.996877611E-1,-9.602801800E-1
2.308471680E0,-2.247984111E-1,4.605923891E-1,-1.073901057E0
2.310485840E0,-2.345722616E-1,4.190535545E-1,-1.128878951E0
2.312469482E0,-2.883284092E-1,2.950479090E-1,-1.231504321E0
2.314483643E0,-3.720169365E-1,1.319468915E-1,-1.308473349E0
2.316467285E0,-4.135557711E-1,4.703662544E-2,-1.333518863E0
2.318511963E0,-4.734205604E-1,-9.651670605E-2,-1.339627504E0
2.320495605E0,-4.752531648E-1,-1.716531366E-1,-1.261436701E0
2.322479248E0,-4.575380683E-1,-1.679879427E-1,-1.183856845E0
2.324493408E0,-3.933972120E-1,-1.136209369E-1,-9.566149712E-1
2.326477051E0,-3.023782969E-1,3.054326167E-3,-6.407976151E-1
2.328491211E0,-2.516764700E-1,6.780604273E-2,-4.624249935E-1
2.330474854E0,-1.631010175E-1,2.150245607E-1,-8.124507964E-2
2.332489014E0,-1.240056455E-1,3.127630055E-1,1.038470939E-1
2.334472656E0,-5.619960278E-2,4.715879560E-1,4.477642179E-1
2.336486816E0,1.221730490E-3,6.230825782E-1,7.379252315E-1
2.338500977E0,2.748893574E-2,7.104362845E-1,8.588765264E-1
2.340484619E0,6.841690838E-2,8.637634516E-1,1.042747021E0
2.342468262E0,9.651670605E-2,9.902125597E-1,1.146594048E0
2.344482422E0,1.142318025E-1,1.036638379E0,1.163698316E0
2.346466064E0,1.386664063E-1,1.094059706E0,1.136209369E0
2.348480225E0,1.466076523E-1,1.114218235E0,1.038470864E0
2.350463867E0,1.472185254E-1,1.103833556E0,9.682214260E-1
2.352478027E0,1.423316002E-1,1.049466491E0,8.106181622E-1
2.354461670E0,1.276708394E-1,9.425650835E-1,6.414085031E-1
2.356445313E0,1.197295859E-1,8.686503768E-1,5.583308339E-1
2.358459473E0,9.773843735E-2,6.756169796E-1,4.111123085E-1
2.360443115E0,7.574728876E-2,4.612032473E-1,2.852740586E-1
2.362426758E0,6.902777404E-2,3.488040566E-1,2.315179259E-1
2.364440918E0,6.169738993E-2,1.319468915E-1,1.557706445E-1
2.366424561E0,6.108652428E-2,-7.574728876E-2,9.712757170E-2
2.368438721E0,6.047565863E-2,-1.612684280E-1,7.330382615E-2
2.370422363E0,6.047565863E-2,-3.463605940E-1,1.771509275E-2
2.372436523E0,5.803219974E-2,-4.318817258E-1,-1.649336144E-2
2.374420166E0,4.948008433E-2,-6.035348773E-1,-9.773843735E-2
2.376434326E0,2.626720630E-2,-7.666358948E-1,-1.991420686E-1
2.378448486E0,7.941247895E-3,-8.436049223E-1,-2.528982162E-1
2.380432129E0,-3.115412779E-2,-1.008538485E0,-3.659082949E-1
2.382415772E0,-6.780604273E-2,-1.162476540E0,-4.929682612E-1
2.384429932E0,-8.857546002E-2,-1.233947754E0,-5.583308339E-1
2.386413574E0,-1.130100712E-1,-1.371392488E0,-6.914994717E-1
2.388427734E0,-1.191187203E-1,-1.501506805E0,-8.203920126E-1
2.390411377E0,-1.166752651E-1,-1.565647602E0,-8.827002645E-1
2.392425537E0,-8.918632567E-2,-1.689653277E0,-9.932668805E-1
2.394409180E0,-4.337143153E-2,-1.784948230E0,-1.107498646E0
2.396423340E0,-9.162978269E-3,-1.822211027E0,-1.164919972E0
2.398437500E0,7.819075137E-2,-1.875356317E0,-1.265101910E0
2.400390625E0,1.863138974E-1,-1.872301936E0,-1.354899168E0
2.402404785E0,2.431243658E-1,-1.849699974E0,-1.395827055E0
2.404388428E0,3.561344445E-1,-1.789224267E0,-1.472185254E0
2.406402588E0,4.367686510E-1,-1.709200978E0,-1.552208543E0
2.408386230E0,4.612032473E-1,-1.668272972E0,-1.600466967E0
2.410400391E0,4.526511431E-1,-1.569312811E0,-1.709200978E0
2.412384033E0,3.738495409E-1,-1.486845970E0,-1.816102386E0
2.414398193E0,3.145956099E-1,-1.420261741E0,-1.868025899E0
2.416381836E0,1.521054506E-1,-1.299921274E0,-1.966375232E0
2.418426514E0,-4.642575979E-2,-1.173472166E0,-2.037846565E0
2.420379639E0,-1.551597714E-1,-1.100779176E0,-2.058615923E0
2.422393799E0,-3.781255782E-1,-9.560040832E-1,-2.083050489E0
2.424377441E0,-4.831944108E-1,-8.735373020E-1,-2.079385281E0
2.426391602E0,-6.737843752E-1,-7.324274182E-1,-2.042733431E0
2.428375244E0,-8.136724830E-1,-5.943718553E-1,-1.967597008E0
2.430389404E0,-8.686503768E-1,-5.326744914E-1,-1.915673375E0
2.432373047E0,-9.376781583E-1,-4.050036669E-1,-1.796554685E0
2.434387207E0,-9.688322544E-1,-3.127630055E-1,-1.671327353E0
2.436370850E0,-9.724974632E-1,-2.748893499E-1,-1.612684250E0
2.438415527E0,-9.602801800E-1,-2.211332172E-1,-1.512502313E0
2.440368652E0,-9.303477407E-1,-2.217440903E-1,-1.426370382E0
2.442382813E0,-9.071348906E-1,-2.437352389E-1,-1.389718413E0
2.444366455E0,-8.637634516E-1,-3.316998184E-1,-1.318858027E0
2.446380615E0,-8.100073338E-1,-4.630358517E-1,-1.261436701E0
2.448364258E0,-7.843509912E-1,-5.479460955E-1,-1.232726097E0
2.450378418E0,-7.428121567E-1,-6.823364496E-1,-1.185078621E0
2.452362061E0,-7.141014934E-1,-8.045095205E-1,-1.142318010E0
2.454376221E0,-7.012733221E-1,-8.503243923E-1,-1.122159481E0
2.456359863E0,-7.000515461E-1,-9.071348906E-1,-1.089172721E0
2.458404541E0,-7.098253965E-1,-9.291260242E-1,-1.065348983E0
2.460357666E0,-7.220427394E-1,-9.431759119E-1,-1.059851170E0
2.462371826E0,-7.415903807E-1,-9.272934198E-1,-1.051299095E0
2.464355469E0,-7.562511563E-1,-9.217956662E-1,-1.049466491E0
2.466369629E0,-7.782423496E-1,-8.918632865E-1,-1.051299095E0
2.468353272E0,-8.032878041E-1,-8.924741149E-1,-1.054964304E0
2.470367432E0,-8.118399382E-1,-8.863654733E-1,-1.056796908E0
2.472351074E0,-8.277224302E-1,-9.169087410E-1,-1.054964304E0
2.474365234E0,-8.472700715E-1,-9.792169929E-1,-1.051909924E0
2.476348877E0,-8.552113175E-1,-1.004873276E0,-1.043357849E0
2.478393555E0,-8.668177724E-1,-1.083674908E0,-1.028697014E0
2.480377197E0,-8.845328689E-1,-1.177748203E0,-1.018923283E0
2.482360840E0,-8.857545853E-1,-1.227839112E0,-1.015258074E0
2.484375000E0,-8.998045325E-1,-1.341460109E0,-1.013425469E0
2.486358643E0,-9.095783234E-1,-1.474017859E0,-1.027475357E0
2.488372803E0,-9.077457786E-1,-1.540602207E0,-1.037249207E0
2.490356445E0,-9.077457786E-1,-1.673159957E0,-1.075733662E0
2.492340088E0,-9.034696817E-1,-1.817324162E0,-1.130711555E0
2.494323730E0,-8.985827565E-1,-1.877188921E0,-1.165530920E0
2.496337891E0,-8.918632865E-1,-1.988366365E0,-1.244943380E0
2.498352051E0,-8.900306821E-1,-2.070833206E0,-1.344514370E0
2.500335693E0,-8.912523985E-1,-2.114815474E0,-1.400103092E0
2.502319336E0,-8.772025108E-1,-2.189341068E0,-1.510669708E0
2.504333496E0,-8.668177724E-1,-2.226603746E0,-1.558317184E0
2.506317139E0,-8.191702962E-1,-2.326174736E0,-1.645060062E0
2.508331299E0,-7.593054771E-1,-2.436130524E0,-1.717142224E0
2.510314941E0,-7.232644558E-1,-2.488054037E0,-1.750739813E0
2.512329102E0,-6.585127115E-1,-2.570520878E0,-1.811826348E0
2.514312744E0,-5.907067060E-1,-2.593122959E0,-1.865582466E0
2.516296387E0,-5.638286471E-1,-2.587625265E0,-1.881464958E0
2.518310547E0,-5.229006410E-1,-2.552805901E0,-1.907732129E0
2.520294189E0,-4.850270152E-1,-2.511877775E0,-1.919338584E0
2.522277832E0,-4.654793143E-1,-2.486221552E0,-1.912619114E0
2.524291992E0,-4.141666293E-1,-2.436130524E0,-1.893071413E0
2.526275635E0,-3.573561609E-1,-2.428800106E0,-1.867415071E0
2.528289795E0,-3.207042515E-1,-2.428189278E0,-1.850310802E0
2.530273438E0,-2.498438805E-1,-2.501493216E0,-1.817324162E0
2.532287598E0,-1.875356287E-1,-2.539366722E0,-1.772730947E0
2.534271240E0,-1.637118906E-1,-2.561968803E0,-1.751961470E0
2.536285400E0,-1.307251602E-1,-2.596177340E0,-1.708590150E0
2.538299561E0,-1.209513173E-1,-2.611449003E0,-1.659109950E0
2.540283203E0,-1.233947799E-1,-2.604118586E0,-1.634675384E0
2.542266846E0,-1.453859210E-1,-2.581516504E0,-1.583973527E0
2.544281006E0,-1.795943826E-1,-2.520430088E0,-1.529606581E0
2.546264648E0,-2.028072625E-1,-2.510045290E0,-1.497230768E0
2.548278809E0,-2.553416789E-1,-2.451402187E0,-1.429424644E0
2.550262451E0,-2.834414840E-1,-2.448958874E0,-1.392161846E0
2.552307129E0,-3.353650272E-1,-2.409252644E0,-1.312749386E0
2.554260254E0,-3.830125034E-1,-2.396424294E0,-1.236391306E0
2.556243897E0,-4.068362415E-1,-2.387872219E0,-1.193019867E0
2.558258057E0,-4.538728893E-1,-2.409252644E0,-1.104444385E0
2.560211182E0,-4.935791194E-1,-2.435519695E0,-1.015868902E0
2.562194824E0,-5.131267905E-1,-2.459343433E0,-9.773843884E-1
2.564178467E0,-5.461135507E-1,-2.476447821E0,-9.016370773E-1
2.566162109E0,-5.797111392E-1,-2.479501963E0,-8.423831463E-1
2.568145752E0,-5.943718553E-1,-2.478891134E0,-8.142833710E-1
2.570129395E0,-6.322455406E-1,-2.444682598E0,-7.648032904E-1
2.572113037E0,-6.774495840E-1,-2.404365540E0,-7.214318514E-1
2.574127197E0,-6.951646209E-1,-2.373211384E0,-7.086036801E-1
2.576110840E0,-7.422012687E-1,-2.303572893E0,-6.786713004E-1
2.578125000E0,-7.544185519E-1,-2.271807909E0,-6.695083380E-1
2.580078125E0,-7.849618196E-1,-2.193617105E0,-6.530149579E-1
2.582092285E0,-8.161159754E-1,-2.142304420E0,-6.340781450E-1
2.584075928E0,-8.258898258E-1,-2.105041742E0,-6.230825782E-1
2.586090088E0,-8.417723179E-1,-2.074498415E0,-6.065891981E-1
2.588073730E0,-8.491026759E-1,-2.045176744E0,-5.894849896E-1
2.590087891E0,-8.515461683E-1,-2.041511536E0,-5.852088928E-1
2.592071533E0,-8.674286604E-1,-1.995085835E0,-5.778785348E-1
2.594085693E0,-8.747590184E-1,-1.959655762E0,-5.748242140E-1
2.596069336E0,-8.747590184E-1,-1.925447226E0,-5.742133260E-1
2.598114014E0,-8.790351152E-1,-1.868025899E0,-5.736024380E-1
2.600067139E0,-8.845328689E-1,-1.809993744E0,-5.674937963E-1
2.602081299E0,-8.900306821E-1,-1.781893969E0,-5.662720799E-1
2.604064941E0,-8.973610401E-1,-1.707368374E0,-5.595525503E-1
2.606079102E0,-9.162978530E-1,-1.620625496E0,-5.485569835E-1
2.608062744E0,-9.266825914E-1,-1.577864885E0,-5.430592299E-1
2.610076904E0,-9.443976879E-1,-1.482569933E0,-5.271766782E-1
2.612060547E0,-9.718865752E-1,-1.396438003E0,-5.119050741E-1
2.614074707E0,-9.841039181E-1,-1.351844788E0,-5.051855445E-1
2.616058350E0,-1.003040791E0,-1.276097536E0,-4.917465150E-1
2.618103027E0,-1.026864529E0,-1.205847979E0,-4.856378734E-1
2.620056152E0,-1.035416603E0,-1.174693823E0,-4.801400900E-1
2.622070313E0,-1.056796908E0,-1.111163855E0,-4.734205604E-1
2.624053955E0,-1.064738154E0,-1.099557400E0,-4.721988440E-1
2.626068115E0,-1.087340117E0,-1.065959811E0,-4.703662395E-1
2.628051758E0,-1.109331250E0,-1.034194827E0,-4.654793143E-1
2.630065918E0,-1.121548533E0,-1.018312335E0,-4.648684561E-1
2.632049561E0,-1.148426652E0,-9.847147465E-1,-4.642575979E-1
2.634063721E0,-1.165530920E0,-9.517280459E-1,-4.642575979E-1
2.636047363E0,-1.174082994E0,-9.272934198E-1,-4.648684561E-1
2.638092041E0,-1.195463300E0,-9.016370773E-1,-4.715879560E-1
2.640075684E0,-1.213789225E0,-8.692612648E-1,-4.789183438E-1
2.642059326E0,-1.224784851E0,-8.552113175E-1,-4.831944108E-1
2.644073486E0,-1.242499948E0,-8.191702962E-1,-4.917465150E-1
2.646057129E0,-1.262047648E0,-7.959573865E-1,-5.015203953E-1
2.648071289E0,-1.271821499E0,-7.825183868E-1,-5.051855445E-1
2.650054932E0,-1.287703991E0,-7.629706860E-1,-5.137376785E-1
2.652038574E0,-1.290147424E0,-7.593054771E-1,-5.241223574E-1
2.654022217E0,-1.291369081E0,-7.672467232E-1,-5.302310586E-1
2.656036377E0,-1.301142931E0,-7.745771408E-1,-5.461135507E-1
2.658050537E0,-1.307251573E0,-7.782423496E-1,-5.644394755E-1
2.660034180E0,-1.302364707E0,-7.886270285E-1,-5.729916096E-1
2.662017822E0,-1.303586483E0,-8.045095205E-1,-5.888741016E-1
2.664031982E0,-1.302364707E0,-8.228355050E-1,-5.968153477E-1
2.666015625E0,-1.293812633E0,-8.466592431E-1,-6.169738770E-1
2.668029785E0,-1.283427835E0,-8.686503768E-1,-6.383541822E-1
2.670013428E0,-1.277930140E0,-8.912523985E-1,-6.475171447E-1
2.672027588E0,-1.258382440E0,-9.358455539E-1,-6.597344875E-1
2.674011230E0,-1.235780358E0,-9.865473509E-1,-6.750060916E-1
2.675994873E0,-1.222341299E0,-1.015258074E0,-6.780604124E-1
2.678009033E0,-1.188743711E0,-1.064127207E0,-6.841690540E-1
2.679992676E0,-1.149648428E0,-1.133765936E0,-6.829473376E-1
2.681976318E0,-1.129489779E0,-1.161254883E0,-6.847799420E-1
2.683990479E0,-1.092227101E0,-1.204015374E0,-6.811147332E-1
2.685974121E0,-1.053742528E0,-1.235169530E0,-6.701191664E-1
2.687988281E0,-1.031140566E0,-1.256549835E0,-6.652322412E-1
2.689971924E0,-9.841039181E-1,-1.298699498E0,-6.499606371E-1
2.691986084E0,-9.291260242E-1,-1.329853654E0,-6.267477274E-1
2.693969727E0,-9.059131742E-1,-1.338405728E0,-6.120869517E-1
2.695983887E0,-8.564330935E-1,-1.378722906E0,-5.797111392E-1
2.697998047E0,-8.112290502E-1,-1.411709547E0,-5.467243791E-1
2.699981689E0,-7.812966704E-1,-1.427592039E0,-5.296201706E-1
2.701965332E0,-7.348709106E-1,-1.478904724E0,-4.929682612E-1
2.703979492E0,-7.141014934E-1,-1.514945865E0,-4.728097022E-1
2.705963135E0,-6.780604124E-1,-1.576032281E0,-4.312708676E-1
2.707977295E0,-6.505714655E-1,-1.601077795E0,-3.915646076E-1
2.709960938E0,-6.401867867E-1,-1.619403720E0,-3.695734739E-1
2.711975098E0,-6.291912198E-1,-1.644449234E0,-3.310889602E-1
2.713958740E0,-6.310238242E-1,-1.642616630E0,-2.864958048E-1
2.715972900E0,-6.359107494E-1,-1.657277465E0,-2.651155293E-1
2.717987061E0,-6.481280327E-1,-1.638951421E0,-2.205223590E-1
2.719970703E0,-6.670648456E-1,-1.624901533E0,-1.747074574E-1
2.721954346E0,-6.786713004E-1,-1.628566742E0,-1.533271819E-1
2.723968506E0,-6.969972253E-1,-1.610851645E0,-9.834930301E-2
2.725952148E0,-7.183775306E-1,-1.602910399E0,-4.886921868E-2
2.727966309E0,-7.305948138E-1,-1.600466967E0,-2.138028294E-2
2.729949951E0,-7.538077235E-1,-1.586417079E0,3.237585723E-2
2.731964111E0,-7.800748944E-1,-1.558317184E0,8.979719132E-2
2.733947754E0,-7.898487449E-1,-1.542434692E0,1.160643995E-1
2.735961914E0,-8.148942590E-1,-1.521665335E0,1.655444801E-1
2.737976074E0,-8.362745047E-1,-1.500895858E0,2.138028294E-1
2.739929199E0,-8.399397135E-1,-1.488678575E0,2.376265824E-1
2.741912842E0,-8.491026759E-1,-1.488678575E0,2.816088796E-1
2.743896484E0,-8.503243923E-1,-1.479515672E0,3.023782969E-1
2.745910645E0,-8.484918475E-1,-1.463633180E0,3.378084898E-1
2.747894287E0,-8.368853927E-1,-1.435533285E0,3.646865487E-1
2.749877930E0,-8.246681094E-1,-1.428813815E0,3.756821156E-1
2.751861572E0,-8.063421249E-1,-1.404379249E0,3.933972120E-1
2.753875732E0,-7.709119320E-1,-1.390329242E0,4.037819207E-1
2.755859375E0,-7.538077235E-1,-1.382998943E0,4.129449129E-1
2.757904053E0,-7.189884186E-1,-1.368949056E0,4.141666293E-1
2.759857178E0,-6.737843752E-1,-1.357953429E0,4.196644127E-1
2.761871338E0,-6.542366743E-1,-1.348790407E0,4.190535545E-1
2.763854980E0,-6.114761233E-1,-1.342070937E0,4.221078753E-1
2.765869141E0,-5.613851547E-1,-1.326188445E0,4.269948006E-1
2.767852783E0,-5.400048494E-1,-1.313360333E0,4.324925840E-1
2.769866943E0,-4.935791194E-1,-1.287093043E0,4.392121136E-1
2.771850586E0,-4.489859641E-1,-1.266934514E0,4.526511431E-1
2.773864746E0,-4.294382632E-1,-1.260825872E0,4.624249935E-1
2.775848389E0,-3.805690408E-1,-1.239445567E0,4.807509482E-1
2.777893066E0,-3.292563558E-1,-1.210124016E0,5.082398653E-1
2.779846191E0,-3.023782969E-1,-1.177137375E0,5.131267905E-1
2.781860352E0,-2.351831198E-1,-1.099557400E0,5.241223574E-1
2.783843994E0,-1.936442852E-1,-1.032362223E0,5.491678715E-1
2.785858154E0,-1.698205322E-1,-1.003040791E0,5.589417219E-1
2.787841797E0,-1.166752651E-1,-9.260717034E-1,5.888741016E-1
2.789855957E0,-8.552113175E-2,-8.729264140E-1,6.029239893E-1
2.791839600E0,-2.504547499E-2,-7.434229851E-1,6.273586154E-1
2.793853760E0,4.337143153E-2,-5.907067060E-1,6.469063163E-1
2.795837402E0,8.063421398E-2,-5.094616413E-1,6.597344875E-1
2.797882080E0,1.582140923E-1,-3.457497358E-1,6.878342628E-1
2.799835205E0,2.449569702E-1,-1.985312104E-1,7.208209634E-1
2.801818848E0,2.932153046E-1,-1.288925707E-1,7.391469479E-1
2.803802490E0,3.903428912E-1,-2.443460980E-3,7.806857824E-1
2.805786133E0,4.917465150E-1,1.056796908E-1,8.252789378E-1
2.807800293E0,5.430592299E-1,1.692096740E-1,8.497135639E-1
2.809783936E0,6.469063163E-1,2.926044464E-1,9.034696817E-1
2.811767578E0,7.495316267E-1,4.068362415E-1,9.596692920E-1
2.813751221E0,8.051204085E-1,4.685336351E-1,9.896016717E-1
2.815734863E0,9.199630618E-1,6.029239893E-1,1.041525245E0
2.817749023E0,1.014647126E0,6.951646209E-1,1.113607287E0
2.819732666E0,1.061072946E0,7.415903807E-1,1.154535294E0
2.821716309E0,1.148426652E0,8.014551997E-1,1.237002134E0
2.823730469E0,1.190576315E0,8.265006542E-1,1.277930140E0
2.825714111E0,1.273653984E0,8.894197941E-1,1.360396862E0
2.827728272E0,1.344514370E0,9.364564419E-1,1.443474531E0
2.829711914E0,1.382387996E0,9.602801800E-1,1.481959105E0
2.831726074E0,1.459967971E0,1.020755768E0,1.555873752E0
2.833709717E0,1.525941372E0,1.072068453E0,1.629788518E0
2.835723877E0,1.557095528E0,1.101390004E0,1.669494748E0
2.837738037E0,1.612684250E0,1.160643935E0,1.749518037E0
2.839721680E0,1.667051196E0,1.226006508E0,1.827097893E0
2.841705322E0,1.690264106E0,1.255938888E0,1.867415071E0
2.843719482E0,1.733024716E0,1.317636371E0,1.938886285E0
2.845703125E0,1.767843962E0,1.385442376E0,2.002416372E0
2.847717285E0,1.779450417E0,1.419039965E0,2.036013842E0
2.849700928E0,1.791667819E0,1.452637553E0,2.102598190E0
2.851715088E0,1.783115625E0,1.481348276E0,2.161241293E0
2.853698730E0,1.768454909E0,1.483180761E0,2.187508345E0
2.855712891E0,1.715309620E0,1.431257248E0,2.232712507E0
2.857727051E0,1.648725271E0,1.388496757E0,2.271197081E0
2.859680176E0,1.616960287E0,1.365894675E0,2.287079573E0
2.861663818E0,1.555262923E0,1.335962296E0,2.321287870E0
2.863647461E0,1.525330544E0,1.349401355E0,2.340224743E0
2.865631104E0,1.474017859E0,1.366505504E0,2.379930973E0
2.867614746E0,1.425148606E0,1.390940189E0,2.419637203E0
2.869598389E0,1.410487890E0,1.403768301E0,2.439795732E0
2.871582031E0,1.392772794E0,1.440420270E0,2.483167171E0
2.873565674E0,1.391551018E0,1.461800575E0,2.525927782E0
2.875549316E0,1.393994451E0,1.472796082E0,2.542421103E0
2.877593994E0,1.411098719E0,1.486235142E0,2.572353601E0
2.879577637E0,1.431257248E0,1.489900351E0,2.584570885E0
2.881561279E0,1.439198494E0,1.494787216E0,2.587625265E0
2.883575439E0,1.461189628E0,1.477072120E0,2.578462124E0
2.885559082E0,1.486235142E0,1.474628687E0,2.558914423E0
2.887542725E0,1.503950238E0,1.458746195E0,2.544864655E0
2.889526367E0,1.532050014E0,1.436755061E0,2.510656118E0
2.891540527E0,1.555873752E0,1.416596532E0,2.470949888E0
2.893524170E0,1.571145415E0,1.407433510E0,2.449569702E0
2.895507813E0,1.595579982E0,1.392161846E0,2.403143883E0
2.897521973E0,1.609019041E0,1.384831548E0,2.376876593E0
2.899505615E0,1.620625496E0,1.376279354E0,2.320066214E0
2.901489258E0,1.634675384E0,1.366505504E0,2.256536245E0
2.903503418E0,1.640173197E0,1.373835921E0,2.224160433E0
2.905487061E0,1.645671010E0,1.365283847E0,2.160630465E0
2.907501221E0,1.650557876E0,1.392161846E0,2.103209019E0
2.909484863E0,1.654223084E0,1.404379249E0,2.070833206E0
2.911499023E0,1.652390480E0,1.417818189E0,2.018909693E0
2.913482666E0,1.656055689E0,1.425759435E0,1.970040441E0
2.915496826E0,1.658499122E0,1.430035591E0,1.946827531E0
2.917510986E0,1.660331726E0,1.440420270E0,1.901623487E0
2.919494629E0,1.662164330E0,1.445918083E0,1.858252048E0
2.921478272E0,1.662164330E0,1.449583173E0,1.838704348E0
2.923492432E0,1.665829539E0,1.452026725E0,1.786780834E0
2.925476074E0,1.665218711E0,1.459967971E0,1.723250866E0
2.927490234E0,1.663386106E0,1.461800575E0,1.687820673E0
2.929473877E0,1.664607763E0,1.483180761E0,1.608408213E0
2.931488037E0,1.663386106E0,1.507004619E0,1.519221902E0
2.933471680E0,1.662775159E0,1.523497939E0,1.469130874E0
2.935485840E0,1.658499122E0,1.553430319E0,1.354288220E0
2.937500000E0,1.653612256E0,1.579697490E0,1.292590857E0
2.939453125E0,1.650557876E0,1.636507988E0,1.161254883E0
2.941436768E0,1.642616630E0,1.705535769E0,1.025642753E0
2.943420410E0,1.638951421E0,1.755626678E0,9.523389339E-1
2.945404053E0,1.631621122E0,1.859473825E0,8.057312369E-1
2.947387695E0,1.627955914E0,1.976759911E0,6.517932415E-1
2.949371338E0,1.630399346E0,2.040289879E0,5.742133260E-1
2.951385498E0,1.633453608E0,2.178956270E0,4.263839424E-1
2.953338623E0,1.639562368E0,2.321287870E0,2.840523422E-1
2.955322266E0,1.645671010E0,2.398257017E0,2.162462920E-1
2.957336426E0,1.651168704E0,2.539366722E0,8.979719132E-2
2.959289551E0,1.651779652E0,2.604118586E0,3.359758854E-2
2.961273193E0,1.639562368E0,2.746450186E0,-6.841690838E-2
2.963287354E0,1.630399346E0,2.878396988E0,-1.398881376E-1
2.965270996E0,1.626734138E0,2.960863829E0,-1.685988009E-1
2.967254639E0,1.620014668E0,3.099530220E0,-1.942551434E-1
2.969238281E0,1.623068929E0,3.206431627E0,-1.966986060E-1
2.971221924E0,1.633453608E0,3.249192238E0,-1.954768747E-1
2.973205566E0,1.673159957E0,3.308446169E0,-1.832595766E-1
2.975219727E0,1.733024716E0,3.348763227E0,-1.533271819E-1
2.977233887E0,1.761124492E0,3.343265533E0,-1.233947799E-1
2.979217529E0,1.817324162E0,3.262631178E0,-4.520402849E-2
2.981201172E0,1.879021525E0,3.153286457E0,6.047565863E-2
2.983215332E0,1.902234316E0,3.079982519E0,1.160643995E-1
2.985198975E0,1.926058173E0,2.945592165E0,2.437352389E-1
2.987213135E0,1.922392964E0,2.788599730E0,3.689626157E-1
2.989196777E0,1.915062547E0,2.723237276E0,4.331034720E-1
2.991210938E0,1.889406204E0,2.556471109E0,5.424483418E-1
2.993194580E0,1.863139033E0,2.385428667E0,6.401867867E-1
2.995178223E0,1.850921750E0,2.328007460E0,6.853908300E-1
2.997192383E0,1.825265408E0,2.184454203E0,7.635815740E-1
2.999176025E0,1.820378423E0,2.121535063E0,7.971791625E-1
3.001159668E0,1.780672193E0,1.996918440E0,8.503243923E-1
3.003173828E0,1.737300754E0,1.877188921E0,8.802568316E-1
3.005157471E0,1.709811807E0,1.817324162E0,8.894197941E-1
3.007171631E0,1.649947047E0,1.705535769E0,9.016370773E-1
3.009155273E0,1.579697490E0,1.616960287E0,9.022479653E-1
3.011169434E0,1.538769603E0,1.565647602E0,8.991936445E-1
3.013153076E0,1.448972344E0,1.507615447E0,8.839219809E-1
3.015167236E0,1.356120825E0,1.471574426E0,8.625417352E-1
3.017181397E0,1.304808140E0,1.456913590E0,8.454375267E-1
3.019165039E0,1.203404546E0,1.451415777E0,8.252789378E-1
3.021148682E0,1.102611780E0,1.442863703E0,8.081747293E-1
3.023162842E0,1.051909924E0,1.437365890E0,8.020660877E-1
3.025146484E0,9.511171579E-1,1.415985584E0,8.026769161E-1
3.027160645E0,8.503243923E-1,1.387274981E0,8.155050874E-1
3.029144287E0,8.008443117E-1,1.375057697E0,8.228355050E-1
3.031158447E0,7.073819637E-1,1.339016676E0,8.405506015E-1
3.033142090E0,6.181956530E-1,1.313360333E0,8.600982428E-1
3.035156250E0,5.766568184E-1,1.279762745E0,8.668177724E-1
3.037170410E0,5.009095073E-1,1.224173903E0,8.759807348E-1
3.039123535E0,4.667010605E-1,1.207069755E0,8.765916228E-1
3.041137695E0,4.098905921E-1,1.169806957E0,8.784242272E-1
3.043121338E0,3.701843321E-1,1.120937705E0,8.717046976E-1
3.045135498E0,3.536909819E-1,1.107498646E0,8.674286604E-1
3.047119141E0,3.292563558E-1,1.113607287E0,8.582656980E-1
3.049133301E0,3.219259977E-1,1.097724795E0,8.478809595E-1
3.051116943E0,3.188716471E-1,1.098335743E0,8.423831463E-1
3.053131104E0,3.237585723E-1,1.121548533E0,8.301658630E-1
3.055114746E0,3.365867436E-1,1.132544160E0,8.136724830E-1
3.057159424E0,3.445279896E-1,1.136209369E0,8.057312369E-1
3.059112549E0,3.659082949E-1,1.166141748E0,7.922922373E-1
3.061126709E0,3.811798990E-1,1.182024240E0,7.806857824E-1
3.063110352E0,3.897320330E-1,1.199128509E0,7.739662528E-1
3.065124512E0,4.031710625E-1,1.220508814E0,7.611380816E-1
3.067108154E0,4.123340547E-1,1.252884626E0,7.513642311E-1
3.069122314E0,4.178318381E-1,1.271821499E0,7.489207983E-1
3.071105957E0,4.257730842E-1,1.313360333E0,7.397578359E-1
3.073120117E0,4.324925840E-1,1.327410221E0,7.263187766E-1
3.075103760E0,4.392121136E-1,1.334740520E0,7.159340382E-1
3.077148438E0,4.526511431E-1,1.347568750E0,6.951646209E-1
3.079101563E0,4.648684561E-1,1.349401355E0,6.847799420E-1
3.081115723E0,4.673119187E-1,1.356731653E0,6.853908300E-1
3.083099365E0,4.685336351E-1,1.394605398E0,6.896668673E-1
3.085113525E0,4.648684561E-1,1.404990077E0,6.847799420E-1
3.087097168E0,4.642575979E-1,1.439198494E0,6.750060916E-1
3.089111328E0,4.593706727E-1,1.458746195E0,6.633996367E-1
3.091094971E0,4.581489265E-1,1.459357023E0,6.536257863E-1
3.093109131E0,4.599815309E-1,1.464244008E0,6.218608022E-1
3.095092773E0,4.660901725E-1,1.470352650E0,5.766568184E-1
3.097137451E0,4.667010605E-1,1.469130874E0,5.503895879E-1
3.099090576E0,4.789183438E-1,1.454470158E0,4.886921942E-1
3.101104736E0,4.893030524E-1,1.437365890E0,4.251621962E-1
3.103088379E0,4.996877611E-1,1.432479024E0,3.940080702E-1
3.105102539E0,5.143485069E-1,1.409266114E0,3.213151097E-1
3.107086182E0,5.296201706E-1,1.385442376E0,2.516764700E-1
3.109100342E0,5.400048494E-1,1.370781660E0,2.168571651E-1
3.111083984E0,5.522221923E-1,1.342070937E0,1.508837193E-1
3.113098145E0,5.607742667E-1,1.320079803E0,8.491026610E-2
3.115081787E0,5.626068711E-1,1.312138557E0,5.558873713E-2
3.117126465E0,5.656611919E-1,1.279151797E0,-4.276056774E-3
3.119110107E0,5.662720799E-1,1.264491081E0,-6.169738993E-2
3.121093750E0,5.626068711E-1,1.260215044E0,-9.040805697E-2
3.123107910E0,5.650503635E-1,1.221730471E0,-1.533271819E-1
3.125091553E0,5.650503635E-1,1.169806957E0,-2.211332172E-1
3.127105713E0,5.662720799E-1,1.155146122E0,-2.547308207E-1
3.129089355E0,5.693264008E-1,1.096503139E0,-3.225368559E-1
3.131103516E0,5.717698932E-1,1.065959811E0,-3.604104817E-1
3.133087158E0,5.778785348E-1,1.001819015E0,-4.312708676E-1
3.135101318E0,5.858197808E-1,9.211847782E-1,-5.009095073E-1
3.137115479E0,5.931501389E-1,8.820894361E-1,-5.345070958E-1
3.139099121E0,6.078109145E-1,8.075638413E-1,-6.059783101E-1
3.141082764E0,6.206390858E-1,7.360926270E-1,-6.719517708E-1
3.143096924E0,6.279694438E-1,6.969972253E-1,-7.073819637E-1
3.145080566E0,6.407976151E-1,6.175847650E-1,-7.727445364E-1
3.147094727E0,6.487388611E-1,5.369505286E-1,-8.338310719E-1
3.149078369E0,6.530149579E-1,5.070181489E-1,-8.613200188E-1
3.151092529E0,6.585127115E-1,4.288274050E-1,-9.181304574E-1
3.153076172E0,6.597344875E-1,3.659082949E-1,-9.737191796E-1
3.155059814E0,6.585127115E-1,3.298672438E-1,-1.001208186E0
3.157073975E0,6.493497491E-1,2.785545588E-1,-1.053131700E0
3.159057617E0,6.340781450E-1,2.364048511E-1,-1.102000952E0
3.161041260E0,6.218608022E-1,2.162462920E-1,-1.127657294E0
3.163055420E0,5.937610269E-1,1.771509200E-1,-1.175304770E0
3.165039063E0,5.632177591E-1,1.441642046E-1,-1.222341299E0
3.167053223E0,5.436700583E-1,1.233947799E-1,-1.245554209E0
3.169036865E0,5.002986193E-1,8.613199741E-2,-1.289536476E0
3.171051025E0,4.514294267E-1,7.330382615E-2,-1.323134065E0
3.173034668E0,4.269948006E-1,6.291911751E-2,-1.342070937E0
3.175048828E0,3.689626157E-1,4.398229718E-2,-1.370170712E0
3.177062988E0,3.371976018E-1,4.092797264E-2,-1.385442376E0
3.179046631E0,2.645046413E-1,2.015855350E-2,-1.412931323E0
3.181030273E0,1.844813079E-1,1.343903504E-2,-1.442863703E0
3.183044434E0,1.429424733E-1,1.099557430E-2,-1.455691934E0
3.185028076E0,4.459316283E-2,7.330383174E-3,-1.483180761E0
3.187042236E0,-5.192354694E-2,3.665191587E-3,-1.500285029E0
3.189025879E0,-1.056796908E-1,7.330383174E-3,-1.506393671E0
3.191040039E0,-2.095267773E-1,2.199114859E-2,-1.510058880E0
3.193023682E0,-3.066543639E-1,2.932153270E-2,-1.492343783E0
3.195037842E0,-3.543018401E-1,4.337143153E-2,-1.483180761E0
3.197052002E0,-4.483750761E-1,7.269296050E-2,-1.456302762E0
3.199005127E0,-5.430592299E-1,1.062905490E-1,-1.415374756E0
3.201019287E0,-5.870414972E-1,1.221730486E-1,-1.392161846E0
3.203002930E0,-6.731734872E-1,1.643227488E-1,-1.337794900E0
3.205017090E0,-7.495316267E-1,2.009746730E-1,-1.273653984E0
3.207000732E0,-7.812966704E-1,2.235766798E-1,-1.240056396E0
3.209014893E0,-8.436049223E-1,2.651155293E-1,-1.162476540E0
3.210998535E0,-8.851437569E-1,3.152064681E-1,-1.070235968E0
3.213012695E0,-9.004153609E-1,3.359758854E-1,-1.019534111E0
3.214996338E0,-9.126327038E-1,3.817907870E-1,-9.059131742E-1
3.217041016E0,-9.101892114E-1,4.306600094E-1,-7.825183868E-1
3.218994141E0,-8.936958313E-1,4.581489265E-1,-7.214318514E-1
3.221008301E0,-8.546004891E-1,5.235115290E-1,-5.955936313E-1
3.222991943E0,-8.271115422E-1,5.516113043E-1,-5.357288122E-1
3.225006104E0,-7.617489696E-1,6.212499738E-1,-4.196644127E-1
3.226989746E0,-6.896668673E-1,6.805039048E-1,-3.084869385E-1
3.229003906E0,-6.475171447E-1,7.122688890E-1,-2.583959997E-1
3.230987549E0,-5.607742667E-1,7.867944241E-1,-1.545489132E-1
3.233001709E0,-4.697553813E-1,8.313875794E-1,-5.314527452E-2
3.234985352E0,-4.208861589E-1,8.405506015E-1,6.108652451E-4
3.237030029E0,-3.127630055E-1,8.552113175E-1,1.148426682E-1
3.238983154E0,-1.905899495E-1,8.228355050E-1,2.376265824E-1
3.240997314E0,-1.270599663E-1,7.886270285E-1,3.017674387E-1
3.242980957E0,1.771509275E-2,7.153232098E-1,4.459316432E-1
3.244995117E0,1.710422635E-1,6.285803318E-1,5.949827433E-1
3.246978760E0,2.528982162E-1,5.827654600E-1,6.682865620E-1
3.248992920E0,4.153883755E-1,4.776966274E-1,8.075638413E-1
3.250976563E0,5.662720799E-1,3.726277947E-1,9.266825914E-1
3.252990723E0,6.346889734E-1,3.152064681E-1,9.743300676E-1
3.254974365E0,7.531968355E-1,2.217440903E-1,1.050688267E0
3.257019043E0,8.484918475E-1,1.166752651E-1,1.096503139E0
3.258972168E0,8.875871897E-1,8.552113175E-2,1.111774802E0
3.260986328E0,9.468411207E-1,1.282817032E-2,1.128878951E0
3.262969971E0,9.657779336E-1,-1.343903504E-2,1.136820197E0
3.264984131E0,9.920451641E-1,-4.886921868E-2,1.138652802E0
3.266967773E0,1.007316828E0,-5.314527452E-2,1.137431145E0
3.268981934E0,1.011592865E0,-3.481931984E-2,1.133765936E0
3.270965576E0,1.006095052E0,2.076941915E-2,1.117883444E0
3.272979736E0,9.853256345E-1,9.896016866E-2,1.092227101E0
3.274963379E0,9.669997096E-1,1.551597714E-1,1.078177214E0
3.277008057E0,9.285151958E-1,2.816088796E-1,1.042747021E0
3.278991699E0,8.729264140E-1,4.233296216E-1,9.987646937E-1
3.280975342E0,8.460483551E-1,5.051855445E-1,9.737191796E-1
3.282989502E0,7.806857824E-1,6.591235995E-1,9.205739498E-1
3.284973145E0,7.055493593E-1,7.996225953E-1,8.570439219E-1
3.286987305E0,6.682865620E-1,8.784242272E-1,8.258898258E-1
3.288970947E0,5.931501389E-1,1.006705880E0,7.513642311E-1
3.290985107E0,5.112941861E-1,1.124602914E0,6.707300544E-1
3.292968750E0,4.697553813E-1,1.163087368E0,6.285803318E-1
3.294982910E0,3.891211748E-1,1.227228284E0,5.393940210E-1
3.296997070E0,3.072652221E-1,1.262047648E0,4.440990388E-1
3.298980713E0,2.590068579E-1,1.254717231E0,3.940080702E-1
3.300964355E0,1.728748679E-1,1.223563075E0,2.907718420E-1
3.302978516E0,8.063421398E-2,1.164919972E0,1.905899495E-1
3.304962158E0,3.543018550E-2,1.131322384E0,1.453859210E-1
3.306976318E0,-6.108652428E-2,1.048855662E0,5.436700583E-2
3.308959961E0,-1.081231460E-1,1.006705880E0,1.160643995E-2
3.310974121E0,-2.009746730E-1,9.248499870E-1,-6.719517708E-2
3.312957764E0,-2.968805134E-1,8.338310719E-1,-1.398881376E-1
3.314971924E0,-3.439171314E-1,7.922922373E-1,-1.698205322E-1
3.316986084E0,-4.318817258E-1,6.994407177E-1,-2.345722616E-1
3.318969727E0,-5.198463202E-1,6.200281978E-1,-2.932153046E-1
3.320953369E0,-5.583308339E-1,5.827654600E-1,-3.249803185E-1
3.322967529E0,-6.285803318E-1,5.100724697E-1,-3.811798990E-1
3.324951172E0,-6.847799420E-1,4.373795092E-1,-4.367686510E-1
3.326965332E0,-7.073819637E-1,4.056145251E-1,-4.654793143E-1
3.328948975E0,-7.226535678E-1,3.243694305E-1,-5.222898126E-1
3.330963135E0,-7.195992470E-1,2.706133127E-1,-5.937610269E-1
3.332946777E0,-7.067710757E-1,2.528982162E-1,-6.304129362E-1
3.334960938E0,-6.627888083E-1,2.125810981E-1,-7.177666426E-1
3.336975098E0,-6.065891981E-1,1.948660165E-1,-8.118399382E-1
3.338928223E0,-5.797111392E-1,1.887573600E-1,-8.607091308E-1
3.340942383E0,-5.400048494E-1,1.899790913E-1,-9.615018964E-1
3.342956543E0,-5.326744914E-1,1.875356287E-1,-1.045801282E0
3.344940186E0,-5.418374538E-1,1.905899495E-1,-1.086118460E0
3.346954346E0,-5.833762884E-1,1.973094791E-1,-1.145983219E0
3.348937988E0,-6.554583907E-1,1.850921661E-1,-1.171639562E0
3.350982666E0,-6.902777553E-1,1.753183305E-1,-1.172250390E0
3.352935791E0,-7.617489696E-1,2.052507252E-1,-1.126435518E0
3.354949951E0,-7.861835957E-1,2.272418737E-1,-1.083674908E0
3.356964111E0,-8.063421249E-1,3.176499307E-1,-9.431759119E-1
3.358917236E0,-7.874053121E-1,4.410447180E-1,-7.250970602E-1
3.360931397E0,-7.629706860E-1,5.033529401E-1,-5.943718553E-1
3.362915039E0,-6.976081133E-1,6.340781450E-1,-3.036000133E-1
3.364929199E0,-6.230825782E-1,7.409795523E-1,-1.710422710E-2
3.366912842E0,-5.870414972E-1,7.843509912E-1,1.166752651E-1
3.368927002E0,-5.204572082E-1,8.558222055E-1,3.451388776E-1
3.370910645E0,-4.563163519E-1,9.071348906E-1,5.229006410E-1
3.372924805E0,-4.257730842E-1,9.224064946E-1,5.894849896E-1
3.374908447E0,-3.604104817E-1,9.596692920E-1,6.792821288E-1
3.376953125E0,-2.913827300E-1,9.657779336E-1,7.134906054E-1
3.378906250E0,-2.583959997E-1,9.511171579E-1,7.086036801E-1
3.380920410E0,-1.869247705E-1,8.985827565E-1,6.646214128E-1
3.382904053E0,-1.191187203E-1,8.362745047E-1,5.937610269E-1
3.384918213E0,-8.491026610E-2,8.008443117E-1,5.412266254E-1
3.386901855E0,-1.710422710E-2,7.324274182E-1,4.392121136E-1
3.388916016E0,3.970624134E-2,6.572909951E-1,3.396410644E-1
3.390899658E0,6.291911751E-2,6.114761233E-1,2.944370508E-1
3.392913818E0,1.038470939E-1,4.978551865E-1,2.199114859E-1
3.394897461E0,1.356120855E-1,3.628539443E-1,1.643227488E-1
3.396942139E0,1.466076523E-1,2.913827300E-1,1.466076523E-1
3.398895264E0,1.704314053E-1,1.429424733E-1,1.111774743E-1
3.400909424E0,1.802052408E-1,7.269296050E-2,8.918632567E-2
3.402893066E0,1.973094791E-1,-6.169738993E-2,4.459316283E-2
3.404907227E0,2.131919712E-1,-1.893682331E-1,-2.138028294E-2
3.406890869E0,2.144137025E-1,-2.498438805E-1,-5.742133409E-2
3.408905029E0,2.186897546E-1,-3.762930036E-1,-1.466076523E-1
3.410888672E0,2.156354338E-1,-5.076290369E-1,-2.382374406E-1
3.412902832E0,2.113593817E-1,-5.742133260E-1,-2.877175212E-1
3.414886475E0,2.021963894E-1,-7.098253965E-1,-3.854559660E-1
3.416931152E0,1.979203373E-1,-8.619308472E-1,-4.856378734E-1
3.418884277E0,1.966986060E-1,-9.376781583E-1,-5.332853794E-1
3.420898438E0,2.028072625E-1,-1.105666041E0,-6.291912198E-1
3.422882080E0,2.083050460E-1,-1.276708364E0,-7.110471725E-1
3.424896240E0,2.144137025E-1,-1.370170712E0,-7.519751191E-1
3.426879883E0,2.351831198E-1,-1.544267297E0,-8.326093554E-1
3.428894043E0,2.693915665E-1,-1.716531396E0,-9.132435322E-1
3.430877686E0,2.950479090E-1,-1.797776461E0,-9.547823668E-1
3.432891846E0,3.591887653E-1,-1.932777643E0,-1.029307961E0
3.434875488E0,4.361577928E-1,-2.010968447E0,-1.095892191E0
3.436920166E0,4.734205604E-1,-2.027461767E0,-1.127046347E0
3.438903809E0,5.516113043E-1,-2.025018215E0,-1.182635069E0
3.440887451E0,6.102544069E-1,-1.955379605E0,-1.235780358E0
3.442901611E0,6.212499738E-1,-1.902845263E0,-1.265712738E0
3.444885254E0,5.968153477E-1,-1.798387289E0,-1.353066564E0
3.446899414E0,5.412266254E-1,-1.759902716E0,-1.409876943E0
3.448883057E0,3.475823104E-1,-1.706757545E0,-1.531439185E0
3.450897217E0,9.224065393E-2,-1.650557876E0,-1.656666517E0
3.452880859E0,-4.031710699E-2,-1.607186437E0,-1.714698792E0
3.454895020E0,-3.078760803E-1,-1.490511179E0,-1.803274155E0
3.456909180E0,-5.803219676E-1,-1.394605398E0,-1.852754235E0
3.458892822E0,-7.165449262E-1,-1.340849161E0,-1.864971638E0
3.460876465E0,-9.584475756E-1,-1.219897866E0,-1.871691108E0
3.462890625E0,-1.123992085E0,-1.092227101E0,-1.836871743E0
3.464874268E0,-1.179580808E0,-1.020144939E0,-1.804495931E0
3.466888428E0,-1.228450060E0,-9.285151958E-1,-1.718974829E0
3.468872070E0,-1.202793717E0,-8.362745047E-1,-1.605353832E0
3.470886230E0,-1.167974353E0,-8.112290502E-1,-1.538158655E0
3.472869873E0,-1.061683774E0,-8.478809595E-1,-1.417207360E0
3.474884033E0,-9.230173826E-1,-9.425650835E-1,-1.311527729E0
3.476898193E0,-8.472700715E-1,-1.007927656E0,-1.270599723E0
3.478881836E0,-6.921103001E-1,-1.155757070E0,-1.195463300E0
3.480865479E0,-5.528330207E-1,-1.312749386E0,-1.140485406E0
3.482879639E0,-4.905247986E-1,-1.387274981E0,-1.120326877E0
3.484863281E0,-3.976732790E-1,-1.480126500E0,-1.086729288E0
3.486877441E0,-3.433062732E-1,-1.489900351E0,-1.064127207E0
3.488861084E0,-3.323107064E-1,-1.471574426E0,-1.057407737E0
3.490875244E0,-3.396410644E-1,-1.380555511E0,-1.056796908E0
3.492858887E0,-3.610213697E-1,-1.312749386E0,-1.057407737E0
3.494873047E0,-4.135557711E-1,-1.160643935E0,-1.069014192E0
3.496887207E0,-4.825835526E-1,-1.025031924E0,-1.083674908E0
3.498870850E0,-5.198463202E-1,-9.657779336E-1,-1.092227101E0
3.500854492E0,-5.968153477E-1,-8.704829812E-1,-1.109331250E0
3.502868652E0,-6.695083380E-1,-8.442157507E-1,-1.123992085E0
3.504852295E0,-7.024950385E-1,-8.655960560E-1,-1.127046347E0
3.506866455E0,-7.550294399E-1,-9.034696817E-1,-1.130711555E0
3.508850098E0,-7.941248417E-1,-9.877691269E-1,-1.126435518E0
3.510864258E0,-8.106181622E-1,-1.051299095E0,-1.125213742E0
3.512847900E0,-8.350527883E-1,-1.165530920E0,-1.122159481E0
3.514862061E0,-8.503243923E-1,-1.287093043E0,-1.123381138E0
3.516876221E0,-8.619308472E-1,-1.348790407E0,-1.125824690E0
3.518829346E0,-8.808676600E-1,-1.469741821E0,-1.141707182E0
3.520843506E0,-8.955284357E-1,-1.582141042E0,-1.171639562E0
3.522827148E0,-9.010262489E-1,-1.632231951E0,-1.189354658E0
3.524841309E0,-9.046914577E-1,-1.737911582E0,-1.230282545E0
3.526824951E0,-9.040805697E-1,-1.847256541E0,-1.280373573E0
3.528839111E0,-9.059131742E-1,-1.903456092E0,-1.306640744E0
3.530822754E0,-8.888089061E-1,-1.995696783E0,-1.363451242E0
3.532836914E0,-8.692612648E-1,-2.053117990E0,-1.390329242E0
3.534820557E0,-8.539896011E-1,-2.161241293E0,-1.447750688E0
3.536865234E0,-8.155050874E-1,-2.255314589E0,-1.500285029E0
3.538818359E0,-7.941248417E-1,-2.307238102E0,-1.523497939E0
3.540832520E0,-7.428121567E-1,-2.398257017E0,-1.570534587E0
3.542816162E0,-7.018841505E-1,-2.459343433E0,-1.613295078E0
3.544830322E0,-6.884451509E-1,-2.486832380E0,-1.637729764E0
3.546813965E0,-6.627888083E-1,-2.470339060E0,-1.687209845E0
3.548828125E0,-6.432411075E-1,-2.422691584E0,-1.721418262E0
3.550811768E0,-6.322455406E-1,-2.409863472E0,-1.731802940E0
3.552825928E0,-5.907067060E-1,-2.397646189E0,-1.739744186E0
3.554809570E0,-5.546656251E-1,-2.400700331E0,-1.737300754E0
3.556854248E0,-5.418374538E-1,-2.387261391E0,-1.734857321E0
3.558807373E0,-5.229006410E-1,-2.337781191E0,-1.736689925E0
3.560821533E0,-5.155702829E-1,-2.274251223E0,-1.739133358E0
3.562805176E0,-5.186246037E-1,-2.235155821E0,-1.738522530E0
3.564819336E0,-5.369505286E-1,-2.153300047E0,-1.730581284E0
3.566802979E0,-5.699372888E-1,-2.061670303E0,-1.712866187E0
3.568817139E0,-5.815436840E-1,-2.016466141E0,-1.699427128E0
3.570800781E0,-6.218608022E-1,-1.943773150E0,-1.667051196E0
3.572814941E0,-6.517932415E-1,-1.882075787E0,-1.631010175E0
3.574798584E0,-6.652322412E-1,-1.862528086E0,-1.610851645E0
3.576843262E0,-6.939429045E-1,-1.867415071E0,-1.565647602E0
3.578796387E0,-7.055493593E-1,-1.860084653E0,-1.538769603E0
3.580810547E0,-7.275404930E-1,-1.890017033E0,-1.487456918E0
3.582794189E0,-7.654141784E-1,-1.891849637E0,-1.437365890E0
3.584808350E0,-7.886270285E-1,-1.891238809E0,-1.411709547E0
3.586791992E0,-8.442157507E-1,-1.874745488E0,-1.365894675E0
3.588806152E0,-8.955284357E-1,-1.825265408E0,-1.323745012E0
3.590789795E0,-9.254608750E-1,-1.794722080E0,-1.306640744E0
3.592803955E0,-9.749409556E-1,-1.759902716E0,-1.272432327E0
3.594787598E0,-1.020144939E0,-1.736689925E0,-1.243721604E0
3.596832275E0,-1.037860036E0,-1.729970336E0,-1.229671717E0
3.598785400E0,-1.067792416E0,-1.708590150E0,-1.209513187E0
3.600769043E0,-1.085507512E0,-1.708590150E0,-1.196074128E0
3.602783203E0,-1.095892191E0,-1.717753053E0,-1.191798091E0
3.604766846E0,-1.103222609E0,-1.723861694E0,-1.185689449E0
3.606781006E0,-1.112385631E0,-1.746463776E0,-1.180802464E0
3.608764648E0,-1.112996459E0,-1.750739813E0,-1.178359032E0
3.610778809E0,-1.111163855E0,-1.778839588E0,-1.175915599E0
3.612762451E0,-1.102611780E0,-1.805106759E0,-1.163698316E0
3.614746094E0,-1.094670534E0,-1.819156647E0,-1.155146122E0
3.616760254E0,-1.073901057E0,-1.850310802E0,-1.138041973E0
3.618743897E0,-1.059851170E0,-1.859473825E0,-1.130100727E0
3.620727539E0,-1.028697014E0,-1.866193295E0,-1.117272496E0
3.622741699E0,-1.001819015E0,-1.865582466E0,-1.103222609E0
3.624725342E0,-9.853256345E-1,-1.863139033E0,-1.094670534E0
3.626739502E0,-9.535606503E-1,-1.832595706E0,-1.070846796E0
3.628723145E0,-9.272934198E-1,-1.796554685E0,-1.042747021E0
3.630737305E0,-9.126327038E-1,-1.772120118E0,-1.032973170E0
3.632720947E0,-8.930850029E-1,-1.725083470E0,-9.975429177E-1
3.634704590E0,-8.753699064E-1,-1.672549009E0,-9.584475756E-1
3.636718750E0,-8.680394888E-1,-1.642005801E0,-9.388998747E-1
3.638702393E0,-8.509352803E-1,-1.588860512E0,-8.979719281E-1
3.640686035E0,-8.423831463E-1,-1.522276163E0,-8.527678847E-1
3.642700195E0,-8.478809595E-1,-1.482569933E0,-8.307767510E-1
3.644683838E0,-8.472700715E-1,-1.387885809E0,-7.922922373E-1
3.646667480E0,-8.637634516E-1,-1.273653984E0,-7.562511563E-1
3.648651123E0,-8.778133392E-1,-1.230893493E0,-7.397578359E-1
3.650665283E0,-9.095783234E-1,-1.118494272E0,-7.104362845E-1
3.652648926E0,-9.547823668E-1,-1.014036298E0,-6.786713004E-1
3.654632568E0,-9.779952765E-1,-9.535606503E-1,-6.640105247E-1
3.656646729E0,-1.026253581E0,-8.668177724E-1,-6.389650702E-1
3.658630371E0,-1.050688267E0,-8.271115422E-1,-6.285803318E-1
3.660614014E0,-1.097113967E0,-7.703011036E-1,-6.059783101E-1
3.662628174E0,-1.139874578E0,-7.367035151E-1,-5.827654600E-1
3.664611816E0,-1.155757070E0,-7.238753438E-1,-5.668829679E-1
3.666625977E0,-1.191798091E0,-7.104362845E-1,-5.369505286E-1
3.668609619E0,-1.226617455E0,-7.153232098E-1,-5.064072609E-1
3.670623779E0,-1.241889000E0,-7.171558142E-1,-4.954117239E-1
3.672607422E0,-1.272432327E0,-7.507534027E-1,-4.660901725E-1
3.674621582E0,-1.292590857E0,-7.770205736E-1,-4.428772926E-1
3.676635742E0,-1.301142931E0,-7.959573865E-1,-4.318817258E-1
3.678588867E0,-1.313360333E0,-8.533787727E-1,-4.111123085E-1
3.680572510E0,-1.326799273E0,-8.881980777E-1,-3.897320330E-1
3.682556152E0,-1.329242826E0,-9.205739498E-1,-3.799581826E-1
3.684570313E0,-1.333518863E0,-9.779952765E-1,-3.628539443E-1
3.686553955E0,-1.334129691E0,-1.026253581E0,-3.494149148E-1
3.688568115E0,-1.329853654E0,-1.049466491E0,-3.420845270E-1
3.690551758E0,-1.321301579E0,-1.094670534E0,-3.347541690E-1
3.692535400E0,-1.317025423E0,-1.112385631E0,-3.274237812E-1
3.694519043E0,-1.307251573E0,-1.165530920E0,-3.219259977E-1
3.696563721E0,-1.283427835E0,-1.216232657E0,-3.109304011E-1
3.698516846E0,-1.281595230E0,-1.241889000E0,-3.060434759E-1
3.700531006E0,-1.260825872E0,-1.288314819E0,-2.932153046E-1
3.702514648E0,-1.238223910E0,-1.332297087E0,-2.877175212E-1
3.704528809E0,-1.226617455E0,-1.346346974E0,-2.803871334E-1
3.706512451E0,-1.192408919E0,-1.384220600E0,-2.706133127E-1
3.708526611E0,-1.155146122E0,-1.417818189E0,-2.541199327E-1
3.710510254E0,-1.129489779E0,-1.441641927E0,-2.486221492E-1
3.712524414E0,-1.077566266E0,-1.477072120E0,-2.284636050E-1
3.714508057E0,-1.020755768E0,-1.515556693E0,-2.138028294E-1
3.716552734E0,-9.963212013E-1,-1.530217409E0,-2.052507252E-1
3.718505859E0,-9.364564419E-1,-1.551597714E0,-1.850921661E-1
3.720520020E0,-8.674286604E-1,-1.588249683E0,-1.649336219E-1
3.722503662E0,-8.399397135E-1,-1.619403720E0,-1.539380401E-1
3.724517822E0,-7.806857824E-1,-1.670716405E0,-1.374446750E-1
3.726501465E0,-7.336491346E-1,-1.700648785E0,-1.233947799E-1
3.728515625E0,-7.165449262E-1,-1.712866187E0,-1.221730486E-1
3.730499268E0,-6.860016584E-1,-1.730581284E0,-1.197295859E-1
3.732513428E0,-6.682865620E-1,-1.722640038E0,-1.197295859E-1
3.734497070E0,-6.609562039E-1,-1.717753053E0,-1.221730486E-1
3.736541748E0,-6.542366743E-1,-1.704924941E0,-1.246165112E-1
3.738494873E0,-6.542366743E-1,-1.672549009E0,-1.240056455E-1
3.740509033E0,-6.719517708E-1,-1.624901533E0,-1.221730486E-1
3.742492676E0,-6.927211881E-1,-1.583973527E0,-1.203404516E-1
3.744506836E0,-6.988298297E-1,-1.558928132E0,-1.166752651E-1
3.746490479E0,-7.257078886E-1,-1.523497939E0,-1.044579595E-1
3.748504639E0,-7.525860071E-1,-1.481959105E0,-8.735372871E-2
3.750518799E0,-7.623597980E-1,-1.472185254E0,-7.635815442E-2
3.752471924E0,-7.788531780E-1,-1.451415777E0,-5.009094998E-2
3.754455566E0,-7.904596329E-1,-1.434311628E0,-2.199114859E-2
3.756469727E0,-7.904596329E-1,-1.428202987E0,-3.054326167E-3
3.758422852E0,-7.910705209E-1,-1.403157473E0,3.237585723E-2
3.760406494E0,-7.825183868E-1,-1.378722906E0,7.452555746E-2
3.762390137E0,-7.770205736E-1,-1.371392488E0,9.590584040E-2
3.764373779E0,-7.611380816E-1,-1.354899168E0,1.417207420E-1
3.766387939E0,-7.397578359E-1,-1.338405728E0,1.899790913E-1
3.768371582E0,-7.232644558E-1,-1.328021049E0,2.131919712E-1
3.770385742E0,-6.921103001E-1,-1.310305953E0,2.608394623E-1
3.772369385E0,-6.792821288E-1,-1.302364707E0,2.834414840E-1
3.774353027E0,-6.389650702E-1,-1.293812633E0,3.231477141E-1
3.776367188E0,-6.023131609E-1,-1.271821499E0,3.567453027E-1
3.778350830E0,-5.845980644E-1,-1.267545342E0,3.714060783E-1
3.780334473E0,-5.461135507E-1,-1.244943380E0,3.927863538E-1
3.782348633E0,-5.039638281E-1,-1.214400053E0,4.074471295E-1
3.784332275E0,-4.850270152E-1,-1.196074128E0,4.172209501E-1
3.786346436E0,-4.361577928E-1,-1.169196129E0,4.343251884E-1
3.788330078E0,-3.836233616E-1,-1.149648428E0,4.532620013E-1
3.790344238E0,-3.567453027E-1,-1.138041973E0,4.636467099E-1
3.792327881E0,-2.926044464E-1,-1.087340117E0,4.740314186E-1
3.794342041E0,-2.254092693E-1,-1.028086185E0,4.801400900E-1
3.796356201E0,-2.028072625E-1,-1.009149432E0,4.941899776E-1
3.798339844E0,-1.698205322E-1,-9.755517840E-1,5.265658498E-1
3.800323486E0,-1.343903542E-1,-9.456194043E-1,5.601634383E-1
3.802337647E0,-1.142318025E-1,-9.248499870E-1,5.723807216E-1
3.804321289E0,-7.391469181E-2,-8.875871897E-1,6.004805565E-1
3.806335449E0,-2.382374369E-2,-8.411614299E-1,6.285803318E-1
3.808319092E0,3.054326167E-3,-8.136724830E-1,6.395758986E-1
3.810333252E0,6.658431143E-2,-7.422012687E-1,6.572909951E-1
3.812316895E0,9.590584040E-2,-7.116580009E-1,6.707300544E-1
3.814331055E0,1.643227488E-1,-6.414085031E-1,6.988298297E-1
3.816345215E0,2.400700450E-1,-5.632177591E-1,7.232644558E-1
3.818328857E0,2.797762752E-1,-5.149593949E-1,7.348709106E-1
3.820312500E0,3.604104817E-1,-4.196644127E-1,7.593054771E-1
3.822326660E0,4.434881806E-1,-3.048217595E-1,7.886270285E-1
3.824310303E0,4.905247986E-1,-2.449569702E-1,8.038986921E-1
3.826324463E0,5.888741016E-1,-1.337794960E-1,8.368853927E-1
3.828308105E0,7.006624341E-1,1.282817032E-2,8.674286604E-1
3.830322266E0,7.507534027E-1,7.452555746E-2,8.857545853E-1
3.832305908E0,8.576548100E-1,1.844813079E-1,9.242390990E-1
3.834320068E0,9.712757468E-1,2.981022298E-1,9.712757468E-1
3.836334229E0,1.027475357E0,3.475823104E-1,9.938777685E-1
3.838287354E0,1.142928839E0,4.685336351E-1,1.039081812E0
3.840301514E0,1.262047648E0,5.815436840E-1,1.087950945E0
3.842285156E0,1.318858027E0,6.224716902E-1,1.112385631E0
3.844268799E0,1.434311628E0,7.189884186E-1,1.169196129E0
3.846252441E0,1.544878244E0,8.124507666E-1,1.231504321E0
3.848266602E0,1.599856019E0,8.558222055E-1,1.261436701E0
3.850250244E0,1.712255239E0,9.486737251E-1,1.331075311E0
3.852264404E0,1.765400529E0,9.926560521E-1,1.362840414E0
3.854248047E0,1.897347450E0,1.109331250E0,1.420261741E0
3.856262207E0,2.009135723E0,1.182635069E0,1.497230768E0
3.858215332E0,2.059837580E0,1.204626322E0,1.536326051E0
3.860229492E0,2.166128159E0,1.271821499E0,1.616349459E0
3.862213135E0,2.252871037E0,1.330464482E0,1.697594523E0
3.864227295E0,2.293188095E0,1.371392488E0,1.734857321E0
3.866210938E0,2.367713690E0,1.419039965E0,1.805717707E0
3.868225098E0,2.418415546E0,1.461189628E0,1.876578093E0
3.870208740E0,2.434298038E0,1.480126500E0,1.912008166E0
3.872222900E0,2.446515322E0,1.466687441E0,1.982868552E0
3.874206543E0,2.440406561E0,1.466076612E0,2.051896334E0
3.876251221E0,2.430022001E0,1.458135366E0,2.087326527E0
3.878204346E0,2.408641577E0,1.437976837E0,2.159408569E0
3.880218506E0,2.370157242E0,1.407433510E0,2.227825642E0
3.882202148E0,2.345111609E0,1.395216227E0,2.259590626E0
3.884216309E0,2.295020819E0,1.367727280E0,2.332283497E0
3.886199951E0,2.232101679E0,1.326799273E0,2.402533054E0
3.888214111E0,2.196060658E0,1.311527729E0,2.437963247E0
3.890197754E0,2.119091511E0,1.287093043E0,2.513099670E0
3.892211914E0,2.041511536E0,1.271821499E0,2.549751520E0
3.894195557E0,2.004859686E0,1.244943380E0,2.622444391E0
3.896240234E0,1.933388472E0,1.220508814E0,2.685363531E0
3.898193359E0,1.897347450E0,1.218676209E0,2.716517687E0
3.900267086E0,1.833817482E0,1.189354658E0,2.767219543E0
3.902250728E0,1.777617812E0,1.183856845E0,2.805093288E0
3.904264888E0,1.755626678E0,1.175915599E0,2.820975780E0
3.906248531E0,1.721418262E0,1.162476540E0,2.837469101E0
3.908262691E0,1.694540143E0,1.149648428E0,2.842355967E0
3.910246334E0,1.679879427E0,1.145983219E0,2.841134310E0
3.912260494E0,1.661553502E0,1.130711555E0,2.829527855E0
3.914244136E0,1.640173197E0,1.113607287E0,2.811812639E0
3.916288814E0,1.633453608E0,1.116661668E0,2.796540976E0
3.918272457E0,1.610851645E0,1.103222609E0,2.762943506E0
3.920256099E0,1.586417079E0,1.090394497E0,2.710409164E0
3.922270260E0,1.574199796E0,1.094059706E0,2.680476665E0
3.924253902E0,1.547321677E0,1.089783549E0,2.611449003E0
3.926268062E0,1.518610954E0,1.076955438E0,2.531425476E0
3.928251705E0,1.503339410E0,1.071457624E0,2.484999895E0
3.930265865E0,1.481348276E0,1.036638379E0,2.386039734E0
3.932249508E0,1.453859329E0,1.017701507E0,2.279138327E0
3.934263668E0,1.444696307E0,9.969320893E-1,2.222938538E0
3.936277828E0,1.426370382E0,9.810495973E-1,2.102598190E0
3.938261470E0,1.419650793E0,9.755517840E-1,1.974927306E0
3.940245113E0,1.415985584E0,9.810495973E-1,1.908343077E0
3.942259273E0,1.406211853E0,9.761626720E-1,1.770898342E0
3.944242916E0,1.406211853E0,9.645562172E-1,1.623068929E0
3.946257076E0,1.407433510E0,9.596692920E-1,1.547321677E0
3.948240719E0,1.415374756E0,9.486737251E-1,1.385442376E0
3.950254879E0,1.419650793E0,9.505063295E-1,1.306640744E0
3.952238521E0,1.430035591E0,9.700540304E-1,1.135598540E0
3.954252681E0,1.436144233E0,1.004262447E0,9.590584636E-1
3.956266842E0,1.444085479E0,1.029307961E0,8.704829812E-1
3.958250484E0,1.449583173E0,1.097113967E0,6.878342628E-1
3.960234127E0,1.441031098E0,1.217454433E0,5.204572082E-1
3.962248287E0,1.432479024E0,1.312138557E0,4.416555762E-1
3.964231929E0,1.415374756E0,1.510058880E0,2.999348342E-1
3.966246090E0,1.406822681E0,1.735468149E0,1.618792862E-1
3.968229732E0,1.413542151E0,1.849699974E0,9.468411654E-2
3.970243892E0,1.419650793E0,2.044565916E0,-3.115412779E-2
3.972227535E0,1.435533285E0,2.205223560E0,-1.466076523E-1
3.974241695E0,1.456302762E0,2.291355610E0,-1.985312104E-1
3.976255855E0,1.494176388E0,2.430022001E0,-2.950479090E-1
3.978239498E0,1.542434692E0,2.560747147E0,-3.775147200E-1
3.980223140E0,1.563814998E0,2.624887943E0,-4.147774875E-1
3.982237301E0,1.611462474E0,2.736065388E0,-4.838052690E-1
3.984220943E0,1.670716405E0,2.842355967E0,-5.406157374E-1
3.986235103E0,1.706146598E0,2.872899294E0,-5.644394755E-1
3.988218746E0,1.779450417E0,2.963918209E0,-6.029239893E-1
3.990232906E0,1.860695481E0,3.032945871E0,-6.224716902E-1
3.992216549E0,1.912008166E0,3.056769609E0,-6.194173694E-1
3.994230709E0,2.024407387E0,3.089145660E0,-5.864306092E-1
3.996244869E0,2.083661318E0,3.112358332E0,-5.619960427E-1
3.998197994E0,2.197893143E0,3.168558121E0,-4.917465150E-1
4.000181636E0,2.309070587E0,3.224757671E0,-3.885102868E-1
4.002165279E0,2.357328892E0,3.221092463E0,-3.262020350E-1
4.004179439E0,2.448347807E0,3.210096836E0,-1.942551434E-1
4.006163082E0,2.503325701E0,3.159394979E0,-5.375614017E-2
4.008177242E0,2.514321327E0,3.127629995E0,2.138028294E-2
4.010160885E0,2.514321327E0,3.046385050E0,1.771509200E-1
4.012175045E0,2.480112791E0,2.933374882E0,3.408628106E-1
4.014158687E0,2.451402187E0,2.874731779E0,4.141666293E-1
4.016172847E0,2.383596182E0,2.709798336E0,5.430592299E-1
4.018125972E0,2.312124968E0,2.522262573E0,6.609562039E-1
4.020140133E0,2.272418737E0,2.434908867E0,7.122688890E-1
4.022123775E0,2.174680233E0,2.260201454E0,8.020660877E-1
4.024137935E0,2.065335512E0,2.083050489E0,8.741481900E-1
4.026121578E0,2.010968447E0,1.976759911E0,8.979719281E-1
4.028135738E0,1.893071413E0,1.825265408E0,9.376781583E-1
4.030119381E0,1.833206654E0,1.752572417E0,9.498954415E-1
4.032133541E0,1.709200978E0,1.606575608E0,9.615018964E-1
4.034117183E0,1.583362699E0,1.519832730E0,9.639453292E-1
