"Time (s)","Gyroscope x (rad/s)","Gyroscope y (rad/s)","Gyroscope z (rad/s)"
0.000000000E0,-2.619739249E-2,2.512575984E-1,-3.916518763E-2
3.971875000E-3,-4.291764647E-2,2.843315899E-1,-5.698499829E-2
7.948437000E-3,-4.577998444E-2,3.209660351E-1,-7.339109480E-2
1.191093700E-2,-3.537782282E-2,3.727848828E-1,-8.594001085E-2
1.588281200E-2,-1.310742274E-2,4.383918047E-1,-9.522516280E-2
1.985312500E-2,2.068215236E-2,4.954116940E-1,-9.930923581E-2
2.382343700E-2,6.832963973E-2,5.390275121E-1,-9.992010146E-2
2.779531200E-2,1.259255111E-1,5.826083422E-1,-9.421287477E-2
3.176562500E-2,1.888097227E-1,6.249849200E-1,-8.234463632E-2
3.573593700E-2,2.526364028E-1,6.625269651E-1,-6.253514439E-2
3.970625000E-2,3.166899979E-1,7.006100416E-1,-4.305727407E-2
4.367656200E-2,3.788411617E-1,7.455872297E-1,-2.624975145E-2
4.764687500E-2,4.411319792E-1,7.995004058E-1,-1.448623277E-2
5.161875000E-2,5.020614266E-1,8.613898158E-1,-7.801621687E-3
5.558750000E-2,5.590463877E-1,9.272236228E-1,-1.396263367E-3
5.955937500E-2,6.121568084E-1,9.916437268E-1,4.468042869E-3
6.352968700E-2,6.619684696E-1,1.067740083E0,8.569566533E-3
6.750000000E-2,7.056715488E-1,1.150224328E0,1.038470864E-2
7.147031200E-2,7.423408628E-1,1.233127475E0,7.714355364E-3
7.544062500E-2,7.785564661E-1,1.322942138E0,-3.490658419E-4
7.941093700E-2,8.182452321E-1,1.429599166E0,-1.134464052E-2
8.338281200E-2,8.588415980E-1,1.549049497E0,-1.979203336E-2
8.735312500E-2,8.992459774E-1,1.691607952E0,-2.244493365E-2
9.132343700E-2,9.346412420E-1,1.838268042E0,-2.146754973E-2
9.529375000E-2,9.635613561E-1,1.983043075E0,-2.031563222E-2
9.926406200E-2,9.888861179E-1,2.115321636E0,-2.272418700E-2
1.032343750E-1,1.006915331E0,2.247390747E0,-2.787290886E-2
1.072062500E-1,1.020040274E0,2.367312193E0,-3.131120652E-2
1.111765620E-1,1.027981520E0,2.441244364E0,-4.693190381E-2
1.151453120E-1,1.030075908E0,2.462450027E0,-7.393214852E-2
1.191171870E-1,1.016776443E0,2.455329180E0,-9.496336430E-2
1.230875000E-1,9.940348268E-1,2.420666933E0,-1.142841578E-1
1.270578120E-1,9.712058902E-1,2.378447533E0,-1.316850930E-1
1.310281250E-1,9.538224339E-1,2.349666834E0,-1.483878940E-1
1.349984370E-1,9.438740611E-1,2.340521336E0,-1.595405489E-1
1.389687500E-1,9.378177524E-1,2.330188990E0,-1.567305624E-1
1.429406250E-1,9.342921972E-1,2.301321268E0,-1.402022988E-1
1.469109370E-1,9.375734329E-1,2.246971846E0,-1.084896624E-1
1.508812500E-1,9.524087310E-1,2.177717209E0,-6.621779501E-2
1.548515620E-1,9.955532551E-1,2.072072268E0,7.696901914E-3
1.588218750E-1,1.090027928E0,1.897905946E0,1.491732895E-1
1.627921870E-1,1.182059169E0,1.808126211E0,2.870543003E-1
1.667640620E-1,1.225325823E0,1.831112146E0,3.661875427E-1
1.707343750E-1,1.239271045E0,1.828616381E0,4.377809465E-1
1.747031250E-1,1.251017094E0,1.793133855E0,5.529028773E-1
1.786750000E-1,1.261925459E0,1.786047816E0,6.929829717E-1
1.826453120E-1,1.262379169E0,1.827499390E0,8.257676363E-1
1.866156250E-1,1.234349251E0,1.843608737E0,9.336987734E-1
1.905859370E-1,1.191972613E0,1.820762396E0,1.003529429E0
1.945562500E-1,1.131688952E0,1.720231414E0,1.048524022E0
1.985265620E-1,1.045085669E0,1.612806439E0,1.064179659E0
2.024984370E-1,9.421287179E-1,1.541736603E0,1.049134851E0
2.064687500E-1,8.276351094E-1,1.493425846E0,1.017666578E0
2.104375000E-1,7.128797174E-1,1.446685910E0,9.680643082E-1
2.144093750E-1,6.100972891E-1,1.359419465E0,8.995950818E-1
2.183796870E-1,5.221850276E-1,1.277720690E0,8.132536411E-1
2.223500000E-1,4.406956434E-1,1.229479790E0,7.059682012E-1
2.263218750E-1,3.747396469E-1,1.214627028E0,5.825734735E-1
2.302906250E-1,3.236887753E-1,1.237700224E0,4.633674622E-1
2.342937500E-1,2.873335481E-1,1.289204955E0,3.505319357E-1
2.382328120E-1,2.740690410E-1,1.352176428E0,2.614852190E-1
2.422031250E-1,2.804045975E-1,1.419895172E0,1.989849806E-1
2.461781250E-1,2.998475730E-1,1.499743938E0,1.659633517E-1
2.501453120E-1,3.247883320E-1,1.587708592E0,1.597848982E-1
2.541140620E-1,3.521899879E-1,1.681991220E0,1.799958050E-1
2.580859370E-1,3.942698836E-1,1.755522013E0,2.233323306E-1
2.620562500E-1,4.428772926E-1,1.806171417E0,2.938087285E-1
2.660265620E-1,4.858298600E-1,1.835161328E0,3.818954825E-1
2.699968750E-1,5.205095410E-1,1.850694776E0,4.796513915E-1
2.739687500E-1,5.501626730E-1,1.850991488E0,5.839173794E-1
2.779375000E-1,5.758190155E-1,1.826085687E0,6.871012449E-1
2.819078120E-1,5.992064476E-1,1.780759454E0,7.856599689E-1
2.858781250E-1,6.211103201E-1,1.724664569E0,8.687201738E-1
2.898484370E-1,6.414259672E-1,1.673282027E0,9.396154284E-1
2.938187500E-1,6.556154490E-1,1.632493734E0,9.985726476E-1
2.977906250E-1,6.683389544E-1,1.605144382E0,1.043008804E0
3.017609370E-1,6.773797274E-1,1.587778330E0,1.070864201E0
3.057312500E-1,6.807831526E-1,1.569574594E0,1.078875303E0
3.097015620E-1,6.735574603E-1,1.550829768E0,1.065314054E0
3.136718750E-1,6.534512639E-1,1.524126172E0,1.030599475E0
3.176437500E-1,6.143559217E-1,1.475780606E0,9.846798778E-1
3.216140620E-1,5.525537729E-1,1.394710064E0,9.224414229E-1
3.255843750E-1,4.649033546E-1,1.261454225E0,8.515635729E-1
3.295546870E-1,3.495021760E-1,1.088282585E0,7.737393379E-1
3.335250000E-1,2.171713114E-1,9.003106356E-1,6.995628476E-1
3.374953120E-1,9.264207631E-2,7.189883590E-1,6.391221285E-1
3.414671870E-1,-2.158972248E-2,5.364618301E-1,5.896420479E-1
3.454375000E-1,-1.046673954E-1,3.763104379E-1,5.633224845E-1
3.494078120E-1,-1.463458538E-1,2.541199327E-1,5.675985217E-1
3.533781250E-1,-1.563116908E-1,1.889667958E-1,5.967280865E-1
3.573484370E-1,-1.352804750E-1,1.909564734E-1,6.476742029E-1
3.613187500E-1,-8.105309308E-2,2.229832709E-1,7.137873173E-1
3.652890620E-1,3.455751808E-3,2.452362180E-1,7.813490033E-1
3.692593750E-1,9.663888067E-2,2.326872945E-1,8.331329226E-1
3.732296870E-1,2.073625624E-1,1.809382886E-1,8.777784109E-1
3.772015620E-1,3.178069890E-1,1.132369637E-1,9.121439457E-1
3.811718750E-1,4.310963154E-1,4.647811875E-2,9.510648251E-1
3.851421870E-1,5.441587567E-1,-8.552113548E-3,1.001836419E0
3.891125000E-1,6.479883790E-1,-5.298819765E-2,1.068944335E0
3.930828120E-1,7.471929193E-1,-9.543460608E-2,1.153749943E0
3.970531250E-1,8.418246508E-1,-1.516342014E-1,1.239567757E0
4.010250000E-1,9.414480329E-1,-2.548704445E-1,1.321842551E0
4.049953120E-1,1.053253889E0,-3.925245404E-1,1.389666080E0
4.089656250E-1,1.181867123E0,-5.204397440E-1,1.444242477E0
4.129359370E-1,1.334024906E0,-6.252816319E-1,1.487352133E0
4.169062500E-1,1.495467901E0,-6.866474152E-1,1.527337670E0
4.208781250E-1,1.669337630E0,-7.139269114E-1,1.578231454E0
4.248484370E-1,1.848443270E0,-6.815685034E-1,1.649196506E0
4.288187500E-1,2.045648098E0,-5.412266254E-1,1.696442604E0
4.327890620E-1,2.259695292E0,-3.628888428E-1,1.740843773E0
4.367578120E-1,2.483638525E0,-2.009921223E-1,1.761002302E0
4.407296870E-1,2.675118446E0,-1.342507303E-1,1.765191078E0
4.447000000E-1,2.831814051E0,-1.076868176E-1,1.759361744E0
4.486703120E-1,2.950025320E0,-1.394343525E-1,1.757511616E0
4.526406250E-1,3.023311615E0,-2.214997411E-1,1.774930000E0
4.566125000E-1,3.048880816E0,-3.020990491E-1,1.814077735E0
4.605828120E-1,3.035372019E0,-3.615624011E-1,1.882704139E0
4.645531250E-1,2.999906778E0,-3.483328223E-1,1.953477263E0
4.685234370E-1,2.945243120E0,-2.844886780E-1,2.016466141E0
4.724937500E-1,2.864416838E0,-1.984090358E-1,2.084062815E0
4.764640620E-1,2.756206512E0,-9.934414178E-2,2.156493902E0
4.804343750E-1,2.635097980E0,-1.761037298E-2,2.242939949E0
4.844046870E-1,2.561549902E0,-2.045525797E-2,2.340137482E0
4.883765620E-1,2.538703680E0,-3.841469809E-2,2.453583956E0
4.923468750E-1,2.499677896E0,-1.029744279E-3,2.568653345E0
4.963171870E-1,2.428852558E0,1.883210242E-2,2.656652927E0
5.002875000E-1,2.328007460E0,4.014257283E-4,2.710461378E0
5.042593750E-1,2.220111132E0,-5.242969096E-2,2.738299370E0
5.082281250E-1,2.123507261E0,-1.038645431E-1,2.758353233E0
5.121984370E-1,2.031894922E0,-1.571843475E-1,2.779227495E0
5.161703120E-1,1.938799024E0,-2.261248529E-1,2.791915894E0
5.201406250E-1,1.842736125E0,-3.160791397E-1,2.796279192E0
5.241109370E-1,1.740285277E0,-3.880390525E-1,2.792875767E0
5.280812500E-1,1.647032261E0,-4.213050306E-1,2.790502310E0
5.320515620E-1,1.561319232E0,-4.279547334E-1,2.782648325E0
5.360218750E-1,1.485065699E0,-4.154407084E-1,2.785109043E0
5.399937500E-1,1.418533802E0,-3.716154993E-1,2.786644936E0
5.439640620E-1,1.353153706E0,-3.199014068E-1,2.804970980E0
5.479343750E-1,1.291124821E0,-2.589544952E-1,2.823715925E0
5.519046870E-1,1.233075142E0,-1.932428479E-1,2.852443933E0
5.558750000E-1,1.174903274E0,-1.287005842E-1,2.876773834E0
5.598437500E-1,1.122717977E0,-5.811946467E-2,2.885378361E0
5.638156250E-1,1.074913383E0,1.427679323E-2,2.881800413E0
5.677859370E-1,1.035660863E0,7.745771110E-2,2.855219126E0
5.717562500E-1,1.009463549E0,1.347219646E-1,2.797780275E0
5.757265620E-1,9.915040731E-1,1.496794373E-1,2.720130444E0
5.796968750E-1,9.922196865E-1,1.487544179E-1,2.609755993E0
5.836687500E-1,9.951518178E-1,8.443903178E-2,2.466551542E0
5.876390620E-1,1.001155734E0,-4.345869645E-3,2.311810732E0
5.916093750E-1,1.018521786E0,-8.368853480E-2,2.147871971E0
5.955796870E-1,1.050915122E0,-1.649510711E-1,1.959533453E0
5.995515620E-1,1.073377490E0,-2.934596539E-1,1.751525164E0
6.035203120E-1,1.086764216E0,-4.255112708E-1,1.542295098E0
6.074921870E-1,1.086938739E0,-5.393940210E-1,1.356818914E0
6.114609370E-1,1.073744059E0,-6.374465823E-1,1.165303946E0
6.154328120E-1,1.048785806E0,-6.999119520E-1,9.944885969E-1
6.194031250E-1,9.993755221E-1,-7.234215140E-1,8.446869850E-1
6.233750000E-1,9.342572689E-1,-7.266678214E-1,7.207511663E-1
6.273437500E-1,8.663814664E-1,-7.120245099E-1,6.167993546E-1
6.313140620E-1,8.000414968E-1,-6.740112305E-1,5.278398991E-1
6.352859370E-1,7.452730536E-1,-6.281265616E-1,4.451636672E-1
6.392562500E-1,7.016398311E-1,-5.663593411E-1,3.605675697E-1
6.432265620E-1,6.652671695E-1,-4.778711498E-1,2.838603556E-1
6.471968750E-1,6.324723959E-1,-3.633775413E-1,2.168746144E-1
6.511671870E-1,5.965186357E-1,-2.343453616E-1,1.604132056E-1
6.551390620E-1,5.614026189E-1,-1.091528907E-1,1.175653785E-1
6.591093750E-1,5.283111334E-1,7.784168236E-3,7.869689912E-2
6.630781250E-1,5.011538267E-1,1.051386371E-1,4.251622036E-2
6.670500000E-1,4.815886915E-1,1.779014170E-1,7.487462368E-3
6.710203120E-1,4.659505486E-1,2.482032776E-1,-2.525491454E-2
6.749906250E-1,4.561417997E-1,3.141069114E-1,-6.103416532E-2
6.789625000E-1,4.520926476E-1,3.677234054E-1,-1.010720134E-1
6.829312500E-1,4.558450878E-1,4.053352773E-1,-1.449146867E-1
6.869015620E-1,4.669104815E-1,4.270471632E-1,-1.926494390E-1
6.908734370E-1,4.884478450E-1,4.346567988E-1,-2.449744195E-1
6.948437500E-1,5.205618739E-1,4.267155528E-1,-2.970026731E-1
6.988140620E-1,5.596572757E-1,3.988949955E-1,-3.510729671E-1
7.027843750E-1,6.076189280E-1,3.535687923E-1,-4.029441774E-1
7.067546870E-1,6.555107832E-1,2.982418537E-1,-4.508011043E-1
7.107250000E-1,7.000864744E-1,2.311165035E-1,-4.912752807E-1
7.146968750E-1,7.396879792E-1,1.685813516E-1,-5.215567350E-1
7.186671870E-1,7.760606408E-1,1.033758521E-1,-5.414884090E-1
7.226421870E-1,8.049632907E-1,5.143485218E-2,-5.485046506E-1
7.266078120E-1,8.282983303E-1,1.048942842E-2,-5.433908105E-1
7.305781250E-1,8.422260880E-1,-1.506219152E-2,-5.289744139E-1
7.345500000E-1,8.448091745E-1,-2.549926005E-2,-5.070006847E-1
7.385203120E-1,8.358381987E-1,-2.747148275E-2,-4.825835228E-1
7.424890620E-1,8.178438544E-1,-1.925098151E-2,-4.568224847E-1
7.464609370E-1,7.934266925E-1,1.745329209E-4,-4.269075394E-1
7.504312500E-1,7.638782263E-1,4.331907257E-2,-3.968355060E-1
7.544015620E-1,7.311882377E-1,1.057669520E-1,-3.623478115E-1
7.583718750E-1,6.978349686E-1,1.842194945E-1,-3.235491216E-1
7.623421870E-1,6.578146219E-1,2.596351802E-1,-2.840872407E-1
7.663125000E-1,6.148620248E-1,3.289945722E-1,-2.391624600E-1
7.702828120E-1,5.711590052E-1,3.837979138E-1,-1.901361644E-1
7.742546870E-1,5.313131213E-1,4.209734201E-1,-1.419825405E-1
7.782250000E-1,4.959178567E-1,4.466122985E-1,-9.206611663E-2
7.821953120E-1,4.659156501E-1,4.644321203E-1,-4.324925691E-2
7.861656250E-1,4.466471970E-1,4.772079289E-1,3.351032268E-3
7.901359370E-1,4.387583137E-1,4.903153479E-1,3.899065405E-2
7.941062500E-1,4.428772926E-1,5.057789683E-1,6.454227865E-2
7.980781250E-1,4.569097459E-1,5.155528188E-1,8.129743487E-2
8.020468750E-1,4.738045335E-1,5.141739845E-1,8.791223168E-2
8.060187500E-1,4.940328896E-1,5.001240969E-1,8.737118542E-2
8.099875000E-1,5.173679590E-1,4.732809365E-1,8.002334833E-2
8.139578120E-1,5.458691716E-1,4.451985955E-1,6.695082784E-2
8.179515620E-1,5.801125169E-1,4.190360904E-1,4.459316283E-2
8.219000000E-1,6.188414097E-1,4.003261626E-1,1.886700839E-2
8.258703120E-1,6.573782563E-1,3.913900852E-1,-1.233947743E-2
8.298406250E-1,6.986029148E-1,3.959802985E-1,-4.427900165E-2
8.338125000E-1,7.367383838E-1,4.060682952E-1,-7.564257085E-2
8.377828120E-1,7.698647380E-1,4.166799188E-1,-1.111949235E-1
8.417546870E-1,7.947705984E-1,4.235041440E-1,-1.474279612E-1
8.457234370E-1,8.095535040E-1,4.257556200E-1,-1.818633080E-1
8.496921870E-1,8.149116635E-1,4.215144515E-1,-2.188293785E-1
8.536656250E-1,8.110370636E-1,4.110774100E-1,-2.524095178E-1
8.576343750E-1,7.969347835E-1,3.945142329E-1,-2.835985422E-1
8.616046870E-1,7.747341990E-1,3.781255782E-1,-3.069336116E-1
8.655765620E-1,7.454825044E-1,3.694862127E-1,-3.235665858E-1
8.695468750E-1,7.057588100E-1,3.710046411E-1,-3.307573497E-1
8.735171870E-1,6.586872339E-1,3.834313750E-1,-3.306700885E-1
8.774875000E-1,5.997474790E-1,4.059461355E-1,-3.229731917E-1
8.814578120E-1,5.353273749E-1,4.306425452E-1,-3.104242682E-1
8.854281250E-1,4.658109248E-1,4.515515864E-1,-2.908940315E-1
8.894000000E-1,3.930481374E-1,4.669279456E-1,-2.651853263E-1
8.933687500E-1,3.293610811E-1,4.727573395E-1,-2.374171317E-1
8.973406250E-1,2.752558887E-1,4.665963352E-1,-2.047271132E-1
9.013109370E-1,2.361779511E-1,4.490208626E-1,-1.668534726E-1
9.052812500E-1,2.100154608E-1,4.235216081E-1,-1.252099127E-1
9.092515620E-1,1.944820434E-1,3.926292658E-1,-8.213519305E-2
9.132218750E-1,1.908692122E-1,3.630459309E-1,-4.201007634E-2
9.171921870E-1,1.961226463E-1,3.330437243E-1,1.396263367E-3
9.211640620E-1,2.048492879E-1,3.079284430E-1,4.389503226E-2
9.251343750E-1,2.184279561E-1,2.882760167E-1,8.703956753E-2
9.291046870E-1,2.371727973E-1,2.762157917E-1,1.312487572E-1
9.330750000E-1,2.613106966E-1,2.750289738E-1,1.737824380E-1
9.370453120E-1,2.906496823E-1,2.845061123E-1,2.148325741E-1
9.410156250E-1,3.271968663E-1,3.060784042E-1,2.490235716E-1
9.449875000E-1,3.660828173E-1,3.379131854E-1,2.787116170E-1
9.489578120E-1,4.045324028E-1,3.693989217E-1,3.007551432E-1
9.529281250E-1,4.380427301E-1,3.970449567E-1,3.180862665E-1
9.568984370E-1,4.628962278E-1,4.217064381E-1,3.268303573E-1
9.608687500E-1,4.785518348E-1,4.406258166E-1,3.277553916E-1
9.648390620E-1,4.857949317E-1,4.556531012E-1,3.224146664E-1
9.688093750E-1,4.863185287E-1,4.743106663E-1,3.101973534E-1
9.727812500E-1,4.832991362E-1,4.987278283E-1,2.940530777E-1
9.767515620E-1,4.785867333E-1,5.281540751E-1,2.734407187E-1
9.807218750E-1,4.740488827E-1,5.553812385E-1,2.508910894E-1
9.846921870E-1,4.721115530E-1,5.743878484E-1,2.271196991E-1
9.886625000E-1,4.699648023E-1,5.856626630E-1,2.021091282E-1
9.926328120E-1,4.680449367E-1,5.898165703E-1,1.731366664E-1
9.966031250E-1,4.664916098E-1,5.830621123E-1,1.412145942E-1
1.000573437E0,4.675911665E-1,5.690994859E-1,1.088038236E-1
1.004545312E0,4.683241844E-1,5.516113043E-1,7.579965144E-2
1.008515625E0,4.677656889E-1,5.309466124E-1,4.132939503E-2
1.012485937E0,4.673119187E-1,5.148721337E-1,5.986479111E-3
1.016456250E0,4.650953412E-1,5.035973191E-1,-3.090978041E-2
1.020426562E0,4.617966712E-1,4.926889837E-1,-6.808529049E-2
1.024396875E0,4.591437578E-1,4.779584110E-1,-1.054702476E-1
1.028368750E0,4.534714520E-1,4.610112607E-1,-1.424712241E-1
1.032339062E0,4.500505924E-1,4.430343807E-1,-1.759117395E-1
1.036309375E0,4.459839761E-1,4.356341660E-1,-2.064549923E-1
1.040279687E0,4.444830120E-1,4.458792508E-1,-2.284112424E-1
1.044250000E0,4.449891448E-1,4.708549380E-1,-2.436305135E-1
1.048220312E0,4.497713447E-1,5.027944446E-1,-2.502976656E-1
1.052190625E0,4.570668340E-1,5.386958718E-1,-2.509783506E-1
1.056160937E0,4.631754756E-1,5.746845603E-1,-2.466499358E-1
1.060131250E0,4.704883993E-1,6.050183773E-1,-2.352878302E-1
1.064103125E0,4.815712571E-1,6.288770437E-1,-2.214822769E-1
1.068073437E0,4.991990626E-1,6.468189955E-1,-2.085493952E-1
1.072043750E0,5.281890035E-1,6.610085368E-1,-1.965764314E-1
1.076014062E0,5.747194886E-1,6.705554724E-1,-1.854935884E-1
1.079990625E0,6.267651916E-1,6.768212318E-1,-1.764353365E-1
1.083956250E0,6.948155761E-1,6.849195361E-1,-1.662426144E-1
1.087926562E0,7.723256350E-1,6.921452284E-1,-1.565036774E-1
1.091896875E0,8.446171880E-1,6.987076402E-1,-1.489987522E-1
1.095867187E0,9.137670994E-1,7.022157907E-1,-1.435882300E-1
1.099837500E0,9.773843884E-1,6.962292790E-1,-1.406560838E-1
1.103807812E0,1.035381675E0,6.835058331E-1,-1.392947286E-1
1.107778125E0,1.097602606E0,6.753726006E-1,-1.426981241E-1
1.111750000E0,1.153278708E0,6.774495244E-1,-1.512676924E-1
1.115718750E0,1.210385799E0,6.910980344E-1,-1.655444801E-1
1.119690625E0,1.262920260E0,7.124259472E-1,-1.856681257E-1
1.123660937E0,1.308543205E0,7.381520867E-1,-2.115513533E-1
1.127631250E0,1.347062588E0,7.680495977E-1,-2.440319359E-1
1.131601562E0,1.378338814E0,7.931648493E-1,-2.862165570E-1
1.135571875E0,1.401255012E0,8.025896549E-1,-3.328866363E-1
1.139542187E0,1.423158884E0,7.973536849E-1,-3.849672675E-1
1.143512500E0,1.447244406E0,7.854330540E-1,-4.417428374E-1
1.147482812E0,1.474890471E0,7.734600902E-1,-5.022882819E-1
1.151454687E0,1.503793120E0,7.620456815E-1,-5.677730441E-1
1.155425000E0,1.535854816E0,7.435800433E-1,-6.417226791E-1
1.159395312E0,1.570709109E0,7.209954858E-1,-7.179062963E-1
1.163365625E0,1.608093977E0,7.031931281E-1,-7.962017655E-1
1.167335937E0,1.647049785E0,6.884800196E-1,-8.762076497E-1
1.171306250E0,1.683247924E0,6.748664379E-1,-9.535257220E-1
1.175276562E0,1.719637990E0,6.600311399E-1,-1.022466183E0
1.179248437E0,1.755015850E0,6.453180313E-1,-1.086205602E0
1.183218750E0,1.786501527E0,6.270444393E-1,-1.148269534E0
1.187189062E0,1.822263360E0,6.008993983E-1,-1.203299761E0
1.191159375E0,1.863802195E0,5.707401037E-1,-1.253478050E0
1.195129687E0,1.913910627E0,5.485569835E-1,-1.293952227E0
1.199101562E0,1.962814689E0,5.378232002E-1,-1.320935011E0
1.203071875E0,2.023272991E0,5.290092826E-1,-1.325106382E0
1.207040625E0,2.090834618E0,5.208411813E-1,-1.305872798E0
1.211012500E0,2.156459093E0,5.248554349E-1,-1.264578342E0
1.214982812E0,2.227476358E0,5.388703942E-1,-1.215272784E0
1.218953125E0,2.302281380E0,5.506688356E-1,-1.164762974E0
1.222923437E0,2.373874664E0,5.456248522E-1,-1.113205910E0
1.226926562E0,2.439656019E0,5.241223574E-1,-1.065610766E0
1.230864062E0,2.490706921E0,4.968428910E-1,-1.014053702E0
1.234835937E0,2.523274899E0,4.678878784E-1,-9.500524998E-1
1.238806250E0,2.535230398E0,4.421268106E-1,-8.793317676E-1
1.242776562E0,2.522698879E0,4.172035158E-1,-7.988371849E-1
1.246746875E0,2.479100466E0,3.920358419E-1,-7.086386085E-1
1.250717187E0,2.411434174E0,3.641105890E-1,-6.090850234E-1
1.254687500E0,2.312508821E0,3.228161037E-1,-5.053251982E-1
1.258657812E0,2.194995880E0,2.754478753E-1,-3.918438554E-1
1.262629687E0,2.061268806E0,2.281668931E-1,-2.650282383E-1
1.266598437E0,1.925098181E0,1.913055331E-1,-1.350186765E-1
1.270570312E0,1.783883572E0,1.631708294E-1,2.303834539E-3
1.274540625E0,1.641255260E0,1.361356825E-1,1.463284045E-1
1.278510937E0,1.507440925E0,1.135685742E-1,2.860769033E-1
1.282481250E0,1.379787445E0,8.918632567E-2,4.286703169E-1
1.286451562E0,1.261768341E0,6.220353395E-2,5.761681199E-1
1.290421875E0,1.157397628E0,4.190535471E-2,7.272263169E-1
1.294393750E0,1.067530632E0,3.659955412E-2,8.698546290E-1
1.298364062E0,1.004367113E0,5.026548356E-2,1.016671777E0
1.302334375E0,9.687624574E-1,8.033750206E-2,1.155495286E0
1.306304687E0,9.593551159E-1,1.055226028E-1,1.271646857E0
1.310275000E0,9.669821858E-1,1.086292937E-1,1.348912597E0
1.314245312E0,9.888337255E-1,7.785914093E-2,1.395390749E0
1.318221875E0,1.020755768E0,1.546361670E-2,1.411116123E0
1.322187500E0,1.062172413E0,-6.642723083E-2,1.404832959E0
1.326156250E0,1.123084426E0,-1.677086800E-1,1.378653049E0
1.330128125E0,1.201449752E0,-2.733185589E-1,1.328178048E0
1.334098437E0,1.263042450E0,-3.862937093E-1,1.255432725E0
1.338068750E0,1.269500136E0,-5.264436603E-1,1.147030354E0
1.342040625E0,1.198343039E0,-6.814463735E-1,9.995675087E-1
1.346009375E0,1.065837622E0,-8.093615174E-1,8.307592869E-1
1.349981250E0,8.881980777E-1,-8.963313103E-1,6.457718015E-1
1.353951562E0,6.856526136E-1,-9.486387968E-1,4.449891448E-1
1.357920312E0,4.922352135E-1,-9.735621214E-1,2.602286041E-1
1.361892187E0,3.169517815E-1,-9.779428840E-1,7.480481267E-2
1.365862500E0,1.648463458E-1,-9.838770032E-1,-9.759881347E-2
1.369832812E0,5.112069473E-2,-1.008433819E0,-2.566332221E-1
1.373803125E0,-2.956587821E-2,-1.053218961E0,-3.911282718E-1
1.377775000E0,-7.588691264E-2,-1.107079744E0,-5.057091713E-1
1.381745312E0,-9.217083454E-2,-1.148531318E0,-5.980370641E-1
1.385714062E0,-8.543386310E-2,-1.167031884E0,-6.630505919E-1
1.389685937E0,-5.431464687E-2,-1.162075162E0,-7.007846236E-1
1.393656250E0,-7.330382941E-4,-1.124358535E0,-7.151312232E-1
1.397626562E0,6.620033830E-2,-1.066797614E0,-7.119547129E-1
1.401598437E0,1.416509151E-1,-1.005222321E0,-6.917088628E-1
1.405567187E0,2.130872458E-1,-9.515535235E-1,-6.529974937E-1
1.409539062E0,2.732661963E-1,-9.036965966E-1,-5.977578163E-1
1.413509375E0,3.201457560E-1,-8.633620143E-1,-5.324650407E-1
1.417479687E0,3.520678282E-1,-8.287521601E-1,-4.583758116E-1
1.421450000E0,3.745301962E-1,-8.031830788E-1,-3.759962916E-1
1.425420312E0,3.885277510E-1,-7.888190150E-1,-2.911383808E-1
1.429390625E0,4.004483521E-1,-7.861312032E-1,-2.039766312E-1
1.433362500E0,4.034154117E-1,-7.940201163E-1,-1.166927144E-1
1.437340625E0,4.014606476E-1,-8.087157607E-1,-3.954916075E-2
1.441303125E0,3.958406746E-1,-8.262563348E-1,2.298598550E-2
1.445273437E0,3.954218030E-1,-8.292059302E-1,6.897541136E-2
1.449243750E0,4.005879760E-1,-8.285775781E-1,9.358455241E-2
1.453214062E0,4.010417461E-1,-8.366934061E-1,9.805259854E-2
1.457184375E0,4.012860954E-1,-8.452978730E-1,8.581783623E-2
1.461156250E0,3.974638283E-1,-8.576024175E-1,5.403539166E-2
1.465125000E0,3.925245404E-1,-8.804138899E-1,1.343903481E-3
1.469096875E0,3.942524195E-1,-8.944812417E-1,-6.358234584E-2
1.473067187E0,4.032757878E-1,-8.971166611E-1,-1.359087825E-1
1.477037500E0,4.152836502E-1,-8.858942389E-1,-2.048842013E-1
1.481007812E0,4.262443185E-1,-8.647757173E-1,-2.716605067E-1
1.484978125E0,4.409748912E-1,-8.237430453E-1,-3.234094977E-1
1.488948437E0,4.598593414E-1,-7.626216412E-1,-3.659431934E-1
1.492920312E0,4.902455211E-1,-6.929131746E-1,-3.935891986E-1
1.496890625E0,5.094790459E-1,-6.432585716E-1,-4.146378636E-1
1.500860937E0,5.239478350E-1,-5.984210372E-1,-4.297698736E-1
1.504831250E0,5.330060720E-1,-5.696929097E-1,-4.382172525E-1
1.508801562E0,5.309989452E-1,-5.592035055E-1,-4.426853061E-1
1.512771875E0,5.193401575E-1,-5.591860414E-1,-4.413065016E-1
1.516743750E0,4.986929297E-1,-5.571091175E-1,-4.272566140E-1
1.520714062E0,4.749389887E-1,-5.419247150E-1,-3.895749450E-1
1.524682812E0,4.427027702E-1,-5.241398215E-1,-3.375815749E-1
1.528654687E0,4.001341760E-1,-5.023406744E-1,-2.716430426E-1
1.532625000E0,3.563613296E-1,-4.761781693E-1,-1.983217597E-1
1.536595312E0,3.088185489E-1,-4.559498131E-1,-1.147379428E-1
1.540565625E0,2.520255446E-1,-4.378856421E-1,-2.658136375E-2
1.544535937E0,1.869422197E-1,-4.149694741E-1,6.712536514E-2
1.548506250E0,1.181762442E-1,-3.871663809E-1,1.721243709E-1
1.552478125E0,4.726351425E-2,-3.562915027E-1,2.933898568E-1
1.556448437E0,-1.684242673E-2,-3.239854574E-1,4.189837277E-1
1.560418750E0,-7.237880677E-2,-2.967408895E-1,5.391671062E-1
1.564389062E0,-1.262920201E-1,-2.752035260E-1,6.590363383E-1
1.568359375E0,-1.694191098E-1,-2.531774640E-1,7.738265991E-1
1.572331250E0,-2.082177848E-1,-2.227738202E-1,8.737641573E-1
1.576301562E0,-2.344326228E-1,-1.824567169E-1,9.535955191E-1
1.580271875E0,-2.545039058E-1,-1.416858286E-1,1.004349709E0
1.584242187E0,-2.719222903E-1,-1.039518118E-1,1.034421682E0
1.588212500E0,-2.922728360E-1,-6.822492182E-2,1.049641013E0
1.592182812E0,-3.170041442E-1,-3.256784379E-2,1.050147176E0
1.596153125E0,-3.439171314E-1,-5.951572675E-3,1.039744973E0
1.600125000E0,-3.757693768E-1,1.000073645E-2,1.026480436E0
1.604093750E0,-4.114788175E-1,1.596976258E-2,1.013983965E0
1.608065625E0,-4.468217492E-1,1.270599663E-2,1.010109305E0
1.612035937E0,-4.834387600E-1,1.424188633E-2,1.017841101E0
1.616006250E0,-5.211378336E-1,2.654645778E-2,1.034613729E0
1.619976562E0,-5.597270727E-1,4.766494036E-2,1.055854440E0
1.623946875E0,-5.946162343E-1,6.942919642E-2,1.076885581E0
1.627917187E0,-6.288595796E-1,9.393361956E-2,1.098039031E0
1.631887500E0,-6.630680561E-1,1.123642996E-1,1.121600986E0
1.635859375E0,-6.987774968E-1,1.254368126E-1,1.150189400E0
1.639829687E0,-7.345916033E-1,1.425410360E-1,1.181413412E0
1.643798437E0,-7.657632232E-1,1.688431501E-1,1.213946342E0
1.647770312E0,-7.928507328E-1,1.827883273E-1,1.245309830E0
1.651740625E0,-8.244411945E-1,1.710771769E-1,1.279064536E0
1.655710937E0,-8.594874144E-1,1.427155733E-1,1.316781044E0
1.659682812E0,-8.964709044E-1,1.012989059E-1,1.364376187E0
1.663651562E0,-9.256877303E-1,6.639232486E-2,1.425549984E0
1.667623437E0,-9.480628371E-1,4.630358517E-2,1.502484083E0
1.671592187E0,-9.582555890E-1,5.459389836E-2,1.596592307E0
1.675567187E0,-9.567022324E-1,8.522442728E-2,1.689513564E0
1.679534375E0,-9.478708506E-1,1.290321946E-1,1.762817502E0
1.683504687E0,-9.324595928E-1,1.835213751E-1,1.813100338E0
1.687475000E0,-9.103811979E-1,2.475575060E-1,1.835684896E0
1.691446875E0,-8.843059540E-1,3.027971685E-1,1.831949949E0
1.695417187E0,-8.571661115E-1,3.452086747E-1,1.807916760E0
1.699387500E0,-8.330979943E-1,3.750887215E-1,1.779380560E0
1.703357812E0,-8.192750216E-1,3.839375377E-1,1.751455307E0
1.707328125E0,-8.122064471E-1,3.747920096E-1,1.724158406E0
1.711298437E0,-8.133932352E-1,3.537433445E-1,1.679722309E0
1.715270312E0,-8.129394650E-1,3.244741559E-1,1.619072080E0
1.719239062E0,-8.212472200E-1,2.973866463E-1,1.559870601E0
1.723209375E0,-8.319984674E-1,2.829527855E-1,1.506952167E0
1.727181250E0,-8.360301852E-1,2.822022736E-1,1.462900043E0
1.731151562E0,-8.271464109E-1,2.829353213E-1,1.414571881E0
1.735121875E0,-8.037415743E-1,2.787639797E-1,1.353921652E0
1.739092187E0,-7.708595395E-1,2.532996237E-1,1.274770975E0
1.743062500E0,-7.290240526E-1,2.207492441E-1,1.191937685E0
1.747034375E0,-6.789505482E-1,1.908692122E-1,1.116556883E0
1.751004687E0,-6.246533394E-1,1.687733382E-1,1.062451720E0
1.754973437E0,-5.719618201E-1,1.667836607E-1,1.033426881E0
1.758945312E0,-5.201255679E-1,1.734857261E-1,1.024979472E0
1.762915625E0,-4.786216319E-1,1.823345423E-1,1.028941393E0
1.766885937E0,-4.525638819E-1,1.804146916E-1,1.046831012E0
1.770856250E0,-4.408178031E-1,1.835213751E-1,1.071213245E0
1.774828125E0,-4.427376688E-1,1.839053482E-1,1.110238791E0
1.778798437E0,-4.608192742E-1,1.803623289E-1,1.153697491E0
1.782768750E0,-4.917465150E-1,1.827534288E-1,1.182809591E0
1.786739062E0,-5.243667364E-1,2.032261342E-1,1.194904804E0
1.790707812E0,-5.549972653E-1,2.412394136E-1,1.198220849E0
1.794679687E0,-5.856975913E-1,2.811201811E-1,1.196056724E0
1.798650000E0,-6.212499738E-1,3.213151097E-1,1.196842074E0
1.802620312E0,-6.665063500E-1,3.629761338E-1,1.201414824E0
1.806590625E0,-7.136825919E-1,4.212177694E-1,1.199774265E0
1.810560937E0,-7.536855340E-1,4.930031598E-1,1.173611760E0
1.814531250E0,-7.870038748E-1,5.760284662E-1,1.125842094E0
1.818503125E0,-8.191528320E-1,6.505365968E-1,1.053620338E0
1.822473437E0,-8.941670656E-1,7.140665650E-1,9.209578633E-1
1.826443750E0,-9.537351727E-1,6.818303466E-1,7.645414472E-1
1.830415625E0,-9.576796293E-1,5.593605638E-1,6.656336784E-1
1.834385937E0,-9.302256107E-1,4.543790221E-1,6.254038215E-1
1.838354687E0,-8.964011073E-1,3.505842984E-1,6.217212081E-1
1.842326562E0,-8.481602073E-1,2.269975245E-1,6.538527012E-1
1.846296875E0,-7.761304379E-1,1.284736842E-1,7.265282273E-1
1.850267187E0,-7.014827132E-1,8.696975559E-2,7.877020240E-1
1.854237500E0,-6.302034855E-1,1.107760444E-1,8.182452321E-1
1.858207812E0,-5.760982633E-1,1.806939393E-1,8.155400157E-1
1.862178125E0,-5.484347939E-1,2.554114759E-1,7.705977559E-1
1.866150000E0,-5.376312137E-1,3.038443625E-1,6.618114114E-1
1.870120312E0,-5.324127078E-1,3.020117581E-1,4.988150895E-1
1.874090625E0,-5.188689232E-1,2.688505054E-1,2.964616120E-1
1.878060937E0,-4.872086644E-1,2.264739275E-1,8.803440630E-2
1.882031250E0,-4.312359393E-1,1.734159142E-1,-1.001993492E-1
1.886001562E0,-3.615275025E-1,1.084024012E-1,-2.432116270E-1
1.889973437E0,-2.980324328E-1,4.178318381E-2,-3.231128156E-1
1.893943750E0,-2.493900955E-1,-2.015855350E-2,-3.616671264E-1
1.897914062E0,-2.217964381E-1,-7.438593358E-2,-3.840422332E-1
1.901889062E0,-2.192657143E-1,-1.148775741E-1,-3.948458433E-1
1.905854687E0,-2.338217646E-1,-1.404815465E-1,-4.086164832E-1
1.909825000E0,-2.620088160E-1,-1.522799730E-1,-4.484798014E-1
1.913798437E0,-2.966187000E-1,-1.616698503E-1,-4.963890910E-1
1.917765625E0,-3.289771080E-1,-1.744980216E-1,-5.323777795E-1
1.921737500E0,-3.608991802E-1,-1.901885271E-1,-5.596572757E-1
1.925707812E0,-3.902905285E-1,-2.016727924E-1,-5.860291719E-1
1.929678125E0,-4.124212861E-1,-1.863313466E-1,-6.151762009E-1
1.933648437E0,-4.253716469E-1,-1.446877979E-2,-6.699969769E-1
1.937618750E0,-4.555833042E-1,2.315179259E-1,-7.512071729E-1
1.941589062E0,-4.711341858E-1,2.730393112E-1,-8.073020577E-1
1.945560937E0,-4.749040902E-1,2.552543879E-1,-8.560839891E-1
1.949531250E0,-4.626344144E-1,2.250427604E-1,-8.938005567E-1
1.953500000E0,-4.318991899E-1,1.999449134E-1,-9.218479991E-1
1.957470312E0,-3.854908645E-1,2.236290425E-1,-9.443627596E-1
1.961440625E0,-3.295705318E-1,2.723237276E-1,-9.478359818E-1
1.965412500E0,-2.683269083E-1,3.248930275E-1,-9.428617358E-1
1.969382812E0,-2.108183205E-1,3.733957410E-1,-9.304175973E-1
1.973353125E0,-1.553168446E-1,4.238008559E-1,-9.232442379E-1
1.977323437E0,-1.002168059E-1,4.754975140E-1,-9.135751128E-1
1.981293750E0,-4.820599407E-2,5.141041875E-1,-8.751080632E-1
1.985264062E0,-1.082104165E-2,5.577548742E-1,-8.138644695E-1
1.989234375E0,-5.148721393E-3,6.028192639E-1,-7.408398986E-1
1.993206250E0,-2.804744057E-2,6.836454868E-1,-6.692290306E-1
1.997176562E0,-7.618362457E-2,7.645240426E-1,-6.318789721E-1
2.001146875E0,-1.412844062E-1,8.411439657E-1,-6.260495782E-1
2.005118750E0,-2.232625186E-1,9.276599288E-1,-6.623001099E-1
2.009089062E0,-3.033905923E-1,1.007438898E0,-7.253588438E-1
2.013059375E0,-3.634473681E-1,1.054929376E0,-8.017519116E-1
2.017029687E0,-3.794171214E-1,1.052119374E0,-8.865225315E-1
2.021000000E0,-3.739018738E-1,9.501921535E-1,-9.490576982E-1
2.024970312E0,-3.650879860E-1,7.466169596E-1,-9.503143430E-1
2.028940625E0,-3.258180618E-1,4.909436703E-1,-8.896815777E-1
2.032910937E0,-2.554638386E-1,2.571917176E-1,-7.832164764E-1
2.036881250E0,-1.721069217E-1,7.948229462E-2,-6.583556533E-1
2.040853125E0,-9.327039123E-2,-5.794493109E-2,-5.225166678E-1
2.044823437E0,-3.253293782E-2,-1.541125774E-1,-3.779684901E-1
2.048793750E0,2.268928103E-3,-2.056870461E-1,-2.323731333E-1
2.052768750E0,1.117010717E-3,-2.188119292E-1,-7.197737694E-2
2.056734375E0,-2.701769583E-2,-2.307848930E-1,8.841837943E-2
2.060704687E0,-7.784168422E-2,-2.354623675E-1,2.416408360E-1
2.064676562E0,-1.477421224E-1,-2.163335532E-1,3.923674822E-1
2.068646875E0,-2.123367488E-1,-2.147453129E-1,5.312433243E-1
2.072617187E0,-2.447475195E-1,-2.531774640E-1,6.377258301E-1
2.076587500E0,-2.265437394E-1,-3.085393012E-1,7.056889534E-1
2.080557812E0,-1.841147840E-1,-3.587000668E-1,7.455173731E-1
2.084528125E0,-1.375144869E-1,-3.767293096E-1,7.691491246E-1
2.088500000E0,-1.095194072E-1,-3.615798652E-1,7.871783972E-1
2.092468750E0,-1.118756011E-1,-3.240378201E-1,8.073893189E-1
2.096440625E0,-1.359785944E-1,-2.759889066E-1,8.374787569E-1
2.100410937E0,-1.637991518E-1,-2.434210628E-1,8.650724292E-1
2.104379687E0,-1.775523424E-1,-2.260550410E-1,8.826479316E-1
2.108351562E0,-1.734682769E-1,-2.253045589E-1,8.890532851E-1
2.112321875E0,-1.510407925E-1,-2.384817898E-1,8.773246408E-1
2.116292187E0,-1.000248194E-1,-2.822372019E-1,8.486663699E-1
2.120262500E0,-2.153736353E-2,-3.412642181E-1,8.118398786E-1
2.124234375E0,7.899360359E-2,-4.076565504E-1,7.652221322E-1
2.128204687E0,1.542696506E-1,-4.627042413E-1,7.065441608E-1
2.132175000E0,9.234537184E-2,-4.172035158E-1,6.609387398E-1
2.136145312E0,-2.377138473E-2,-3.527135849E-1,6.335719824E-1
2.140115625E0,-5.112069473E-2,-3.951774538E-1,6.172531247E-1
2.144085937E0,1.745329238E-2,-5.267403722E-1,6.146351695E-1
2.148056250E0,1.989151686E-1,-6.780604124E-1,6.314077377E-1
2.152026562E0,4.353025556E-1,-8.415803313E-1,6.707125902E-1
2.155998437E0,6.680073142E-1,-9.937730432E-1,7.415903807E-1
2.159968750E0,8.781449795E-1,-1.155722141E0,8.444077373E-1
2.163939062E0,1.014018893E0,-1.314651847E0,9.864950180E-1
2.167909375E0,1.055994034E0,-1.516778350E0,1.152056932E0
2.171879687E0,1.064668298E0,-1.695290685E0,1.353956580E0
2.175850000E0,9.424428940E-1,-1.712778807E0,1.562593222E0
2.179820312E0,7.723430991E-1,-1.476042390E0,1.672671199E0
2.183792187E0,6.031509042E-1,-1.012936711E0,1.608896852E0
2.187760937E0,4.326496720E-1,-5.313305855E-1,1.335560799E0
2.191732812E0,2.543468177E-1,-1.712516993E-1,8.348608017E-1
2.195703125E0,9.133307636E-2,6.421066076E-2,3.018198013E-1
2.199673437E0,-4.122467712E-2,1.964542568E-1,-3.815289587E-2
2.203645312E0,-1.260476708E-1,2.034704834E-1,-1.147553995E-1
2.207614062E0,-2.002939880E-1,1.743060350E-1,-8.878489584E-2
2.211584375E0,-3.094119728E-1,1.867153198E-1,-7.335618883E-2
2.215556250E0,-4.053701758E-1,1.853888780E-1,-8.124507964E-2
2.219557812E0,-4.284783304E-1,1.225919276E-1,-9.311331809E-2
2.223496875E0,-3.868871331E-1,1.598721556E-2,-9.019861370E-2
2.227467187E0,-3.156428039E-1,-6.969099492E-2,-7.541567832E-2
2.231437500E0,-2.533869147E-1,-8.648106456E-2,-5.696754530E-2
2.235407812E0,-2.102074474E-1,-4.897394031E-2,-4.581489414E-2
2.239378125E0,-1.723163575E-1,1.141445339E-2,-4.185299575E-2
2.243348437E0,-1.294859797E-1,6.257005036E-2,-4.068362340E-2
2.247320312E0,-8.580038697E-2,8.944812417E-2,-4.157374427E-2
2.251290625E0,-4.488986731E-2,9.871581942E-2,-4.406956211E-2
2.255260937E0,-1.118756086E-2,1.017177850E-1,-4.757767543E-2
2.259231250E0,1.157153305E-2,1.067094281E-1,-5.106833205E-2
2.263203125E0,2.804744057E-2,1.182460561E-1,-5.270894244E-2
2.267173437E0,3.776892647E-2,1.302888244E-1,-5.105087906E-2
2.271151562E0,4.225442186E-2,1.376541108E-1,-4.714134336E-2
2.275114062E0,4.237659276E-2,1.392598152E-1,-4.206243530E-2
2.279084375E0,3.923500329E-2,1.341285557E-1,-3.457497060E-2
2.283054687E0,3.570943698E-2,1.226966456E-1,-2.373647690E-2
2.287026562E0,3.223622963E-2,1.060113013E-1,-1.218239777E-2
2.290995312E0,2.967059799E-2,8.885471523E-2,1.570796303E-4
2.294967187E0,2.930407785E-2,6.904522330E-2,1.345648803E-2
2.298937500E0,2.965314314E-2,4.790928960E-2,2.415535599E-2
2.302907812E0,3.321361542E-2,2.766346931E-2,3.326597437E-2
2.306878125E0,3.909537569E-2,8.360126987E-3,4.106759652E-2
2.310848437E0,4.967207089E-2,-9.738937020E-3,4.625122622E-2
2.314818750E0,6.099925563E-2,-2.846631967E-2,5.077162758E-2
2.318789062E0,7.735299319E-2,-5.080653355E-2,5.480333790E-2
2.322760937E0,9.457939118E-2,-6.627015024E-2,5.811946467E-2
2.326731250E0,1.124515608E-1,-7.061602175E-2,5.853834376E-2
2.330701562E0,1.329242736E-1,-6.557202339E-2,5.653121322E-2
2.334671875E0,1.557182819E-1,-5.536184460E-2,5.014330894E-2
2.338642187E0,1.770287454E-1,-4.412192479E-2,4.260348529E-2
2.342612500E0,1.953721493E-1,-3.741985932E-2,3.371975943E-2
2.346582812E0,1.985486597E-1,-3.342305496E-2,1.202531811E-2
2.350553125E0,1.709026396E-1,-1.178097259E-2,-4.934045672E-2
2.354525000E0,1.201833710E-1,2.021091245E-2,-8.934340626E-2
2.358495312E0,6.928957254E-2,3.747221828E-2,-9.674359858E-2
2.362465625E0,1.855284907E-2,3.593632951E-2,-8.737118542E-2
2.366435937E0,-2.160717547E-2,2.062979154E-2,-7.527604699E-2
2.370406250E0,-4.534365237E-2,-2.164208330E-3,-6.309365481E-2
2.374376562E0,-5.167919770E-2,-2.138028294E-2,-5.073672161E-2
2.378346875E0,-4.775220901E-2,-3.150319308E-2,-4.089306295E-2
2.382318750E0,-4.295255244E-2,-3.097959422E-2,-3.319616243E-2
2.386289062E0,-3.794345632E-2,-2.858849242E-2,-2.775073424E-2
2.390260937E0,-3.513347730E-2,-2.464404888E-2,-2.209586836E-2
2.394229687E0,-3.199188411E-2,-2.361430414E-2,-1.685987972E-2
2.398200000E0,-2.996730246E-2,-2.619739249E-2,-1.188569237E-2
2.402170312E0,-2.762856148E-2,-3.035127558E-2,-6.527531426E-3
2.406140625E0,-2.686061710E-2,-3.457497060E-2,-3.612831468E-3
2.410112500E0,-2.682571113E-2,-3.900810704E-2,2.792526793E-4
2.414082812E0,-2.726204321E-2,-4.195771366E-2,3.857177682E-3
2.418053125E0,-2.768092230E-2,-4.288274050E-2,6.143558770E-3
2.422023437E0,-2.898991853E-2,-4.342379048E-2,7.504915819E-3
2.425993750E0,-3.008947708E-2,-4.522148147E-2,8.901178837E-3
2.429964062E0,-3.052580915E-2,-4.719370231E-2,9.424777701E-3
2.433935937E0,-3.169517964E-2,-4.560545459E-2,6.998770405E-3
2.437906250E0,-3.335324302E-2,-4.338888451E-2,4.398229532E-3
2.441876562E0,-3.288200125E-2,-3.963642567E-2,1.623156248E-3
2.445846875E0,-3.214896470E-2,-3.520328924E-2,-1.954768784E-3
2.449817187E0,-3.000221029E-2,-2.848377265E-2,-4.380776547E-3
2.453787500E0,-2.914699912E-2,-2.476622164E-2,-5.026548170E-3
2.457757812E0,-2.816961333E-2,-2.078687213E-2,-5.497787148E-3
2.461728125E0,-2.731440216E-2,-1.975712739E-2,-7.260569837E-3
2.465700000E0,-2.663372457E-2,-1.872738265E-2,-9.983283468E-3
2.469670312E0,-2.495820820E-2,-1.815142483E-2,-1.160643995E-2
2.473640625E0,-2.452187613E-2,-1.876228862E-2,-1.202531811E-2
2.477610937E0,-2.560397983E-2,-2.057743259E-2,-1.258382387E-2
2.481581250E0,-2.649409883E-2,-2.150245570E-2,-1.258382387E-2
2.485551562E0,-2.672099136E-2,-2.218313515E-2,-1.288053021E-2
2.489521875E0,-2.724459022E-2,-2.207841538E-2,-1.310742274E-2
2.493493750E0,-2.738421597E-2,-2.129301615E-2,-1.197295822E-2
2.497464062E0,-2.755874954E-2,-2.138028294E-2,-1.075122785E-2
2.501434375E0,-2.820452116E-2,-2.141519077E-2,-7.731808349E-3
2.505404687E0,-2.837905288E-2,-2.127556317E-2,-5.742133129E-3
2.509375000E0,-2.932153083E-2,-2.242748067E-2,-4.328416660E-3
2.513345312E0,-2.867575921E-2,-2.199114859E-2,-2.600540640E-3
2.517315625E0,-2.864085324E-2,-2.125811018E-2,-1.239183708E-3
2.521285937E0,-2.879793197E-2,-2.092649788E-2,-7.330382941E-4
2.525256250E0,-2.944370359E-2,-1.904154196E-2,-7.679448463E-4
2.529228125E0,-3.035127558E-2,-1.432915311E-2,-1.361356815E-3
2.533196875E0,-3.150319308E-2,-1.188569237E-2,-2.426007763E-3
2.537168750E0,-3.209660575E-2,-8.848818950E-3,-5.113814492E-3
2.541139062E0,-3.541272879E-2,-6.405358203E-3,-7.470009383E-3
2.545109375E0,-3.748967126E-2,-3.054326167E-3,-9.285151958E-3
2.549079687E0,-3.982841223E-2,-8.203047328E-4,-1.186823845E-2
2.553050000E0,-4.134684801E-2,-8.377580671E-4,-1.389282104E-2
2.557032812E0,-4.218460619E-2,-1.047197584E-4,-1.623156108E-2
2.560992187E0,-4.331907257E-2,6.806784077E-4,-1.788962446E-2
2.564962500E0,-4.391248524E-2,3.595378250E-3,-2.148500271E-2
2.568932812E0,-4.241150245E-2,6.614797749E-3,-2.378883772E-2
2.572903125E0,-4.155628756E-2,9.948376566E-3,-2.513274178E-2
2.576873437E0,-3.998549283E-2,1.534144394E-2,-2.684316412E-2
2.580845312E0,-3.837978840E-2,1.930334233E-2,-2.789036185E-2
2.584815625E0,-3.569198400E-2,2.605776489E-2,-2.785545401E-2
2.588784375E0,-3.590142354E-2,3.145083413E-2,-2.844886668E-2
2.592756250E0,-3.490658477E-2,3.480186686E-2,-2.785545401E-2
2.596739062E0,-3.494149074E-2,3.778637946E-2,-2.499311417E-2
2.600696875E0,-3.389429301E-2,3.946189582E-2,-2.288126573E-2
2.604667187E0,-3.286454827E-2,3.885103017E-2,-2.083923109E-2
2.608637500E0,-3.185226023E-2,3.658210114E-2,-1.713913307E-2
2.612609375E0,-3.068288788E-2,3.598868847E-2,-1.347394194E-2
2.616578125E0,-3.097959422E-2,3.403392062E-2,-9.040805511E-3
2.620551562E0,-2.970550396E-2,3.412118554E-2,-4.433136433E-3
2.624520312E0,-2.801253460E-2,3.384193406E-2,1.867502346E-3
2.628490625E0,-2.757620253E-2,3.136356547E-2,6.230825558E-3
2.632460937E0,-2.581341937E-2,2.905973233E-2,1.082104165E-2
2.636443750E0,-2.413790300E-2,2.665117756E-2,1.638864167E-2
2.640401562E0,-2.234021388E-2,2.511528693E-2,2.026327327E-2
2.644373437E0,-2.068215236E-2,2.382374369E-2,2.352703735E-2
2.648343750E0,-1.874483563E-2,2.061233856E-2,2.617993951E-2
2.652314062E0,-1.628392190E-2,1.947787404E-2,2.776818909E-2
2.656285937E0,-1.398008689E-2,1.768018492E-2,2.804744057E-2
2.660254687E0,-1.277581044E-2,1.675515994E-2,2.630211227E-2
2.664225000E0,-1.171115879E-2,1.712168008E-2,2.464404888E-2
2.668196875E0,-9.773843922E-3,1.752310619E-2,2.195624262E-2
2.672167187E0,-9.878563695E-3,2.001892589E-2,1.960004680E-2
2.676148437E0,-7.487462368E-3,2.174680308E-2,1.446877979E-2
2.680107812E0,-5.061454605E-3,2.384119667E-2,1.207767799E-2
2.684078125E0,-3.822271014E-3,2.408554405E-2,8.901178837E-3
2.688048437E0,-1.553343027E-3,2.265437320E-2,5.794493016E-3
2.692020312E0,1.884955564E-3,2.031563222E-2,3.944444004E-3
2.695995312E0,4.747295752E-3,1.579522900E-2,2.705260413E-3
2.699959375E0,7.155850064E-3,1.099557430E-2,8.726646192E-4
2.703931250E0,5.672320258E-3,6.894050632E-3,-3.490658492E-5
2.707901562E0,5.585053470E-3,5.672320258E-3,-2.792526793E-4
2.711871875E0,2.844886621E-3,2.792526735E-3,-3.490658492E-5
2.715854687E0,1.745329209E-4,-1.850049011E-3,1.361356815E-3
2.719812500E0,-1.553343027E-3,-5.026548170E-3,3.682644805E-3
2.723782812E0,-3.508111695E-3,-1.082104165E-2,5.497787148E-3
2.727754687E0,-5.078908056E-3,-1.654572040E-2,7.330382708E-3
2.731725000E0,-5.497787148E-3,-2.120575123E-2,9.616764262E-3
2.735701562E0,-8.447393775E-3,-2.663372457E-2,1.216494478E-2
2.739665625E0,-9.686577134E-3,-2.895501256E-2,1.507964451E-2
2.743635937E0,-1.059414819E-2,-3.241076320E-2,1.825614460E-2
2.747607812E0,-1.024508290E-2,-3.406882659E-2,2.164208330E-2
2.751576562E0,-1.075122785E-2,-3.450515866E-2,2.462659590E-2
2.755548437E0,-9.529497474E-3,-3.460988030E-2,2.677335031E-2
2.759518750E0,-8.447393775E-3,-3.480186686E-2,2.837905288E-2
2.763489062E0,-7.871435024E-3,-3.424336016E-2,3.059562109E-2
2.767459375E0,-8.028514683E-3,-3.244566917E-2,3.209660575E-2
2.771429687E0,-5.654866807E-3,-2.926917188E-2,3.262020275E-2
2.775407812E0,-4.886921961E-3,-2.707005665E-2,3.246312216E-2
2.779370312E0,-2.879793290E-3,-2.546435408E-2,3.031636961E-2
2.783342187E0,-1.012290944E-3,-2.186897583E-2,2.764601447E-2
2.787310937E0,1.431170036E-3,-1.747074537E-2,2.439970337E-2
2.791282812E0,2.373647876E-3,-1.302015595E-2,2.204350755E-2
2.795253125E0,5.026548170E-3,-1.139700040E-2,1.781981252E-2
2.799228125E0,6.021386012E-3,-1.172861271E-2,1.218239777E-2
2.803193750E0,7.627088577E-3,-1.302015595E-2,9.826203808E-3
2.807164062E0,7.592182141E-3,-1.546361670E-2,7.853982039E-3
2.811135937E0,6.527531426E-3,-1.822123677E-2,4.328416660E-3
2.815114062E0,3.857177682E-3,-2.148500271E-2,1.745329238E-3
2.819076562E0,1.640609466E-3,-2.399827726E-2,-1.605702913E-3
2.823046875E0,-1.221730490E-4,-2.766346931E-2,-3.543018363E-3
2.827017187E0,-3.141592722E-3,-3.028146178E-2,-4.502949305E-3
2.830989062E0,-7.539822254E-3,-3.125884756E-2,-6.248278543E-3
2.834957812E0,-1.139700040E-2,-2.745402977E-2,-7.766715251E-3
2.838928125E0,-1.677261479E-2,-2.495820820E-2,-7.557275705E-3
2.842900000E0,-2.223549411E-2,-1.993165910E-2,-7.958701812E-3
2.846870312E0,-2.696533687E-2,-1.637118869E-2,-8.813912980E-3
2.850840625E0,-2.972295694E-2,-1.258382387E-2,-8.290314116E-3
2.854817187E0,-3.282964230E-2,-7.679448463E-3,-7.993607782E-3
2.858781250E0,-3.651228920E-2,-6.248278543E-3,-8.220500313E-3
2.862751562E0,-4.002039880E-2,-7.522369269E-3,-9.634217247E-3
2.866723437E0,-4.274311289E-2,-9.808750823E-3,-9.704031050E-3
2.870698437E0,-4.482005537E-2,-1.237438433E-2,-9.721484035E-3
2.874664062E0,-4.775220901E-2,-1.530653704E-2,-1.033234876E-2
2.878634375E0,-5.094616115E-2,-1.877974346E-2,-9.128072299E-3
2.882604687E0,-5.297074094E-2,-2.343977243E-2,-7.906341925E-3
2.886575000E0,-5.546656251E-2,-2.841396071E-2,-5.637413356E-3
2.890546875E0,-5.731661245E-2,-3.063052893E-2,-3.839724232E-3
2.894515625E0,-5.944591388E-2,-3.495894372E-2,-8.203047328E-4
2.898490625E0,-6.061528623E-2,-3.759439290E-2,1.012290944E-3
2.902457812E0,-6.136577576E-2,-3.949680179E-2,3.141592722E-3
2.906426562E0,-6.442010403E-2,-3.878121451E-2,5.061454605E-3
2.910398437E0,-6.415830553E-2,-3.813544288E-2,6.003932562E-3
2.914368750E0,-6.365215778E-2,-3.586651757E-2,5.951572675E-3
2.918339062E0,-6.155776232E-2,-3.241076320E-2,6.248278543E-3
2.922309375E0,-5.829399824E-2,-2.895501256E-2,6.021386012E-3
2.926281250E0,-5.232496932E-2,-2.384119667E-2,6.562437862E-3
2.930251562E0,-4.806636646E-2,-1.799434423E-2,5.340707488E-3
2.934228125E0,-4.258603230E-2,-1.043706853E-2,2.775073517E-3
2.938192187E0,-3.890338913E-2,-5.166174378E-3,-1.396263397E-4
2.942162500E0,-3.282964230E-2,4.188790335E-4,-4.537856148E-4
2.946132812E0,-2.822197415E-2,3.682644805E-3,-2.042035107E-3
2.950104687E0,-2.583087236E-2,7.539822254E-3,-4.258603323E-3
2.954073437E0,-2.263692021E-2,1.200786512E-2,-6.649704650E-3
2.958045312E0,-1.984439418E-2,1.453859266E-2,-7.120943163E-3
2.962015625E0,-1.731366664E-2,1.638864167E-2,-6.946410518E-3
2.965985937E0,-1.589994878E-2,1.687733456E-2,-6.736970972E-3
2.969956250E0,-1.478293911E-2,1.881464943E-2,-6.684611086E-3
2.973932812E0,-1.569050923E-2,2.050761878E-2,-5.916666240E-3
2.977896875E0,-1.548107062E-2,2.050761878E-2,-4.974188283E-3
2.981868750E0,-1.631882787E-2,1.946042106E-2,-3.211405827E-3
2.985837500E0,-1.745329238E-2,1.933824830E-2,-6.457717973E-4
2.989809375E0,-1.788962446E-2,1.869247667E-2,0.000000000E0
2.993779687E0,-2.132792398E-2,1.747074537E-2,3.141592606E-4
2.997753125E0,-2.296853252E-2,1.549852360E-2,2.059488557E-3
3.001720312E0,-2.624975145E-2,1.197295822E-2,3.263765713E-3
3.005690625E0,-2.771582827E-2,9.093165398E-3,3.735004691E-3
3.009660937E0,-3.035127558E-2,7.592182141E-3,6.719517522E-3
3.013637500E0,-3.316125646E-2,5.550147034E-3,8.395033889E-3
3.017607812E0,-3.462733328E-2,2.914699726E-3,1.034980267E-2
3.021573437E0,-3.668681905E-2,-3.141592606E-4,1.115265395E-2
3.025542187E0,-3.645992652E-2,-4.939281847E-3,1.136209350E-2
3.029514062E0,-3.686135262E-2,-9.896016680E-3,1.291543618E-2
3.033484375E0,-3.651228920E-2,-1.314232964E-2,1.422443334E-2
3.037454687E0,-3.701843321E-2,-1.640609466E-2,1.532399096E-2
3.041426562E0,-3.609341010E-2,-1.726130582E-2,1.680752076E-2
3.045396875E0,-3.584906086E-2,-1.808161102E-2,1.825614460E-2
3.049367187E0,-3.382448107E-2,-1.663298719E-2,1.953023486E-2
3.053345312E0,-3.316125646E-2,-1.415462047E-2,2.047271281E-2
3.057307812E0,-3.342305496E-2,-1.080358773E-2,2.085668407E-2
3.061278125E0,-3.153809905E-2,-5.410520826E-3,2.232276089E-2
3.065248437E0,-3.029891662E-2,3.490658419E-4,2.209586836E-2
3.069220312E0,-3.042108938E-2,3.665191354E-3,2.083923109E-2
3.073190625E0,-3.256784379E-2,7.679448463E-3,1.989675313E-2
3.077160937E0,-3.417354822E-2,9.634217247E-3,1.996656694E-2
3.081131250E0,-3.656464815E-2,1.136209350E-2,2.057743259E-2
3.085101562E0,-3.883357719E-2,9.983283468E-3,2.089159191E-2
3.089071875E0,-3.942698613E-2,9.337511845E-3,2.066469751E-2
3.093042187E0,-4.124213010E-2,6.003932562E-3,2.213077433E-2
3.097014062E0,-4.035201296E-2,3.333578818E-3,2.234021388E-2
3.100984375E0,-4.103269055E-2,-1.710422686E-3,2.211332135E-2
3.104954687E0,-4.120722413E-2,-6.352998316E-3,2.190388180E-2
3.108925000E0,-4.125958309E-2,-9.826203808E-3,2.062979154E-2
3.112895312E0,-4.171336815E-2,-1.282817032E-2,2.045525797E-2
3.116865625E0,-4.214970022E-2,-1.556833647E-2,1.951278187E-2
3.120837500E0,-4.105014354E-2,-1.537635084E-2,1.774999872E-2
3.124806250E0,-3.895574808E-2,-1.548107062E-2,1.563815027E-2
3.128776562E0,-3.675663471E-2,-1.565560326E-2,1.282817032E-2
3.132748437E0,-3.361504152E-2,-1.630137488E-2,1.150172018E-2
3.136718750E0,-3.159045801E-2,-1.633628085E-2,1.174606569E-2
3.140689062E0,-2.820452116E-2,-1.122246683E-2,1.045452245E-2
3.144659375E0,-2.656391077E-2,-5.358160939E-3,8.011061698E-3
3.148629687E0,-2.464404888E-2,-3.682644805E-3,7.836528122E-3
3.152600000E0,-2.202605456E-2,-2.042035107E-3,8.395033889E-3
3.156571875E0,-1.848303713E-2,-3.420845373E-3,1.048942842E-2
3.160542187E0,-1.846558414E-2,-6.335545331E-3,1.343903504E-2
3.164510937E0,-2.012364566E-2,-1.071632188E-2,1.586504281E-2
3.168482812E0,-2.040289901E-2,-1.562069636E-2,1.576032303E-2
3.172460937E0,-2.106612362E-2,-2.336995862E-2,1.677261479E-2
3.176423437E0,-2.094395086E-2,-2.796017379E-2,1.794198528E-2
3.180395312E0,-2.167698927E-2,-2.673844434E-2,1.734857261E-2
3.184364062E0,-2.230530791E-2,-2.490584925E-2,1.644100063E-2
3.188334375E0,-2.473131567E-2,-2.518510073E-2,1.935570128E-2
3.192306250E0,-2.551671304E-2,-2.450442314E-2,2.103121765E-2
3.196276562E0,-2.647664398E-2,-2.583087236E-2,2.251474746E-2
3.200246875E0,-2.522000670E-2,-2.769837528E-2,2.426007576E-2
3.204217187E0,-2.443460934E-2,-2.832669392E-2,2.666863054E-2
3.208187500E0,-2.588323317E-2,-2.864085324E-2,2.925171889E-2
3.212196875E0,-2.537708730E-2,-2.406809106E-2,3.068288788E-2
3.216134375E0,-2.492330223E-2,-2.015855350E-2,3.316125646E-2
3.220100000E0,-2.420771681E-2,-1.342158206E-2,3.530801088E-2
3.224070312E0,-2.401573025E-2,-4.136430100E-3,3.693116829E-2
3.228040625E0,-2.323033288E-2,-9.599310579E-4,3.914773464E-2
3.232010937E0,-2.150245570E-2,5.864306353E-3,3.762929887E-2
3.235982812E0,-2.000147291E-2,1.293289009E-2,3.677408770E-2
3.239953125E0,-2.097885683E-2,1.897172816E-2,3.490658477E-2
3.243923437E0,-1.972221956E-2,2.432988957E-2,3.080506064E-2
3.247893750E0,-1.893682219E-2,2.361430414E-2,2.867575921E-2
3.251871875E0,-1.738347858E-2,2.055997774E-2,2.466150187E-2
3.255834375E0,-1.623156108E-2,1.541125681E-2,2.104867063E-2
3.259804687E0,-1.532399096E-2,2.036799304E-2,1.485275198E-2
3.263775000E0,-1.507964451E-2,2.124065720E-2,1.125737373E-2
3.267745312E0,-1.441641990E-2,1.481784508E-2,1.048942842E-2
3.271717187E0,-1.289798319E-2,1.118756086E-2,5.166174378E-3
3.275687500E0,-1.340412907E-2,1.926843449E-2,1.972222002E-3
3.279657812E0,-1.216494478E-2,2.755874954E-2,2.024581889E-3
3.283628125E0,-1.110029407E-2,3.183480725E-2,3.717551241E-3
3.287598437E0,-1.066396199E-2,3.429571912E-2,5.201081280E-3
3.291568750E0,-1.265363675E-2,3.312635049E-2,9.948376566E-3
3.295539062E0,-1.574287005E-2,3.358013555E-2,1.375319436E-2
3.299510937E0,-1.911135577E-2,3.324852139E-2,1.595230959E-2
3.303482812E0,-2.343977243E-2,2.684316412E-2,1.848303713E-2
3.307451562E0,-2.518510073E-2,2.246238664E-2,2.094395086E-2
3.311421875E0,-2.638937905E-2,1.844812930E-2,2.340486459E-2
3.315392187E0,-2.624975145E-2,1.319468953E-2,2.644173801E-2
3.319364062E0,-2.635447122E-2,7.470009383E-3,2.858849242E-2
3.323332812E0,-2.698278986E-2,3.246312495E-3,2.855358645E-2
3.327303125E0,-2.926917188E-2,1.413716702E-3,2.960078418E-2
3.331282812E0,-3.152064607E-2,-4.171337001E-3,3.122393973E-2
3.335245312E0,-3.241076320E-2,-1.075122785E-2,3.330088034E-2
3.339215625E0,-3.352777660E-2,-1.577777602E-2,3.354522958E-2
3.343185937E0,-3.368485346E-2,-2.385865152E-2,3.300417587E-2
3.347157812E0,-3.492403775E-2,-3.515093029E-2,3.090978041E-2
3.351126562E0,-3.344050795E-2,-5.014330894E-2,2.675589733E-2
3.355098437E0,-3.139847144E-2,-5.797983706E-2,2.115339041E-2
3.359068750E0,-3.026400879E-2,-5.384340882E-2,1.652826741E-2
3.363037500E0,-2.696533687E-2,-4.598942399E-2,1.425934024E-2
3.367009375E0,-2.534218132E-2,-4.092797264E-2,1.202531811E-2
3.370987500E0,-2.085668407E-2,-2.982767671E-2,9.930923581E-3
3.374950000E0,-1.712168008E-2,-2.029817924E-2,8.936085738E-3
3.378921875E0,-1.645845547E-2,-1.150172018E-2,6.562437862E-3
3.382890625E0,-1.778490469E-2,-4.223696887E-3,4.450589418E-3
3.386860937E0,-2.008873969E-2,-3.839724232E-4,4.328416660E-3
3.390832812E0,-2.415535599E-2,1.972222002E-3,4.921828397E-3
3.394803125E0,-2.611012571E-2,1.675516134E-3,7.016223390E-3
3.398773437E0,-2.783800103E-2,6.981316837E-4,1.089085452E-2
3.402743750E0,-2.588323317E-2,-4.660028964E-3,1.415462047E-2
3.406714062E0,-2.340486459E-2,-1.118756086E-2,1.666789502E-2
3.410693750E0,-2.019345947E-2,-1.783726551E-2,1.987930015E-2
3.414656250E0,-1.696459949E-2,-2.515019476E-2,2.101376466E-2
3.418626562E0,-1.506219152E-2,-3.218387067E-2,2.055997774E-2
3.422596875E0,-1.441641990E-2,-3.837978840E-2,1.877974346E-2
3.426567187E0,-1.514945831E-2,-4.600688070E-2,1.560324337E-2
3.430537500E0,-1.654572040E-2,-5.358160660E-2,1.176351868E-2
3.434507812E0,-1.780235767E-2,-5.976007506E-2,9.861109778E-3
3.438479687E0,-1.904154196E-2,-6.543239206E-2,8.621926419E-3
3.442450000E0,-2.162462845E-2,-7.309439033E-2,7.679448463E-3
3.446420312E0,-2.185152285E-2,-7.824310660E-2,7.749261800E-3
3.450398437E0,-2.145009674E-2,-8.215264976E-2,7.016223390E-3
3.454368750E0,-2.075196430E-2,-8.511970937E-2,7.417649496E-3
3.458331250E0,-1.890191622E-2,-8.874998987E-2,7.225662936E-3
3.462301562E0,-1.647590846E-2,-9.152506292E-2,7.173303049E-3
3.466289062E0,-1.492256485E-2,-9.238027781E-2,6.859143730E-3
3.470242187E0,-1.256637089E-2,-9.231046587E-2,6.178465672E-3
3.474214062E0,-1.179842558E-2,-8.688248694E-2,6.161012221E-3
3.478184375E0,-1.144936029E-2,-7.583455741E-2,5.235987715E-3
3.482154687E0,-1.272345055E-2,-6.421066076E-2,8.150687441E-3
3.486125000E0,-1.485275198E-2,-5.349434167E-2,1.087340154E-2
3.490095312E0,-1.752310619E-2,-3.656464815E-2,1.384046115E-2
3.494065625E0,-2.033308521E-2,-1.994911395E-2,1.567305624E-2
3.498037500E0,-2.075196430E-2,-3.717551241E-3,1.780235767E-2
3.502006250E0,-1.996656694E-2,7.714355364E-3,1.836086437E-2
3.505978125E0,-1.480039209E-2,1.762782596E-2,1.685987972E-2
3.509948437E0,-7.871435024E-3,2.773328125E-2,1.630137488E-2
3.513918750E0,-3.665191354E-3,3.368485346E-2,1.691224054E-2
3.517889062E0,1.186823938E-3,3.628539667E-2,1.858775690E-2
3.521859375E0,4.572762642E-3,3.305653483E-2,2.022836544E-2
3.525829687E0,7.993607782E-3,2.829178795E-2,2.049016580E-2
3.529807812E0,1.146681327E-2,2.134537697E-2,2.237512171E-2
3.533771875E0,1.326450240E-2,1.380555425E-2,2.361430414E-2
3.537742187E0,1.432915311E-2,4.607669078E-3,2.453932911E-2
3.541712500E0,1.446877979E-2,-3.944444004E-3,2.614503168E-2
3.545682812E0,1.359611470E-2,-1.008800324E-2,2.640683204E-2
3.549653125E0,1.261873078E-2,-1.546361670E-2,2.631956525E-2
3.553625000E0,1.099557430E-2,-1.926843449E-2,2.705260366E-2
3.557593750E0,7.278022822E-3,-1.980948634E-2,2.710496262E-2
3.561564062E0,5.846852902E-3,-1.815142483E-2,2.696533687E-2
3.565535937E0,2.914699726E-3,-1.499237865E-2,2.736676298E-2
3.569514062E0,-1.588249579E-3,-1.146681327E-2,2.837905288E-2
3.573476562E0,-3.822271014E-3,-8.290314116E-3,2.804744057E-2
3.577446875E0,-5.462880712E-3,-4.904375412E-3,2.825688012E-2
3.581417187E0,-7.993607782E-3,-2.513274085E-3,2.560397983E-2
3.585389062E0,-9.861109778E-3,-1.291543595E-3,2.370157093E-2
3.589359375E0,-1.185078546E-2,8.203047328E-4,2.155481651E-2
3.593328125E0,-1.267109066E-2,4.537856206E-3,1.963495463E-2
3.597300000E0,-1.244419720E-2,8.656833321E-3,1.778490469E-2
3.601270312E0,-1.267109066E-2,1.364847459E-2,1.384046115E-2
3.605240625E0,-1.258382387E-2,1.766273193E-2,1.069886796E-2
3.609220312E0,-1.361356769E-2,2.216568217E-2,6.579891313E-3
3.613181250E0,-1.357866172E-2,2.696533687E-2,3.385938704E-3
3.617151562E0,-1.373574138E-2,3.092723340E-2,-1.221730490E-4
3.621121875E0,-1.286307629E-2,3.316125646E-2,-2.705260413E-3
3.625093750E0,-1.068141498E-2,3.480186686E-2,-4.729842301E-3
3.629064062E0,-6.649704650E-3,3.431317210E-2,-7.068583276E-3
3.633034375E0,-3.333578818E-3,3.089232743E-2,-8.883725852E-3
3.637004687E0,-6.981316983E-5,2.321287990E-2,-9.512044489E-3
3.640975000E0,2.129301662E-3,1.504473854E-2,-1.162389293E-2
3.644946875E0,3.909537569E-3,8.552113548E-3,-1.157153305E-2
3.648917187E0,3.769911127E-3,2.932153177E-3,-1.277581044E-2
3.652887500E0,1.762782573E-3,1.221730490E-4,-1.368338149E-2
3.656857812E0,1.710422686E-3,1.396263397E-4,-1.377064735E-2
3.660828125E0,4.712388909E-4,5.934119690E-4,-1.228711754E-2
3.664798437E0,-1.326450263E-3,2.670353744E-3,-1.040216256E-2
3.668770312E0,-4.502949305E-3,4.712388851E-3,-7.033676840E-3
3.672740625E0,-6.248278543E-3,7.661995478E-3,-3.159045940E-3
3.676710937E0,-8.045967668E-3,1.308996975E-2,5.585053586E-4
3.680681250E0,-9.128072299E-3,1.616174914E-2,4.974188283E-3
3.684651562E0,-9.250245057E-3,1.846558414E-2,7.801621687E-3
3.688621875E0,-8.080874570E-3,1.907644793E-2,1.153662615E-2
3.692596875E0,-7.033676840E-3,1.727875881E-2,1.401499379E-2
3.696562500E0,-5.846852902E-3,1.694714651E-2,1.617920212E-2
3.700532812E0,-4.171337001E-3,1.596976258E-2,1.733111963E-2
3.704504687E0,-3.595378250E-3,1.480039209E-2,1.884955540E-2
3.708475000E0,-2.094394993E-3,1.495747175E-2,1.984439418E-2
3.712443750E0,-6.457717973E-4,1.453859266E-2,1.965240762E-2
3.716415625E0,-5.759586347E-4,1.638864167E-2,1.884955540E-2
3.720392187E0,4.886921961E-4,1.808161102E-2,1.877974346E-2
3.724356250E0,1.518436475E-3,2.033308521E-2,1.891936921E-2
3.728328125E0,2.984513063E-3,2.181661502E-2,1.745329238E-2
3.732298437E0,3.682644805E-3,2.370157093E-2,1.616174914E-2
3.736268750E0,4.153883550E-3,2.555162087E-2,1.507964451E-2
3.740239062E0,4.293509759E-3,2.633701824E-2,1.343903504E-2
3.744209375E0,3.263765713E-3,2.850122750E-2,1.136209350E-2
3.748179687E0,2.391101094E-3,2.937389165E-2,8.709193207E-3
3.752150000E0,2.617993858E-3,3.003711626E-2,6.213372108E-3
3.756120312E0,3.124139272E-3,2.946115844E-2,4.956734832E-3
3.760090625E0,4.468042869E-3,2.811725438E-2,3.263765713E-3
3.764062500E0,5.724680144E-3,2.836159989E-2,1.623156248E-3
3.768032812E0,8.447393775E-3,2.661627159E-2,-8.901178953E-4
3.772003125E0,8.569566533E-3,2.691297606E-2,-2.303834539E-3
3.775973437E0,1.144936029E-2,2.638937905E-2,-4.171337001E-3
3.779943750E0,1.385791413E-2,2.520255372E-2,-4.817108624E-3
3.783914062E0,1.494001877E-2,2.729694918E-2,-5.724680144E-3
3.787885937E0,1.521927118E-2,3.385938704E-2,-7.784168236E-3
3.791854687E0,1.694714651E-2,3.663446009E-2,-8.325220086E-3
3.795826562E0,1.635373570E-2,3.811798990E-2,-7.243116386E-3
3.799800000E0,1.483529899E-2,3.698352724E-2,-7.120943163E-3
3.803767187E0,1.459095255E-2,3.473205119E-2,-4.677482415E-3
3.807737500E0,1.288053021E-2,3.235840425E-2,-3.438298590E-3
3.811707812E0,1.001818944E-2,2.885029279E-2,-2.827433404E-3
3.815678125E0,5.811946467E-3,3.021164984E-2,-1.151917269E-3
3.819650000E0,1.256637042E-3,3.042108938E-2,-1.169370604E-3
3.823620312E0,-4.293509759E-3,3.166027367E-2,-1.169370604E-3
3.827590625E0,-6.335545331E-3,2.944370359E-2,-5.759586347E-4
3.831560937E0,-8.831365965E-3,2.644173801E-2,3.141592606E-4
3.835531250E0,-1.113520097E-2,2.446951531E-2,-3.316125658E-4
3.839501562E0,-1.338667516E-2,2.274163999E-2,-1.413716702E-3
3.843473437E0,-1.502728462E-2,2.214822732E-2,-2.583087189E-3
3.847443750E0,-1.726130582E-2,2.049016580E-2,-1.850049011E-3
3.851414062E0,-1.710422710E-2,1.764527895E-2,-2.251474652E-3
3.855384375E0,-1.675515994E-2,1.359611470E-2,-3.560471581E-3
3.859354687E0,-1.514945831E-2,7.714355364E-3,-6.003932562E-3
3.863325000E0,-1.502728462E-2,5.427973811E-3,-8.011061698E-3
3.867296875E0,-1.425934024E-2,3.176499158E-3,-1.017526910E-2
3.871265625E0,-1.239183731E-2,1.919862116E-4,-1.164134592E-2
3.875235937E0,-1.026253588E-2,-5.934119690E-4,-1.368338149E-2
3.879210937E0,-8.342674002E-3,-1.919862116E-4,-1.617920212E-2
3.883178125E0,-6.492624991E-3,1.553343027E-3,-1.668534800E-2
3.887148437E0,-6.003932562E-3,2.478367416E-3,-1.905899495E-2
3.891118750E0,-4.520402756E-3,1.500983140E-3,-2.014109865E-2
3.895089062E0,-2.635447076E-3,-2.443460980E-4,-2.101376466E-2
3.899059375E0,-2.740166849E-3,-1.291543595E-3,-2.035053819E-2
3.903031250E0,-1.867502346E-3,-3.682644805E-3,-2.031563222E-2
3.907001562E0,-2.844886621E-3,-1.183333248E-2,-2.136282995E-2
3.910971875E0,-4.310963210E-3,-1.605702937E-2,-1.923352852E-2
3.914942187E0,-4.537856206E-3,-2.349213138E-2,-1.717403904E-2
3.918912500E0,-6.702064537E-3,-2.754129469E-2,-1.452113967E-2
3.922882812E0,-8.621926419E-3,-3.234095126E-2,-1.188569237E-2
3.926853125E0,-1.167625282E-2,-3.495894372E-2,-7.574729156E-3
3.930825000E0,-1.534144394E-2,-3.488913178E-2,-3.595378250E-3
3.934795312E0,-1.780235767E-2,-3.666936606E-2,2.984513063E-3
3.938765625E0,-2.145009674E-2,-3.502875939E-2,8.639379404E-3
3.942740625E0,-2.345722541E-2,-3.595378250E-2,1.206022501E-2
3.946706250E0,-2.473131567E-2,-3.544763848E-2,1.867502369E-2
3.950676562E0,-2.476622164E-2,-3.682644665E-2,2.399827726E-2
3.954646875E0,-2.476622164E-2,-3.837978840E-2,3.066543490E-2
3.958618750E0,-2.417281084E-2,-3.698352724E-2,3.736750036E-2
3.962589062E0,-2.251474746E-2,-3.256784379E-2,4.077089205E-2
3.966559375E0,-2.057743259E-2,-2.373647690E-2,4.286528751E-2
3.970529687E0,-1.811651699E-2,-1.719149388E-2,4.401720315E-2
3.974500000E0,-1.535889693E-2,-1.113520097E-2,4.417428374E-2
3.978470312E0,-1.087340154E-2,-5.183627829E-3,4.284783453E-2
3.982442187E0,-7.295476273E-3,4.014257283E-4,4.145156965E-2
3.986412500E0,-3.211405827E-3,6.824237294E-3,3.672172874E-2
3.990381250E0,4.014257283E-4,1.213003788E-2,3.248057887E-2
3.994353125E0,5.096361507E-3,1.877974346E-2,2.460914291E-2
3.998323437E0,1.144936029E-2,2.321287990E-2,1.666789502E-2
4.002293750E0,1.701696031E-2,2.392846346E-2,9.337511845E-3
4.006264062E0,2.343977243E-2,2.394591644E-2,1.710422686E-3
4.010234375E0,2.768092230E-2,2.893755957E-2,-4.782202188E-3
4.014204687E0,3.164282069E-2,3.173008561E-2,-1.174606569E-2
4.018175000E0,3.569198400E-2,3.548254445E-2,-1.762782596E-2
4.022146875E0,3.794345632E-2,3.721041977E-2,-2.141519077E-2
4.026117187E0,3.762929887E-2,4.262094200E-2,-2.436479554E-2
4.030087500E0,3.619812801E-2,4.630358517E-2,-2.740166895E-2
4.034057812E0,3.281218931E-2,4.920083284E-2,-2.818706818E-2
4.038028125E0,2.951351739E-2,5.012585595E-2,-2.914699912E-2
4.042000000E0,2.624975145E-2,5.185373127E-2,-2.939134464E-2
4.045970312E0,2.118829638E-2,5.412266031E-2,-2.823942713E-2
4.049939062E0,1.745329238E-2,5.651376024E-2,-2.841396071E-2
4.053910937E0,1.452113967E-2,5.759586394E-2,-2.708750963E-2
4.057881250E0,1.059414819E-2,6.073745713E-2,-2.523746155E-2
4.061857812E0,8.220500313E-3,6.455972791E-2,-2.385865152E-2
4.065821875E0,7.592182141E-3,6.841690838E-2,-2.378883772E-2
4.069792187E0,6.684611086E-3,7.138396800E-2,-2.213077433E-2
4.073764062E0,3.595378250E-3,7.260569930E-2,-2.228785492E-2
4.077735937E0,1.727875904E-3,6.991788745E-2,-2.234021388E-2
4.081704687E0,1.082104165E-3,6.501351297E-2,-2.188642882E-2
4.085675000E0,1.675516134E-3,5.770058557E-2,-2.012364566E-2
4.089651562E0,1.972222002E-3,4.886921868E-2,-1.801179722E-2
4.093615625E0,2.513274085E-3,3.604104742E-2,-1.490511186E-2
4.097585937E0,1.448623254E-3,2.138028294E-2,-1.226966456E-2
4.101557812E0,1.012290944E-3,9.896016680E-3,-9.634217247E-3
4.105528125E0,1.047197497E-3,-2.565633971E-3,-5.637413356E-3
4.109498437E0,1.221730490E-3,-1.183333248E-2,-2.792526735E-3
4.113468750E0,2.094395168E-4,-2.073451132E-2,8.028514567E-4
4.117440625E0,1.151917269E-3,-2.485348843E-2,2.792526735E-3
4.121409375E0,1.535889693E-3,-2.502802201E-2,4.660028964E-3
4.125379687E0,1.500983140E-3,-2.340486459E-2,7.557275705E-3
4.129350000E0,-1.745329246E-5,-2.193878777E-2,9.075712413E-3
4.133321875E0,7.853981806E-4,-1.780235767E-2,9.320057929E-3
4.137292187E0,2.443460980E-4,-1.190314535E-2,9.983283468E-3
4.141262500E0,-3.490658492E-5,-5.846852902E-3,1.059414819E-2
4.145232812E0,-1.151917269E-3,-1.692969352E-3,1.001818944E-2
4.149203125E0,-2.670353744E-3,2.617993741E-4,7.749261800E-3
4.153173437E0,-2.146754880E-3,3.333578818E-3,6.265731994E-3
4.157143750E0,-2.617993858E-3,6.248278543E-3,5.270894151E-3
4.161115625E0,-1.535889693E-3,8.813912980E-3,6.213372108E-3
4.165084375E0,-2.007128671E-3,8.883725852E-3,7.068583276E-3
4.169056250E0,-7.679448463E-4,8.744099177E-3,7.574729156E-3
4.173026562E0,1.396263397E-4,8.395033889E-3,8.761553094E-3
4.176996875E0,1.431170036E-3,9.529497474E-3,1.073377486E-2
4.180968750E0,3.717551241E-3,8.464846760E-3,1.350884791E-2
4.184937500E0,5.829399452E-3,8.185594343E-3,1.558579039E-2
4.188907812E0,7.574729156E-3,8.115780540E-3,1.792453043E-2
4.192879687E0,9.529497474E-3,4.939281847E-3,2.064724453E-2
4.196848437E0,1.291543618E-2,1.850049011E-3,2.438225038E-2
4.200820312E0,1.485275198E-2,-2.548180753E-3,2.790781483E-2
4.204839062E0,1.534144394E-2,-9.721484035E-3,3.242821619E-2
4.208760937E0,1.518436428E-2,-1.535889693E-2,3.467969224E-2
4.212731250E0,1.392772701E-2,-2.029817924E-2,3.616322204E-2
4.216701562E0,1.254891697E-2,-2.504547499E-2,3.684389964E-2
4.220673437E0,1.054178830E-2,-2.958333120E-2,3.701843321E-2
4.224643750E0,8.953538723E-3,-3.560471535E-2,3.888593614E-2
4.228614062E0,7.644542027E-3,-3.911282867E-2,3.876376152E-2
4.232584375E0,7.138396613E-3,-4.153883457E-2,3.947934881E-2
4.236554687E0,5.811946467E-3,-4.187044874E-2,3.996803984E-2
4.240525000E0,4.712388851E-3,-4.300491139E-2,3.949680179E-2
4.244495312E0,3.071779385E-3,-4.211479425E-2,3.696607426E-2
4.248465625E0,1.448623254E-3,-4.171336815E-2,3.450515866E-2
4.252437500E0,-1.745329209E-4,-4.115486518E-2,3.204424679E-2
4.256407812E0,-1.396263397E-4,-4.221951589E-2,2.885029279E-2
4.260378125E0,-5.934119690E-4,-4.565781355E-2,2.515019476E-2
4.264356250E0,-5.585053586E-4,-4.626867920E-2,2.298598550E-2
4.268318750E0,-4.014257283E-4,-4.249876738E-2,2.211332135E-2
4.272290625E0,-1.256637042E-3,-3.715806082E-2,2.460914291E-2
4.276260937E0,-4.642575979E-3,-3.801327199E-2,2.707005665E-2
4.280231250E0,-8.691739291E-3,-3.989822790E-2,3.026400879E-2
4.284201562E0,-1.230457146E-2,-4.024729133E-2,3.605850041E-2
4.288171875E0,-1.745329238E-2,-3.642502055E-2,4.073598608E-2
4.292142187E0,-2.151990868E-2,-3.316125646E-2,4.406956211E-2
4.296112500E0,-2.211332135E-2,-3.185226023E-2,5.003859103E-2
4.300082812E0,-2.258456126E-2,-3.001966327E-2,5.160938576E-2
4.304062500E0,-1.848303713E-2,-2.186897583E-2,5.005604401E-2
4.308025000E0,-1.500983164E-2,-1.219985168E-2,4.619886354E-2
4.311995312E0,-6.719517522E-3,-1.117010717E-3,4.277801886E-2
4.315965625E0,-3.490658492E-5,7.504915819E-3,4.022983834E-2
4.319935937E0,2.879793290E-3,9.896016680E-3,3.820525855E-2
4.323906250E0,4.415682983E-3,8.709193207E-3,3.693116829E-2
4.327876562E0,2.687806962E-3,5.393067375E-3,3.433062509E-2
4.331848437E0,-1.500983140E-3,2.862340072E-3,3.305653483E-2
4.335817187E0,-5.916666240E-3,-7.853981806E-4,3.122393973E-2
4.339789062E0,-8.866272867E-3,-3.403391922E-3,2.923426405E-2
4.343767187E0,-1.099557430E-2,-4.677482415E-3,2.736676298E-2
4.347729687E0,-1.034980267E-2,-5.619960371E-3,2.522000670E-2
4.351700000E0,-7.923794910E-3,-5.113814492E-3,2.225294709E-2
4.355673437E0,-5.166174378E-3,-3.769911127E-3,1.937315427E-2
4.359642187E0,-2.652900526E-3,-4.188790335E-4,1.530653704E-2
4.363610937E0,-9.424777818E-4,2.862340072E-3,1.214749180E-2
4.367582812E0,1.134464052E-3,5.358160939E-3,8.604473434E-3
4.371553125E0,1.850049011E-3,6.928957067E-3,6.178465672E-3
4.375523437E0,2.181661548E-3,8.080874570E-3,4.799655639E-3
4.379493750E0,1.204277156E-3,8.237954229E-3,3.979350906E-3
4.383464062E0,1.553343027E-3,9.023352526E-3,3.473205259E-3
4.387434375E0,2.094394993E-3,9.529497474E-3,2.879793290E-3
4.391406250E0,2.687806962E-3,1.071632188E-2,3.473205259E-3
4.395375000E0,2.844886621E-3,1.268854365E-2,4.991641734E-3
4.399346875E0,1.535889693E-3,1.530653704E-2,7.487462368E-3
4.403317187E0,1.797689125E-3,1.884955540E-2,9.197885171E-3
4.407287500E0,2.460914198E-3,2.232276089E-2,1.115265395E-2
4.411257812E0,2.338741207E-3,2.761110850E-2,1.377064735E-2
4.415228125E0,3.508111695E-3,3.064798191E-2,1.881464943E-2
4.419200000E0,2.757620299E-3,3.248057887E-2,2.103121765E-2
4.423170312E0,3.455751808E-3,3.460988030E-2,2.462659590E-2
4.427140625E0,3.944444004E-3,3.577924892E-2,2.843141370E-2
4.431110937E0,4.537856206E-3,3.743731230E-2,2.911209129E-2
4.435081250E0,4.677482415E-3,3.712315485E-2,3.003711626E-2
4.439051562E0,4.276056774E-3,3.447025269E-2,3.148574010E-2
4.443021875E0,3.106686054E-3,3.272492439E-2,3.232349828E-2
4.446992187E0,3.106686054E-3,3.015928902E-2,3.207915276E-2
4.450964062E0,3.106686054E-3,2.754129469E-2,3.171263263E-2
4.454932812E0,2.652900526E-3,2.474876866E-2,3.103195317E-2
4.458904687E0,4.939281847E-3,2.117084339E-2,3.008947708E-2
4.462882812E0,7.801621687E-3,1.750565320E-2,2.818706818E-2
4.466845312E0,1.171115879E-2,1.626646891E-2,2.665117756E-2
4.470815625E0,1.363102160E-2,1.247910410E-2,2.307325229E-2
4.474785937E0,1.609193534E-2,9.983283468E-3,1.883210242E-2
4.478757812E0,1.762782596E-2,6.928957067E-3,1.457349956E-2
4.482728125E0,1.727875881E-2,2.513274085E-3,9.093165398E-3
4.486698437E0,1.794198528E-2,-5.759586347E-4,4.642575979E-3
4.490668750E0,1.750565320E-2,-1.535889693E-3,-1.151917269E-3
4.494639062E0,1.679006778E-2,-2.984513063E-3,-6.736970972E-3
4.498609375E0,1.691224054E-2,-4.276056774E-3,-1.225221157E-2
4.502579687E0,1.754055917E-2,-5.358160939E-3,-1.956514083E-2
4.506551562E0,1.801179722E-2,-5.794493016E-3,-2.583087236E-2
4.510521875E0,2.038544603E-2,-8.901178837E-3,-3.078760765E-2
4.514490625E0,2.101376466E-2,-1.710422710E-2,-3.448770568E-2
4.518462500E0,2.207841538E-2,-2.841396071E-2,-3.726277873E-2
4.522432812E0,2.356194519E-2,-3.995058686E-2,-4.038691893E-2
4.526403125E0,2.408554405E-2,-4.838052765E-2,-4.180063680E-2
4.530375000E0,2.363175713E-2,-5.555383116E-2,-4.143411666E-2
4.534345312E0,2.366666496E-2,-5.953317881E-2,-3.921754658E-2
4.538320312E0,2.261946723E-2,-5.469861999E-2,-3.818780556E-2
4.542290625E0,2.249729447E-2,-6.124360487E-2,-3.115412779E-2
4.546256250E0,2.307325229E-2,-6.988298148E-2,-2.268928103E-2
4.550226562E0,1.989675313E-2,-7.756242901E-2,-1.581268385E-2
4.554204687E0,1.848303713E-2,-7.581710070E-2,-9.058258496E-3
4.558167187E0,1.644100063E-2,-6.782349199E-2,-4.729842301E-3
4.562139062E0,1.425934024E-2,-6.106907129E-2,2.687806962E-3
4.566109375E0,1.172861271E-2,-5.448918045E-2,8.098327555E-3
4.570079687E0,1.167625282E-2,-5.094616115E-2,1.221730467E-2
4.574050000E0,9.861109778E-3,-5.878268927E-2,1.675515994E-2
4.578020312E0,9.075712413E-3,-4.865977913E-2,1.703441329E-2
4.581990625E0,2.268928103E-3,-1.394518092E-2,1.560324337E-2
4.585960937E0,-7.033676840E-3,2.733185515E-2,1.478293911E-2
4.589932812E0,-2.209586836E-2,7.826056331E-2,1.457349956E-2
4.593901562E0,-3.703588620E-2,1.197470427E-1,1.150172018E-2
4.597873437E0,-4.288274050E-2,1.335700452E-1,8.744099177E-3
4.601843750E0,-3.869394958E-2,1.327846497E-1,5.916666240E-3
4.605814062E0,-3.186971322E-2,1.265538186E-1,2.617993858E-3
4.609784375E0,-2.466150187E-2,1.175653785E-1,1.762782573E-3
4.613754687E0,-1.541125681E-2,1.063254550E-1,1.745329209E-4
4.617725000E0,-7.731808349E-3,9.030333161E-2,-1.867502346E-3
4.621704687E0,2.076941775E-3,6.881833076E-2,-2.565633971E-3
4.625667187E0,9.913469665E-3,4.680972919E-2,-4.694935866E-3
4.629637500E0,1.617920212E-2,2.134537697E-2,-4.345869645E-3
4.633607812E0,2.125811018E-2,-3.508111695E-3,-4.258603323E-3
4.637578125E0,2.275909297E-2,-2.096140385E-2,-3.630284918E-3
4.641548437E0,2.042035200E-2,-3.544763848E-2,-1.221730490E-3
4.645520312E0,1.801179722E-2,-4.480260238E-2,1.361356815E-3
4.649489062E0,1.391027402E-2,-5.040510744E-2,2.338741207E-3
4.653459375E0,9.232792072E-3,-5.230751634E-2,4.241149873E-3
4.657450000E0,5.009094719E-3,-5.176646635E-2,5.497787148E-3
4.661407812E0,2.967059845E-4,-4.724606127E-2,6.562437862E-3
4.665371875E0,-1.972222002E-3,-4.125958309E-2,7.155850064E-3
4.669343750E0,-5.288347602E-3,-3.398156166E-2,8.517206647E-3
4.673312500E0,-7.504915819E-3,-2.590068616E-2,7.958701812E-3
4.677282812E0,-8.674286306E-3,-1.867502369E-2,6.771877408E-3
4.681254687E0,-1.003564335E-2,-1.017526910E-2,6.143558770E-3
4.685225000E0,-9.197885171E-3,-2.530727303E-3,5.689773243E-3
4.689195312E0,-8.220500313E-3,3.351032268E-3,4.974188283E-3
4.693165625E0,-7.504915819E-3,6.702064537E-3,2.670353744E-3
4.697135937E0,-4.921828397E-3,9.983283468E-3,3.124139272E-3
4.701114062E0,-3.193952609E-3,1.008800324E-2,1.291543595E-3
4.705078125E0,-1.535889693E-3,9.651671164E-3,-2.268928074E-4
4.709046875E0,1.884955564E-3,9.093165398E-3,1.047197584E-4
4.713017187E0,4.590216093E-3,6.998770405E-3,-3.839724232E-4
4.716989062E0,6.056292448E-3,5.689773243E-3,-1.117010717E-3
4.720959375E0,7.784168236E-3,4.153883550E-3,-3.560471581E-3
4.724929687E0,7.941247895E-3,2.234021435E-3,-5.410520826E-3
4.728900000E0,7.539822254E-3,3.246312495E-3,-7.400196046E-3
4.732870312E0,5.916666240E-3,4.118977115E-3,-8.360126987E-3
4.736842187E0,5.044001620E-3,5.253441166E-3,-1.117010694E-2
4.740820312E0,4.066617228E-3,6.283185445E-3,-1.551597659E-2
4.744782812E0,2.443460980E-3,5.811946467E-3,-1.621410809E-2
4.748753125E0,9.773843922E-4,5.846852902E-3,-1.682497375E-2
4.752723437E0,-8.901178953E-4,4.782202188E-3,-1.774999872E-2
4.756693750E0,-1.989675453E-3,4.817108624E-3,-1.799434423E-2
4.760665625E0,-1.815142459E-3,3.019419499E-3,-1.684242673E-2
4.764635937E0,-2.234021435E-3,2.792526793E-4,-1.595230959E-2
4.768606250E0,-6.806784077E-4,-2.356194425E-3,-1.345648803E-2
4.772576562E0,-1.029744279E-3,-6.824237294E-3,-9.791296907E-3
4.776546875E0,2.094395168E-4,-8.429939859E-3,-6.876597181E-3
4.780517187E0,8.726646047E-5,-9.599311277E-3,-5.829399452E-3
4.784487500E0,1.710422686E-3,-1.050688233E-2,-2.234021435E-3
4.788459375E0,2.740166849E-3,-1.195550524E-2,2.146754880E-3
4.792428125E0,1.204277156E-3,-1.293289009E-2,3.001966281E-3
4.796400000E0,2.303834539E-3,-1.228711754E-2,5.323254038E-3
4.800370312E0,3.054326167E-3,-1.436406001E-2,6.230825558E-3
4.804340625E0,3.246312495E-3,-1.551597659E-2,7.068583276E-3
4.808310937E0,3.595378250E-3,-1.642354764E-2,7.731808349E-3
4.812281250E0,3.089232836E-3,-1.530653704E-2,7.452555932E-3
4.816251562E0,4.153883550E-3,-1.380555425E-2,7.696901914E-3
4.820228125E0,3.525565146E-3,-1.221730467E-2,6.841690745E-3
4.824193750E0,3.071779385E-3,-9.546951391E-3,5.881759338E-3
4.828162500E0,3.839724232E-3,-6.283185445E-3,4.712388851E-3
4.832134375E0,6.457718089E-3,-1.972222002E-3,3.054326167E-3
4.836104687E0,8.656833321E-3,2.007128671E-3,1.570796361E-3
4.840075000E0,1.071632188E-2,5.445427261E-3,2.094394993E-3
4.844045312E0,1.411971357E-2,9.197885171E-3,2.967059612E-3
4.848015625E0,1.726130582E-2,1.260127686E-2,4.101523664E-3
4.851993750E0,2.185152285E-2,1.422443334E-2,5.619960371E-3
4.855957812E0,2.651155181E-2,1.466076542E-2,7.347836159E-3
4.859928125E0,2.907718532E-2,1.567305624E-2,9.616764262E-3
4.863898437E0,3.246312216E-2,1.518436428E-2,9.913469665E-3
4.867868750E0,3.469714522E-2,1.385791413E-2,1.132718660E-2
4.871839062E0,3.663446009E-2,1.244419720E-2,1.141445339E-2
4.875809375E0,3.864159063E-2,1.041961554E-2,1.322959550E-2
4.879781250E0,4.082325101E-2,6.440265104E-3,1.326450240E-2
4.883750000E0,4.290019348E-2,3.595378250E-3,1.221730467E-2
4.887721875E0,4.403465614E-2,0.000000000E0,1.207767799E-2
4.891692187E0,4.583234712E-2,-6.510077976E-3,1.190314535E-2
4.895681250E0,4.495968297E-2,-1.045452245E-2,1.141445339E-2
4.899632812E0,4.443608224E-2,-1.659808122E-2,1.172861271E-2
4.903610937E0,4.188790172E-2,-2.302089334E-2,1.270599663E-2
4.907573437E0,3.970624134E-2,-2.951351739E-2,1.446877979E-2
4.911559375E0,3.642502055E-2,-3.633775562E-2,1.494001877E-2
4.915515625E0,3.286454827E-2,-4.441862926E-2,1.685987972E-2
4.919485937E0,2.802998759E-2,-5.300565064E-2,1.795943826E-2
4.923456250E0,2.466150187E-2,-6.126105785E-2,1.855284907E-2
4.927426562E0,2.138028294E-2,-6.899286807E-2,1.870992966E-2
4.931396875E0,1.946042106E-2,-7.672467083E-2,1.874483563E-2
4.935368750E0,1.595230959E-2,-8.295550197E-2,1.830850355E-2
4.939345312E0,1.488765888E-2,-9.030333161E-2,1.774999872E-2
4.943309375E0,1.310742274E-2,-9.613273293E-2,1.624901593E-2
4.947279687E0,1.172861271E-2,-9.810495377E-2,1.434660610E-2
4.951250000E0,9.861109778E-3,-1.005833223E-1,1.174606569E-2
4.955220312E0,9.093165398E-3,-1.006182283E-1,7.906341925E-3
4.959190625E0,7.819075137E-3,-9.866346419E-2,1.937315450E-3
4.963162500E0,7.504915819E-3,-9.681341052E-2,-2.164208330E-3
4.967132812E0,5.759586580E-3,-9.557422996E-2,-6.405358203E-3
4.971103125E0,5.148721393E-3,-9.478883445E-2,-1.096066739E-2
4.975073437E0,5.602506921E-3,-9.203121066E-2,-1.441641990E-2
4.979042187E0,4.345869645E-3,-8.890707046E-2,-1.907644793E-2
4.983017187E0,7.033676840E-3,-8.943066746E-2,-2.375393175E-2
4.986984375E0,1.106538717E-2,-8.944812417E-2,-2.768092230E-2
4.990954687E0,1.059414819E-2,-8.192575723E-2,-3.216641769E-2
4.994926562E0,7.470009383E-3,-7.136651129E-2,-3.694862127E-2
4.998896875E0,4.398229532E-3,-6.379178166E-2,-4.136430472E-2
5.002867187E0,-2.967059845E-4,-5.354670063E-2,-4.431391135E-2
5.006837500E0,-4.991641734E-3,-4.319689795E-2,-4.703662172E-2
5.010807812E0,-1.043706853E-2,-3.342305496E-2,-5.152212083E-2
5.014778125E0,-1.289798319E-2,-2.665117756E-2,-5.644394830E-2
5.018756250E0,-1.551597659E-2,-2.111848444E-2,-6.105161831E-2
5.022720312E0,-1.663298719E-2,-1.788962446E-2,-6.585127115E-2
5.026690625E0,-1.663298719E-2,-1.521927118E-2,-6.951646507E-2
5.030660937E0,-1.527163107E-2,-1.363102160E-2,-7.379251719E-2
5.034631250E0,-1.417207345E-2,-1.366592757E-2,-7.730063051E-2
5.038601562E0,-1.176351868E-2,-1.518436428E-2,-8.063421398E-2
5.042571875E0,-1.115265395E-2,-1.572541706E-2,-8.330456167E-2
5.046543750E0,-9.930923581E-3,-1.647590846E-2,-8.670795709E-2
5.050518750E0,-7.051130291E-3,-1.698205434E-2,-8.775515109E-2
5.054484375E0,-7.051130291E-3,-1.919862255E-2,-8.951793611E-2
5.058462500E0,-6.161012221E-3,-2.204350755E-2,-9.105382860E-2
5.062425000E0,-7.731808349E-3,-2.488839440E-2,-9.189158678E-2
5.066395312E0,-9.634217247E-3,-2.986258268E-2,-9.196139872E-2
5.070365625E0,-1.164134592E-2,-3.370230645E-2,-9.182177484E-2
5.074335937E0,-1.411971357E-2,-3.937462717E-2,-9.150761366E-2
5.078307812E0,-1.778490469E-2,-4.492477328E-2,-9.019861370E-2
5.082278125E0,-2.038544603E-2,-5.028293654E-2,-8.911651373E-2
5.086248437E0,-2.438225038E-2,-5.588544160E-2,-8.868017793E-2
5.090218750E0,-2.829178795E-2,-6.126105785E-2,-8.857546002E-2
5.094189062E0,-3.275983036E-2,-6.522295624E-2,-8.974482864E-2
5.098165625E0,-3.920009360E-2,-6.927211583E-2,-9.004153311E-2
5.102134375E0,-4.553563893E-2,-7.138396800E-2,-9.194394201E-2
5.106100000E0,-5.126031861E-2,-7.403686643E-2,-9.393361956E-2
5.110076562E0,-5.681046844E-2,-7.668976486E-2,-9.566149861E-2
5.114042187E0,-6.037093699E-2,-7.934267074E-2,-9.625490755E-2
5.118012500E0,-6.386159360E-2,-8.288568258E-2,-9.836675972E-2
5.121982812E0,-6.613052636E-2,-8.560840040E-2,-9.892526269E-2
5.125953125E0,-6.445501000E-2,-8.827875555E-2,-9.711012244E-2
5.129923437E0,-6.311110407E-2,-9.229300916E-2,-9.377653897E-2
5.133898437E0,-6.216862798E-2,-9.484118968E-2,-9.094911069E-2
5.137873437E0,-6.162757427E-2,-9.670869261E-2,-8.765043318E-2
5.141835937E0,-5.996951461E-2,-9.915215522E-2,-8.559094369E-2
5.145806250E0,-5.923647434E-2,-9.950122237E-2,-8.325220644E-2
5.149776562E0,-5.965535343E-2,-9.943141043E-2,-8.082620054E-2
5.153746875E0,-6.051056460E-2,-9.836675972E-2,-7.717845589E-2
5.157717187E0,-6.314601004E-2,-9.536478668E-2,-7.532840967E-2
5.161687500E0,-6.487388909E-2,-9.143780172E-2,-7.365289330E-2
5.165657812E0,-6.578145921E-2,-8.318239450E-2,-7.290240377E-2
5.169628125E0,-6.723008305E-2,-7.440338284E-2,-7.195992768E-2
5.173600000E0,-7.075564563E-2,-6.714281440E-2,-7.185520232E-2
5.177568750E0,-7.559020817E-2,-6.255260110E-2,-7.379251719E-2
5.181540625E0,-7.702138275E-2,-5.743878707E-2,-7.490953058E-2
5.185510937E0,-7.784168422E-2,-5.427974090E-2,-7.639306039E-2
5.189487500E0,-7.834783196E-2,-5.572836101E-2,-7.963937521E-2
5.193453125E0,-7.321656495E-2,-6.483898312E-2,-8.183848858E-2
5.197470312E0,-6.885323673E-2,-7.384487987E-2,-8.632398397E-2
5.201392187E0,-6.621779501E-2,-8.040732145E-2,-9.051277488E-2
5.205364062E0,-6.524040550E-2,-8.616690338E-2,-9.566149861E-2
5.209334375E0,-6.438519806E-2,-9.189158678E-2,-1.001819000E-1
5.213304687E0,-6.354743987E-2,-9.639453143E-2,-1.036027446E-1
5.217282812E0,-6.136577576E-2,-1.041961536E-1,-1.087165624E-1
5.221245312E0,-5.991715193E-2,-1.092401594E-1,-1.126086414E-1
5.225217187E0,-5.681046844E-2,-1.143016145E-1,-1.149822921E-1
5.229187500E0,-5.284857005E-2,-1.218065247E-1,-1.154535264E-1
5.233157812E0,-4.625122622E-2,-1.273741275E-1,-1.131671518E-1
5.237128125E0,-3.804817796E-2,-1.330464482E-1,-1.107585952E-1
5.241098437E0,-2.823942713E-2,-1.367814541E-1,-1.045626774E-1
5.245068750E0,-1.469567232E-2,-1.400103122E-1,-9.541714936E-2
5.249039062E0,1.029744279E-3,-1.404117346E-1,-8.400269598E-2
5.253012500E0,1.399754081E-2,-1.400626749E-1,-7.590436935E-2
5.256985937E0,3.213151172E-2,-1.413193047E-1,-6.792821735E-2
5.260951562E0,4.815363511E-2,-1.440594792E-1,-5.862560868E-2
5.264921875E0,6.633996218E-2,-1.492780149E-1,-4.881685972E-2
5.268892187E0,8.581783623E-2,-1.542696506E-1,-4.022983834E-2
5.272862500E0,1.047546640E-1,-1.546536237E-1,-3.274237737E-2
5.276834375E0,1.254891753E-1,-1.529606581E-1,-2.551671304E-2
5.280803125E0,1.428028345E-1,-1.494874507E-1,-1.881464943E-2
5.284775000E0,1.611462533E-1,-1.472359747E-1,-1.073377486E-2
5.288745312E0,1.803972274E-1,-1.452986598E-1,-3.508111695E-3
5.292715625E0,1.962448210E-1,-1.456826329E-1,2.251474652E-3
5.296692187E0,2.143787891E-1,-1.524195969E-1,1.024508290E-2
5.300662500E0,2.286032289E-1,-1.612509638E-1,1.443387289E-2
5.304626562E0,2.431418151E-1,-1.697158217E-1,1.912880875E-2
5.308596875E0,2.571568191E-1,-1.805194020E-1,2.518510073E-2
5.312568750E0,2.718175650E-1,-1.898045540E-1,3.127630055E-2
5.316537500E0,2.872113883E-1,-1.998925656E-1,3.752457723E-2
5.320509375E0,3.002664447E-1,-2.062979192E-1,4.352851212E-2
5.324479687E0,3.119426966E-1,-2.075196505E-1,5.351179466E-2
5.328450000E0,3.241774440E-1,-2.021265775E-1,6.499606371E-2
5.332421875E0,3.335324228E-1,-1.918291301E-1,7.733553648E-2
5.336398437E0,3.463605940E-1,-1.761909872E-1,9.047786891E-2
5.340360937E0,3.567802012E-1,-1.591740251E-1,1.020319462E-1
5.344332812E0,3.685262799E-1,-1.383347958E-1,1.139350906E-1
5.348301562E0,3.830299675E-1,-1.143714264E-1,1.254717261E-1
5.352273437E0,3.977954388E-1,-8.857546002E-2,1.352455616E-1
5.356243750E0,4.174652994E-1,-5.895722285E-2,1.450194120E-1
5.360214062E0,4.367337227E-1,-3.014183603E-2,1.531351954E-1
5.364184375E0,4.602607787E-1,2.094395168E-4,1.626297832E-1
5.368156250E0,4.920083284E-1,2.907718532E-2,1.732413769E-1
5.372126562E0,5.215044022E-1,4.712389037E-2,1.829279512E-1
5.376095312E0,5.586973429E-1,6.508332491E-2,1.937315464E-1
5.380067187E0,5.974436402E-1,7.955210656E-2,2.067866027E-1
5.384037500E0,6.376560330E-1,9.414306283E-2,2.199638486E-1
5.388007812E0,6.732956767E-1,1.079137102E-1,2.328967303E-1
5.391979687E0,7.060555220E-1,1.199041158E-1,2.475575060E-1
5.395950000E0,7.379426360E-1,1.296779662E-1,2.610139847E-1
5.399920312E0,7.623597980E-1,1.343205422E-1,2.771582901E-1
5.403890625E0,7.845255136E-1,1.380904466E-1,2.980673313E-1
5.407860937E0,7.993433475E-1,1.389282048E-1,3.177022934E-1
5.411831250E0,8.074241877E-1,1.432042718E-1,3.348414302E-1
5.415801562E0,8.110370636E-1,1.482308060E-1,3.563264310E-1
5.419771875E0,8.083667159E-1,1.533097178E-1,3.741113245E-1
5.423743750E0,8.013504744E-1,1.656142920E-1,3.926118016E-1
5.427714062E0,7.903199792E-1,1.801179796E-1,4.085815847E-1
5.431684375E0,7.787309885E-1,1.972920150E-1,4.185997546E-1
5.435654687E0,7.606493831E-1,2.195449620E-1,4.276929200E-1
5.439625000E0,7.432833910E-1,2.388832122E-1,4.353374839E-1
5.443595312E0,7.226710320E-1,2.586752474E-1,4.392819107E-1
5.447567187E0,7.011511326E-1,2.779960334E-1,4.377460182E-1
5.451537500E0,6.909060478E-1,2.980847955E-1,4.379554689E-1
5.455506250E0,6.752678752E-1,3.162711263E-1,4.307821691E-1
5.459478125E0,6.645690203E-1,3.270398080E-1,4.242371917E-1
5.463448437E0,6.523168087E-1,3.372150660E-1,4.207290709E-1
5.467418750E0,6.382669210E-1,3.511602581E-1,4.202578366E-1
5.471390625E0,6.219655275E-1,3.635171652E-1,4.207465351E-1
5.475359375E0,6.014578938E-1,3.724707067E-1,4.202752709E-1
5.479329687E0,5.867622495E-1,3.742160499E-1,4.186346829E-1
5.483301562E0,5.719618201E-1,3.696956336E-1,4.155105352E-1
5.487271875E0,5.574058294E-1,3.647389114E-1,4.092797041E-1
5.491242187E0,5.457819104E-1,3.628539443E-1,4.020715058E-1
5.495212500E0,5.320636034E-1,3.605501056E-1,3.931353986E-1
5.499182812E0,5.202128291E-1,3.613006175E-1,3.826634288E-1
5.503153125E0,5.067389011E-1,3.651054204E-1,3.691022396E-1
5.507123437E0,4.953942597E-1,3.725754321E-1,3.539702296E-1
5.511095312E0,4.826533496E-1,3.826634288E-1,3.370928764E-1
5.515064062E0,4.716577828E-1,3.923674822E-1,3.159744143E-1
5.519035937E0,4.648684561E-1,4.027172625E-1,2.960078418E-1
5.523006250E0,4.561766982E-1,4.157897830E-1,2.719921172E-1
5.526976562E0,4.471358955E-1,4.324576855E-1,2.502104044E-1
5.530948437E0,4.380078316E-1,4.483925402E-1,2.304009199E-1
5.534923437E0,4.246385992E-1,4.709072709E-1,2.073102146E-1
5.538887500E0,4.115137160E-1,4.888318181E-1,1.872912794E-1
5.542859375E0,3.930656016E-1,5.076464415E-1,1.638689637E-1
5.546828125E0,3.701668680E-1,5.220454335E-1,1.411971301E-1
5.550800000E0,3.464478552E-1,5.379802585E-1,1.167625263E-1
5.554770312E0,3.179640770E-1,5.546307564E-1,9.053023160E-2
5.558740625E0,2.926393449E-1,5.714731812E-1,6.698573381E-2
5.562710937E0,2.681174874E-1,5.928534269E-1,4.548327997E-2
5.566681250E0,2.477145791E-1,6.195220947E-1,2.572615258E-2
5.570653125E0,2.344151735E-1,6.529451013E-1,8.691739291E-3
5.574623437E0,2.235766798E-1,6.987076402E-1,-1.333431527E-2
5.578593750E0,2.184977680E-1,7.427074313E-1,-3.520328924E-2
5.582564062E0,2.198765725E-1,7.875798345E-1,-5.925392732E-2
5.586534375E0,2.236988544E-1,8.312305212E-1,-8.450884372E-2
5.590504687E0,2.299645841E-1,8.713556528E-1,-1.117185280E-1
5.594475000E0,2.377662063E-1,9.034871459E-1,-1.404815465E-1
5.598446875E0,2.443286479E-1,9.203121066E-1,-1.653001308E-1
5.602417187E0,2.474004179E-1,9.185318947E-1,-1.895253062E-1
5.606387500E0,2.444333583E-1,8.965407014E-1,-2.114989907E-1
5.610357812E0,2.371902466E-1,8.691041470E-1,-2.268753499E-1
5.614337500E0,2.240130156E-1,8.231321573E-1,-2.445729822E-1
5.618298437E0,2.098933011E-1,7.796734571E-1,-2.609267235E-1
5.622268750E0,1.891936958E-1,7.289018631E-1,-2.796366513E-1
5.626240625E0,1.649685204E-1,6.769608259E-1,-3.016801476E-1
5.630210937E0,1.451241225E-1,6.400995255E-1,-3.197792172E-1
5.634181250E0,1.233773232E-1,5.999220014E-1,-3.430095613E-1
5.638151562E0,1.089609042E-1,5.697278380E-1,-3.627666831E-1
5.642121875E0,1.010022014E-1,5.436525941E-1,-3.843215108E-1
5.646092187E0,1.008800268E-1,5.205793381E-1,-4.034852087E-1
5.650062500E0,1.107760444E-1,5.011712909E-1,-4.181285203E-1
5.654042187E0,1.345823407E-1,4.768588543E-1,-4.342728257E-1
5.658004687E0,1.617222130E-1,4.540997744E-1,-4.479736686E-1
5.661975000E0,1.927367151E-1,4.374667704E-1,-4.631405771E-1
5.665943750E0,2.137853801E-1,4.323704243E-1,-4.798957407E-1
5.669915625E0,2.164208293E-1,4.438372254E-1,-4.959876537E-1
5.673885937E0,1.876228899E-1,4.746597409E-1,-5.110324025E-1
5.677856250E0,1.394343525E-1,5.122366548E-1,-5.205270052E-1
5.681828125E0,6.729989499E-2,5.510877371E-1,-5.278224945E-1
5.685796875E0,-1.373574138E-2,5.773374438E-1,-5.306324363E-1
5.689768750E0,-8.887216449E-2,5.882457495E-1,-5.253440738E-1
5.693745312E0,-1.646194607E-1,5.856626630E-1,-5.077162981E-1
5.697709375E0,-2.125461996E-1,5.749114752E-1,-4.848873615E-1
5.701679687E0,-2.373996824E-1,5.537406206E-1,-4.530525804E-1
5.705650000E0,-2.355845422E-1,5.316447616E-1,-4.192979038E-1
5.709620312E0,-2.101201862E-1,5.087285638E-1,-3.867300451E-1
5.713590625E0,-1.608844548E-1,4.858996570E-1,-3.521899879E-1
5.717562500E0,-1.043706909E-1,4.608367383E-1,-3.174404800E-1
5.721532812E0,-3.262020275E-2,4.255636334E-1,-2.755700350E-1
5.725503125E0,5.218534544E-2,3.781081140E-1,-2.300169468E-1
5.729473437E0,1.238485649E-1,3.390825689E-1,-1.967509687E-1
5.733443750E0,2.082875967E-1,2.960951030E-1,-1.641656756E-1
5.737415625E0,2.856929302E-1,2.591639459E-1,-1.330988109E-1
5.741385937E0,3.706032038E-1,2.191260904E-1,-9.641198814E-2
5.745354687E0,4.475896955E-1,1.800481677E-1,-5.368632823E-2
5.749326562E0,5.124810338E-1,1.459618807E-1,-9.756390937E-3
5.753296875E0,5.757841468E-1,1.156804189E-1,3.721041977E-2
5.757267187E0,6.211975813E-1,9.889035672E-2,7.281513512E-2
5.761237500E0,6.473426223E-1,9.948376566E-2,8.768533915E-2
5.765214062E0,6.532418132E-1,1.133416817E-1,7.965682447E-2
5.769178125E0,6.404834986E-1,1.372701526E-1,5.497787148E-2
5.773148437E0,6.088581085E-1,1.861044616E-1,1.317723561E-2
5.777120312E0,5.745623708E-1,2.435607016E-1,-3.038618155E-2
5.781112500E0,5.383816957E-1,3.136007488E-1,-8.117526025E-2
5.785060937E0,4.974537492E-1,3.952996135E-1,-1.360135078E-1
5.789031250E0,4.527907670E-1,4.731587470E-1,-1.761735380E-1
5.793001562E0,3.961373866E-1,5.475272536E-1,-2.051809132E-1
5.796971875E0,3.440218568E-1,6.075665355E-1,-2.168048024E-1
5.800943750E0,2.857452929E-1,6.658082008E-1,-2.052507252E-1
5.804912500E0,2.289697379E-1,7.126179338E-1,-1.692620367E-1
5.808884375E0,1.731017530E-1,7.422885299E-1,-1.132195070E-1
5.812862500E0,1.133591309E-1,7.453777790E-1,-1.733111963E-2
5.816834375E0,7.278022915E-2,7.225488424E-1,8.052948862E-2
5.820795312E0,4.218460619E-2,6.585127115E-1,2.124240249E-1
5.824767187E0,2.427753061E-2,5.682966709E-1,3.874630928E-1
5.828735937E0,2.153736353E-2,4.904375076E-1,5.571265221E-1
5.832707812E0,4.010766745E-2,4.003087282E-1,7.669674754E-1
5.836678125E0,7.820820063E-2,3.162711263E-1,9.460557103E-1
5.840648437E0,1.388583928E-1,2.279923558E-1,1.110291243E0
5.844618750E0,2.185326815E-1,1.378286481E-1,1.244384885E0
5.848596875E0,2.817659676E-1,6.749188155E-2,1.316536784E0
5.852559375E0,3.518409133E-1,-1.778490469E-2,1.358197808E0
5.856531250E0,4.057890475E-1,-1.002342552E-1,1.369664550E0
5.860501562E0,4.394564629E-1,-1.849874407E-1,1.359698772E0
5.864470312E0,4.403989315E-1,-2.486570626E-1,1.340814233E0
5.868442187E0,4.110075831E-1,-2.929185927E-1,1.319800496E0
5.872412500E0,3.497465253E-1,-3.244916201E-1,1.292643189E0
5.876382812E0,2.811900079E-1,-3.374070525E-1,1.266882181E0
5.880354687E0,1.927716136E-1,-3.309842348E-1,1.233703375E0
5.884329687E0,1.026602685E-1,-3.071779609E-1,1.189511657E0
5.888320312E0,1.930334233E-2,-2.722190022E-1,1.130606890E0
5.892268750E0,-4.839798063E-2,-2.278527319E-1,1.047162652E0
5.896235937E0,-7.988371700E-2,-1.916022450E-1,9.643118382E-1
5.900206250E0,-8.028514683E-2,-1.526639462E-1,8.524187803E-1
5.904176562E0,-4.965461791E-2,-1.212480217E-1,7.332826257E-1
5.908146875E0,8.133234456E-3,-1.005833223E-1,6.273236871E-1
5.912118750E0,8.162904531E-2,-8.480554819E-2,5.230402946E-1
5.916089062E0,1.540951133E-1,-7.452555746E-2,4.386535883E-1
5.920059375E0,2.238733768E-1,-6.822492182E-2,3.663795292E-1
5.924029687E0,2.759540081E-1,-6.553710997E-2,3.124313951E-1
5.928000000E0,3.057816923E-1,-6.859143823E-2,2.828829587E-1
5.931970312E0,3.188192844E-1,-7.630579174E-2,2.711019814E-1
5.935942187E0,3.171088696E-1,-8.901178837E-2,2.755700350E-1
5.939912500E0,3.023608327E-1,-1.112821922E-1,2.950828075E-1
5.943881250E0,2.823942602E-1,-1.402895600E-1,3.262543976E-1
5.947853125E0,2.559700012E-1,-1.764353365E-1,3.644421995E-1
5.951823437E0,2.258979678E-1,-2.243969738E-1,4.171685874E-1
5.955793750E0,1.980250627E-1,-2.713986933E-1,4.735252857E-1
5.959764062E0,1.597674340E-1,-3.218736053E-1,5.356240869E-1
5.963734375E0,1.124515608E-1,-3.719122112E-1,5.994158983E-1
5.967704687E0,6.955137104E-2,-4.113217294E-1,6.473426223E-1
5.971676562E0,1.111774705E-2,-4.516912103E-1,6.961245537E-1
5.975646875E0,-4.927064478E-2,-4.839099944E-1,7.339807749E-1
5.979617187E0,-1.148252115E-1,-5.034402013E-1,7.670198679E-1
5.983587500E0,-1.832944751E-1,-5.136678219E-1,7.926762104E-1
5.987557812E0,-2.515543103E-1,-5.104564428E-1,8.079303503E-1
5.991528125E0,-3.176848292E-1,-4.963716269E-1,8.147720695E-1
5.995498437E0,-3.739193380E-1,-4.788310826E-1,8.105309010E-1
5.999470312E0,-4.203276336E-1,-4.521449804E-1,7.955908775E-1
6.003439062E0,-4.551818669E-1,-4.230503440E-1,7.668452859E-1
6.007410937E0,-4.746422768E-1,-3.963468075E-1,7.320957780E-1
6.011381250E0,-4.783772826E-1,-3.743207753E-1,6.842039824E-1
6.015351562E0,-4.698600769E-1,-3.610562682E-1,6.395061016E-1
6.019321875E0,-4.485146999E-1,-3.520154655E-1,5.831494331E-1
6.023292187E0,-4.214097559E-1,-3.471110761E-1,5.198113918E-1
6.027262500E0,-3.991393447E-1,-3.492927551E-1,4.604004025E-1
6.031234375E0,-3.775321543E-1,-3.594854772E-1,3.940429986E-1
6.035204687E0,-3.616671264E-1,-3.769038618E-1,3.344225287E-1
6.039175000E0,-3.453308344E-1,-4.076216519E-1,2.699849904E-1
6.043145312E0,-3.293261826E-1,-4.448495209E-1,2.121971250E-1
6.047115625E0,-3.171786964E-1,-4.816585183E-1,1.611811519E-1
6.051087500E0,-3.060260415E-1,-5.234591365E-1,1.078264415E-1
6.055057812E0,-2.995159626E-1,-5.574058294E-1,6.606071442E-2
6.059028125E0,-2.943497896E-1,-5.904797912E-1,2.192133479E-2
6.062998437E0,-2.927091718E-1,-6.204994321E-1,-2.211332135E-2
6.066968750E0,-2.957285941E-1,-6.429094672E-1,-6.141813472E-2
6.070939062E0,-3.060085773E-1,-6.607990861E-1,-1.035852879E-1
6.074909375E0,-3.195174336E-1,-6.724055409E-1,-1.383871585E-1
6.078879687E0,-3.415609300E-1,-6.749711633E-1,-1.715134978E-1
6.082850000E0,-3.751585186E-1,-6.681120396E-1,-2.047096640E-1
6.086821875E0,-4.066617191E-1,-6.554933190E-1,-2.281145304E-1
6.090792187E0,-4.529478550E-1,-6.300638318E-1,-2.483603507E-1
6.094762500E0,-4.972093999E-1,-6.028192639E-1,-2.644697428E-1
6.098732812E0,-5.519603491E-1,-5.723807216E-1,-2.835811079E-1
6.102703125E0,-6.026970744E-1,-5.409299135E-1,-3.028669953E-1
6.106673437E0,-6.476742029E-1,-5.176995397E-1,-3.185749352E-1
6.110643750E0,-6.858969331E-1,-4.974886477E-1,-3.332182467E-1
6.114615625E0,-7.118325233E-1,-4.869294167E-1,-3.447025120E-1
6.118585937E0,-7.231073380E-1,-4.855505824E-1,-3.621383607E-1
6.122556250E0,-7.245385051E-1,-4.913625419E-1,-3.840073347E-1
6.126526562E0,-7.179760933E-1,-5.004033446E-1,-3.985982835E-1
6.130496875E0,-7.061776519E-1,-5.135980248E-1,-4.103792608E-1
6.134467187E0,-6.930179000E-1,-5.280318856E-1,-4.208163321E-1
6.138439062E0,-6.802595258E-1,-5.536009669E-1,-4.310614169E-1
6.142407812E0,-6.719517708E-1,-5.884377360E-1,-4.448844194E-1
6.146379687E0,-6.669251919E-1,-6.349856853E-1,-4.645717442E-1
6.150350000E0,-6.699795127E-1,-6.913772821E-1,-4.841892421E-1
6.154320312E0,-6.816034317E-1,-7.524463534E-1,-4.926191866E-1
6.158290625E0,-6.984981894E-1,-8.339881301E-1,-4.836830795E-1
6.162264062E0,-7.108900547E-1,-9.242216349E-1,-4.587597847E-1
6.166231250E0,-7.139793038E-1,-1.005414367E0,-4.181110859E-1
6.170203125E0,-6.962816715E-1,-1.080480933E0,-3.503050208E-1
6.174173437E0,-6.665238142E-1,-1.123852372E0,-2.708925605E-1
6.178143750E0,-6.214419603E-1,-1.138932109E0,-1.727177799E-1
6.182114062E0,-5.721712708E-1,-1.131235123E0,-5.895722285E-2
6.186084375E0,-5.213996768E-1,-1.097655058E0,5.131268129E-2
6.190101562E0,-4.727747738E-1,-1.035311818E0,1.609193534E-1
6.194025000E0,-4.339063168E-1,-9.568592906E-1,2.500358820E-1
6.197995312E0,-4.004483521E-1,-8.525933623E-1,3.272841275E-1
6.201965625E0,-3.673394322E-1,-7.248177528E-1,3.890164495E-1
6.205937500E0,-3.416831195E-1,-6.130643487E-1,4.222474992E-1
6.209907812E0,-3.079109788E-1,-4.908913076E-1,4.480609298E-1
6.213878125E0,-2.721841037E-1,-3.927863538E-1,4.770508409E-1
6.217848437E0,-2.225294858E-1,-3.131644130E-1,5.162160397E-1
6.221818750E0,-1.666440368E-1,-2.757969201E-1,5.510178804E-1
6.225790625E0,-1.240754575E-1,-2.845759392E-1,5.581388474E-1
6.229760937E0,-8.211774379E-2,-3.530975580E-1,5.247855783E-1
6.233731250E0,-4.769985005E-2,-4.583060145E-1,4.681845605E-1
6.237701562E0,-1.600466855E-2,-6.064320803E-1,3.966784179E-1
6.241671875E0,1.137954649E-2,-7.539822459E-1,3.275808394E-1
6.245642187E0,3.326597437E-2,-8.783892989E-1,2.737374306E-1
6.249612500E0,3.644247353E-2,-9.697398543E-1,2.346944213E-1
6.253584375E0,1.633628085E-2,-1.010074377E0,2.099456489E-1
6.257553125E0,-9.546951391E-3,-1.041926622E0,1.797165573E-1
6.261523437E0,-2.804744057E-2,-1.069974065E0,1.299921274E-1
6.265495312E0,-3.752457723E-2,-1.076257229E0,5.489060655E-2
6.269465625E0,-4.016002640E-2,-1.059065819E0,-5.815437064E-2
6.273435937E0,-3.120648675E-2,-1.028522491E0,-1.729097664E-1
6.277406250E0,-2.391101094E-3,-9.916611910E-1,-3.082600534E-1
6.281376562E0,3.914773464E-2,-9.568942189E-1,-4.464552104E-1
6.285348437E0,8.248426020E-2,-9.255655408E-1,-5.673542023E-1
6.289318750E0,1.333955079E-1,-8.927010298E-1,-6.775019169E-1
6.293287500E0,1.740616858E-1,-8.627685905E-1,-7.459711432E-1
6.297259375E0,1.967509687E-1,-8.146673441E-1,-7.752578259E-1
6.301229687E0,1.866804212E-1,-7.367383838E-1,-7.675259709E-1
6.305200000E0,1.472010612E-1,-6.571339369E-1,-7.352548242E-1
6.309171875E0,8.119271696E-2,-5.901132822E-1,-6.840643287E-1
6.313142187E0,2.089159191E-2,-5.688377023E-1,-6.357710958E-1
6.317110937E0,-2.371902391E-2,-6.210579872E-1,-6.025574803E-1
6.321082812E0,-4.183554277E-2,-7.471754551E-1,-5.920680165E-1
6.325053125E0,-4.036946595E-2,-8.818799853E-1,-6.017022729E-1
6.329023437E0,-3.471459821E-2,-1.048489094E0,-6.331007481E-1
6.332993750E0,-3.232349828E-2,-1.191972613E0,-6.750235558E-1
6.336964062E0,-3.967133537E-2,-1.312348008E0,-7.285527587E-1
6.340934375E0,-6.312856078E-2,-1.374935508E0,-7.810872197E-1
6.344906250E0,-9.707520902E-2,-1.368809342E0,-8.242492080E-1
6.348876562E0,-1.510757059E-1,-1.313290477E0,-8.635190725E-1
6.352846875E0,-2.101899981E-1,-1.249097228E0,-8.906065822E-1
6.356817187E0,-2.739119828E-1,-1.201920986E0,-9.178512096E-1
6.360787500E0,-3.247359693E-1,-1.194119334E0,-9.409070015E-1
6.364757812E0,-3.597996235E-1,-1.225203633E0,-9.616589546E-1
6.368729687E0,-3.925594687E-1,-1.289920449E0,-9.777858257E-1
6.372698437E0,-4.248829484E-1,-1.360571384E0,-9.800198078E-1
6.376668750E0,-4.659505486E-1,-1.425811768E0,-9.756390452E-1
6.380640625E0,-5.211029649E-1,-1.475204587E0,-9.573305249E-1
6.384610937E0,-5.797110796E-1,-1.508837104E0,-9.319360256E-1
6.388581250E0,-6.418274045E-1,-1.536570430E0,-9.064890742E-1
6.392551562E0,-6.857573390E-1,-1.560952663E0,-8.843583465E-1
6.396521875E0,-7.078880668E-1,-1.592141747E0,-8.581260443E-1
6.400493750E0,-6.986203790E-1,-1.629928112E0,-8.316842914E-1
6.404464062E0,-6.627713442E-1,-1.674835443E0,-8.108101487E-1
6.408434375E0,-5.893104076E-1,-1.740756512E0,-7.939153910E-1
6.412404687E0,-5.228483081E-1,-1.798596740E0,-7.749261856E-1
6.416375000E0,-4.537506998E-1,-1.854621768E0,-7.403337359E-1
6.420345312E0,-3.924896419E-1,-1.891099095E0,-6.957755089E-1
6.424315625E0,-3.599741459E-1,-1.892338276E0,-6.465222836E-1
6.428287500E0,-3.532895446E-1,-1.856803417E0,-5.787512064E-1
6.432256250E0,-3.610562682E-1,-1.828965425E0,-5.121493936E-1
6.436228125E0,-3.641280532E-1,-1.841915727E0,-4.482529163E-1
6.440198437E0,-4.255636334E-1,-1.769502044E0,-3.940778971E-1
6.444185937E0,-4.529652894E-1,-1.733478427E0,-3.888418972E-1
6.448139062E0,-4.282165170E-1,-1.783167958E0,-3.867649734E-1
6.452109375E0,-3.786666393E-1,-1.873453856E0,-3.842691481E-1
6.456079687E0,-3.235491216E-1,-1.965537429E0,-3.721914589E-1
6.460050000E0,-2.941054404E-1,-2.019537926E0,-3.455402851E-1
6.464021875E0,-2.999697328E-1,-2.030725479E0,-3.146479428E-1
6.467992187E0,-3.448596001E-1,-2.016483545E0,-2.790606916E-1
6.471962500E0,-4.053701758E-1,-1.994230628E0,-2.482381761E-1
6.475932812E0,-4.917116165E-1,-1.966898799E0,-2.203478217E-1
6.479903125E0,-5.826258063E-1,-1.920054197E0,-1.955990493E-1
6.483875000E0,-6.656162143E-1,-1.857553959E0,-1.715484113E-1
6.487845312E0,-7.540869713E-1,-1.782382607E0,-1.472010612E-1
6.491814062E0,-8.185768723E-1,-1.722605109E0,-1.277581006E-1
6.495785937E0,-8.799251914E-1,-1.651482940E0,-1.082453206E-1
6.499756250E0,-9.323897958E-1,-1.579138994E0,-8.313003182E-2
6.503726562E0,-9.689195156E-1,-1.515766144E0,-6.197664142E-2
6.507696875E0,-9.852383733E-1,-1.463685513E0,-4.667010531E-2
6.511667187E0,-9.908233881E-1,-1.435062051E0,-3.246312216E-2
6.515637500E0,-9.958848953E-1,-1.404745698E0,-9.494591504E-3
6.519610937E0,-9.964608550E-1,-1.371374965E0,1.532399096E-2
6.523579687E0,-9.907361269E-1,-1.347795606E0,2.631956525E-2
6.527550000E0,-9.847147465E-1,-1.320411444E0,1.925098151E-2
6.531520312E0,-9.818175435E-1,-1.288908243E0,-2.600540640E-3
6.535490625E0,-9.799849391E-1,-1.237508297E0,-3.930481523E-2
6.539460937E0,-9.780126810E-1,-1.168951750E0,-8.759807795E-2
6.543432812E0,-9.726894498E-1,-1.097986579E0,-1.391551048E-1
6.547409375E0,-9.619556665E-1,-1.010231495E0,-2.051285505E-1
6.551373437E0,-9.469807148E-1,-9.305921197E-1,-2.664419711E-1
6.555343750E0,-9.256179333E-1,-8.398524523E-1,-3.321012557E-1
6.559314062E0,-9.015148878E-1,-7.392342091E-1,-4.029790759E-1
6.563284375E0,-8.794364929E-1,-6.708347201E-1,-4.596848190E-1
6.567254687E0,-8.489804864E-1,-6.197314858E-1,-5.248903036E-1
6.571225000E0,-8.186118007E-1,-5.984210372E-1,-5.806012154E-1
6.575196875E0,-7.824136615E-1,-6.003932357E-1,-6.322804093E-1
6.579167187E0,-7.443305850E-1,-6.197489500E-1,-6.813241839E-1
6.583137500E0,-7.098951936E-1,-6.425604224E-1,-7.207162380E-1
6.587115625E0,-6.742556095E-1,-6.692814231E-1,-7.627612352E-1
6.591078125E0,-6.466096044E-1,-6.932622194E-1,-7.990117073E-1
6.595048437E0,-6.205866933E-1,-7.243465185E-1,-8.318064809E-1
6.599018750E0,-5.972341895E-1,-7.604573965E-1,-8.585623503E-1
6.602990625E0,-5.735501051E-1,-8.043175340E-1,-8.778831363E-1
6.606960937E0,-5.431290269E-1,-8.680046201E-1,-8.891056180E-1
6.610931250E0,-5.153433681E-1,-9.297717810E-1,-8.923170567E-1
6.614901562E0,-4.814490676E-1,-1.008468747E0,-8.887914419E-1
6.618871875E0,-4.430867434E-1,-1.093466282E0,-8.761378527E-1
6.622842187E0,-4.079532623E-1,-1.163942575E0,-8.568868637E-1
6.626814062E0,-3.707951903E-1,-1.234995008E0,-8.259596229E-1
6.630782812E0,-3.397283256E-1,-1.291456342E0,-7.894647717E-1
6.634754687E0,-3.114714622E-1,-1.340814233E0,-7.397577763E-1
6.638725000E0,-2.927789688E-1,-1.367849469E0,-6.825284362E-1
6.642695312E0,-2.858151197E-1,-1.367517829E0,-6.180909276E-1
6.646665625E0,-2.912256420E-1,-1.331319690E0,-5.368458033E-1
6.650635937E0,-3.021164834E-1,-1.273078084E0,-4.655316770E-1
6.654606250E0,-3.135483861E-1,-1.199966192E0,-3.929259777E-1
6.658578125E0,-3.236189485E-1,-1.122421265E0,-3.227462769E-1
6.662548437E0,-3.296926916E-1,-1.052573204E0,-2.683618367E-1
6.666517187E0,-3.321885169E-1,-9.691987634E-1,-2.174505740E-1
6.670489062E0,-3.308795094E-1,-8.896117806E-1,-1.815840602E-1
6.674459375E0,-3.201631904E-1,-7.954686880E-1,-1.517738253E-1
6.678429687E0,-2.935818434E-1,-6.787585616E-1,-1.263792962E-1
6.682400000E0,-2.590941191E-1,-5.847725868E-1,-1.092401594E-1
6.686370312E0,-2.013586313E-1,-4.851840734E-1,-9.391617030E-2
6.690340625E0,-1.436755061E-1,-4.134161472E-1,-8.121016622E-2
6.694312500E0,-8.091346174E-2,-3.661177158E-1,-6.614797562E-2
6.698282812E0,-2.839650773E-2,-3.330088258E-1,-4.822344705E-2
6.702253125E0,5.585053470E-3,-3.064798117E-1,-2.759365551E-2
6.706231250E0,2.078687213E-2,-2.815041542E-1,-3.246312495E-3
6.710193750E0,2.127556317E-2,-2.608394623E-1,1.918116771E-2
6.714165625E0,8.761553094E-3,-2.423564196E-1,4.401720315E-2
6.718135937E0,-1.240929123E-2,-2.343453616E-1,6.569419056E-2
6.722106250E0,-2.862340026E-2,-2.483603507E-1,8.489281684E-2
6.726076562E0,-3.813544288E-2,-2.908591330E-1,1.084024012E-1
6.730046875E0,-4.029965401E-2,-3.289247453E-1,1.335002333E-1
6.734017187E0,-2.914699912E-2,-3.494149148E-1,1.617222130E-1
6.737987500E0,-4.537856206E-3,-3.351730406E-1,1.879196018E-1
6.741959375E0,3.405137360E-2,-2.942799628E-1,2.079734355E-1
6.745934375E0,9.424778074E-2,-2.226516455E-1,2.300692946E-1
6.749900000E0,1.552644968E-1,-1.359611452E-1,2.504198253E-1
6.753870312E0,2.345198840E-1,-1.249655709E-2,2.772630155E-1
6.757840625E0,3.212976754E-1,1.377239376E-1,3.044377863E-1
6.761810937E0,4.132939577E-1,3.027099073E-1,3.309318721E-1
6.765781250E0,5.303183198E-1,4.960051179E-1,3.575656116E-1
6.769751562E0,6.431887150E-1,6.632251143E-1,3.785095513E-1
6.773723437E0,7.646811008E-1,8.223816752E-1,3.951076269E-1
6.777692187E0,8.970293999E-1,9.722356796E-1,4.110250473E-1
6.781664062E0,1.018766165E0,1.089347243E0,4.276754856E-1
6.785642187E0,1.157554746E0,1.200437427E0,4.523195326E-1
6.789604687E0,1.273235083E0,1.287930846E0,4.757592976E-1
6.793575000E0,1.404955149E0,1.386280060E0,5.038591027E-1
6.797545312E0,1.547740579E0,1.508592844E0,5.442809463E-1
6.801517187E0,1.656771183E0,1.616052747E0,5.829923153E-1
6.805485937E0,1.780741930E0,1.756481886E0,6.380749345E-1
6.809457812E0,1.885653734E0,1.884379625E0,7.066314220E-1
6.813428125E0,1.986010194E0,1.985765815E0,7.756766677E-1
6.817398437E0,2.070327044E0,2.063258410E0,8.415977359E-1
6.821368750E0,2.125409603E0,2.115653276E0,8.977450132E-1
6.825346875E0,2.152270317E0,2.159111977E0,9.578541517E-1
6.829309375E0,2.146493196E0,2.185797930E0,1.008730531E0
6.833281250E0,2.099386692E0,2.204036713E0,1.060549259E0
6.837251562E0,2.015576124E0,2.210459471E0,1.101931095E0
6.841221875E0,1.904939651E0,2.203233719E0,1.130903482E0
6.845192187E0,1.761194229E0,2.192919016E0,1.156228304E0
6.849162500E0,1.636385798E0,2.170072556E0,1.168707371E0
6.853132812E0,1.514439583E0,2.136579752E0,1.172424912E0
6.857103125E0,1.420855045E0,2.089735031E0,1.169911623E0
6.861073437E0,1.372544408E0,2.053135395E0,1.167747498E0
6.865043750E0,1.362962484E0,2.033325911E0,1.172442317E0
6.869015625E0,1.377047300E0,2.026082993E0,1.179999709E0
6.872985937E0,1.402703643E0,2.021946430E0,1.184694529E0
6.876956250E0,1.415584207E0,2.011526823E0,1.183053970E0
6.880928125E0,1.407520771E0,2.002643108E0,1.175706148E0
6.884896875E0,1.372596741E0,1.996848702E0,1.154081464E0
6.888868750E0,1.320289254E0,2.009624481E0,1.116382360E0
6.892839062E0,1.248102427E0,2.030585766E0,1.046691418E0
6.896814062E0,1.177591085E0,2.060448408E0,9.432283044E-1
6.900779687E0,1.117080569E0,2.107642174E0,8.154876232E-1
6.904756250E0,1.070567489E0,2.194297791E0,6.269746423E-1
6.908720312E0,1.048663616E0,2.303869486E0,4.423187971E-1
6.912692187E0,1.062765837E0,2.437718868E0,2.006255984E-1
6.916662500E0,1.144569516E0,2.552613735E0,-9.485864639E-2
6.920632812E0,1.257335186E0,2.610576153E0,-3.402693868E-1
6.924603125E0,1.414624214E0,2.599231482E0,-5.226039290E-1
6.928573437E0,1.584793806E0,2.495157480E0,-6.072000265E-1
6.932543750E0,1.808475256E0,2.299977541E0,-5.796238184E-1
6.936514062E0,1.976131558E0,2.150856495E0,-4.780282378E-1
6.940484375E0,2.042663574E0,2.086331606E0,-3.748094440E-1
6.944464062E0,2.014249563E0,2.066958427E0,-2.534916103E-1
6.948426562E0,1.927052975E0,2.093784332E0,-1.725956053E-1
6.952396875E0,1.752170920E0,2.173214197E0,-1.035329327E-1
6.956365625E0,1.533934951E0,2.270900249E0,-3.492403775E-2
6.960337500E0,1.309380889E0,2.333156109E0,3.454006463E-2
6.964307812E0,1.068769813E0,2.325180054E0,1.115439907E-1
6.968284375E0,8.729613423E-1,2.252626657E0,1.794896573E-1
6.972250000E0,6.871186495E-1,2.146109104E0,2.675764263E-1
6.976218750E0,5.110324025E-1,2.017216682E0,3.842691481E-1
6.980190625E0,3.672172725E-1,1.902984858E0,4.968428910E-1
6.984168750E0,2.286730409E-1,1.799696207E0,6.135355830E-1
6.988131250E0,1.276882887E-1,1.727771282E0,6.850941181E-1
6.992101562E0,2.958333120E-2,1.680228472E0,7.300712466E-1
6.996071875E0,-5.623450875E-2,1.668307900E0,7.623947263E-1
7.000042187E0,-1.237612963E-1,1.675009966E0,7.915940881E-1
7.004012500E0,-1.853190660E-1,1.681432724E0,8.214915991E-1
7.007984375E0,-2.343278974E-1,1.678291202E0,8.434303403E-1
7.011954687E0,-2.929884195E-1,1.664834619E0,8.637459874E-1
7.015925000E0,-3.492752910E-1,1.650173903E0,8.815483451E-1
7.019895312E0,-3.910410106E-1,1.643925667E0,8.895070553E-1
7.023873437E0,-4.210432172E-1,1.643663764E0,8.881282210E-1
7.027835937E0,-4.341332018E-1,1.645252109E0,8.797855377E-1
7.031807812E0,-4.328940213E-1,1.648829937E0,8.626987934E-1
7.035776562E0,-4.182507098E-1,1.649475813E0,8.377754688E-1
7.039760937E0,-3.947236538E-1,1.641517043E0,8.062897325E-1
7.043718750E0,-3.521725237E-1,1.616419196E0,7.544534802E-1
7.047689062E0,-2.984687686E-1,1.583816528E0,6.862809062E-1
7.051659375E0,-2.214124650E-1,1.545070171E0,5.898340344E-1
7.055629687E0,-1.333606094E-1,1.501070380E0,4.718497694E-1
7.059601562E0,-4.738568887E-2,1.455447555E0,3.570070863E-1
7.063571875E0,5.796238407E-2,1.398095965E0,2.243795246E-1
7.067543750E0,1.458397061E-1,1.345037937E0,1.147903055E-1
7.071512500E0,2.307150662E-1,1.291334152E0,1.026253588E-2
7.075482812E0,3.102497160E-1,1.232760906E0,-9.334021062E-2
7.079453125E0,3.759788275E-1,1.174152851E0,-1.888097227E-1
7.083423437E0,4.319689870E-1,1.101355076E0,-2.896024883E-1
7.087393750E0,4.626693428E-1,1.039762497E0,-3.723310828E-1
7.091365625E0,4.705407619E-1,9.827774167E-1,-4.572413564E-1
7.095334375E0,4.605225623E-1,9.291958213E-1,-5.394987464E-1
7.099306250E0,4.324925840E-1,8.828922510E-1,-6.215466261E-1
7.103284375E0,3.858748376E-1,8.271638751E-1,-7.174699306E-1
7.107246875E0,3.385066092E-1,7.712609768E-1,-7.920303941E-1
7.111217187E0,2.870019376E-1,7.065267563E-1,-8.591732383E-1
7.115187500E0,2.383247018E-1,6.500304341E-1,-9.169087410E-1
7.119157812E0,2.051809132E-1,6.112492085E-1,-9.603674412E-1
7.123129687E0,1.787566245E-1,5.767440200E-1,-1.008590817E0
7.127100000E0,1.620887220E-1,5.541943908E-1,-1.051124573E0
7.131070312E0,1.454208344E-1,5.368807316E-1,-1.090656281E0
7.135042187E0,1.257160604E-1,5.222897530E-1,-1.123258948E0
7.139010937E0,1.010196581E-1,5.076464415E-1,-1.147100210E0
7.142990625E0,5.529202893E-2,4.893903136E-1,-1.164483666E0
7.146953125E0,-8.726646047E-5,4.686732590E-1,-1.161918044E0
7.150923437E0,-7.627088577E-2,4.420395494E-1,-1.145895958E0
7.154892187E0,-1.765225977E-1,4.093495309E-1,-1.121845245E0
7.158864062E0,-2.641032338E-1,3.823143840E-1,-1.095246434E0
7.162834375E0,-3.629412055E-1,3.442662060E-1,-1.066640496E0
7.166804687E0,-4.309043288E-1,2.980673313E-1,-1.044719219E0
7.170776562E0,-4.767366946E-1,2.438748628E-1,-1.025311112E0
7.174745312E0,-5.070704818E-1,1.992816925E-1,-1.000684500E0
7.178715625E0,-5.241572857E-1,1.875007153E-1,-9.676454663E-1
7.182725000E0,-5.269498229E-1,2.244493365E-1,-9.129642844E-1
7.186659375E0,-5.157971382E-1,2.902482450E-1,-8.515810370E-1
7.190628125E0,-4.849048257E-1,3.972718418E-1,-7.743152976E-1
7.194598437E0,-4.361926913E-1,5.208062530E-1,-6.904696822E-1
7.198568750E0,-3.720169365E-1,6.395758986E-1,-6.052627563E-1
7.202539062E0,-2.857278585E-1,7.456918955E-1,-5.016075969E-1
7.206510937E0,-2.036101073E-1,7.964286208E-1,-4.020016789E-1
7.210481250E0,-1.149299294E-1,7.913148403E-1,-2.862165570E-1
7.214451562E0,-1.665044017E-2,7.238578796E-1,-1.694016606E-1
7.218421875E0,7.471754402E-2,6.143035293E-1,-6.520549953E-2
7.222398437E0,1.939584464E-1,4.376238585E-1,5.719443783E-2
7.226362500E0,3.123441339E-1,2.877349854E-1,1.647067219E-1
7.230332812E0,4.423013330E-1,1.819156706E-1,2.719397545E-1
7.234303125E0,5.533042550E-1,1.582315564E-1,3.653846681E-1
7.238275000E0,6.333974600E-1,2.155656219E-1,4.383569062E-1
7.242245312E0,6.895272136E-1,3.510031700E-1,5.103691816E-1
7.246215625E0,7.101744413E-1,4.969999492E-1,5.693438649E-1
7.250185937E0,6.964561939E-1,6.467317343E-1,6.158743501E-1
7.254156250E0,6.528055072E-1,7.745596766E-1,6.372197270E-1
7.258126562E0,5.795889497E-1,8.492423296E-1,6.326818466E-1
7.262096875E0,4.606971145E-1,8.766963482E-1,5.987002850E-1
7.266067187E0,3.418751061E-1,8.573580980E-1,5.502324700E-1
7.270039062E0,2.090555429E-1,7.979819775E-1,4.844684899E-1
7.274009375E0,5.047492310E-2,6.996675730E-1,3.854385018E-1
7.277979687E0,-7.246606797E-2,6.034301519E-1,2.878047824E-1
7.281950000E0,-2.158623189E-1,4.926715493E-1,1.703441292E-1
7.285920312E0,-3.400076032E-1,4.055097997E-1,7.646287233E-2
7.289890625E0,-4.530176520E-1,3.558202684E-1,1.588249579E-3
7.293868750E0,-5.537406206E-1,3.463256955E-1,-5.857324973E-2
7.297832812E0,-6.461907029E-1,3.771132827E-1,-1.192408949E-1
7.301809375E0,-7.345916033E-1,4.447622597E-1,-1.963146329E-1
7.305773437E0,-7.982786894E-1,5.130046010E-1,-2.617470324E-1
7.309743750E0,-8.475667834E-1,5.920854807E-1,-3.242647350E-1
7.313714062E0,-8.754746318E-1,6.691592336E-1,-3.680026829E-1
7.317684375E0,-8.777784109E-1,7.318339944E-1,-3.799930811E-1
7.321656250E0,-8.502371311E-1,7.938106656E-1,-3.634124696E-1
7.325626562E0,-8.010537624E-1,8.319635391E-1,-3.197966814E-1
7.329596875E0,-7.175223231E-1,8.178961873E-1,-2.357590795E-1
7.333573437E0,-6.145304441E-1,7.393389344E-1,-1.226966456E-1
7.337537500E0,-5.087983608E-1,6.183352470E-1,1.778490469E-2
7.341507812E0,-4.199436605E-1,4.568573833E-1,2.264564633E-1
7.345478125E0,-3.711791635E-1,3.276855648E-1,4.258777797E-1
7.349450000E0,-3.414736688E-1,2.292490005E-1,6.468015909E-1
7.353418750E0,-3.260624111E-1,1.698903441E-1,8.395033479E-1
7.357390625E0,-3.145257831E-1,1.165181771E-1,9.789726138E-1
7.361360937E0,-2.829527855E-1,4.029965401E-2,1.093152046E0
7.365335937E0,-2.333156168E-1,-3.738495335E-2,1.171552300E0
7.369301562E0,-1.618269235E-1,-1.268679798E-1,1.235466242E0
7.373271875E0,-8.396779001E-2,-2.152863592E-1,1.269343019E0
7.377242187E0,-2.467895485E-2,-2.971422970E-1,1.248242021E0
7.381218750E0,4.921828397E-3,-4.021762311E-1,1.150922418E0
7.385189062E0,9.930923581E-3,-5.000193715E-1,1.041193604E0
7.389154687E0,3.089232836E-3,-6.165899038E-1,9.013578296E-1
7.393125000E0,1.104793418E-2,-7.582582831E-1,7.346614599E-1
7.397095312E0,1.226966456E-2,-8.264831901E-1,5.949827433E-1
7.401065625E0,-1.296779606E-2,-7.846476436E-1,4.306599796E-1
7.405037500E0,-5.059709400E-2,-6.659129262E-1,2.606125772E-1
7.409007812E0,-6.663667411E-2,-5.033704042E-1,3.152064607E-2
7.412978125E0,-4.040437192E-2,-3.489087820E-1,-2.348515093E-1
7.416948437E0,2.438225038E-2,-2.180439830E-1,-4.947135746E-1
7.420925000E0,1.406211704E-1,-6.759659946E-2,-8.049284220E-1
7.424889062E0,2.822895646E-1,3.942698613E-2,-1.062765837E0
7.428859375E0,4.642226696E-1,1.061858311E-1,-1.310323358E0
7.432831250E0,6.569768190E-1,1.040739864E-1,-1.512223125E0
7.436801562E0,8.402712941E-1,-5.096361507E-3,-1.657992959E0
7.440771875E0,1.024211526E0,-2.384992391E-1,-1.776989460E0
7.444742187E0,1.139193892E0,-5.033878684E-1,-1.844167233E0
7.448712500E0,1.169824362E0,-8.144578934E-1,-1.857326984E0
7.452682812E0,1.104880691E0,-1.097026706E0,-1.826993227E0
7.456653125E0,9.602103233E-1,-1.347411633E0,-1.764318466E0
7.460623437E0,7.079753280E-1,-1.620311260E0,-1.657050490E0
7.464593750E0,4.457745552E-1,-1.818022251E0,-1.549852371E0
7.468564062E0,1.366069168E-1,-1.938484788E0,-1.432391763E0
7.472535937E0,-2.028072625E-1,-1.979866624E0,-1.294842362E0
7.476506250E0,-5.170537829E-1,-1.952971101E0,-1.143382668E0
7.480476562E0,-8.102691174E-1,-1.898499370E0,-9.927781820E-1
7.484446875E0,-1.004768610E0,-1.845738053E0,-8.751953244E-1
7.488417187E0,-1.126034021E0,-1.792243719E0,-7.747341990E-1
7.492387500E0,-1.192426443E0,-1.754649282E0,-6.917612553E-1
7.496359375E0,-1.216477036E0,-1.730249643E0,-6.102718115E-1
7.500337500E0,-1.223632932E0,-1.706146598E0,-5.197590590E-1
7.504300000E0,-1.210036755E0,-1.708520293E0,-4.557927251E-1
7.508270312E0,-1.172721624E0,-1.750582695E0,-4.014955461E-1
7.512242187E0,-1.131078124E0,-1.818004727E0,-3.653323054E-1
7.516210937E0,-1.095229030E0,-1.869771242E0,-3.542494774E-1
7.520182812E0,-1.052468419E0,-1.921659827E0,-3.656639159E-1
7.524153125E0,-1.008503556E0,-1.969045520E0,-3.927514255E-1
7.528123437E0,-9.553757906E-1,-2.038090706E0,-4.345520735E-1
7.532093750E0,-8.922472000E-1,-2.126910686E0,-4.873308241E-1
7.536064062E0,-8.357683420E-1,-2.224387169E0,-5.406855345E-1
7.540034375E0,-7.724303603E-1,-2.339701176E0,-5.935865045E-1
7.544004687E0,-7.118150592E-1,-2.425030231E0,-6.275680661E-1
7.547975000E0,-6.201678514E-1,-2.504198313E0,-6.621429920E-1
7.551953125E0,-5.083271265E-1,-2.545632601E0,-6.975208521E-1
7.555917187E0,-3.962246478E-1,-2.539593697E0,-7.202973962E-1
7.559887500E0,-2.759016454E-1,-2.471787691E0,-7.220426798E-1
7.563857812E0,-1.776919663E-1,-2.388413191E0,-7.074168324E-1
7.567828125E0,-9.250245243E-2,-2.285561085E0,-6.763674617E-1
7.571798437E0,-2.267182618E-2,-2.196496964E0,-6.431014538E-1
7.575770312E0,4.398229532E-3,-2.146196365E0,-6.187890172E-1
7.579740625E0,-1.326450263E-3,-2.119405746E0,-5.946685672E-1
7.583709375E0,-3.021164984E-2,-2.100538731E0,-5.780006647E-1
7.587681250E0,-8.457865566E-2,-2.086122274E0,-5.653819442E-1
7.591651562E0,-1.500983089E-1,-2.081758976E0,-5.562189817E-1
7.595621875E0,-2.222502232E-1,-2.077028990E0,-5.433035493E-1
7.599592187E0,-3.130422533E-1,-2.063310862E0,-5.269846916E-1
7.603564062E0,-3.951425552E-1,-2.044984818E0,-4.970174134E-1
7.607532812E0,-4.720591903E-1,-2.017321348E0,-4.315675497E-1
7.611504687E0,-5.469512939E-1,-1.978348136E0,-3.554362953E-1
7.615475000E0,-6.057513952E-1,-1.933999300E0,-2.902831733E-1
7.619450000E0,-6.680247784E-1,-1.874588370E0,-2.251300216E-1
7.623415625E0,-7.187615037E-1,-1.824462533E0,-1.775697917E-1
7.627385937E0,-7.678052187E-1,-1.768350124E0,-1.377762854E-1
7.631356250E0,-8.171631694E-1,-1.707193851E0,-1.096241325E-1
7.635337500E0,-8.586496115E-1,-1.655270219E0,-9.611528367E-2
7.639298437E0,-8.977450132E-1,-1.601234913E0,-9.590584040E-2
7.643268750E0,-9.293354750E-1,-1.547269225E0,-1.068490595E-1
7.647239062E0,-9.541191459E-1,-1.485484600E0,-1.315105557E-1
7.651209375E0,-9.717295170E-1,-1.427033544E0,-1.649161577E-1
7.655179687E0,-9.778381586E-1,-1.369088650E0,-2.031214237E-1
7.659150000E0,-9.711360931E-1,-1.298280597E0,-2.513099611E-1
7.663120312E0,-9.594598413E-1,-1.234942555E0,-3.000046313E-1
7.667090625E0,-9.391093254E-1,-1.175985336E0,-3.501828611E-1
7.671062500E0,-9.130166173E-1,-1.119803190E0,-3.964166343E-1
7.675032812E0,-8.837823868E-1,-1.073709130E0,-4.414112270E-1
7.679003125E0,-8.514763117E-1,-1.037580729E0,-4.856727719E-1
7.682973437E0,-8.237779737E-1,-1.019743562E0,-5.229355693E-1
7.686943750E0,-7.989419103E-1,-1.012081504E0,-5.615596771E-1
7.690917187E0,-7.769507766E-1,-1.017614245E0,-5.987352133E-1
7.694885937E0,-7.602479458E-1,-1.037406206E0,-6.302558184E-1
7.698856250E0,-7.479084730E-1,-1.079905033E0,-6.679549813E-1
7.702826562E0,-7.398625016E-1,-1.125161409E0,-6.957231164E-1
7.706796875E0,-7.341727614E-1,-1.189162612E0,-7.237182260E-1
7.710767187E0,-7.293730974E-1,-1.264613271E0,-7.490953207E-1
7.714737500E0,-7.230026126E-1,-1.331372023E0,-7.671419978E-1
7.718709375E0,-7.136651278E-1,-1.415025711E0,-7.829896212E-1
7.722679687E0,-7.029488087E-1,-1.491052270E0,-7.913497090E-1
7.726650000E0,-6.894748807E-1,-1.546396613E0,-7.906690836E-1
7.730618750E0,-6.724055409E-1,-1.576049805E0,-7.811570168E-1
7.734590625E0,-6.524564028E-1,-1.582106113E0,-7.636339068E-1
7.738567187E0,-6.284406781E-1,-1.556624293E0,-7.267027497E-1
7.742531250E0,-6.083170772E-1,-1.502571344E0,-6.809402108E-1
7.746501562E0,-5.872684121E-1,-1.401638985E0,-6.082298160E-1
7.750473437E0,-5.685409904E-1,-1.264752865E0,-5.035623908E-1
7.754443750E0,-5.543165803E-1,-1.133504033E0,-4.150393009E-1
7.758414062E0,-5.415756702E-1,-9.621651173E-1,-2.945592105E-1
7.762384375E0,-5.310338736E-1,-8.183499575E-1,-1.890366077E-1
7.766354687E0,-5.132489800E-1,-6.874328256E-1,-8.433430642E-2
7.770325000E0,-4.878195226E-1,-5.881934166E-1,5.759586580E-3
7.774295312E0,-4.559149146E-1,-5.170712471E-1,7.470009476E-2
7.778275000E0,-4.105712473E-1,-4.611858130E-1,1.327148378E-1
7.782235937E0,-3.711791635E-1,-4.295953512E-1,1.684591770E-1
7.786207812E0,-3.258529603E-1,-4.195596874E-1,1.895253062E-1
7.790178125E0,-2.838952541E-1,-4.193502665E-1,2.008873969E-1
7.794148437E0,-2.452885658E-1,-4.196295142E-1,2.018822283E-1
7.798120312E0,-2.017949671E-1,-4.093146026E-1,1.934173852E-1
7.802089062E0,-1.592961997E-1,-3.783350289E-1,1.793151200E-1
7.806059375E0,-1.131496951E-1,-3.130946159E-1,1.527686715E-1
7.810031250E0,-6.677629799E-2,-2.248333097E-1,1.225046590E-1
7.814001562E0,-1.977458037E-2,-1.310742199E-1,9.187413007E-2
7.817978125E0,4.677482322E-2,-2.007128671E-2,5.770058557E-2
7.821942187E0,1.163785532E-1,6.953391433E-2,3.071779385E-2
7.825912500E0,2.139773667E-1,1.657364666E-1,4.572762642E-3
7.829882812E0,3.251373768E-1,2.604031265E-1,-1.549852360E-2
7.833854687E0,4.502425790E-1,3.592585623E-1,-2.794272080E-2
7.837825000E0,6.174625754E-1,4.654269516E-1,-3.134611249E-2
7.841793750E0,7.831641436E-1,5.665687919E-1,-2.832669392E-2
7.845765625E0,9.797056913E-1,6.866823435E-1,-1.143190637E-2
7.849742187E0,1.173018336E0,8.129220009E-1,1.914626174E-2
7.853706250E0,1.362421513E0,9.363865852E-1,6.024876609E-2
7.857676562E0,1.585230231E0,1.079835176E0,1.203229949E-1
7.861646875E0,1.774493694E0,1.208623052E0,1.787566245E-1
7.865617187E0,1.945710540E0,1.347062588E0,2.406459898E-1
7.869589062E0,2.104989290E0,1.508959293E0,3.158173263E-1
7.873559375E0,2.216027021E0,1.628933191E0,3.864158988E-1
7.877529687E0,2.316191435E0,1.755696535E0,4.814316332E-1
7.881500000E0,2.379040956E0,1.841601610E0,5.869018435E-1
7.885470312E0,2.410491705E0,1.892285943E0,7.242592573E-1
7.889440625E0,2.409339666E0,1.913474321E0,8.772373796E-1
7.893412500E0,2.375340700E0,1.917628169E0,1.027894258E0
7.897382812E0,2.298895359E0,1.902478695E0,1.210630178E0
7.901354687E0,2.209098101E0,1.869160414E0,1.354061365E0
7.905323437E0,2.079437733E0,1.809155941E0,1.480562806E0
