"Time (s)","Gyroscope x (rad/s)","Gyroscope y (rad/s)","Gyroscope z (rad/s)"
2.793958240E-1,-8.023000360E-1,-2.197089434E0,-1.005319282E-1
2.813968240E-1,-8.126847744E-1,-2.248401880E0,-5.654963106E-2
2.833983240E-1,-8.279563785E-1,-2.327203512E0,2.408458292E-2
2.853973240E-1,-8.444496989E-1,-2.374240160E0,9.677755088E-2
2.873985740E-1,-8.523910046E-1,-2.387679100E0,1.328186095E-1
2.893983740E-1,-8.676626086E-1,-2.398674726E0,1.932942569E-1
2.913997070E-1,-8.737712502E-1,-2.401118279E0,2.195614576E-1
2.934009920E-1,-8.841559291E-1,-2.387068272E0,2.690415382E-1
2.954023670E-1,-8.890429139E-1,-2.369964123E0,3.069151938E-1
2.974037000E-1,-8.890429139E-1,-2.355914354E0,3.221868277E-1
2.994050000E-1,-8.896537423E-1,-2.321094990E0,3.490648866E-1
3.014063630E-1,-8.896537423E-1,-2.300936222E0,3.563952744E-1
3.034124460E-1,-8.817124963E-1,-2.253899574E0,3.728886545E-1
3.054137530E-1,-8.762147427E-1,-2.192813158E0,3.838842213E-1
3.074151100E-1,-8.688843250E-1,-2.159826517E0,3.912146091E-1
3.094248430E-1,-8.609431386E-1,-2.077359676E0,3.973232508E-1
3.114261550E-1,-8.548344374E-1,-1.973512530E0,4.089296758E-1
3.134328020E-1,-8.548344374E-1,-1.915480375E0,4.138166308E-1
3.154341350E-1,-8.572778702E-1,-1.773148775E0,4.272556603E-1
3.174415560E-1,-8.597213626E-1,-1.698012352E0,4.364186227E-1
3.194429060E-1,-8.719386458E-1,-1.544074297E0,4.590206444E-1
3.214442390E-1,-8.902646303E-1,-1.410294771E0,4.920073450E-1
3.234456020E-1,-8.951515555E-1,-1.367534280E0,5.127767920E-1
3.254489490E-1,-8.908754587E-1,-1.349208236E0,5.579808354E-1
3.274502820E-1,-8.884320259E-1,-1.366312504E0,5.818045735E-1
3.294516420E-1,-8.762147427E-1,-1.390747070E0,6.178455949E-1
3.314529880E-1,-8.688843250E-1,-1.367534280E0,6.496105790E-1
3.334602100E-1,-8.682734966E-1,-1.340045333E0,6.593844891E-1
3.354615670E-1,-8.743821383E-1,-1.256967664E0,6.661039591E-1
3.374629110E-1,-8.774364591E-1,-1.214818001E0,6.636605263E-1
3.394642440E-1,-8.859885931E-1,-1.140903234E0,6.544975042E-1
3.414656100E-1,-8.914863467E-1,-1.077984095E0,6.294520497E-1
3.434692760E-1,-8.963732719E-1,-1.056603909E0,6.160129905E-1
3.454708420E-1,-9.018710256E-1,-1.018730283E0,5.830262899E-1
3.474743750E-1,-9.067580104E-1,-1.000404239E0,5.427091718E-1
3.494759750E-1,-9.092014432E-1,-9.955173135E-1,5.176637173E-1
3.514773080E-1,-9.153101444E-1,-9.936847091E-1,4.761248827E-1
3.534786740E-1,-9.134774804E-1,-9.991825223E-1,4.492467940E-1
3.554800070E-1,-9.159209728E-1,-1.018119335E0,3.942689300E-1
3.574813400E-1,-9.171426892E-1,-1.041332126E0,3.386801779E-1
3.594874060E-1,-9.189752936E-1,-1.048662543E0,3.124130070E-1
3.614887390E-1,-9.208078384E-1,-1.071264625E0,2.574351132E-1
3.634881720E-1,-9.189752936E-1,-1.077984095E0,2.299461663E-1
3.654895380E-1,-9.238621593E-1,-1.077373266E0,1.755791605E-1
3.674908710E-1,-9.311925769E-1,-1.055382133E0,1.285425425E-1
3.694880040E-1,-9.336360693E-1,-1.036445260E0,1.102165803E-1
3.714893700E-1,-9.421881437E-1,-9.887977839E-1,8.089505136E-2
3.734877030E-1,-9.470750690E-1,-9.552001953E-1,6.989947706E-2
3.754941360E-1,-9.556272030E-1,-8.800637722E-1,5.951476842E-2
3.774916360E-1,-9.684553742E-1,-7.896556854E-1,7.051034272E-2
3.794929690E-1,-9.715096951E-1,-7.389539480E-1,8.639283478E-2
3.814943020E-1,-9.837269783E-1,-6.412154436E-1,1.291534156E-1
3.835003680E-1,-9.953334332E-1,-5.300379992E-1,1.884073317E-1
3.855001680E-1,-9.989986420E-1,-4.768927395E-1,2.275027186E-1
3.875015010E-1,-1.011826754E0,-3.638826609E-1,3.105803728E-1
3.895028340E-1,-1.017324567E0,-3.052395880E-1,3.606713116E-1
3.915065670E-1,-1.029541850E0,-1.824556738E-1,4.639075696E-1
3.935026330E-1,-1.041759133E0,-5.173050985E-2,5.695872307E-1
3.955051660E-1,-1.049089551E0,1.607552916E-2,6.276194453E-1
3.975064990E-1,-1.058863401E0,1.522984803E-1,7.418512702E-1
3.995129320E-1,-1.068637371E0,2.872997224E-1,8.560830951E-1
4.015142650E-1,-1.072302461E0,3.575491905E-1,9.122826457E-1
4.035161980E-1,-1.074746013E0,4.827765822E-1,1.018573165E0
4.055175640E-1,-1.074746013E0,5.408087969E-1,1.069885850E0
4.075214970E-1,-1.073524117E0,6.489319205E-1,1.163348317E0
4.095228300E-1,-1.071080685E0,6.996337175E-1,1.206719756E0
4.115257300E-1,-1.062528610E0,7.943178415E-1,1.284910440E0
4.135270630E-1,-1.054587364E0,8.877801895E-1,1.352716565E0
4.155283960E-1,-1.047867775E0,9.305408001E-1,1.380205393E0
4.175297620E-1,-1.036261439E0,1.024613976E0,1.427852869E0
4.195263950E-1,-1.019768119E0,1.115022063E0,1.455952764E0
4.215276280E-1,-1.012437701E0,1.163891315E0,1.463893890E0
4.235320940E-1,-9.959443212E-1,1.250023365E0,1.470002532E0
4.255334270E-1,-9.818944335E-1,1.293394804E0,1.467559218E0
4.275376930E-1,-9.611250162E-1,1.362422466E0,1.450454950E0
4.295390590E-1,-9.311925769E-1,1.405793905E0,1.413802981E0
4.315403920E-1,-9.140883684E-1,1.413124442E0,1.393033624E0
4.335417250E-1,-8.774364591E-1,1.418622136E0,1.339277506E0
4.355379910E-1,-8.584996462E-1,1.410680890E0,1.313010216E0
4.375393240E-1,-8.108521104E-1,1.389911532E0,1.244593382E0
4.395406570E-1,-7.668699026E-1,1.353259563E0,1.167013407E0
4.415448900E-1,-7.479330301E-1,1.332490087E0,1.121809483E0
4.435414900E-1,-7.082268000E-1,1.276290536E0,1.028957844E0
4.455428230E-1,-6.892899871E-1,1.251855969E0,9.764235020E-1
4.475441890E-1,-6.514163017E-1,1.195045352E0,8.609699607E-1
4.495470550E-1,-6.190404892E-1,1.144343615E0,7.381860614E-1
4.515459880E-1,-6.007145047E-1,1.116243839E0,6.697691679E-1
4.535473210E-1,-5.677278042E-1,1.071650624E0,5.408765674E-1
4.555474540E-1,-5.390170813E-1,1.026446700E0,4.083188176E-1
4.575510200E-1,-5.225237608E-1,1.005677223E0,3.405127823E-1
4.595472860E-1,-4.913696349E-1,9.543645382E-1,2.085658908E-1
4.615486860E-1,-4.748762548E-1,9.207669497E-1,1.432033032E-1
4.635471190E-1,-4.388352036E-1,8.572369814E-1,2.041939087E-2
4.655503520E-1,-3.942420483E-1,7.802679539E-1,-1.005319282E-1
4.675469180E-1,-3.661422431E-1,7.350639105E-1,-1.591749936E-1
4.695482840E-1,-3.062774241E-1,6.391580701E-1,-2.666872740E-1
4.715480840E-1,-2.739015818E-1,5.835693479E-1,-3.125021756E-1
4.735510500E-1,-1.987651736E-1,4.717810154E-1,-3.986341655E-1
4.755524160E-1,-1.211852804E-1,3.544948697E-1,-4.664402306E-1
4.775571820E-1,-8.270076662E-2,2.946301103E-1,-4.969834685E-1
4.795585150E-1,-1.184040029E-2,1.742896289E-1,-5.446310043E-1
4.815607150E-1,2.542237937E-2,1.138139740E-1,-5.647894740E-1
4.835589480E-1,8.650889993E-2,-1.568946242E-2,-5.977762341E-1
4.855654480E-1,1.384324431E-1,-1.476363540E-1,-6.197673678E-1
4.875638810E-1,1.610344648E-1,-2.142206728E-1,-6.307629347E-1
4.895702470E-1,2.013515681E-1,-3.455567062E-1,-6.417585611E-1
4.915715800E-1,2.343382835E-1,-4.732275307E-1,-6.454237103E-1
4.935737130E-1,2.483882010E-1,-5.324814320E-1,-6.454237103E-1
4.955750460E-1,2.770988345E-1,-6.442697644E-1,-6.442019939E-1
4.975763790E-1,2.893161476E-1,-6.949716210E-1,-6.387042403E-1
4.995777450E-1,3.186376989E-1,-7.872122526E-1,-6.203782558E-1
5.015762110E-1,3.516244292E-1,-8.568508625E-1,-5.910567045E-1
5.035775440E-1,3.693394959E-1,-8.910593987E-1,-5.727307796E-1
5.055789100E-1,4.096566141E-1,-9.368742704E-1,-5.311918855E-1
5.075802430E-1,4.328694940E-1,-9.552001953E-1,-5.098116398E-1
5.095821760E-1,4.756300747E-1,-9.753587842E-1,-4.572772086E-1
5.115835420E-1,5.177797675E-1,-9.851326346E-1,-3.968015611E-1
5.135848750E-1,5.367166400E-1,-9.936847091E-1,-3.644257188E-1
5.155862080E-1,5.672598481E-1,-9.930738807E-1,-2.923436165E-1
5.175853410E-1,5.788662434E-1,-9.839109182E-1,-2.544699609E-1
5.195866740E-1,5.941379666E-1,-9.680283666E-1,-1.817770153E-1
5.215879400E-1,5.978031158E-1,-9.576436877E-1,-1.078623086E-1
5.235892730E-1,5.959705114E-1,-9.570327997E-1,-6.998866051E-2
5.255922390E-1,5.800880194E-1,-9.649740458E-1,-3.500257735E-4
5.275935720E-1,5.471013188E-1,-9.808565378E-1,3.263669461E-2
5.295949050E-1,5.269427299E-1,-9.924629927E-1,8.883630484E-2
5.315962380E-1,4.725757539E-1,-1.017508507E0,1.377055198E-1
5.335959380E-1,4.420324564E-1,-1.029725790E0,1.523662806E-1
5.355972710E-1,3.723938167E-1,-1.045608282E0,1.847421378E-1
5.375953710E-1,2.868727148E-1,-1.068210363E0,2.024572343E-1
5.395965040E-1,2.422795445E-1,-1.081038475E0,2.116202116E-1
5.415968700E-1,1.451519579E-1,-1.118301272E0,2.134528011E-1
5.435982030E-1,9.322842211E-2,-1.147011876E0,2.097876072E-1
5.455991360E-1,-1.245126594E-2,-1.204433203E0,1.926833987E-1
5.476004690E-1,-1.272939295E-1,-1.258189321E0,1.474793702E-1
5.495967690E-1,-1.828826815E-1,-1.288732648E0,1.187686995E-1
5.515981350E-1,-3.026122451E-1,-1.336990952E0,5.157352239E-2
5.535987010E-1,-3.612553179E-1,-1.367534280E0,1.553247031E-2
5.556000340E-1,-4.828175008E-1,-1.403575301E0,-6.143654883E-2
5.576014000E-1,-6.117100716E-1,-1.472603083E0,-1.408490241E-1
5.596064000E-1,-6.789052486E-1,-1.556902409E0,-1.884965152E-1
5.616077330E-1,-8.224585652E-1,-1.701066613E0,-2.782936990E-1
5.636090990E-1,-8.939298391E-1,-1.757266283E0,-3.234977424E-1
5.656104320E-1,-1.041759133E0,-1.844619989E0,-4.041319489E-1
5.676151320E-1,-1.191421151E0,-1.948467016E0,-4.639967382E-1
5.696143650E-1,-1.252507687E0,-2.060255289E0,-4.731597304E-1
5.716199310E-1,-1.371015668E0,-2.285664797E0,-4.847661853E-1
5.736212640E-1,-1.481582165E0,-2.487861156E0,-5.006486773E-1
5.756246300E-1,-1.536560059E0,-2.586210489E0,-5.092007518E-1
5.776259630E-1,-1.633076787E0,-2.765804768E0,-5.256941319E-1
5.796272960E-1,-1.677059054E0,-2.848271370E0,-5.336353779E-1
5.816286620E-1,-1.727760911E0,-2.996711969E0,-5.458526611E-1
5.836299950E-1,-1.739978194E0,-3.090174198E0,-5.611243248E-1
5.856277950E-1,-1.728982687E0,-3.119495869E0,-5.678437948E-1
5.876291610E-1,-1.676448226E0,-3.123160839E0,-5.855589509E-1
5.896304940E-1,-1.638574600E0,-3.103613377E0,-5.983870625E-1
5.916372600E-1,-1.553053498E0,-3.036418200E0,-6.356499195E-1
5.936386260E-1,-1.464477897E0,-2.930127382E0,-6.826865077E-1
5.956452590E-1,-1.422939062E0,-2.861710787E0,-7.144514918E-1
5.976463920E-1,-1.349635243E0,-2.705329180E0,-7.785923481E-1
5.996479580E-1,-1.315426826E0,-2.613699436E0,-8.128007650E-1
6.016492580E-1,-1.251896858E0,-2.407837629E0,-8.799959421E-1
6.036505910E-1,-1.190810323E0,-2.176930666E0,-9.496346712E-1
6.056471910E-1,-1.159656286E0,-2.061476946E0,-9.832322001E-1
6.076550570E-1,-1.101013184E0,-1.831791878E0,-1.033933997E0
6.096564230E-1,-1.041759133E0,-1.617378116E0,-1.076083779E0
6.116582890E-1,-1.012437701E0,-1.517196298E0,-1.094409704E0
6.136596220E-1,-9.464642406E-1,-1.344932199E0,-1.112124801E0
6.156654220E-1,-9.165318012E-1,-1.264297962E0,-1.117011666E0
6.176667550E-1,-8.517801166E-1,-1.106694818E0,-1.115179062E0
6.196644210E-1,-7.906935811E-1,-9.515350461E-1,-1.100518346E0
6.216657870E-1,-7.613720894E-1,-8.794529438E-1,-1.086468339E0
6.236671200E-1,-7.021180987E-1,-7.499494553E-1,-1.048594713E0
6.256684530E-1,-6.721857190E-1,-6.876412630E-1,-1.022327542E0
6.276683530E-1,-6.202622056E-1,-5.648573041E-1,-9.606301785E-1
6.296696860E-1,-5.762798786E-1,-4.463494420E-1,-8.732764721E-1
6.316667860E-1,-5.622299910E-1,-3.889281452E-1,-8.182985783E-1
6.336681520E-1,-5.384062529E-1,-2.795832455E-1,-6.991798878E-1
6.356674850E-1,-5.341302156E-1,-2.307140380E-1,-6.319846511E-1
6.376688180E-1,-5.335193276E-1,-1.458037496E-1,-4.817118645E-1
6.396701840E-1,-5.561213493E-1,-7.677598298E-2,-3.222759962E-1
6.416715170E-1,-5.713929534E-1,-5.050878227E-2,-2.391983271E-1
6.436728500E-1,-6.153752208E-1,-1.263513695E-2,-8.403856307E-2
6.456742160E-1,-6.721857190E-1,-4.178318486E-4,5.279524997E-2
6.476755490E-1,-7.015072703E-1,-1.028697006E-3,1.102165803E-1
6.496804820E-1,-7.687024474E-1,-8.359080181E-3,2.061224282E-1
6.516764150E-1,-7.998565435E-1,-2.057638578E-2,2.446069270E-1
6.536777480E-1,-8.694951534E-1,-5.234137550E-2,3.032500148E-1
6.556737810E-1,-9.385229349E-1,-9.326934814E-2,3.380693197E-1
6.576751470E-1,-9.757857919E-1,-1.201474220E-1,3.441779912E-1
6.596764800E-1,-1.046646118E0,-1.745144129E-1,3.472323120E-1
6.616780800E-1,-1.079632759E0,-2.062794119E-1,3.405127823E-1
6.636791800E-1,-1.146217108E0,-2.844701707E-1,3.215759695E-1
6.656872460E-1,-1.217688322E0,-3.693804443E-1,2.946978807E-1
6.676820460E-1,-1.253729463E0,-4.145844579E-1,2.788153887E-1
6.696833790E-1,-1.324589849E0,-5.098794699E-1,2.482721210E-1
6.716863790E-1,-1.393617511E0,-6.143373847E-1,2.140636742E-1
6.736877120E-1,-1.428436875E0,-6.711478829E-1,1.975703090E-1
6.756846120E-1,-1.496242881E0,-7.841579318E-1,1.651944518E-1
6.776859450E-1,-1.529840589E0,-8.434118629E-1,1.499228179E-1
6.796873110E-1,-1.592759609E0,-9.698609710E-1,1.144926399E-1
6.816886440E-1,-1.651402712E0,-1.090201378E0,8.394937962E-2
6.836926770E-1,-1.679502606E0,-1.148844481E0,6.684515625E-2
6.856940430E-1,-1.730815172E0,-1.263687134E0,4.057794437E-2
6.876997760E-1,-1.773575783E0,-1.369977713E0,8.812952787E-3
6.897011090E-1,-1.793123364E0,-1.420068622E0,-1.571756206E-3
6.917028090E-1,-1.826110244E0,-1.509255052E0,-2.173030935E-2
6.937041420E-1,-1.840160012E0,-1.556291580E0,-3.089328855E-2
6.957054750E-1,-1.867649078E0,-1.637536764E0,-4.372145981E-2
6.977068410E-1,-1.878033638E0,-1.677853703E0,-4.677578434E-2
6.997081740E-1,-1.894527078E0,-1.746270776E0,-5.471703410E-2
7.017095070E-1,-1.901857376E0,-1.803081155E0,-5.899308622E-2
7.037108730E-1,-1.900024891E0,-1.826904893E0,-5.960395560E-2
7.057122060E-1,-1.891472816E0,-1.869665504E0,-6.510173529E-2
7.077183060E-1,-1.874368548E0,-1.899597883E0,-6.510173529E-2
7.097160720E-1,-1.859707713E0,-1.911815166E0,-6.510173529E-2
7.117210050E-1,-1.829775333E0,-1.922199965E0,-6.754520535E-2
7.137223380E-1,-1.812671185E0,-1.919145465E0,-6.571260840E-2
7.157237040E-1,-1.773575783E0,-1.920367360E0,-6.449087709E-2
7.177250370E-1,-1.738145590E0,-1.932584643E0,-5.899308622E-2
7.197263700E-1,-1.721652269E0,-1.941136718E0,-4.983011261E-2
7.217275360E-1,-1.683778524E0,-1.968014717E0,-3.578021005E-2
7.237291360E-1,-1.648959279E0,-2.005277634E0,-1.073473413E-2
7.257237360E-1,-1.633687615E0,-2.029101372E0,6.369492039E-3
7.277249690E-1,-1.604366064E0,-2.063920736E0,4.241054133E-2
7.297263020E-1,-1.590316176E0,-2.076138020E0,6.073649973E-2
7.317320020E-1,-1.568935871E0,-2.092631340E0,9.616667777E-2
7.337333680E-1,-1.561605453E0,-2.092631340E0,1.157143712E-1
7.357347010E-1,-1.556718588E0,-2.084689856E0,1.511445642E-1
7.377360340E-1,-1.554885983E0,-2.058422804E0,1.829095483E-1
7.397373670E-1,-1.556718588E0,-2.040707827E0,2.018463761E-1
7.417387000E-1,-1.568935871E0,-1.995503664E0,2.342222333E-1
7.437373330E-1,-1.576877236E0,-1.969236612E0,2.501047254E-1
7.457423990E-1,-1.593981504E0,-1.909371734E0,2.794262767E-1
7.477374320E-1,-1.614139915E0,-1.839733005E0,3.148564398E-1
7.497402980E-1,-1.626357317E0,-1.807357192E0,3.356258571E-1
7.517412980E-1,-1.649570107E0,-1.738329411E0,3.832733333E-1
7.537426310E-1,-1.674615622E0,-1.676632047E0,4.382512271E-1
7.557439970E-1,-1.683778524E0,-1.647921443E0,4.681836367E-1
7.577506300E-1,-1.702104449E0,-1.589889169E0,5.292701125E-1
7.597519630E-1,-1.713710904E0,-1.559956789E0,5.616459846E-1
7.617530630E-1,-1.731426001E0,-1.507422328E0,6.215108037E-1
7.637543960E-1,-1.746697783E0,-1.452444553E0,6.813756227E-1
7.657576290E-1,-1.752806425E0,-1.424344778E0,7.045884132E-1
7.677542290E-1,-1.760136724E0,-1.366312504E0,7.534577250E-1
7.697582950E-1,-1.762580156E0,-1.338212729E0,7.742270827E-1
7.717560280E-1,-1.763190985E0,-1.286900043E0,8.133224845E-1
7.737620280E-1,-1.758304119E0,-1.253913283E0,8.450874686E-1
7.757633610E-1,-1.759525895E0,-1.245972037E0,8.597482443E-1
7.777691610E-1,-1.755249739E0,-1.246582866E0,8.799067736E-1
7.797705270E-1,-1.753417253E0,-1.259411097E0,8.890697360E-1
7.817720600E-1,-1.749141097E0,-1.283845663E0,9.031196833E-1
7.837733930E-1,-1.743643284E0,-1.321719408E0,9.067848325E-1
7.857747590E-1,-1.743643284E0,-1.346153975E0,9.086174369E-1
7.877762250E-1,-1.739978194E0,-1.393190503E0,9.061740041E-1
7.897775580E-1,-1.739367366E0,-1.443892479E0,8.945675492E-1
7.917723580E-1,-1.743032455E0,-1.467105269E0,8.890697360E-1
7.937764910E-1,-1.746086836E0,-1.509255052E0,8.744090199E-1
7.957778240E-1,-1.747919440E0,-1.534911394E0,8.646351099E-1
7.977791900E-1,-1.759525895E0,-1.592943430E0,8.548613191E-1
7.997805230E-1,-1.780906081E0,-1.729166508E0,8.933458328E-1
8.017843560E-1,-1.792512536E0,-1.787198782E0,9.122826457E-1
8.037857220E-1,-1.813282013E0,-1.873330712E0,9.452693462E-1
8.057856550E-1,-1.824277639E0,-1.913647771E0,9.550431967E-1
8.077869880E-1,-1.842603564E0,-1.977788568E0,9.715365767E-1
8.097869210E-1,-1.862151265E0,-2.030323029E0,9.703148007E-1
8.117882540E-1,-1.862762094E0,-2.047427177E0,9.684822559E-1
8.137953870E-1,-1.863372922E0,-2.078581333E0,9.495453835E-1
8.157967200E-1,-1.857264280E0,-2.084689856E0,9.354955554E-1
8.177966200E-1,-1.833440542E0,-2.104848623E0,8.927350044E-1
8.197979860E-1,-1.797399521E0,-2.128061533E0,8.463091850E-1
8.218042860E-1,-1.775408268E0,-2.142111301E0,8.200420141E-1
8.238056190E-1,-1.735091329E0,-2.173265696E0,7.693402171E-1
8.258075850E-1,-1.691109061E0,-2.195256710E0,7.210818529E-1
8.278089180E-1,-1.672783017E0,-2.200754404E0,6.960363984E-1
8.298075180E-1,-1.646515727E0,-2.201976061E0,6.563301682E-1
8.318088840E-1,-1.631244183E0,-2.198311090E0,6.386150122E-1
8.338055840E-1,-1.612918258E0,-2.178152323E0,6.074608564E-1
8.358085170E-1,-1.604366064E0,-2.151885271E0,5.866914392E-1
8.378054170E-1,-1.602533460E0,-2.137224436E0,5.811936855E-1
8.398067500E-1,-1.601311803E0,-2.104848623E0,5.732524395E-1
8.418080830E-1,-1.604976892E0,-2.086522818E0,5.708089471E-1
8.438094490E-1,-1.607420444E0,-2.049870968E0,5.775284767E-1
8.458107820E-1,-1.614750862E0,-1.999168992E0,5.940218568E-1
8.478162820E-1,-1.620248556E0,-1.968625665E0,6.056283116E-1
8.498176480E-1,-1.626968145E0,-1.898376107E0,6.331172585E-1
8.518189810E-1,-1.631855011E0,-1.860502601E0,6.538866758E-1
8.538175140E-1,-1.642239690E0,-1.781090021E0,6.923711300E-1
8.558188800E-1,-1.652624369E0,-1.682740688E0,7.345208526E-1
8.578202130E-1,-1.660565615E0,-1.636314988E0,7.559010983E-1
8.598280130E-1,-1.667896152E0,-1.538576484E0,8.011051416E-1
8.618268790E-1,-1.672172070E0,-1.450001121E0,8.450874686E-1
8.638282120E-1,-1.670950413E0,-1.407851338E0,8.634134531E-1
8.658272120E-1,-1.674615622E0,-1.321719408E0,9.018979669E-1
8.678285780E-1,-1.676448226E0,-1.277737021E0,9.208347797E-1
8.698298110E-1,-1.678280711E0,-1.190383315E0,9.532106519E-1
8.718333440E-1,-1.680724263E0,-1.112803459E0,9.733691812E-1
8.738289100E-1,-1.683778524E0,-1.074319005E0,9.813104272E-1
8.758302430E-1,-1.685000420E0,-1.011399865E0,9.929168820E-1
8.778277090E-1,-1.685000420E0,-9.857434630E-1,9.984146953E-1
8.798290420E-1,-1.685611248E0,-9.454264045E-1,1.003912449E0
8.818256750E-1,-1.690497994E0,-9.154939651E-1,1.008188486E0
8.838270080E-1,-1.692941546E0,-9.032766819E-1,1.008188486E0
8.858258410E-1,-1.698439360E0,-8.910593987E-1,1.010021091E0
8.878317410E-1,-1.701493621E0,-8.806746006E-1,1.007577658E0
8.898331070E-1,-1.702104449E0,-8.782312274E-1,1.006355882E0
8.918368070E-1,-1.701493621E0,-8.696790934E-1,9.965820312E-1
8.938381400E-1,-1.702715397E0,-8.660138845E-1,9.910842776E-1
8.958391060E-1,-1.701493621E0,-8.629595041E-1,9.770343900E-1
8.978404390E-1,-1.703937173E0,-8.654029965E-1,9.574866891E-1
8.998417720E-1,-1.707602262E0,-8.654029965E-1,9.477128386E-1
9.018428720E-1,-1.713100076E0,-8.800637722E-1,9.232782125E-1
9.038442050E-1,-1.717987061E0,-8.892267346E-1,9.116718173E-1
9.058454050E-1,-1.728371739E0,-9.203809500E-1,8.878480196E-1
9.078423380E-1,-1.748530269E0,-9.497023821E-1,8.640242815E-1
9.098496040E-1,-1.753417253E0,-9.680283666E-1,8.542504311E-1
9.118509370E-1,-1.776019335E0,-1.002236843E0,8.365353346E-1
9.138523030E-1,-1.786403894E0,-1.015675783E0,8.322592974E-1
9.158591360E-1,-1.809005976E0,-1.043775678E0,8.243180513E-1
9.178604690E-1,-1.832218885E0,-1.069432020E0,8.200420141E-1
9.198553690E-1,-1.841381788E0,-1.083481908E0,8.218745589E-1
9.218567020E-1,-1.865205526E0,-1.108527303E0,8.230963349E-1
9.238601350E-1,-1.879255533E0,-1.137238026E0,8.237072229E-1
9.258615010E-1,-1.885975003E0,-1.143957496E0,8.304266930E-1
9.278637670E-1,-1.893916249E0,-1.162283540E0,8.487526774E-1
9.298651000E-1,-1.899414062E0,-1.165337920E0,8.676894903E-1
9.318642660E-1,-1.901246548E0,-1.172057390E0,9.208347797E-1
9.338655990E-1,-1.900024891E0,-1.172668219E0,9.770343900E-1
9.358669320E-1,-1.898803115E0,-1.169003010E0,9.990255237E-1
9.378682980E-1,-1.876201153E0,-1.109138250E0,1.025903583E0
9.398696310E-1,-1.852988243E0,-1.051716924E0,1.032623053E0
9.418709640E-1,-1.805340767E0,-9.588654041E-1,1.070496678E0
9.438723300E-1,-1.750973701E0,-9.252678156E-1,1.157239676E0
9.458736630E-1,-1.727150083E0,-9.038875103E-1,1.204887033E0
9.478704290E-1,-1.674004793E0,-8.379140496E-1,1.300182104E0
9.498743290E-1,-1.650791883E0,-8.006513119E-1,1.345386147E0
9.518732950E-1,-1.600700974E0,-7.157410383E-1,1.431518078E0
9.538780610E-1,-1.550609946E0,-6.259438396E-1,1.513984919E0
9.558781940E-1,-1.525564432E0,-5.764637589E-1,1.556134701E0
9.578807600E-1,-1.482192993E0,-4.738384187E-1,1.648375273E0
9.598821260E-1,-1.461423635E0,-4.371864796E-1,1.692357540E0
9.618843590E-1,-1.429658651E0,-3.895390034E-1,1.783376455E0
9.638856920E-1,-1.398504496E0,-3.815977573E-1,1.874395370E0
9.658880920E-1,-1.389952421E0,-3.901498616E-1,1.915934205E0
9.678896920E-1,-1.383232951E0,-4.280234873E-1,1.993514180E0
9.698868580E-1,-1.398504496E0,-4.744492471E-1,2.060098410E0
9.718882240E-1,-1.408278346E0,-4.994947612E-1,2.084532976E0
9.738959240E-1,-1.443708539E0,-5.471422076E-1,2.121185064E0
9.758917570E-1,-1.465088844E0,-5.642464757E-1,2.138289213E0
9.778934900E-1,-1.520677567E0,-6.008983850E-1,2.151728153E0
9.798948230E-1,-1.581763983E0,-6.326633096E-1,2.142565250E0
9.819014890E-1,-1.608642220E0,-6.516001821E-1,2.127293587E0
9.839007550E-1,-1.672172070E0,-6.870303750E-1,2.082700491E0
9.859020880E-1,-1.698439360E0,-7.016911507E-1,2.049102783E0
9.879024880E-1,-1.747308612E0,-7.377321720E-1,1.964192629E0
9.899038540E-1,-1.785182238E0,-7.627776265E-1,1.864621639E0
9.919051870E-1,-1.797399521E0,-7.768275738E-1,1.805367708E0
9.939113530E-1,-1.812671185E0,-7.835470438E-1,1.686859727E0
9.959127190E-1,-1.814503789E0,-7.823253274E-1,1.623940706E0
9.979140520E-1,-1.804729819E0,-7.633885741E-1,1.503600240E0
9.999153850E-1,-1.776019335E0,-7.212388515E-1,1.397920489E0
1.001921285E0,-1.754028082E0,-6.888629794E-1,1.353327394E0
1.003922618E0,-1.698439360E0,-6.076178551E-1,1.274525762E0
1.005923951E0,-1.625135541E0,-4.988838732E-1,1.214660883E0
1.007925317E0,-1.584207535E0,-4.365756214E-1,1.191448092E0
1.009925250E0,-1.493188620E0,-2.997418046E-1,1.163348317E0
1.011926583E0,-1.443097711E0,-2.246053815E-1,1.154185295E0
1.013929583E0,-1.339861393E0,-6.639128178E-2,1.140135407E0
1.015930916E0,-1.232960105E0,9.915320575E-2,1.137081027E0
1.017933916E0,-1.176149487E0,1.803982854E-1,1.134637594E0
1.019935249E0,-1.066804647E0,3.355580568E-1,1.123031139E0
1.021935949E0,-1.007550716E0,4.125270545E-1,1.119365931E0
1.023937049E0,-8.969841599E-1,5.554695725E-1,1.096763968E0
1.025937482E0,-7.992457151E-1,6.941359043E-1,1.073551059E0
1.027938815E0,-7.509873509E-1,7.582768202E-1,1.060112119E0
1.029938415E0,-6.648553610E-1,8.639565110E-1,1.027736187E0
1.031939748E0,-6.300359964E-1,9.061061740E-1,1.011853695E0
1.033934714E0,-5.658951998E-1,9.696361423E-1,9.800887108E-1
1.035942480E0,-5.158041716E-1,9.989576936E-1,9.471020103E-1
1.037943446E0,-4.987000227E-1,1.001401186E0,9.275542498E-1
1.039944779E0,-4.724327922E-1,9.849078655E-1,8.982326984E-1
1.041940812E0,-4.614372253E-1,9.531428218E-1,8.689112067E-1
1.043942145E0,-4.651024044E-1,9.348168373E-1,8.560830951E-1
1.045943478E0,-4.767088592E-1,8.883911371E-1,8.273723722E-1
1.047944844E0,-4.822066426E-1,8.633456230E-1,8.133224845E-1
1.049946177E0,-5.078629851E-1,8.279154897E-1,7.864444256E-1
1.051947510E0,-5.347410440E-1,8.040916920E-1,7.565120459E-1
1.053944043E0,-5.487909317E-1,7.992047668E-1,7.424620986E-1
1.055945376E0,-5.823885202E-1,7.912635207E-1,7.210818529E-1
1.057952042E0,-6.104883552E-1,7.857657671E-1,6.984797716E-1
1.059953408E0,-6.233165264E-1,7.839331627E-1,6.868733764E-1
1.061956074E0,-6.483619809E-1,7.772136331E-1,6.667148471E-1
1.063957407E0,-6.611902118E-1,7.711049914E-1,6.581627131E-1
1.065958773E0,-6.795161366E-1,7.607202530E-1,6.392259002E-1
1.067960106E0,-6.874573231E-1,7.509464025E-1,6.276194453E-1
1.069960272E0,-7.027289867E-1,7.320095897E-1,6.111261249E-1
1.071961638E0,-7.112811208E-1,7.136836648E-1,5.885240436E-1
1.073962538E0,-7.137245536E-1,7.045207024E-1,5.756959319E-1
1.075963871E0,-7.216658592E-1,6.904707551E-1,5.482069850E-1
1.077963737E0,-7.241092324E-1,6.819186211E-1,5.182746053E-1
1.079965070E0,-7.247201800E-1,6.751991510E-1,5.005594492E-1
1.081966403E0,-7.265527248E-1,6.745882630E-1,4.681836367E-1
1.083967736E0,-7.283853292E-1,6.721447706E-1,4.516902566E-1
1.085969069E0,-7.247201800E-1,6.697013378E-1,4.193143845E-1
1.087970402E0,-7.228875756E-1,6.806969047E-1,3.912146091E-1
1.089977468E0,-7.204440832E-1,6.825295687E-1,3.747212291E-1
1.091978801E0,-7.228875756E-1,7.014663219E-1,3.502866328E-1
1.093979934E0,-7.228875756E-1,7.149053812E-1,3.374584615E-1
1.095974867E0,-7.259418964E-1,7.417834401E-1,3.160781860E-1
1.097982600E0,-7.344939709E-1,7.784353495E-1,3.032500148E-1
1.099983966E0,-7.393808961E-1,7.967612743E-1,2.965304852E-1
1.101985299E0,-7.418243289E-1,8.334131837E-1,2.898109853E-1
1.103986632E0,-7.399917841E-1,8.486848474E-1,2.879783511E-1
1.105987998E0,-7.338831425E-1,8.798390031E-1,2.843131721E-1
1.107989331E0,-7.112811208E-1,9.042736292E-1,2.818697095E-1
1.109990664E0,-6.972311735E-1,9.152691364E-1,2.837023139E-1
1.111992030E0,-6.538597941E-1,9.317625165E-1,2.849240303E-1
1.113993363E0,-5.927732587E-1,9.452015162E-1,2.867566645E-1
1.115994696E0,-5.579538941E-1,9.543645382E-1,2.934761643E-1
1.117990729E0,-4.797631800E-1,9.751339555E-1,3.050826192E-1
1.119992062E0,-4.370026290E-1,9.922382236E-1,3.142455816E-1
1.121989195E0,-3.484271467E-1,1.038663983E0,3.301280737E-1
1.123990561E0,-2.531321645E-1,1.110135078E0,3.417344987E-1
1.125995427E0,-2.012086362E-1,1.150452256E0,3.472323120E-1
1.127996760E0,-1.059136540E-1,1.236584187E0,3.606713116E-1
1.129998126E0,-5.704443157E-2,1.281788349E0,3.680016994E-1
1.131999459E0,3.702881932E-2,1.373418093E0,3.747212291E-1
1.133997325E0,1.274368763E-1,1.472989082E0,3.808299005E-1
1.136002325E0,1.689757109E-1,1.518193126E0,3.808299005E-1
1.138008058E0,2.477773279E-1,1.603103399E0,3.851059675E-1
1.140009391E0,2.850401103E-1,1.640366197E0,3.857167959E-1
1.142010491E0,3.485701084E-1,1.696565747E0,3.808299005E-1
1.144012091E0,4.096566141E-1,1.717335224E0,3.643365204E-1
1.146013424E0,4.292043149E-1,1.716113567E0,3.588387370E-1
1.148015890E0,4.689105451E-1,1.681905031E0,3.344041109E-1
1.150011490E0,4.951777756E-1,1.607379556E0,2.940870225E-1
1.152015856E0,5.092276335E-1,1.560342908E0,2.714850307E-1
1.154017422E0,5.183905959E-1,1.454663157E0,2.232266515E-1
1.156025355E0,5.214449167E-1,1.367309451E0,1.737465709E-1
1.158020288E0,5.190015435E-1,1.334322810E0,1.480902284E-1
1.160026354E0,5.153362751E-1,1.248190641E0,9.616667777E-2
1.162027687E0,5.153362751E-1,1.188936710E0,6.928861141E-2
1.164028787E0,5.183905959E-1,1.041718245E0,1.369987521E-2
1.166030120E0,5.244992971E-1,9.543645382E-1,-1.623252220E-2
1.168031753E0,5.434361100E-1,7.460595369E-1,-6.815606356E-2
1.170033119E0,5.752010942E-1,5.066003203E-1,-1.158035547E-1
1.172034452E0,5.916944742E-1,3.893142045E-1,-1.347403824E-1
1.174035785E0,6.320115924E-1,1.626831889E-1,-1.744466275E-1
1.176038118E0,6.503375173E-1,6.066869199E-2,-1.866639256E-1
1.178039451E0,6.912655234E-1,-1.213691458E-1,-2.129311413E-1
1.180040784E0,7.315825820E-1,-2.753071785E-1,-2.257593125E-1
1.182040484E0,7.511302829E-1,-3.363937140E-1,-2.257593125E-1
1.184041817E0,7.883930802E-1,-4.396299422E-1,-2.220941186E-1
1.186039617E0,8.213798404E-1,-5.068251491E-1,-2.178180516E-1
1.188040983E0,8.342079520E-1,-5.306488872E-1,-2.141528577E-1
1.190042316E0,8.629186153E-1,-5.581378341E-1,-1.994920969E-1
1.192047082E0,8.720815778E-1,-5.721876621E-1,-1.903291196E-1
1.194047282E0,8.959053159E-1,-5.996766090E-1,-1.744466275E-1
1.196050215E0,9.227834344E-1,-6.265546679E-1,-1.610075831E-1
1.198045748E0,9.368333220E-1,-6.326633096E-1,-1.524554789E-1
1.200052948E0,9.722635150E-1,-6.338850856E-1,-1.359621137E-1
1.202055281E0,9.912003279E-1,-6.289981604E-1,-1.249665394E-1
1.204056614E0,1.032739162E0,-6.137265563E-1,-1.011427939E-1
1.206057980E0,1.071834564E0,-5.874593258E-1,-6.876692921E-2
1.208064746E0,1.089549661E0,-5.819615722E-1,-5.044097453E-2
1.210066079E0,1.128645062E0,-5.715768337E-1,-7.680409122E-3
1.212064145E0,1.143305779E0,-5.660790205E-1,1.369987521E-2
1.214065478E0,1.176903367E0,-5.721876621E-1,6.684515625E-2
1.216060211E0,1.201338053E0,-5.874593258E-1,1.267099530E-1
1.218061577E0,1.211111784E0,-5.935679674E-1,1.590857953E-1
1.220064210E0,1.220885634E0,-6.125048399E-1,2.281135768E-1
1.222065543E0,1.208668351E0,-6.320524812E-1,2.995848060E-1
1.224069209E0,1.199505329E0,-6.387720108E-1,3.368476033E-1
1.226070542E0,1.162853479E0,-6.442697644E-1,4.150383174E-1
1.228072508E0,1.140251517E0,-6.430481076E-1,4.504685402E-1
1.230073841E0,1.086495399E0,-6.399937272E-1,5.188854337E-1
1.232077974E0,1.015634894E0,-6.100613475E-1,5.885240436E-1
1.234079307E0,9.789830446E-1,-5.941788554E-1,6.196781993E-1
1.236079673E0,8.971270919E-1,-5.691333413E-1,6.777104139E-1
1.238081006E0,8.543665409E-1,-5.489748120E-1,7.051993608E-1
1.240082339E0,7.645693421E-1,-5.178206563E-1,7.516250610E-1
1.242084505E0,6.766047478E-1,-4.799470603E-1,7.956073880E-1
1.244085838E0,6.301789284E-1,-4.603993595E-1,8.108790517E-1
1.246087204E0,5.385491848E-1,-4.231365919E-1,8.347027302E-1
1.248088537E0,4.902908206E-1,-3.987019658E-1,8.426440358E-1
1.250089870E0,3.943849802E-1,-3.394480348E-1,8.530287743E-1
1.252087803E0,2.984791696E-1,-2.508725822E-1,8.621917367E-1
1.254092569E0,2.489990592E-1,-2.032250911E-1,8.591374159E-1
1.256088669E0,1.592018753E-1,-1.036540568E-1,8.536396027E-1
1.258092269E0,7.734592259E-2,-8.969944902E-3,8.456983566E-1
1.260087769E0,4.374833778E-2,3.195802867E-2,8.426440358E-1
1.262088369E0,-1.611645706E-2,1.040401235E-1,8.334810138E-1
1.264089469E0,-3.932933882E-2,1.278638691E-1,8.267615438E-1
1.266094769E0,-7.720298320E-2,1.687918454E-1,8.133224845E-1
1.268089569E0,-1.046919152E-1,1.968916506E-1,7.968291044E-1
1.270093669E0,-1.108005643E-1,2.042220235E-1,7.870553136E-1
1.272095269E0,-1.224070117E-1,2.268240303E-1,7.742270827E-1
1.274097169E0,-1.279048026E-1,2.433173954E-1,7.699510455E-1
1.276098535E0,-1.303482503E-1,2.756932676E-1,7.583445907E-1
1.278101268E0,-1.364569068E-1,3.196755648E-1,7.565120459E-1
1.280096568E0,-1.364569068E-1,3.453319073E-1,7.613989115E-1
1.282100168E0,-1.541720033E-1,4.467355311E-1,7.943856716E-1
1.284099434E0,-1.706653535E-1,5.151523948E-1,8.163768053E-1
1.286104934E0,-2.073172778E-1,6.422123909E-1,8.511961102E-1
1.288105367E0,-2.555756271E-1,7.692723870E-1,8.841828704E-1
1.290112433E0,-2.775667608E-1,8.053134084E-1,8.890697360E-1
1.292110966E0,-3.050557375E-1,8.089786172E-1,8.707438111E-1
1.294117132E0,-3.239925504E-1,7.784353495E-1,8.475309610E-1
1.296118465E0,-3.325446546E-1,7.509464025E-1,8.377570510E-1
1.298119798E0,-3.374315798E-1,7.087966800E-1,8.261506557E-1
1.300121164E0,-3.386533260E-1,6.868055463E-1,8.200420141E-1
1.302121664E0,-3.374315798E-1,6.532080173E-1,8.127115965E-1
1.304122997E0,-3.282685876E-1,6.275516152E-1,8.066029549E-1
1.306124330E0,-3.233816922E-1,6.202212572E-1,8.127115965E-1
1.308125663E0,-3.123860955E-1,6.244972944E-1,8.347027302E-1
1.310131229E0,-3.020014167E-1,6.269407868E-1,8.493635058E-1
1.312132562E0,-2.916166782E-1,6.678687930E-1,9.110609293E-1
1.314135495E0,-2.879514694E-1,7.619420290E-1,9.978037477E-1
1.316136861E0,-2.885623574E-1,8.083677292E-1,1.042397022E0
1.318135961E0,-2.885623574E-1,8.969432116E-1,1.119365931E0
1.320137294E0,-2.897840738E-1,9.348168373E-1,1.151741862E0
1.322138660E0,-2.922275364E-1,9.946816564E-1,1.187782884E0
1.324140260E0,-2.977253497E-1,1.044161797E0,1.192058921E0
1.326138126E0,-3.013905287E-1,1.064931154E0,1.185950279E0
1.328139492E0,-3.172730207E-1,1.102193952E0,1.156628728E0
1.330138092E0,-3.264360130E-1,1.115022063E0,1.130361557E0
1.332139425E0,-3.453728259E-1,1.128461123E0,1.072329402E0
1.334140225E0,-3.630879223E-1,1.133347988E0,1.010021091E0
1.336141558E0,-3.710291684E-1,1.128461123E0,9.837539196E-1
1.338141491E0,-3.820247352E-1,1.094863534E0,9.299977422E-1
1.340142857E0,-3.875225186E-1,1.049659491E0,8.872371912E-1
1.342141957E0,-3.899659812E-1,1.019116282E0,8.713546991E-1
1.344145623E0,-3.924094439E-1,9.592514634E-1,8.469200730E-1
1.346142823E0,-3.948529065E-1,9.415363669E-1,8.420331478E-1
1.348146289E0,-3.979072273E-1,9.238212705E-1,8.511961102E-1
1.350141889E0,-4.046267271E-1,9.427581429E-1,8.737981319E-1
1.352147289E0,-4.064593613E-1,9.568079710E-1,8.890697360E-1
1.354143822E0,-4.180657864E-1,9.861295223E-1,9.238891006E-1
1.356147988E0,-4.333374202E-1,1.019116282E0,9.587084055E-1
1.358149354E0,-4.412786663E-1,1.036831260E0,9.770343900E-1
1.360150687E0,-4.602154791E-1,1.063709497E0,1.008188486E0
1.362152020E0,-4.669350088E-1,1.080813646E0,1.021627545E0
1.364159553E0,-4.828175008E-1,1.110135078E0,1.044229507E0
1.366160886E0,-4.913696349E-1,1.121741533E0,1.049116492E0
1.368164552E0,-5.109173059E-1,1.143121958E0,1.055835962E0
1.370161685E0,-5.304649472E-1,1.151063085E0,1.055835962E0
1.372163151E0,-5.402388573E-1,1.154117465E0,1.050338149E0
1.374159451E0,-5.555105209E-1,1.139456630E0,1.039342642E0
1.376162784E0,-5.628408790E-1,1.124185085E0,1.027125359E0
1.378164117E0,-5.634517074E-1,1.107080817E0,1.019794941E0
1.380169350E0,-5.518452525E-1,1.080202818E0,1.007577658E0
1.382170683E0,-5.408497453E-1,1.067374587E0,1.002079844E0
1.384172016E0,-5.103064179E-1,1.044161797E0,9.947494268E-1
1.386172882E0,-4.803740680E-1,1.031944513E0,9.990255237E-1
1.388174215E0,-4.608263671E-1,1.024003148E0,1.001469016E0
1.390175548E0,-4.223418534E-1,1.011175036E0,1.005745053E0
1.392181281E0,-3.777486980E-1,1.004455447E0,1.011242747E0
1.394182614E0,-3.539249301E-1,9.965142012E-1,1.008799434E0
1.396183947E0,-3.032231033E-1,9.696361423E-1,9.941385984E-1
1.398185313E0,-2.793993950E-1,9.531428218E-1,9.794778228E-1
1.400192479E0,-2.256432325E-1,9.268755913E-1,9.501563311E-1
1.402193812E0,-2.005977631E-1,9.061061740E-1,9.428259134E-1
1.404197778E0,-1.413438320E-1,8.401327729E-1,9.440476894E-1
1.406199111E0,-8.819855750E-2,7.527790070E-1,9.434367418E-1
1.408204844E0,-6.987259537E-2,7.228466272E-1,9.324412346E-1
1.410206210E0,-6.193134934E-2,7.161270976E-1,8.841828704E-1
1.412205110E0,-8.758769184E-2,7.570550442E-1,7.882769704E-1
1.414206443E0,-1.193526834E-1,7.735484838E-1,7.241361737E-1
1.416204976E0,-2.103716135E-1,7.937069535E-1,5.720307231E-1
1.418206309E0,-2.665711939E-1,7.985939384E-1,4.962834120E-1
1.420207642E0,-3.808030188E-1,8.230285048E-1,3.502866328E-1
1.422209008E0,-4.724327922E-1,8.584586978E-1,2.281135768E-1
1.424207274E0,-5.011434555E-1,8.749520779E-1,1.755791605E-1
1.426208607E0,-5.249672532E-1,9.079387784E-1,8.700370789E-2
1.428208540E0,-5.213019848E-1,9.042736292E-1,5.279524997E-2
1.430209873E0,-5.048086643E-1,8.682325482E-1,1.125641353E-2
1.432211073E0,-4.706001878E-1,7.839331627E-1,6.980357226E-3
1.434212439E0,-4.541068375E-1,7.265117764E-1,1.736506633E-2
1.436211772E0,-4.205092490E-1,5.994518399E-1,5.890390277E-2
1.438213105E0,-4.040158987E-1,5.408087969E-1,8.517111093E-2
1.440210571E0,-3.606444597E-1,4.583419859E-1,1.468684971E-1
1.442211904E0,-3.215490580E-1,4.644506276E-1,2.018463761E-1
1.444218604E0,-3.081100583E-1,4.943830371E-1,2.171179950E-1
1.446219937E0,-3.050557375E-1,5.304240584E-1,2.177288681E-1
1.448221270E0,-3.386533260E-1,5.243154168E-1,1.755791605E-1
1.450225170E0,-3.655313849E-1,5.200393796E-1,1.499228179E-1
1.452222136E0,-4.125680029E-1,5.347001553E-1,9.738840908E-2
1.454224836E0,-4.186766744E-1,5.737954974E-1,7.845158875E-2
1.456226202E0,-3.985180855E-1,6.959685683E-1,4.546486586E-2
1.458228735E0,-3.264360130E-1,7.992047668E-1,1.919766143E-2
1.460224235E0,-2.812319696E-1,8.193633556E-1,1.186727919E-2
1.462230701E0,-1.749414206E-1,7.985939384E-1,1.858679764E-2
1.464227101E0,-1.254613400E-1,7.527790070E-1,3.263669461E-2
1.466228434E0,-3.444241360E-2,6.208320856E-1,7.661899924E-2
1.468223267E0,3.580708802E-2,4.528441727E-1,1.383163929E-1
1.470224600E0,5.779823661E-2,3.703773916E-1,1.706922501E-1
1.472224333E0,9.383928776E-2,2.280457765E-1,2.372765541E-1
1.474228266E0,1.317129433E-1,1.217552200E-1,3.038608730E-1
1.476229599E0,1.567584127E-1,8.693590015E-2,3.466214240E-1
1.478233399E0,2.129580081E-1,4.600792751E-2,4.406946599E-1
1.480234765E0,2.367817461E-1,3.317975625E-2,4.822335243E-1
1.482236098E0,2.807640433E-1,6.555561721E-2,5.585916638E-1
1.484234331E0,2.880944312E-1,1.926155835E-1,6.300629377E-1
1.486235697E0,2.777097225E-1,2.995170057E-1,6.777104139E-1
1.488236130E0,2.386143506E-1,5.108763576E-1,7.882769704E-1
1.490240430E0,2.105145454E-1,5.994518399E-1,8.334810138E-1
1.492241796E0,1.353781223E-1,7.356747985E-1,8.835719824E-1
1.494243929E0,5.168958381E-2,8.309698105E-1,8.982326984E-1
1.496245262E0,1.748113148E-2,8.731194735E-1,8.915132284E-1
1.498246628E0,-2.833376266E-2,9.225995541E-1,8.524178267E-1
1.500247961E0,-4.910317808E-2,9.335951805E-1,8.182094097E-1
1.502249294E0,-6.742914021E-2,8.957214952E-1,7.290230989E-1
1.504245594E0,-8.880942315E-2,7.778244615E-1,6.288411617E-1
1.506246927E0,-1.095788404E-1,6.990228891E-1,5.873023868E-1
1.508248027E0,-1.321808398E-1,5.023242831E-1,5.103332996E-1
1.510250027E0,-1.670001745E-1,3.062365055E-1,4.431381524E-1
1.512251360E0,-1.889913231E-1,2.286566347E-1,4.254230559E-1
1.514251326E0,-2.164802551E-1,1.278638691E-1,4.107623100E-1
1.516252659E0,-2.195345908E-1,9.609887749E-2,4.150383174E-1
1.518252792E0,-2.305301577E-1,7.044253498E-2,4.492467940E-1
1.520254125E0,-2.378605306E-1,8.571416140E-2,4.981160164E-1
1.522250358E0,-2.476343811E-1,1.015966609E-1,5.207180381E-1
1.524251691E0,-2.531321645E-1,1.413028985E-1,5.598134398E-1
1.526256591E0,-2.525213063E-1,1.639049202E-1,5.732524395E-1
1.528257924E0,-2.714581192E-1,2.243805826E-1,5.848588943E-1
1.530261657E0,-2.891732156E-1,2.750824094E-1,5.811936855E-1
1.532263023E0,-2.995579243E-1,2.891322970E-1,5.726416111E-1
1.534261789E0,-3.239925504E-1,3.135668933E-1,5.469852090E-1
1.536262989E0,-3.349881172E-1,3.141777515E-1,5.317136049E-1
1.538264955E0,-3.753052354E-1,3.074582517E-1,4.944508374E-1
1.540266288E0,-4.107353985E-1,2.787475884E-1,4.687944949E-1
1.542267621E0,-4.412786663E-1,2.732497752E-1,4.590206444E-1
1.544274354E0,-4.712110460E-1,2.451499999E-1,4.498576522E-1
1.546275687E0,-4.828175008E-1,2.311000973E-1,4.504685402E-1
1.548280187E0,-5.011434555E-1,2.249914408E-1,4.657401443E-1
1.550278587E0,-4.913696349E-1,2.286566347E-1,4.999486208E-1
1.552279920E0,-4.883152843E-1,2.396522015E-1,5.207180381E-1
1.554280453E0,-4.767088592E-1,2.781367302E-1,5.708089471E-1
1.556284619E0,-4.516634047E-1,3.422775567E-1,6.215108037E-1
1.558285952E0,-4.351700246E-1,3.795403540E-1,6.477780342E-1
1.560291985E0,-4.205092490E-1,4.974373579E-1,6.966472268E-1
1.562293351E0,-4.192875028E-1,5.542477965E-1,7.180275321E-1
1.564299984E0,-4.302830696E-1,6.556514502E-1,7.473490834E-1
1.566301317E0,-4.706001878E-1,7.350639105E-1,7.668967247E-1
1.568308283E0,-5.011434555E-1,7.540007234E-1,7.711727619E-1
1.570306416E0,-5.823885202E-1,7.918744087E-1,7.864444256E-1
1.572307882E0,-6.214838624E-1,8.126438260E-1,7.913313508E-1
1.574309248E0,-6.874573231E-1,8.969432116E-1,8.121007681E-1
1.576314614E0,-7.289962173E-1,1.030722618E0,8.414223194E-1
1.578315947E0,-7.577068210E-1,1.098528743E0,8.585264683E-1
1.580317113E0,-8.249020576E-1,1.172443509E0,8.915132284E-1
1.582318446E0,-8.639974594E-1,1.198099732E0,9.122826457E-1
1.584319779E0,-9.287491441E-1,1.267738461E0,9.599301219E-1
1.586317579E0,-9.177535176E-1,1.437559009E0,1.046062112E0
1.588318912E0,-8.664408326E-1,1.576836228E0,1.096153021E0
1.590317845E0,-7.143354416E-1,1.892042756E0,1.176176429E0
1.592322545E0,-5.610082150E-1,2.115008593E0,1.200000167E0
1.594323878E0,-4.883152843E-1,2.190755844E0,1.204276204E0
1.596328611E0,-3.991289735E-1,2.180981874E0,1.180452466E0
1.598326877E0,-3.948529065E-1,2.089963198E0,1.153574467E0
1.600328210E0,-4.302830696E-1,1.778421760E0,1.070496678E0
1.602329576E0,-5.121390224E-1,1.388078809E0,9.703148007E-1
1.604325542E0,-5.555105209E-1,1.193212867E0,9.165587425E-1
1.606326875E0,-6.269816756E-1,8.468522429E-1,8.188202381E-1
1.608325075E0,-6.569141150E-1,7.081858516E-1,7.778922915E-1
1.610326408E0,-6.874573231E-1,4.723918736E-1,7.064210773E-1
1.612329308E0,-7.045615911E-1,2.616433799E-1,6.728234887E-1
1.614330674E0,-7.094484568E-1,1.590179950E-1,6.697691679E-1
1.616329207E0,-7.021180987E-1,3.247359768E-3,6.844299436E-1
1.618330540E0,-6.917334199E-1,-5.111964792E-2,7.039775848E-1
1.620327206E0,-6.581358314E-1,-1.311429888E-1,7.534577250E-1
1.622328539E0,-6.074340343E-1,-1.598536670E-1,8.200420141E-1
1.624324272E0,-5.762798786E-1,-1.629079878E-1,8.493635058E-1
1.626325638E0,-5.103064179E-1,-1.519124210E-1,9.153369665E-1
1.628321604E0,-4.425003827E-1,-1.256452054E-1,9.806995988E-1
1.630322937E0,-4.070702195E-1,-1.103735715E-1,1.011853695E0
1.632330737E0,-3.380424380E-1,-8.960415423E-2,1.087600946E0
1.634332070E0,-3.013905287E-1,-7.860857993E-2,1.126696467E0
1.636329370E0,-2.268649638E-1,-5.173050985E-2,1.207330585E0
1.638331236E0,-1.480633616E-1,-4.693888593E-3,1.289797306E0
1.640332769E0,-1.022484601E-1,1.607552916E-2,1.327060223E0
1.642333935E0,-1.367299631E-2,6.922080368E-2,1.402807474E0
1.644335301E0,3.825055063E-2,9.243368357E-2,1.440070152E0
1.646341434E0,1.365998536E-1,1.284747273E-1,1.508487225E0
1.648342767E0,2.160123289E-1,1.132031009E-1,1.545139074E0
1.650345667E0,2.392252237E-1,6.983166933E-2,1.546971679E0
1.652343633E0,2.398360819E-1,-6.089349091E-2,1.523758769E0
1.654346399E0,2.044059038E-1,-2.465965301E-1,1.476722121E0
1.656344499E0,1.836364716E-1,-3.626609147E-1,1.452287436E0
1.658347065E0,1.103326529E-1,-5.917354226E-1,1.394866228E0
1.660348398E0,8.162198216E-2,-7.120758891E-1,1.367377162E0
1.662354864E0,2.053545788E-2,-9.093853235E-1,1.324616671E0
1.664356197E0,-2.161424421E-2,-1.049273491E0,1.306290746E0
1.666357563E0,-3.505327925E-2,-1.100586176E0,1.304458141E0
1.668358896E0,-6.559654325E-2,-1.163505197E0,1.312399387E0
1.670360229E0,-7.292692363E-2,-1.175722480E0,1.320340633E0
1.672360029E0,-9.247461706E-2,-1.179998636E0,1.333168864E0
1.674361362E0,-8.636596054E-2,-1.156785727E0,1.344775319E0
1.676362695E0,-9.491807222E-2,-1.128075123E0,1.341720939E0
1.678364061E0,-9.552893788E-2,-1.066988468E0,1.334390521E0
1.680365394E0,-9.919413179E-2,-1.040110469E0,1.323395014E0
1.682366727E0,-1.144657582E-1,-9.796348214E-1,1.300182104E0
1.684368827E0,-1.431764215E-1,-9.197700024E-1,1.264140964E0
1.686374293E0,-1.676110327E-1,-8.751769066E-1,1.248869419E0
1.688375626E0,-2.073172778E-1,-7.731623650E-1,1.206108928E0
1.690379926E0,-2.574082315E-1,-6.338850856E-1,1.151741862E0
1.692374692E0,-2.800102532E-1,-5.703551173E-1,1.124863744E0
1.694375792E0,-3.362098336E-1,-4.365756214E-1,1.074162006E0
1.696377158E0,-3.618661761E-1,-3.760999441E-1,1.046672940E0
1.698377991E0,-4.211201072E-1,-2.661442161E-1,9.971929193E-1
1.700379324E0,-4.870935678E-1,-1.757361591E-1,9.550431967E-1
1.702380857E0,-5.206911564E-1,-1.451929063E-1,9.379389882E-1
1.704382190E0,-5.836102962E-1,-9.815627337E-2,9.098391533E-1
1.706378723E0,-6.434750557E-1,-7.616512477E-2,8.872371912E-1
1.708380089E0,-6.734074950E-1,-7.494339347E-2,8.829610944E-1
1.710379889E0,-7.363265753E-1,-9.265848249E-2,8.719655275E-1
1.712381222E0,-7.632046342E-1,-1.024323255E-1,8.658568859E-1
1.714386922E0,-8.328432441E-1,-1.293103993E-1,8.554721475E-1
1.716388255E0,-8.633865118E-1,-1.427494287E-1,8.493635058E-1
1.718388355E0,-9.263056517E-1,-1.745144129E-1,8.316484094E-1
1.720389721E0,-9.751748443E-1,-2.093337476E-1,8.011051416E-1
1.722388654E0,-9.953334332E-1,-2.301031649E-1,7.827792168E-1
1.724389987E0,-1.033818007E0,-2.856918871E-1,7.485707402E-1
1.726391787E0,-1.051533103E0,-3.253981471E-1,7.345208526E-1
1.728393120E0,-1.057030916E0,-4.249691665E-1,7.149732113E-1
1.730394453E0,-1.052754760E0,-5.373684168E-1,7.009232640E-1
1.732395786E0,-1.032596231E0,-6.057852507E-1,6.929820776E-1
1.734402786E0,-9.800618291E-1,-7.505603433E-1,6.819864511E-1
1.736404152E0,-9.085905552E-1,-8.898376226E-1,6.636605263E-1
1.738405485E0,-8.639974594E-1,-9.545893669E-1,6.532757282E-1
1.740406818E0,-7.601503134E-1,-1.074319005E0,6.318954825E-1
1.742408184E0,-7.033398151E-1,-1.135405540E0,6.257868409E-1
1.744411084E0,-5.921623707E-1,-1.255135059E0,6.288411617E-1
1.746408284E0,-4.846501052E-1,-1.358982205E0,6.251759529E-1
1.748409650E0,-4.266178906E-1,-1.403575301E0,6.178455949E-1
1.750408050E0,-3.301011920E-1,-1.490318060E0,5.934110284E-1
1.752409383E0,-2.836754322E-1,-1.533078790E0,5.726416111E-1
1.754410983E0,-1.981543005E-1,-1.602717400E0,5.256049633E-1
1.756418916E0,-1.242396086E-1,-1.675410271E0,4.651293159E-1
1.758420249E0,-9.247461706E-2,-1.707786083E0,4.358077645E-1
1.760426315E0,-4.177279770E-2,-1.760320544E0,3.753320873E-1
1.762427648E0,-2.405770682E-2,-1.780479074E0,3.472323120E-1
1.764428981E0,4.042095039E-3,-1.809189796E0,2.892000973E-1
1.766430347E0,1.931372657E-2,-1.806746364E0,2.391091436E-1
1.768434013E0,2.603324503E-2,-1.798804998E0,2.177288681E-1
1.770435346E0,3.886141628E-2,-1.759709716E0,1.780226231E-1
1.772437846E0,5.107872188E-2,-1.699234128E0,1.438141763E-1
1.774433412E0,5.352217704E-2,-1.661971331E0,1.285425425E-1
1.776439812E0,6.085256115E-2,-1.599663138E0,9.799927473E-2
1.778441178E0,5.596563965E-2,-1.566676259E0,8.639283478E-2
1.780442511E0,3.641795367E-2,-1.527580976E0,8.150591701E-2
1.782441111E0,3.431230085E-3,-1.489707232E0,1.016644686E-1
1.784442477E0,-1.794905216E-2,-1.471992135E0,1.157143712E-1
1.786443343E0,-6.559654325E-2,-1.443892479E0,1.419815868E-1
1.788444676E0,-1.040810570E-1,-1.434118509E0,1.535880119E-1
1.790446042E0,-1.975434422E-1,-1.415792584E0,1.700813770E-1
1.792447375E0,-2.726798654E-1,-1.404796958E0,2.091767639E-1
1.794443041E0,-3.050557375E-1,-1.402353525E0,2.305570394E-1
1.796448641E0,-3.753052354E-1,-1.384027600E0,2.800371051E-1
1.798449974E0,-4.070702195E-1,-1.367534280E0,3.093586564E-1
1.800451307E0,-4.571611583E-1,-1.300339103E0,3.881602883E-1
1.802452640E0,-4.889261425E-1,-1.219704866E0,4.700162113E-1
1.804453606E0,-4.993108511E-1,-1.183053017E0,5.146093965E-1
1.806454972E0,-5.219129324E-1,-1.126242399E0,6.031848192E-1
1.808456305E0,-5.463474989E-1,-1.056603909E0,6.667148471E-1
1.810457638E0,-5.610082150E-1,-1.037667036E0,6.929820776E-1
1.812460571E0,-6.117100716E-1,-1.035834432E0,7.302448153E-1
1.814461904E0,-6.398098469E-1,-1.045608282E0,7.412403822E-1
1.816456637E0,-6.941768527E-1,-1.073097110E0,7.595663667E-1
1.818458003E0,-7.424352169E-1,-1.103029490E0,7.522359490E-1
1.820454636E0,-7.656481266E-1,-1.101197004E0,7.412403822E-1
1.822455969E0,-8.096304536E-1,-1.084092736E0,7.113080025E-1
1.824457335E0,-8.273454905E-1,-1.082871079E0,6.972580552E-1
1.826458668E0,-8.493366838E-1,-1.041943073E0,7.045884132E-1
1.828459601E0,-8.554453254E-1,-9.613088369E-1,7.174166441E-1
1.830460967E0,-8.481149077E-1,-9.124396443E-1,7.229144573E-1
1.832461167E0,-8.255128860E-1,-8.116468787E-1,7.174166441E-1
1.834462500E0,-8.053543568E-1,-7.621667981E-1,7.058101892E-1
1.836458800E0,-7.570959926E-1,-6.613740325E-1,6.667148471E-1
1.838460133E0,-6.837921739E-1,-5.703551173E-1,6.092935205E-1
1.840461466E0,-6.453076601E-1,-5.214859247E-1,5.756959319E-1
1.842462832E0,-5.524561405E-1,-4.304669499E-1,5.042246580E-1
1.844464165E0,-4.528850913E-1,-3.559414148E-1,4.284773767E-1
1.846471998E0,-4.015724063E-1,-3.223437965E-1,3.906037211E-1
1.848473364E0,-2.848971486E-1,-2.612572908E-1,3.166890144E-1
1.850477264E0,-2.213671803E-1,-2.362118214E-1,2.812588513E-1
1.852478597E0,-8.636596054E-2,-1.910077780E-1,2.201723307E-1
1.854479963E0,6.085256115E-2,-1.549667418E-1,1.645835936E-1
1.856477029E0,1.384324431E-1,-1.396951079E-1,1.370946467E-1
1.858479629E0,3.021443486E-1,-1.177039593E-1,9.250149131E-2
1.860480995E0,3.821676970E-1,-1.128170416E-1,6.989947706E-2
1.862482328E0,5.391600132E-1,-1.274778098E-1,3.263669461E-2
1.864481728E0,6.766047478E-1,-1.824556738E-1,8.717047167E-4
1.866483061E0,7.389129400E-1,-2.197184563E-1,-1.378906146E-2
1.868484394E0,8.378731608E-1,-3.247872591E-1,-4.005626589E-2
1.870485727E0,8.769685030E-1,-3.889281452E-1,-5.166270584E-2
1.872485493E0,9.368333220E-1,-5.312597156E-1,-6.693433225E-2
1.874486826E0,9.716526270E-1,-7.163519263E-1,-7.426472008E-2
1.876488159E0,9.771504402E-1,-8.140903115E-1,-7.243212312E-2
1.878489492E0,9.716526270E-1,-1.034001827E0,-6.998866051E-2
1.880490825E0,9.417202473E-1,-1.297895670E0,-6.510173529E-2
1.882497491E0,9.178965092E-1,-1.435951114E0,-6.388001144E-2
1.884498824E0,8.696381450E-1,-1.720614433E0,-6.693433225E-2
1.886504324E0,8.470361233E-1,-1.866611242E0,-7.182125747E-2
1.888503757E0,8.061081767E-1,-2.130504847E0,-8.281683177E-2
1.890509057E0,7.560172081E-1,-2.260619164E0,-1.133600995E-1
1.892510390E0,7.291391492E-1,-2.290551424E0,-1.335186511E-1
1.894513523E0,6.698852181E-1,-2.277112484E0,-1.701705605E-1
1.896514856E0,6.411745548E-1,-2.232519627E0,-1.897182465E-1
1.898516189E0,5.831423402E-1,-2.081024885E0,-2.184289247E-1
1.900517555E0,5.171688795E-1,-1.868443727E0,-2.398092002E-1
1.902524455E0,4.854038954E-1,-1.740772963E0,-2.446961254E-1
1.904525788E0,4.224848151E-1,-1.470159650E0,-2.514156401E-1
1.906526021E0,3.632308543E-1,-1.201989770E0,-2.514156401E-1
1.908527354E0,3.345201910E-1,-1.074929833E0,-2.465287149E-1
1.910528254E0,2.746554017E-1,-8.672356009E-1,-2.355331481E-1
1.912529620E0,2.416686714E-1,-7.804927230E-1,-2.294245064E-1
1.914535986E0,1.824147552E-1,-6.369394064E-1,-2.153745890E-1
1.916537319E0,1.292694658E-1,-5.520291924E-1,-1.762792170E-1
1.918541252E0,1.072783172E-1,-5.282053947E-1,-1.524554789E-1
1.920542585E0,6.207429618E-2,-4.781144261E-1,-1.133600995E-1
1.922543918E0,3.886141628E-2,-4.555124640E-1,-9.320154786E-2
1.924545284E0,-2.677422250E-3,-4.322995543E-1,-6.998866051E-2
1.926547150E0,-4.971404746E-2,-4.048106372E-1,-3.516934440E-2
1.928548483E0,-7.292692363E-2,-3.944258988E-1,-1.501079183E-2
1.930549849E0,-1.217961460E-1,-3.632718027E-1,2.958237007E-2
1.932551182E0,-1.456198841E-1,-3.425023854E-1,4.913005978E-2
1.934552515E0,-1.914347857E-1,-3.040178418E-1,8.883630484E-2
1.936553615E0,-2.348062098E-1,-2.600355446E-1,1.199904233E-1
1.938554948E0,-2.519104481E-1,-2.404878736E-1,1.328186095E-1
1.940556281E0,-2.897840738E-1,-1.910077780E-1,1.413707137E-1
1.942552314E0,-3.038339913E-1,-1.708492339E-1,1.425924450E-1
1.944555947E0,-3.392641544E-1,-1.305321306E-1,1.401489824E-1
1.946553113E0,-3.759160638E-1,-8.105204999E-2,1.242664903E-1
1.948554446E0,-3.875225186E-1,-4.806531966E-2,1.102165803E-1
1.950551812E0,-4.150114655E-1,2.157331631E-2,7.051034272E-2
1.952553078E0,-4.308939576E-1,8.999022841E-2,2.713891119E-2
1.954552611E0,-4.345591366E-1,1.241986752E-1,7.591222413E-3
1.956556744E0,-4.351700246E-1,1.785656959E-1,-3.455847874E-2
1.958558110E0,-4.296722412E-1,2.060546279E-1,-5.716049299E-2
1.960559443E0,-4.113462865E-1,2.475934625E-1,-9.686673433E-2
1.962555209E0,-3.911877275E-1,2.915757298E-1,-1.377947032E-1
1.964556575E0,-3.771378100E-1,3.166212142E-1,-1.561206728E-1
1.966552541E0,-3.490380347E-1,3.648795784E-1,-2.019355595E-1
1.968553874E0,-3.319337666E-1,3.905359209E-1,-2.282027602E-1
1.970553107E0,-2.897840738E-1,4.290204346E-1,-2.850132585E-1
1.972554440E0,-2.427474707E-1,4.473464191E-1,-3.454889059E-1
1.974550740E0,-2.158693969E-1,4.449029267E-1,-3.766430020E-1
1.976554106E0,-1.621132493E-1,4.296312928E-1,-4.352860749E-1
1.978551606E0,-1.352351904E-1,4.155814052E-1,-4.597207010E-1
1.980552939E0,-7.781384885E-2,3.832055330E-1,-5.043138266E-1
1.982554305E0,-3.199895471E-2,3.551057577E-1,-5.318027735E-1
1.984555638E0,-8.175210096E-3,3.392232358E-1,-5.446310043E-1
1.986556438E0,2.542237937E-2,3.196755648E-1,-5.611243248E-1
1.988557804E0,5.901996791E-2,3.062365055E-1,-5.751742125E-1
1.990559137E0,7.001554221E-2,3.050147891E-1,-5.812829137E-1
1.992562870E0,9.017409384E-2,2.976844311E-1,-5.880023837E-1
1.994564236E0,9.261755645E-2,3.025713265E-1,-5.849480629E-1
1.996565836E0,9.322842211E-2,3.086799979E-1,-5.794502497E-1
1.998567169E0,8.773063868E-2,3.318928480E-1,-5.776177049E-1
2.000568535E0,8.650889993E-2,3.526622951E-1,-5.776177049E-1
2.002569868E0,7.368073612E-2,4.088618755E-1,-5.776177049E-1
2.004568901E0,6.573949009E-2,4.369616807E-1,-5.745633841E-1
2.006570267E0,4.497006536E-2,5.182067752E-1,-5.690655708E-1
2.008572300E0,1.503766980E-2,6.171669364E-1,-5.605134368E-1
2.010573633E0,2.209499711E-3,6.605383754E-1,-5.544047952E-1
2.012575633E0,-1.855991967E-2,7.417834401E-1,-5.446310043E-1
2.014576999E0,-2.466857061E-2,7.735484838E-1,-5.415766835E-1
2.016578965E0,-3.688587621E-2,8.315806389E-1,-5.330245495E-1
2.018580298E0,-4.971404746E-2,8.761737943E-1,-5.281375647E-1
2.020581631E0,-5.460096896E-2,8.908345103E-1,-5.269159079E-1
2.022582997E0,-6.498567760E-2,9.097713828E-1,-5.226398110E-1
2.024587430E0,-7.292692363E-2,9.109930992E-1,-5.220289230E-1
2.026588763E0,-7.170519233E-2,9.048844576E-1,-5.208072066E-1
2.028593029E0,-6.803999841E-2,8.828933239E-1,-5.165311098E-1
2.030594362E0,-6.376394629E-2,8.688433766E-1,-5.140877366E-1
2.032595695E0,-4.665972292E-2,8.285263181E-1,-4.994269311E-1
2.034597061E0,-2.650116757E-2,7.741593122E-1,-4.481142461E-1
2.036599061E0,-1.245126594E-2,7.472812533E-1,-4.212361872E-1
2.038600394E0,1.320507471E-2,6.965793967E-1,-3.778647482E-1
2.040601760E0,2.725497447E-2,6.733664870E-1,-3.595387936E-1
2.042603093E0,5.535477400E-2,6.244972944E-1,-3.393802345E-1
2.044605093E0,8.650889993E-2,5.695194602E-1,-3.332715631E-1
2.046606459E0,9.872621298E-2,5.432522297E-1,-3.344933093E-1
2.048607792E0,1.280477494E-1,4.980482161E-1,-3.436562717E-1
2.050609125E0,1.457628310E-1,4.730027318E-1,-3.540410101E-1
2.052608091E0,1.824147552E-1,4.100836217E-1,-3.668691814E-1
2.054609424E0,2.208992541E-1,3.239516020E-1,-3.717561066E-1
2.056610757E0,2.392252237E-1,2.714172006E-1,-3.729778230E-1
2.058612123E0,2.819857895E-1,1.608505845E-1,-3.650365770E-1
2.060613456E0,3.229137659E-1,1.003749296E-1,-3.540410101E-1
2.062614789E0,3.424614668E-1,-2.851763368E-2,-3.228868842E-1
2.064616155E0,3.772807717E-1,-1.574102044E-1,-2.831806242E-1
2.066618421E0,3.931632638E-1,-2.184967250E-1,-2.618003488E-1
2.068619054E0,4.230956435E-1,-3.217329383E-1,-2.147637308E-1
2.070620420E0,4.463085234E-1,-3.968693912E-1,-1.628401726E-1
2.072621186E0,4.621910453E-1,-4.194714129E-1,-1.359621137E-1
2.074622519E0,4.854038954E-1,-4.402408004E-1,-7.731904835E-2
2.076620452E0,4.896799624E-1,-4.420734048E-1,-4.616492242E-2
2.078627952E0,4.909017086E-1,-4.359647632E-1,1.064554881E-2
2.080629285E0,4.823495746E-1,-4.225257337E-1,5.279524997E-2
2.082630618E0,4.762409329E-1,-4.109192789E-1,7.234293967E-2
2.084628851E0,4.762409329E-1,-3.968693912E-1,1.010536030E-1
2.086630184E0,4.646344781E-1,-3.932041824E-1,1.267099530E-1
2.088628617E0,4.579149783E-1,-3.925933242E-1,1.383163929E-1
2.090634983E0,4.573041201E-1,-3.852629364E-1,1.639727354E-1
2.092636349E0,4.548606575E-1,-3.803760111E-1,1.755791605E-1
2.094639449E0,4.554714859E-1,-3.779325485E-1,1.939051151E-1
2.096638115E0,4.603584409E-1,-3.718239069E-1,2.110093534E-1
2.098639481E0,4.811278284E-1,-3.608283401E-1,2.513264716E-1
2.100640814E0,5.128928423E-1,-3.596065938E-1,3.056934476E-1
2.102642147E0,5.299970508E-1,-3.797651231E-1,3.392910361E-1
2.104642780E0,5.910836458E-1,-4.139735997E-1,4.138166308E-1
2.106644113E0,6.869894266E-1,-4.243583083E-1,5.146093965E-1
2.108645446E0,7.694562674E-1,-4.084758162E-1,5.720307231E-1
2.110650012E0,1.013191462E0,-3.363937140E-1,7.375751734E-1
2.112651345E0,1.150025249E0,-2.942440212E-1,8.408113718E-1
2.114656745E0,1.329008818E0,-3.003526628E-1,1.011242747E0
2.116658111E0,1.302741528E0,-4.512363970E-1,1.079659700E0
2.118659444E0,1.253872395E0,-5.782963037E-1,1.075994492E0
2.120660777E0,1.142084122E0,-9.826891422E-1,1.052781582E0
2.122664810E0,1.054119468E0,-1.241696000E0,1.029568672E0
2.124666143E0,1.019300103E0,-1.313778043E0,1.023460150E0
2.126668043E0,9.795938730E-1,-1.382805943E0,1.031401396E0
2.128669409E0,9.582136273E-1,-1.369977713E0,1.045451283E0
2.130670742E0,9.123987556E-1,-1.312556386E0,1.068664193E0
2.132672075E0,8.830772042E-1,-1.279569745E0,1.074772835E0
2.134673441E0,8.109950423E-1,-1.210541844E0,1.082714081E0
2.136674807E0,7.254739404E-1,-1.115857840E0,1.067442417E0
2.138672007E0,6.808807850E-1,-1.056603909E0,1.052781582E0
2.140673373E0,6.075769663E-1,-8.990005851E-1,1.016129732E0
2.142674706E0,5.550425649E-1,-7.206279039E-1,9.678714275E-1
2.144676306E0,5.348839760E-1,-6.277764440E-1,9.336629510E-1
2.146677672E0,4.896799624E-1,-4.701732099E-1,8.597482443E-1
2.148680105E0,4.652453661E-1,-4.078649580E-1,8.133224845E-1
2.150676405E0,4.169870019E-1,-2.966874838E-1,7.131405473E-1
2.152677738E0,3.772807717E-1,-2.142206728E-1,6.037957072E-1
2.154677304E0,3.534570038E-1,-1.806230843E-1,5.475960970E-1
2.156679437E0,3.259680867E-1,-1.268669367E-1,4.394729733E-1
2.158680770E0,3.161942363E-1,-9.754540026E-2,3.887711465E-1
2.160683770E0,3.094747365E-1,-4.806531966E-2,2.989739478E-1
2.162685136E0,3.039769232E-1,-2.240898088E-2,2.476612628E-1
2.164686536E0,3.015334904E-1,-2.363071032E-2,2.336113602E-1
2.166687869E0,2.911487818E-1,-2.851763368E-2,2.452178001E-1
2.168689969E0,2.758771479E-1,-4.989791662E-2,2.885892391E-1
2.170688102E0,2.630489469E-1,-5.967175961E-2,3.166890144E-1
2.172689435E0,2.331165671E-1,-8.654982597E-2,3.906037211E-1
2.174686735E0,2.190666646E-1,-9.998887032E-2,4.296990931E-1
2.176691101E0,1.720300466E-1,-1.232017428E-1,5.085007548E-1
2.178692434E0,1.194956303E-1,-1.372516453E-1,5.744741559E-1
2.180693800E0,8.773063868E-2,-1.354190558E-1,6.111261249E-1
2.182692466E0,2.969843522E-2,-1.256452054E-1,6.722126007E-1
2.184693799E0,-1.455691876E-3,-1.103735715E-1,7.027558684E-1
2.186693665E0,-6.620740145E-2,-7.983031124E-2,7.620097995E-1
2.188694998E0,-1.279048026E-1,-3.584801406E-2,8.206529021E-1
2.190696331E0,-1.566154659E-1,-2.057638578E-2,8.493635058E-1
2.192697697E0,-2.158693969E-1,4.469090141E-3,9.086174369E-1
2.194699030E0,-2.439691871E-1,1.118860859E-2,9.446585178E-1
2.196700330E0,-3.038339913E-1,1.485379878E-2,1.011853695E0
2.198699663E0,-3.624770641E-1,2.523850836E-2,1.078438044E0
2.200700996E0,-3.917985857E-1,3.317975625E-2,1.106537819E0
2.202702329E0,-4.437221289E-1,3.745581582E-2,1.163348317E0
2.204704262E0,-4.950348139E-1,4.967311770E-2,1.209774017E0
2.206705595E0,-5.182476640E-1,5.456003919E-2,1.224434853E0
2.208708628E0,-5.591756701E-1,7.105340064E-2,1.250091195E0
2.210709994E0,-5.781124830E-1,8.449243754E-2,1.253756404E0
2.212711094E0,-6.117100716E-1,1.070944518E-1,1.257421494E0
2.214712427E0,-6.410316229E-1,1.058727205E-1,1.272082329E0
2.216712993E0,-6.563032269E-1,1.064835861E-1,1.283077836E0
2.218714326E0,-6.660770774E-1,1.223660782E-1,1.302014589E0
2.220713992E0,-6.648553610E-1,1.480224133E-1,1.325838327E0
2.222715792E0,-6.648553610E-1,1.920047104E-1,1.382037997E0
2.224717125E0,-6.953986287E-1,1.944481879E-1,1.416246414E0
2.226718191E0,-7.210549116E-1,1.871178001E-1,1.427852869E0
2.228720724E0,-7.870283723E-1,1.419137716E-1,1.443735480E0
2.230722057E0,-8.206259608E-1,1.070944518E-1,1.440070152E0
2.232723423E0,-8.939298391E-1,5.089484900E-2,1.422965884E0
2.234724756E0,-9.654010534E-1,2.025628928E-3,1.390590072E0
2.236723056E0,-9.996094704E-1,-1.691119373E-2,1.371653318E0
2.238724422E0,-1.068637371E0,-5.906089395E-2,1.330725312E0
2.240725755E0,-1.105289221E0,-7.860857993E-2,1.310566783E0
2.242726855E0,-1.185923457E0,-1.036540568E-1,1.267806292E0
2.244730488E0,-1.262892485E0,-1.250343472E-1,1.231154323E0
2.246731821E0,-1.298933506E0,-1.354190558E-1,1.214050055E0
2.248733154E0,-1.366739511E0,-1.415277123E-1,1.184728503E0
2.250734520E0,-1.399115324E0,-1.329755932E-1,1.162126541E0
2.252740853E0,-1.417441249E0,-1.268669367E-1,1.156628728E0
2.254742186E0,-1.434545517E0,-1.207582876E-1,1.137691855E0
2.256743552E0,-1.443097711E0,-1.097627133E-1,1.131583214E0
2.258744885E0,-1.449817181E0,-1.097627133E-1,1.113257289E0
2.260752651E0,-1.440043330E0,-1.341973245E-1,1.099207401E0
2.262754017E0,-1.430880427E0,-1.458037496E-1,1.096153021E0
2.264754517E0,-1.415608764E0,-1.848991364E-1,1.083324909E0
2.266755850E0,-1.417441249E0,-2.136097997E-1,1.071718454E0
2.268754416E0,-1.444319487E0,-2.887462080E-1,1.047894716E0
2.270755749E0,-1.531673074E0,-3.993128240E-1,9.984146953E-1
2.272757315E0,-1.571379423E0,-4.628428221E-1,9.776452184E-1
2.274758681E0,-1.598257422E0,-5.673007965E-1,9.611518383E-1
2.276763081E0,-1.540225267E0,-6.528218985E-1,9.721474648E-1
2.278764414E0,-1.490745068E0,-7.004694343E-1,9.837539196E-1
2.280772414E0,-1.380178571E0,-7.731623650E-1,1.014908075E0
2.282773280E0,-1.322757244E0,-8.128685951E-1,1.033844829E0
2.284776313E0,-1.202416778E0,-8.873941898E-1,1.075383663E0
2.286777946E0,-1.085741401E0,-9.387068748E-1,1.113868117E0
2.288778879E0,-1.025876760E0,-9.668066502E-1,1.129750729E0
2.290780212E0,-9.385229349E-1,-1.020562768E0,1.162737370E0
2.292781545E0,-9.067580104E-1,-1.049884319E0,1.173122048E0
2.294782878E0,-8.566670418E-1,-1.112192631E0,1.198167562E0
2.296789478E0,-8.151281476E-1,-1.195881128E0,1.232986927E0
2.298790811E0,-7.998565435E-1,-1.239863396E0,1.254367232E0
2.300797244E0,-7.711458802E-1,-1.322941065E0,1.298349500E0
2.302798844E0,-7.619829178E-1,-1.360814691E0,1.322173238E0
2.304797910E0,-7.497656345E-1,-1.428009868E0,1.374096751E0
2.306799243E0,-7.491547465E-1,-1.475046515E0,1.422355056E0
2.308803343E0,-7.528199553E-1,-1.490929127E0,1.443735480E0
2.310804676E0,-7.650372386E-1,-1.506200671E0,1.480998158E0
2.312801009E0,-7.711458802E-1,-1.504978895E0,1.498713255E0
2.314802375E0,-7.809197307E-1,-1.500702858E0,1.520704508E0
2.316806108E0,-8.004674315E-1,-1.488485575E0,1.534754395E0
2.318807441E0,-8.151281476E-1,-1.482376933E0,1.536586881E0
2.320808407E0,-8.554453254E-1,-1.456720591E0,1.524980426E0
2.322809740E0,-9.006493688E-1,-1.431675076E0,1.514595866E0
2.324814206E0,-9.220296144E-1,-1.416403413E0,1.508487225E0
2.326815572E0,-9.592924118E-1,-1.388303757E0,1.496269822E0
2.328817838E0,-9.745640159E-1,-1.373642921E0,1.491382957E0
2.330819171E0,-9.886139631E-1,-1.343710423E0,1.484663367E0
2.332822304E0,-9.855596423E-1,-1.322941065E0,1.472446084E0
2.334823637E0,-9.825052619E-1,-1.304615140E0,1.465115666E0
2.336821903E0,-9.800618291E-1,-1.249637246E0,1.445567966E0
2.338823269E0,-9.843378663E-1,-1.217872262E0,1.426631212E0
2.340817969E0,-1.011826754E0,-1.129907727E0,1.382037997E0
2.342819302E0,-1.054587364E0,-1.044997454E0,1.330725312E0
2.344818968E0,-1.076578498E0,-1.008956313E0,1.305068970E0
2.346820968E0,-1.124836922E0,-9.338199496E-1,1.251312852E0
2.348820768E0,-1.150493145E0,-9.063310027E-1,1.225045681E0
2.350826701E0,-1.208525419E0,-8.519639969E-1,1.179841638E0
2.352828034E0,-1.262281656E0,-8.043164611E-1,1.141357183E0
2.354834800E0,-1.288548708E0,-7.811036110E-1,1.126696467E0
2.356830900E0,-1.343526602E0,-7.322343588E-1,1.099818230E0
2.358834500E0,-1.400337100E0,-6.797000170E-1,1.069885850E0
2.360830733E0,-1.429047704E0,-6.497675776E-1,1.058279395E0
2.362831799E0,-1.488301754E0,-5.868484378E-1,1.035677433E0
2.364833132E0,-1.521899343E0,-5.550835133E-1,1.021016717E0
2.366835365E0,-1.584207535E0,-4.933860898E-1,9.935277104E-1
2.368833965E0,-1.635520220E0,-4.390190840E-1,9.672604799E-1
2.370837031E0,-1.661787510E0,-4.145844579E-1,9.525997043E-1
2.372838397E0,-1.696606636E0,-3.736564815E-1,9.312194586E-1
2.374840263E0,-1.710045815E0,-3.589957356E-1,9.226673841E-1
2.376839196E0,-1.730815172E0,-3.315068185E-1,9.092283249E-1
2.378840962E0,-1.746697783E0,-3.162351549E-1,8.970110416E-1
2.380836262E0,-1.755249739E0,-3.131808341E-1,8.921240568E-1
2.382837595E0,-1.770521522E0,-3.229546845E-1,8.854045868E-1
2.384835828E0,-1.782738805E0,-3.345611393E-1,8.829610944E-1
2.386839294E0,-1.804118991E0,-3.614391685E-1,8.780742288E-1
2.388839694E0,-1.829775333E0,-4.035888910E-1,8.780742288E-1
2.390843994E0,-1.845046997E0,-4.310778081E-1,8.780742288E-1
2.392843560E0,-1.872535944E0,-4.878883064E-1,8.768524528E-1
2.394846660E0,-1.903690100E0,-5.544725657E-1,8.737981319E-1
2.396848026E0,-1.914074779E0,-5.972331762E-1,8.737981319E-1
2.398850992E0,-1.930568099E0,-6.943607926E-1,8.780742288E-1
2.400852325E0,-1.936065912E0,-7.444517016E-1,8.768524528E-1
2.402854425E0,-1.934844255E0,-8.501313925E-1,8.866263032E-1
2.404855758E0,-1.922016025E0,-9.668066502E-1,9.012870193E-1
2.406856191E0,-1.909187913E0,-1.028504014E0,9.104501009E-1
2.408857557E0,-1.885364175E0,-1.140292406E0,9.275542498E-1
2.410854090E0,-1.876811981E0,-1.187328935E0,9.361063838E-1
2.412855423E0,-1.849933982E0,-1.275904417E0,9.507671595E-1
2.414855389E0,-1.804118991E0,-1.357760429E0,9.556540251E-1
2.416856722E0,-1.780906081E0,-1.390747070E0,9.562649727E-1
2.418855788E0,-1.728371739E0,-1.454887986E0,9.464910626E-1
2.420857154E0,-1.700271964E0,-1.479933500E0,9.397715926E-1
2.422861454E0,-1.638574600E0,-1.534300447E0,9.251108170E-1
2.424862787E0,-1.559162140E0,-1.564843774E0,8.982326984E-1
2.426864753E0,-1.515790701E0,-1.569119692E0,8.829610944E-1
2.428866086E0,-1.429047704E0,-1.547739506E0,8.463091850E-1
2.430865686E0,-1.343526602E0,-1.486042142E0,8.011051416E-1
2.432867019E0,-1.298322678E0,-1.445114136E0,7.748379707E-1
2.434867819E0,-1.204249382E0,-1.328438878E0,7.308556437E-1
2.436869152E0,-1.159045339E0,-1.266130567E0,7.088645101E-1
2.438874152E0,-1.055198193E0,-1.124409914E0,6.642713547E-1
2.440875485E0,-9.464642406E-1,-9.765805006E-1,6.202890873E-1
2.442876851E0,-8.933189511E-1,-9.063310027E-1,6.007413864E-1
2.444878417E0,-7.815306187E-1,-7.670537233E-1,5.622568130E-1
2.446877617E0,-7.259418964E-1,-7.035237551E-1,5.439308882E-1
2.448880050E0,-6.184295416E-1,-5.837941170E-1,5.023920536E-1
2.450878450E0,-5.096955895E-1,-4.787253141E-1,4.669618905E-1
2.452879783E0,-4.614372253E-1,-4.292452335E-1,4.541337192E-1
2.454879383E0,-3.655313849E-1,-3.388371766E-1,4.296990931E-1
2.456881516E0,-3.233816922E-1,-3.003526628E-1,4.211469889E-1
2.458881216E0,-2.427474707E-1,-2.325466275E-1,4.095405638E-1
2.460887282E0,-1.773848832E-1,-1.855099946E-1,4.015993178E-1
2.462887882E0,-1.480633616E-1,-1.690166295E-1,4.028210342E-1
2.464889215E0,-9.919413179E-2,-1.543558836E-1,4.040427506E-1
2.466890815E0,-6.132048368E-2,-1.567993313E-1,4.022101760E-1
2.468892148E0,-4.665972292E-2,-1.653514355E-1,4.077079594E-1
2.470893714E0,-2.833376266E-2,-1.873425841E-1,4.150383174E-1
2.472895080E0,-2.039251477E-2,-2.050576955E-1,4.180926681E-1
2.474892380E0,-1.184040029E-2,-2.368226796E-1,4.217578769E-1
2.476893713E0,-1.184040029E-2,-2.685876787E-1,4.248121977E-1
2.478895079E0,-1.306213159E-2,-2.801941335E-1,4.242013097E-1
2.480896412E0,-1.855991967E-2,-3.101265132E-1,4.174818099E-1
2.482895045E0,-2.039251477E-2,-3.290633261E-1,4.138166308E-1
2.484896411E0,-2.344684117E-2,-3.712130487E-1,4.095405638E-1
2.486896244E0,-2.589030005E-2,-4.225257337E-1,3.979341090E-1
2.488900144E0,-2.711203136E-2,-4.463494420E-1,3.906037211E-1
2.490901510E0,-2.589030005E-2,-5.043816566E-1,3.771646917E-1
2.492907243E0,-2.039251477E-2,-5.746311545E-1,3.618930578E-1
2.494908576E0,-1.733818837E-2,-6.088395715E-1,3.557844162E-1
2.496911142E0,-3.899152856E-3,-6.974151134E-1,3.453996778E-1
2.498908408E0,-8.448266308E-4,-7.389539480E-1,3.472323120E-1
2.500909741E0,1.381593850E-2,-8.293619752E-1,3.588387370E-1
2.502911074E0,2.420064993E-2,-9.148831367E-1,3.838842213E-1
2.504912174E0,3.030930087E-2,-9.503132701E-1,3.997667134E-1
2.506913507E0,4.191574082E-2,-1.004680276E0,4.376403391E-1
2.508914473E0,4.313746840E-2,-1.021173596E0,4.602423608E-1
2.510915806E0,5.352217704E-2,-1.032780170E0,5.054464340E-1
2.512917706E0,6.573949009E-2,-1.018119335E0,5.506504774E-1
2.514919039E0,7.490246743E-2,-1.013232470E0,5.720307231E-1
2.516919572E0,9.383928776E-2,-9.924629927E-1,6.044065356E-1
2.518920938E0,1.060565934E-1,-9.912412763E-1,6.172347665E-1
2.520917571E0,1.304911971E-1,-9.924629927E-1,6.441127658E-1
2.522918937E0,1.604236066E-1,-9.839109182E-1,6.654931307E-1
2.524920303E0,1.726409048E-1,-9.802456498E-1,6.691582799E-1
2.526921636E0,1.995189637E-1,-9.668066502E-1,6.709908843E-1
2.528923936E0,2.117362767E-1,-9.558110833E-1,6.679365039E-1
2.530925302E0,2.239535898E-1,-9.081635475E-1,6.514431834E-1
2.532928402E0,2.288405001E-1,-8.403575420E-1,6.318954825E-1
2.534929735E0,2.282296419E-1,-7.969861031E-1,6.135694981E-1
2.536931101E0,2.208992541E-1,-6.968042254E-1,5.708089471E-1
2.538932434E0,1.989081055E-1,-5.929570794E-1,5.274375677E-1
2.540933767E0,1.909668595E-1,-5.691333413E-1,5.091115832E-1
2.542935967E0,1.628670692E-1,-5.300379992E-1,4.834552705E-1
2.544937300E0,1.427085102E-1,-4.897208810E-1,4.675727487E-1
2.546938633E0,9.689361602E-2,-4.078649580E-1,4.278665185E-1
2.548937433E0,4.313746840E-2,-3.559414148E-1,3.912146091E-1
2.550938766E0,1.870286092E-2,-3.431132138E-1,3.698343337E-1
2.552935699E0,-3.077722341E-2,-3.388371766E-1,3.423453569E-1
2.554937065E0,-5.887702480E-2,-3.412806392E-1,3.313497901E-1
2.556937198E0,-9.552893788E-2,-3.815977573E-1,3.154673278E-1
2.558942831E0,-1.175200865E-1,-4.512363970E-1,3.148564398E-1
2.560944197E0,-1.260721982E-1,-4.848339856E-1,3.197433650E-1
2.562946563E0,-1.358460337E-1,-5.477530956E-1,3.423453569E-1
2.564947896E0,-1.407329738E-1,-5.715768337E-1,3.649473786E-1
2.566955962E0,-1.419546902E-1,-6.198351979E-1,4.168709517E-1
2.568956595E0,-1.370677799E-1,-6.546545029E-1,4.785683155E-1
2.570960695E0,-1.321808398E-1,-6.711478829E-1,5.133876204E-1
2.572961495E0,-1.150766313E-1,-6.937499046E-1,5.818045735E-1
2.574963395E0,-8.942028880E-2,-7.084106207E-1,6.361715794E-1
2.576964728E0,-7.598125190E-2,-7.102432251E-1,6.624388099E-1
2.578966461E0,-3.871847317E-2,-7.151302099E-1,7.021450400E-1
2.580967794E0,-2.161424421E-2,-7.139084339E-1,7.204709649E-1
2.582969094E0,1.442680415E-2,-7.023019791E-1,7.620097995E-1
2.584970294E0,5.901996791E-2,-6.827543378E-1,8.151550889E-1
2.586971627E0,8.162198216E-2,-6.693152189E-1,8.377570510E-1
2.588972027E0,1.188847572E-1,-6.283873320E-1,8.731872439E-1
2.590976360E0,1.365998536E-1,-6.039527059E-1,8.860154152E-1
2.592975926E0,1.610344648E-1,-5.501965284E-1,9.110609293E-1
2.594977292E0,1.811930239E-1,-4.958295524E-1,9.251108170E-1
2.596983858E0,1.854690760E-1,-4.634536803E-1,9.324412346E-1
2.598985191E0,1.763060987E-1,-3.987019658E-1,9.471020103E-1
2.600986557E0,1.640887856E-1,-3.614391685E-1,9.587084055E-1
2.602987057E0,1.317129433E-1,-2.979092002E-1,9.721474648E-1
2.604991323E0,7.673506439E-2,-2.325466275E-1,9.813104272E-1
2.606992689E0,4.130487517E-2,-1.989490390E-1,9.861973524E-1
2.608993755E0,-3.810760379E-2,-1.299212575E-1,9.978037477E-1
2.610995088E0,-1.303482503E-1,-7.066733390E-2,1.005745053E0
2.612996188E0,-1.767740101E-1,-4.012407362E-2,1.003912449E0
2.614997521E0,-2.739015818E-1,1.668639481E-2,9.953603745E-1
2.616998854E0,-3.215490580E-1,3.256889060E-2,9.849755764E-1
2.618995920E0,-4.217309952E-1,7.594032586E-2,9.605410099E-1
2.620997253E0,-5.176368356E-1,1.113705039E-1,9.238891006E-1
2.622997553E0,-5.610082150E-1,1.235878170E-1,9.043414593E-1
2.624998919E0,-6.422533393E-1,1.510767490E-1,8.524178267E-1
2.626993552E0,-6.764618158E-1,1.681809723E-1,8.224854469E-1
2.628994885E0,-7.442678213E-1,2.152176052E-1,7.650641203E-1
2.630993485E0,-7.955805063E-1,2.854670882E-1,7.051993608E-1
2.633001385E0,-8.206259608E-1,3.288385272E-1,6.740452051E-1
2.635002151E0,-8.694951534E-1,4.192465842E-1,6.306737661E-1
2.637003517E0,-8.920972347E-1,4.681158066E-1,6.117369533E-1
2.639004450E0,-9.397447109E-1,5.573021173E-1,5.879132152E-1
2.641005783E0,-9.849487543E-1,6.312168837E-1,5.793610811E-1
2.643007249E0,-1.006939888E0,6.690904498E-1,5.824154019E-1
2.645008715E0,-1.037483096E0,7.283444405E-1,6.099043489E-1
2.647010048E0,-1.063750386E0,7.924852371E-1,6.581627131E-1
2.649011381E0,-1.077800274E0,8.321914673E-1,6.850407720E-1
2.651010247E0,-1.102234840E0,9.189344049E-1,7.485707402E-1
2.653011580E0,-1.117506504E0,9.714687467E-1,7.821683288E-1
2.655015280E0,-1.146217108E0,1.082646251E0,8.560830951E-1
2.657011380E0,-1.183480024E0,1.204208374E0,9.354955554E-1
2.659012746E0,-1.203638554E0,1.265905738E0,9.745908976E-1
2.661014079E0,-1.250675201E0,1.399074435E0,1.061944604E0
2.663017479E0,-1.279385686E0,1.444889307E0,1.106537819E0
2.665015912E0,-1.328865886E0,1.448554516E0,1.227489114E0
2.667023945E0,-1.380178571E0,1.471767426E0,1.371042490E0
2.669025545E0,-1.386898041E0,1.453441381E0,1.447400689E0
2.671033445E0,-1.364906907E0,1.384413719E0,1.608669043E0
2.673035045E0,-1.340472341E0,1.350205183E0,1.699687958E0
2.675038011E0,-1.265946746E0,1.272625327E0,1.895164847E0
2.677039377E0,-1.170040846E0,1.222534418E0,2.099193811E0
2.679041110E0,-1.114452124E0,1.210927963E0,2.200597525E0
2.681042443E0,-9.953334332E-1,1.214593172E0,2.387522221E0
2.683046043E0,-8.811016083E-1,1.254910231E0,2.564673185E0
2.685047376E0,-8.236802816E-1,1.295838237E0,2.648972750E0
2.687050809E0,-7.112811208E-1,1.418622136E0,2.811462641E0
2.689052175E0,-6.636335850E-1,1.507197618E0,2.880490541E0
2.691054475E0,-5.860537291E-1,1.687402844E0,3.008161306E0
2.693049241E0,-5.420714021E-1,1.839508295E0,3.099180222E0
2.695051374E0,-5.304649472E-1,1.877381921E0,3.125447512E0
2.697052707E0,-5.371845365E-1,1.892042756E0,3.139497280E0
2.699055673E0,-5.579538941E-1,1.888988376E0,3.131556034E0
2.701057039E0,-6.220948100E-1,1.810797572E0,3.085741282E0
2.703059005E0,-7.106702328E-1,1.716724396E0,3.003274441E0
2.705061071E0,-7.570959926E-1,1.663579106E0,2.948907375E0
2.707062437E0,-8.468931913E-1,1.544460297E0,2.823069096E0
2.709063770E0,-8.878211379E-1,1.473600030E0,2.747321844E0
2.711066736E0,-9.568489194E-1,1.317829370E0,2.582388163E0
2.713068102E0,-1.005107284E0,1.174886823E0,2.385078907E0
2.715071102E0,-1.019768119E0,1.108302593E0,2.278177261E0
2.717072435E0,-1.020989776E0,9.891838431E-1,2.045437574E0
2.719073768E0,-9.867812991E-1,8.999975324E-1,1.792539477E0
2.721075101E0,-9.629575610E-1,8.694542646E-1,1.666090369E0
2.723076034E0,-9.183644652E-1,8.578478098E-1,1.449233174E0
2.725077367E0,-8.994275928E-1,8.474631310E-1,1.349051237E0
2.727073533E0,-8.786581755E-1,8.102003932E-1,1.158461332E0
2.729074899E0,-8.652191758E-1,7.472812533E-1,9.721474648E-1
2.731071032E0,-8.462823629E-1,7.136836648E-1,8.780742288E-1
2.733072365E0,-8.059651852E-1,6.379363537E-1,7.149732113E-1
2.735072098E0,-7.845849395E-1,5.976192355E-1,6.398367286E-1
2.737073431E0,-7.375483513E-1,5.328675508E-1,4.767357111E-1
2.739074364E0,-6.770726442E-1,5.004916787E-1,3.050826192E-1
2.741075730E0,-6.404207349E-1,4.925504029E-1,2.158962637E-1
2.743074830E0,-5.561213493E-1,5.090438128E-1,4.302140698E-2
2.745081496E0,-4.608263671E-1,5.548586845E-1,-1.194687486E-1
2.747080762E0,-4.070702195E-1,5.829585195E-1,-1.933834404E-1
2.749082095E0,-3.013905287E-1,6.544296741E-1,-3.216651380E-1
2.751082461E0,-2.500778437E-1,6.953576803E-1,-3.784756064E-1
2.753083827E0,-1.596697867E-1,7.784353495E-1,-4.749923050E-1
2.755084793E0,-9.247461706E-2,8.706760406E-1,-5.427983403E-1
2.757086126E0,-6.742914021E-2,9.054952860E-1,-5.690655708E-1
2.759085859E0,-2.833376266E-2,9.256538749E-1,-6.222108006E-1
2.761087192E0,-1.855991967E-2,9.103822708E-1,-6.490889192E-1
2.763087525E0,-8.175210096E-3,8.492957354E-1,-6.967363954E-1
2.765088158E0,5.874691065E-3,7.552224994E-1,-7.456056476E-1
2.767089491E0,1.503766980E-2,6.984120011E-1,-7.688184977E-1
2.769095224E0,3.275276348E-2,5.432522297E-1,-8.121899366E-1
2.771094424E0,4.130487517E-2,4.546767771E-1,-8.280724287E-1
2.773095757E0,6.818294525E-2,2.677520216E-1,-8.488418460E-1
2.775093057E0,1.103326529E-1,8.937935531E-2,-8.580048084E-1
2.777094423E0,1.335455328E-1,4.469090141E-3,-8.567830920E-1
2.779095756E0,1.842473447E-1,-1.513015479E-1,-8.415114880E-1
2.781097089E0,2.068493515E-1,-2.136097997E-1,-8.311267495E-1
2.783096789E0,2.557185888E-1,-3.260090053E-1,-8.189094067E-1
2.785098789E0,3.021443486E-1,-4.048106372E-1,-8.195203543E-1
2.787098589E0,3.204703033E-1,-4.268017709E-1,-8.213528991E-1
2.789099922E0,3.534570038E-1,-3.840411901E-1,-8.176877499E-1
2.791099922E0,3.668960631E-1,-3.730456233E-1,-8.219637871E-1
2.793104655E0,3.693394959E-1,-3.999237120E-1,-8.537287712E-1
2.795105988E0,3.681177795E-1,-5.178206563E-1,-9.123718143E-1
2.797107321E0,3.730047047E-1,-5.899027586E-1,-9.429150820E-1
2.799108687E0,3.846111596E-1,-7.609450817E-1,-1.000336409E0
2.801110020E0,4.011044800E-1,-9.344307780E-1,-1.045540452E0
2.803111353E0,4.108783603E-1,-1.019951940E0,-1.065698981E0
2.805114053E0,4.322586358E-1,-1.173889995E0,-1.094409704E0
2.807115386E0,4.414215982E-1,-1.248415470E0,-1.104794383E0
2.809120486E0,4.658562243E-1,-1.393190503E0,-1.117011666E0
2.811121852E0,4.951777756E-1,-1.539798260E0,-1.109681249E0
2.813129518E0,5.122819543E-1,-1.616156340E0,-1.101129174E0
2.815130451E0,5.434361100E-1,-1.754822850E0,-1.065698981E0
2.817136284E0,5.745902061E-1,-1.884937167E0,-1.007666826E0
2.819137617E0,5.916944742E-1,-1.936860681E0,-9.667388201E-1
2.821138950E0,6.259028912E-1,-2.015051365E0,-8.708329797E-1
2.823140583E0,6.405636668E-1,-2.032766581E0,-8.121899366E-1
2.825141916E0,6.668308973E-1,-2.016884089E0,-6.814647913E-1
2.827143249E0,6.814916134E-1,-1.983897328E0,-6.099935174E-1
2.829146915E0,6.808807850E-1,-1.864167690E0,-4.609424174E-1
2.831148248E0,6.698852181E-1,-1.691903710E0,-3.186108172E-1
2.833149581E0,6.576679349E-1,-1.587445736E0,-2.532482445E-1
2.835150947E0,6.228485703E-1,-1.375475407E0,-1.414598972E-1
2.837152280E0,5.965813398E-1,-1.153120637E0,-4.983011261E-2
2.839153346E0,5.892509818E-1,-1.040110469E0,-1.317819580E-2
2.841160879E0,5.813097358E-1,-8.189772367E-1,3.752361983E-2
2.843162212E0,5.886401534E-1,-7.200170755E-1,5.218438432E-2
2.845162878E0,6.124638915E-1,-5.251510739E-1,6.562341750E-2
2.847164244E0,6.582787633E-1,-3.565522730E-1,5.707130954E-2
2.849165577E0,6.857677102E-1,-2.826375663E-1,4.974092543E-2
2.851168443E0,7.376912832E-1,-1.653514355E-1,4.546486586E-2
2.853166409E0,7.651801705E-1,-1.232017428E-1,5.035179108E-2
2.855167742E0,8.042755723E-1,-6.089349091E-2,8.089505136E-2
2.857169075E0,8.122168183E-1,-4.378926381E-2,1.462576240E-1
2.859170408E0,8.061081767E-1,-5.295224488E-2,1.932942569E-1
2.861171741E0,7.639584541E-1,-9.082589298E-2,3.111912608E-1
2.863173107E0,7.273065448E-1,-1.189256907E-1,3.808299005E-1
2.865167773E0,6.515592933E-1,-2.056685537E-1,5.207180381E-1
2.867169106E0,5.635946393E-1,-2.875244915E-1,6.642713547E-1
2.869166706E0,5.202232003E-1,-3.235655427E-1,7.314665318E-1
2.871174572E0,4.163761437E-1,-3.901498616E-1,8.365353346E-1
2.873169572E0,3.119181693E-1,-4.396299422E-1,9.135044217E-1
2.875170938E0,2.636598349E-1,-4.475711882E-1,9.471020103E-1
2.877167804E0,1.848582178E-1,-4.506255090E-1,1.005134106E0
2.879174637E0,1.066674590E-1,-4.414625168E-1,1.043618679E0
2.881176003E0,7.001554221E-2,-4.390190840E-1,1.064998865E0
2.883177336E0,7.707286626E-3,-4.188605249E-1,1.089433551E0
2.885179336E0,-2.222511172E-2,-4.109192789E-1,1.090655327E0
2.887180702E0,-7.720298320E-2,-3.883172572E-1,1.082714081E0
2.889175335E0,-1.059136540E-1,-3.767108023E-1,1.070496678E0
2.891176668E0,-1.608915180E-1,-3.412806392E-1,1.036288381E0
2.893178034E0,-2.134259343E-1,-2.826375663E-1,9.861973524E-1
2.895180167E0,-2.384714037E-1,-2.380444109E-1,9.599301219E-1
2.897181500E0,-2.885623574E-1,-1.293103993E-1,9.104501009E-1
2.899187800E0,-3.331555128E-1,-8.969944902E-3,8.505852818E-1
2.901182966E0,-3.563684225E-1,6.005782634E-2,8.212637305E-1
2.903184299E0,-3.954637647E-1,2.084980756E-1,7.571228743E-1
2.905185665E0,-4.174549282E-1,2.952409387E-1,7.241361737E-1
2.907186998E0,-4.504416585E-1,4.882743657E-1,6.526648998E-1
2.909188331E0,-4.834283888E-1,6.929142475E-1,5.744741559E-1
2.911192364E0,-4.999217093E-1,7.949287295E-1,5.317136049E-1
2.913193697E0,-5.304649472E-1,9.867404103E-1,4.394729733E-1
2.915195030E0,-5.451257229E-1,1.074705005E0,3.973232508E-1
2.917196396E0,-5.579538941E-1,1.203597546E0,2.983630598E-1
2.919197729E0,-5.530670285E-1,1.254299402E0,1.957377195E-1
2.921199062E0,-5.426822901E-1,1.255521059E0,1.383163929E-1
2.923205095E0,-5.206911564E-1,1.177941322E0,2.041939087E-2
2.925206428E0,-5.090847015E-1,1.111967802E0,-3.883453831E-2
2.927211328E0,-4.822066426E-1,9.366495013E-1,-1.512337327E-1
2.929212661E0,-4.589937627E-1,7.338421345E-1,-2.446961254E-1
2.931207461E0,-4.534959793E-1,6.324385405E-1,-2.795154452E-1
2.933208794E0,-4.510525167E-1,4.436812103E-1,-3.314389884E-1
2.935210127E0,-4.583829045E-1,3.703773916E-1,-3.473214805E-1
2.937211460E0,-4.791523218E-1,2.451499999E-1,-3.522084057E-1
2.939207326E0,-5.164151192E-1,1.663483679E-1,-3.326607049E-1
2.941208659E0,-5.420714021E-1,1.431355029E-1,-3.131130338E-1
2.943209992E0,-6.080448627E-1,1.327507943E-1,-2.581351697E-1
2.945210692E0,-6.862356663E-1,1.468006968E-1,-1.952160299E-1
2.947212025E0,-7.216658592E-1,1.632940471E-1,-1.622293144E-1
2.949213358E0,-7.986348271E-1,2.060546279E-1,-9.075807780E-2
2.951214724E0,-8.316215873E-1,2.298783660E-1,-5.532789603E-2
2.953216057E0,-8.896537423E-1,2.830236554E-1,1.980852708E-2
2.955216590E0,-9.318034649E-1,3.325037360E-1,9.555581957E-2
2.957217956E0,-9.556272030E-1,3.587709367E-1,1.346511990E-1
2.959214622E0,-9.959443212E-1,4.070293009E-1,2.195614576E-1
2.961215955E0,-1.013659477E0,4.265769720E-1,2.598785758E-1
2.963217321E0,-1.051533103E0,4.699483812E-1,3.478431702E-1
2.965218654E0,-1.079632759E0,4.962156117E-1,4.351969063E-1
2.967219987E0,-1.094904542E0,5.084329247E-1,4.779574573E-1
2.969221353E0,-1.127280354E0,5.395870209E-1,5.695872307E-1
2.971218486E0,-1.142552018E0,5.609673262E-1,6.154021621E-1
2.973219819E0,-1.179814696E0,6.159452200E-1,7.045884132E-1
2.975221185E0,-1.210358024E0,6.843621135E-1,7.956073880E-1
2.977222518E0,-1.224407911E0,7.222357988E-1,8.395896554E-1
2.979223851E0,-1.243955612E0,7.894309163E-1,9.190021753E-1
2.981225217E0,-1.253729463E0,8.535717726E-1,9.978037477E-1
2.983221850E0,-1.251286030E0,8.810607195E-1,1.028957844E0
2.985223183E0,-1.236014366E0,9.250430465E-1,1.085768461E0
2.987220983E0,-1.218299270E0,9.354277253E-1,1.110203028E0
2.989222316E0,-1.178593040E0,9.488667846E-1,1.156017780E0
2.991223649E0,-1.115062952E0,9.372603297E-1,1.193891525E0
2.993225015E0,-1.079021931E0,9.219887257E-1,1.208552241E0
2.995226348E0,-9.959443212E-1,8.773955107E-1,1.239095569E0
2.997227681E0,-9.550163746E-1,8.468522429E-1,1.253145456E0
2.999229014E0,-8.725495338E-1,7.796571255E-1,1.281856060E0
3.001230347E0,-7.955805063E-1,7.057423592E-1,1.313010216E0
3.003232213E0,-7.589285970E-1,6.697013378E-1,1.330114484E0
3.005233546E0,-6.880682111E-1,5.927323103E-1,1.365544677E0
3.007234879E0,-6.556923985E-1,5.566912889E-1,1.381427169E0
3.009236245E0,-5.909406543E-1,5.041568875E-1,1.416857243E0
3.011237578E0,-5.286324024E-1,4.632288814E-1,1.438237667E0
3.013238911E0,-4.944239557E-1,4.461246729E-1,1.434572339E0
3.015240277E0,-4.186766744E-1,4.394051433E-1,1.405250907E0
3.017241610E0,-3.288794458E-1,4.577310979E-1,1.325838327E0
3.019242943E0,-2.787885070E-1,4.681158066E-1,1.265362740E0
3.021244309E0,-1.670001745E-1,5.029351115E-1,1.115090013E0
3.023245642E0,-1.126331612E-1,5.224828124E-1,1.037510037E0
3.025252108E0,1.015074831E-2,5.328675508E-1,8.786850572E-1
3.027253474E0,1.353781223E-1,5.175958872E-1,7.180275321E-1
3.029258774E0,1.952429265E-1,4.949938953E-1,6.361715794E-1
3.031260107E0,2.997008562E-1,4.339073598E-1,4.657401443E-1
3.033261473E0,3.833894134E-1,3.343363404E-1,2.837023139E-1
3.035262806E0,4.145435393E-1,2.653085589E-1,1.957377195E-1
3.037264139E0,4.420324564E-1,9.121195227E-2,4.546486586E-2
3.039265505E0,4.481411278E-1,-1.446773205E-2,-1.989771239E-2
3.042739468E0,4.524171650E-1,-2.789723873E-1,-1.377947032E-1
3.044740801E0,4.536389112E-1,-4.390190840E-1,-1.903291196E-1
3.046742167E0,4.499737322E-1,-7.694972157E-1,-2.782936990E-1
3.048743500E0,4.218739271E-1,-1.093866587E0,-3.326607049E-1
3.050744833E0,3.968284726E-1,-1.242917776E0,-3.552627265E-1
3.052746199E0,3.320767283E-1,-1.509255052E0,-4.053536654E-1
3.054747532E0,2.447230071E-1,-1.705953598E0,-4.560555220E-1
3.056754298E0,1.946320534E-1,-1.776813984E0,-4.847661853E-1
3.058755664E0,8.040025085E-2,-1.843398333E0,-5.440200567E-1
3.060756997E0,1.748113148E-2,-1.840343952E0,-5.739524961E-1
3.062764797E0,-1.126331612E-1,-1.766429186E0,-6.454237103E-1
3.064765630E0,-2.476343811E-1,-1.630817175E0,-7.248361707E-1
3.066766963E0,-3.184947371E-1,-1.539798260E0,-7.627098560E-1
3.068768296E0,-4.644915462E-1,-1.309502125E0,-8.421223164E-1
3.070769629E0,-5.353519320E-1,-1.171446562E0,-8.751090765E-1
3.072770962E0,-6.850138903E-1,-8.641812801E-1,-9.300869107E-1
3.074772295E0,-8.279563785E-1,-5.245402455E-1,-9.661279917E-1
3.076773628E0,-8.982058764E-1,-3.565522730E-1,-9.807887673E-1
3.078774961E0,-1.026487589E0,-4.195667058E-2,-1.007055998E0
3.080780761E0,-1.141330242E0,2.420956790E-1,-1.032712221E0
3.082782094E0,-1.187145114E0,3.795403540E-1,-1.049205661E0
3.084783427E0,-1.249453425E0,6.782534719E-1,-1.089522719E0
3.086779660E0,-1.262892485E0,8.786172271E-1,-1.120676875E0
3.088780993E0,-1.267779350E0,1.263462424E0,-1.197035074E0
3.090778359E0,-1.257394671E0,1.571949363E0,-1.268506169E0
3.092779725E0,-1.242123008E0,1.694122314E0,-1.289275646E0
3.094781058E0,-1.199362397E0,1.890210032E0,-1.312488556E0
3.096782391E0,-1.170040846E0,1.974509478E0,-1.311266899E0
3.098783757E0,-1.081465483E0,2.100958586E0,-1.281334519E0
3.100785090E0,-9.763966203E-1,2.141275644E0,-1.219637036E0
3.102786423E0,-9.183644652E-1,2.126004219E0,-1.180541635E0
3.104787789E0,-7.986348271E-1,2.008718014E0,-1.080359697E0
3.106789122E0,-7.399917841E-1,1.926862001E0,-1.025381923E0
3.108790455E0,-6.251491308E-1,1.716113567E0,-9.099283814E-1
3.110795555E0,-5.121390224E-1,1.460771799E0,-7.883661985E-1
3.112796888E0,-4.559394121E-1,1.325770617E0,-7.242253423E-1
3.114798221E0,-3.423185050E-1,1.049659491E0,-5.959436893E-1
3.116794154E0,-2.848971486E-1,9.225995541E-1,-5.293593407E-1
3.118795487E0,-1.608915180E-1,6.929142475E-1,-3.974124491E-1
3.120796820E0,-3.138808906E-2,5.059894919E-1,-2.630220950E-1
3.122797020E0,3.397449106E-2,4.277987182E-1,-2.031572908E-1
3.124798353E0,1.775278300E-1,2.940192223E-1,-7.670818269E-2
3.126799686E0,3.192485571E-1,1.810091436E-1,4.363227263E-2
3.128801052E0,3.894980848E-1,1.315290630E-1,1.004427448E-1
3.130802385E0,5.354948640E-1,2.340591326E-2,2.116202116E-1
3.132803718E0,5.965813398E-1,-3.462628648E-2,2.653763294E-1
3.134809884E0,7.163109779E-1,-1.696275026E-1,3.625039458E-1
3.136811217E0,8.177145720E-1,-3.082939088E-1,4.571880400E-1
3.138812550E0,8.629186153E-1,-3.760999441E-1,5.005594492E-1
3.140809450E0,9.374442101E-1,-5.068251491E-1,5.818045735E-1
3.142810783E0,9.655439854E-1,-5.624138713E-1,6.227325201E-1
3.144812116E0,1.018078446E0,-6.491567492E-1,6.935929060E-1
3.146813682E0,1.059006333E0,-7.047454715E-1,7.565120459E-1
3.148815015E0,1.071223617E0,-7.236822844E-1,7.858335376E-1
3.150816381E0,1.088938713E0,-7.517821193E-1,8.426440358E-1
3.152817714E0,1.088938713E0,-7.536146641E-1,8.731872439E-1
3.154819047E0,1.088938713E0,-7.585015893E-1,9.214456081E-1
3.156820413E0,1.062060714E0,-7.749949098E-1,9.574866891E-1
3.158821746E0,1.043123960E0,-7.878231406E-1,9.727582932E-1
3.160823079E0,9.899785519E-1,-8.104251623E-1,1.007577658E0
3.162824445E0,9.209508300E-1,-8.482987881E-1,1.034455657E0
3.164825778E0,8.806337118E-1,-8.654029965E-1,1.048505664E0
3.166827111E0,7.926691175E-1,-8.941137195E-1,1.061944604E0
3.168828477E0,7.419672608E-1,-9.002223611E-1,1.066220760E0
3.170826077E0,6.314007044E-1,-8.806746006E-1,1.047894716E0
3.172827410E0,5.067842007E-1,-7.988187075E-1,9.941385984E-1
3.174828776E0,4.414215982E-1,-7.322343588E-1,9.580975175E-1
3.176830109E0,3.027551770E-1,-5.556943417E-1,8.628025651E-1
3.178831442E0,2.331165671E-1,-4.457385838E-1,8.029377460E-1
3.180832808E0,8.650889993E-2,-1.977273077E-1,6.807647347E-1
3.182828841E0,-6.070962176E-2,8.204897493E-2,5.506504774E-1
3.184832741E0,-1.352351904E-1,2.182719260E-1,4.822335243E-1
3.186834107E0,-2.818428278E-1,4.839983284E-1,3.502866328E-1
3.188835440E0,-3.520923555E-1,6.080039740E-1,2.837023139E-1
3.190836773E0,-4.895370305E-1,8.334131837E-1,1.621401310E-1
3.192838139E0,-6.129318476E-1,1.025224924E0,5.707130954E-2
3.194834672E0,-6.697422266E-1,1.107080817E0,6.369492039E-3
3.196836005E0,-7.717567682E-1,1.237806082E0,-9.075807780E-2
3.198837371E0,-8.530018330E-1,1.336766243E0,-1.793335378E-1
3.200838704E0,-8.933189511E-1,1.375250697E0,-2.263701558E-1
3.202840037E0,-9.617358446E-1,1.421676517E0,-3.131130338E-1
3.204841403E0,-9.922791123E-1,1.429006815E0,-3.528192639E-1
3.206842503E0,-1.035039663E0,1.443056822E0,-4.206252992E-1
3.208844136E0,-1.052143931E0,1.461382747E0,-4.762140512E-1
3.210845469E0,-1.063750386E0,1.460771799E0,-5.073681474E-1
3.212846802E0,-1.077189326E0,1.454052329E0,-5.672329664E-1
3.214848135E0,-1.080854654E0,1.447332740E0,-6.014413834E-1
3.216849468E0,-1.089406729E0,1.418622136E0,-6.588627100E-1
3.218850801E0,-1.088184953E0,1.387467980E0,-7.113971710E-1
3.220852167E0,-1.085130572E0,1.373418093E0,-7.358317971E-1
3.222853500E0,-1.077189326E0,1.340431452E0,-7.926422954E-1
3.224854833E0,-1.066804647E0,1.321494460E0,-8.286833167E-1
3.226856199E0,-1.028931022E0,1.309888005E0,-9.239782691E-1
3.228857532E0,-9.745640159E-1,1.342263937E0,-1.053481698E0
3.230861798E0,-9.421881437E-1,1.348372698E0,-1.126174688E0
3.232863164E0,-8.798799515E-1,1.371585488E0,-1.266673684E0
3.234864497E0,-8.273454905E-1,1.364866018E0,-1.379072905E0
3.236865830E0,-8.114629984E-1,1.347761750E0,-1.419389963E0
3.238867196E0,-7.815306187E-1,1.298281789E0,-1.479865551E0
3.240868529E0,-7.735893726E-1,1.261018872E0,-1.493304729E0
3.242869862E0,-7.742002606E-1,1.182828069E0,-1.487806916E0
3.244868662E0,-8.249020576E-1,1.083257079E0,-1.445657253E0
3.246869995E0,-8.603321910E-1,1.020948887E0,-1.413892269E0
3.248871328E0,-9.287491441E-1,8.932780027E-1,-1.334479690E0
3.250872694E0,-9.421881437E-1,8.364675045E-1,-1.289275646E0
3.252874027E0,-9.537945986E-1,7.460595369E-1,-1.184206963E0
3.254875360E0,-9.446316361E-1,6.550405622E-1,-1.072418571E0
3.256876726E0,-9.250839353E-1,5.908997059E-1,-1.011332035E0
3.258878059E0,-8.291780949E-1,3.196755648E-1,-9.044306278E-1
3.260879392E0,-7.522091269E-1,1.309182048E-1,-8.537287712E-1
3.262880758E0,-5.872754455E-1,-1.965055764E-1,-7.553794384E-1
3.264882091E0,-4.712110460E-1,-3.852629364E-1,-6.460345984E-1
3.266883424E0,-4.302830696E-1,-4.469603300E-1,-5.916675925E-1
3.268884490E0,-3.685857058E-1,-5.642464757E-1,-4.749923050E-1
3.270885823E0,-3.447619677E-1,-6.650392413E-1,-3.601496518E-1
3.272887156E0,-3.545357883E-1,-6.913064122E-1,-3.045608997E-1
3.274888522E0,-4.021832943E-1,-6.980259418E-1,-1.946051717E-1
3.276889855E0,-4.400569499E-1,-6.723695993E-1,-1.439033449E-1
3.278891188E0,-5.170259476E-1,-5.776854753E-1,-5.166270584E-2
3.280892521E0,-6.001036167E-1,-4.353538752E-1,3.508015722E-2
3.282893854E0,-6.428641677E-1,-3.418914974E-1,7.600813359E-2
3.284895187E0,-7.234984040E-1,-1.403059661E-1,1.487011015E-1
3.286896520E0,-7.601503134E-1,-3.462628648E-2,1.822986752E-1
3.288897853E0,-8.303998709E-1,1.779548228E-1,2.427743375E-1
3.290896253E0,-8.963732719E-1,3.691556454E-1,2.983630598E-1
3.292897586E0,-9.238621593E-1,4.601745605E-1,3.227976859E-1
3.294898919E0,-9.733422995E-1,6.257190704E-1,3.631148040E-1
3.296900285E0,-9.928900003E-1,7.032989264E-1,3.826624751E-1
3.298901618E0,-1.015491962E0,8.444088101E-1,4.156492054E-1
3.300902951E0,-1.022211432E0,9.794100523E-1,4.413055480E-1
3.302904317E0,-1.014270306E0,1.037442207E0,4.535228610E-1
3.304905650E0,-9.880030751E-1,1.133958936E0,4.810117781E-1
3.306906983E0,-9.421881437E-1,1.199321508E0,5.152202249E-1
3.308908349E0,-9.146991968E-1,1.216425776E0,5.347679257E-1
3.310909682E0,-8.481149077E-1,1.222534418E0,5.775284767E-1
3.312911015E0,-8.077977896E-1,1.212149620E0,6.044065356E-1
3.314912381E0,-7.161680460E-1,1.163891315E0,6.563301682E-1
3.316913714E0,-6.080448627E-1,1.067985415E0,7.033667564E-1
3.318915047E0,-5.524561405E-1,1.013618469E0,7.247470021E-1
3.320916413E0,-4.290613830E-1,8.792281747E-1,7.693402171E-1
3.322917746E0,-3.630879223E-1,8.089786172E-1,7.888878584E-1
3.324919079E0,-2.274758369E-1,6.599274874E-1,8.292049766E-1
3.326920445E0,-8.942028880E-2,5.023242831E-1,8.725764155E-1
3.328921778E0,-1.794905216E-2,4.284095764E-1,8.915132284E-1
3.330923111E0,1.304911971E-1,2.830236554E-1,9.397715926E-1
3.332924477E0,2.135688812E-1,2.256023139E-1,9.580975175E-1
3.334925810E0,3.693394959E-1,1.138139740E-1,1.000247240E0
3.336927143E0,5.098385215E-1,6.301685702E-3,1.043007851E0
3.338928509E0,5.727576017E-1,-5.417397246E-2,1.061944604E0
3.340933909E0,6.955415606E-1,-1.763470173E-1,1.101650834E0
3.342935242E0,8.018320799E-1,-3.186786175E-1,1.140135407E0
3.344936608E0,8.519230485E-1,-3.950367868E-1,1.157239676E0
3.346937941E0,9.435528517E-1,-5.575269461E-1,1.179841638E0
3.348939274E0,9.838699102E-1,-6.332742572E-1,1.183506846E0
3.350940640E0,1.056562901E0,-7.786601782E-1,1.182285070E0
3.352941973E0,1.123147249E0,-9.161048532E-1,1.170067787E0
3.354943306E0,1.142084122E0,-9.814674258E-1,1.158461332E0
3.356944639E0,1.156133890E0,-1.153731465E0,1.072940230E0
3.358945972E0,1.136586308E0,-1.277126193E0,9.892516732E-1
3.360947305E0,1.020521879E0,-1.609436870E0,6.990907192E-1
3.362948638E0,8.665838242E-1,-1.862945914E0,3.172999024E-1
3.364950271E0,8.171037436E-1,-1.848896146E0,1.425924450E-1
3.366951637E0,7.700671554E-1,-1.572174072E0,-1.536771953E-1
3.368952970E0,7.547954917E-1,-1.349819183E0,-2.770719826E-1
3.370954303E0,7.169218063E-1,-8.446335793E-1,-4.975943267E-1
3.372955669E0,6.320115924E-1,-3.760999441E-1,-7.010124326E-1
3.374960169E0,5.684815645E-1,-1.916186512E-1,-7.975291610E-1
3.376961502E0,4.169870019E-1,8.265984058E-2,-9.685714245E-1
3.378962868E0,2.636598349E-1,2.506477833E-1,-1.107848763E0
3.380969734E0,1.873016655E-1,3.147886395E-1,-1.169546127E0
3.382971067E0,4.680266231E-2,3.880924582E-1,-1.283777952E0
3.384972433E0,-2.039251477E-2,4.015314877E-1,-1.339977503E0
3.386973766E0,-1.291265190E-1,4.229117632E-1,-1.445046425E0
3.388975099E0,-2.329736203E-1,4.430703521E-1,-1.536676168E0
3.390976465E0,-2.775667608E-1,4.632288814E-1,-1.578215003E0
3.392977798E0,-3.636987805E-1,5.212610960E-1,-1.649075270E0
3.394979131E0,-3.997398317E-1,5.664650798E-1,-1.680229545E0
3.396980497E0,-4.675458670E-1,7.026880383E-1,-1.747424722E0
3.398981830E0,-5.194694400E-1,8.890019655E-1,-1.808511138E0
3.400979096E0,-5.377953649E-1,9.989576936E-1,-1.834167480E0
3.402980462E0,-5.530670285E-1,1.209706187E0,-1.884258389E0
3.404981795E0,-5.481801033E-1,1.301946878E0,-1.901362658E0
3.406983128E0,-5.237454772E-1,1.441834927E0,-1.935571194E0
3.408984494E0,-4.724327922E-1,1.549347281E0,-1.963060021E0
3.410985827E0,-4.431112707E-1,1.590886116E0,-1.975277305E0
3.412987160E0,-3.582009971E-1,1.635479212E0,-2.006431580E0
3.414988526E0,-2.427474707E-1,1.626927137E0,-2.039418221E0
3.416989859E0,-1.767740101E-1,1.594551325E0,-2.054079056E0
3.418991192E0,-3.688587621E-2,1.493758559E0,-2.083400488E0
3.420992558E0,3.336362913E-2,1.424119830E0,-2.099282980E0
3.422993891E0,1.934103221E-1,1.235362530E0,-2.138378382E0
3.424994924E0,3.284115195E-1,9.708579183E-1,-2.188469172E0
3.426996257E0,3.870545924E-1,8.065351844E-1,-2.206795454E0
3.429002157E0,4.878473878E-1,4.705592692E-1,-2.234894991E0
3.431003490E0,5.293862224E-1,3.123451769E-1,-2.233673334E0
3.433004823E0,6.130747795E-1,3.317975625E-2,-2.199464798E0
3.435002989E0,6.680526137E-1,-2.557595074E-1,-2.123717546E0
3.437004355E0,6.912655234E-1,-4.023671448E-1,-2.071794271E0
3.439005688E0,7.114240527E-1,-6.638175249E-1,-1.942901492E0
3.441001821E0,7.230305076E-1,-7.774384022E-1,-1.857991219E0
3.443003187E0,7.340260744E-1,-9.350416660E-1,-1.655794859E0
3.445004520E0,7.657910585E-1,-9.991825223E-1,-1.428552985E0
3.447005853E0,7.883930802E-1,-9.985716343E-1,-1.322873235E0
3.449007219E0,8.348188400E-1,-1.015064955E0,-1.150609255E0
3.451008552E0,8.684164286E-1,-1.065766811E0,-1.032101393E0
3.453009885E0,8.788011670E-1,-1.096310019E0,-9.832322001E-1
3.455011251E0,8.904076219E-1,-1.123188138E0,-8.977110386E-1
3.457012584E0,8.983488083E-1,-1.116468668E0,-8.592265844E-1
3.459017817E0,9.093443751E-1,-1.079816818E0,-7.822575569E-1
3.461019183E0,9.325572252E-1,-1.015064955E0,-7.138406634E-1
3.463020516E0,9.551593065E-1,-9.668066502E-1,-6.832973361E-1
3.465021849E0,1.018078446E0,-8.189772367E-1,-6.374824643E-1
3.467023215E0,1.055952072E0,-7.468951344E-1,-6.246542931E-1
3.469024548E0,1.100545168E0,-6.833651662E-1,-6.087718010E-1
3.471031981E0,1.100545168E0,-6.570979357E-1,-6.020523310E-1
3.473033347E0,1.097490788E0,-6.045635343E-1,-6.112152934E-1
3.475034680E0,1.084051847E0,-4.585667849E-1,-7.138406634E-1
3.477036013E0,1.099934340E0,-3.779325485E-1,-8.219637871E-1
3.479037379E0,1.026019692E0,1.541310698E-1,-1.025992751E0
3.481038712E0,1.220885634E0,-1.024323255E-1,-1.164659142E0
3.483040045E0,1.241654992E0,-5.050878227E-2,-1.186039448E0
3.485041411E0,1.316180706E0,1.315290630E-1,-1.141446233E0
3.487042744E0,1.399258256E0,4.308530390E-1,-1.129228950E0
3.489039510E0,1.421249509E0,4.546767771E-1,-1.091355324E0
3.491040876E0,1.432245016E0,3.459427357E-1,-1.016829729E0
3.493042209E0,1.416973352E0,3.208972812E-1,-1.004612446E0
3.495043542E0,1.412697434E0,2.769149840E-1,-9.594084620E-1
3.497044875E0,1.369325876E0,1.950590461E-1,-9.636844993E-1
3.499046208E0,1.335117459E0,2.005568445E-1,-9.704040289E-1
3.501047208E0,1.288691640E0,3.270059526E-1,-9.227565527E-1
3.503048541E0,1.265478849E0,4.381833971E-1,-9.178696275E-1
3.505049874E0,1.295411229E0,7.014663219E-1,-8.677786589E-1
3.507051240E0,1.395593166E0,8.609021902E-1,-7.633207440E-1
3.509052573E0,1.443851471E0,8.444088101E-1,-7.175058126E-1
3.511053906E0,1.535481334E0,6.299951077E-1,-5.403549075E-1
3.513061172E0,1.613672018E0,3.887033463E-1,-3.039500415E-1
3.515062505E0,1.653989077E0,3.001278639E-1,-1.854421943E-1
3.517063838E0,1.740121126E0,1.663483679E-1,8.272764832E-2
3.519064704E0,1.774329543E0,1.235878170E-1,2.024572343E-1
3.521066037E0,1.823809743E0,6.127955765E-2,4.138166308E-1
3.523067370E0,1.846411586E0,1.790812425E-2,6.221216321E-1
3.525068736E0,1.838470459E0,1.485379878E-2,6.966472268E-1
3.527070069E0,1.805483699E0,6.372302026E-2,8.353136778E-1
3.529071402E0,1.775551319E0,1.150356978E-1,9.025087953E-1
3.531066668E0,1.686365008E0,2.463717312E-1,9.910842776E-1
3.533068001E0,1.561748385E0,3.917576671E-1,1.073551059E0
3.535069334E0,1.487222910E0,4.558984935E-1,1.108981252E0
3.537070700E0,1.318013191E0,5.560804009E-1,1.156017780E0
3.539072033E0,1.225161791E0,5.939540267E-1,1.185339332E0
3.541073366E0,1.029684782E0,6.257190704E-1,1.244593382E0
3.543074732E0,8.219906688E-1,5.921214819E-1,1.302014589E0
3.545076065E0,7.157001495E-1,5.566912889E-1,1.345386147E0
3.547077398E0,5.171688795E-1,4.876635075E-1,1.411359549E0
3.549078764E0,4.218739271E-1,4.473464191E-1,1.445567966E0
3.551080097E0,2.404469401E-1,3.722099662E-1,1.514595866E0
3.553081430E0,6.818294525E-2,3.416667283E-1,1.557356358E0
3.555082796E0,-1.367299631E-2,3.318928480E-1,1.570795417E0
3.557084129E0,-1.602806598E-1,3.349471688E-1,1.586677909E0
3.559085462E0,-2.836754322E-1,3.575491905E-1,1.572017074E0
3.561091095E0,-3.410967588E-1,3.844272792E-1,1.537197709E0
3.563092428E0,-4.321157038E-1,4.583419859E-1,1.475500345E0
3.565093761E0,-4.687676132E-1,5.041568875E-1,1.432129025E0
3.567095094E0,-5.243563056E-1,5.841802359E-1,1.360046864E0
3.569096427E0,-5.524561405E-1,6.483210325E-1,1.291019082E0
3.571097760E0,-5.573430657E-1,6.648144126E-1,1.258032322E0
3.573093193E0,-5.402388573E-1,6.550405622E-1,1.203054547E0
3.575094526E0,-5.213019848E-1,6.409906745E-1,1.172511220E0
3.577095892E0,-4.687676132E-1,5.603564382E-1,1.109592199E0
3.579093825E0,-4.040158987E-1,4.552876353E-1,1.061333776E0
3.581095158E0,-3.716400564E-1,3.996989131E-1,1.036288381E0
3.583096524E0,-2.977253497E-1,3.037930727E-1,9.916951060E-1
3.585103890E0,-2.170911282E-1,2.103306800E-1,9.452693462E-1
3.587105223E0,-1.847152710E-1,1.724570245E-1,9.220564961E-1
3.589106589E0,-1.095788404E-1,1.009858027E-1,8.725764155E-1
3.591107689E0,-7.537038624E-2,8.082725108E-2,8.426440358E-1
3.593109022E0,-1.245126594E-2,5.333831161E-2,7.778922915E-1
3.595110388E0,1.381593850E-2,5.272744223E-2,7.424620986E-1
3.597111488E0,6.879381090E-2,6.616648287E-2,6.544975042E-1
3.599112821E0,1.127761081E-1,9.732060879E-2,5.475960970E-1
3.601114187E0,1.298803389E-1,1.174791604E-1,4.834552705E-1
3.603121353E0,1.592018753E-1,1.431355029E-1,3.319606483E-1
3.605122686E0,1.585910022E-1,1.217552200E-1,1.786334813E-1
3.607124052E0,1.579801291E-1,9.365541488E-2,1.004427448E-1
3.609128718E0,1.311020702E-1,3.562321886E-2,-6.082568318E-2
3.611130051E0,1.115543768E-1,1.930334111E-4,-1.439033449E-1
3.613131417E0,6.940467656E-2,-5.234137550E-2,-3.088369668E-1
3.615133317E0,1.259420905E-2,-1.164822280E-1,-4.554446340E-1
3.617134650E0,-2.039251477E-2,-1.500798166E-1,-5.232506990E-1
3.619136016E0,-9.491807222E-2,-2.197184563E-1,-6.576410532E-1
3.621134916E0,-1.285156608E-1,-2.600355446E-1,-7.236145139E-1
3.623136249E0,-1.804392040E-1,-3.431132138E-1,-8.506744504E-1
3.625137615E0,-2.177020013E-1,-4.170279205E-1,-9.704040289E-1
3.627140048E0,-2.311410159E-1,-4.481820762E-1,-1.019273281E0
3.629141381E0,-2.482452542E-1,-5.043816566E-1,-1.094409704E0
3.631142747E0,-2.488561124E-1,-5.196533203E-1,-1.128007293E0
3.633149480E0,-2.293084264E-1,-5.587486625E-1,-1.166491866E0
3.635150813E0,-2.097607404E-1,-5.795180798E-1,-1.187872052E0
3.637152146E0,-1.944891065E-1,-5.935679674E-1,-1.187261224E0
3.639153246E0,-1.578371823E-1,-5.960114598E-1,-1.167102695E0
3.641154579E0,-1.089679748E-1,-5.776854753E-1,-1.129839897E0
3.643155912E0,-7.964644581E-2,-5.740203261E-1,-1.109070420E0
3.645152078E0,-2.222511172E-2,-5.599703789E-1,-1.064477324E0
3.647153444E0,2.209499711E-3,-5.642464757E-1,-1.041875243E0
3.649154777E0,4.130487517E-2,-5.886811018E-1,-9.930060506E-1
3.651156343E0,7.612419128E-2,-6.180026531E-1,-9.410825372E-1
3.653157709E0,9.017409384E-2,-6.320524812E-1,-9.203131199E-1
3.655159042E0,1.121652424E-1,-6.357176900E-1,-8.726655841E-1
3.657160608E0,1.280477494E-1,-6.228895187E-1,-8.158550858E-1
3.659161974E0,1.402650476E-1,-6.070070267E-1,-7.822575569E-1
3.661163307E0,1.628670692E-1,-5.550835133E-1,-7.168949842E-1
3.663160507E0,1.787495613E-1,-5.117120147E-1,-6.820756197E-1
3.665161873E0,2.007407099E-1,-4.115301371E-1,-6.044957042E-1
3.667163206E0,2.196775228E-1,-3.638826609E-1,-5.611243248E-1
3.669161206E0,2.526642382E-1,-2.618681788E-1,-4.707162678E-1
3.671162572E0,2.868727148E-1,-1.836774051E-1,-3.845842481E-1
3.673163905E0,3.076421320E-1,-1.458037496E-1,-3.406019509E-1
3.675165838E0,3.577330709E-1,-8.593896776E-2,-2.526373863E-1
3.677167204E0,4.169870019E-1,-3.401542082E-2,-1.640619040E-1
3.679168537E0,4.524171650E-1,-1.263513695E-2,-1.206904724E-1
3.681168170E0,5.299970508E-1,2.462764271E-2,-3.272588179E-2
3.683169536E0,5.739793777E-1,3.928840905E-2,1.125641353E-2
3.685170869E0,6.686634421E-1,5.028398335E-2,1.004427448E-1
3.687171102E0,7.706779838E-1,3.989927471E-2,1.804660857E-1
3.689172468E0,8.317645192E-1,2.096245252E-2,2.171179950E-1
3.691173801E0,9.521049857E-1,-2.851763368E-2,2.946978807E-1
3.693169701E0,1.017467499E0,-7.860857993E-2,3.295172155E-1
3.695171067E0,1.164075136E0,-2.001707554E-1,3.936580420E-1
3.697172400E0,1.316791534E0,-3.528870940E-1,4.523011148E-1
3.699174166E0,1.398647428E0,-4.347430170E-1,4.785683155E-1
3.701175532E0,1.558694124E0,-6.112830639E-1,5.243832469E-1
3.703176865E0,1.635663152E0,-6.974151134E-1,5.445417762E-1
3.705178798E0,1.796320677E0,-8.818963766E-1,5.811936855E-1
3.707180131E0,1.956367373E0,-1.062712550E0,6.056283116E-1
3.709181464E0,2.030282021E0,-1.148233652E0,6.160129905E-1
3.711182564E0,2.186663628E0,-1.304615140E0,6.245651245E-1
3.713183897E0,2.328995228E0,-1.434729338E0,6.270086169E-1
3.715185230E0,2.393746853E0,-1.486652970E0,6.276194453E-1
3.717190630E0,2.519585133E0,-1.567287207E0,6.245651245E-1
3.719191963E0,2.578228235E0,-1.599663138E0,6.196781993E-1
3.721193296E0,2.700401306E0,-1.643034458E0,6.154021621E-1
3.723192962E0,2.804248333E0,-1.672966957E0,5.989087820E-1
3.725194295E0,2.853117704E0,-1.685795069E0,5.928000808E-1
3.727195628E0,2.946580172E0,-1.727944732E0,5.604242682E-1
3.729196994E0,2.986286163E0,-1.740162134E0,5.414874554E-1
3.731198327E0,3.060811758E0,-1.751157641E0,5.085007548E-1
3.733199660E0,3.127396107E0,-1.753601074E0,4.681836367E-1
3.735199860E0,3.156106710E0,-1.751768470E0,4.468033314E-1
3.737201193E0,3.208641052E0,-1.738940358E0,4.015993178E-1
3.739202526E0,3.234908342E0,-1.720614433E0,3.759429753E-1
3.741203759E0,3.275836468E0,-1.659527779E0,3.252411485E-1
3.743205092E0,3.312488317E0,-1.564843774E0,2.843131721E-1
3.745206425E0,3.321651220E0,-1.504978895E0,2.641546428E-1
3.747207758E0,3.329592466E0,-1.377918959E0,2.207831889E-1
3.749209091E0,3.291107893E0,-1.194659472E0,1.859638691E-1
3.751210424E0,3.233075619E0,-1.103029490E0,1.755791605E-1
3.753211557E0,3.018662214E0,-9.643631577E-1,1.432033032E-1
3.755212890E0,2.842122078E0,-8.434118629E-1,1.328186095E-1
3.757214223E0,2.351597071E0,-5.349249244E-1,1.242664903E-1
3.759215123E0,1.721795201E0,-2.398770154E-1,1.187686995E-1
3.761216456E0,1.393149614E0,-1.164822280E-1,1.181578264E-1
3.763217789E0,7.657910585E-1,4.112100601E-2,9.433408082E-2
3.765217422E0,4.811278284E-1,8.510330319E-2,7.845158875E-2
3.767218755E0,-8.175210096E-3,1.150356978E-1,4.485400394E-2
3.769220088E0,-3.930203319E-1,9.487714618E-2,3.926030826E-3
3.771226054E0,-5.500127077E-1,8.571416140E-2,-1.684338786E-2
3.773227387E0,-7.955805063E-1,5.883609876E-2,-5.777135864E-2
3.775228720E0,-8.841559291E-1,5.517090484E-2,-8.098423481E-2
3.777228653E0,-1.020989776E0,6.799907982E-2,-1.182470173E-1
3.779229986E0,-1.093071938E0,9.182282537E-2,-1.536771953E-1
3.781231319E0,-1.116284847E0,1.107596457E-1,-1.793335378E-1
3.783232652E0,-1.130334735E0,1.541310698E-1,-2.220941186E-1
3.785233985E0,-1.109565139E0,1.828417331E-1,-2.672981322E-1
3.787235351E0,-1.088795781E0,1.926155835E-1,-2.929544747E-1
3.789236684E0,-1.029541850E0,1.956699044E-1,-3.369367719E-1
3.791238017E0,-9.904465079E-1,1.907829940E-1,-3.619822264E-1
3.793239383E0,-8.969841599E-1,1.571853906E-1,-4.181818664E-1
3.795240483E0,-7.845849395E-1,1.095379069E-1,-4.725488722E-1
3.797241816E0,-7.271635532E-1,7.594032586E-2,-5.030921102E-1
3.799243182E0,-5.982710719E-1,-1.202427130E-2,-5.617351532E-1
3.801244515E0,-5.329084396E-1,-5.967175961E-2,-5.904458761E-1
3.803245848E0,-3.893551230E-1,-1.720709652E-1,-6.564193368E-1
3.805247214E0,-2.403040081E-1,-2.979092002E-1,-7.266688347E-1
3.807248580E0,-1.584480554E-1,-3.638826609E-1,-7.633207440E-1
3.809249913E0,-8.448266308E-4,-4.994947612E-1,-8.421223164E-1
3.811251279E0,7.795678824E-2,-5.715768337E-1,-8.824394345E-1
3.813253012E0,2.422795445E-1,-7.151302099E-1,-9.667388201E-1
3.815254345E0,3.962175846E-1,-8.434118629E-1,-1.051038265E0
3.817255711E0,4.744083285E-1,-9.026657939E-1,-1.095020533E0
3.819262811E0,6.210159659E-1,-1.013232470E0,-1.178098321E0
3.821264144E0,7.499085665E-1,-1.096920848E0,-1.258121610E0
3.823265510E0,8.158820271E-1,-1.132351041E0,-1.297827721E0
3.825267110E0,9.221725464E-1,-1.205044031E0,-1.381516337E0
3.827268443E0,9.667657614E-1,-1.226424456E0,-1.424276829E0
3.829269809E0,1.043123960E0,-1.280791402E0,-1.503689408E0
3.831269709E0,1.088327885E0,-1.325384498E0,-1.580658436E0
3.833271042E0,1.084662676E0,-1.336990952E0,-1.620975494E0
3.835272408E0,1.062671542E0,-1.351040840E0,-1.691835880E0
3.837275308E0,9.924220443E-1,-1.332714915E0,-1.757809281E0
3.839276641E0,9.490506649E-1,-1.314388871E0,-1.784076571E0
3.841278007E0,8.452035785E-1,-1.238641739E0,-1.833556652E0
3.843285507E0,7.896147966E-1,-1.186107278E0,-1.852493405E0
3.845286840E0,6.711069345E-1,-1.032169223E0,-1.878760576E0
3.847288173E0,6.246812344E-1,-9.515350461E-1,-1.887923598E0
3.849296006E0,5.208340883E-1,-7.694972157E-1,-1.896475673E0
3.851297339E0,4.151544273E-1,-5.611921549E-1,-1.894032240E0
3.853298672E0,3.730047047E-1,-4.579558969E-1,-1.890367031E0
3.855300238E0,2.770988345E-1,-2.514834404E-1,-1.873873830E0
3.857301604E0,1.854690760E-1,-5.539570376E-2,-1.849439144E0
3.859302937E0,1.433193684E-1,2.829283476E-2,-1.831724048E0
3.861306503E0,5.963083357E-2,1.913938671E-1,-1.792017817E0
3.863307869E0,2.420064993E-2,2.653085589E-1,-1.768804908E0
3.865309202E0,-4.055106640E-2,3.899250627E-1,-1.725433469E0
3.867310535E0,-8.453336358E-2,4.772787690E-1,-1.681451201E0
3.869311901E0,-9.919413179E-2,4.986590743E-1,-1.658849120E0
3.871313234E0,-1.138549000E-1,5.237045288E-1,-1.618532062E0
3.873314434E0,-1.175200865E-1,5.004916787E-1,-1.577604175E0
3.875315800E0,-1.120223030E-1,4.778896570E-1,-1.554391265E0
3.877317133E0,-9.980498999E-2,4.192465842E-1,-1.512852430E0
3.879312966E0,-9.736153483E-2,3.862598538E-1,-1.495137334E0
3.881314332E0,-7.414866239E-2,3.056256473E-1,-1.468259096E0
3.883315665E0,-6.681827456E-2,2.677520216E-1,-1.452987552E0
3.885318298E0,-4.604885355E-2,1.718461663E-1,-1.427331328E0
3.887319664E0,-3.077722341E-2,7.044253498E-2,-1.404118419E0
3.889320997E0,-1.794905216E-2,1.668639481E-2,-1.389457583E0
3.891319397E0,-6.953479256E-3,-6.700214744E-2,-1.368077278E0
3.893320763E0,1.015074831E-2,-1.348081827E-1,-1.344253540E0
3.895322096E0,1.625940017E-2,-1.616862714E-1,-1.333257914E0
3.897325829E0,1.625940017E-2,-2.050576955E-1,-1.305769086E0
3.899327195E0,1.442680415E-2,-2.246053815E-1,-1.290497422E0
3.901328528E0,1.320507471E-2,-2.612572908E-1,-1.264230251E0
3.903323694E0,9.539882652E-3,-2.875244915E-1,-1.234297872E0
3.905325360E0,1.015074831E-2,-3.070721626E-1,-1.215360999E0
3.907326693E0,1.598634408E-3,-3.284524679E-1,-1.190926433E0
3.909322826E0,-6.342613604E-3,-3.370045722E-1,-1.182985067E0
3.911324192E0,-1.367299631E-2,-3.528870940E-1,-1.160383224E0
3.913325525E0,-1.978164911E-2,-3.547196686E-1,-1.148776770E0
3.915327425E0,-2.039251477E-2,-3.541087806E-1,-1.143278956E0
3.917328758E0,-3.322068229E-2,-3.382263184E-1,-1.131061673E0
3.919330091E0,-3.505327925E-2,-3.253981471E-1,-1.124342084E0
3.921334124E0,-3.994020075E-2,-2.979092002E-1,-1.109070420E0
3.923335457E0,-4.177279770E-2,-2.502617240E-1,-1.090133667E0
3.925336790E0,-3.932933882E-2,-2.197184563E-1,-1.080359697E0
3.927339223E0,-4.360539094E-2,-1.531341374E-1,-1.063255548E0
3.929340556E0,-4.238366336E-2,-7.188906521E-2,-1.039431810E0
3.931341889E0,-4.055106640E-2,-3.096109442E-2,-1.029657960E0
3.933343255E0,-3.444241360E-2,4.478619620E-2,-1.002169013E0
3.935344588E0,-3.077722341E-2,7.838378102E-2,-9.923952222E-1
3.937345921E0,-1.794905216E-2,1.535201967E-1,-9.581866860E-1
3.939347287E0,-1.184040029E-2,2.139958590E-1,-9.203131199E-1
3.941348620E0,-1.000780519E-2,2.390413582E-1,-9.019871354E-1
3.943349953E0,-5.731748417E-3,2.915757298E-1,-8.592265844E-1
3.945351853E0,-5.731748417E-3,3.105125725E-1,-8.372353911E-1
3.947353186E0,-5.731748417E-3,3.404449821E-1,-7.963074446E-1
3.949354519E0,-1.000780519E-2,3.770968914E-1,-7.566012144E-1
3.951355885E0,-8.786074817E-3,3.844272792E-1,-7.339991927E-1
3.953357218E0,-1.978164911E-2,4.003097713E-1,-6.875734329E-1
3.955358551E0,-2.527943626E-2,3.996989131E-1,-6.686366200E-1
3.957353317E0,-3.322068229E-2,3.942010999E-1,-6.252651811E-1
3.959354650E0,-5.093577504E-2,3.795403540E-1,-5.861697793E-1
3.961355983E0,-5.093577504E-2,3.624361157E-1,-5.757851005E-1
3.963357349E0,-6.437481195E-2,3.221190274E-1,-5.568482876E-1
3.965358382E0,-6.498567760E-2,2.708063424E-1,-5.458526611E-1
3.967359715E0,-6.559654325E-2,2.390413582E-1,-5.421875119E-1
3.969359781E0,-6.742914021E-2,1.803982854E-1,-5.373005867E-1
3.971361114E0,-6.742914021E-2,1.461898386E-1,-5.403549075E-1
3.973362447E0,-6.620740145E-2,9.304454923E-2,-5.415766835E-1
3.975365413E0,-6.559654325E-2,3.867754340E-2,-5.464635491E-1
3.977366746E0,-6.620740145E-2,1.241033804E-2,-5.476853251E-1
3.979368079E0,-6.559654325E-2,-2.240898088E-2,-5.537939668E-1
3.981370012E0,-5.460096896E-2,-4.256753623E-2,-5.586808324E-1
3.983371345E0,-5.337923765E-2,-5.234137550E-2,-5.623460412E-1
3.985372678E0,-4.971404746E-2,-5.783916637E-2,-5.654003620E-1
3.987372944E0,-4.849231616E-2,-5.906089395E-2,-5.647894740E-1
3.989374277E0,-4.971404746E-2,-6.455868483E-2,-5.641786456E-1
3.991375610E0,-4.910317808E-2,-6.700214744E-2,-5.599026084E-1
3.993376943E0,-5.032491311E-2,-6.761300564E-2,-5.544047952E-1
3.995378276E0,-4.910317808E-2,-5.845003203E-2,-5.366896987E-1
3.997379609E0,-4.604885355E-2,-4.989791662E-2,-5.220289230E-1
3.999380942E0,-3.199895471E-2,-3.035022877E-2,-4.890422225E-1
4.001382275E0,-1.245126594E-2,3.247359768E-3,-4.444490671E-1
4.003383641E0,-5.731748417E-3,2.157331631E-2,-4.151275456E-1
4.005383141E0,1.748113148E-2,5.028398335E-2,-3.497649431E-1
4.007384474E0,3.030930087E-2,5.700350180E-2,-3.149456084E-1
4.009385840E0,4.985698685E-2,6.738821417E-2,-2.379766107E-1
4.011388873E0,6.390689313E-2,6.555561721E-2,-1.689488441E-1
4.013390206E0,7.245899737E-2,5.517090484E-2,-1.402381808E-1
4.015391572E0,8.223284781E-2,2.890370041E-2,-1.029753909E-1
4.017398672E0,8.223284781E-2,-3.279368952E-2,-9.136895090E-2
4.019400005E0,8.162198216E-2,-8.716069907E-2,-8.892548084E-2
4.021401371E0,7.795678824E-2,-1.787904799E-1,-9.992105514E-2
4.023402704E0,7.917851955E-2,-2.068902850E-1,-1.103057712E-1
4.025404037E0,8.956323564E-2,-2.307140380E-1,-1.280208528E-1
4.027405403E0,9.872621298E-2,-2.404878736E-1,-1.286317259E-1
4.029406503E0,1.036131307E-1,-2.441530675E-1,-1.292425990E-1
4.031407836E0,1.054457277E-1,-2.386552691E-1,-1.158035547E-1
4.033409202E0,1.139978394E-1,-2.386552691E-1,-1.060297191E-1
4.035409102E0,1.408759207E-1,-2.398770154E-1,-8.037337661E-2
4.037410435E0,1.604236066E-1,-2.514834404E-1,-4.860837758E-2
4.039411801E0,1.677539796E-1,-2.612572908E-1,-3.211501613E-2
4.041413434E0,1.769169569E-1,-2.685876787E-1,-1.195646543E-2
4.043414767E0,1.799712777E-1,-2.655333579E-1,-7.680409122E-3
4.045416133E0,1.701974422E-1,-2.392661422E-1,-4.015217535E-3
4.047420766E0,1.549258083E-1,-2.062794119E-1,-5.236947443E-3
4.049422099E0,1.457628310E-1,-1.861208677E-1,-7.069543470E-3
4.051423465E0,1.194956303E-1,-1.531341374E-1,-1.571756206E-3
4.053424798E0,1.066674590E-1,-1.390842497E-1,5.147761200E-3
4.055426131E0,7.734592259E-2,-1.115953028E-1,1.736506633E-2
4.057427497E0,5.535477400E-2,-7.677598298E-2,3.263669461E-2
4.059428830E0,4.985698685E-2,-5.906089395E-2,3.508015722E-2
4.061430163E0,3.641795367E-2,-2.485244162E-2,4.363227263E-2
4.063431496E0,2.969843522E-2,-9.580810554E-3,4.729746282E-2
4.065433862E0,1.320507471E-2,1.424293406E-2,4.790832847E-2
4.067435195E0,-6.953479256E-3,2.646023966E-2,4.729746282E-2
4.069436528E0,-2.100338042E-2,2.646023966E-2,4.668660089E-2
4.071436461E0,-3.994020075E-2,2.462764271E-2,4.241054133E-2
4.073437827E0,-4.482712597E-2,2.340591326E-2,4.057794437E-2
4.075439160E0,-4.177279770E-2,2.157331631E-2,3.691275418E-2
4.077434726E0,-3.322068229E-2,1.546466444E-2,3.508015722E-2
4.079436092E0,-2.527943626E-2,1.057774294E-2,3.630188853E-2
4.081437425E0,-1.917078346E-2,2.646023966E-2,2.469545044E-2
4.083438758E0,-2.650116757E-2,5.150571465E-2,1.308900956E-2
4.085440124E0,-2.283597551E-2,5.028398335E-2,1.369987521E-2
4.087441457E0,-2.344684117E-2,5.944696069E-2,2.408458292E-2
4.089443023E0,-1.917078346E-2,5.944696069E-2,2.408458292E-2
4.091444389E0,-6.953479256E-3,1.199226230E-1,5.147761200E-3
4.093445722E0,-8.786074817E-3,1.376377046E-1,-4.626082256E-3
4.095446322E0,-1.428386196E-2,1.413028985E-1,-4.015217535E-3
4.097447688E0,-2.894462831E-2,1.125922427E-1,1.186727919E-2
4.099449021E0,-4.055106640E-2,9.121195227E-2,2.591717988E-2
4.101444554E0,-6.376394629E-2,4.845139012E-2,5.157352239E-2
4.103445920E0,-8.392249793E-2,1.057774294E-2,7.784073055E-2
4.105447253E0,-9.430721402E-2,-6.526484620E-3,8.700370789E-2
4.107451986E0,-1.144657582E-1,-2.607417293E-2,1.022753343E-1
4.109453352E0,-1.346243173E-1,-2.668503672E-2,1.102165803E-1
4.111454685E0,-1.419546902E-1,-2.485244162E-2,1.126600429E-1
4.113456018E0,-1.566154659E-1,-2.057638578E-2,1.169361025E-1
4.115457384E0,-1.688327640E-1,-1.630032808E-2,1.218230203E-1
4.117458717E0,-1.798283458E-1,-1.752205938E-2,1.303751320E-1
4.119460050E0,-1.932673752E-1,-1.324600261E-2,1.377055198E-1
4.121461416E0,-1.981543005E-1,-1.935465448E-2,1.438141763E-1
4.123462749E0,-2.134259343E-1,-1.507859770E-2,1.487011015E-1
4.125463049E0,-2.183128446E-1,-1.813292317E-2,1.493119597E-1
4.127464415E0,-2.366388142E-1,-5.304753780E-3,1.456467807E-1
4.129465748E0,-2.549647689E-1,-1.028697006E-3,1.407598406E-1
4.131466781E0,-2.629060149E-1,-4.178318486E-4,1.389272511E-1
4.133468114E0,-2.726798654E-1,-8.359080181E-3,1.328186095E-1
4.135469447E0,-2.824537158E-1,1.607552916E-2,1.169361025E-1
4.137470780E0,-2.842862904E-1,8.021637797E-2,7.784073055E-2
4.139472113E0,-2.928383946E-1,1.394703090E-1,4.241054133E-2
4.141473446E0,-2.952818573E-1,1.614614576E-1,3.080410138E-2
4.143474812E0,-2.958927453E-1,1.926155835E-1,1.308900956E-2
4.145475912E0,-2.897840738E-1,2.030002922E-1,5.147761200E-3
4.147477245E0,-2.867297530E-1,2.036111653E-1,2.608394716E-4
4.149478611E0,-2.751233280E-1,1.993350983E-1,-4.626082256E-3
4.151479944E0,-2.684037983E-1,1.913938671E-1,-5.847813096E-3
4.153481277E0,-2.476343811E-1,1.700135618E-1,-5.236947443E-3
4.155482643E0,-2.177020013E-1,1.345833838E-1,1.482569962E-3
4.157483976E0,-1.999868900E-1,1.199226230E-1,8.812952787E-3
4.159485309E0,-1.443981677E-1,7.716205716E-2,1.797593199E-2
4.161486675E0,-8.575509489E-2,4.356446490E-2,1.980852708E-2
4.163488008E0,-5.460096896E-2,2.829283476E-2,2.041939087E-2
4.165489341E0,-7.564344443E-3,1.729726046E-2,1.064554881E-2
4.167484007E0,7.707286626E-3,1.912985556E-2,5.758626387E-3
4.169487240E0,1.931372657E-2,2.462764271E-2,-5.847813096E-3
4.171488573E0,1.870286092E-2,3.012543172E-2,-1.073473413E-2
4.173489939E0,1.198334340E-2,3.012543172E-2,-2.539549954E-2
4.175491272E0,1.381593850E-2,2.218418382E-2,-3.028242290E-2
4.177492605E0,1.320507471E-2,1.179947238E-2,-3.150415421E-2
4.179493971E0,1.687026583E-2,-1.028697006E-3,-3.272588179E-2
4.181495304E0,2.114632167E-2,-1.141340658E-2,-3.516934440E-2
4.183496637E0,1.320507471E-2,1.424293406E-2,-4.860837758E-2
4.185500237E0,3.702881932E-2,8.745146915E-3,-5.349529907E-2
4.187501570E0,4.619179666E-2,1.179947238E-2,-5.349529907E-2
4.189502903E0,6.757207960E-2,1.912985556E-2,-5.716049299E-2
4.191504269E0,8.834149688E-2,3.858224954E-3,-4.799751565E-2
4.193505602E0,9.445014596E-2,2.025628928E-3,-4.860837758E-2
4.195506935E0,1.219390854E-1,-1.691119373E-2,-4.127799720E-2
4.197511101E0,1.372107267E-1,-2.363071032E-2,-4.005626589E-2
4.199512434E0,1.561475396E-1,-1.202427130E-2,-3.761280328E-2
4.201513767E0,1.799712777E-1,-3.218282387E-2,-2.906069160E-2
4.203515100E0,1.860799342E-1,-3.584801406E-2,-2.600636706E-2
4.205516666E0,1.824147552E-1,-4.073493928E-2,-2.173030935E-2
4.207517999E0,1.805821508E-1,-4.562186077E-2,-2.173030935E-2
4.209520599E0,1.695865840E-1,-6.578040868E-2,-1.806511916E-2
4.211521932E0,1.549258083E-1,-9.388021380E-2,-9.513004683E-3
4.213523298E0,1.439302415E-1,-1.030431911E-1,-1.073473413E-2
4.215524631E0,1.097217873E-1,-8.593896776E-2,-1.806511916E-2
4.217525964E0,9.017409384E-2,-9.265848249E-2,-1.684338786E-2
4.219527330E0,7.551332563E-2,-9.388021380E-2,-1.378906146E-2
4.221528663E0,5.107872188E-2,-9.998887032E-2,-9.608910186E-4
4.223529996E0,4.069401324E-2,-1.048757881E-1,5.758626387E-3
4.225531362E0,2.053545788E-2,-1.036540568E-1,1.492160466E-2
4.227532695E0,-1.455691876E-3,-1.012105942E-1,2.591717988E-2
4.229532128E0,-1.306213159E-2,-1.005997285E-1,3.019323759E-2
4.231533494E0,-4.604885355E-2,-8.410637081E-2,3.569102660E-2
4.233540960E0,-7.598125190E-2,-7.005647570E-2,3.996707872E-2
4.235542293E0,-9.186374396E-2,-6.028262526E-2,4.179967567E-2
4.237543659E0,-1.193526834E-1,-3.645887971E-2,3.446929157E-2
4.239544992E0,-1.285156608E-1,-1.019167621E-2,2.469545044E-2
4.241546325E0,-1.498959512E-1,4.906225204E-2,-3.404351883E-3
4.243547691E0,-1.596697867E-1,6.860993803E-2,-1.317819580E-2
4.245546791E0,-1.749414206E-1,9.365541488E-2,-2.967155911E-2
4.247548124E0,-1.871587187E-1,1.015966609E-1,-4.738665000E-2
4.249549490E0,-1.926565021E-1,1.070944518E-1,-5.716049299E-2
4.251550823E0,-1.975434422E-1,1.064835861E-1,-7.182125747E-2
4.253552156E0,-1.993760318E-1,1.028183997E-1,-7.182125747E-2
4.255553522E0,-2.042629570E-1,9.854233265E-2,-7.121039927E-2
4.257552055E0,-2.164802551E-1,8.388157189E-2,-5.960395560E-2
4.259553388E0,-2.262541056E-1,7.044253498E-2,-5.044097453E-2
4.261554754E0,-2.335844934E-1,3.623408079E-2,-2.539549954E-2
4.263556087E0,-2.421365976E-1,6.912550889E-3,-3.404351883E-3
4.265557420E0,-2.439691871E-1,-4.693888593E-3,8.202087134E-3
4.267558786E0,-2.372496724E-1,-5.304753780E-3,3.508015722E-2
4.269558852E0,-2.317518890E-1,-1.028697006E-3,4.424313828E-2
4.271560185E0,-2.268649638E-1,8.745146915E-3,7.478640229E-2
4.273561518E0,-2.225889117E-1,2.096245252E-2,1.047187969E-1
4.275562851E0,-2.244215161E-1,3.256889060E-2,1.242664903E-1
4.277564184E0,-2.341953367E-1,5.822522938E-2,1.541988850E-1
4.279565517E0,-2.427474707E-1,7.655118406E-2,1.670270562E-1
4.281573017E0,-2.696255445E-1,1.272530109E-1,1.865747422E-1
