"Time (s)","Gyroscope x (rad/s)","Gyroscope y (rad/s)","Gyroscope z (rad/s)"
5.139953200E-2,3.558361530E-1,-2.938512564E-1,4.990937710E-1
5.390854200E-2,3.622281551E-1,-3.055692613E-1,4.863107800E-1
5.641750000E-2,3.739461303E-1,-3.279392719E-1,4.511577785E-1
5.892651100E-2,3.963161409E-1,-3.577672839E-1,4.074817598E-1
6.143546900E-2,4.186861515E-1,-3.833332658E-1,3.680667579E-1
6.394447900E-2,4.367961586E-1,-4.046382606E-1,3.254567683E-1
6.645343800E-2,4.549051523E-1,-4.248782694E-1,2.839117646E-1
6.896244800E-2,4.772761464E-1,-4.429872632E-1,2.498227656E-1
7.161812500E-2,5.017771125E-1,-4.536402822E-1,2.178657651E-1
7.412713600E-2,5.262781382E-1,-4.642932713E-1,1.880377680E-1
7.663609400E-2,5.497131348E-1,-4.717492759E-1,1.667327732E-1
7.914510400E-2,5.710191131E-1,-4.760102630E-1,1.518187672E-1
8.165406300E-2,5.933890939E-1,-4.717492759E-1,1.379707754E-1
8.416307300E-2,6.125640869E-1,-4.632272720E-1,1.305137724E-1
8.667208400E-2,6.306731105E-1,-4.525752664E-1,1.262527704E-1
8.918104200E-2,6.413261294E-1,-4.344652593E-1,1.241227686E-1
9.169005200E-2,6.562390924E-1,-4.057032764E-1,1.273177713E-1
9.419901100E-2,6.626310945E-1,-3.790722787E-1,1.379707754E-1
9.670802100E-2,6.668921113E-1,-3.471142650E-1,1.464927644E-1
9.921697900E-2,6.711531281E-1,-3.034382761E-1,1.560807675E-1
1.019086460E-1,6.722180843E-1,-2.565672696E-1,1.677977741E-1
1.044176570E-1,6.668921113E-1,-2.096952647E-1,1.773857772E-1
1.069266150E-1,6.573051214E-1,-1.585632712E-1,1.954947710E-1
1.094356250E-1,6.466521025E-1,-1.106262729E-1,2.114737779E-1
1.119445840E-1,6.317381263E-1,-5.842926726E-2,2.242567688E-1
1.144535940E-1,6.189551353E-1,-8.361268789E-3,2.402357757E-1
1.169626040E-1,5.997810960E-1,4.383473098E-2,2.540837824E-1
1.194715630E-1,5.774101019E-1,9.283673018E-2,2.668677568E-1
1.219805730E-1,5.518441200E-1,1.407737285E-1,2.764547765E-1
1.244895320E-1,5.305390954E-1,1.929717362E-1,2.881727815E-1
1.269984900E-1,5.039070845E-1,2.398427278E-1,2.934987843E-1
1.295075000E-1,4.762101471E-1,2.877797186E-1,2.956297696E-1
1.321991670E-1,4.506441355E-1,3.314557374E-1,2.966947854E-1
1.347081770E-1,4.208171368E-1,3.655437231E-1,2.966947854E-1
1.372171360E-1,3.920551538E-1,3.985667229E-1,2.966947854E-1
1.397261460E-1,3.611621559E-1,4.283937216E-1,2.945637703E-1
1.422351040E-1,3.302701414E-1,4.475687146E-1,2.881727815E-1
1.447441150E-1,2.983121574E-1,4.614167213E-1,2.860417664E-1
1.472531250E-1,2.738111317E-1,4.678087234E-1,2.796507776E-1
1.497620840E-1,2.461141348E-1,4.710047245E-1,2.711287737E-1
1.522710940E-1,2.162871361E-1,4.699387252E-1,2.604757845E-1
1.547800520E-1,1.885901242E-1,4.635477364E-1,2.466277778E-1
1.572890630E-1,1.598281264E-1,4.518297315E-1,2.317137718E-1
1.597980210E-1,1.385231316E-1,4.369157255E-1,2.189307660E-1
1.624943230E-1,1.161531284E-1,4.188067317E-1,2.050817758E-1
1.650033340E-1,9.271712601E-2,3.964367211E-1,1.869727671E-1
1.675122920E-1,6.821613014E-2,3.687397242E-1,1.688637733E-1
1.700213020E-1,5.010613427E-2,3.389117420E-1,1.518187672E-1
1.725302610E-1,2.667113021E-2,3.058887422E-1,1.337097734E-1
1.750392710E-1,6.431131158E-3,2.739317417E-1,1.145347729E-1
1.775482820E-1,-1.380786858E-2,2.409087270E-1,9.855577350E-2
1.800572400E-1,-3.298286721E-2,2.068197280E-1,8.151177317E-2
1.825662500E-1,-5.109186843E-2,1.674057245E-1,6.340277195E-2
1.850752090E-1,-6.707087159E-2,1.333167255E-1,4.955476895E-2
1.875842190E-1,-8.198487014E-2,1.034897268E-1,3.677076846E-2
1.900931770E-1,-9.476786852E-2,7.153172791E-2,2.079176717E-2
1.927810420E-1,-1.096818745E-1,4.916173220E-2,5.878768861E-3
1.952900520E-1,-1.213988736E-1,2.998673171E-2,-3.708231263E-3
1.977990110E-1,-1.299208701E-1,1.720373333E-2,-1.116423123E-2
2.003080210E-1,-1.352478713E-1,6.550731137E-3,-1.862123236E-2
2.028169790E-1,-1.395088732E-1,3.355731722E-3,-2.394723147E-2
2.053259900E-1,-1.458998770E-1,2.289731521E-3,-2.927423269E-2
2.078350000E-1,-1.480308771E-1,-1.971268561E-3,-3.033923171E-2
2.103439590E-1,-1.458998770E-1,3.355731722E-3,-2.927423269E-2
2.128529170E-1,-1.448348761E-1,1.187773142E-2,-3.033923171E-2
2.153619270E-1,-1.384438723E-1,1.720373333E-2,-2.927423269E-2
2.178709380E-1,-1.363128722E-1,2.252973244E-2,-2.714323252E-2
2.203798960E-1,-1.288558692E-1,2.785673365E-2,-2.394723147E-2
2.230756770E-1,-1.224648729E-1,3.531273082E-2,-1.968623139E-2
2.255846880E-1,-1.171378717E-1,4.170473292E-2,-1.968623139E-2
2.280936460E-1,-1.064858735E-1,5.129173398E-2,-1.436023135E-2
2.306026570E-1,-9.902887046E-2,5.768373236E-2,-1.223023143E-2
2.331116150E-1,-8.944187313E-2,5.874873325E-2,-1.009923127E-2
2.356206250E-1,-7.878886908E-2,5.981373414E-2,-9.034231305E-3
2.381296360E-1,-6.707087159E-2,6.300973147E-2,-4.773231223E-3
2.406385940E-1,-5.535286665E-2,6.300973147E-2,-3.708231263E-3
2.431475520E-1,-4.789586738E-2,5.448773131E-2,-4.773231223E-3
2.456565630E-1,-3.830886632E-2,4.809673131E-2,-3.708231263E-3
2.481655730E-1,-2.872186899E-2,3.957373276E-2,-5.132312654E-4
2.506745320E-1,-2.126486972E-2,2.892173082E-2,2.682768740E-3
2.533701570E-1,-1.274286862E-2,1.720373333E-2,4.813768901E-3
2.558791670E-1,-5.285868887E-3,6.550731137E-3,5.878768861E-3
2.583881250E-1,-3.155868733E-3,-4.101268481E-3,3.747768700E-3
2.608971360E-1,2.170131076E-3,-1.475326810E-2,4.813768901E-3
2.634060940E-1,7.496131118E-3,-2.434026822E-2,4.813768901E-3
2.659151040E-1,1.069213171E-2,-3.499326855E-2,3.747768700E-3
2.684241150E-1,1.282213163E-2,-4.138426855E-2,5.878768861E-3
2.709330730E-1,1.388813183E-2,-4.777626693E-2,4.813768901E-3
2.734420840E-1,1.601812989E-2,-4.458026588E-2,1.617768663E-3
2.759510420E-1,1.814913005E-2,-4.884126782E-2,8.008768782E-3
2.784600520E-1,1.814913005E-2,-4.884126782E-2,6.943768822E-3
2.809690110E-1,2.027912997E-2,-5.097226799E-2,6.943768822E-3
2.836888540E-1,1.814913005E-2,-5.203726888E-2,9.074768983E-3
2.861978130E-1,1.601812989E-2,-5.416726694E-2,1.226976886E-2
2.887068230E-1,2.027912997E-2,-5.416726694E-2,9.074768983E-3
2.912158340E-1,2.134413086E-2,-5.310226604E-2,1.120476890E-2
2.937247920E-1,1.921413094E-2,-5.203726888E-2,1.226976886E-2
2.962338020E-1,2.134413086E-2,-5.629826710E-2,1.013976894E-2
2.987427610E-1,2.027912997E-2,-5.949426815E-2,1.013976894E-2
3.012517710E-1,2.134413086E-2,-5.949426815E-2,1.013976894E-2
3.037607290E-1,1.921413094E-2,-6.162426621E-2,1.013976894E-2
3.062697400E-1,1.814913005E-2,-6.588526815E-2,1.013976894E-2
3.087786980E-1,1.814913005E-2,-7.334227115E-2,1.013976894E-2
3.112877090E-1,1.708313078E-2,-7.866827399E-2,9.074768983E-3
3.139816150E-1,1.601812989E-2,-8.825626969E-2,1.013976894E-2
3.164906250E-1,1.495313179E-2,-9.464727342E-2,8.008768782E-3
3.189995840E-1,1.388813183E-2,-9.784327447E-2,9.074768983E-3
3.215085420E-1,1.282213163E-2,-9.890826792E-2,1.120476890E-2
3.240175520E-1,1.282213163E-2,-1.021042690E-1,8.008768782E-3
3.265265110E-1,7.496131118E-3,-1.053002700E-1,6.943768822E-3
3.290355210E-1,6.431131158E-3,-1.031692699E-1,9.074768983E-3
3.315445320E-1,7.496131118E-3,-9.997427464E-2,9.074768983E-3
3.340534900E-1,4.300130997E-3,-9.890826792E-2,8.008768782E-3
3.365625000E-1,1.105131116E-3,-9.571327269E-2,9.074768983E-3
3.390714590E-1,1.105131116E-3,-9.251727164E-2,1.120476890E-2
3.415804690E-1,-2.089868765E-3,-8.612526953E-2,1.226976886E-2
3.442732820E-1,-5.285868887E-3,-8.079927415E-2,1.226976886E-2
3.467822400E-1,-8.481868543E-3,-7.334227115E-2,1.440076809E-2
3.492912500E-1,-1.380786858E-2,-6.695127487E-2,1.866176724E-2
3.518002610E-1,-1.593886875E-2,-5.949426815E-2,1.972676814E-2
3.543092190E-1,-1.593886875E-2,-5.310226604E-2,2.398776822E-2
3.568181770E-1,-2.126486972E-2,-4.564526677E-2,2.931476757E-2
3.593271880E-1,-2.765686996E-2,-3.712326661E-2,3.144476935E-2
3.618361980E-1,-2.765686996E-2,-2.860127017E-2,3.783676773E-2
3.643451570E-1,-2.872186899E-2,-1.794926822E-2,4.316276684E-2
3.668541670E-1,-3.298286721E-2,-1.049226895E-2,4.848876968E-2
3.693631250E-1,-3.511286899E-2,-5.166268442E-3,5.274976790E-2
3.718721360E-1,-3.617886826E-2,1.597316004E-4,6.127176806E-2
3.745642710E-1,-3.617886826E-2,8.681731299E-3,6.659877300E-2
3.770732820E-1,-3.511286899E-2,1.400773134E-2,6.979376823E-2
3.795822400E-1,-3.085186891E-2,1.933373138E-2,7.512076944E-2
3.820912500E-1,-2.659086883E-2,2.359573171E-2,8.151177317E-2
3.846002090E-1,-2.019986883E-2,2.892173082E-2,8.896876872E-2
3.871092190E-1,-1.700386964E-2,2.998673171E-2,9.322977066E-2
3.896181770E-1,-1.167786866E-2,3.531273082E-2,1.017517745E-1
3.921271880E-1,-3.155868733E-3,3.850873187E-2,1.070787683E-1
3.946361460E-1,6.431131158E-3,3.850873187E-2,1.134697720E-1
3.971451570E-1,1.495313179E-2,3.744373098E-2,1.177307740E-1
3.996541670E-1,2.347513102E-2,4.170473292E-2,1.262527704E-1
4.021631250E-1,2.986713126E-2,4.170473292E-2,1.315797716E-1
4.048552610E-1,4.051913321E-2,4.063973203E-2,1.347747743E-1
4.073642710E-1,5.117213354E-2,3.531273082E-2,1.432967782E-1
4.098732290E-1,5.862913281E-2,3.211773187E-2,1.496887654E-1
4.123822400E-1,6.502012908E-2,3.318273276E-2,1.528847665E-1
4.148911980E-1,7.460712641E-2,2.892173082E-2,1.582107693E-1
4.174002090E-1,8.739113063E-2,2.572572976E-2,1.677977741E-1
4.199091670E-1,9.697812796E-2,2.359573171E-2,1.731247753E-1
4.224181770E-1,1.065651253E-1,2.146473154E-2,1.773857772E-1
4.249271360E-1,1.118921265E-1,1.720373333E-2,1.784507781E-1
4.274361460E-1,1.204141304E-1,1.187773142E-2,1.827117652E-1
4.299451040E-1,1.268051267E-1,7.616731338E-3,1.859077662E-1
4.324541150E-1,1.300011277E-1,1.224731561E-3,1.880377680E-1
4.351464070E-1,1.385231316E-1,-5.166268442E-3,1.912337691E-1
4.376554170E-1,1.406541318E-1,-1.049226895E-2,1.944297701E-1
4.401643750E-1,1.438491344E-1,-1.794926822E-2,1.944297701E-1
4.426733860E-1,1.481101215E-1,-2.540526912E-2,1.965597719E-1
4.451823440E-1,1.481101215E-1,-3.179726750E-2,1.976257712E-1
4.476913540E-1,1.481101215E-1,-3.925426677E-2,1.891037673E-1
4.502003130E-1,1.502411216E-1,-5.097226799E-2,1.880377680E-1
4.527093230E-1,1.491761357E-1,-6.162426621E-2,1.891037673E-1
4.552182820E-1,1.459801346E-1,-7.227727026E-2,1.837767661E-1
4.577272920E-1,1.427841336E-1,-8.079927415E-2,1.773857772E-1
4.602362500E-1,1.342621297E-1,-9.358227253E-2,1.720587760E-1
4.627452610E-1,1.300011277E-1,-1.010392681E-1,1.741897762E-1
4.654371360E-1,1.214791313E-1,-1.106262729E-1,1.677977741E-1
4.679460940E-1,1.150871292E-1,-1.180832684E-1,1.592757702E-1
4.704551040E-1,1.055001318E-1,-1.319312751E-1,1.539497674E-1
4.729641150E-1,9.591312706E-2,-1.447152644E-1,1.475577652E-1
4.754730730E-1,8.526013047E-2,-1.574982703E-1,1.390357763E-1
4.779820840E-1,7.567312568E-2,-1.681502759E-1,1.315797716E-1
4.804910420E-1,6.502012908E-2,-1.777382642E-1,1.262527704E-1
4.830000520E-1,5.649813265E-2,-1.905212700E-1,1.209267750E-1
4.855090110E-1,4.691113159E-2,-2.043692768E-1,1.102737710E-1
4.880180210E-1,3.625813127E-2,-2.139562666E-1,1.017517745E-1
4.905269790E-1,2.986713126E-2,-2.246092707E-1,9.749077260E-2
4.930359900E-1,1.814913005E-2,-2.373922765E-1,8.257777244E-2
4.957285420E-1,7.496131118E-3,-2.459142655E-1,7.618577033E-2
4.982375520E-1,-1.024868805E-3,-2.533712685E-1,6.979376823E-2
5.007465110E-1,-1.061186846E-2,-2.640242577E-1,5.594576895E-2
5.032555210E-1,-1.700386964E-2,-2.714812756E-1,4.529276863E-2
5.057644790E-1,-2.232986875E-2,-2.821332812E-1,3.570576757E-2
5.082734380E-1,-2.765686996E-2,-2.938512564E-1,2.292276733E-2
5.107824480E-1,-3.404786810E-2,-3.045042753E-1,1.226976886E-2
5.132914070E-1,-3.617886826E-2,-3.162212670E-1,5.527687026E-4
5.158004170E-1,-3.298286721E-2,-3.258092701E-1,-1.116423123E-2
5.183094270E-1,-3.298286721E-2,-3.385922611E-1,-2.820823155E-2
5.208183860E-1,-2.978686988E-2,-3.524402678E-1,-4.312223196E-2
5.233273960E-1,-2.446086891E-2,-3.662892580E-1,-5.910123140E-2
5.260188020E-1,-1.806886867E-2,-3.812022805E-1,-7.508023083E-2
5.285308860E-1,-1.061186846E-2,-3.939852715E-1,-9.105923027E-2
5.310430210E-1,-1.024868805E-3,-4.067692757E-1,-1.038422287E-1
5.335551040E-1,6.431131158E-3,-4.195522666E-1,-1.208862290E-1
5.360672400E-1,1.921413094E-2,-4.334002733E-1,-1.400612295E-1
5.385793230E-1,2.986713126E-2,-4.515092671E-1,-1.507132351E-1
5.410914590E-1,4.158413410E-2,-4.653582573E-1,-1.666922271E-1
5.436035940E-1,5.010613427E-2,-4.824022651E-1,-1.805412322E-1
5.461156770E-1,5.756313354E-2,-4.973162711E-1,-1.911932230E-1
5.486278130E-1,6.608512998E-2,-5.079682469E-1,-2.018462270E-1
5.511398960E-1,7.354212552E-2,-5.175562501E-1,-2.103682309E-1
5.536520320E-1,7.673812658E-2,-5.282082558E-1,-2.188902348E-1
5.563105730E-1,7.886812836E-2,-5.367302299E-1,-2.284772247E-1
5.588226570E-1,7.993412763E-2,-5.409912467E-1,-2.316732258E-1
5.613347920E-1,7.780312747E-2,-5.463182330E-1,-2.338042259E-1
5.638468750E-1,7.460712641E-2,-5.484482646E-1,-2.359342277E-1
5.663590110E-1,6.608512998E-2,-5.537742376E-1,-2.380652279E-1
5.688710940E-1,5.756313354E-2,-5.569702387E-1,-2.391302288E-1
5.713832290E-1,5.117213354E-2,-5.580352545E-1,-2.369992286E-1
5.738953650E-1,3.732313216E-2,-5.633622408E-1,-2.338042259E-1
5.764074480E-1,2.347513102E-2,-5.665582418E-1,-2.295432240E-1
5.789195840E-1,9.627131745E-3,-5.740142465E-1,-2.263472229E-1
5.814316670E-1,-6.350868847E-3,-5.761452317E-1,-2.242162228E-1
5.839438020E-1,-2.232986875E-2,-5.782752633E-1,-2.220862210E-1
5.866024480E-1,-4.150486737E-2,-5.782752633E-1,-2.199552357E-1
5.891145320E-1,-5.961386859E-2,-5.804062486E-1,-2.146292329E-1
5.916266670E-1,-7.559286803E-2,-5.857322216E-1,-2.124982327E-1
5.941387500E-1,-9.263686836E-2,-5.857322216E-1,-2.135642320E-1
5.966508860E-1,-1.118118688E-1,-5.899932384E-1,-2.093032300E-1
5.991629690E-1,-1.277908683E-1,-5.931892395E-1,-2.071722299E-1
6.016751040E-1,-1.437698752E-1,-5.931892395E-1,-2.039762288E-1
6.041872400E-1,-1.597488672E-1,-5.942542553E-1,-2.061072290E-1
6.066993230E-1,-1.746618748E-1,-6.017112136E-1,-2.061072290E-1
6.092114590E-1,-1.885108650E-1,-6.038422585E-1,-2.050422281E-1
6.117235420E-1,-2.023588717E-1,-6.070372462E-1,-2.050422281E-1
6.142356250E-1,-2.087508738E-1,-6.091682315E-1,-2.050422281E-1
6.168923960E-1,-2.140768766E-1,-6.155592203E-1,-2.071722299E-1
6.194044790E-1,-2.225988656E-1,-6.176902652E-1,-2.071722299E-1
6.219166150E-1,-2.300558686E-1,-6.176902652E-1,-2.050422281E-1
6.244286980E-1,-2.300558686E-1,-6.155592203E-1,-2.029112279E-1
6.269408340E-1,-2.300558686E-1,-6.155592203E-1,-1.997152269E-1
6.294529170E-1,-2.311208695E-1,-6.123642325E-1,-2.029112279E-1
6.319650520E-1,-2.300558686E-1,-6.102332473E-1,-2.018462270E-1
6.344771880E-1,-2.289908677E-1,-6.049072146E-1,-2.007812262E-1
6.369892710E-1,-2.257948667E-1,-6.038422585E-1,-1.975852251E-1
6.395014070E-1,-2.215338647E-1,-6.038422585E-1,-1.975852251E-1
6.420134900E-1,-2.204688638E-1,-6.017112136E-1,-2.007812262E-1
6.445256250E-1,-2.162078768E-1,-5.985152125E-1,-2.007812262E-1
6.471489590E-1,-2.140768766E-1,-5.931892395E-1,-2.007812262E-1
6.496610940E-1,-2.076848745E-1,-5.889282227E-1,-2.039762288E-1
6.521731770E-1,-2.044898719E-1,-5.846672654E-1,-2.050422281E-1
6.546852610E-1,-2.066198736E-1,-5.793412328E-1,-2.071722299E-1
6.571973960E-1,-2.044898719E-1,-5.740142465E-1,-2.093032300E-1
6.597095320E-1,-2.066198736E-1,-5.612312555E-1,-2.103682309E-1
6.622216150E-1,-2.108808756E-1,-5.473832488E-1,-2.178252339E-1
6.647337500E-1,-2.140768766E-1,-5.409912467E-1,-2.220862210E-1
6.672458340E-1,-2.194028646E-1,-5.335342288E-1,-2.242162228E-1
6.697579690E-1,-2.225988656E-1,-5.282082558E-1,-2.306082249E-1
6.722701040E-1,-2.289908677E-1,-5.282082558E-1,-2.348692268E-1
6.747821880E-1,-2.321858704E-1,-5.271432400E-1,-2.380652279E-1
6.774403130E-1,-2.407088727E-1,-5.228822231E-1,-2.433912307E-1
6.799524480E-1,-2.502958477E-1,-5.186212659E-1,-2.465872318E-1
6.824645320E-1,-2.598828673E-1,-5.079682469E-1,-2.540442348E-1
6.849766670E-1,-2.705358565E-1,-4.941202700E-1,-2.593702376E-1
6.874887500E-1,-2.833188474E-1,-4.866632819E-1,-2.625662386E-1
6.900008860E-1,-2.982328534E-1,-4.824022651E-1,-2.657612264E-1
6.925129690E-1,-3.110158443E-1,-4.706842601E-1,-2.668272257E-1
6.950251040E-1,-3.237988651E-1,-4.632272720E-1,-2.700232267E-1
6.975371880E-1,-3.387118578E-1,-4.525752664E-1,-2.657612264E-1
7.000493230E-1,-3.557568491E-1,-4.440532625E-1,-2.689572275E-1
7.025614590E-1,-3.728008568E-1,-4.355312586E-1,-2.668272257E-1
7.050735420E-1,-3.877138495E-1,-4.238132834E-1,-2.657612264E-1
7.077325000E-1,-4.058238566E-1,-4.131602645E-1,-2.593702376E-1
7.102446360E-1,-4.260638654E-1,-4.025072753E-1,-2.572392225E-1
7.127567190E-1,-4.409768581E-1,-3.939852715E-1,-2.572392225E-1
7.152688540E-1,-4.569558501E-1,-3.854632676E-1,-2.551092207E-1
7.177809380E-1,-4.750658572E-1,-3.801372647E-1,-2.508482337E-1
7.202930730E-1,-4.878488481E-1,-3.737452626E-1,-2.508482337E-1
7.228051570E-1,-4.995668530E-1,-3.684192598E-1,-2.487172335E-1
7.253172920E-1,-5.080888867E-1,-3.662892580E-1,-2.476522326E-1
7.278293750E-1,-5.112848878E-1,-3.630932570E-1,-2.497832328E-1
7.303415110E-1,-5.102188587E-1,-3.556362689E-1,-2.551092207E-1
7.328536460E-1,-5.006318688E-1,-3.385922611E-1,-2.646962404E-1
7.353657290E-1,-4.899788499E-1,-3.215482831E-1,-2.806752324E-1
7.380215110E-1,-4.771958590E-1,-3.045042753E-1,-2.987852395E-1
7.405336460E-1,-4.633478522E-1,-2.906552851E-1,-3.222202361E-1
7.430457290E-1,-4.399118423E-1,-2.842642665E-1,-3.456562161E-1
7.455578650E-1,-4.175418615E-1,-2.885252833E-1,-3.765492141E-1
7.480699480E-1,-3.930408657E-1,-3.002432585E-1,-4.085062146E-1
7.505820840E-1,-3.664088547E-1,-3.194172680E-1,-4.457902312E-1
7.530941670E-1,-3.344508708E-1,-3.449832797E-1,-4.884012341E-1
7.556063020E-1,-3.014278710E-1,-3.822682798E-1,-5.427291989E-1
7.581183860E-1,-2.641438544E-1,-4.323352575E-1,-6.087752581E-1
7.606305210E-1,-2.257948667E-1,-4.994462729E-1,-6.865392327E-1
7.631426570E-1,-1.885108650E-1,-5.772102475E-1,-7.738902569E-1
7.656547400E-1,-1.448348761E-1,-6.666922569E-1,-8.665682077E-1
7.683473440E-1,-1.075508744E-1,-7.732182145E-1,-9.741592407E-1
7.708594270E-1,-6.707087159E-2,-8.627002239E-1,-1.096664190E0
7.733715630E-1,-2.872186899E-2,-9.436602592E-1,-1.228757262E0
7.758836460E-1,6.431131158E-3,-1.011836290E0,-1.352327228E0
7.783957820E-1,3.306213394E-2,-1.084274292E0,-1.468440175E0
7.809078650E-1,5.330213159E-2,-1.198257327E0,-1.577097178E0
7.834200000E-1,7.886812836E-2,-1.361241341E0,-1.675100207E0
7.859321360E-1,1.108261272E-1,-1.555119276E0,-1.759256244E0
7.884442190E-1,1.395881325E-1,-1.774562359E0,-1.835955262E0
7.909563540E-1,1.747421324E-1,-1.985484242E0,-1.897740245E0
7.934684380E-1,2.120261341E-1,-2.163382292E0,-1.956329226E0
7.959805730E-1,2.535711527E-1,-2.307192326E0,-1.997874260E0
7.986398440E-1,3.057691455E-1,-2.431828260E0,-2.007462263E0
8.011519270E-1,3.643581569E-1,-2.522375345E0,-1.986156225E0
8.036640630E-1,4.293391407E-1,-2.582029343E0,-1.936089277E0
8.061761460E-1,5.071030855E-1,-2.601204395E0,-1.861521244E0
8.086882820E-1,5.933890939E-1,-2.583095312E0,-1.756060243E0
8.112003650E-1,6.935241222E-1,-2.533027411E0,-1.617576241E0
8.137125000E-1,8.043110967E-1,-2.457394361E0,-1.463114262E0
8.162246360E-1,9.161630869E-1,-2.362586260E0,-1.293737173E0
8.187367190E-1,1.028015137E0,-2.258190393E0,-1.107317209E0
8.212488020E-1,1.135606170E0,-2.145273209E0,-9.145052433E-1
8.237609380E-1,1.237871170E0,-2.021703243E0,-7.142361999E-1
8.262730730E-1,1.333745122E0,-1.900263309E0,-5.086412430E-1
8.289296360E-1,1.410443187E0,-1.780954242E0,-3.083722293E-1
8.314417190E-1,1.474359155E0,-1.680819273E0,-1.134292260E-1
8.339538540E-1,1.518035173E0,-1.600925326E0,7.298976928E-2
8.364659380E-1,1.542536139E0,-1.555119276E0,2.487577796E-1
8.389780730E-1,1.543601155E0,-1.539140344E0,4.096117616E-1
8.414901570E-1,1.528687119E0,-1.554054260E0,5.502267480E-1
8.440022920E-1,1.496730208E0,-1.593468308E0,6.769927740E-1
8.465144270E-1,1.450923204E0,-1.664841294E0,7.824527621E-1
8.490265110E-1,1.392334223E0,-1.755388260E0,8.655437827E-1
8.515386460E-1,1.314570189E0,-1.843804359E0,9.337197542E-1
8.540507290E-1,1.228284121E0,-1.943939328E0,9.859177470E-1
8.565628130E-1,1.133476138E0,-2.036616325E0,1.017875791E0
8.592231770E-1,1.030146122E0,-2.117576361E0,1.031723738E0
8.617352610E-1,9.172281027E-1,-2.175100327E0,1.025332808E0
8.642473960E-1,8.043110967E-1,-2.202797413E0,9.912437797E-1
8.667594790E-1,7.031111121E-1,-2.188949347E0,9.358507991E-1
8.692716150E-1,6.051071286E-1,-2.137816191E0,8.655437827E-1
8.717836980E-1,5.284081101E-1,-2.058987379E0,7.888447642E-1
8.742958340E-1,4.634271562E-1,-1.946069360E0,6.993627548E-1
8.768079690E-1,4.080341458E-1,-1.807585359E0,6.077507734E-1
8.793200520E-1,3.675541580E-1,-1.658449292E0,5.172037482E-1
8.818321880E-1,3.313351572E-1,-1.500791311E0,4.287867844E-1
8.843442710E-1,3.025731444E-1,-1.343132257E0,3.446317613E-1
8.868564070E-1,2.791371346E-1,-1.190800309E0,2.679327726E-1
8.895127090E-1,2.610281408E-1,-1.044859290E0,1.954947710E-1
8.920247920E-1,2.439841330E-1,-9.042452574E-1,1.262527704E-1
8.945369270E-1,2.280051261E-1,-7.764142156E-1,6.233776733E-2
8.970490110E-1,2.162871361E-1,-6.581702232E-1,6.943768822E-3
8.995611460E-1,2.035041302E-1,-5.484482646E-1,-4.205723107E-2
9.020732290E-1,1.875251234E-1,-4.376612604E-1,-8.786322922E-2
9.045853650E-1,1.704811305E-1,-3.322002590E-1,-1.400612295E-1
9.070975000E-1,1.491761357E-1,-2.363272756E-1,-1.869322211E-1
9.096095840E-1,1.257401258E-1,-1.447152644E-1,-2.391302288E-1
9.121217190E-1,1.012391299E-1,-5.416726694E-2,-2.966542244E-1
9.146338020E-1,9.484712780E-2,6.940172613E-2,-3.307422400E-1
9.171459380E-1,1.044351310E-1,2.302557230E-1,-3.360692263E-1
9.197632290E-1,1.193481311E-1,4.006977379E-1,-3.275472224E-1
9.222753130E-1,1.342621297E-1,5.562257767E-1,-3.062412143E-1
9.247874480E-1,1.502411216E-1,7.042967677E-1,-2.700232267E-1
9.272995320E-1,1.662201285E-1,8.481067419E-1,-2.220862210E-1
9.298116670E-1,1.832641214E-1,9.738067389E-1,-1.698882282E-1
9.323237500E-1,2.003081292E-1,1.084593654E0,-1.112992316E-1
9.348358860E-1,2.120261341E-1,1.179402709E0,-5.057923123E-2
9.373480210E-1,2.173521221E-1,1.257166743E0,1.013976894E-2
9.398601040E-1,2.216131240E-1,1.307233691E0,7.618577033E-2
9.423722400E-1,2.205481231E-1,1.338125706E0,1.358407736E-1
9.448843230E-1,2.173521221E-1,1.349843740E0,1.922987700E-1
9.473964590E-1,2.141571343E-1,1.351974726E0,2.476927787E-1
9.500912500E-1,2.098951340E-1,1.344517708E0,2.934987843E-1
9.526033860E-1,2.024391294E-1,1.335995674E0,3.318477571E-1
9.551155210E-1,1.971121281E-1,1.332799673E0,3.616757691E-1
9.576276040E-1,1.917861253E-1,1.330669641E0,3.840457797E-1
9.601397400E-1,1.896561235E-1,1.331734657E0,4.032207727E-1
9.626518230E-1,1.864601225E-1,1.333864689E0,4.149387777E-1
9.651639590E-1,1.832641214E-1,1.337060690E0,4.266567826E-1
9.676760420E-1,1.800681353E-1,1.341321707E0,4.415697753E-1
9.701881770E-1,1.800681353E-1,1.342386723E0,4.500917792E-1
9.727003130E-1,1.790031344E-1,1.338125706E0,4.639407694E-1
9.752123960E-1,1.811331362E-1,1.328538656E0,4.735277593E-1
9.777245320E-1,1.853941232E-1,1.321081758E0,4.809847772E-1
9.803743230E-1,1.939171255E-1,1.310429692E0,4.937677681E-1
9.828864070E-1,2.003081292E-1,1.294450641E0,5.044207573E-1
9.853985420E-1,2.109611332E-1,1.277406693E0,5.140077472E-1
9.879106250E-1,2.226791233E-1,1.257166743E0,5.214647651E-1
9.904227610E-1,2.397231311E-1,1.228404641E0,5.321167707E-1
9.929348440E-1,2.567671537E-1,1.202837706E0,5.353127718E-1
9.954469790E-1,2.748761475E-1,1.176206708E0,5.363777876E-1
9.979591150E-1,2.983121574E-1,1.142118692E0,5.353127718E-1
1.000471198E0,3.142911494E-1,1.101638675E0,5.299867988E-1
1.002983334E0,3.334661424E-1,1.064354658E0,5.214647651E-1
1.005495417E0,3.547711372E-1,1.022808671E0,5.086817741E-1
1.008007552E0,3.760761321E-1,9.801987410E-1,4.958977699E-1
1.010678594E0,3.963161409E-1,9.397187829E-1,4.735277593E-1
1.013190677E0,4.133601487E-1,8.992387652E-1,4.500917792E-1
1.015702813E0,4.304041564E-1,8.555637598E-1,4.309177697E-1
1.018214896E0,4.485141337E-1,8.161487579E-1,4.085467756E-1
1.020727032E0,4.655581415E-1,7.756687403E-1,3.840457797E-1
1.023239115E0,4.794061482E-1,7.341237664E-1,3.648707569E-1
1.025751250E0,4.921891391E-1,6.915137768E-1,3.446317613E-1
1.028263386E0,5.017771125E-1,6.478377581E-1,3.243917823E-1
1.030775469E0,5.092341304E-1,6.030967832E-1,3.062817752E-1
1.033287604E0,5.145601034E-1,5.594207644E-1,2.913687825E-1
1.035799688E0,5.166901350E-1,5.210717320E-1,2.753897607E-1
1.038311823E0,5.188211203E-1,4.869837165E-1,2.636717856E-1
1.040932709E0,5.188211203E-1,4.560907185E-1,2.540837824E-1
1.043447240E0,5.188211203E-1,4.315897226E-1,2.444967777E-1
1.045961719E0,5.156251192E-1,4.060237408E-1,2.381057739E-1
1.048476250E0,5.124291182E-1,3.900447190E-1,2.317137718E-1
1.050990729E0,5.145601034E-1,3.751307428E-1,2.274527699E-1
1.053505261E0,5.188211203E-1,3.623477221E-1,2.199957669E-1
1.056019740E0,5.198861361E-1,3.570217192E-1,2.125387788E-1
1.058534271E0,5.220171213E-1,3.538257182E-1,2.029517740E-1
1.061048750E0,5.273430943E-1,3.506297171E-1,1.986907721E-1
1.063563282E0,5.284081101E-1,3.431737423E-1,1.912337691E-1
1.066077761E0,5.326691270E-1,3.346507251E-1,1.816467643E-1
1.068592292E0,5.379961133E-1,3.303897381E-1,1.720587760E-1
1.071258594E0,5.443871021E-1,3.218677342E-1,1.592757702E-1
1.073773125E0,5.518441200E-1,3.176067173E-1,1.518187672E-1
1.076287604E0,5.550401211E-1,3.186727166E-1,1.422317773E-1
1.078802136E0,5.614311099E-1,3.186727166E-1,1.294487715E-1
1.081316667E0,5.656921268E-1,3.186727166E-1,1.187957749E-1
1.083831146E0,5.699531436E-1,3.218677342E-1,1.081437692E-1
1.086345677E0,5.720841289E-1,3.218677342E-1,1.028177738E-1
1.088860157E0,5.731490850E-1,3.282597363E-1,9.642577171E-2
1.091374688E0,5.720841289E-1,3.357167244E-1,8.577277511E-2
1.093889167E0,5.710191131E-1,3.389117420E-1,7.725077122E-2
1.096403698E0,5.720841289E-1,3.484997153E-1,6.979376823E-2
1.098918177E0,5.678231120E-1,3.506297171E-1,5.914176628E-2
1.101548490E0,5.635620952E-1,3.612827361E-1,5.274976790E-2
1.104063021E0,5.593011379E-1,3.655437231E-1,4.635876790E-2
1.106577500E0,5.518441200E-1,3.687397242E-1,4.103176668E-2
1.109092032E0,5.401260853E-1,3.687397242E-1,3.570576757E-2
1.111606563E0,5.284081101E-1,3.612827361E-1,3.037976846E-2
1.114121042E0,5.145601034E-1,3.538257182E-1,2.398776822E-2
1.116635573E0,4.964501560E-1,3.378467262E-1,1.972676814E-2
1.119150104E0,4.772761464E-1,3.154767156E-1,1.440076809E-2
1.121664584E0,4.581011534E-1,2.909757197E-1,1.013976894E-2
1.124179063E0,4.336001575E-1,2.611487210E-1,8.008768782E-3
1.126693594E0,4.112301469E-1,2.281247228E-1,6.943768822E-3
1.129208073E0,3.867291510E-1,1.908407360E-1,9.074768983E-3
1.131806198E0,3.622281551E-1,1.546227336E-1,1.013976894E-2
1.134320729E0,3.366611302E-1,1.205337271E-1,1.333576906E-2
1.136835209E0,3.089651465E-1,8.538072556E-2,1.333576906E-2
1.139349740E0,2.887251377E-1,5.129173398E-2,1.866176724E-2
1.141864219E0,2.695501447E-1,2.146473154E-2,2.185776830E-2
1.144378750E0,2.482451349E-1,-1.262226887E-2,2.185776830E-2
1.146893229E0,2.343961298E-1,-3.925426677E-2,2.505376749E-2
1.149407761E0,2.205481231E-1,-7.014627010E-2,2.718376741E-2
1.151922240E0,2.120261341E-1,-9.997427464E-2,3.037976846E-2
1.154436771E0,2.045691311E-1,-1.319312751E-1,3.037976846E-2
1.156951250E0,2.024391294E-1,-1.628242731E-1,2.718376741E-2
1.159465782E0,1.971121281E-1,-1.905212700E-1,2.398776822E-2
1.162133125E0,1.960471272E-1,-2.224792689E-1,1.972676814E-2
1.164647657E0,1.992431283E-1,-2.512412667E-1,1.226976886E-2
1.167162136E0,2.024391294E-1,-2.768072784E-1,8.008768782E-3
1.169676667E0,2.067001313E-1,-2.949162722E-1,5.878768861E-3
1.172191198E0,2.098951340E-1,-3.108952641E-1,-5.838231184E-3
1.174705677E0,2.109611332E-1,-3.247442842E-1,-1.223023143E-2
1.177220209E0,2.152221352E-1,-3.364612758E-1,-1.329523139E-2
1.179734740E0,2.162871361E-1,-3.428532779E-1,-2.394723147E-2
1.182249219E0,2.162871361E-1,-3.471142650E-1,-3.886123374E-2
1.184763698E0,2.152221352E-1,-3.481792808E-1,-4.738323390E-2
1.187278229E0,2.130911350E-1,-3.513752818E-1,-6.016623229E-2
1.189792709E0,2.152221352E-1,-3.513752818E-1,-7.508023083E-2
1.192390834E0,2.141571343E-1,-3.471142650E-1,-9.105923027E-2
1.194905365E0,2.141571343E-1,-3.417882621E-1,-1.081032306E-1
1.197419844E0,2.152221352E-1,-3.300702572E-1,-1.272782236E-1
1.199934375E0,2.162871361E-1,-3.172872663E-1,-1.507132351E-1
1.202448854E0,2.194831222E-1,-3.034382761E-1,-1.784102321E-1
1.204963386E0,2.216131240E-1,-2.821332812E-1,-2.018462270E-1
1.207477865E0,2.290701270E-1,-2.586972713E-1,-2.316732258E-1
1.209992396E0,2.365271300E-1,-2.320662737E-1,-2.583052218E-1
1.212506875E0,2.439841330E-1,-2.043692768E-1,-2.891972363E-1
1.215021407E0,2.503751516E-1,-1.766722649E-1,-3.147632182E-1
1.217535886E0,2.557021379E-1,-1.479102671E-1,-3.435252309E-1
1.220050417E0,2.599631548E-1,-1.116922721E-1,-3.669612408E-1
1.222682761E0,2.599631548E-1,-7.760327309E-2,-3.903972208E-1
1.225197292E0,2.599631548E-1,-4.031926766E-2,-4.095722139E-1
1.227711771E0,2.546361387E-1,1.597316004E-4,-4.287462234E-1
1.230226302E0,2.503751516E-1,4.490073398E-2,-4.479212165E-1
1.232740782E0,2.418531328E-1,9.390272945E-2,-4.607042372E-1
1.235255313E0,2.280051261E-1,1.460997313E-1,-4.692262411E-1
1.237769844E0,2.173521221E-1,2.046897262E-1,-4.820092320E-1
1.240284323E0,2.045691311E-1,2.675397396E-1,-4.894662201E-1
1.242798802E0,1.875251234E-1,3.367817402E-1,-4.958582222E-1
1.245313334E0,1.630241275E-1,4.081537426E-1,-5.022492409E-1
1.247827813E0,1.406541318E-1,4.859177172E-1,-5.075752139E-1
1.250342344E0,1.161531284E-1,5.668777823E-1,-5.118372440E-1
1.253006979E0,8.526013047E-2,6.478377581E-1,-5.139672160E-1
1.255521511E0,5.436813086E-2,7.309277654E-1,-5.160982013E-1
1.258035990E0,2.241013013E-2,8.204097748E-1,-5.160982013E-1
1.260550521E0,-1.167786866E-2,9.098917842E-1,-5.160982013E-1
1.263065052E0,-4.576586559E-2,9.993737340E-1,-5.150322318E-1
1.265579532E0,-7.985386997E-2,1.090985656E0,-5.150322318E-1
1.268094063E0,-1.160728708E-1,1.179402709E0,-5.129022002E-1
1.270608542E0,-1.522918642E-1,1.267818689E0,-5.097061992E-1
1.273123073E0,-1.842498779E-1,1.359431744E0,-5.086412430E-1
1.275637604E0,-2.194028646E-1,1.445717692E0,-5.086412430E-1
1.278152084E0,-2.556218505E-1,1.535198689E0,-5.075752139E-1
1.280666563E0,-2.950368524E-1,1.626811743E0,-5.150322318E-1
1.283297709E0,-3.355168700E-1,1.718423724E0,-5.256852508E-1
1.285812240E0,-3.749308586E-1,1.803644657E0,-5.363382101E-1
1.288326719E0,-4.175418615E-1,1.887800694E0,-5.491212010E-1
1.290841250E0,-4.580218494E-1,1.962368727E0,-5.693612099E-1
1.293355782E0,-5.059579015E-1,2.023088694E0,-5.906662345E-1
1.295870261E0,-5.506988764E-1,2.073155642E0,-6.162322164E-1
1.298384792E0,-5.965048671E-1,2.112569809E0,-6.375372410E-1
1.300899323E0,-6.455068588E-1,2.142397642E0,-6.599082351E-1
1.303413802E0,-6.934438944E-1,2.166898727E0,-6.801482439E-1
1.305928282E0,-7.435109019E-1,2.188203812E0,-6.939962506E-1
1.308442813E0,-7.893168926E-1,2.203116655E0,-7.025182247E-1
1.310957344E0,-8.372538686E-1,2.210573673E0,-7.099752426E-1
1.313587500E0,-8.873208761E-1,2.206312656E0,-7.174322009E-1
1.316102032E0,-9.299318790E-1,2.189268589E0,-7.174322009E-1
1.318616511E0,-9.682809114E-1,2.169028759E0,-7.121052146E-1
1.321131042E0,-1.004499793E0,2.138136625E0,-7.089102268E-1
1.323645573E0,-1.040718794E0,2.097656727E0,-7.014532089E-1
1.326160052E0,-1.073741794E0,2.047589779E0,-6.801482439E-1
1.328674584E0,-1.101438880E0,1.993260741E0,-6.556472182E-1
1.331189063E0,-1.131265879E0,1.936801672E0,-6.247542500E-1
1.333703594E0,-1.162157774E0,1.872886658E0,-5.917312503E-1
1.336218073E0,-1.193050861E0,1.805775642E0,-5.512512326E-1
1.338732604E0,-1.223943830E0,1.731206656E0,-5.043802261E-1
1.341247084E0,-1.256966829E0,1.653442740E0,-4.596392214E-1
1.343879167E0,-1.292119861E0,1.577809691E0,-4.127672315E-1
1.346393698E0,-1.330469847E0,1.496849656E0,-3.616352379E-1
1.348908177E0,-1.368818879E0,1.414824724E0,-3.062412143E-1
1.351422709E0,-1.403971791E0,1.328538656E0,-2.508482337E-1
1.353937240E0,-1.440190792E0,1.243317723E0,-1.954542249E-1
1.356451719E0,-1.479605794E0,1.155966640E0,-1.379302293E-1
1.358966250E0,-1.515824795E0,1.070745707E0,-7.614523172E-2
1.361480729E0,-1.555238843E0,9.770027399E-1,-1.436023135E-2
1.363995261E0,-1.594653845E0,8.821947575E-1,4.848876968E-2
1.366509740E0,-1.634068847E0,7.895167470E-1,1.124047711E-1
1.369024271E0,-1.675613880E0,7.011007667E-1,1.741897762E-1
1.371538750E0,-1.712897778E0,6.212057471E-1,2.327787727E-1
1.374134584E0,-1.754442811E0,5.519637465E-1,2.924337685E-1
1.376649115E0,-1.792791843E0,4.976357520E-1,3.446317613E-1
1.379163594E0,-1.833271861E0,4.550257325E-1,3.978947699E-1
1.381678125E0,-1.875882864E0,4.220027328E-1,4.500917792E-1
1.384192604E0,-1.920623779E0,4.017627239E-1,5.012247562E-1
1.386707136E0,-1.964298844E0,3.879137337E-1,5.491607785E-1
1.389221615E0,-2.015431881E0,3.793917298E-1,5.939017534E-1
1.391736146E0,-2.065498829E0,3.847187161E-1,6.429037452E-1
1.394250625E0,-2.119827032E0,3.964367211E-1,6.887107491E-1
1.396765157E0,-2.174154997E0,4.166757166E-1,7.259947658E-1
1.399279636E0,-2.228483915E0,4.560907185E-1,7.654087543E-1
1.401794167E0,-2.287072897E0,5.114847422E-1,7.984317541E-1
1.404427136E0,-2.344596863E0,5.775307417E-1,8.229327798E-1
1.406941667E0,-2.403185844E0,6.574247479E-1,8.431727886E-1
1.409456146E0,-2.461776018E0,7.501027584E-1,8.570217490E-1
1.411970677E0,-2.523561001E0,8.481067419E-1,8.666087985E-1
1.414485157E0,-2.581084967E0,9.567627311E-1,8.687387705E-1
1.416999688E0,-2.638608932E0,1.072876692E0,8.623477817E-1
1.419514167E0,-2.699328899E0,1.196446657E0,8.527607918E-1
1.422028698E0,-2.760047913E0,1.326408744E0,8.346507549E-1
1.424543177E0,-2.816506863E0,1.459565639E0,8.165417910E-1
1.427057709E0,-2.871901035E0,1.592723727E0,7.952367663E-1
1.429572188E0,-2.926229000E0,1.721619725E0,7.728657722E-1
1.432086719E0,-2.977360964E0,1.833471656E0,7.568867803E-1
1.434715729E0,-3.023167849E0,1.928279757E0,7.441037893E-1
1.437230261E0,-3.067909002E0,2.008174658E0,7.366467714E-1
1.439744792E0,-3.112648964E0,2.076351643E0,7.291897535E-1
1.442259271E0,-3.156324863E0,2.131744623E0,7.185377479E-1
1.444773750E0,-3.196805000E0,2.172224760E0,7.057547569E-1
1.447288282E0,-3.237284899E0,2.198855639E0,6.940367818E-1
1.449802761E0,-3.277765036E0,2.206312656E0,6.887107491E-1
1.452317292E0,-3.313983917E0,2.199921608E0,6.876447797E-1
1.454831771E0,-3.343811035E0,2.169028759E0,6.855147481E-1
1.457346302E0,-3.366180897E0,2.117896795E0,6.865797639E-1
1.459860782E0,-3.381094933E0,2.043327808E0,6.982977986E-1
1.462375313E0,-3.388551950E0,1.948519707E0,7.036237717E-1
1.465034532E0,-3.390681982E0,1.837732673E0,7.046887875E-1
1.467549063E0,-3.382159948E0,1.705640674E0,7.132107615E-1
1.470063542E0,-3.367246866E0,1.557569742E0,7.185377479E-1
1.472578073E0,-3.338485003E0,1.404171705E0,7.227987647E-1
1.475092604E0,-3.296938896E0,1.253970742E0,7.259947658E-1
1.477607084E0,-3.243675947E0,1.109094739E0,7.185377479E-1
1.480121615E0,-3.185086966E0,9.556977749E-1,7.121457458E-1
1.482636094E0,-3.116910934E0,8.118877411E-1,7.089497447E-1
1.485150625E0,-3.035950899E0,6.840567589E-1,7.004277706E-1
1.487665157E0,-2.944337845E0,5.722037554E-1,6.887107491E-1
1.490179636E0,-2.847399950E0,4.795267284E-1,6.791227460E-1
1.492694115E0,-2.744070053E0,4.102847278E-1,6.620787978E-1
1.495334844E0,-2.635412931E0,3.623477221E-1,6.471647620E-1
1.497849375E0,-2.524626017E0,3.442387283E-1,6.301207542E-1
1.500363854E0,-2.413838863E0,3.548907340E-1,6.120117903E-1
1.502878386E0,-2.308377981E0,4.006977379E-1,5.853797793E-1
1.505392917E0,-2.202916861E0,4.784617424E-1,5.555527806E-1
1.507907396E0,-2.099586964E0,5.913787484E-1,5.235947967E-1
1.510421927E0,-2.003713846E0,7.287977338E-1,4.852457643E-1
1.512936407E0,-1.915296793E0,8.811297417E-1,4.405047596E-1
1.515450938E0,-1.829010844E0,1.036657691E0,4.064167738E-1
1.517965417E0,-1.744855881E0,1.182597756E0,3.733937740E-1
1.520479948E0,-1.669221878E0,1.334930658E0,3.425007761E-1
1.522994427E0,-1.588261843E0,1.487262726E0,3.105427623E-1
1.525626719E0,-1.509432793E0,1.636398673E0,2.775197625E-1
1.528141250E0,-1.431668878E0,1.781274676E0,2.519537807E-1
1.530655729E0,-1.364557862E0,1.902713656E0,2.285177708E-1
1.533170261E0,-1.303837776E0,2.000717640E0,2.136047781E-1
1.535684792E0,-1.249509811E0,2.080612659E0,2.061477751E-1
1.538199271E0,-1.202637792E0,2.139201641E0,1.965597719E-1
1.540713802E0,-1.166418791E0,2.172224760E0,1.912337691E-1
1.543228282E0,-1.133395791E0,2.186072588E0,1.891037673E-1
1.545742813E0,-1.103568792E0,2.180746794E0,1.848427653E-1
1.548257292E0,-1.083328843E0,2.156245708E0,1.837767661E-1
1.550771823E0,-1.062023878E0,2.117896795E0,1.827117652E-1
1.553286302E0,-1.044979811E0,2.059306622E0,1.827117652E-1
1.555921250E0,-1.027935863E0,1.986869693E0,1.891037673E-1
1.558437761E0,-1.017282844E0,1.894191742E0,1.944297701E-1
1.560954271E0,-1.008760810E0,1.780208707E0,2.072127759E-1
1.563470729E0,-1.002368808E0,1.650247693E0,2.295827717E-1
1.565987240E0,-1.000238776E0,1.508567691E0,2.487577796E-1
1.568503750E0,-1.006629825E0,1.357300758E0,2.679327726E-1
1.571020261E0,-1.019413829E0,1.198576689E0,2.871067822E-1
1.573536719E0,-1.034326792E0,1.036657691E0,3.041517735E-1
1.576053229E0,-1.049240828E0,8.672807813E-1,3.158697784E-1
1.578569740E0,-1.064154863E0,6.989697814E-1,3.190647662E-1
1.581086250E0,-1.080132842E0,5.391807556E-1,3.211957812E-1
1.583602709E0,-1.092916846E0,3.857837319E-1,3.158697784E-1
1.586175104E0,-1.104633808E0,2.451697290E-1,2.966947854E-1
1.588691615E0,-1.118482828E0,1.205337271E-1,2.743237615E-1
1.591208125E0,-1.135526776E0,1.613873243E-2,2.423667759E-1
1.593724584E0,-1.150440812E0,-7.121226937E-2,2.018867731E-1
1.596241094E0,-1.165353775E0,-1.425842643E-1,1.603417695E-1
1.598757604E0,-1.176006794E0,-2.001082748E-1,1.102737710E-1
1.601274115E0,-1.186658859E0,-2.491102666E-1,6.553277373E-2
1.603790573E0,-1.194115877E0,-2.917202711E-1,2.292276733E-2
1.606307084E0,-1.191985846E0,-3.236782849E-1,-1.009923127E-2
1.608823594E0,-1.186658859E0,-3.567012846E-1,-3.886123374E-2
1.611340104E0,-1.178136826E0,-3.897242844E-1,-6.655822694E-2
1.613856563E0,-1.166418791E0,-4.216822684E-1,-8.892823011E-2
1.616500000E0,-1.151505828E0,-4.547052681E-1,-1.081032306E-1
1.619016511E0,-1.136591792E0,-4.887942672E-1,-1.251472384E-1
1.621533021E0,-1.120612860E0,-5.196862221E-1,-1.432572305E-1
1.624049479E0,-1.097177863E0,-5.452522635E-1,-1.613662243E-1
1.626565990E0,-1.072676778E0,-5.644272566E-1,-1.741492301E-1
1.629082500E0,-1.044979811E0,-5.761452317E-1,-1.816062331E-1
1.631599011E0,-1.017282844E0,-5.836022496E-1,-1.890632212E-1
1.634115469E0,-9.874559045E-1,-5.814712644E-1,-1.954542249E-1
1.636631979E0,-9.512369037E-1,-5.750802159E-1,-1.997152269E-1
1.639148490E0,-9.171488881E-1,-5.591012239E-1,-2.029112279E-1
1.641665000E0,-8.766688704E-1,-5.388612151E-1,-2.061072290E-1
1.644181459E0,-8.297969103E-1,-5.111642480E-1,-2.039762288E-1
1.646792188E0,-7.861219049E-1,-4.781412780E-1,-2.029112279E-1
1.649308698E0,-7.381848693E-1,-4.429872632E-1,-1.975852251E-1
1.651825209E0,-6.881178617E-1,-4.088992774E-1,-1.933242232E-1
1.654341667E0,-6.380509138E-1,-3.780072629E-1,-1.879972219E-1
1.656858177E0,-5.869178772E-1,-3.428532779E-1,-1.805412322E-1
1.659374688E0,-5.325899124E-1,-3.119602799E-1,-1.741492301E-1
1.661891198E0,-4.793268442E-1,-2.853292823E-1,-1.634972245E-1
1.664407657E0,-4.228678644E-1,-2.597632706E-1,-1.517792344E-1
1.666924167E0,-3.674738705E-1,-2.395232767E-1,-1.453872323E-1
1.669440677E0,-3.174068630E-1,-2.288702726E-1,-1.336692274E-1
1.671957188E0,-2.705358565E-1,-2.203482687E-1,-1.251472384E-1
1.674473646E0,-2.162078768E-1,-2.118262649E-1,-1.155602261E-1
1.677044532E0,-1.672058702E-1,-2.086302638E-1,-1.027772278E-1
1.679561042E0,-1.213988736E-1,-2.139562666E-1,-9.425523132E-2
1.682077552E0,-7.772386819E-2,-2.192832679E-1,-8.253722638E-2
1.684594011E0,-3.724386916E-2,-2.267402709E-1,-7.081922889E-2
1.687110521E0,3.235131269E-3,-2.395232767E-1,-5.803623050E-2
1.689627032E0,3.732313216E-2,-2.533712685E-1,-4.951423034E-2
1.692143542E0,7.354212552E-2,-2.629582584E-1,-3.886123374E-2
1.694660000E0,1.065651253E-1,-2.704152763E-1,-3.033923171E-2
1.697176511E0,1.342621297E-1,-2.757422626E-1,-2.501323260E-2
1.699693021E0,1.619591266E-1,-2.736112773E-1,-2.075223252E-2
1.702209532E0,1.864601225E-1,-2.704152763E-1,-1.862123236E-2
1.704725990E0,2.077651322E-1,-2.608282566E-1,-2.288223244E-2
1.707339323E0,2.237441242E-1,-2.395232767E-1,-2.820823155E-2
1.709855834E0,2.407881320E-1,-2.128912657E-1,-3.992623091E-2
1.712372344E0,2.535711527E-1,-1.788032651E-1,-5.484023318E-2
1.714888802E0,2.642241418E-1,-1.351272762E-1,-7.188422978E-2
1.717405313E0,2.706151307E-1,-8.292926848E-2,-9.318923205E-2
1.719921823E0,2.738111317E-1,-1.901426911E-2,-1.166252270E-1
1.722438334E0,2.738111317E-1,5.448773131E-2,-1.453872323E-1
1.724954792E0,2.727461457E-1,1.365127265E-1,-1.752142310E-1
1.727471302E0,2.684851289E-1,2.270597219E-1,-2.029112279E-1
1.729987813E0,2.567671537E-1,3.303897381E-1,-2.327382267E-1
1.732504323E0,2.450491339E-1,4.358507395E-1,-2.593702376E-1
1.735020782E0,2.269401252E-1,5.519637465E-1,-2.796102166E-1
1.737665677E0,2.056341320E-1,6.776647568E-1,-2.977192402E-1
1.740182188E0,1.800681353E-1,8.108227849E-1,-3.168942332E-1
1.742698698E0,1.449151337E-1,9.535677433E-1,-3.371342421E-1
1.745215157E0,1.055001318E-1,1.106964707E0,-3.552432358E-1
1.747731667E0,6.395512819E-2,1.261427641E0,-3.658962250E-1
1.750248177E0,1.708313078E-2,1.414824724E0,-3.733532429E-1
1.752764688E0,-3.191786632E-2,1.567156672E0,-3.744182289E-1
1.755281146E0,-7.878886908E-2,1.714162707E0,-3.648312390E-1
1.757797657E0,-1.267258674E-1,1.849450707E0,-3.531132340E-1
1.760314167E0,-1.757278740E-1,1.974086642E0,-3.296772242E-1
1.762830677E0,-2.172728777E-1,2.091264725E0,-2.966542244E-1
1.765347136E0,-2.556218505E-1,2.197790623E0,-2.561742365E-1
1.767922084E0,-2.929058671E-1,2.290468693E0,-2.093032300E-1
1.770438594E0,-3.259288669E-1,2.373558760E0,-1.517792344E-1
1.772955104E0,-3.546908498E-1,2.441735744E0,-8.253722638E-2
1.775471563E0,-3.813228607E-1,2.492867708E0,-2.643231302E-3
1.777988073E0,-4.026278555E-1,2.525890589E0,7.938177139E-2
1.780504584E0,-4.249988496E-1,2.535478592E0,1.646027714E-1
1.783021094E0,-4.420428574E-1,2.532282591E0,2.572797835E-1
1.785537552E0,-4.590868652E-1,2.512042761E0,3.446317613E-1
1.788054063E0,-4.750658572E-1,2.469431639E0,4.287867844E-1
1.790570573E0,-4.899788499E-1,2.411907673E0,5.140077472E-1
1.793087084E0,-5.006318688E-1,2.334143639E0,5.992287993E-1
1.795603542E0,-5.166108608E-1,2.245727777E0,6.695357561E-1
1.798214167E0,-5.304588675E-1,2.147723675E0,7.345167994E-1
1.800730677E0,-5.453729033E-1,2.044393778E0,7.877797484E-1
1.803247188E0,-5.602868795E-1,1.933606744E0,8.282597661E-1
1.805763646E0,-5.709388852E-1,1.814297676E0,8.612827659E-1
1.808280157E0,-5.858528614E-1,1.683270693E0,8.793917894E-1
1.810796667E0,-5.975708961E-1,1.545851707E0,8.889787793E-1
1.813313177E0,-6.050269008E-1,1.397780657E0,8.932397962E-1
1.815829636E0,-6.071578860E-1,1.241187692E0,8.943057656E-1
1.818346146E0,-6.103538871E-1,1.075006723E0,8.911097646E-1
1.820862657E0,-6.028968692E-1,9.024347663E-1,8.879137635E-1
1.823379167E0,-5.943748951E-1,7.330587506E-1,8.900447488E-1
1.825895625E0,-5.805258751E-1,5.615517497E-1,8.889787793E-1
1.828506198E0,-5.581558943E-1,3.975017369E-1,8.953707814E-1
1.831022709E0,-5.357859135E-1,2.462347299E-1,9.038927555E-1
1.833539219E0,-5.016968846E-1,1.013597324E-1,9.166757464E-1
1.836055677E0,-4.622828662E-1,-2.647126839E-2,9.358507991E-1
1.838572188E0,-4.196718633E-1,-1.393882781E-1,9.560907483E-1
1.841088698E0,-3.706698418E-1,-2.352622747E-1,9.805917740E-1
1.843605209E0,-3.216678500E-1,-3.162212670E-1,1.006157756E0
1.846121667E0,-2.684048414E-1,-3.758762777E-1,1.034919739E0
1.848638177E0,-2.076848745E-1,-4.163562655E-1,1.064746737E0
1.851154688E0,-1.448348761E-1,-4.461832643E-1,1.094574809E0
1.853671198E0,-7.878886908E-2,-4.600322843E-1,1.119075775E0
1.856187657E0,-9.546868503E-3,-4.536402822E-1,1.143576741E0
1.858794584E0,6.182413176E-2,-4.355312586E-1,1.164881825E0
1.861311094E0,1.342621297E-1,-4.067692757E-1,1.185121775E0
1.863827604E0,2.098951340E-1,-3.705502748E-1,1.203230739E0
1.866344063E0,2.865941525E-1,-3.311352730E-1,1.216013789E0
1.868860573E0,3.611621559E-1,-2.885252833E-1,1.233057737E0
1.871377084E0,4.367961586E-1,-2.384572774E-1,1.240514755E0
1.873893594E0,5.134950876E-1,-1.937172711E-1,1.245840788E0
1.876410052E0,5.912591219E-1,-1.543022692E-1,1.247971773E0
1.878926563E0,6.658270955E-1,-1.095612720E-1,1.245840788E0
1.881443073E0,7.403951287E-1,-6.588526815E-2,1.239449739E0
1.883959584E0,8.149631023E-1,-1.581826806E-2,1.227731824E0
1.886476042E0,8.852701187E-1,4.276973382E-2,1.210687757E0
1.889087448E0,9.513161182E-1,1.120117307E-1,1.190447807E0
1.891603959E0,1.017363191E0,1.961677223E-1,1.158489823E0
1.894120469E0,1.078082204E0,2.952367365E-1,1.121205807E0
1.896636927E0,1.132411122E0,4.124147296E-1,1.079660773E0
1.899153438E0,1.183543205E0,5.434417725E-1,1.033854723E0
1.901669948E0,1.232545137E0,6.872527599E-1,9.869827628E-1
1.904186459E0,1.277286172E0,8.406497836E-1,9.411767721E-1
1.906702917E0,1.312440157E0,9.983077645E-1,8.975007534E-1
1.909219427E0,1.345463157E0,1.154901743E0,8.442377448E-1
1.911735938E0,1.375290155E0,1.315755725E0,7.931057811E-1
1.914252448E0,1.398726225E0,1.464891672E0,7.441037893E-1
1.916768907E0,1.416835189E0,1.599114656E0,6.887107491E-1
1.919356511E0,1.430683136E0,1.718423724E0,6.237297654E-1
1.921873021E0,1.442401171E0,1.807905674E0,5.544877648E-1
1.924389532E0,1.445597172E0,1.867560744E0,4.820497632E-1
1.926905990E0,1.441336155E0,1.888865709E0,4.042857587E-1
1.929422500E0,1.430683136E0,1.862233758E0,3.201307654E-1
1.931939011E0,1.412574172E0,1.795122743E0,2.391707748E-1
1.934455521E0,1.385943174E0,1.687531710E0,1.603417695E-1
1.936971979E0,1.352919221E0,1.554373741E0,7.938177139E-2
1.939488490E0,1.304983139E0,1.409498692E0,-5.838231184E-3
1.942005000E0,1.251720190E0,1.262492657E0,-9.318923205E-2
1.944521511E0,1.191000223E0,1.114421725E0,-1.837362349E-1
1.947037969E0,1.120693207E0,9.642197490E-1,-2.689572275E-1
1.949700938E0,1.042929173E0,8.310627341E-1,-3.552432358E-1
1.952217448E0,9.651651382E-1,7.064267397E-1,-4.330072403E-1
1.954733959E0,8.810091019E-1,5.956397653E-1,-5.107712150E-1
1.957250417E0,8.011150956E-1,5.008317828E-1,-5.800132155E-1
1.959766927E0,7.222861052E-1,4.156107306E-1,-6.396682262E-1
1.962283438E0,6.466521025E-1,3.431737423E-1,-6.897352338E-1
1.964799948E0,5.656921268E-1,2.707357407E-1,-7.280842066E-1
1.967316407E0,4.932551384E-1,2.004287243E-1,-7.525852323E-1
1.969832917E0,4.314701557E-1,1.322517246E-1,-7.611072063E-1
1.972349427E0,3.792721331E-1,6.620572507E-2,-7.643032074E-1
1.974865938E0,3.366611302E-1,-3.036268521E-3,-7.611072063E-1
1.977382396E0,3.142911494E-1,-5.203726888E-2,-7.440632582E-1
1.979969375E0,3.089651465E-1,-6.908126920E-2,-7.163662314E-1
1.982485886E0,3.377271295E-1,-4.884126782E-2,-6.769522429E-1
1.985002396E0,3.984461427E-1,1.400773134E-2,-6.226242185E-1
1.987518854E0,4.911241531E-1,9.283673018E-2,-5.640342236E-1
1.990035365E0,6.136291027E-1,1.546227336E-1,-5.001192689E-1
1.992551875E0,7.510480881E-1,1.844497323E-1,-4.404642284E-1
1.995068386E0,8.959231377E-1,1.737967283E-1,-3.861362338E-1
1.997584844E0,1.039733171E0,1.184037253E-1,-3.360692263E-1
2.000101354E0,1.183543205E0,2.785673365E-2,-2.913282216E-1
2.002617865E0,1.330549121E0,-7.440727204E-2,-2.529782355E-1
2.005134375E0,1.478620172E0,-2.033042759E-1,-2.274122238E-1
2.007650834E0,1.625626206E0,-3.428532779E-1,-2.071722299E-1
2.010288907E0,1.760914207E0,-4.919892848E-1,-2.082372308E-1
2.012805417E0,1.871701121E0,-6.666922569E-1,-2.369992286E-1
2.015321927E0,1.964379191E0,-8.339382410E-1,-2.774792314E-1
2.017838386E0,2.031490088E0,-1.007575274E0,-3.243512213E-1
2.020354896E0,2.089014053E0,-1.148189306E0,-3.786792159E-1
2.022871407E0,2.123101950E0,-1.278151274E0,-4.393992424E-1
2.025387917E0,2.146538019E0,-1.360176325E0,-4.969232380E-1
2.027904375E0,2.144407988E0,-1.424092293E0,-5.555122495E-1
2.030420886E0,2.128428936E0,-1.435810328E0,-6.151672006E-1
2.032937396E0,2.096471071E0,-1.423027277E0,-6.726912260E-1
2.035453907E0,2.063447952E0,-1.387873292E0,-7.248892188E-1
2.037970365E0,2.022968054E0,-1.342067242E0,-7.738902569E-1
2.040578750E0,1.973966122E0,-1.280282259E0,-8.143702149E-1
2.043095261E0,1.921768188E0,-1.202518344E0,-8.420672417E-1
2.045611771E0,1.870636225E0,-1.120493293E0,-8.580462337E-1
2.048128229E0,1.814177155E0,-1.027815342E0,-8.623072505E-1
2.050644740E0,1.753457189E0,-9.287462234E-1,-8.527202010E-1
2.053161250E0,1.691672206E0,-8.264812231E-1,-8.271532059E-1
2.055677761E0,1.620300174E0,-7.252812386E-1,-7.898692489E-1
2.058194219E0,1.546797156E0,-6.347342134E-1,-7.429982424E-1
2.060710729E0,1.472229123E0,-5.399262309E-1,-6.886702180E-1
2.063227240E0,1.398726225E0,-4.504442811E-1,-6.226242185E-1
2.065743750E0,1.320962191E0,-3.652232587E-1,-5.523162484E-1
2.068260209E0,1.242132187E0,-2.831982672E-1,-4.766832292E-1
2.070831823E0,1.164368153E0,-1.926512718E-1,-3.989192247E-1
2.073349844E0,1.090865135E0,-9.571327269E-2,-3.200902343E-1
2.075867865E0,1.025885224E0,5.485731177E-3,-2.444562316E-1
2.078385886E0,9.619691372E-1,1.013597324E-1,-1.688232273E-1
2.080903907E0,9.108371139E-1,1.844497323E-1,-9.745022655E-2
2.083421875E0,8.660961390E-1,2.494307160E-1,-3.140423074E-2
2.085939896E0,8.288121223E-1,2.941717207E-1,2.931476757E-2
2.088457917E0,8.011150956E-1,3.069547415E-1,8.364277333E-2
2.090975886E0,7.755491138E-1,2.781927288E-1,1.241227686E-1
2.093493959E0,7.446560860E-1,1.919067353E-1,1.432967782E-1
2.096011979E0,7.180241346E-1,5.448773131E-2,1.475577652E-1
2.098530000E0,6.956540942E-1,-1.489762664E-1,1.337097734E-1
2.101125573E0,6.796751022E-1,-4.099642634E-1,1.113397703E-1
2.103643594E0,6.668921113E-1,-7.039762139E-1,7.085977495E-2
2.106161615E0,6.413261294E-1,-1.045925260E0,-5.132312654E-4
2.108679636E0,6.104331017E-1,-1.433679342E0,-8.360222727E-2
2.111197657E0,5.752801299E-1,-1.840608358E0,-1.901282221E-1
2.113715625E0,5.358651280E-1,-2.256060362E0,-3.073072135E-1
2.116233646E0,4.953851402E-1,-2.673642397E0,-4.415292144E-1
2.118751667E0,4.517091513E-1,-3.106137276E0,-5.938622355E-1
2.121269688E0,3.931201398E-1,-3.547155380E0,-7.643032074E-1
2.123787709E0,3.270741403E-1,-3.967933416E0,-9.475282431E-1
2.126305729E0,2.588971555E-1,-4.351426125E0,-1.130753279E0
2.128823750E0,1.885901242E-1,-4.678461075E0,-1.318238258E0
2.131415000E0,1.172181293E-1,-4.942646503E0,-1.492941260E0
2.133933021E0,3.838913143E-2,-5.164220333E0,-1.656991243E0
2.136451042E0,-4.789586738E-2,-5.342118263E0,-1.805062175E0
2.138969063E0,-1.384438723E-1,-5.473145485E0,-1.929698229E0
2.141487084E0,-2.279248685E-1,-5.535995483E0,-2.023440123E0
2.144005052E0,-3.078198433E-1,-5.506168365E0,-2.085226297E0
2.146523073E0,-3.738658428E-1,-5.391120434E0,-2.115053177E0
2.149041094E0,-4.111498594E-1,-5.210026264E0,-2.105465174E0
2.151559115E0,-4.026278555E-1,-4.974603176E0,-2.059659243E0
2.154077136E0,-3.312558532E-1,-4.724267483E0,-1.975504279E0
2.156595157E0,-1.895758659E-1,-4.492041111E0,-1.860456228E0
2.159113125E0,-3.155868733E-3,-4.306685448E0,-1.725168228E0
2.161716354E0,2.248091251E-1,-4.163941383E0,-1.586684227E0
2.164234375E0,4.921891391E-1,-4.044631481E0,-1.446070194E0
2.166752396E0,8.096371293E-1,-3.935975313E0,-1.288411260E0
2.169270417E0,1.161173224E0,-3.828384399E0,-1.119035244E0
2.171788438E0,1.527622223E0,-3.714401245E0,-9.624422193E-1
2.174306407E0,1.890876174E0,-3.602549314E0,-8.335452080E-1
2.176824427E0,2.231759071E0,-3.505610228E0,-7.302152514E-1
2.179342448E0,2.543879986E0,-3.422520399E0,-6.545812488E-1
2.181860469E0,2.815521002E0,-3.353278399E0,-5.949272513E-1
2.184378490E0,3.040291071E0,-3.295754194E0,-5.555122495E-1
2.186896459E0,3.216058969E0,-3.260600328E0,-5.363382101E-1
2.189414532E0,3.342824936E0,-3.248882294E0,-5.310112238E-1
2.191998073E0,3.429111004E0,-3.253143311E0,-5.352722406E-1
2.194516094E0,3.480244160E0,-3.275514364E0,-5.395332575E-1
2.197034115E0,3.494091988E0,-3.317059278E0,-5.469902158E-1
2.199552136E0,3.478112936E0,-3.366061211E0,-5.491212010E-1
2.202070157E0,3.429111004E0,-3.419324398E0,-5.405992270E-1
2.204588125E0,3.350281954E0,-3.460869312E0,-5.139672160E-1
2.207106146E0,3.235234022E0,-3.485370398E0,-4.702912271E-1
2.209624167E0,3.070119143E0,-3.471522331E0,-4.042452276E-1
2.212142188E0,2.858132124E0,-3.433172226E0,-3.200902343E-1
2.214660209E0,2.617383003E0,-3.385235310E0,-2.220862210E-1
2.217178229E0,2.357460022E0,-3.319189310E0,-1.251472384E-1
2.219696198E0,2.076231003E0,-3.233969212E0,-2.927423269E-2
2.222310469E0,1.791807175E0,-3.124247313E0,5.914176628E-2
2.224828490E0,1.512708187E0,-2.986828327E0,1.464927644E-1
2.227346459E0,1.252785206E0,-2.821713209E0,2.253217697E-1
2.229864479E0,1.021624207E0,-2.632097244E0,2.956297696E-1
2.232382500E0,8.202891350E-1,-2.426501274E0,3.435657620E-1
2.234900521E0,6.551741362E-1,-2.207058191E0,3.744587600E-1
2.237418542E0,5.262781382E-1,-1.986549258E0,3.915027678E-1
2.239936563E0,4.357311428E-1,-1.773497343E0,3.946987689E-1
2.242454532E0,3.771411479E-1,-1.559380293E0,3.797847629E-1
2.244972552E0,3.473141491E-1,-1.348458290E0,3.510227799E-1
2.247490573E0,3.494451344E-1,-1.138602257E0,3.116077781E-1
2.250008542E0,3.728801310E-1,-9.308762550E-1,2.647367716E-1
2.252581771E0,4.112301469E-1,-7.412602305E-1,2.167997658E-1
2.255099792E0,4.644931555E-1,-5.740142465E-1,1.699287742E-1
2.257617813E0,5.294731259E-1,-4.291392565E-1,1.241227686E-1
2.260135834E0,6.008461118E-1,-3.087652624E-1,9.322977066E-2
2.262653802E0,6.775451303E-1,-2.118262649E-1,7.298976928E-2
2.265171823E0,7.585040927E-1,-1.351272762E-1,6.446777284E-2
2.267689844E0,8.405290842E-1,-6.588526815E-2,6.340277195E-2
2.270207865E0,9.214891195E-1,-6.231268402E-3,7.192476839E-2
2.272725886E0,1.005645156E0,4.596573114E-2,8.577277511E-2
2.275243907E0,1.088735223E0,9.816373140E-2,1.038827747E-1
2.277761875E0,1.171825171E0,1.482307315E-1,1.273177713E-1
2.280279948E0,1.258111119E0,1.951017231E-1,1.550147682E-1
2.282870834E0,1.344397187E0,2.483647168E-1,1.912337691E-1
2.285388854E0,1.428553224E0,2.952367365E-1,2.263877690E-1
2.287906875E0,1.518035173E0,3.271947205E-1,2.583447695E-1
2.290424896E0,1.612843156E0,4.006977379E-1,2.871067822E-1
2.292942917E0,1.706586123E0,5.018967390E-1,3.126737773E-1
2.295460886E0,1.803524137E0,5.988357663E-1,3.286527693E-1
2.297978907E0,1.899398208E0,6.979047656E-1,3.393047750E-1
2.300496927E0,1.994206190E0,7.927127481E-1,3.467617631E-1
2.303014948E0,2.086884022E0,8.789987564E-1,3.531537652E-1
2.305532969E0,2.174235106E0,9.461107850E-1,3.627407849E-1
2.308050990E0,2.255195141E0,9.876557589E-1,3.648707569E-1
2.310569011E0,2.330827951E0,1.005764723E0,3.638057709E-1
2.313162604E0,2.400069952E0,1.006830692E0,3.584797680E-1
2.315680625E0,2.459725142E0,9.940467477E-1,3.510227799E-1
2.318198646E0,2.517249107E0,9.642197490E-1,3.425007761E-1
2.320716667E0,2.571577072E0,9.301317334E-1,3.286527693E-1
2.323234688E0,2.617383003E0,8.896517754E-1,3.148037791E-1
2.325752657E0,2.652537107E0,8.438457847E-1,3.030857742E-1
2.328270677E0,2.681298971E0,7.980397344E-1,2.881727815E-1
2.330788698E0,2.705800056E0,7.490377426E-1,2.785847783E-1
2.333306719E0,2.721779108E0,6.925787330E-1,2.679327726E-1
2.335824740E0,2.724974155E0,6.244017482E-1,2.530187666E-1
2.338342761E0,2.717518091E0,5.562257767E-1,2.327787727E-1
2.340860782E0,2.703669071E0,4.848527312E-1,2.167997658E-1
2.343452292E0,2.675971985E0,4.134807289E-1,1.965597719E-1
2.345970313E0,2.634427071E0,3.453037143E-1,1.656677723E-1
2.348488282E0,2.582229137E0,2.760617435E-1,1.411667764E-1
2.351006354E0,2.516183138E0,2.068197280E-1,1.156007722E-1
2.353524375E0,2.442680120E0,1.429047287E-1,8.257777244E-2
2.356042344E0,2.357460022E0,9.283673018E-2,5.061976612E-2
2.358560365E0,2.259456158E0,4.916173220E-2,1.866176724E-2
2.361078386E0,2.153995037E0,1.933373138E-2,-1.116423123E-2
2.363596354E0,2.038947105E0,5.485731177E-3,-4.951423034E-2
2.366114427E0,1.913246155E0,1.081173122E-2,-8.573322743E-2
2.368632448E0,1.785415173E0,3.637873381E-2,-1.219512299E-1
2.371150469E0,1.643735170E0,7.792373002E-2,-1.571052223E-1
2.373744167E0,1.495664120E0,1.290557235E-1,-1.879972219E-1
2.376262188E0,1.349724174E0,1.897757351E-1,-2.114332318E-1
2.378780209E0,1.194196224E0,2.568867207E-1,-2.306082249E-1
2.381298229E0,1.034407139E0,3.229337335E-1,-2.455222309E-1
2.383816250E0,8.714221120E-1,3.836527169E-1,-2.476522326E-1
2.386334219E0,7.073721290E-1,4.401117265E-1,-2.487172335E-1
2.388852240E0,5.379961133E-1,4.837877154E-1,-2.433912307E-1
2.391370261E0,3.771411479E-1,5.232017636E-1,-2.284772247E-1
2.393888282E0,2.173521221E-1,5.626167655E-1,-2.124982327E-1
2.396406302E0,6.395512819E-2,6.052267551E-1,-2.029112279E-1
2.398924323E0,-7.985386997E-2,6.552947760E-1,-1.911932230E-1
2.401442344E0,-2.140768766E-1,7.213407755E-1,-1.784102321E-1
2.404036563E0,-3.376468420E-1,7.937787771E-1,-1.666922271E-1
2.406554584E0,-4.473688602E-1,8.715417385E-1,-1.581702232E-1
2.409072604E0,-5.411118865E-1,9.556977749E-1,-1.496482342E-1
2.411590625E0,-6.156798601E-1,1.041983724E0,-1.400612295E-1
2.414108646E0,-6.721388698E-1,1.122943640E0,-1.336692274E-1
2.416626615E0,-7.136839032E-1,1.187924743E0,-1.294082254E-1
2.419144636E0,-7.392498851E-1,1.230534673E0,-1.230172291E-1
2.421662657E0,-7.456418872E-1,1.257166743E0,-1.251472384E-1
2.424180677E0,-7.349888682E-1,1.259296656E0,-1.230172291E-1
2.426698698E0,-7.126188874E-1,1.239056706E0,-1.272782236E-1
2.429216719E0,-6.763998866E-1,1.206033707E0,-1.336692274E-1
2.431734740E0,-6.284629107E-1,1.153835654E0,-1.304732263E-1
2.434327136E0,-5.720039010E-1,1.090985656E0,-1.379302293E-1
2.436845157E0,-5.134148598E-1,1.017482758E0,-1.421912313E-1
2.439363177E0,-4.526948631E-1,9.269357324E-1,-1.475182325E-1
2.441881198E0,-3.887798488E-1,8.214747310E-1,-1.592352241E-1
2.444399167E0,-3.301898539E-1,7.074917555E-1,-1.698882282E-1
2.446917188E0,-2.716008425E-1,5.924437642E-1,-1.784102321E-1
2.449435209E0,-2.194028646E-1,4.678087234E-1,-1.826712340E-1
2.451953229E0,-1.640098691E-1,3.431737423E-1,-1.837362349E-1
2.454471198E0,-1.118118688E-1,2.227987349E-1,-1.826712340E-1
2.456989271E0,-5.854886770E-2,1.056207269E-1,-1.741492301E-1
2.459507292E0,-1.274286862E-2,-6.231268402E-3,-1.656272262E-1
2.462025313E0,3.412813321E-2,-1.021042690E-1,-1.581702232E-1
2.464627136E0,8.206412941E-2,-1.841292679E-1,-1.517792344E-1
2.467145157E0,1.236091256E-1,-2.405882776E-1,-1.507132351E-1
2.469663177E0,1.672851294E-1,-2.714812756E-1,-1.517792344E-1
2.472181198E0,2.035041302E-1,-2.853292823E-1,-1.528442353E-1
2.474699219E0,2.258741260E-1,-2.746762633E-1,-1.592352241E-1
2.477217188E0,2.439841330E-1,-2.491102666E-1,-1.688232273E-1
2.479735209E0,2.546361387E-1,-1.969122738E-1,-1.816062331E-1
2.482253229E0,2.535711527E-1,-1.308662742E-1,-1.965202242E-1
2.484771250E0,2.439841330E-1,-4.884126782E-2,-2.135642320E-1
2.487289271E0,2.237441242E-1,4.916173220E-2,-2.316732258E-1
2.489807292E0,1.885901242E-1,1.652747244E-1,-2.508482337E-1
2.492325313E0,1.438491344E-1,2.931057215E-1,-2.689572275E-1
2.494944948E0,8.739113063E-2,4.283937216E-1,-2.817402184E-1
2.497462917E0,1.814913005E-2,5.690087676E-1,-2.987852395E-1
2.499980938E0,-6.494086981E-2,7.064267397E-1,-3.179592192E-1
2.502498959E0,-1.629448682E-1,8.449107409E-1,-3.286122382E-1
2.505016979E0,-2.673398554E-1,9.759377837E-1,-3.488522172E-1
2.507535000E0,-3.781268597E-1,1.110160708E0,-3.605702221E-1
2.510053021E0,-4.995668530E-1,1.242252707E0,-3.744182289E-1
2.512571042E0,-6.284629107E-1,1.377540708E0,-3.840052187E-1
2.515089011E0,-7.573598623E-1,1.513893723E0,-3.999842405E-1
2.517607032E0,-8.830598593E-1,1.652377725E0,-4.127672315E-1
2.520125052E0,-1.010891795E0,1.786600709E0,-4.287462234E-1
2.522643073E0,-1.137656808E0,1.917627692E0,-4.447252154E-1
2.525234740E0,-1.259096861E0,2.047589779E0,-4.585742354E-1
2.527752761E0,-1.383732796E0,2.181811810E0,-4.777482152E-1
2.530270729E0,-1.507302880E0,2.292598724E0,-4.947922230E-1
2.532788750E0,-1.628741860E0,2.359710693E0,-5.171632171E-1
2.535306771E0,-1.746985793E0,2.406581640E0,-5.405992270E-1
2.537824792E0,-1.863099813E0,2.441735744E0,-5.651002526E-1
2.540342813E0,-1.974951863E0,2.467301607E0,-5.885352492E-1
2.542860834E0,-2.081477880E0,2.484345675E0,-6.055792570E-1
2.545378802E0,-2.181612015E0,2.496063709E0,-6.141012311E-1
2.547896823E0,-2.274289846E0,2.497128725E0,-6.109062433E-1
2.550414844E0,-2.363771915E0,2.485410690E0,-6.013182402E-1
2.552932865E0,-2.443665981E0,2.458779812E0,-5.906662345E-1
2.555491459E0,-2.518234015E0,2.419364691E0,-5.725562572E-1
2.558009479E0,-2.582149982E0,2.368232727E0,-5.501862168E-1
2.560527500E0,-2.647130966E0,2.309642792E0,-5.224892497E-1
2.563045521E0,-2.702523947E0,2.247857809E0,-4.915972352E-1
2.565563490E0,-2.748330832E0,2.187138796E0,-4.585742354E-1
2.568081511E0,-2.785614967E0,2.125353813E0,-4.255502224E-1
2.570599532E0,-2.815441847E0,2.055045605E0,-3.893322349E-1
2.573117552E0,-2.834616899E0,1.990064740E0,-3.509822190E-1
2.575635573E0,-2.851660967E0,1.919757724E0,-3.083722293E-1
2.578153594E0,-2.858052015E0,1.848385692E0,-2.625662386E-1
2.580671615E0,-2.858052015E0,1.787665725E0,-2.135642320E-1
2.583189636E0,-2.849529982E0,1.730141640E0,-1.613662243E-1
2.585783334E0,-2.846333981E0,1.671552658E0,-1.091682315E-1
2.588302604E0,-2.835681915E0,1.627876759E0,-5.057923123E-2
2.590821875E0,-2.832485914E0,1.584200740E0,6.943768822E-3
2.593341146E0,-2.831420898E0,1.540525675E0,6.127176806E-2
2.595860365E0,-2.844203949E0,1.496849656E0,1.113397703E-1
2.598379636E0,-2.867640018E0,1.447847724E0,1.667327732E-1
2.600898907E0,-2.902792931E0,1.392454743E0,2.221267670E-1
2.603418177E0,-2.952859879E0,1.324277639E0,2.689977586E-1
2.605937448E0,-3.015710831E0,1.248644710E0,3.105427623E-1
2.608456719E0,-3.089213848E0,1.168749690E0,3.595447838E-1
2.610975990E0,-3.166977882E0,1.081398726E0,4.053507745E-1
2.613495261E0,-3.253263950E0,9.961777329E-1,4.596797824E-1
2.616075157E0,-3.337419033E0,9.045657516E-1,5.097467899E-1
2.618594427E0,-3.434357882E0,8.065617681E-1,5.576837659E-1
2.621113698E0,-3.527035952E0,7.042967677E-1,6.013587713E-1
2.623632969E0,-3.618648052E0,6.009657383E-1,6.492957473E-1
2.626152188E0,-3.712390900E0,4.965707362E-1,7.004277706E-1
2.628671459E0,-3.802937984E0,3.943057358E-1,7.494297624E-1
2.631190729E0,-3.887094021E0,2.952367365E-1,7.952367663E-1
2.633710000E0,-3.970183849E0,1.993627250E-1,8.389117718E-1
2.636229271E0,-4.046883106E0,1.130767316E-1,8.761957884E-1
2.638748542E0,-4.120385170E0,3.424773365E-2,9.102847576E-1
2.641267813E0,-4.184300900E0,-2.966626734E-2,9.390468001E-1
2.643787084E0,-4.237564087E0,-7.653827220E-2,9.496987462E-1
2.646364636E0,-4.280173779E0,-1.063652709E-1,9.411767721E-1
2.648883907E0,-4.312131882E0,-1.361922771E-1,9.273287654E-1
2.651403125E0,-4.330242157E0,-1.724112779E-1,9.124147892E-1
2.653922396E0,-4.338763714E0,-2.065002769E-1,8.911097646E-1
2.656441667E0,-4.335567951E0,-2.416532785E-1,8.484997749E-1
2.658960938E0,-4.319589138E0,-2.821332812E-1,7.867137790E-1
2.661480209E0,-4.290826797E0,-3.268742859E-1,7.068197727E-1
2.663999479E0,-4.246086121E0,-3.758762777E-1,6.184027791E-1
2.666518750E0,-4.183236122E0,-4.334002733E-1,5.363777876E-1
2.669038021E0,-4.105472088E0,-5.079682469E-1,4.586137831E-1
2.671557292E0,-4.014925003E0,-5.793412328E-1,3.936327696E-1
2.674076563E0,-3.906267881E0,-6.379302144E-1,3.350437582E-1
2.676681042E0,-3.781632900E0,-6.773452163E-1,2.796507776E-1
2.679200261E0,-3.639952898E0,-6.890622377E-1,2.391707748E-1
2.681719532E0,-3.489752054E0,-6.709532142E-1,2.050817758E-1
2.684238802E0,-3.329962969E0,-6.272772551E-1,1.795157790E-1
2.686758073E0,-3.163781881E0,-5.559052229E-1,1.603417695E-1
2.689277344E0,-2.993340015E0,-4.579012692E-1,1.432967782E-1
2.691796615E0,-2.826094866E0,-3.364612758E-1,1.347747743E-1
2.694315886E0,-2.655653000E0,-1.873252690E-1,1.326447725E-1
2.696835157E0,-2.487341881E0,-5.166268442E-3,1.358407736E-1
2.699354427E0,-2.327553034E0,2.068197280E-1,1.379707754E-1
2.701873698E0,-2.181612015E0,4.433077276E-1,1.518187672E-1
2.704392917E0,-2.053781033E0,7.128187418E-1,1.763197780E-1
2.706980157E0,-1.948319793E0,1.011091709E0,2.178657651E-1
2.709499427E0,-1.865229845E0,1.343452692E0,2.647367716E-1
2.712018646E0,-1.794922829E0,1.714162707E0,3.148037791E-1
2.714537917E0,-1.743789792E0,2.087003708E0,3.680667579E-1
2.717057188E0,-1.701179862E0,2.464105606E0,4.287867844E-1
2.719576459E0,-1.669221878E0,2.830555677E0,4.863107800E-1
2.722095729E0,-1.645785809E0,3.169307709E0,5.480957627E-1
2.724615000E0,-1.625546813E0,3.478233814E0,6.013587713E-1
2.727134271E0,-1.613828778E0,3.744548798E0,6.556867957E-1
2.729653542E0,-1.603175879E0,3.968252659E0,7.142767906E-1
2.732172813E0,-1.592522860E0,4.158934593E0,7.739307880E-1
2.734692032E0,-1.580805779E0,4.314462662E0,8.346507549E-1
2.737237761E0,-1.569087863E0,4.431640625E0,8.921747804E-1
2.739757032E0,-1.562695861E0,4.505143642E0,9.401117563E-1
2.742276302E0,-1.559499860E0,4.533905506E0,9.901787639E-1
2.744795573E0,-1.562695861E0,4.523253918E0,1.040245771E0
2.747314792E0,-1.573348880E0,4.468925476E0,1.080725789E0
2.749834063E0,-1.592522860E0,4.383704662E0,1.114814758E0
2.752353334E0,-1.612762809E0,4.271851540E0,1.130792737E0
2.754872604E0,-1.629807830E0,4.121650696E0,1.131858826E0
2.757391875E0,-1.645785809E0,3.940556765E0,1.119075775E0
2.759911146E0,-1.661764860E0,3.726438761E0,1.096704721E0
2.762430417E0,-1.669221878E0,3.471841812E0,1.066877723E0
2.764949688E0,-1.673482776E0,3.182090759E0,1.027462721E0
2.767542865E0,-1.670286775E0,2.857186794E0,9.816567898E-1
2.770062136E0,-1.660699844E0,2.509911776E0,9.209367633E-1
2.772581407E0,-1.638329864E0,2.143462658E0,8.570217490E-1
2.775100677E0,-1.614893794E0,1.765295744E0,7.835187912E-1
2.777619896E0,-1.582935810E0,1.372214675E0,7.142767906E-1
2.780139167E0,-1.544586778E0,9.620897770E-1,6.546217799E-1
2.782658438E0,-1.503041863E0,5.455727577E-1,5.992287993E-1
2.785177709E0,-1.452973843E0,1.386437267E-1,5.523567796E-1
2.787696979E0,-1.399710774E0,-2.416532785E-1,5.129427910E-1
2.790216250E0,-1.343252778E0,-5.899932384E-1,4.788537621E-1
2.792735521E0,-1.289989829E0,-8.914622664E-1,4.500917792E-1
2.795254792E0,-1.235660791E0,-1.135406256E0,4.170687795E-1
2.797822032E0,-1.174941778E0,-1.319696307E0,3.872417808E-1
2.800341302E0,-1.111025810E0,-1.450723290E0,3.563487828E-1
2.802860573E0,-1.047109842E0,-1.531683326E0,3.190647662E-1
2.805379792E0,-9.821288586E-1,-1.574293256E0,2.828457654E-1
2.807899063E0,-9.160828590E-1,-1.590272307E0,2.444967777E-1
2.810418334E0,-8.447108865E-1,-1.577489257E0,2.008207738E-1
2.812937604E0,-7.712078691E-1,-1.546597242E0,1.603417695E-1
2.815456875E0,-7.030308843E-1,-1.499725342E0,1.241227686E-1
2.817976146E0,-6.327238679E-1,-1.443267345E0,9.109976888E-2
2.820495417E0,-5.634818673E-1,-1.378286242E0,6.766377389E-2
2.823014688E0,-4.942398667E-1,-1.302652359E0,5.488076806E-2
2.825533959E0,-4.249988496E-1,-1.218497276E0,4.742376879E-2
2.828147136E0,-3.514958620E-1,-1.119427323E0,4.316276684E-2
2.830666407E0,-2.790578604E-1,-1.011836290E0,3.464076668E-2
2.833185625E0,-2.023588717E-1,-9.063752294E-1,2.185776830E-2
2.835704896E0,-1.267258674E-1,-8.147632480E-1,5.878768861E-3
2.838224167E0,-5.109186843E-2,-7.380642295E-1,-1.009923127E-2
2.840743438E0,3.199713305E-2,-6.666922569E-1,-2.394723147E-2
2.843262709E0,1.129571274E-1,-6.091682315E-1,-3.460023180E-2
2.845781979E0,1.907211244E-1,-5.633622408E-1,-4.525323212E-2
2.848301250E0,2.706151307E-1,-5.250122547E-1,-4.951423034E-2
2.850820521E0,3.473141491E-1,-5.026422739E-1,-5.270923302E-2
2.853339792E0,4.240131378E-1,-4.909242690E-1,-4.844823107E-2
2.855859011E0,4.996461570E-1,-4.866632819E-1,-4.525323212E-2
2.858439167E0,5.752801299E-1,-4.855982661E-1,-3.247023001E-2
2.860958438E0,6.498481035E-1,-4.866632819E-1,-2.288223244E-2
2.863477657E0,7.233511209E-1,-4.919892848E-1,-1.329523139E-2
2.865996927E0,7.957881093E-1,-4.919892848E-1,-6.903231144E-3
2.868516198E0,8.703570962E-1,-4.919892848E-1,-2.643231302E-3
2.871035469E0,9.449251294E-1,-4.877282679E-1,-1.578231342E-3
2.873554740E0,1.018428206E0,-4.760102630E-1,-2.643231302E-3
2.876074011E0,1.088735223E0,-4.579012692E-1,-7.969231345E-3
2.878593282E0,1.162238121E0,-4.334002733E-1,-1.862123236E-2
2.881112500E0,1.227219224E0,-4.110302627E-1,-2.288223244E-2
2.883631823E0,1.290069222E0,-3.886592686E-1,-3.353523090E-2
2.886151042E0,1.352919221E0,-3.694842756E-1,-4.099223390E-2
2.888730521E0,1.412574172E0,-3.545712829E-1,-4.844823107E-2
2.891249792E0,1.471163154E0,-3.428532779E-1,-5.590523034E-2
2.893769011E0,1.531883121E0,-3.322002590E-1,-6.229723245E-2
2.896288282E0,1.584081173E0,-3.204822838E-1,-7.401522994E-2
2.898807552E0,1.627757192E0,-2.959812582E-1,-8.892823011E-2
2.901326823E0,1.671432137E0,-2.661542594E-1,-1.059722304E-1
2.903846094E0,1.708716154E0,-2.235442698E-1,-1.283432245E-1
2.906365365E0,1.740674138E0,-1.660202742E-1,-1.528442353E-1
2.908884636E0,1.763045192E0,-8.932127059E-2,-1.837362349E-1
2.911403854E0,1.777958155E0,8.681731299E-3,-2.167602330E-1
2.913923177E0,1.782219172E0,1.322517246E-1,-2.551092207E-1
2.916442396E0,1.773697138E0,2.771267295E-1,-3.009152412E-1
2.919020157E0,1.755588174E0,4.465037286E-1,-3.467212319E-1
2.921539427E0,1.722565174E0,6.350547671E-1,-3.978542387E-1
2.924058646E0,1.676758170E0,8.491717577E-1,-4.585742354E-1
2.926577917E0,1.620300174E0,1.084593654E0,-5.192932487E-1
2.929097188E0,1.545732141E0,1.341321707E0,-5.768172145E-1
2.931616459E0,1.461576223E0,1.607636690E0,-6.322112083E-1
2.934135729E0,1.373159170E0,1.880343676E0,-6.822782159E-1
2.936655000E0,1.279417157E0,2.141331673E0,-7.184972167E-1
2.939174271E0,1.184608221E0,2.384211779E0,-7.376722097E-1
2.941693542E0,1.094061136E0,2.600458622E0,-7.366062403E-1
2.944212813E0,1.004579186E0,2.787944794E0,-7.184972167E-1
2.946732032E0,9.182931185E-1,2.942407608E0,-6.758872271E-1
2.949310209E0,8.362681270E-1,3.053194761E0,-6.151672006E-1
2.951829479E0,7.627651095E-1,3.118175745E0,-5.416642427E-1
2.954348698E0,6.924580932E-1,3.142676592E0,-4.511172175E-1
2.956867969E0,6.338691115E-1,3.127762794E0,-3.509822190E-1
2.959387240E0,5.784751177E-1,3.074499607E0,-2.444562316E-1
2.961906511E0,5.273430943E-1,2.993539810E0,-1.389962286E-1
2.964425782E0,4.857981503E-1,2.891274691E0,-2.607823163E-2
2.966945052E0,4.421221316E-1,2.766639709E0,8.470777422E-2
2.969464323E0,3.984461427E-1,2.632416725E0,1.912337691E-1
2.971983594E0,3.526401520E-1,2.489671707E0,2.945637703E-1
2.974502865E0,2.993771434E-1,2.343731642E0,3.915027678E-1
2.977022084E0,2.354621291E-1,2.206312656E0,4.841807783E-1
2.979573177E0,1.640891284E-1,2.075285673E0,5.587487817E-1
2.982092448E0,7.780312747E-2,1.949585676E0,6.130767465E-1
2.984611667E0,-2.019986883E-2,1.839863658E0,6.460997462E-1
2.987130938E0,-1.267258674E-1,1.739728689E0,6.588827968E-1
2.989650209E0,-2.439038754E-1,1.639594674E0,6.492957473E-1
2.992169479E0,-3.696048558E-1,1.541590691E0,6.226637959E-1
2.994688750E0,-5.102188587E-1,1.433999658E0,5.789887905E-1
2.997208021E0,-6.529638767E-1,1.311494708E0,5.278557539E-1
2.999727292E0,-8.052958846E-1,1.167684674E0,4.692667723E-1
3.002246563E0,-9.661508799E-1,1.003634691E0,4.128077626E-1
3.004765834E0,-1.121678829E0,8.172137737E-1,3.616757691E-1
3.007285052E0,-1.272944808E0,6.169447303E-1,3.179997802E-1
3.009893907E0,-1.422081828E0,4.198717177E-1,2.860417664E-1
3.012413177E0,-1.553108811E0,2.249297351E-1,2.679327726E-1
3.014932396E0,-1.661764860E0,2.785673365E-2,2.647367716E-1
3.017451667E0,-1.753377795E0,-1.702812761E-1,2.785847783E-1
3.019970938E0,-1.825814843E0,-3.524402678E-1,3.137387633E-1
3.022490209E0,-1.876947880E0,-5.090332627E-1,3.595447838E-1
3.025009479E0,-1.904644847E0,-6.368652582E-1,4.160037637E-1
3.027528750E0,-1.908905864E0,-7.380642295E-1,4.831147790E-1
3.030048021E0,-1.896122813E0,-8.083722591E-1,5.608787537E-1
3.032567292E0,-1.866294861E0,-8.403292298E-1,6.418387890E-1
3.035086563E0,-1.817292809E0,-8.318072557E-1,7.270597816E-1
3.037605782E0,-1.753377795E0,-7.923932672E-1,8.122807741E-1
3.040172500E0,-1.685200810E0,-7.146292329E-1,8.900447488E-1
3.042691771E0,-1.606371880E0,-5.985152125E-1,9.614167809E-1
3.045210990E0,-1.516889811E0,-4.429872632E-1,1.024266720E0
3.047730261E0,-1.422081828E0,-2.523062527E-1,1.075399756E0
3.050249532E0,-1.329403877E0,-2.966626734E-2,1.104161739E0
3.052768802E0,-1.238856792E0,2.121467292E-1,1.118009806E0
3.055288073E0,-1.146179795E0,4.603517354E-1,1.114814758E0
3.057807344E0,-1.060958862E0,7.053617835E-1,1.099900723E0
3.060326615E0,-9.810639024E-1,9.280007482E-1,1.063681722E0
3.062845886E0,-9.054309130E-1,1.118682742E0,1.015744805E0
3.065365157E0,-8.361889124E-1,1.267818689E0,9.539597631E-1
3.067884375E0,-7.712078691E-1,1.365822673E0,8.751307726E-1
3.070448750E0,-7.158138752E-1,1.407367706E0,7.867137790E-1
3.072968021E0,-6.668128967E-1,1.394584656E0,6.961667538E-1
3.075487292E0,-6.231368780E-1,1.326408744E0,5.939017534E-1
3.078006563E0,-5.847879052E-1,1.197511673E0,4.852457643E-1
3.080525782E0,-5.517638922E-1,1.008960724E0,3.819157779E-1
3.083045052E0,-5.187408924E-1,7.735387683E-1,2.775197625E-1
3.085564323E0,-4.889138639E-1,5.029627681E-1,1.709937751E-1
3.088083594E0,-4.590868652E-1,2.025587261E-1,6.872877479E-2
3.090602865E0,-4.313898683E-1,-1.148872748E-1,-3.673123196E-2
3.093122136E0,-4.068888426E-1,-4.419222772E-1,-1.304732263E-1
3.095641407E0,-3.834528625E-1,-7.604352236E-1,-2.306082249E-1
3.098160677E0,-3.610828519E-1,-1.059773326E0,-3.286122382E-1
3.100737761E0,-3.397778571E-1,-1.329284310E0,-4.234202206E-1
3.103258073E0,-3.120808601E-1,-1.561510324E0,-5.235542059E-1
3.105778282E0,-2.833188474E-1,-1.742605329E0,-6.258192062E-1
3.108298646E0,-2.470998764E-1,-1.881088257E0,-7.280842066E-1
3.110818907E0,-2.023588717E-1,-1.981223345E0,-8.324802518E-1
3.113339167E0,-1.405738741E-1,-2.054726362E0,-9.283532500E-1
3.115859427E0,-5.854886770E-2,-2.114380360E0,-1.012509227E0
3.118379688E0,4.265013337E-2,-2.170839310E0,-1.087077260E0
3.120899896E0,1.768721342E-1,-2.220906258E0,-1.158449173E0
3.123420261E0,3.419881463E-1,-2.260321379E0,-1.217039227E0
3.125940521E0,5.326691270E-1,-2.276300192E0,-1.275628209E0
3.128460782E0,7.425251007E-1,-2.270974398E0,-1.336348176E0
3.131025000E0,9.651651382E-1,-2.213449240E0,-1.390676260E0
3.133545261E0,1.211240172E0,-2.057922363E0,-1.434352279E0
3.136065521E0,1.474359155E0,-1.799063325E0,-1.456722260E0
3.138585834E0,1.740674138E0,-1.473094344E0,-1.451396227E0
3.141106094E0,1.999532223E0,-1.102383256E0,-1.438613176E0
3.143626354E0,2.243477106E0,-7.029112577E-1,-1.429025173E0
3.146146615E0,2.457594156E0,-3.045042753E-1,-1.429025173E0
3.148666875E0,2.634427071E0,5.342273414E-2,-1.431156278E0
3.151187136E0,2.768650055E0,3.474347293E-1,-1.447135210E0
3.153707448E0,2.869850159E0,5.615517497E-1,-1.462048173E0
3.156227709E0,2.933765173E0,6.787297726E-1,-1.467375278E0
3.158747969E0,2.967854023E0,7.106877565E-1,-1.466309190E0
3.161350313E0,2.978506088E0,6.659467816E-1,-1.457787275E0
3.163870573E0,2.962527037E0,5.530297756E-1,-1.442874193E0
3.166390834E0,2.928439140E0,4.038927257E-1,-1.414112210E0
3.168911146E0,2.875175953E0,2.259947360E-1,-1.369371176E0
3.171431354E0,2.815521002E0,2.466073260E-2,-1.307586193E0
3.173951667E0,2.762258053E0,-1.798682660E-1,-1.225561261E0
3.176471875E0,2.706865072E0,-3.875942826E-1,-1.135014176E0
3.178992188E0,2.647210121E0,-6.123642325E-1,-1.034879208E0
3.181512448E0,2.592882156E0,-8.339382410E-1,-9.304842353E-1
3.184032761E0,2.531096935E0,-1.050186276E0,-8.335452080E-1
3.186553021E0,2.467180967E0,-1.258977294E0,-7.259542346E-1
3.189073282E0,2.396873951E0,-1.451789260E0,-6.268852353E-1
3.191607709E0,2.320176125E0,-1.621165276E0,-5.310112238E-1
3.194127969E0,2.241346121E0,-1.764975309E0,-4.415292144E-1
3.196648229E0,2.167843103E0,-1.893871307E0,-3.616352379E-1
3.199168542E0,2.093275070E0,-2.007854223E0,-2.955892384E-1
3.201688802E0,2.027229071E0,-2.110119343E0,-2.412602305E-1
3.204209063E0,1.957987189E0,-2.196405411E0,-1.890632212E-1
3.206729323E0,1.897267222E0,-2.266712189E0,-1.379302293E-1
3.209249584E0,1.842939138E0,-2.326367378E0,-9.638522565E-2
3.211769844E0,1.784350157E0,-2.371108294E0,-5.590523034E-2
3.214290157E0,1.733217120E0,-2.407327414E0,-2.288223244E-2
3.216810417E0,1.687411189E0,-2.427567244E0,-7.969231345E-3
3.219330677E0,1.647996187E0,-2.427567244E0,-2.075223252E-2
3.221932188E0,1.613908172E0,-2.424371243E0,-6.336223334E-2
3.224452448E0,1.581950188E0,-2.436089277E0,-1.230172291E-1
3.226972709E0,1.567037225E0,-2.464851379E0,-1.869322211E-1
3.229493021E0,1.557449222E0,-2.511722326E0,-2.455222309E-1
3.232013282E0,1.545732141E0,-2.561790228E0,-3.051762283E-1
3.234533542E0,1.531883121E0,-2.615053415E0,-3.680262268E-1
3.237053802E0,1.519100189E0,-2.672577381E0,-4.404642284E-1
3.239574063E0,1.498860121E0,-2.743949413E0,-5.246202350E-1
3.242094323E0,1.478620172E0,-2.839822292E0,-6.236892343E-1
3.244614636E0,1.461576223E0,-2.947414398E0,-7.344762087E-1
3.247134896E0,1.445597172E0,-3.058201313E0,-8.548502326E-1
3.249655157E0,1.428553224E0,-3.192423344E0,-9.794862270E-1
3.252212188E0,1.401921153E0,-3.354343414E0,-1.108382225E0
3.254732448E0,1.368898153E0,-3.565264225E0,-1.239409208E0
3.257252709E0,1.308179140E0,-3.841167212E0,-1.377893209E0
3.259773021E0,1.230415225E0,-4.141570091E0,-1.518507242E0
3.262293282E0,1.147324204E0,-4.401494503E0,-1.644208193E0
3.264813542E0,1.051451206E0,-4.584718227E0,-1.758191228E0
3.267333802E0,9.555771351E-1,-4.689114094E0,-1.845542192E0
3.269854063E0,8.629001379E-1,-4.723202229E0,-1.915849209E0
3.272374323E0,7.680920959E-1,-4.708288193E0,-1.981895208E0
3.274894636E0,6.711531281E-1,-4.668874264E0,-2.047941208E0
3.277414896E0,5.678231120E-1,-4.632655144E0,-2.124640226E0
3.279935157E0,4.666231573E-1,-4.616676331E0,-2.213057280E0
3.282506771E0,3.856631517E-1,-4.582588196E0,-2.274842262E0
3.285026979E0,3.547711372E-1,-4.500563145E0,-2.300408125E0
3.287547292E0,3.728801310E-1,-4.438778400E0,-2.299343348E0
3.290067604E0,4.453181326E-1,-4.407885075E0,-2.285494328E0
3.292587865E0,6.093680859E-1,-4.338643074E0,-2.263124228E0
3.295108125E0,8.799440861E-1,-4.229987144E0,-2.236492157E0
3.297628386E0,1.246393204E0,-4.078720093E0,-2.201339245E0
3.300148646E0,1.681020141E0,-3.888038397E0,-2.139554262E0
3.302668907E0,2.130558968E0,-3.687769413E0,-2.067116261E0
3.305189219E0,2.577968121E0,-3.487500191E0,-1.994678259E0
3.307709427E0,3.005138159E0,-3.297884226E0,-1.923306227E0
3.310229740E0,3.391827106E0,-3.146617413E0,-1.864717245E0
3.312773386E0,3.717797041E0,-3.049679279E0,-1.811454177E0
3.315293646E0,3.988373041E0,-2.997481346E0,-1.742212176E0
3.317813907E0,4.199294090E0,-2.995350361E0,-1.659122229E0
3.320334219E0,4.353756905E0,-3.032634258E0,-1.550465226E0
3.322854479E0,4.450695992E0,-3.098681211E0,-1.425830245E0
3.325374740E0,4.513545990E0,-3.174314260E0,-1.288411260E0
3.327895000E0,4.532721043E0,-3.280840397E0,-1.146731257E0
3.330415261E0,4.515676022E0,-3.420389414E0,-1.003987193E0
3.332935521E0,4.472001076E0,-3.573787212E0,-8.633722067E-1
3.335455834E0,4.399562836E0,-3.737837315E0,-7.291502357E-1
3.337976094E0,4.283450127E0,-3.893365383E0,-5.981232524E-1
3.340496354E0,4.117269039E0,-4.029718399E0,-4.639002383E-1
3.343062604E0,3.898890972E0,-4.139440536E0,-3.232862353E-1
3.345582865E0,3.636837006E0,-4.210812092E0,-1.784102321E-1
3.348103125E0,3.359869003E0,-4.244900227E0,-4.205723107E-2
3.350623438E0,3.076509953E0,-4.241705418E0,8.151177317E-2
3.353143698E0,2.794216156E0,-4.187376499E0,1.922987700E-1
3.355663959E0,2.516183138E0,-4.060610294E0,2.881727815E-1
3.358184219E0,2.254129171E0,-3.864602327E0,3.659367859E-1
3.360704479E0,2.017642021E0,-3.589765310E0,4.234607816E-1
3.363224740E0,1.806720138E0,-3.246752262E0,4.596797824E-1
3.365745052E0,1.627757192E0,-2.873911381E0,4.820497632E-1
3.368265313E0,1.467968225E0,-2.482960224E0,4.884417653E-1
3.370785573E0,1.343332171E0,-2.072835207E0,4.745927751E-1
3.373370729E0,1.246393204E0,-1.655253291E0,4.458307624E-1
3.375891042E0,1.175021172E0,-1.249389291E0,4.032207727E-1
3.378411302E0,1.120693207E0,-8.637652397E-1,3.456967771E-1
3.380931615E0,1.075952172E0,-4.951852858E-1,2.732587755E-1
3.383451823E0,1.043994188E0,-1.564322710E-1,2.018867731E-1
3.385972136E0,1.023754120E0,1.418387294E-1,1.251877695E-1
3.388492396E0,1.014167190E0,3.964367211E-1,6.127176806E-2
3.391012657E0,1.009906173E0,6.052267551E-1,-5.132312654E-4
3.393532917E0,1.007775187E0,7.724727392E-1,-4.631823301E-2
3.396053229E0,1.015232205E0,9.045657516E-1,-7.188422978E-2
3.398573490E0,1.020558119E0,1.005764723E0,-8.466722816E-2
3.401093750E0,1.029080153E0,1.083528757E0,-7.508023083E-2
3.403645834E0,1.043994188E0,1.144248724E0,-4.312223196E-2
3.406166094E0,1.067430139E0,1.190054655E0,-5.132312654E-4
3.408686302E0,1.097257137E0,1.239056706E0,5.381576717E-2
3.411206667E0,1.132411122E0,1.276340723E0,1.070787683E-1
3.413726927E0,1.172891140E0,1.307233691E0,1.624717712E-1
3.416247188E0,1.217631221E0,1.337060690E0,2.114737779E-1
3.418767448E0,1.274090171E0,1.371148705E0,2.551497817E-1
3.421287709E0,1.335875154E0,1.403106689E0,2.924337685E-1
3.423807969E0,1.404052138E0,1.433999658E0,3.179997802E-1
3.426328282E0,1.474359155E0,1.464891672E0,3.403697610E-1
3.428848542E0,1.552123189E0,1.491523743E0,3.584797680E-1
3.431368802E0,1.633083224E0,1.516024709E0,3.733937740E-1
3.433937084E0,1.708716154E0,1.533068657E0,3.883067667E-1
3.436457344E0,1.789676189E0,1.540525675E0,4.021557570E-1
3.438977604E0,1.869571209E0,1.533068657E0,4.096117616E-1
3.441497917E0,1.949465156E0,1.516024709E0,4.202647805E-1
3.444018177E0,2.022968054E0,1.486197710E0,4.309177697E-1
3.446538438E0,2.092210054E0,1.436129689E0,4.437007606E-1
3.449058698E0,2.151864052E0,1.369018674E0,4.522227645E-1
3.451578959E0,2.206192970E0,1.276340723E0,4.639407694E-1
3.454099219E0,2.255195141E0,1.164488673E0,4.692667723E-1
3.456619532E0,2.294609070E0,1.038787723E0,4.735277593E-1
3.459139740E0,2.324437141E0,8.981737494E-1,4.767237604E-1
3.461660052E0,2.348937988E0,7.383847833E-1,4.735277593E-1
3.464226407E0,2.372373104E0,5.711387396E-1,4.660707712E-1
3.466746667E0,2.385156155E0,3.921747208E-1,4.564837813E-1
3.469266927E0,2.393677950E0,2.089507282E-1,4.500917792E-1
3.471787240E0,2.397940159E0,2.572572976E-2,4.405047596E-1
3.474307448E0,2.392613173E0,-1.596282721E-1,4.255907834E-1
3.476827761E0,2.381961107E0,-3.311352730E-1,4.128077626E-1
3.479348021E0,2.361721039E0,-4.898592830E-1,3.957637846E-1
3.481868282E0,2.328698158E0,-6.326042414E-1,3.787197769E-1
3.484388542E0,2.285022020E0,-7.615002394E-1,3.595447838E-1
3.486908854E0,2.228563070E0,-8.648302555E-1,3.478267789E-1
3.489429115E0,2.155060053E0,-9.436602592E-1,3.350437582E-1
3.491949375E0,2.070904970E0,-9.905312657E-1,3.265217841E-1
3.494552240E0,1.973966122E0,-1.006510258E0,3.222607672E-1
3.497072500E0,1.859983206E0,-9.820092320E-1,3.169347644E-1
3.499592761E0,1.733217120E0,-9.106372595E-1,3.190647662E-1
3.502113073E0,1.588342190E0,-8.019802570E-1,3.254567683E-1
3.504633334E0,1.426422119E0,-6.581702232E-1,3.371747732E-1
3.507153594E0,1.249589205E0,-4.866632819E-1,3.446317613E-1
3.509673854E0,1.068495154E0,-2.970472574E-1,3.531537652E-1
3.512194115E0,8.820751309E-1,-9.997427464E-2,3.627407849E-1
3.514714375E0,6.945891380E-1,9.390272945E-2,3.712627590E-1
3.517234688E0,5.145601034E-1,2.824537158E-1,3.819157779E-1
3.519754948E0,3.473141491E-1,4.560907185E-1,3.968287706E-1
3.522275209E0,1.971121281E-1,6.030967832E-1,4.170687795E-1
3.524809063E0,7.034613192E-2,7.192097306E-1,4.468957782E-1
3.527329323E0,-3.724386916E-2,8.044307828E-1,4.799197614E-1
3.529849584E0,-1.224648729E-1,8.630197644E-1,5.097467899E-1
3.532369896E0,-1.842498779E-1,9.034997821E-1,5.289217830E-1
3.534890157E0,-2.268598676E-1,9.269357324E-1,5.438347459E-1
3.537410417E0,-2.524258494E-1,9.333277345E-1,5.534217954E-1
3.539930677E0,-2.534918487E-1,9.184137583E-1,5.587487817E-1
3.542450938E0,-2.396428734E-1,8.789987564E-1,5.587487817E-1
3.544971198E0,-2.162078768E-1,8.161487579E-1,5.544877648E-1
3.547491511E0,-1.789228767E-1,7.362537384E-1,5.438347459E-1
3.550011719E0,-1.245948747E-1,6.393157840E-1,5.310517550E-1
3.552532032E0,-5.961386859E-2,5.263977647E-1,5.054857731E-1
3.555134063E0,6.431131158E-3,4.060237408E-1,4.777887762E-1
3.557654323E0,7.567312568E-2,2.781927288E-1,4.479617774E-1
3.560174584E0,1.427841336E-1,1.450347304E-1,4.170687795E-1
3.562694896E0,2.045691311E-1,1.294273231E-2,3.797847629E-1
3.565215157E0,2.716811299E-1,-1.031692699E-1,3.456967771E-1
3.567735417E0,3.302701414E-1,-2.118262649E-1,3.116077781E-1
3.570255677E0,3.835331500E-1,-3.034382761E-1,2.743237615E-1
3.572775886E0,4.314701557E-1,-3.748112619E-1,2.370397747E-1
3.575296198E0,4.666231573E-1,-4.291392565E-1,2.061477751E-1
3.577816511E0,4.943201542E-1,-4.706842601E-1,1.741897762E-1
3.580336771E0,5.134950876E-1,-5.026422739E-1,1.454277784E-1
3.582857032E0,5.230821371E-1,-5.356652141E-1,1.134697720E-1
3.585427240E0,5.166901350E-1,-5.612312555E-1,8.151177317E-2
3.587947448E0,5.028421283E-1,-5.772102475E-1,4.422776774E-2
3.590467761E0,4.815371335E-1,-5.772102475E-1,6.943768822E-3
3.592988073E0,4.474481344E-1,-5.473832488E-1,-3.353523090E-2
3.595508334E0,4.037731290E-1,-4.909242690E-1,-6.975422800E-2
3.598028594E0,3.558361530E-1,-4.099642634E-1,-9.851622581E-2
3.600548854E0,2.983121574E-1,-3.045042753E-1,-1.219512299E-1
3.603069115E0,2.322661281E-1,-1.809332669E-1,-1.358002275E-1
3.605589375E0,1.534371227E-1,-4.351526871E-2,-1.347342283E-1
3.608109688E0,6.395512819E-2,1.024247259E-1,-1.240822300E-1
3.610629948E0,-3.724386916E-2,2.675397396E-1,-1.027772278E-1
3.613150157E0,-1.501608640E-1,4.401117265E-1,-6.975422800E-2
3.615717813E0,-2.737318575E-1,6.169447303E-1,-3.353523090E-2
3.618238907E0,-4.047588706E-1,8.033657670E-1,1.440076809E-2
3.620760000E0,-5.400468707E-1,9.908517599E-1,6.233776733E-2
3.623281094E0,-6.870518923E-1,1.174075723E0,1.124047711E-1
3.625802188E0,-8.425799012E-1,1.359431744E0,1.603417695E-1
3.628323282E0,-9.970428944E-1,1.539460659E0,2.040167749E-1
3.630844427E0,-1.149374843E0,1.716293693E0,2.370397747E-1
3.633365469E0,-1.302772880E0,1.889930725E0,2.594107687E-1
3.635886615E0,-1.452973843E0,2.062502623E0,2.711287737E-1
3.638407709E0,-1.596784830E0,2.234009743E0,2.711287737E-1
3.640928802E0,-1.739528775E0,2.402320623E0,2.583447695E-1
3.643449896E0,-1.878012776E0,2.566370726E0,2.221267670E-1
3.646010677E0,-2.015431881E0,2.727224588E0,1.667327732E-1
3.648531771E0,-2.148588896E0,2.891274691E0,1.006867737E-1
3.651052865E0,-2.271093845E0,3.062781811E0,1.546576899E-2
3.653573959E0,-2.388273001E0,3.241745710E0,-8.892823011E-2
3.656095052E0,-2.505450964E0,3.419643641E0,-2.071722299E-1
3.658616198E0,-2.619433880E0,3.600738764E0,-3.339382410E-1
3.661137292E0,-2.731286049E0,3.789289713E0,-4.649652243E-1
3.663658334E0,-2.834616899E0,3.990623713E0,-5.981232524E-1
3.666179479E0,-2.931555033E0,4.172782898E0,-7.366062403E-1
3.668700573E0,-3.022101879E0,4.328310490E0,-8.729602098E-1
3.671221667E0,-3.098800898E0,4.464663506E0,-1.013574243E0
3.673742761E0,-3.169107914E0,4.577581882E0,-1.149927258E0
3.676274167E0,-3.225566864E0,4.660671711E0,-1.285215259E0
3.678795313E0,-3.271373034E0,4.708608627E0,-1.410916209E0
3.681316407E0,-3.306526899E0,4.718195915E0,-1.520638227E0
3.683837500E0,-3.335289001E0,4.687303543E0,-1.613315225E0
3.686358594E0,-3.364050865E0,4.613800526E0,-1.694275260E0
3.688879688E0,-3.386420965E0,4.510470867E0,-1.745408177E0
3.691400782E0,-3.404531002E0,4.366660595E0,-1.766713262E0
3.693921875E0,-3.421574831E0,4.186631680E0,-1.770974278E0
3.696442969E0,-3.437553883E0,3.975709677E0,-1.748603225E0
3.698964063E0,-3.454597950E0,3.742417812E0,-1.701732278E0
3.701485209E0,-3.473773003E0,3.489951611E0,-1.637816191E0
3.704006302E0,-3.491881847E0,3.215113640E0,-1.560052276E0
3.706554011E0,-3.509990931E0,2.925363779E0,-1.468440175E0
3.709075104E0,-3.536623001E0,2.620698690E0,-1.359783173E0
3.711596198E0,-3.565384865E0,2.306447744E0,-1.245801210E0
3.714117292E0,-3.601603985E0,1.976216674E0,-1.127557278E0
3.716638386E0,-3.639952898E0,1.628941655E0,-1.003987193E0
3.719159479E0,-3.693215847E0,1.262492657E0,-8.814822435E-1
3.721680573E0,-3.746479034E0,8.779337406E-1,-7.589772344E-1
3.724201667E0,-3.799741983E0,4.859177172E-1,-6.322112083E-1
3.726722761E0,-3.858330965E0,9.283673018E-2,-5.075752139E-1
3.729243854E0,-3.923311949E0,-3.098302782E-1,-3.808102310E-1
3.731765000E0,-3.989357948E0,-7.135632634E-1,-2.593702376E-1
3.734286094E0,-4.052208900E0,-1.114101291E0,-1.389962286E-1
3.736880938E0,-4.112928867E0,-1.500791311E0,-2.075223252E-2
3.739402032E0,-4.165125847E0,-1.862979293E0,9.642577171E-2
3.741923125E0,-4.211997986E0,-2.186818361E0,2.136047781E-1
3.744444219E0,-4.254608154E0,-2.472308397E0,3.190647662E-1
3.746965313E0,-4.291892052E0,-2.713056326E0,4.202647805E-1
3.749486459E0,-4.334503174E0,-2.899477243E0,5.108117461E-1
3.752007552E0,-4.381373882E0,-3.021982193E0,5.832497478E-1
3.754528646E0,-4.428246021E0,-3.066723347E0,6.386427879E-1
3.757049740E0,-4.476181984E0,-3.039026260E0,6.748617887E-1
3.759570834E0,-4.523054123E0,-2.948479414E0,7.004277706E-1
3.762091927E0,-4.562468052E0,-2.801473379E0,7.164067626E-1
3.764613021E0,-4.605079174E0,-2.618248224E0,7.217337489E-1
3.767173229E0,-4.641297817E0,-2.412653208E0,7.217337489E-1
3.769694323E0,-4.665799141E0,-2.193210363E0,7.153417468E-1
3.772215417E0,-4.670060158E0,-1.968440294E0,7.068197727E-1
3.774736511E0,-4.653015137E0,-1.733017325E0,6.961667538E-1
3.777257604E0,-4.618927002E0,-1.478420258E0,6.727317572E-1
3.779778698E0,-4.569924831E0,-1.193996310E0,6.215987802E-1
3.782299844E0,-4.506010056E0,-9.021142125E-1,5.566177964E-1
3.784820938E0,-4.410135746E0,-6.336692572E-1,4.852457643E-1
3.787342032E0,-4.276978970E0,-3.875942826E-1,4.138727784E-1
3.789863125E0,-4.102275848E0,-1.724112779E-1,3.403697610E-1
3.792384219E0,-3.890288830E0,7.616731338E-3,2.700627744E-1
3.794905313E0,-3.642083883E0,1.546227336E-1,2.008207738E-1
3.797430261E0,-3.372572899E0,2.686047256E-1,1.273177713E-1
3.799951354E0,-3.083886862E0,3.367817402E-1,5.914176628E-2
3.802472448E0,-2.774961948E0,3.676747382E-1,1.617768663E-3
3.804993542E0,-2.471362829E0,3.676747382E-1,-5.270923302E-2
3.807514636E0,-2.186939001E0,3.431737423E-1,-1.070382297E-1
3.810035729E0,-1.920623779E0,3.069547415E-1,-1.528442353E-1
3.812556823E0,-1.678809881E0,2.824537158E-1,-1.943892241E-1
3.815077917E0,-1.457234859E0,2.622137368E-1,-2.274122238E-1
3.817599011E0,-1.260161877E0,2.568867207E-1,-2.540442348E-1
3.820120104E0,-1.086524844E0,2.696707249E-1,-2.806752324E-1
3.822641250E0,-9.320619106E-1,2.984327376E-1,-3.030462265E-1
3.825162292E0,-7.967739105E-1,3.442387283E-1,-3.254162371E-1
3.827753802E0,-6.827908754E-1,3.996317387E-1,-3.392642140E-1
3.830274896E0,-5.879828930E-1,4.688737392E-1,-3.435252309E-1
3.832795990E0,-5.091539025E-1,5.519637465E-1,-3.381992280E-1
3.835317084E0,-4.463038445E-1,6.446417570E-1,-3.168942332E-1
3.837838177E0,-3.919748664E-1,7.341237664E-1,-2.934582233E-1
3.840359323E0,-3.482998610E-1,8.150837421E-1,-2.742842138E-1
3.842880417E0,-3.120808601E-1,9.056307673E-1,-2.487172335E-1
3.845401511E0,-2.801228464E-1,1.003634691E0,-2.146292329E-1
3.847922604E0,-2.556218505E-1,1.113356709E0,-1.762802303E-1
3.850443646E0,-2.268598676E-1,1.229469657E0,-1.251472384E-1
3.852964792E0,-2.012938708E-1,1.343452692E0,-6.868822873E-2
3.855485886E0,-1.767928749E-1,1.452108741E0,-6.903231144E-3
3.858046146E0,-1.618788689E-1,1.554373741E0,5.488076806E-2
3.860567240E0,-1.512268782E-1,1.650247693E0,1.081437692E-1
3.863088334E0,-1.448348761E-1,1.738663673E0,1.560807675E-1
3.865609427E0,-1.480308771E-1,1.827080727E0,1.997557729E-1
3.868130521E0,-1.480308771E-1,1.906974673E0,2.476927787E-1
3.870651667E0,-1.490958780E-1,1.974086642E0,2.945637703E-1
3.873172761E0,-1.512268782E-1,2.019892693E0,3.318477571E-1
3.875693854E0,-1.554878652E-1,2.050784588E0,3.627407849E-1
3.878214896E0,-1.618788689E-1,2.069959641E0,3.957637846E-1
3.880736042E0,-1.661398709E-1,2.073155642E0,4.223957658E-1
3.883257136E0,-1.725318730E-1,2.076351643E0,4.468957782E-1
3.885778229E0,-1.885108650E-1,2.075285673E0,4.671357572E-1
3.888306302E0,-2.055548728E-1,2.064633608E0,4.905717671E-1
3.890827396E0,-2.236638665E-1,2.053980589E0,5.108117461E-1
3.893348490E0,-2.481648773E-1,2.032675743E0,5.278557539E-1
3.895869584E0,-2.790578604E-1,2.000717640E0,5.459657907E-1
3.898390677E0,-3.120808601E-1,1.974086642E0,5.630097985E-1
3.900911771E0,-3.451038599E-1,1.937867641E0,5.736617446E-1
3.903432865E0,-3.802578449E-1,1.901648641E0,5.779227614E-1
3.905953959E0,-4.249988496E-1,1.860103726E0,5.832497478E-1
3.908475052E0,-4.665438533E-1,1.808970690E0,5.843147635E-1
3.910996146E0,-5.016968846E-1,1.743989706E0,5.864457488E-1
3.913517292E0,-5.400468707E-1,1.673682690E0,5.875107646E-1
3.916038386E0,-5.720039010E-1,1.593788743E0,5.939017534E-1
3.918596667E0,-5.997008681E-1,1.503241658E0,6.013587713E-1
3.921117761E0,-6.263328791E-1,1.403106689E0,6.077507734E-1
3.923638854E0,-6.487028599E-1,1.282732725E0,6.120117903E-1
3.926159948E0,-6.614859104E-1,1.147444725E0,6.184027791E-1
3.928681042E0,-6.700078845E-1,1.000438690E0,6.258597970E-1
3.931202136E0,-6.732038856E-1,8.385187387E-1,6.311857700E-1
3.933723229E0,-6.668128967E-1,6.723387837E-1,6.354478002E-1
3.936244323E0,-6.550948620E-1,4.987007082E-1,6.407737732E-1
3.938765417E0,-6.337888837E-1,3.197377324E-1,6.482307911E-1
3.941286511E0,-6.082229018E-1,1.450347304E-1,6.588827968E-1
3.943807657E0,-5.783959031E-1,-2.327526733E-2,6.695357561E-1
3.946328750E0,-5.464378595E-1,-1.777382642E-1,6.833837628E-1
3.948887032E0,-5.059579015E-1,-3.087652624E-1,6.972327828E-1
3.951408073E0,-4.622828662E-1,-4.152912796E-1,7.110807896E-1
3.953929219E0,-4.196718633E-1,-4.983812571E-1,7.238637805E-1
3.956450313E0,-3.749308586E-1,-5.633622408E-1,7.366467714E-1
3.958971407E0,-3.227338493E-1,-6.070372462E-1,7.483647466E-1
3.961492500E0,-2.705358565E-1,-6.294082403E-1,7.568867803E-1
3.964013594E0,-2.119468749E-1,-6.315382123E-1,7.622127533E-1
3.966534688E0,-1.522918642E-1,-6.166252494E-1,7.622127533E-1
3.969055782E0,-8.944187313E-2,-5.942542553E-1,7.686047554E-1
3.971576875E0,-2.765686996E-2,-5.612312555E-1,7.686047554E-1
3.974098021E0,4.265013337E-2,-5.143602490E-1,7.632787824E-1
3.976619115E0,1.161531284E-1,-4.536402822E-1,7.579517961E-1
3.979191823E0,1.864601225E-1,-3.875942826E-1,7.483647466E-1
3.981712969E0,2.599631548E-1,-3.108952641E-1,7.345167994E-1
3.984234063E0,3.366611302E-1,-2.214132696E-1,7.153417468E-1
3.986755157E0,4.112301469E-1,-1.180832684E-1,6.982977986E-1
3.989276250E0,4.794061482E-1,-4.101268481E-3,6.716657877E-1
3.991797344E0,5.465180874E-1,1.215987355E-1,6.365127563E-1
3.994318438E0,6.136291027E-1,2.632787228E-1,6.024237871E-1
3.996839532E0,6.764791012E-1,4.156107306E-1,5.651397705E-1
3.999360625E0,7.371991277E-1,5.892487764E-1,5.278557539E-1
4.001881719E0,7.904621363E-1,7.873867750E-1,4.980287850E-1
4.004402865E0,8.415951133E-1,1.002568722E0,4.713967741E-1
4.006923959E0,8.948581219E-1,1.237991691E0,4.500917792E-1
4.009479792E0,9.406641126E-1,1.490458727E0,4.351787865E-1
4.012000938E0,9.864701033E-1,1.764229655E0,4.170687795E-1
4.014522032E0,1.025885224E0,2.062502623E0,4.042857587E-1
4.017043125E0,1.063169122E0,2.373558760E0,3.936327696E-1
4.019564219E0,1.097257137E0,2.695267677E0,3.883067667E-1
4.022085313E0,1.122823119E0,3.014845610E0,3.915027678E-1
4.024606407E0,1.144128203E0,3.322705746E0,4.074817598E-1
4.027127500E0,1.162238121E0,3.608194590E0,4.330477715E-1
4.029648594E0,1.186739206E0,3.855335712E0,4.724627733E-1
4.032169688E0,1.214436173E0,4.048147678E0,5.225297809E-1
4.034690782E0,1.242132187E0,4.175978661E0,5.821847916E-1
4.037211875E0,1.273025155E0,4.234567642E0,6.556867957E-1
4.039755365E0,1.309244156E0,4.218588829E0,7.409077883E-1
4.042276459E0,1.346528172E0,4.138694763E0,8.303897977E-1
4.044797552E0,1.380616188E0,4.000210762E0,9.198717475E-1
4.047318646E0,1.416835189E0,3.804202795E0,1.009353757E0
4.049839740E0,1.449858189E0,3.561323643E0,1.092443824E0
4.052360886E0,1.475424170E0,3.281160593E0,1.168077826E0
4.054881979E0,1.496730208E0,2.982887745E0,1.228796721E0
4.057403073E0,1.509513140E0,2.671831608E0,1.277798772E0
4.059924167E0,1.508447170E0,2.352253675E0,1.305495739E0
4.062445261E0,1.492469192E0,2.060372591E0,1.320409775E0
4.064966354E0,1.472229123E0,1.810036659E0,1.311887741E0
4.067487448E0,1.436010122E0,1.588461757E0,1.280994773E0
4.070085417E0,1.382747173E0,1.406302691E0,1.228796721E0
4.072606511E0,1.316701174E0,1.257166743E0,1.163815737E0
4.075127604E0,1.238937140E0,1.132530689E0,1.077529788E0
4.077648698E0,1.146259189E0,1.019613743E0,9.805917740E-1
4.080169792E0,1.048255205E0,9.152177572E-1,8.804567456E-1
4.082690938E0,9.385331273E-1,8.140177727E-1,7.813877463E-1
4.085212032E0,8.245500922E-1,7.074917555E-1,6.833837628E-1
4.087733125E0,7.116330862E-1,5.956397653E-1,5.896407962E-1
4.090254219E0,5.997810960E-1,4.773957431E-1,5.086817741E-1
4.092775313E0,4.964501560E-1,3.527607322E-1,4.426347613E-1
4.095296407E0,3.995121419E-1,2.323857248E-1,3.883067667E-1
4.097817500E0,3.089651465E-1,1.141427308E-1,3.361087739E-1
4.100365834E0,2.280051261E-1,1.507273223E-2,2.956297696E-1
4.102886927E0,1.555671245E-1,-6.801626831E-2,2.615407705E-1
4.105408021E0,9.058612585E-2,-1.329972744E-1,2.242567688E-1
4.107929115E0,3.519313410E-2,-1.873252690E-1,1.859077662E-1
4.110450209E0,-1.593886875E-2,-2.246092707E-1,1.496887654E-1
4.112971354E0,-6.387487054E-2,-2.448492646E-1,1.081437692E-1
4.115492448E0,-1.086158678E-1,-2.576322854E-1,6.340277195E-2
4.118013542E0,-1.490958780E-1,-2.597632706E-1,5.878768861E-3
4.120534636E0,-1.927718669E-1,-2.501752675E-1,-4.951423034E-2
4.123055677E0,-2.332518697E-1,-2.320662737E-1,-1.091682315E-1
4.125576823E0,-2.779928446E-1,-2.086302638E-1,-1.816062331E-1
4.128097917E0,-3.227338493E-1,-1.777382642E-1,-2.668272257E-1
4.130669167E0,-3.696048558E-1,-1.393882781E-1,-3.584392369E-1
4.133190886E0,-4.228678644E-1,-1.031692699E-1,-4.511172175E-1
4.135712604E0,-4.729348421E-1,-7.653827220E-2,-5.512512326E-1
4.138234323E0,-5.272628665E-1,-6.162426621E-2,-6.513862014E-1
4.140756094E0,-5.815919042E-1,-6.162426621E-2,-7.493902445E-1
4.143277813E0,-6.337888837E-1,-8.399526775E-2,-8.463281989E-1
4.145799532E0,-6.849218607E-1,-1.212792695E-1,-9.390062094E-1
4.148321302E0,-7.339239120E-1,-1.734772772E-1,-1.019966245E0
4.150843021E0,-7.765339017E-1,-2.448492646E-1,-1.090273261E0
4.153364740E0,-8.170138597E-1,-3.279392719E-1,-1.150993228E0
4.155886459E0,-8.511028886E-1,-4.259432852E-1,-1.192538261E0
4.158408229E0,-8.787989020E-1,-5.282082558E-1,-1.221300244E0
4.160958854E0,-9.064958692E-1,-6.400602460E-1,-1.240474224E0
4.163480573E0,-9.363228679E-1,-7.625652552E-1,-1.256453276E0
4.166002292E0,-9.629548788E-1,-8.808092475E-1,-1.262845278E0
4.168524011E0,-9.927818775E-1,-1.007575274E0,-1.258584261E0
4.171045782E0,-1.021543860E0,-1.136472344E0,-1.256453276E0
4.173567500E0,-1.047109842E0,-1.267499328E0,-1.257519245E0
4.176089219E0,-1.074806809E0,-1.396395326E0,-1.258584261E0
4.178610990E0,-1.100372791E0,-1.519965291E0,-1.262845278E0
4.181132709E0,-1.130200863E0,-1.637144327E0,-1.276693225E0
4.183654427E0,-1.168549776E0,-1.744735360E0,-1.294803262E0
4.186176146E0,-1.204768777E0,-1.835282326E0,-1.319304228E0
4.188697917E0,-1.244182825E0,-1.907720327E0,-1.350196242E0
4.191248282E0,-1.287858844E0,-1.964179277E0,-1.389611244E0
4.193770000E0,-1.329403877E0,-2.003593206E0,-1.442874193E0
4.196291719E0,-1.370948792E0,-2.030225277E0,-1.496137261E0
4.198813438E0,-1.396515846E0,-2.056856394E0,-1.547269225E0
4.201335209E0,-1.398645878E0,-2.098401308E0,-1.602663279E0
4.203856927E0,-1.383732796E0,-2.143142223E0,-1.647404194E0
4.206378646E0,-1.342186809E0,-2.194275379E0,-1.674035192E0
4.208900417E0,-1.274010777E0,-2.251799345E0,-1.666578174E0
4.211422136E0,-1.177071810E0,-2.323171377E0,-1.633555174E0
4.213943854E0,-1.025804877E0,-2.405196190E0,-1.587749243E0
4.216465573E0,-8.202098608E-1,-2.452068329E0,-1.535551190E0
4.218987344E0,-5.666778684E-1,-2.441415310E0,-1.482288241E0
4.221542188E0,-2.854488492E-1,-2.346607208E0,-1.422634244E0
4.224063907E0,8.561131544E-3,-2.185753345E0,-1.354457259E0
4.226585625E0,3.068341315E-1,-1.972701311E0,-1.275628209E0
4.229107344E0,5.976501107E-1,-1.713843346E0,-1.194668174E0
4.231629115E0,8.746181130E-1,-1.416635275E0,-1.109447241E0
4.234150834E0,1.124954224E0,-1.099188328E0,-1.022096276E0
4.236672552E0,1.345463157E0,-7.742832303E-1,-9.379412532E-1
4.239194323E0,1.532948136E0,-4.483142793E-1,-8.495242000E-1
4.241716042E0,1.701259136E0,-1.298012733E-1,-7.536512017E-1
4.244237761E0,1.842939138E0,1.610137224E-1,-6.556472182E-1
4.246759479E0,1.956922174E0,4.134807289E-1,-5.555122495E-1
4.249281250E0,2.052795172E0,6.297277808E-1,-4.543122351E-1
4.251823073E0,2.131624937E0,7.969737649E-1,-3.456562161E-1
4.254344792E0,2.198735952E0,9.248047471E-1,-2.338042259E-1
4.256866511E0,2.253064156E0,1.016417742E0,-1.187562272E-1
4.259388229E0,2.301001072E0,1.071810722E0,3.747768700E-3
4.261910000E0,2.336153984E0,1.098442674E0,1.251877695E-1
4.264431719E0,2.362786055E0,1.104833722E0,2.434317768E-1
4.266953438E0,2.380895138E0,1.092050672E0,3.488927782E-1
4.269475209E0,2.392613173E0,1.065419674E0,4.426347613E-1
4.271996927E0,2.399004936E0,1.035592675E0,5.246597528E-1
4.274518646E0,2.405395985E0,1.000438690E0,5.864457488E-1
4.277040365E0,2.405395985E0,9.642197490E-1,6.354478002E-1
4.279562136E0,2.402200937E0,9.280007482E-1,6.674047709E-1
4.282089584E0,2.401134968E0,8.896517754E-1,6.855147481E-1
4.284611302E0,2.399004936E0,8.640857339E-1,6.887107491E-1
4.287133073E0,2.389417171E0,8.438457847E-1,6.769927740E-1
4.289654792E0,2.381961107E0,8.182787299E-1,6.503607631E-1
4.292176563E0,2.381961107E0,7.820607424E-1,6.109467745E-1
4.294698229E0,2.380895138E0,7.319927812E-1,5.587487817E-1
4.297220000E0,2.390483141E0,6.552947760E-1,4.873757660E-1
4.299741719E0,2.406461954E0,5.445077419E-1,4.000247717E-1
4.302263438E0,2.434158087E0,3.847187161E-1,2.988247573E-1
4.304785209E0,2.472507954E0,1.737967283E-1,1.859077662E-1
4.307306927E0,2.511922121E0,-9.145227075E-2,6.233776733E-2
4.309828646E0,2.556663036E0,-4.003772736E-1,-5.910123140E-2
4.312378698E0,2.602468967E0,-7.306082249E-1,-1.826712340E-1
4.314900417E0,2.642949104E0,-1.074687243E0,-3.190242350E-1
4.317422188E0,2.673841953E0,-1.442201257E0,-4.702912271E-1
4.319943907E0,2.694082022E0,-1.817173243E0,-6.194282174E-1
4.322465625E0,2.705800056E0,-2.201732397E0,-7.696292400E-1
4.324987344E0,2.711126089E0,-2.589486361E0,-9.198312163E-1
4.327509115E0,2.705800056E0,-2.981502295E0,-1.068968177E0
4.330030834E0,2.657863140E0,-3.427846193E0,-1.230887175E0
4.332552552E0,2.555598021E0,-3.944497347E0,-1.399198174E0
4.335074323E0,2.434158087E0,-4.422799110E0,-1.565379262E0
4.337596042E0,2.315914154E0,-4.794574261E0,-1.705993176E0
4.340117761E0,2.196604967E0,-5.083260536E0,-1.815715194E0
4.342700625E0,2.078361988E0,-5.310160160E0,-1.903066278E0
4.345222344E0,1.948400140E0,-5.479537487E0,-1.965916276E0
4.347744063E0,1.819503188E0,-5.595650196E0,-2.005331278E0
4.350265782E0,1.688476205E0,-5.665957451E0,-2.024506330E0
4.352787552E0,1.557449222E0,-5.690458298E0,-2.025571346E0
4.355309271E0,1.432814121E0,-5.649978161E0,-2.019179344E0
4.357830990E0,1.314570189E0,-5.544518471E0,-1.997874260E0
4.360352761E0,1.191000223E0,-5.434796333E0,-1.951003194E0
4.362874479E0,1.063169122E0,-5.312291145E0,-1.883891225E0
4.365396198E0,9.406641126E-1,-5.153567314E0,-1.807193279E0
4.367917917E0,8.309420943E-1,-4.945841312E0,-1.708124280E0
4.370439688E0,7.414600849E-1,-4.685918331E0,-1.583488226E0
4.372962344E0,6.743491292E-1,-4.376993179E0,-1.433286190E0
4.375484063E0,6.434561014E-1,-4.021196365E0,-1.267106175E0
4.378005834E0,6.743491292E-1,-3.625984192E0,-1.100925207E0
4.380527552E0,7.840710878E-1,-3.200946331E0,-9.422022104E-1
4.383049271E0,9.662300944E-1,-2.772711277E0,-8.005222082E-1
4.385570990E0,1.208044171E0,-2.366847277E0,-6.748212576E-1
4.388092761E0,1.494599223E0,-1.996136308E0,-5.693612099E-1
4.390614479E0,1.803524137E0,-1.687211275E0,-4.777482152E-1
4.393136250E0,2.102862120E0,-1.444332242E0,-4.031802416E-1
4.395657969E0,2.383026123E0,-1.278151274E0,-3.360692263E-1
4.398179688E0,2.618448019E0,-1.186539292E0,-2.689572275E-1
4.400701407E0,2.814455986E0,-1.163103342E0,-2.029112279E-1
4.403254219E0,2.969984055E0,-1.208909273E0,-1.336692274E-1
4.405775938E0,3.074380159E0,-1.310109258E0,-5.484023318E-2
4.408297709E0,3.121251106E0,-1.461376309E0,2.931476757E-2
4.410819427E0,3.101011038E0,-1.663775325E0,1.166657731E-1
4.413341146E0,3.027508020E0,-1.915177345E0,2.093437761E-1
4.415862865E0,2.910330057E0,-2.201732397E0,3.052167594E-1
4.418384636E0,2.755867004E0,-2.513853312E0,4.021557570E-1
4.420906354E0,2.571577072E0,-2.829170227E0,4.884417653E-1
4.423428125E0,2.371308088E0,-3.117855310E0,5.619447827E-1
4.425949844E0,2.160387039E0,-3.362865210E0,6.279907823E-1
4.428471563E0,1.949465156E0,-3.541829348E0,6.823187470E-1
4.430993282E0,1.742805123E0,-3.633441210E0,7.153417468E-1
4.433544584E0,1.543601155E0,-3.638767242E0,7.259947658E-1
4.436066302E0,1.362507224E0,-3.562069416E0,7.377117872E-1
4.438588073E0,1.200587153E0,-3.408671379E0,7.355817556E-1
4.441109792E0,1.062103152E0,-3.194554329E0,7.196027637E-1
4.443631511E0,9.406641126E-1,-2.946348190E0,6.897757649E-1
4.446153229E0,8.490511179E-1,-2.655532360E0,6.460997462E-1
4.448675000E0,7.872661352E-1,-2.315714359E0,5.939017534E-1
4.451196719E0,7.553091049E-1,-1.964179277E0,5.406387448E-1
4.453718438E0,7.457211018E-1,-1.626491308E0,4.788537621E-1
4.456240209E0,7.627651095E-1,-1.297326326E0,4.128077626E-1
4.458761927E0,8.021801114E-1,-9.915962219E-1,3.531537652E-1
4.461283646E0,8.597041368E-1,-7.188902497E-1,3.020207584E-1
4.463835365E0,9.310761094E-1,-4.770762622E-1,2.551497817E-1
4.466357084E0,1.014167190E0,-2.831982672E-1,2.146697789E-1
4.468878854E0,1.107910156E0,-1.308662742E-1,1.773857772E-1
4.471400573E0,1.202718139E0,-2.540526912E-2,1.507537663E-1
4.473922292E0,1.295395136E0,4.383473098E-2,1.305137724E-1
4.476444011E0,1.387008190E0,7.579272985E-2,1.156007722E-1
4.478965782E0,1.475424170E0,8.324972540E-2,1.102737710E-1
4.481487500E0,1.557449222E0,7.792373002E-2,1.124047711E-1
4.484009219E0,1.638409138E0,6.620572507E-2,1.156007722E-1
4.486530990E0,1.714043140E0,5.129173398E-2,1.219917685E-1
4.489052709E0,1.779023170E0,5.022673309E-2,1.305137724E-1
4.491574427E0,1.838678122E0,6.087973341E-2,1.337097734E-1
4.494149063E0,1.897267222E0,8.751072735E-2,1.347747743E-1
4.496670782E0,1.953726172E0,1.365127265E-1,1.262527704E-1
4.499192500E0,2.009119987E0,1.982977241E-1,1.134697720E-1
4.501714219E0,2.061316967E0,2.696707249E-1,1.017517745E-1
4.504235990E0,2.115646124E0,3.484997153E-1,8.896876872E-2
4.506757709E0,2.167843103E0,4.262637198E-1,7.512076944E-2
4.509279427E0,2.214715004E0,4.901787341E-1,5.701076612E-2
4.511801198E0,2.261585951E0,5.455727577E-1,4.422776774E-2
4.514322917E0,2.308458090E0,5.967047811E-1,3.570576757E-2
4.516844636E0,2.356394053E0,6.350547671E-1,2.505376749E-2
4.519366354E0,2.401134968E0,6.595557332E-1,1.972676814E-2
4.521888125E0,2.446941137E0,6.723387837E-1,1.866176724E-2
4.524454532E0,2.492748022E0,6.723387837E-1,1.440076809E-2
4.526976250E0,2.534292936E0,6.542287469E-1,1.440076809E-2
4.529497969E0,2.570512056E0,6.190757751E-1,1.440076809E-2
4.532019688E0,2.603534937E0,5.679427385E-1,1.972676814E-2
4.534541459E0,2.626970053E0,5.082887411E-1,2.398776822E-2
4.537063177E0,2.641884089E0,4.401117265E-1,2.824876830E-2
4.539584896E0,2.644015074E0,3.591517210E-1,4.209776968E-2
4.542106667E0,2.633362055E0,2.654097378E-1,5.168476701E-2
4.544628386E0,2.617383003E0,1.599487215E-1,6.766377389E-2
4.547150104E0,2.585425138E0,5.448773131E-2,8.364277333E-2
4.549671823E0,2.542814970E0,-4.990626872E-2,1.028177738E-1
4.552193594E0,2.483160019E0,-1.532372683E-1,1.251877695E-1
4.554710886E0,2.406461954E0,-2.533712685E-1,1.560807675E-1
4.557232604E0,2.316980124E0,-3.396572769E-1,1.933647692E-1
4.559754375E0,2.212584019E0,-4.152912796E-1,2.306487709E-1
4.562276094E0,2.096471071E0,-4.706842601E-1,2.753897607E-1
4.564797813E0,1.969705224E0,-4.983812571E-1,3.179997802E-1
4.567319532E0,1.835482121E0,-4.877282679E-1,3.595447838E-1
4.569841302E0,1.695933223E0,-4.387262762E-1,4.042857587E-1
4.572363021E0,1.552123189E0,-3.492442667E-1,4.437007606E-1
4.574884740E0,1.402987123E0,-2.182182670E-1,4.745927751E-1
4.577406511E0,1.253850222E0,-6.055926904E-2,5.086817741E-1
4.579928229E0,1.100453138E0,1.056207269E-1,5.363777876E-1
4.582450000E0,9.417291284E-1,2.739317417E-1,5.619447827E-1
4.585034636E0,7.840710878E-1,4.379817247E-1,5.832497478E-1
4.587556354E0,6.253471375E-1,5.849877596E-1,6.066847444E-1
4.590078073E0,4.708841443E-1,7.074917555E-1,6.301207542E-1
4.592599844E0,3.164211512E-1,8.001697659E-1,6.482307911E-1
4.595121563E0,1.694161296E-1,8.704767823E-1,6.599477530E-1
4.597643282E0,3.625813127E-2,9.194787741E-1,6.716657877E-1
4.600165000E0,-8.304987103E-2,9.493057728E-1,6.727317572E-1
4.602686771E0,-1.831838638E-1,9.631547332E-1,6.620787978E-1
4.605208490E0,-2.588178515E-1,9.663507342E-1,6.418387890E-1
4.607730209E0,-3.131458461E-1,9.642197490E-1,6.066847444E-1
4.610251927E0,-3.493648469E-1,9.546327591E-1,5.651397705E-1
4.612773698E0,-3.685398698E-1,9.397187829E-1,5.097467899E-1
4.615326302E0,-3.738658428E-1,9.173487425E-1,4.415697753E-1
4.617848021E0,-3.664088547E-1,8.917817473E-1,3.616757691E-1
4.620369740E0,-3.408428431E-1,8.619547486E-1,2.689977586E-1
4.622891459E0,-3.046238422E-1,8.321277499E-1,1.699287742E-1
4.625413229E0,-2.566868663E-1,8.086917400E-1,6.553277373E-2
4.627934948E0,-1.970328689E-1,7.895167470E-1,-4.099223390E-2
4.630456667E0,-1.256598681E-1,7.788647413E-1,-1.453872323E-1
4.632978438E0,-5.535286665E-2,7.682117820E-1,-2.455222309E-1
4.635500157E0,2.454013005E-2,7.682117820E-1,-3.381992280E-1
4.638021927E0,1.055001318E-1,7.682117820E-1,-4.244852364E-1
4.640543594E0,1.885901242E-1,7.639507651E-1,-5.043802261E-1
4.643065365E0,2.716811299E-1,7.575597763E-1,-5.693612099E-1
4.645619792E0,3.526401520E-1,7.554287314E-1,-6.215582490E-1
4.648142032E0,4.304041564E-1,7.532987595E-1,-6.620382071E-1
4.650664271E0,5.007111430E-1,7.490377426E-1,-6.865392327E-1
4.653186511E0,5.603660941E-1,7.437107563E-1,-7.035832405E-1
4.655708750E0,6.104331017E-1,7.394497395E-1,-7.067792416E-1
4.658230990E0,6.530441046E-1,7.351887822E-1,-6.961272359E-1
4.660753229E0,6.871321201E-1,7.277317643E-1,-6.769522429E-1
4.663275469E0,7.116330862E-1,7.256017327E-1,-6.492552161E-1
4.665797709E0,7.244161367E-1,7.192097306E-1,-6.130362153E-1
4.668319948E0,7.276121378E-1,7.170797586E-1,-5.704262257E-1
4.670842188E0,7.158941031E-1,7.192097306E-1,-5.256852508E-1
4.673364427E0,6.935241222E-1,7.309277654E-1,-4.702912271E-1
4.675912084E0,6.636961102E-1,7.522327304E-1,-4.127672315E-1
4.678434323E0,6.210861206E-1,7.873867750E-1,-3.509822190E-1
4.680956563E0,5.667580962E-1,8.353237510E-1,-2.849362195E-1
4.683478802E0,5.028421283E-1,8.928477764E-1,-2.220862210E-1
4.686001042E0,4.325351417E-1,9.642197490E-1,-1.539092213E-1
4.688523282E0,3.462491333E-1,1.040918708E0,-9.105923027E-2
4.691045521E0,2.429191321E-1,1.129334688E0,-3.140423074E-2
4.693567813E0,1.374581307E-1,1.224143744E0,2.292276733E-2
4.696090000E0,2.347513102E-2,1.333864689E0,7.192476839E-2
4.698612240E0,-9.902887046E-2,1.449978709E0,1.134697720E-1
4.701134479E0,-2.289908677E-1,1.567156672E0,1.443627775E-1
4.703656719E0,-3.632128537E-1,1.694987655E0,1.752547771E-1
4.706198542E0,-5.016968846E-1,1.826014757E0,1.954947710E-1
4.708720782E0,-6.412459016E-1,1.957041740E0,2.061477751E-1
4.711243021E0,-7.765339017E-1,2.085938692E0,2.104087770E-1
4.713765261E0,-9.182139039E-1,2.212704659E0,2.114737779E-1
4.716287500E0,-1.054566860E0,2.341600657E0,2.018867731E-1
4.718809740E0,-1.193050861E0,2.469431639E0,1.837767661E-1
4.721331979E0,-1.324077845E0,2.602589607E0,1.667327732E-1
4.723854219E0,-1.452973843E0,2.734681606E0,1.411667764E-1
4.726376459E0,-1.573348880E0,2.868904591E0,1.134697720E-1
4.728898698E0,-1.687331796E0,2.998866796E0,8.044677228E-2
4.731420938E0,-1.795987844E0,3.120305777E0,4.422776774E-2
4.733943177E0,-1.901448846E0,3.239614725E0,1.617768663E-3
4.736491615E0,-1.997321844E0,3.363185644E0,-4.738323390E-2
4.739013854E0,-2.092129946E0,3.476102591E0,-1.038422287E-1
4.741536094E0,-2.186939001E0,3.560258627E0,-1.645622253E-1
4.744058386E0,-2.280680895E0,3.616717815E0,-2.295432240E-1
4.746580573E0,-2.372293949E0,3.656131744E0,-3.009152412E-1
4.749102813E0,-2.460710049E0,3.676371813E0,-3.744182289E-1
4.751625052E0,-2.541669846E0,3.672110796E0,-4.457902312E-1
4.754147292E0,-2.618368864E0,3.648674726E0,-5.214242339E-1
4.756669532E0,-2.697197914E0,3.595411777E0,-5.885352492E-1
4.759191823E0,-2.770700932E0,3.509125710E0,-6.449941993E-1
4.761714011E0,-2.834616899E0,3.385555744E0,-6.950612068E-1
4.764236250E0,-2.898531914E0,3.225766659E0,-7.323452234E-1
4.766782500E0,-2.962447882E0,3.042541742E0,-7.600422502E-1
4.769304740E0,-3.019971848E0,2.843338728E0,-7.824132442E-1
4.771826979E0,-3.067909002E0,2.640938759E0,-7.930652499E-1
4.774349219E0,-3.111583948E0,2.430017710E0,-7.877392173E-1
4.776871459E0,-3.141412020E0,2.221226692E0,-7.728252411E-1
4.779393698E0,-3.170173883E0,2.006043673E0,-7.451282144E-1
4.781915938E0,-3.205327034E0,1.783404708E0,-7.110401988E-1
4.784438177E0,-3.243675947E0,1.539460659E0,-6.684302092E-1
4.786960417E0,-3.289482832E0,1.286993742E0,-6.172972322E-1
4.789482657E0,-3.327831984E0,1.039853692E0,-5.640342236E-1
4.792004896E0,-3.358724833E0,8.023007512E-1,-5.022492409E-1
4.794527188E0,-3.384290934E0,5.668777823E-1,-4.255502224E-1
4.797072552E0,-3.405596018E0,3.389117420E-1,-3.467212319E-1
4.799594792E0,-3.423704863E0,1.247947216E-1,-2.551092207E-1
4.802117032E0,-3.438618898E0,-7.973427325E-2,-1.581702232E-1
4.804639271E0,-3.453532934E0,-2.874592841E-1,-6.016623229E-2
4.807161511E0,-3.472707033E0,-4.898592830E-1,3.677076846E-2
4.809683750E0,-3.495077848E0,-6.901282668E-1,1.337097734E-1
4.812205990E0,-3.519578934E0,-8.776132464E-1,2.317137718E-1
4.814728229E0,-3.544080019E0,-1.066164255E0,3.222607672E-1
4.817250469E0,-3.574971914E0,-1.250454307E0,4.117427766E-1
4.819772709E0,-3.613322020E0,-1.430483341E0,4.990937710E-1
4.822294948E0,-3.655931950E0,-1.596664310E0,5.832497478E-1
4.824817188E0,-3.704933882E0,-1.744735360E0,6.620787978E-1
4.827330677E0,-3.755000830E0,-1.882154346E0,7.366467714E-1
4.829852917E0,-3.808264017E0,-1.996136308E0,8.058887720E-1
4.832375157E0,-3.863657951E0,-2.095206261E0,8.676737547E-1
4.834897396E0,-3.916920900E0,-2.159121275E0,9.241327643E-1
4.837419636E0,-3.968052864E0,-2.192144394E0,9.699387550E-1
4.839941875E0,-4.014925003E0,-2.196405411E0,1.001896739E0
4.842464167E0,-4.061795712E0,-2.167643309E0,1.015744805E0
4.844986354E0,-4.101211071E0,-2.110119343E0,1.020005822E0
4.847508594E0,-4.138494968E0,-2.016376257E0,1.008288741E0
4.850030886E0,-4.173647881E0,-1.886415243E0,9.827217460E-1
4.852553125E0,-4.204540730E0,-1.726626277E0,9.433077574E-1
4.855075313E0,-4.221584797E0,-1.539140344E0,8.943057656E-1
4.857623073E0,-4.232237816E0,-1.332479358E0,8.357157707E-1
4.860145313E0,-4.233303070E0,-1.107710242E0,7.739307880E-1
4.862667552E0,-4.220520020E0,-8.786792159E-1,7.014937997E-1
4.865189792E0,-4.191758156E0,-6.485832334E-1,6.279907823E-1
4.867712032E0,-4.142755985E0,-4.227472842E-1,5.470307469E-1
4.870234271E0,-4.075644970E0,-1.990432739E-1,4.618097842E-1
4.872756511E0,-3.993619919E0,2.039973065E-2,3.744587600E-1
4.875278750E0,-3.891355038E0,2.249297351E-1,2.934987843E-1
4.877800990E0,-3.773110867E0,4.156107306E-1,2.349097729E-1
4.880323229E0,-3.646344900E0,5.807267427E-1,1.869727671E-1
4.882845469E0,-3.514252901E0,7.064267397E-1,1.528847665E-1
4.885367709E0,-3.373637915E0,7.948437333E-1,1.251877695E-1
4.887912761E0,-3.226631880E0,8.576937318E-1,9.322977066E-2
4.890435000E0,-3.067909002E0,9.056307673E-1,5.488076806E-2
4.892957240E0,-2.900662899E0,9.418497682E-1,1.013976894E-2
4.895479479E0,-2.729156017E0,9.674157500E-1,-3.247023001E-2
4.898001719E0,-2.553387880E0,9.716767669E-1,-7.401522994E-2
4.900523959E0,-2.384011984E0,9.525017738E-1,-1.112992316E-1
4.903046198E0,-2.223156929E0,9.269357324E-1,-1.464522332E-1
4.905568438E0,-2.074020863E0,8.864557743E-1,-1.837362349E-1
4.908090677E0,-1.941928864E0,8.534327745E-1,-2.135642320E-1
4.910612917E0,-1.819423795E0,8.342577815E-1,-2.348692268E-1
4.913135157E0,-1.706505775E0,8.331927657E-1,-2.487172335E-1
4.915657396E0,-1.596784830E0,8.310627341E-1,-2.508482337E-1
4.918201250E0,-1.497714877E0,8.257357478E-1,-2.369992286E-1
4.920723490E0,-1.405037880E0,8.214747310E-1,-2.093032300E-1
4.923245729E0,-1.316620827E0,8.172137737E-1,-1.837362349E-1
4.925767969E0,-1.239921808E0,8.150837421E-1,-1.571052223E-1
4.928290261E0,-1.167484879E0,8.172137737E-1,-1.262122393E-1
4.930812448E0,-1.103568792E0,8.342577815E-1,-9.212423116E-2
4.933334688E0,-1.043914795E0,8.704767823E-1,-5.377523229E-2
4.935856927E0,-9.863908887E-1,9.152177572E-1,-1.116423123E-2
4.938379167E0,-9.299318790E-1,9.695457816E-1,2.931476757E-2
4.940901407E0,-8.766688704E-1,1.032396674E0,6.659877300E-2
4.943423646E0,-8.202098608E-1,1.102703691E0,1.038827747E-1
4.945945886E0,-7.701429129E-1,1.166619658E0,1.369057745E-1
4.948496563E0,-7.275319099E-1,1.222012758E0,1.635367721E-1
4.951018802E0,-6.913138628E-1,1.274210691E0,1.901687682E-1
4.953541042E0,-6.614859104E-1,1.315755725E0,2.242567688E-1
4.956063282E0,-6.380509138E-1,1.340256691E0,2.551497817E-1
4.958585521E0,-6.199408770E-1,1.344517708E0,2.881727815E-1
4.961107761E0,-5.986359119E-1,1.337060690E0,3.254567683E-1
4.963630000E0,-5.762648582E-1,1.316820741E0,3.595447838E-1
4.966152240E0,-5.592209101E-1,1.295515656E0,3.872417808E-1
4.968674479E0,-5.443078876E-1,1.273145676E0,4.117427766E-1
4.971196719E0,-5.347198844E-1,1.253970742E0,4.351787865E-1
4.973718959E0,-5.357859135E-1,1.239056706E0,4.543527663E-1
4.976241198E0,-5.464378595E-1,1.225208640E0,4.682017863E-1
4.978786563E0,-5.698738694E-1,1.217751741E0,4.777887762E-1
4.981308802E0,-6.050269008E-1,1.219882727E0,4.820497632E-1
4.983831042E0,-6.529638767E-1,1.231599689E0,4.799197614E-1
4.986353282E0,-7.062268853E-1,1.241187692E0,4.682017863E-1
4.988875521E0,-7.648158669E-1,1.248644710E0,4.468957782E-1
4.991397761E0,-8.340578675E-1,1.247578740E0,4.202647805E-1
4.993920000E0,-9.075608850E-1,1.244382739E0,3.893717825E-1
4.996442240E0,-9.799988866E-1,1.241187692E0,3.670017719E-1
4.998964532E0,-1.054566860E0,1.234795690E0,3.371747732E-1
5.001486719E0,-1.120612860E0,1.218816757E0,3.094777763E-1
5.004008959E0,-1.184528828E0,1.190054655E0,2.860417664E-1
5.006531198E0,-1.239921808E0,1.149574757E0,2.668677568E-1
5.009078073E0,-1.287858844E0,1.093116641E0,2.540837824E-1
5.011600313E0,-1.327273846E0,1.022808671E0,2.444967777E-1
5.014122552E0,-1.353904843E0,9.471757412E-1,2.349097729E-1
5.016644792E0,-1.370948792E0,8.576937318E-1,2.263877690E-1
5.019167032E0,-1.380536795E0,7.511677742E-1,2.221267670E-1
5.021689271E0,-1.378405809E0,6.307937503E-1,2.189307660E-1
5.024211511E0,-1.370948792E0,5.018967390E-1,2.146697789E-1
5.026733750E0,-1.354969859E0,3.687397242E-1,2.157347649E-1
5.029255990E0,-1.327273846E0,2.345167249E-1,2.146697789E-1
5.031778229E0,-1.295315862E0,9.922873229E-2,2.189307660E-1
5.034300469E0,-1.258031845E0,-3.073226660E-2,2.210607678E-1
5.036822709E0,-1.212225795E0,-1.532372683E-1,2.210607678E-1
5.039380886E0,-1.166418791E0,-2.682852745E-1,2.263877690E-1
5.041903125E0,-1.118482828E0,-3.748112619E-1,2.349097729E-1
5.044425365E0,-1.071610808E0,-4.685542583E-1,2.434317768E-1
5.046947604E0,-1.022608876E0,-5.484482646E-1,2.551497817E-1
5.049469844E0,-9.736068845E-1,-6.155592203E-1,2.711287737E-1
5.051992084E0,-9.224748611E-1,-6.656272411E-1,2.903027833E-1
5.054514375E0,-8.734728694E-1,-6.997152567E-1,3.126737773E-1
5.057036563E0,-8.287318945E-1,-7.167592645E-1,3.339787722E-1
5.059558802E0,-7.839908600E-1,-7.199552655E-1,3.616757691E-1
5.062081042E0,-7.467069030E-1,-7.114332318E-1,3.904377818E-1
5.064603282E0,-7.072919011E-1,-6.837362647E-1,4.202647805E-1
5.067125521E0,-6.721388698E-1,-6.389952302E-1,4.532877803E-1
5.069691979E0,-6.337888837E-1,-5.804062486E-1,4.841807783E-1
5.072214219E0,-5.975708961E-1,-5.058382154E-1,5.140077472E-1
5.074736459E0,-5.666778684E-1,-4.216822684E-1,5.321167707E-1
5.077258698E0,-5.315248966E-1,-3.268742859E-1,5.512917638E-1
5.079780938E0,-4.963708520E-1,-2.299352735E-1,5.619447827E-1
5.082303177E0,-4.569558501E-1,-1.372582763E-1,5.640747547E-1
5.084825417E0,-4.132808447E-1,-4.990626872E-2,5.640747547E-1
5.087347657E0,-3.664088547E-1,2.998673171E-2,5.608787537E-1
5.089869896E0,-3.142108619E-1,9.922873229E-2,5.555527806E-1
5.092392136E0,-2.566868663E-1,1.588837355E-1,5.448997617E-1
5.094914375E0,-1.917068660E-1,2.100157291E-1,5.363777876E-1
5.097436615E0,-1.171378717E-1,2.472997308E-1,5.299867988E-1
5.099959948E0,-3.724386916E-2,2.792577147E-1,5.193337798E-1
5.102482188E0,4.371513426E-2,3.154767156E-1,5.097467899E-1
5.105004427E0,1.278701276E-1,3.399777412E-1,5.001587868E-1
5.107526667E0,2.237441242E-1,3.612827361E-1,4.852457643E-1
5.110048907E0,3.292051554E-1,3.740657270E-1,4.628747702E-1
5.112571146E0,4.389261305E-1,3.857837319E-1,4.287867844E-1
5.115093386E0,5.443871021E-1,4.049587250E-1,3.797847629E-1
5.117615625E0,6.423910856E-1,4.454377294E-1,3.329137862E-1
5.120137865E0,7.308081388E-1,5.146797299E-1,2.860417664E-1
5.122660104E0,8.011150956E-1,6.105537415E-1,2.476927787E-1
5.125182344E0,8.639650941E-1,7.330587506E-1,2.178657651E-1
5.127704584E0,9.161630869E-1,8.715417385E-1,1.965597719E-1
