"Time (s)","Gyroscope x (rad/s)","Gyroscope y (rad/s)","Gyroscope z (rad/s)"
1.953125000E-3,-7.147924304E-1,-6.178534031E-2,2.343581766E-1
3.906250000E-3,-7.147924304E-1,-6.178534031E-2,2.343581766E-1
5.920410000E-3,-7.147924304E-1,-6.178534031E-2,2.343581766E-1
7.873535000E-3,-7.147924304E-1,-6.178534031E-2,2.343581766E-1
9.857178000E-3,-7.147924304E-1,-6.178534031E-2,2.343581766E-1
1.184082100E-2,-7.147924304E-1,-6.178534031E-2,2.343581766E-1
1.385498100E-2,-7.147924304E-1,-6.178534031E-2,2.343581766E-1
1.580810600E-2,-7.147924304E-1,-6.178534031E-2,2.343581766E-1
1.779174800E-2,-7.147924304E-1,-6.178534031E-2,2.343581766E-1
1.977539100E-2,-7.147924304E-1,-6.178534031E-2,2.343581766E-1
2.172851600E-2,-7.147924304E-1,-6.178534031E-2,2.343581766E-1
2.368164100E-2,-7.147924304E-1,-6.178534031E-2,2.343581766E-1
2.569580100E-2,-7.147924304E-1,-6.178534031E-2,2.343581766E-1
2.764892600E-2,-7.147924304E-1,-6.178534031E-2,2.343581766E-1
2.966308600E-2,-7.147924304E-1,-6.178534031E-2,2.343581766E-1
3.164672900E-2,-7.147924304E-1,-6.178534031E-2,2.343581766E-1
3.363037100E-2,-7.137271762E-2,-2.652508616E-1,1.693770438E-1
3.558349600E-2,-5.166532472E-2,-2.498045117E-1,1.294296384E-1
3.756713900E-2,-3.036003746E-2,-2.380866110E-1,1.129180342E-1
3.952026400E-2,-1.597896591E-2,-2.290318608E-1,9.321063757E-2
4.150390700E-2,4.261057824E-3,-2.151834220E-1,6.711166352E-2
4.345703200E-2,1.704423130E-2,-1.976065636E-1,4.314320907E-2
4.547119200E-2,2.982740477E-2,-1.725728363E-1,2.450108156E-2
4.742431700E-2,3.888215125E-2,-1.422128081E-1,2.130528912E-3
4.940795900E-2,4.420847446E-2,-1.161138266E-1,-1.544633508E-2
5.139160200E-2,5.486112088E-2,-9.480853379E-2,-3.568635881E-2
5.337524400E-2,6.072007492E-2,-7.616640627E-2,-5.273059011E-2
5.532836900E-2,6.498113275E-2,-6.817692518E-2,-6.817692518E-2
5.734253000E-2,6.391586363E-2,-6.924218684E-2,-8.628641814E-2
5.932617200E-2,6.072007492E-2,-6.870955974E-2,-1.001348570E-1
6.127929700E-2,6.125270575E-2,-6.231797114E-2,-1.150485575E-1
6.323242200E-2,5.166532472E-2,-4.846953228E-2,-1.310275346E-1
6.521606500E-2,4.900216311E-2,-3.781688958E-2,-1.416801661E-1
6.719970700E-2,4.474110901E-2,-3.888215125E-2,-1.502022892E-1
6.918335000E-2,4.261057824E-2,-5.273059011E-2,-1.587243974E-1
7.113647500E-2,3.994741663E-2,-7.350324839E-2,-1.640507281E-1
7.315063500E-2,4.154531285E-2,-8.309062570E-2,-1.672465205E-1
7.513427800E-2,4.154531285E-2,-9.800432622E-2,-1.677791476E-1
7.711792000E-2,4.527373984E-2,-1.145159304E-1,-1.715075821E-1
7.910156300E-2,4.420847446E-2,-1.235706806E-1,-1.715075821E-1
8.108520500E-2,4.793690145E-2,-1.358212233E-1,-1.704423130E-1
8.303833000E-2,5.060006306E-2,-1.523328125E-1,-1.677791476E-1
8.502197300E-2,5.432848632E-2,-1.560612470E-1,-1.667138934E-1
8.700561600E-2,5.379585549E-2,-1.688444167E-1,-1.651159972E-1
8.898925800E-2,6.178534031E-2,-1.800296903E-1,-1.645833552E-1
9.097290100E-2,6.338323653E-2,-1.885518134E-1,-1.613875628E-1
9.292602600E-2,6.711166352E-2,-1.938781291E-1,-1.576591432E-1
9.490966800E-2,7.030745596E-2,-1.965412945E-1,-1.528654546E-1
9.689331100E-2,6.817692518E-2,-2.045307755E-1,-1.512675583E-1
9.887695300E-2,6.764429063E-2,-2.098570913E-1,-1.448759735E-1
1.008300780E-1,6.498113275E-2,-2.183792144E-1,-1.443433315E-1
1.028137210E-1,6.231797114E-2,-2.189118415E-1,-1.363538504E-1
1.047973640E-1,5.486112088E-2,-2.221076339E-1,-1.320927888E-1
1.067504890E-1,4.740426689E-2,-2.226402760E-1,-1.230380461E-1
1.087646490E-1,3.515372798E-2,-2.178465873E-1,-1.193096191E-1
1.107177740E-1,1.970739290E-2,-2.146507949E-1,-1.075917110E-1
1.127014160E-1,3.195793368E-3,-2.066612989E-1,-1.017327532E-1
1.146850590E-1,-1.597896591E-2,-2.002697140E-1,-9.054747969E-2
1.166687010E-1,-3.834952042E-2,-2.008023560E-1,-8.202536404E-2
1.186523440E-1,-6.285060197E-2,-2.034655064E-1,-7.030745596E-2
1.206359870E-1,-9.108011425E-2,-2.045307755E-1,-5.592638254E-2
1.225891120E-1,-1.187769845E-1,-2.146507949E-1,-4.367584363E-2
1.245727540E-1,-1.454086006E-1,-2.231729031E-1,-2.876213938E-2
1.265258790E-1,-1.768338978E-1,-2.354234457E-1,-1.065264456E-2
1.285095220E-1,-2.087918371E-1,-2.450108230E-1,0.000000000E0
1.304931640E-1,-2.343581766E-1,-2.567287385E-1,1.331580617E-2
1.325073250E-1,-2.625876963E-1,-2.673813701E-1,2.183792181E-2
1.344604500E-1,-2.860234976E-1,-2.780340314E-1,2.982740477E-2
1.364440920E-1,-3.131877482E-1,-2.886866629E-1,3.462109342E-2
1.384277350E-1,-3.355582952E-1,-2.972087860E-1,3.834952042E-2
1.404113770E-1,-3.547330499E-1,-3.083940744E-1,4.101268202E-2
1.423645020E-1,-3.723099232E-1,-3.211772442E-1,3.888215125E-2
1.443481450E-1,-3.877562582E-1,-3.376888335E-1,3.994741663E-2
1.463012700E-1,-4.005394280E-1,-3.563309610E-1,3.994741663E-2
1.482849120E-1,-4.090615511E-1,-3.776362538E-1,4.207794741E-2
1.502380370E-1,-4.181163013E-1,-4.021373391E-1,3.994741663E-2
1.522521980E-1,-4.239752591E-1,-4.229099751E-1,3.568635881E-2
1.542053230E-1,-4.277036786E-1,-4.431500137E-1,3.568635881E-2
1.561889650E-1,-4.335626364E-1,-4.575310946E-1,3.302319720E-2
1.581726080E-1,-4.367584288E-1,-4.687163532E-1,3.408846259E-2
1.601562500E-1,-4.383563101E-1,-4.788363874E-1,3.408846259E-2
1.621093750E-1,-4.362258017E-1,-4.846953154E-1,3.249056637E-2
1.640930180E-1,-4.324973822E-1,-4.889563918E-1,3.089267015E-2
1.660461430E-1,-4.266384244E-1,-4.964132309E-1,2.929477207E-2
1.680297850E-1,-4.181163013E-1,-5.273059011E-1,3.621899337E-2
1.699829100E-1,-4.074636400E-1,-5.470132828E-1,3.728425503E-2
1.719665530E-1,-3.930825889E-1,-5.592638254E-1,3.249056637E-2
1.739501960E-1,-3.818973005E-1,-5.661880374E-1,3.036003746E-2
1.759643560E-1,-3.659183383E-1,-5.709817410E-1,2.237055451E-2
1.779785160E-1,-3.520699143E-1,-5.800365210E-1,1.384843793E-2
1.799316410E-1,-3.328951299E-1,-5.890912414E-1,3.728425596E-3
1.818847660E-1,-3.121224940E-1,-5.954828262E-1,-6.924218964E-3
1.838989260E-1,-2.924150825E-1,-6.002765298E-1,-1.491370238E-2
1.858520510E-1,-2.716424465E-1,-6.024070382E-1,-2.663161233E-2
1.878662110E-1,-2.492718846E-1,-6.018744111E-1,-3.515372798E-2
1.898498540E-1,-2.231729031E-1,-5.874933600E-1,-4.367584363E-2
1.918334960E-1,-2.039981484E-1,-5.725796223E-1,-5.006742850E-2
1.937866210E-1,-1.784317940E-1,-5.571333170E-1,-5.219795927E-2
1.958007820E-1,-1.507349163E-1,-5.422195792E-1,-5.432848632E-2
1.978149420E-1,-1.288969964E-1,-5.251753926E-1,-4.793690145E-2
1.997680670E-1,-1.017327532E-1,-5.017395616E-1,-3.781688958E-2
2.017211920E-1,-7.403588295E-2,-4.708468914E-1,-2.503371425E-2
2.037353520E-1,-4.740426689E-2,-4.383563101E-1,-1.065264456E-2
2.057189940E-1,-1.810949668E-2,-3.914846778E-1,5.858954508E-3
2.077026370E-1,1.491370238E-2,-3.440804183E-1,2.822950855E-2
2.096557620E-1,4.527373984E-2,-2.988066673E-1,5.006742850E-2
2.116699220E-1,7.456851006E-2,-2.524676621E-1,7.456851006E-2
2.136535650E-1,1.043959185E-1,-2.151834220E-1,1.012001261E-1
2.156372070E-1,1.283643693E-1,-1.837581247E-1,1.257012039E-1
2.176208500E-1,1.523328125E-1,-1.645833552E-1,1.491370201E-1
2.196044920E-1,1.677791476E-1,-1.507349163E-1,1.693770438E-1
2.215576170E-1,1.789644361E-1,-1.390170157E-1,1.896170676E-1
2.235412600E-1,1.858886480E-1,-1.257012039E-1,2.077265680E-1
2.255249030E-1,1.896170676E-1,-1.075917110E-1,2.253034264E-1
2.275085450E-1,1.874865443E-1,-9.001484513E-2,2.434129268E-1
2.294616700E-1,1.810949594E-1,-6.977482140E-2,2.593919039E-1
2.314758300E-1,1.741707325E-1,-5.060006306E-2,2.764361203E-1
2.334594730E-1,1.624528319E-1,-3.036003746E-2,2.924150825E-1
2.354431160E-1,1.502022892E-1,-1.438106969E-2,3.083940744E-1
2.374267580E-1,1.304948926E-1,-2.130528912E-3,3.243730366E-1
2.393798830E-1,1.054611802E-1,1.597896684E-3,3.360909224E-1
2.413635260E-1,8.042746782E-2,2.663161140E-3,3.456783295E-1
2.433471680E-1,5.219795927E-2,5.326322280E-4,3.536677957E-1
2.453002930E-1,1.970739290E-2,-9.054748341E-3,3.573962152E-1
2.473144530E-1,-1.757686399E-2,-1.810949668E-2,3.568635881E-1
2.492675780E-1,-5.006742850E-2,-3.728425503E-2,3.547330499E-1
2.512512210E-1,-8.628641814E-2,-5.965480953E-2,3.504720032E-1
2.532348640E-1,-1.214401498E-1,-8.681905270E-2,3.403519988E-1
2.552185060E-1,-1.512675583E-1,-1.150485575E-1,3.328951299E-1
2.572021490E-1,-1.747033745E-1,-1.432780623E-1,3.206445873E-1
2.591857910E-1,-2.002697140E-1,-1.704423130E-1,3.073287904E-1
2.611389160E-1,-2.039981484E-1,-1.805623323E-1,2.977414131E-1
2.631530760E-1,-2.205097377E-1,-2.039981484E-1,2.641855776E-1
2.651062010E-1,-2.215750068E-1,-2.082591951E-1,2.487392575E-1
2.671203620E-1,-2.157160491E-1,-2.135855258E-1,2.082591951E-1
2.691040040E-1,-2.135855258E-1,-2.146507949E-1,1.949433982E-1
2.710876470E-1,-1.933455020E-1,-1.997370869E-1,1.560612470E-1
2.730407720E-1,-1.821602285E-1,-1.938781291E-1,1.454086006E-1
2.750549320E-1,-1.624528319E-1,-1.784317940E-1,1.214401498E-1
2.770690920E-1,-1.262338310E-1,-1.533980817E-1,9.693906456E-2
2.790222170E-1,-1.155811921E-1,-1.443433315E-1,9.161274135E-2
2.809753420E-1,-9.001484513E-2,-1.251685768E-1,8.468852192E-2
2.829895020E-1,-6.285060197E-2,-1.070590764E-1,7.829693705E-2
2.849426270E-1,-3.568635881E-2,-1.129180342E-1,8.309062570E-2
2.869262700E-1,-1.331580617E-2,-9.853696078E-2,8.628641814E-2
2.888793950E-1,4.261057824E-3,-7.616640627E-2,9.267801046E-2
2.908935550E-1,1.491370238E-2,-5.592638254E-2,9.960222989E-2
2.928466800E-1,2.503371425E-2,-4.048004746E-2,1.091896072E-1
2.948303230E-1,2.716424316E-2,-2.769687586E-2,1.161138266E-1
2.968139650E-1,2.929477207E-2,-1.970739290E-2,1.251685768E-1
2.987670900E-1,2.663161233E-2,-1.757686399E-2,1.347559541E-1
3.007202150E-1,2.183792181E-2,-1.491370238E-2,1.427454352E-1
3.027343750E-1,1.597896591E-2,-1.171790902E-2,1.523328125E-1
3.046875000E-1,2.663161140E-3,-1.225054078E-2,1.608549356E-1
3.066711430E-1,-6.391586736E-3,-2.982740477E-2,1.688444167E-1
3.086547850E-1,-1.810949668E-2,-4.101268202E-2,1.768338978E-1
3.106689460E-1,-2.929477207E-2,-3.781688958E-2,1.837581247E-1
3.126220710E-1,-4.367584363E-2,-3.249056637E-2,1.805623323E-1
3.146057130E-1,-5.539375171E-2,-3.728425503E-2,1.784317940E-1
3.165893560E-1,-6.498113275E-2,-4.633900523E-2,1.693770438E-1
3.185729980E-1,-7.403588295E-2,-5.965480953E-2,1.635181010E-1
3.205261230E-1,-8.042746782E-2,-7.456851006E-2,1.539307088E-1
3.225097660E-1,-8.788431436E-2,-8.841694891E-2,1.475391239E-1
3.244628910E-1,-9.374327213E-2,-9.374327213E-2,1.422128081E-1
3.264465340E-1,-1.006674916E-1,-9.534116834E-2,1.395496428E-1
3.283996590E-1,-1.091896072E-1,-9.427590668E-2,1.368864775E-1
3.304138190E-1,-1.171790883E-1,-8.681905270E-2,1.363538504E-1
3.323669440E-1,-1.241033077E-1,-7.456851006E-2,1.395496428E-1
3.343811040E-1,-1.299622655E-1,-6.285060197E-2,1.384843737E-1
3.363647460E-1,-1.432780623E-1,-5.006742850E-2,1.406149119E-1
3.383178710E-1,-1.470064968E-1,-3.834952042E-2,1.416801661E-1
3.402709960E-1,-1.555286050E-1,-2.929477207E-2,1.411475390E-1
3.422851570E-1,-1.656486243E-1,-2.503371425E-2,1.400822699E-1
3.442382820E-1,-1.704423130E-1,-2.343581803E-2,1.390170157E-1
3.462524420E-1,-1.704423130E-1,-2.609897964E-2,1.331580579E-1
3.482360840E-1,-1.773665249E-1,-3.355583176E-2,1.326254308E-1
3.502502440E-1,-1.768338978E-1,-3.941478580E-2,1.336906850E-1
3.522033690E-1,-1.789644361E-1,-4.846953228E-2,1.326254308E-1
3.541870120E-1,-1.789644361E-1,-5.912217870E-2,1.326254308E-1
3.561706550E-1,-1.789644361E-1,-6.657902896E-2,1.363538504E-1
3.581542970E-1,-1.810949594E-1,-7.137271762E-2,1.416801661E-1
3.601074220E-1,-1.805623323E-1,-6.977482140E-2,1.464738697E-1
3.620910650E-1,-1.821602285E-1,-7.084008306E-2,1.518001854E-1
3.640441900E-1,-1.826928556E-1,-6.711166352E-2,1.544633508E-1
3.660583500E-1,-1.864212751E-1,-6.338323653E-2,1.651159972E-1
3.680419920E-1,-1.826928556E-1,-5.965480953E-2,1.683117896E-1
3.700561530E-1,-1.832254827E-1,-5.006742850E-2,1.715075821E-1
3.720397950E-1,-1.826928556E-1,-4.580637068E-2,1.763012707E-1
3.740539550E-1,-1.832254827E-1,-4.261057824E-2,1.731054783E-1
3.760375980E-1,-1.853560209E-1,-4.207794741E-2,1.709749401E-1
3.780212410E-1,-1.853560209E-1,-4.101268202E-2,1.640507281E-1
3.800048830E-1,-1.880191714E-1,-4.580637068E-2,1.549959779E-1
3.820190430E-1,-1.896170676E-1,-5.432848632E-2,1.464738697E-1
3.839721680E-1,-1.906823367E-1,-5.645901710E-2,1.288969964E-1
3.859863280E-1,-1.901497096E-1,-6.444849819E-2,1.033306494E-1
3.879699710E-1,-1.816275865E-1,-1.017327532E-1,7.669904083E-2
3.899536140E-1,-1.683117896E-1,-1.422128081E-1,5.858954415E-2
3.919067390E-1,-1.518001854E-1,-1.677791476E-1,3.888215125E-2
3.939208990E-1,-1.368864775E-1,-1.789644361E-1,1.917476021E-2
3.959350590E-1,-1.187769845E-1,-1.933455020E-1,-5.326322280E-4
3.978881840E-1,-9.534116834E-2,-2.045307755E-1,-1.704423130E-2
3.998413090E-1,-7.403588295E-2,-2.157160491E-1,-2.929477207E-2
4.018554690E-1,-5.486112088E-2,-2.178465873E-1,-3.994741663E-2
4.038085940E-1,-2.982740477E-2,-2.130528986E-1,-4.527373984E-2
4.057922370E-1,-1.597896684E-3,-2.050634027E-1,-4.846953228E-2
4.077758790E-1,2.450108156E-2,-1.928128600E-1,-5.113269389E-2
4.097595220E-1,5.166532472E-2,-1.747033745E-1,-5.166532472E-2
4.117431640E-1,8.096009493E-2,-1.576591432E-1,-5.060006306E-2
4.137268070E-1,1.113201380E-1,-1.347559541E-1,-5.006742850E-2
4.157104500E-1,1.395496428E-1,-1.107875034E-1,-4.580637068E-2
4.176635750E-1,1.672465205E-1,-7.776430249E-2,-3.888215125E-2
4.196167000E-1,1.954760253E-1,-4.420847446E-2,-3.621899337E-2
4.216308600E-1,2.205097377E-1,-5.326322280E-3,-3.355583176E-2
4.235839850E-1,2.466087192E-1,2.609897964E-2,-2.876213938E-2
4.255676270E-1,2.700445354E-1,5.326322466E-2,-2.396845073E-2
4.275512700E-1,2.892192900E-1,7.669904083E-2,-1.491370238E-2
4.295349120E-1,3.094593287E-1,9.640643001E-2,-6.924218964E-3
4.314880370E-1,3.243730366E-1,1.155811921E-1,9.054748341E-3
4.335021980E-1,3.403519988E-1,1.342233270E-1,2.556634694E-2
4.354858400E-1,3.515372574E-1,1.496696621E-1,4.474110901E-2
4.374389650E-1,3.632551730E-1,1.635181010E-1,6.338323653E-2
4.393920900E-1,3.691141307E-1,1.731054783E-1,8.468852192E-2
4.414062500E-1,3.771036267E-1,1.800296903E-1,1.033306494E-1
4.433898930E-1,3.834952116E-1,1.848233789E-1,1.198422536E-1
4.453735350E-1,3.856257200E-1,1.837581247E-1,1.320927888E-1
4.473266600E-1,3.877562582E-1,1.752360016E-1,1.427454352E-1
4.493408210E-1,3.818973005E-1,1.635181010E-1,1.528654546E-1
4.513244630E-1,3.802994192E-1,1.491370201E-1,1.587243974E-1
4.532775880E-1,3.728425503E-1,1.310275346E-1,1.613875628E-1
4.552612310E-1,3.659183383E-1,1.123853996E-1,1.651159972E-1
4.572143560E-1,3.573962152E-1,9.853696078E-2,1.635181010E-1
4.591674810E-1,3.515372574E-1,8.735168725E-2,1.608549356E-1
4.611511230E-1,3.467435837E-1,7.243798673E-2,1.581917703E-1
4.631042480E-1,3.440804183E-1,6.231797114E-2,1.533980817E-1
4.650878910E-1,3.424825370E-1,5.699164793E-2,1.528654546E-1
4.670715340E-1,3.382214606E-1,5.592638254E-2,1.518001854E-1
4.690856940E-1,3.403519988E-1,6.285060197E-2,1.459412277E-1
4.710388190E-1,3.414172530E-1,7.190535218E-2,1.427454352E-1
4.730224610E-1,3.440804183E-1,7.403588295E-2,1.400822699E-1
4.750061040E-1,3.467435837E-1,7.563377917E-2,1.416801661E-1
4.769897460E-1,3.483414650E-1,9.693906456E-2,1.406149119E-1
4.789733890E-1,3.478088379E-1,1.267664731E-1,1.395496428E-1
4.809875490E-1,3.542004228E-1,1.475391239E-1,1.390170157E-1
4.829711920E-1,3.573962152E-1,1.608549356E-1,1.379517466E-1
4.849548340E-1,3.568635881E-1,1.741707325E-1,1.368864775E-1
4.869689940E-1,3.547330499E-1,1.794970632E-1,1.432780623E-1
4.889526370E-1,3.542004228E-1,1.794970632E-1,1.464738697E-1
4.909057620E-1,3.456783295E-1,1.752360016E-1,1.560612470E-1
4.929199220E-1,3.371562064E-1,1.624528319E-1,1.640507281E-1
4.948730470E-1,3.238403797E-1,1.480717659E-1,1.773665249E-1
4.968261720E-1,3.073287904E-1,1.363538504E-1,1.949433982E-1
4.987792970E-1,2.897519469E-1,1.193096191E-1,2.135855258E-1
5.007934570E-1,2.700445354E-1,1.065264493E-1,2.327602804E-1
5.027465820E-1,2.450108230E-1,8.681905270E-2,2.545982003E-1
5.047607420E-1,2.141181529E-1,6.711166352E-2,2.780340314E-1
5.067443850E-1,1.864212751E-1,4.687163606E-2,2.966761589E-1
5.087585450E-1,1.571265012E-1,2.503371425E-2,3.147856593E-1
5.107116700E-1,1.272991002E-1,0.000000000E0,3.355582952E-1
5.127258300E-1,9.374327213E-2,-2.663161233E-2,3.547330499E-1
5.147399910E-1,6.338323653E-2,-4.846953228E-2,3.669835925E-1
5.166931160E-1,3.302319720E-2,-7.137271762E-2,3.802994192E-1
5.186462410E-1,3.728425596E-3,-9.427590668E-2,3.882888854E-1
5.206604010E-1,-2.237055451E-2,-1.086569726E-1,3.930825889E-1
5.226135260E-1,-4.580637068E-2,-1.235706806E-1,3.989415467E-1
5.246276860E-1,-6.764429063E-2,-1.363538504E-1,4.005394280E-1
5.265808110E-1,-8.735168725E-2,-1.422128081E-1,4.005394280E-1
5.285949710E-1,-1.054611802E-1,-1.400822699E-1,3.920173049E-1
5.305786140E-1,-1.203748807E-1,-1.363538504E-1,3.781688809E-1
5.325622560E-1,-1.288969964E-1,-1.379517466E-1,3.600593805E-1
5.345458990E-1,-1.315601617E-1,-1.587243974E-1,3.376888335E-1
5.365295410E-1,-1.241033077E-1,-2.013349831E-1,3.227751255E-1
5.385131840E-1,-1.150485575E-1,-2.167813182E-1,3.089267015E-1
5.404968260E-1,-1.027980223E-1,-2.098570913E-1,2.897519469E-1
5.424499510E-1,-8.575379103E-2,-2.024002522E-1,2.716424465E-1
5.444335940E-1,-7.030745596E-2,-1.896170676E-1,2.514024079E-1
5.463867190E-1,-4.420847446E-2,-1.747033745E-1,2.348908186E-1
5.483703620E-1,-2.556634694E-2,-1.555286050E-1,2.221076339E-1
5.503540040E-1,-1.597896684E-3,-1.304948926E-1,2.125202566E-1
5.523376470E-1,2.183792181E-2,-1.012001261E-1,2.061286718E-1
5.543212890E-1,4.261057824E-2,-6.657902896E-2,2.024002522E-1
5.562744140E-1,6.018744037E-2,-3.355583176E-2,2.008023560E-1
5.582580570E-1,8.149272949E-2,5.858954508E-3,2.045307755E-1
5.602417000E-1,9.747169912E-2,3.621899337E-2,2.082591951E-1
5.621948250E-1,1.129180342E-1,5.965480953E-2,2.141181529E-1
5.641784670E-1,1.257012039E-1,8.894958347E-2,2.221076339E-1
5.661315920E-1,1.336906850E-1,1.161138266E-1,2.279665917E-1
5.681152350E-1,1.432780623E-1,1.310275346E-1,2.391518652E-1
5.700988770E-1,1.491370201E-1,1.454086006E-1,2.487392575E-1
5.720825200E-1,1.512675583E-1,1.597896665E-1,2.604571581E-1
5.740661620E-1,1.470064968E-1,1.858886480E-1,2.753708661E-1
5.760192870E-1,1.438107044E-1,2.071939409E-1,2.865561247E-1
5.780029300E-1,1.400822699E-1,2.194444835E-1,2.982740402E-1
5.799865730E-1,1.326254308E-1,2.290318608E-1,3.073287904E-1
5.819396980E-1,1.267664731E-1,2.322276533E-1,3.126551211E-1
5.839538580E-1,1.129180342E-1,2.274339646E-1,3.169161677E-1
5.859069830E-1,9.960222989E-2,2.183792144E-1,3.222424984E-1
5.878906250E-1,8.788431436E-2,1.997370869E-1,3.222424984E-1
5.898742680E-1,7.243798673E-2,1.757686287E-1,3.222424984E-1
5.918884280E-1,5.752427876E-2,1.502022892E-1,3.163835406E-1
5.938720710E-1,4.154531285E-2,1.219727769E-1,3.115898669E-1
5.958251960E-1,2.769687586E-2,9.800432622E-2,3.078614175E-1
5.977783210E-1,1.278317347E-2,7.669904083E-2,3.025351167E-1
5.997619630E-1,-2.130528912E-3,5.805691332E-2,2.940129936E-1
6.017150880E-1,-1.544633508E-2,4.580637068E-2,2.929477394E-1
6.037292480E-1,-3.036003746E-2,3.515372798E-2,2.881540358E-1
6.056823730E-1,-3.675162420E-2,2.343581803E-2,2.838929892E-1
6.076965340E-1,-4.793690145E-2,1.544633508E-2,2.817624509E-1
6.096801760E-1,-5.805691332E-2,5.326322280E-3,2.796319127E-1
6.116638190E-1,-6.444849819E-2,-5.326322280E-4,2.775014043E-1
6.136474610E-1,-7.297061384E-2,-7.989482954E-3,2.737729549E-1
6.156005860E-1,-8.255799860E-2,-1.438106969E-2,2.727077007E-1
6.175842290E-1,-9.321063757E-2,-1.331580617E-2,2.668487430E-1
6.195678710E-1,-1.012001261E-1,-1.065264456E-2,2.615224123E-1
6.215209960E-1,-1.075917110E-1,-6.391586736E-3,2.561961114E-1
6.235351570E-1,-1.161138266E-1,-5.858954508E-3,2.476739883E-1
6.254882820E-1,-1.225054115E-1,-3.195793368E-3,2.375539690E-1
6.274719240E-1,-1.294296384E-1,-5.326322280E-4,2.290318608E-1
6.294250490E-1,-1.331580579E-1,-5.858954508E-3,2.162486911E-1
6.314086920E-1,-1.347559541E-1,-2.396845073E-2,2.093244642E-1
6.333923340E-1,-1.358212233E-1,-3.834952042E-2,2.018676102E-1
6.353454590E-1,-1.443433315E-1,-3.621899337E-2,1.890844405E-1
6.372985840E-1,-1.464738697E-1,-2.716424316E-2,1.752360016E-1
6.393127440E-1,-1.480717659E-1,-2.343581803E-2,1.640507281E-1
6.412658690E-1,-1.464738697E-1,-2.077265643E-2,1.480717659E-1
6.432495120E-1,-1.454086006E-1,-1.438106969E-2,1.347559541E-1
6.452331550E-1,-1.438107044E-1,-1.171790902E-2,1.209075153E-1
6.472167970E-1,-1.411475390E-1,-6.391586736E-3,1.065264493E-1
6.491699220E-1,-1.390170157E-1,-3.728425596E-3,9.161274135E-2
6.511840820E-1,-1.368864775E-1,-3.728425596E-3,7.616640627E-2
6.531677250E-1,-1.326254308E-1,-1.065264456E-2,5.699164793E-2
6.551513670E-1,-1.326254308E-1,-1.225054078E-2,3.728425503E-2
6.571350100E-1,-1.288969964E-1,-2.183792181E-2,2.290318534E-2
6.591491700E-1,-1.262338310E-1,-2.716424316E-2,4.793690052E-3
6.611328130E-1,-1.187769845E-1,-3.195793182E-2,-1.278317347E-2
6.631164550E-1,-1.177117229E-1,-3.568635881E-2,-3.249056637E-2
6.651000980E-1,-1.107875034E-1,-4.154531285E-2,-5.113269389E-2
6.670837410E-1,-1.070590764E-1,-4.527373984E-2,-6.657902896E-2
6.690673830E-1,-1.033306494E-1,-4.687163606E-2,-7.669904083E-2
6.710510260E-1,-9.214537591E-2,-5.166532472E-2,-9.853696078E-2
6.730651860E-1,-9.054747969E-2,-5.486112088E-2,-1.118527651E-1
6.750183110E-1,-8.468852192E-2,-5.379585549E-2,-1.177117229E-1
6.770019530E-1,-7.829693705E-2,-5.486112088E-2,-1.283643693E-1
6.789855960E-1,-7.563377917E-2,-5.326322466E-2,-1.374191195E-1
6.809387210E-1,-7.084008306E-2,-5.166532472E-2,-1.459412277E-1
6.829223640E-1,-6.338323653E-2,-5.006742850E-2,-1.512675583E-1
6.848754890E-1,-5.805691332E-2,-4.793690145E-2,-1.560612470E-1
6.868591310E-1,-5.326322466E-2,-4.527373984E-2,-1.608549356E-1
6.888122560E-1,-4.314320907E-2,-3.728425503E-2,-1.603222936E-1
6.907958990E-1,-3.888215125E-2,-3.036003746E-2,-1.645833552E-1
6.927795410E-1,-3.195793182E-2,-2.396845073E-2,-1.667138934E-1
6.947631840E-1,-2.609897964E-2,-1.171790902E-2,-1.661812514E-1
6.967163090E-1,-1.970739290E-2,-5.326322280E-3,-1.635181010E-1
6.987304690E-1,-1.012001187E-2,3.728425596E-3,-1.640507281E-1
7.006835940E-1,0.000000000E0,8.522115648E-3,-1.608549356E-1
7.026977540E-1,9.587380104E-3,1.491370238E-2,-1.581917703E-1
7.046813970E-1,1.757686399E-2,2.396845073E-2,-1.544633508E-1
7.066955570E-1,2.822950855E-2,3.142530099E-2,-1.496696621E-1
7.086486820E-1,4.154531285E-2,4.314320907E-2,-1.454086006E-1
7.106323250E-1,5.699164793E-2,5.113269389E-2,-1.411475390E-1
7.126159670E-1,7.084008306E-2,6.498113275E-2,-1.331580579E-1
7.145996100E-1,8.415589482E-2,7.510114461E-2,-1.235706806E-1
7.165527350E-1,1.012001261E-1,9.374327213E-2,-1.166464612E-1
7.185363770E-1,1.134506613E-1,1.113201380E-1,-1.065264493E-1
7.204895020E-1,1.262338310E-1,1.331580579E-1,-9.853696078E-2
7.224731450E-1,1.422128081E-1,1.560612470E-1,-9.161274135E-2
7.244567870E-1,1.581917703E-1,1.741707325E-1,-8.096009493E-2
7.264404300E-1,1.715075821E-1,1.933455020E-1,-7.190535218E-2
7.284240730E-1,1.837581247E-1,2.109223604E-1,-6.498113275E-2
7.304077150E-1,1.997370869E-1,2.247707993E-1,-6.018744037E-2
7.323913580E-1,2.125202566E-1,2.348908186E-1,-5.486112088E-2
7.343750000E-1,2.210423797E-1,2.412824035E-1,-5.166532472E-2
7.363281250E-1,2.332929224E-1,2.466087192E-1,-4.740426689E-2
7.383422850E-1,2.386192381E-1,2.514024079E-1,-4.740426689E-2
7.402954100E-1,2.482066154E-1,2.530003190E-1,-4.420847446E-2
7.422790530E-1,2.530003190E-1,2.530003190E-1,-4.687163606E-2
7.442626960E-1,2.540655732E-1,2.492718846E-1,-5.113269389E-2
7.462768560E-1,2.530003190E-1,2.418150306E-1,-5.486112088E-2
7.482299810E-1,2.540655732E-1,2.284992188E-1,-6.125270575E-2
7.502136230E-1,2.514024079E-1,2.162486911E-1,-6.231797114E-2
7.521972660E-1,2.498045117E-1,1.890844405E-1,-6.338323653E-2
7.541809090E-1,2.418150306E-1,1.528654546E-1,-6.072007492E-2
7.561340340E-1,2.237055302E-1,1.352885813E-1,-6.178534031E-2
7.581176760E-1,2.109223604E-1,1.230380461E-1,-6.657902896E-2
7.601013190E-1,1.912149638E-1,1.129180342E-1,-6.924218684E-2
7.620849610E-1,1.768338978E-1,9.693906456E-2,-7.403588295E-2
7.640380860E-1,1.640507281E-1,7.297061384E-2,-7.776430249E-2
7.660522460E-1,1.507349163E-1,4.846953228E-2,-8.255799860E-2
7.680358890E-1,1.379517466E-1,2.716424316E-2,-8.522115648E-2
7.700195320E-1,1.262338310E-1,-5.326322280E-4,-8.788431436E-2
7.720031740E-1,1.118527651E-1,-2.609897964E-2,-9.108011425E-2
7.739868170E-1,1.006674916E-1,-5.965480953E-2,-9.108011425E-2
7.759399420E-1,8.042746782E-2,-1.049285457E-1,-9.587380290E-2
7.779235840E-1,5.432848632E-2,-1.422128081E-1,-9.960222989E-2
7.799072270E-1,3.781688958E-2,-1.720402092E-1,-1.012001261E-1
7.818908690E-1,1.704423130E-2,-1.944107562E-1,-1.033306494E-1
7.838439940E-1,6.924218964E-3,-2.103897333E-1,-1.038632840E-1
7.858581550E-1,-2.663161140E-3,-2.226402760E-1,-1.091896072E-1
7.878417970E-1,-8.522115648E-3,-2.375539690E-1,-1.086569726E-1
7.898254400E-1,-1.278317347E-2,-2.492718846E-1,-1.102548689E-1
7.918090820E-1,-1.331580617E-2,-2.636529505E-1,-1.118527651E-1
7.937927250E-1,-1.438106969E-2,-2.806971967E-1,-1.107875034E-1
7.957763670E-1,-1.544633508E-2,-3.020024598E-1,-1.129180342E-1
7.977600100E-1,-1.757686399E-2,-3.227751255E-1,-1.134506613E-1
7.997131350E-1,-2.130528912E-2,-3.456783295E-1,-1.166464612E-1
8.016967780E-1,-2.024002373E-2,-3.760383427E-1,-1.182443574E-1
8.036499030E-1,-2.556634694E-2,-4.063983858E-1,-1.129180342E-1
8.056335450E-1,-3.142530099E-2,-4.335626364E-1,-1.065264493E-1
8.075866700E-1,-3.249056637E-2,-4.490089715E-1,-9.534116834E-2
8.096008300E-1,-3.621899337E-2,-4.564658105E-1,-8.468852192E-2
8.116149910E-1,-3.408846259E-2,-4.554005563E-1,-6.924218684E-2
8.135681160E-1,-2.929477207E-2,-4.442152679E-1,-5.006742850E-2
8.155212410E-1,-2.130528912E-2,-4.388889670E-1,-3.302319720E-2
8.175354010E-1,-1.544633508E-2,-4.282363057E-1,-1.757686399E-2
8.194885260E-1,-9.054748341E-3,-4.165183902E-1,0.000000000E0
8.214721680E-1,-4.261057824E-3,-4.069310129E-1,1.651159860E-2
8.234558110E-1,-2.663161140E-3,-3.968110085E-1,3.834952042E-2
8.254699710E-1,-5.326322280E-4,-3.898867965E-1,5.539375171E-2
8.274230960E-1,0.000000000E0,-3.877562582E-1,7.190535218E-2
8.294067390E-1,-1.065264456E-3,-3.872236311E-1,9.747169912E-2
8.313903810E-1,-5.326322280E-3,-3.909520507E-1,1.182443574E-1
8.333740240E-1,-1.065264456E-2,-3.904194236E-1,1.352885813E-1
8.353271490E-1,-2.077265643E-2,-3.877562582E-1,1.576591432E-1
8.373107910E-1,-3.355583176E-2,-3.749730885E-1,1.731054783E-1
8.392639160E-1,-4.687163606E-2,-3.584614992E-1,1.896170676E-1
8.412475590E-1,-5.486112088E-2,-3.430151641E-1,2.018676102E-1
8.432006840E-1,-6.817692518E-2,-3.286340833E-1,2.157160491E-1
8.452148440E-1,-7.882957160E-2,-3.147856593E-1,2.279665917E-1
8.471984870E-1,-8.948221803E-2,-3.046656251E-1,2.396845073E-1
8.491821290E-1,-1.022653878E-1,-2.908172011E-1,2.487392575E-1
8.511657720E-1,-1.107875034E-1,-2.828277051E-1,2.572613657E-1
8.531188970E-1,-1.129180342E-1,-2.812298238E-1,2.636529505E-1
8.551025390E-1,-1.177117229E-1,-2.769687474E-1,2.711097896E-1
8.570861820E-1,-1.225054115E-1,-2.743056118E-1,2.785666585E-1
8.590393070E-1,-1.246359423E-1,-2.769687474E-1,2.833603323E-1
8.610229500E-1,-1.219727769E-1,-2.854908705E-1,2.897519469E-1
8.629760750E-1,-1.150485575E-1,-3.009372056E-1,2.940129936E-1
8.649902350E-1,-1.097222418E-1,-3.185140789E-1,2.977414131E-1
8.669738770E-1,-1.012001261E-1,-3.371562064E-1,2.993393242E-1
8.689575200E-1,-9.267801046E-2,-3.627225459E-1,3.025351167E-1
8.709411620E-1,-8.362326026E-2,-3.845604658E-1,3.036003709E-1
8.728942870E-1,-7.243798673E-2,-4.095941782E-1,3.062635362E-1
8.748474120E-1,-6.231797114E-2,-4.303668439E-1,3.057309091E-1
8.768615730E-1,-5.006742850E-2,-4.463458061E-1,3.083940744E-1
8.788146980E-1,-3.462109342E-2,-4.575310946E-1,3.115898669E-1
8.807983400E-1,-2.024002373E-2,-4.612595141E-1,3.131877482E-1
8.828125000E-1,-7.456851192E-3,-4.538026452E-1,3.147856593E-1
8.847961430E-1,6.924218964E-3,-4.298342168E-1,3.174487948E-1
8.867492680E-1,2.982740477E-2,-3.989415467E-1,3.217098713E-1
8.887329100E-1,4.793690145E-2,-3.659183383E-1,3.254382908E-1
8.907165530E-1,7.510114461E-2,-3.281014562E-1,3.291667104E-1
8.927001960E-1,1.027980223E-1,-2.892192900E-1,3.323625028E-1
8.946533210E-1,1.331580579E-1,-2.588592768E-1,3.355582952E-1
8.966369630E-1,1.624528319E-1,-2.370213419E-1,3.360909224E-1
8.986206060E-1,1.912149638E-1,-2.295644879E-1,3.350256681E-1
9.006042480E-1,2.215750068E-1,-2.322276533E-1,3.291667104E-1
9.025573730E-1,2.466087192E-1,-2.444781959E-1,3.286340833E-1
9.045715340E-1,2.721750736E-1,-2.583266199E-1,3.249056637E-1
9.065551760E-1,2.940129936E-1,-2.828277051E-1,3.195793331E-1
9.085388190E-1,3.163835406E-1,-3.121224940E-1,3.158509135E-1
9.105224610E-1,3.344930410E-1,-3.515372574E-1,3.089267015E-1
9.124755860E-1,3.494067490E-1,-3.968110085E-1,2.998719513E-1
9.144592290E-1,3.589941263E-1,-4.378236830E-1,2.844256163E-1
9.164428710E-1,3.664509654E-1,-4.783037305E-1,2.732403278E-1
9.183959960E-1,3.696467578E-1,-5.134574771E-1,2.540655732E-1
9.204101570E-1,3.733751774E-1,-5.432848930E-1,2.359560728E-1
9.223937990E-1,3.765709996E-1,-5.651227832E-1,2.146507949E-1
9.243774420E-1,3.834952116E-1,-5.826996565E-1,1.933455020E-1
9.263305670E-1,3.936152160E-1,-5.928196907E-1,1.709749401E-1
9.283447270E-1,4.026699662E-1,-6.024070382E-1,1.459412277E-1
9.303283690E-1,4.181163013E-1,-6.114618182E-1,1.193096191E-1
9.322814940E-1,4.356931746E-1,-6.226470470E-1,9.267801046E-2
9.342346190E-1,4.548679292E-1,-6.338323355E-1,6.231797114E-2
9.362487800E-1,4.799016416E-1,-6.370281577E-1,3.249056637E-2
9.382019050E-1,5.022721887E-1,-6.343649626E-1,2.130528912E-3
9.401855470E-1,5.257080197E-1,-6.253102422E-1,-3.195793182E-2
9.421691900E-1,5.512743592E-1,-5.997439027E-1,-6.391586363E-2
9.441528320E-1,5.688512325E-1,-5.613943934E-1,-1.022653878E-1
9.461059570E-1,5.874933600E-1,-5.081311464E-1,-1.347559541E-1
9.481201170E-1,6.077333689E-1,-4.420847595E-1,-1.805623323E-1
9.501037600E-1,6.237123609E-1,-3.568635881E-1,-2.263686955E-1
9.520568850E-1,6.423544884E-1,-2.636529505E-1,-2.727077007E-1
9.540100100E-1,6.620618701E-1,-1.587243974E-1,-3.131877482E-1
9.560241700E-1,6.801713705E-1,-6.018744037E-2,-3.595267534E-1
9.579772950E-1,7.004113793E-1,3.888215125E-2,-3.994741738E-1
9.599609380E-1,7.142598033E-1,1.310275346E-1,-4.362258017E-1
9.619445800E-1,7.222493291E-1,2.226402760E-1,-4.729774296E-1
9.639587410E-1,7.307714224E-1,3.030677438E-1,-5.017395616E-1
9.659423830E-1,7.291735411E-1,3.744404614E-1,-5.246427655E-1
9.679565430E-1,7.275756001E-1,4.388889670E-1,-5.491438508E-1
9.699707030E-1,7.185208797E-1,4.996090233E-1,-5.672533512E-1
9.719238280E-1,7.046724558E-1,5.496764779E-1,-5.837649107E-1
9.738769530E-1,6.897587180E-1,5.981460214E-1,-5.976133347E-1
9.758911140E-1,6.721818447E-1,6.354302764E-1,-6.109291911E-1
9.778442390E-1,6.551376581E-1,6.716492176E-1,-6.247776151E-1
9.798278810E-1,6.322344542E-1,7.014766335E-1,-6.348975897E-1
9.818115240E-1,6.082659960E-1,7.302387953E-1,-6.460828781E-1
9.837951660E-1,5.821670294E-1,7.600662112E-1,-6.567355394E-1
9.857482910E-1,5.566006899E-1,7.872304320E-1,-6.668555737E-1
9.877319340E-1,5.299690962E-1,8.096010089E-1,-6.764429212E-1
9.897155760E-1,5.049353242E-1,8.271778226E-1,-6.823018789E-1
9.916687010E-1,4.846953154E-1,8.351673484E-1,-6.876282096E-1
9.936218260E-1,4.660531878E-1,8.346347213E-1,-6.860303283E-1
9.956359870E-1,4.468784332E-1,8.298410177E-1,-6.807039976E-1
9.976196290E-1,4.330300093E-1,8.186557293E-1,-6.689860821E-1
9.996032720E-1,4.229099751E-1,7.808388472E-1,-6.466155052E-1
1.001586914E0,4.186489284E-1,7.313040495E-1,-6.077333689E-1
1.003570557E0,4.218447208E-1,6.546050310E-1,-5.592638254E-1
1.005554200E0,4.261057973E-1,5.603290796E-1,-4.953479767E-1
1.007537842E0,4.356931746E-1,4.511395097E-1,-4.287689328E-1
1.009521485E0,4.442152679E-1,3.307646215E-1,-3.568635881E-1
1.011505127E0,4.538026452E-1,2.045307755E-1,-2.865561247E-1
1.013458252E0,4.681837261E-1,6.444849819E-2,-2.178465873E-1
1.015441895E0,4.836300611E-1,-7.350324839E-2,-1.528654546E-1
1.017425537E0,4.969458580E-1,-2.162486911E-1,-9.480853379E-2
1.019409180E0,5.123922229E-1,-3.637878001E-1,-3.781688958E-2
1.021362305E0,5.214469433E-1,-5.060006380E-1,7.989482954E-3
1.023376465E0,5.267732739E-1,-6.306365728E-1,4.846953228E-2
1.025360108E0,5.193164349E-1,-7.206513882E-1,7.723167539E-2
1.027343750E0,5.028048158E-1,-7.845672965E-1,8.735168725E-2
1.029327393E0,4.804342687E-1,-8.261125684E-1,9.800432622E-2
1.031311035E0,4.569984376E-1,-8.596684337E-1,1.006674916E-1
1.033294678E0,4.346278906E-1,-8.996158242E-1,1.054611802E-1
1.035278321E0,4.074636400E-1,-9.406285286E-1,1.086569726E-1
1.037231446E0,3.829625845E-1,-9.784454107E-1,1.107875034E-1
1.039215088E0,3.552657068E-1,-1.013599157E0,1.086569726E-1
1.041198731E0,3.265035450E-1,-1.038100243E0,1.075917110E-1
1.043182373E0,2.924150825E-1,-1.049285531E0,1.054611802E-1
1.045166016E0,2.530003190E-1,-1.051416039E0,9.960222989E-2
1.047149659E0,2.162486911E-1,-1.049818158E0,1.012001261E-1
1.049133301E0,1.805623323E-1,-1.042361259E0,1.086569726E-1
1.051086426E0,1.613875628E-1,-1.031175971E0,1.139832959E-1
1.053070069E0,1.214401498E-1,-9.997506738E-1,1.288969964E-1
1.055053711E0,8.096009493E-2,-9.544769526E-1,1.512675583E-1
1.057006836E0,3.355583176E-2,-9.038769007E-1,1.768338978E-1
1.059020996E0,-1.544633508E-2,-8.447546959E-1,2.029328793E-1
1.060974121E0,-6.338323653E-2,-7.771103978E-1,2.354234457E-1
1.062957764E0,-1.150485575E-1,-6.977482438E-1,2.636529505E-1
1.064941407E0,-1.667138934E-1,-6.167881489E-1,2.940129936E-1
1.066955567E0,-2.109223604E-1,-5.528722405E-1,3.270362020E-1
1.068969727E0,-2.460760921E-1,-5.060006380E-1,3.573962152E-1
1.070922852E0,-2.801645398E-1,-4.644553065E-1,3.866910040E-1
1.072875977E0,-3.110572100E-1,-4.298342168E-1,4.095941782E-1
1.074890137E0,-3.371562064E-1,-4.037352204E-1,4.277036786E-1
1.076843262E0,-3.643204570E-1,-3.834952116E-1,4.410194755E-1
1.078826905E0,-3.930825889E-1,-3.696467578E-1,4.447479248E-1
1.080810547E0,-4.202468395E-1,-3.637878001E-1,4.415521026E-1
1.082824707E0,-4.474110603E-1,-3.632551730E-1,4.324973822E-1
1.084777832E0,-4.740426838E-1,-3.478088379E-1,4.106594622E-1
1.086761475E0,-5.017395616E-1,-3.382214606E-1,3.824299276E-1
1.088745117E0,-5.299690962E-1,-3.339604139E-1,3.435477912E-1
1.090698242E0,-5.518069863E-1,-3.296993375E-1,2.956108749E-1
1.092651367E0,-5.757754445E-1,-3.217098713E-1,2.444781959E-1
1.094665528E0,-5.917543769E-1,-3.110572100E-1,1.858886480E-1
1.096618653E0,-6.050702333E-1,-2.796319127E-1,1.230380461E-1
1.098602295E0,-6.119944453E-1,-2.375539690E-1,5.858954415E-2
1.100585938E0,-6.157228351E-1,-1.992044598E-1,-4.261057824E-3
1.102569580E0,-6.189186573E-1,-1.672465205E-1,-6.764429063E-2
1.104522705E0,-6.151902080E-1,-1.416801661E-1,-1.278317273E-1
1.106536866E0,-6.103965044E-1,-1.267664731E-1,-1.848233789E-1
1.108520508E0,-5.981460214E-1,-1.161138266E-1,-2.322276533E-1
1.110473633E0,-5.853627920E-1,-1.145159304E-1,-2.695119083E-1
1.112426758E0,-5.640575290E-1,-1.113201380E-1,-2.961435318E-1
1.114440918E0,-5.358279943E-1,-1.001348570E-1,-3.067961633E-1
1.116424561E0,-5.022721887E-1,-9.480853379E-2,-3.004045784E-1
1.118408203E0,-4.633900523E-1,-8.415589482E-2,-2.780340314E-1
1.120361328E0,-4.207794666E-1,-8.042746782E-2,-2.364887148E-1
1.122375489E0,-3.685815036E-1,-7.297061384E-2,-1.752360016E-1
1.124359131E0,-3.078614175E-1,-6.231797114E-2,-1.001348570E-1
1.126342774E0,-2.428802997E-1,-5.432848632E-2,-5.858954508E-3
1.128326416E0,-1.778991669E-1,-4.633900523E-2,1.049285457E-1
1.130310059E0,-1.027980223E-1,-3.834952042E-2,2.247707993E-1
1.132293701E0,-2.769687586E-2,-2.769687586E-2,3.504720032E-1
1.134277344E0,5.912217870E-2,-2.609897964E-2,4.868258536E-1
1.136230469E0,1.454086006E-1,-3.195793182E-2,6.221144199E-1
1.138214112E0,2.370213419E-1,-3.994741663E-2,7.595335841E-1
1.140197754E0,3.259709179E-1,-6.657902896E-2,8.921589851E-1
1.142181397E0,4.159857631E-1,-1.182443574E-1,1.018392801E0
1.144165039E0,5.033374429E-1,-1.896170676E-1,1.133973956E0
1.146148682E0,5.954828262E-1,-2.705771625E-1,1.239967823E0
1.148132325E0,6.823018789E-1,-3.664509654E-1,1.326786876E0
1.150085450E0,7.701861858E-1,-4.697816372E-1,1.399757504E0
1.152069092E0,8.628641963E-1,-5.747101903E-1,1.455683827E0
1.154052735E0,9.592706561E-1,-6.801713705E-1,1.500957608E0
1.156005860E0,1.054079175E0,-7.803062201E-1,1.532915592E0
1.158020020E0,1.151018262E0,-8.671252728E-1,1.555818796E0
1.159973145E0,1.243163586E0,-9.384979606E-1,1.571265101E0
1.161956787E0,1.326786876E0,-9.901633263E-1,1.586711407E0
1.163909912E0,1.400822759E0,-1.031708598E0,1.601625085E0
1.165924073E0,1.466869116E0,-1.060470819E0,1.619734645E0
1.167907715E0,1.521730304E0,-1.086569786E0,1.644768357E0
1.169860840E0,1.571797729E0,-1.105211854E0,1.679389358E0
1.171844483E0,1.614940882E0,-1.126517177E0,1.725728393E0
1.173828125E0,1.657018900E0,-1.174454093E0,1.780056953E0
1.175781250E0,1.686846256E0,-1.214401484E0,1.840244293E0
1.177795410E0,1.710814714E0,-1.246359468E0,1.905225515E0
1.179748535E0,1.728391528E0,-1.267132044E0,1.973935008E0
1.181762696E0,1.732120037E0,-1.283643723E0,2.045840502E0
1.183746338E0,1.726793647E0,-1.296426892E0,2.108690977E0
1.185760498E0,1.706553698E0,-1.305481553E0,2.166215181E0
1.187774659E0,1.661279917E0,-1.314536333E0,2.209358454E0
1.189727784E0,1.601625085E0,-1.332645893E0,2.240783691E0
1.191680909E0,1.517469168E0,-1.369397402E0,2.257827997E0
1.193695069E0,1.412008047E0,-1.412540674E0,2.261023760E0
1.195648194E0,1.287904739E0,-1.469532371E0,2.249305964E0
1.197631836E0,1.151550889E0,-1.530252337E0,2.225337505E0
1.199615479E0,1.021588564E0,-1.589374542E0,2.192846775E0
1.201599121E0,8.687231541E-1,-1.667671561E0,2.147040606E0
1.203552246E0,7.206513882E-1,-1.739044189E0,2.094309807E0
1.205535889E0,5.667206645E-1,-1.791242242E0,2.043709755E0
1.207519532E0,4.143878818E-1,-1.823200107E0,2.000566721E0
1.209472657E0,2.652508616E-1,-1.824797988E0,1.964347601E0
1.211425782E0,1.193096191E-1,-1.810949564E0,1.941977143E0
1.213409424E0,-8.255799860E-2,-1.829591751E0,1.945172906E0
1.215362549E0,-2.817624509E-1,-1.838113785E0,1.962749720E0
1.217346192E0,-4.799016416E-1,-1.816808581E0,1.984055042E0
1.219299317E0,-6.641923785E-1,-1.778458953E0,2.011751890E0
1.221313477E0,-8.586031795E-1,-1.739576817E0,2.051166773E0
1.223266602E0,-1.072721362E0,-1.699629426E0,2.097505808E0
1.225250244E0,-1.283643723E0,-1.645833611E0,2.160356283E0
1.227233887E0,-1.521197677E0,-1.596298814E0,2.253034353E0
1.229217530E0,-1.644235730E0,-1.581385136E0,2.306830168E0
1.231170655E0,-1.848233819E0,-1.549959779E0,2.408562899E0
1.233154297E0,-2.004827738E0,-1.530784965E0,2.482598782E0
1.235107422E0,-2.085787773E0,-1.474326015E0,2.524676800E0
1.237091065E0,-2.175270081E0,-1.433845997E0,2.556102037E0
1.239044190E0,-2.199771166E0,-1.383245945E0,2.596049547E0
1.241058350E0,-2.201369047E0,-1.353418469E0,2.646116972E0
1.243041992E0,-2.180063725E0,-1.345961690E0,2.700978041E0
1.245025635E0,-2.169943810E0,-1.365669012E0,2.764361382E0
1.247009278E0,-2.151301622E0,-1.366734266E0,2.848517179E0
1.248992920E0,-2.094309807E0,-1.315068960E0,2.948652029E0
1.250976563E0,-2.001631975E0,-1.236239433E0,3.050917387E0
1.252960205E0,-1.899366498E0,-1.176051974E0,3.155845881E0
1.254913330E0,-1.781654835E0,-1.153681397E0,3.257578611E0
1.256896973E0,-1.624528289E0,-1.124386668E0,3.333212376E0
1.258850098E0,-1.487109184E0,-1.070058107E0,3.408313513E0
1.260864258E0,-1.358744860E0,-1.016794920E0,3.491404295E0
1.262847901E0,-1.241565704E0,-9.582054019E-1,3.576092720E0
1.264831543E0,-1.081243396E0,-8.410263062E-1,3.643737078E0
1.266815186E0,-9.251821637E-1,-7.073355913E-1,3.691673994E0
1.268768311E0,-7.669904232E-1,-5.832322836E-1,3.710316181E0
1.270751953E0,-6.673882008E-1,-5.097290277E-1,3.717772961E0
1.272735596E0,-5.789712071E-1,-4.655205607E-1,3.728958130E0
1.274688721E0,-5.075985193E-1,-4.298342168E-1,3.738013029E0
1.276672364E0,-4.894890189E-1,-4.729774296E-1,3.737480402E0
1.278686524E0,-4.964132309E-1,-5.443501472E-1,3.753459215E0
1.280670166E0,-5.592638254E-1,-6.279733777E-1,3.791808844E0
1.282623291E0,-6.098638773E-1,-7.195861340E-1,3.826962471E0
1.284606934E0,-6.705839634E-1,-8.282431364E-1,3.844539404E0
1.286590576E0,-7.408914566E-1,-9.193232059E-1,3.852528811E0
1.288574219E0,-8.293083906E-1,-1.045557022E0,3.856790066E0
1.290527344E0,-8.815063238E-1,-1.161138296E0,3.828027725E0
1.292510987E0,-9.438242912E-1,-1.280980468E0,3.779558182E0
1.294494629E0,-1.039698124E0,-1.398692250E0,3.718305588E0
1.296478272E0,-1.152083516E0,-1.583515644E0,3.668238163E0
1.298431397E0,-1.210673094E0,-1.696966290E0,3.586745501E0
1.300445557E0,-1.259675264E0,-1.783785343E0,3.493002176E0
1.302429200E0,-1.316134214E0,-1.848233819E0,3.397128344E0
1.304412842E0,-1.399757504E0,-1.920139194E0,3.312439919E0
1.306396485E0,-1.459944963E0,-1.984587669E0,3.222424984E0
1.308349610E0,-1.519599795E0,-2.024002552E0,3.130279541E0
1.310333252E0,-1.582450390E0,-2.054362535E0,3.044525862E0
1.312316895E0,-1.634115696E0,-2.111354113E0,2.963565826E0
1.314270020E0,-1.680987358E0,-2.175270081E0,2.891660452E0
1.316284180E0,-1.736381054E0,-2.216282606E0,2.808569670E0
1.318267823E0,-1.802960038E0,-2.251969099E0,2.747317076E0
1.320251465E0,-1.829591751E0,-2.238120556E0,2.677542210E0
1.322204590E0,-1.895638108E0,-2.191248894E0,2.614158869E0
1.324218750E0,-1.957956076E0,-2.163552046E0,2.547580004E0
1.326232910E0,-2.019208670E0,-2.128931046E0,2.498577833E0
1.328186035E0,-2.078863621E0,-2.086320400E0,2.451706171E0
1.330139160E0,-2.105495214E0,-2.008556128E0,2.410693407E0
1.332153321E0,-2.163019419E0,-1.947836041E0,2.368083000E0
1.334136963E0,-2.207227945E0,-1.856755972E0,2.330798626E0
1.336120606E0,-2.274339676E0,-1.817341208E0,2.312689066E0
1.338073731E0,-2.341451168E0,-1.783785343E0,2.290851116E0
1.340087891E0,-2.213619471E0,-1.754490614E0,2.269546032E0
1.342071534E0,-2.252501726E0,-1.696433663E0,2.325472355E0
1.344055176E0,-2.332396507E0,-1.615473509E0,2.405367136E0
1.346038819E0,-2.377670288E0,-1.518534541E0,2.462891340E0
1.347991944E0,-2.397377729E0,-1.410410166E0,2.523611546E0
1.349975586E0,-2.273807049E0,-1.331580520E0,2.556634665E0
1.351959229E0,-2.123604774E0,-1.264468908E0,2.582733631E0
1.353912354E0,-2.015480280E0,-1.216531992E0,2.642388582E0
1.355895996E0,-1.923867583E0,-1.184041500E0,2.706836939E0
1.357849121E0,-1.927596092E0,-1.138235092E0,2.801112890E0
1.359863282E0,-1.971804500E0,-1.070590734E0,2.912432909E0
1.361846924E0,-2.039981365E0,-9.837717414E-1,3.014698505E0
1.363830567E0,-2.105495214E0,-9.012137055E-1,3.110572100E0
1.365814209E0,-2.155030012E0,-8.367652297E-1,3.170759678E0
1.367797852E0,-2.203499556E0,-7.850999236E-1,3.228283882E0
1.369781494E0,-2.257827997E0,-7.275756001E-1,3.289536715E0
1.371795655E0,-2.275937557E0,-6.673882008E-1,3.332679749E0
1.373748780E0,-2.302569151E0,-6.125270724E-1,3.387541056E0
1.375762940E0,-2.352103949E0,-5.784385800E-1,3.442934752E0
1.377746582E0,-2.469815731E0,-5.363606811E-1,3.504187346E0
1.379730225E0,-2.622681141E0,-4.916195571E-1,3.554787397E0
1.381683350E0,-2.689792633E0,-4.319647253E-1,3.580353737E0
1.383697510E0,-2.752643347E0,-3.776362538E-1,3.609648705E0
1.385681153E0,-2.801645517E0,-3.030677438E-1,3.636812925E0
1.387634278E0,-2.834136009E0,-2.008023560E-1,3.630953789E0
1.389587403E0,-2.899117231E0,-7.829693705E-2,3.605387449E0
1.391601563E0,-3.080744743E0,4.101268202E-2,3.596332788E0
1.393585205E0,-3.209109068E0,1.283643693E-1,3.559581280E0
1.395568848E0,-3.312972546E0,1.944107562E-1,3.473827362E0
1.397521973E0,-3.364105225E0,2.157160491E-1,3.360909462E0
1.399536133E0,-3.369431496E0,2.114549875E-1,3.226153374E0
1.401519776E0,-3.367300987E0,1.928128600E-1,3.104713202E0
1.403503418E0,-3.448261023E0,1.752360016E-1,3.008839369E0
1.405487061E0,-3.512709618E0,1.699096859E-1,2.907639265E0
1.407470703E0,-3.587278128E0,1.608549356E-1,2.814428806E0
1.409423828E0,-3.527090549E0,1.443433315E-1,2.658367395E0
1.411407471E0,-3.431749344E0,1.113201380E-1,2.510295630E0
1.413360596E0,-3.366235733E0,7.030745596E-2,2.384061813E0
1.415344239E0,-3.284210205E0,2.343581803E-2,2.267415285E0
1.417297364E0,-3.165433407E0,-6.231797114E-2,2.147040606E0
1.419311524E0,-3.044525862E0,-1.613875628E-1,2.020806789E0
1.421264649E0,-2.954510927E0,-2.764361203E-1,1.899899125E0
1.423248291E0,-2.889529943E0,-3.984089196E-1,1.798166394E0
1.425231934E0,-2.786199093E0,-5.305017233E-1,1.691107273E0
1.427215576E0,-2.693521261E0,-6.072007418E-1,1.632517815E0
1.429168701E0,-2.630137920E0,-7.147924304E-1,1.531317711E0
1.431152344E0,-2.624811649E0,-7.984157205E-1,1.463673353E0
1.433135987E0,-2.561428308E0,-8.607336879E-1,1.390170097E0
1.435119629E0,-2.503371477E0,-8.932242393E-1,1.333178520E0
1.437103272E0,-2.523611546E0,-8.964200616E-1,1.316134214E0
1.439086914E0,-2.568352699E0,-8.926916122E-1,1.309210062E0
1.441040039E0,-2.590723038E0,-8.836368918E-1,1.308677435E0
1.443054200E0,-2.665291786E0,-8.431568146E-1,1.333178520E0
1.445068360E0,-2.730805397E0,-7.952198982E-1,1.363005877E0
1.447021485E0,-2.760100126E0,-7.403587699E-1,1.383245945E0
1.448974610E0,-2.823483467E0,-6.801713705E-1,1.427454352E0
1.450988770E0,-2.859169722E0,-5.896238685E-1,1.495631337E0
1.452941895E0,-2.889529943E0,-4.862932265E-1,1.570199847E0
1.454925537E0,-2.991262674E0,-3.744404614E-1,1.670334697E0
1.456909180E0,-3.095125914E0,-2.711097896E-1,1.763012648E0
1.458892823E0,-3.178216457E0,-1.688444167E-1,1.834918022E0
1.460845948E0,-3.225088120E0,-3.994741663E-2,1.868473887E0
1.462829590E0,-3.260241985E0,9.906959534E-2,1.909486532E0
1.464813233E0,-3.331081867E0,2.263686955E-1,1.974467635E0
1.466766358E0,-3.339071512E0,3.755057156E-1,2.013882399E0
1.468719483E0,-3.336941004E0,5.470132828E-1,2.035187721E0
1.470733643E0,-3.387541056E0,7.046724558E-1,2.060221434E0
1.472717285E0,-3.455717802E0,8.383631110E-1,2.080994129E0
1.474700928E0,-3.467435837E0,9.651296139E-1,2.086853027E0
1.476654053E0,-3.494067430E0,1.102548718E0,2.083124638E0
1.478668213E0,-3.503654718E0,1.246359468E0,2.052232027E0
1.480621338E0,-3.479686260E0,1.381647944E0,2.030926704E0
1.482604981E0,-3.513242245E0,1.509479761E0,2.013882399E0
1.484588623E0,-3.503654718E0,1.641039848E0,1.988848686E0
1.486541748E0,-3.498861074E0,1.768339038E0,1.948368669E0
1.488494873E0,-3.482882023E0,1.890311718E0,1.902029634E0
1.490509034E0,-3.485545397E0,1.996838212E0,1.855690718E0
1.492462159E0,-3.459979057E0,2.111886740E0,1.789644241E0
1.494445801E0,-3.430684090E0,2.216815233E0,1.712945223E0
1.496398926E0,-3.397128344E0,2.315352201E0,1.636778831E0
1.498382569E0,-3.352919817E0,2.435727119E0,1.558481932E0
1.500335694E0,-3.285808325E0,2.576874733E0,1.463673353E0
1.502349854E0,-3.216033459E0,2.744121313E0,1.369930148E0
1.504333496E0,-3.155313253E0,2.900715113E0,1.270860553E0
1.506286621E0,-3.090864897E0,3.019492149E0,1.168062449E0
1.508239746E0,-3.030144691E0,3.118029118E0,1.058340192E0
1.510253907E0,-2.982740402E0,3.212305069E0,9.390306473E-1
1.512237549E0,-2.935336113E0,3.294330359E0,8.165252209E-1
1.514221192E0,-2.887931824E0,3.376888275E0,6.849650741E-1
1.516174317E0,-2.820820332E0,3.454652548E0,5.480785370E-1
1.518188477E0,-2.745719194E0,3.516970634E0,4.000068009E-1
1.520141602E0,-2.694586515E0,3.556385279E0,2.727077007E-1
1.522125244E0,-2.621615887E0,3.586212873E0,1.347559541E-1
1.524108887E0,-2.556102037E0,3.584614992E0,6.924218964E-3
1.526092530E0,-2.514024019E0,3.569168568E0,-1.081243455E-1
1.528076172E0,-2.454369307E0,3.537743330E0,-2.354234457E-1
1.530059815E0,-2.431998730E0,3.502056837E0,-3.787015080E-1
1.532012940E0,-2.376605034E0,3.467968464E0,-5.395564437E-1
1.533996582E0,-2.315884829E0,3.437608480E0,-7.052050829E-1
1.535949707E0,-2.279665947E0,3.377953529E0,-8.538094759E-1
1.537963867E0,-2.239185810E0,3.303917646E0,-1.012001276E0
1.539947510E0,-2.200836420E0,3.212837696E0,-1.152083516E0
1.541931153E0,-2.175802708E0,3.118561745E0,-1.277252078E0
1.543914795E0,-2.128398418E0,3.036536217E0,-1.398692250E0
1.545867920E0,-2.122539520E0,2.974218369E0,-1.516403913E0
1.547851563E0,-2.099103689E0,2.920955181E0,-1.617604017E0
1.549835205E0,-2.035187721E0,2.879942417E0,-1.720402122E0
1.551788330E0,-1.998436093E0,2.862365484E0,-1.823732734E0
1.553802491E0,-1.955292940E0,2.860234976E0,-1.917476058E0
1.555755616E0,-1.931857109E0,2.871953011E0,-2.000566721E0
1.557739258E0,-1.913747549E0,2.892725706E0,-2.065547705E0
1.559722901E0,-1.888713837E0,2.920422554E0,-2.137985706E0
1.561737061E0,-1.838113785E0,2.958771944E0,-2.207227945E0
1.563720703E0,-1.855690718E0,3.000849962E0,-2.258360624E0
1.565704346E0,-1.817341208E0,3.056776285E0,-2.322809219E0
1.567687989E0,-1.796035886E0,3.116963863E0,-2.379800797E0
1.569671631E0,-1.757153749E0,3.183542728E0,-2.426672459E0
1.571624756E0,-1.724663138E0,3.242132425E0,-2.467152596E0
1.573608399E0,-1.662345171E0,3.284742832E0,-2.503371477E0
1.575561524E0,-1.603222966E0,3.315103054E0,-2.531600952E0
1.577545166E0,-1.551025033E0,3.343865156E0,-2.558765173E0
1.579528809E0,-1.496163964E0,3.351854563E0,-2.579005241E0
1.581512451E0,-1.458347082E0,3.353985071E0,-2.593919039E0
1.583496094E0,-1.400822759E0,3.350789309E0,-2.612560987E0
1.585449219E0,-1.343831062E0,3.352387190E0,-2.634398937E0
1.587432862E0,-1.283111095E0,3.350789309E0,-2.650910616E0
1.589416504E0,-1.210140467E0,3.358778715E0,-2.669020176E0
1.591369629E0,-1.164866686E0,3.364105225E0,-2.679672718E0
1.593383789E0,-1.031708598E0,3.396595716E0,-2.707369566E0
1.595336914E0,-9.816411734E-1,3.401921988E0,-2.715359211E0
1.597320557E0,-8.820389509E-1,3.413640022E0,-2.734001160E0
1.599273682E0,-7.787083387E-1,3.421096802E0,-2.750512838E0
1.601257325E0,-6.737797856E-1,3.416835785E0,-2.778209686E0
1.603240967E0,-5.608617067E-1,3.404585123E0,-2.804841280E0
1.605194092E0,-4.511395097E-1,3.385943174E0,-2.838929892E0
1.607147217E0,-3.403519988E-1,3.357713461E0,-2.873550892E0
1.609130860E0,-2.338255495E-1,3.325755596E0,-2.910302401E0
1.611083985E0,-1.251685768E-1,3.292732477E0,-2.948652029E0
1.613067627E0,-2.503371425E-2,3.250121832E0,-2.985936165E0
1.615051270E0,7.297061384E-2,3.202184916E0,-3.026416302E0
1.617034912E0,1.656486243E-1,3.156911135E0,-3.065831184E0
1.618988037E0,2.556634545E-1,3.112170219E0,-3.106311083E0
1.621002198E0,3.350256681E-1,3.063700676E0,-3.146791220E0
1.622985840E0,4.138552547E-1,3.020024776E0,-3.195793390E0
1.624938965E0,4.862932265E-1,2.982740402E0,-3.241599798E0
1.626892090E0,5.448827744E-1,2.940129995E0,-3.289004087E0
1.628906250E0,5.885586143E-1,2.900182486E0,-3.344397783E0
1.630889893E0,6.215817928E-1,2.849049807E0,-3.396595716E0
1.632873535E0,6.396912932E-1,2.804308653E0,-3.453054667E0
1.634826660E0,6.530070901E-1,2.763295889E0,-3.513774872E0
1.636840821E0,6.620618701E-1,2.724946499E0,-3.572364330E0
1.638824463E0,6.647250056E-1,2.687662125E0,-3.630421162E0
1.640808106E0,6.727145314E-1,2.644519091E0,-3.689543486E0
1.642791748E0,6.796387434E-1,2.602441072E0,-3.747067690E0
1.644775391E0,7.115966678E-1,2.571015835E0,-3.796602488E0
1.646728516E0,7.270429730E-1,2.518817902E0,-3.850398302E0
1.648712159E0,7.451524734E-1,2.463956594E0,-3.907922745E0
1.650665284E0,7.701861858E-1,2.419748306E0,-3.950533152E0
1.652648926E0,7.989483476E-1,2.386192322E0,-3.979828119E0
1.654602051E0,8.197209835E-1,2.355832338E0,-3.985154390E0
1.656585694E0,8.404936790E-1,2.336124897E0,-3.976099491E0
1.658538819E0,8.580704927E-1,2.321211338E0,-3.946272135E0
1.660522461E0,8.740494847E-1,2.306297541E0,-3.901530981E0
1.662506104E0,8.990831971E-1,2.310558558E0,-3.841343641E0
1.664459229E0,9.123989940E-1,2.318015575E0,-3.763579369E0
1.666412354E0,9.134642482E-1,2.324407101E0,-3.668238163E0
1.668426514E0,9.006810784E-1,2.320146084E0,-3.560113907E0
1.670379639E0,8.948221207E-1,2.319080830E0,-3.441869497E0
1.672363282E0,8.836368918E-1,2.312689066E0,-3.317766190E0
1.674377442E0,8.740494847E-1,2.302569151E0,-3.193662882E0
1.676361084E0,8.575378656E-1,2.283394337E0,-3.075951099E0
1.678314209E0,8.346347213E-1,2.262089014E0,-2.953445673E0
1.680297852E0,8.314388990E-1,2.251969099E0,-2.827211857E0
1.682281494E0,8.271778226E-1,2.231729031E0,-2.705771685E0
1.684265137E0,8.452873230E-1,2.208293200E0,-2.582733631E0
1.686218262E0,8.692557812E-1,2.189118385E0,-2.468750477E0
1.688201905E0,8.847021461E-1,2.166747808E0,-2.356364965E0
1.690185547E0,9.315737486E-1,2.161954165E0,-2.251969099E0
1.692169190E0,9.981527925E-1,2.163552046E0,-2.148638487E0
1.694122315E0,1.072188616E0,2.161954165E0,-2.061819315E0
1.696136475E0,1.143028736E0,2.146507978E0,-1.989381313E0
1.698120117E0,1.190433025E0,2.128931046E0,-1.915345550E0
1.700103760E0,1.254881501E0,2.122006893E0,-1.843972802E0
1.702087403E0,1.348624825E0,2.118810892E0,-1.786448479E0
1.704071045E0,1.440237522E0,2.100701571E0,-1.735315800E0
1.706054688E0,1.505751252E0,2.074069977E0,-1.692705274E0
1.708038330E0,1.559547186E0,2.028796196E0,-1.655953646E0
1.709991455E0,1.605886221E0,2.000034094E0,-1.624528289E0
1.711975098E0,1.657018900E0,2.001099348E0,-1.596831441E0
1.713958741E0,1.724663138E0,1.997903466E0,-1.579254508E0
1.715942383E0,1.789111614E0,1.982989788E0,-1.572330356E0
1.717895508E0,1.817873836E0,1.939313889E0,-1.555286050E0
1.719909668E0,1.809884310E0,1.897235990E0,-1.545166135E0
1.721923828E0,1.820004344E0,1.878593922E0,-1.537709236E0
1.723876953E0,1.833852768E0,1.859419107E0,-1.543035507E0
1.725830078E0,1.847701192E0,1.827461123E0,-1.556351423E0
1.727844239E0,1.848766446E0,1.796568513E0,-1.573395610E0
1.729827881E0,1.841842294E0,1.769936919E0,-1.592037678E0
1.731811524E0,1.818406463E0,1.733717918E0,-1.603222966E0
1.733764649E0,1.792840123E0,1.692172647E0,-1.615473509E0
1.735778809E0,1.757153749E0,1.657551527E0,-1.626658797E0
1.737762451E0,1.728391528E0,1.622930408E0,-1.627191424E0
1.739746094E0,1.694303155E0,1.578189254E0,-1.635180950E0
1.741729737E0,1.649562001E0,1.523860812E0,-1.643170476E0
1.743682862E0,1.604820848E0,1.463140726E0,-1.651159883E0
1.745666504E0,1.559014559E0,1.405083776E0,-1.656486273E0
1.747650147E0,1.521197677E0,1.338504791E0,-1.657018900E0
1.749603272E0,1.450357556E0,1.261273146E0,-1.642105103E0
1.751617432E0,1.455151200E0,1.229315162E0,-1.633050442E0
1.753570557E0,1.429584861E0,1.178182483E0,-1.621865153E0
1.755554200E0,1.384311199E0,1.122788787E0,-1.614940882E0
1.757537842E0,1.349690080E0,1.098287702E0,-1.612277746E0
1.759552002E0,1.303351045E0,1.023719192E0,-1.586711407E0
1.761566162E0,1.277784705E0,9.885654449E-1,-1.565938711E0
1.763519287E0,1.240500450E0,9.454222322E-1,-1.538774490E0
1.765472412E0,1.268197298E0,9.486179948E-1,-1.524393439E0
1.767486573E0,1.243696213E0,9.209211469E-1,-1.490304947E0
1.769439698E0,1.225054145E0,8.841695189E-1,-1.458879709E0
1.771453858E0,1.216531992E0,8.522115946E-1,-1.424258590E0
1.773437500E0,1.218662500E0,8.250473142E-1,-1.389104843E0
1.775421143E0,1.250087857E0,8.042746782E-1,-1.353418469E0
1.777374268E0,1.271393180E0,7.829693556E-1,-1.316666842E0
1.779388428E0,1.284708977E0,7.542072535E-1,-1.275121570E0
1.781372071E0,1.296426892E0,7.286409140E-1,-1.233576298E0
1.783325196E0,1.300155282E0,6.902913451E-1,-1.186172009E0
1.785278321E0,1.325188994E0,6.641923785E-1,-1.141963482E0
1.787292481E0,1.342233181E0,6.583334208E-1,-1.094026566E0
1.789276123E0,1.364603758E0,6.412891746E-1,-1.037567616E0
1.791259766E0,1.378984809E0,6.253102422E-1,-9.832391143E-1
1.793212891E0,1.376321673E0,6.141249537E-1,-9.241169095E-1
1.795227051E0,1.360342741E0,6.018744111E-1,-8.596684337E-1
1.797180176E0,1.335309029E0,6.029396653E-1,-7.946872711E-1
1.799163819E0,1.303351045E0,6.146575809E-1,-7.371630073E-1
1.801147461E0,1.275121570E0,6.269081235E-1,-6.759102941E-1
1.803100586E0,1.249022603E0,6.418218613E-1,-6.178534031E-1
1.805053711E0,1.215466738E0,6.609966159E-1,-5.661880374E-1
1.807067871E0,1.177649856E0,6.748450398E-1,-5.107942820E-1
1.809020996E0,1.131310821E0,6.807039976E-1,-4.564658105E-1
1.811035157E0,1.098287702E0,6.844323874E-1,-4.143878818E-1
1.813018799E0,1.053546548E0,6.897587180E-1,-3.701793849E-1
1.815002442E0,9.981527925E-1,6.929545403E-1,-3.302319944E-1
1.816955567E0,9.491506219E-1,6.913566589E-1,-2.902845740E-1
1.818969727E0,8.942894936E-1,6.801713705E-1,-2.535329461E-1
1.820953369E0,8.751147389E-1,6.881608367E-1,-2.402171344E-1
1.822906494E0,8.319715261E-1,6.854977012E-1,-2.114549875E-1
1.824859619E0,7.941546440E-1,6.844323874E-1,-1.880191714E-1
1.826873780E0,7.728493810E-1,6.769755483E-1,-1.699096859E-1
1.828826905E0,7.616640925E-1,6.721818447E-1,-1.555286050E-1
1.830810547E0,7.552725077E-1,6.530070901E-1,-1.454086006E-1
1.832794190E0,7.568703890E-1,6.253102422E-1,-1.411475390E-1
1.834777832E0,7.542072535E-1,5.864281058E-1,-1.352885813E-1
1.836730957E0,7.472830415E-1,5.384911895E-1,-1.320927888E-1
1.838745117E0,7.366303802E-1,4.894890189E-1,-1.347559541E-1
1.840728760E0,7.350324988E-1,4.426173866E-1,-1.400822699E-1
1.842681885E0,7.259777188E-1,3.866910040E-1,-1.475391239E-1
1.844635010E0,7.286409140E-1,3.249056637E-1,-1.672465205E-1
1.846649170E0,7.344998717E-1,2.769687474E-1,-1.933455020E-1
1.848602295E0,7.318366766E-1,2.407497615E-1,-2.061286718E-1
1.850585938E0,7.201187611E-1,2.098570913E-1,-2.146507949E-1
1.852569580E0,7.068029642E-1,1.715075821E-1,-2.205097377E-1
1.854583741E0,6.870955825E-1,1.262338310E-1,-2.242381722E-1
1.856536866E0,6.748450398E-1,7.190535218E-2,-2.253034264E-1
1.858520508E0,6.428871155E-1,1.704423130E-2,-2.242381722E-1
1.860504151E0,6.077333689E-1,-3.941478580E-2,-2.316950262E-1
1.862487793E0,5.741775632E-1,-9.108011425E-2,-2.332929224E-1
1.864440918E0,5.283711553E-1,-1.400822699E-1,-2.348908186E-1
1.866424561E0,4.825648069E-1,-1.885518134E-1,-2.354234457E-1
1.868408203E0,4.335626364E-1,-2.295644879E-1,-2.370213419E-1
1.870391846E0,3.792341352E-1,-2.748382390E-1,-2.348908186E-1
1.872344971E0,3.227751255E-1,-3.153182864E-1,-2.380866110E-1
1.874359131E0,2.732403278E-1,-3.563309610E-1,-2.466087192E-1
1.876342774E0,2.359560728E-1,-3.872236311E-1,-2.540655732E-1
1.878326416E0,2.055960447E-1,-4.117247164E-1,-2.631203234E-1
1.880310059E0,1.890844405E-1,-4.303668439E-1,-2.748382390E-1
1.882293701E0,1.842907518E-1,-4.511395097E-1,-2.769687474E-1
1.884246826E0,1.810949594E-1,-4.740426838E-1,-2.764361203E-1
1.886230469E0,1.826928556E-1,-4.937500656E-1,-2.748382390E-1
1.888183594E0,1.880191714E-1,-5.081311464E-1,-2.695119083E-1
1.890167237E0,2.029328793E-1,-5.230448246E-1,-2.684466541E-1
1.892120362E0,2.242381722E-1,-5.320996046E-1,-2.620550692E-1
1.894104004E0,2.482066154E-1,-5.342301130E-1,-2.556634545E-1
1.896087647E0,2.727077007E-1,-5.395564437E-1,-2.466087192E-1
1.898101807E0,2.934803665E-1,-5.411543250E-1,-2.364887148E-1
1.900115967E0,3.110572100E-1,-5.390238166E-1,-2.226402760E-1
1.902069092E0,3.312972486E-1,-5.326322317E-1,-2.077265680E-1
1.904022217E0,3.510046303E-1,-5.161206126E-1,-1.938781291E-1
1.906005860E0,3.648530841E-1,-4.990763962E-1,-1.763012707E-1
1.907958985E0,3.771036267E-1,-4.793690145E-1,-1.587243974E-1
1.909942627E0,3.840278387E-1,-4.527373910E-1,-1.406149119E-1
1.911926270E0,3.866910040E-1,-4.261057973E-1,-1.193096191E-1
1.913909912E0,3.888215125E-1,-3.925499618E-1,-1.022653878E-1
1.915863037E0,3.834952116E-1,-3.547330499E-1,-8.522115648E-2
1.917877198E0,3.771036267E-1,-3.078614175E-1,-7.297061384E-2
1.919860840E0,3.685815036E-1,-2.647182047E-1,-6.285060197E-2
1.921813965E0,3.542004228E-1,-2.215750068E-1,-5.699164793E-2
1.923767090E0,3.419498801E-1,-1.816275865E-1,-5.645901710E-2
1.925781250E0,3.291667104E-1,-1.400822699E-1,-5.912217870E-2
1.927734375E0,3.126551211E-1,-9.267801046E-2,-5.858954415E-2
1.929718018E0,2.966761589E-1,-3.994741663E-2,-5.539375171E-2
1.931701660E0,2.753708661E-1,6.391586736E-3,-4.900216311E-2
1.933715821E0,2.545982003E-1,4.420847446E-2,-4.367584363E-2
1.935668946E0,2.354234457E-1,6.924218684E-2,-4.154531285E-2
1.937652588E0,2.194444835E-1,8.788431436E-2,-4.154531285E-2
1.939636231E0,2.018676102E-1,9.853696078E-2,-4.154531285E-2
1.941619873E0,1.848233789E-1,1.091896072E-1,-4.420847446E-2
1.943572998E0,1.816275865E-1,1.107875034E-1,-4.474110901E-2
1.945556641E0,1.725728363E-1,1.097222418E-1,-5.326322466E-2
1.947509766E0,1.640507281E-1,1.065264493E-1,-6.391586363E-2
1.949493409E0,1.683117896E-1,9.906959534E-2,-7.510114461E-2
1.951446534E0,1.683117896E-1,8.894958347E-2,-8.841694891E-2
1.953460694E0,1.725728363E-1,7.563377917E-2,-1.038632840E-1
1.955444336E0,1.699096859E-1,6.178534031E-2,-1.198422536E-1
1.957427979E0,1.747033745E-1,4.420847446E-2,-1.390170157E-1
1.959411621E0,1.789644361E-1,2.716424316E-2,-1.592570394E-1
1.961395264E0,1.778991669E-1,7.989482954E-3,-1.789644361E-1
1.963348389E0,1.773665249E-1,-1.171790902E-2,-1.986718178E-1
1.965332032E0,1.747033745E-1,-3.249056637E-2,-2.157160491E-1
1.967285157E0,1.720402092E-1,-5.166532472E-2,-2.327602804E-1
1.969268799E0,1.661812514E-1,-7.243798673E-2,-2.428802997E-1
1.971221924E0,1.635181010E-1,-8.681905270E-2,-2.524676621E-1
1.973205567E0,1.549959779E-1,-1.033306494E-1,-2.572613657E-1
1.975189209E0,1.518001854E-1,-1.150485575E-1,-2.620550692E-1
1.977172852E0,1.480717659E-1,-1.278317273E-1,-2.657834888E-1
1.979156494E0,1.379517466E-1,-1.390170157E-1,-2.663161159E-1
1.981109619E0,1.315601617E-1,-1.443433315E-1,-2.732403278E-1
1.983093262E0,1.278317273E-1,-1.502022892E-1,-2.732403278E-1
1.985076905E0,1.235706806E-1,-1.613875628E-1,-2.743056118E-1
1.987030030E0,1.161138266E-1,-1.736381054E-1,-2.775014043E-1
1.989013672E0,1.081243455E-1,-1.842907518E-1,-2.790992856E-1
1.990966797E0,1.027980223E-1,-1.992044598E-1,-2.828277051E-1
1.992980957E0,9.960222989E-2,-2.082591951E-1,-2.844256163E-1
1.994964600E0,9.906959534E-2,-2.162486911E-1,-2.796319127E-1
1.996948242E0,9.906959534E-2,-2.242381722E-1,-2.753708661E-1
1.998931885E0,1.043959185E-1,-2.284992188E-1,-2.636529505E-1
2.000915528E0,1.038632840E-1,-2.354234457E-1,-2.476739883E-1
2.002868653E0,1.102548689E-1,-2.370213419E-1,-2.306297570E-1
2.004882813E0,1.161138266E-1,-2.370213419E-1,-2.109223604E-1
2.006835938E0,1.187769845E-1,-2.338255495E-1,-1.880191714E-1
2.008819580E0,1.272991002E-1,-2.237055302E-1,-1.619201899E-1
2.010803223E0,1.304948926E-1,-2.114549875E-1,-1.368864775E-1
2.012786866E0,1.310275346E-1,-1.954760253E-1,-1.113201380E-1
2.014739991E0,1.352885813E-1,-1.778991669E-1,-8.468852192E-2
2.016754151E0,1.368864775E-1,-1.629854590E-1,-6.125270575E-2
2.018737793E0,1.411475390E-1,-1.464738697E-1,-3.621899337E-2
2.020690918E0,1.411475390E-1,-1.262338310E-1,-1.384843793E-2
2.022644043E0,1.438107044E-1,-1.091896072E-1,4.793690052E-3
2.024658203E0,1.416801661E-1,-8.628641814E-2,2.024002373E-2
2.026641846E0,1.363538504E-1,-6.444849819E-2,3.462109342E-2
2.028625489E0,1.315601617E-1,-4.367584363E-2,4.846953228E-2
2.030578614E0,1.251685768E-1,-2.130528912E-2,5.912217870E-2
2.032592774E0,1.203748807E-1,-5.326322280E-4,6.924218684E-2
2.034576416E0,1.107875034E-1,1.491370238E-2,7.723167539E-2
2.036560059E0,1.043959185E-1,3.408846259E-2,7.776430249E-2
2.038543701E0,9.374327213E-2,4.527373984E-2,7.936219871E-2
2.040527344E0,9.001484513E-2,5.219795927E-2,7.829693705E-2
2.042480469E0,8.042746782E-2,5.592638254E-2,7.669904083E-2
2.044494629E0,7.403588295E-2,5.326322466E-2,7.190535218E-2
2.046478272E0,6.924218684E-2,5.432848632E-2,6.657902896E-2
2.048461914E0,6.072007492E-2,5.060006306E-2,6.072007492E-2
2.050445557E0,5.432848632E-2,4.420847446E-2,5.113269389E-2
2.052429200E0,4.740426689E-2,3.941478580E-2,4.261057824E-2
2.054412842E0,3.834952042E-2,3.462109342E-2,3.408846259E-2
2.056396485E0,3.195793182E-2,2.822950855E-2,2.556634694E-2
2.058380127E0,2.343581803E-2,1.597896591E-2,1.491370238E-2
2.060333252E0,1.331580617E-2,-5.326322280E-4,4.793690052E-3
2.062316895E0,4.793690052E-3,-1.491370238E-2,-4.261057824E-3
2.064300537E0,-1.597896684E-3,-3.355583176E-2,-1.384843793E-2
2.066253662E0,-9.054748341E-3,-4.953479767E-2,-2.077265643E-2
2.068237305E0,-1.970739290E-2,-6.764429063E-2,-2.769687586E-2
2.070220948E0,-2.609897964E-2,-8.735168725E-2,-2.609897964E-2
2.072174073E0,-3.462109342E-2,-1.017327532E-1,-2.876213938E-2
2.074127198E0,-4.261057824E-2,-1.246359423E-1,-2.396845073E-2
2.076110840E0,-5.113269389E-2,-1.486043930E-1,-2.237055451E-2
2.078094483E0,-5.379585549E-2,-1.699096859E-1,-1.864212751E-2
2.080078125E0,-5.699164793E-2,-1.928128600E-1,-1.384843793E-2
2.082031250E0,-5.645901710E-2,-2.151834220E-1,-9.587380104E-3
2.084014893E0,-6.072007492E-2,-2.364887148E-1,-5.326322280E-4
2.085998535E0,-6.018744037E-2,-2.519350350E-1,5.858954508E-3
2.087982178E0,-5.699164793E-2,-2.695119083E-1,1.012001187E-2
2.089935303E0,-5.539375171E-2,-2.806971967E-1,1.704423130E-2
2.091949463E0,-5.326322466E-2,-2.876214087E-1,2.769687586E-2
2.093933106E0,-5.006742850E-2,-2.934803665E-1,3.621899337E-2
2.095916748E0,-4.846953228E-2,-2.977414131E-1,4.793690145E-2
2.097900391E0,-4.367584363E-2,-3.004045784E-1,6.178534031E-2
2.099853516E0,-4.474110901E-2,-3.025351167E-1,7.829693705E-2
2.101837159E0,-4.367584363E-2,-3.025351167E-1,9.747169912E-2
2.103820801E0,-3.781688958E-2,-3.004045784E-1,1.225054115E-1
2.105773926E0,-3.621899337E-2,-3.009372056E-1,1.331580579E-1
2.107757569E0,-3.036003746E-2,-2.956108749E-1,1.757686287E-1
2.109741211E0,-3.089267015E-2,-2.902845740E-1,1.853560209E-1
2.111724854E0,-3.036003746E-2,-2.785666585E-1,2.114549875E-1
2.113677979E0,-3.142530099E-2,-2.679139972E-1,2.354234457E-1
2.115692139E0,-3.568635881E-2,-2.577939928E-1,2.620550692E-1
2.117706299E0,-3.994741663E-2,-2.535329461E-1,2.801645398E-1
2.119659424E0,-4.474110901E-2,-2.551308274E-1,3.004045784E-1
2.121612549E0,-4.846953228E-2,-2.572613657E-1,3.190467060E-1
2.123626709E0,-5.219795927E-2,-2.572613657E-1,3.355582952E-1
2.125579834E0,-5.326322466E-2,-2.545982003E-1,3.483414650E-1
2.127593994E0,-5.219795927E-2,-2.508697808E-1,3.627225459E-1
2.129577637E0,-4.527373984E-2,-2.514024079E-1,3.712446690E-1
2.131561280E0,-4.687163606E-2,-2.551308274E-1,3.818973005E-1
2.133514405E0,-5.805691332E-2,-2.647182047E-1,3.941478431E-1
2.135528565E0,-7.084008306E-2,-2.764361203E-1,4.016047120E-1
2.137512207E0,-9.321063757E-2,-2.844256163E-1,4.159857631E-1
2.139465332E0,-1.075917110E-1,-2.897519469E-1,4.223773479E-1
2.141418457E0,-1.209075153E-1,-2.876214087E-1,4.330300093E-1
2.143432617E0,-1.251685768E-1,-2.780340314E-1,4.431500137E-1
2.145385742E0,-1.257012039E-1,-2.711097896E-1,4.527373910E-1
2.147369385E0,-1.246359423E-1,-2.668487430E-1,4.660531878E-1
2.149353028E0,-1.326254308E-1,-2.748382390E-1,4.814995229E-1
2.151367188E0,-1.272991002E-1,-2.817624509E-1,4.953479767E-1
2.153350830E0,-1.246359423E-1,-2.876214087E-1,5.044026971E-1
2.155364991E0,-1.251685768E-1,-2.993393242E-1,5.198490620E-1
2.157348633E0,-1.171790883E-1,-3.131877482E-1,5.315669775E-1
2.159332276E0,-1.177117229E-1,-3.291667104E-1,5.443501472E-1
2.161285401E0,-1.219727769E-1,-3.478088379E-1,5.587311983E-1
2.163269043E0,-1.166464612E-1,-3.701793849E-1,5.704491138E-1
2.165222168E0,-1.161138266E-1,-3.930825889E-1,5.842975378E-1
2.167236328E0,-1.129180342E-1,-4.165183902E-1,5.976133347E-1
2.169189453E0,-1.193096191E-1,-4.447479248E-1,6.151902080E-1
2.171173096E0,-1.257012039E-1,-4.777711034E-1,6.327670813E-1
2.173126221E0,-1.171790883E-1,-5.241101384E-1,6.514092088E-1
2.175140381E0,-1.257012039E-1,-5.693838596E-1,6.769755483E-1
2.177154541E0,-1.549959779E-1,-6.135923266E-1,7.014766335E-1
2.179107666E0,-1.944107562E-1,-6.721818447E-1,7.307714224E-1
2.181060791E0,-2.311623842E-1,-7.344998717E-1,7.627293468E-1
2.183074951E0,-2.519350350E-1,-8.016114831E-1,7.898935676E-1
2.185028076E0,-2.620550692E-1,-8.596684337E-1,8.197209835E-1
2.187011719E0,-2.636529505E-1,-9.022790194E-1,8.463526368E-1
2.188995362E0,-2.753708661E-1,-9.432916641E-1,8.724516034E-1
2.191009522E0,-2.743056118E-1,-9.917612076E-1,8.990831971E-1
2.192962647E0,-2.471413612E-1,-1.029578090E0,9.166600704E-1
2.194946289E0,-2.247707993E-1,-1.059405446E0,9.337043166E-1
2.196960450E0,-2.045307755E-1,-1.094026566E0,9.486179948E-1
2.198913575E0,-1.816275865E-1,-1.135571957E0,9.635316730E-1
2.200866700E0,-1.528654546E-1,-1.173388839E0,9.725864530E-1
2.202850342E0,-1.315601617E-1,-1.213868856E0,9.800432920E-1
2.204803467E0,-1.347559541E-1,-1.255414128E0,9.890980721E-1
2.206787110E0,-1.651159972E-1,-1.291100502E0,1.002946496E0
2.208740235E0,-1.805623323E-1,-1.328384757E0,1.018392801E0
2.210754395E0,-2.253034264E-1,-1.361940622E0,1.048220277E0
2.212738037E0,-2.599245310E-1,-1.375256419E0,1.076449752E0
2.214721680E0,-2.961435318E-1,-1.380050063E0,1.104146600E0
2.216705323E0,-3.201119602E-1,-1.375789046E0,1.133973956E0
2.218658448E0,-3.307646215E-1,-1.348092198E0,1.169660330E0
2.220642090E0,-3.424825370E-1,-1.316666842E0,1.201618314E0
2.222625733E0,-3.462109566E-1,-1.292698383E0,1.234108925E0
2.224578858E0,-3.579288721E-1,-1.257544637E0,1.269795179E0
2.226593018E0,-3.909520507E-1,-1.231445670E0,1.312938452E0
2.228546143E0,-4.617921412E-1,-1.204281449E0,1.361407995E0
2.230529785E0,-4.783037305E-1,-1.187769890E0,1.408279657E0
2.232513428E0,-4.761732221E-1,-1.178715110E0,1.458879709E0
2.234497071E0,-5.166532397E-1,-1.153148770E0,1.518001795E0
2.236480713E0,-5.464806557E-1,-1.141963482E0,1.588309288E0
2.238464356E0,-5.731122494E-1,-1.141430855E0,1.661812544E0
2.240447998E0,-5.789712071E-1,-1.136104584E0,1.726793647E0
2.242462159E0,-5.944175720E-1,-1.131843448E0,1.789111614E0
2.244415284E0,-5.997439027E-1,-1.129712939E0,1.855690718E0
2.246429444E0,-6.034722924E-1,-1.143561363E0,1.920671821E0
2.248413086E0,-6.093312502E-1,-1.162203550E0,1.985652924E0
2.250396729E0,-6.178534031E-1,-1.186704636E0,2.058090925E0
2.252349854E0,-6.221144199E-1,-1.215466738E0,2.124670029E0
2.254364014E0,-6.274407506E-1,-1.252218366E0,2.173672199E0
2.256378174E0,-6.263754964E-1,-1.286306858E0,2.208293200E0
2.258331299E0,-6.402239203E-1,-1.328384757E0,2.246642828E0
2.260284424E0,-6.567355394E-1,-1.392300606E0,2.291383743E0
2.262298584E0,-6.727145314E-1,-1.464738607E0,2.331863880E0
2.264282227E0,-6.769755483E-1,-1.535046101E0,2.367550135E0
2.266265869E0,-6.721818447E-1,-1.593103051E0,2.401638746E0
2.268218994E0,-6.657902598E-1,-1.660214663E0,2.438922882E0
2.270233155E0,-7.169229984E-1,-1.717738986E0,2.466087103E0
2.272186280E0,-7.792409658E-1,-1.788578987E0,2.508697748E0
2.274169922E0,-8.532768488E-1,-1.876995921E0,2.563558817E0
2.276153565E0,-9.560748339E-1,-1.956890821E0,2.638127327E0
2.278106690E0,-1.018925428E0,-2.015480280E0,2.681270599E0
2.280059815E0,-1.114799261E0,-2.061819315E0,2.737729549E0
2.282073975E0,-1.156877160E0,-2.116147757E0,2.768622398E0
2.284027100E0,-1.242098331E0,-2.191248894E0,2.822418213E0
2.286010742E0,-1.241033077E0,-2.242381573E0,2.858104467E0
2.287994385E0,-1.225586772E0,-2.275937557E0,2.872485638E0
2.289978028E0,-1.227184653E0,-2.298840761E0,2.903378248E0
2.291931153E0,-1.229315162E0,-2.311091185E0,2.909237146E0
2.293945313E0,-1.316666842E0,-2.343049288E0,2.937999487E0
2.295928955E0,-1.388572216E0,-2.428270340E0,2.966761589E0
2.297912598E0,-1.467934370E0,-2.511893511E0,3.010969877E0
2.299835205E0,-1.532915592E0,-2.570483208E0,3.049852133E0
2.301818848E0,-1.610147238E0,-2.590723038E0,3.096723795E0
2.303771973E0,-1.652225137E0,-2.594984293E0,3.123355389E0
2.305755616E0,-1.712412596E0,-2.595516920E0,3.165433407E0
2.307708741E0,-1.669269443E0,-2.613093615E0,3.178216457E0
2.309722901E0,-1.635713577E0,-2.624279022E0,3.190999746E0
2.311706543E0,-1.611745119E0,-2.617354870E0,3.219761848E0
2.313690186E0,-1.616006136E0,-2.599777937E0,3.222424984E0
2.315673828E0,-1.549959779E0,-2.572081089E0,3.205380678E0
2.317626953E0,-1.489239693E0,-2.555569410E0,3.208576441E0
2.319610596E0,-1.560612440E0,-2.552373648E0,3.242132425E0
2.321594239E0,-1.699096799E0,-2.542786360E0,3.305515528E0
2.323547364E0,-1.832787514E0,-2.543318987E0,3.345463037E0
2.325561524E0,-1.896703362E0,-2.498577833E0,3.355582952E0
2.327514649E0,-1.927596092E0,-2.428270340E0,3.349724054E0
2.329498291E0,-1.900431752E0,-2.330798626E0,3.345463037E0
2.331481934E0,-1.917476058E0,-2.192846775E0,3.357180834E0
2.333465576E0,-1.982989788E0,-2.065015078E0,3.376355648E0
2.335449219E0,-2.014947653E0,-1.975532889E0,3.381681919E0
2.337402344E0,-2.115615129E0,-1.894572854E0,3.406183004E0
2.339385987E0,-2.164617300E0,-1.842374921E0,3.425890446E0
2.341369629E0,-2.231196404E0,-1.789111614E0,3.457848310E0
2.343322754E0,-2.292981625E0,-1.734783173E0,3.489273787E0
2.345336914E0,-2.357962847E0,-1.677258849E0,3.522296906E0
2.347320557E0,-2.386724949E0,-1.629854560E0,3.538808584E0
2.349304200E0,-2.394181967E0,-1.583515644E0,3.569701195E0
2.351257325E0,-2.389388084E0,-1.552090287E0,3.606985331E0
2.353271485E0,-2.393649340E0,-1.502555490E0,3.639476061E0
2.355255127E0,-2.387257576E0,-1.442368031E0,3.655454874E0
2.357238770E0,-2.360093355E0,-1.390170097E0,3.650661230E0
2.359191895E0,-2.319613457E0,-1.324123740E0,3.638943434E0
2.361206055E0,-2.283926964E0,-1.261273146E0,3.628823280E0
2.363159180E0,-2.237055302E0,-1.184574127E0,3.618170738E0
2.365142823E0,-2.188585758E0,-1.107874990E0,3.606985331E0
2.367095948E0,-2.165149927E0,-1.018925428E0,3.596332788E0
2.369110108E0,-2.132126808E0,-9.267801046E-1,3.581951618E0
2.371093750E0,-2.081526756E0,-8.346347213E-1,3.554787397E0
2.373077393E0,-2.025067806E0,-7.563377619E-1,3.526557922E0
2.375061035E0,-1.965945601E0,-6.775081754E-1,3.488741159E0
2.377014160E0,-1.911617041E0,-6.077333689E-1,3.452522039E0
2.378997803E0,-1.851962209E0,-5.480785370E-1,3.413640022E0
2.381011963E0,-1.776328444E0,-4.868258536E-1,3.357180834E0
2.382965088E0,-1.696966290E0,-4.330300093E-1,3.296993494E0
2.384979248E0,-1.623995662E0,-4.032025933E-1,3.240001917E0
2.386962891E0,-1.541970253E0,-4.063983858E-1,3.183010101E0
2.388946534E0,-1.449824929E0,-4.021373391E-1,3.124953270E0
2.390899659E0,-1.376854300E0,-3.946804702E-1,3.085538387E0
2.392913819E0,-1.288437366E0,-4.005394280E-1,3.055178404E0
2.394927979E0,-1.231445670E0,-4.000068009E-1,3.018959522E0
2.396881104E0,-1.146757245E0,-4.159857631E-1,2.978479385E0
2.398834229E0,-1.093493938E0,-4.351605177E-1,2.936933994E0
2.400848389E0,-1.025317073E0,-4.591289759E-1,2.887931824E0
2.402801514E0,-9.507485032E-1,-4.841626883E-1,2.824548721E0
2.404785157E0,-9.001484513E-1,-4.926848114E-1,2.768622398E0
2.406768799E0,-8.697884083E-1,-5.049353242E-1,2.704706430E0
2.408782959E0,-8.335694075E-1,-4.932174385E-1,2.646116972E0
2.410736084E0,-8.287757635E-1,-4.926848114E-1,2.594451666E0
2.412719727E0,-8.223841786E-1,-4.740426838E-1,2.535861969E0
2.414703369E0,-8.197209835E-1,-4.367584288E-1,2.484196663E0
2.416687012E0,-8.090683818E-1,-3.973436356E-1,2.418150425E0
2.418640137E0,-8.207862377E-1,-3.494067490E-1,2.345179796E0
2.420623780E0,-8.293083906E-1,-2.828277051E-1,2.302036524E0
2.422576905E0,-8.703210354E-1,-2.503371537E-1,2.272741795E0
2.424560547E0,-9.353021979E-1,-2.290318608E-1,2.253566980E0
2.426513672E0,-1.002946496E0,-2.071939409E-1,2.242914200E0
2.428527832E0,-1.071123362E0,-1.757686287E-1,2.231729031E0
2.430511475E0,-1.151018262E0,-1.475391239E-1,2.222674370E0
2.432495117E0,-1.201085687E0,-1.150485575E-1,2.215217352E0
2.434478760E0,-1.214934111E0,-1.001348570E-1,2.198705912E0
2.436462403E0,-1.251685739E0,-9.534116834E-2,2.187520504E0
2.438446045E0,-1.282045722E0,-9.747169912E-2,2.171009064E0
2.440429688E0,-1.298024774E0,-1.198422536E-1,2.144377232E0
2.442382813E0,-1.311873198E0,-1.608549356E-1,2.122539520E0
2.444366455E0,-1.334243774E0,-2.093244642E-1,2.105495214E0
2.446319580E0,-1.343831062E0,-2.647182047E-1,2.090581417E0
2.448333741E0,-1.358212233E0,-3.259709179E-1,2.074069977E0
2.450317383E0,-1.367266893E0,-3.994741738E-1,2.065547705E0
2.452301026E0,-1.377386928E0,-4.751079381E-1,2.057025671E0
2.454284668E0,-1.381115317E0,-5.528722405E-1,2.042644501E0
2.456237793E0,-1.380050063E0,-6.253102422E-1,2.033589840E0
2.458221436E0,-1.356081605E0,-6.934871674E-1,2.018676043E0
2.460205078E0,-1.334243774E0,-7.563377619E-1,1.995772958E0
2.462158203E0,-1.324123740E0,-8.000136018E-1,1.965945601E0
2.464172364E0,-1.272458434E0,-8.319715261E-1,1.922802329E0
2.466156006E0,-1.244228840E0,-8.506136537E-1,1.879126549E0
2.468109131E0,-1.218129873E0,-8.617989421E-1,1.833852768E0
2.470062256E0,-1.181910872E0,-8.756473660E-1,1.784317970E0
2.472076416E0,-1.141963482E0,-8.857674003E-1,1.742772698E0
2.474090576E0,-1.129180312E0,-8.884305358E-1,1.716673613E0
2.476043701E0,-1.140365601E0,-9.092032313E-1,1.708684206E0
2.477996826E0,-1.154746652E0,-9.123989940E-1,1.703357816E0
2.480010987E0,-1.154214025E0,-9.038769007E-1,1.694835782E0
2.481964112E0,-1.156344533E0,-8.868326545E-1,1.675660968E0
2.483947754E0,-1.136637211E0,-8.543421030E-1,1.642637849E0
2.485931397E0,-1.134506702E0,-8.026767969E-1,1.613875628E0
2.487915039E0,-1.116929770E0,-7.552725077E-1,1.593103051E0
2.489868164E0,-1.125451922E0,-7.110640407E-1,1.578721881E0
2.491882325E0,-1.132908702E0,-6.801713705E-1,1.523328185E0
2.493865967E0,-1.164334059E0,-6.194512844E-1,1.515871286E0
2.495819092E0,-1.162203550E0,-5.597964525E-1,1.528121829E0
2.497772217E0,-1.162203550E0,-5.081311464E-1,1.539307117E0
2.499755860E0,-1.171790957E0,-4.761732221E-1,1.548894525E0
2.501708985E0,-1.208009839E0,-3.941478431E-1,1.564340830E0
2.503723145E0,-1.259675264E0,-3.115898669E-1,1.580852509E0
2.505676270E0,-1.300687909E0,-2.295644879E-1,1.592570305E0
2.507659912E0,-1.319329977E0,-1.203748807E-1,1.605353594E0
2.509613037E0,-1.344896317E0,7.989482954E-3,1.619202018E0
2.511596680E0,-1.358744860E0,9.587380290E-2,1.606951475E0
2.513580323E0,-1.368864775E0,1.651159972E-1,1.538774490E0
2.515533448E0,-1.398159623E0,2.482066154E-1,1.466336489E0
2.517486573E0,-1.353951097E0,3.685815036E-1,1.399757504E0
2.519500733E0,-1.306546807E0,5.091964006E-1,1.362473249E0
2.521453858E0,-1.236772060E0,6.460828781E-1,1.311340570E0
2.523437500E0,-1.161670923E0,7.744472623E-1,1.263403654E0
2.525421143E0,-1.088167667E0,8.926916122E-1,1.212803602E0
2.527404785E0,-1.024251819E0,1.003479123E0,1.152616143E0
2.529357910E0,-9.539443254E-1,1.107874990E0,1.064199209E0
2.531372071E0,-9.012137055E-1,1.209075212E0,9.640643597E-1
2.533355713E0,-8.479505181E-1,1.309210062E0,8.729842305E-1
2.535339356E0,-7.946872711E-1,1.409877539E0,8.117315173E-1
2.537292481E0,-7.222493291E-1,1.511077642E0,7.552725077E-1
2.539276123E0,-6.663229465E-1,1.604820848E0,7.169229984E-1
2.541229248E0,-6.024070382E-1,1.702825189E0,6.572681665E-1
2.543212891E0,-5.315669775E-1,1.805623293E0,6.061354876E-1
2.545959473E0,-4.463458061E-1,1.937716007E0,5.518069863E-1
2.547180176E0,-4.016047120E-1,1.967010856E0,5.411543250E-1
2.549163819E0,-3.557983339E-1,2.018143415E0,5.608617067E-1
2.551177979E0,-3.041329980E-1,2.059156179E0,5.933523178E-1
2.553192139E0,-2.615224123E-1,2.091646671E0,6.418218613E-1
2.555145264E0,-2.237055302E-1,2.116680384E0,6.950850487E-1
2.557098389E0,-1.736381054E-1,2.134789944E0,7.542072535E-1
2.559082032E0,-1.411475390E-1,2.131594181E0,8.186557293E-1
2.561096192E0,-1.123853996E-1,2.122006893E0,8.767126203E-1
2.563079834E0,-8.309062570E-2,2.103897333E0,9.278453588E-1
2.565002442E0,-5.965480953E-2,2.083124638E0,9.843043685E-1
2.567016602E0,-4.953479767E-2,2.065015078E0,1.048752904E0
2.568969727E0,-4.101268202E-2,2.045307636E0,1.110538244E0
2.570953369E0,-3.249056637E-2,2.033589840E0,1.169660330E0
2.572998047E0,-2.822950855E-2,2.033057213E0,1.223456264E0
2.574981690E0,-1.757686399E-2,2.042111874E0,1.270327806E0
2.576965332E0,-5.326322280E-4,2.054895163E0,1.317732096E0
2.578948975E0,-5.858954508E-3,2.066080332E0,1.359277487E0
2.580902100E0,-9.054748341E-3,2.082592010E0,1.388572216E0
2.582916260E0,-1.118527725E-2,2.104962587E0,1.420530200E0
2.584869385E0,-1.012001187E-2,2.127333164E0,1.448759675E0
2.586853028E0,-4.261057824E-3,2.127333164E0,1.471130252E0
2.588775635E0,-2.716424316E-2,2.098038435E0,1.486043930E0
2.590789795E0,-6.018744037E-2,2.035187721E0,1.484446049E0
2.592803955E0,-1.001348570E-1,1.959553957E0,1.466869116E0
2.594787598E0,-1.432780623E-1,1.887115955E0,1.445031285E0
2.596740723E0,-2.008023560E-1,1.802427411E0,1.410410166E0
2.598754883E0,-2.471413612E-1,1.728391528E0,1.374723792E0
2.600738526E0,-2.806971967E-1,1.657018900E0,1.341167927E0
2.602722168E0,-2.972087860E-1,1.601092458E0,1.308677435E0
2.604675293E0,-2.993393242E-1,1.558481932E0,1.278317332E0
2.606689453E0,-2.860234976E-1,1.516936541E0,1.249022603E0
2.608612061E0,-2.625876963E-1,1.474326015E0,1.212803602E0
2.610595703E0,-2.338255495E-1,1.434378624E0,1.168595076E0
2.612548828E0,-2.130528986E-1,1.407214403E0,1.114266634E0
2.614532471E0,-1.778991669E-1,1.373125911E0,1.042893887E0
2.616455078E0,-1.427454352E-1,1.372593284E0,9.720538259E-1
2.618438721E0,-9.161274135E-2,1.364071131E0,8.942894936E-1
2.620391846E0,-5.219795927E-2,1.334776402E0,8.090683818E-1
2.622406006E0,-6.924218964E-3,1.321993232E0,7.025418878E-1
2.624359131E0,1.065264456E-3,1.291633129E0,5.699164867E-1
2.626312256E0,-2.556634694E-2,1.230380416E0,4.143878818E-1
2.628265381E0,-5.432848632E-2,1.182976127E0,2.775014043E-1
2.630279541E0,-6.498113275E-2,1.182443500E0,1.810949594E-1
2.632263184E0,-4.793690145E-2,1.241033077E0,1.129180342E-1
2.634216309E0,-9.587380104E-3,1.323591113E0,5.805691332E-2
2.636138916E0,3.515372798E-2,1.401888013E0,2.343581803E-2
2.638153076E0,8.149272949E-2,1.468466997E0,-8.522115648E-3
2.640106201E0,1.278317273E-1,1.544100881E0,-9.587380104E-3
2.642089844E0,1.555286050E-1,1.615473509E0,-4.048004746E-2
2.644012451E0,1.629854590E-1,1.658616781E0,-5.805691332E-2
2.646026612E0,1.704423130E-1,1.737446308E0,-1.102548689E-1
2.647979737E0,1.794970632E-1,1.816275954E0,-1.581917703E-1
2.649963379E0,1.810949594E-1,1.886583328E0,-2.247707993E-1
2.651916504E0,1.981391907E-1,1.977663517E0,-2.908172011E-1
2.653869629E0,2.210423797E-1,2.063417196E0,-3.494067490E-1
2.655822754E0,2.295644879E-1,2.115082502E0,-3.968110085E-1
2.657806397E0,2.455434501E-1,2.167813063E0,-4.239752591E-1
2.659729004E0,2.695119083E-1,2.226935387E0,-4.388889670E-1
2.661712647E0,2.918824553E-1,2.280198574E0,-4.500742257E-1
2.663665772E0,3.153182864E-1,2.321743965E0,-4.383563101E-1
2.665649414E0,3.334277868E-1,2.355299711E0,-4.111920893E-1
2.667572022E0,3.520699143E-1,2.370746136E0,-3.675162494E-1
2.669555664E0,3.573962152E-1,2.364886999E0,-3.179814517E-1
2.671569825E0,3.675162494E-1,2.349440813E0,-2.822950780E-1
2.673553467E0,3.579288721E-1,2.324939728E0,-2.380866110E-1
2.675506592E0,3.483414650E-1,2.281796455E0,-2.082591951E-1
2.677520752E0,3.382214606E-1,2.220543861E0,-1.826928556E-1
2.679504395E0,3.328951299E-1,2.145975351E0,-1.528654546E-1
2.681488037E0,3.387540877E-1,2.062884569E0,-1.198422536E-1
2.683441162E0,3.318298757E-1,1.965945601E0,-8.841694891E-2
2.685455323E0,3.344930410E-1,1.864212751E0,-5.592638254E-2
2.687377930E0,3.531351686E-1,1.816808581E0,-2.663161140E-3
2.689361573E0,3.866910040E-1,1.783785343E0,5.965480953E-2
2.691314698E0,3.909520507E-1,1.748098969E0,1.097222418E-1
2.693298340E0,4.032025933E-1,1.688444138E0,1.486043930E-1
2.695251465E0,4.010720551E-1,1.627724051E0,1.810949594E-1
2.697235108E0,3.829625845E-1,1.554220796E0,2.039981484E-1
2.699249268E0,3.589941263E-1,1.488174438E0,2.173139453E-1
2.701263428E0,3.281014562E-1,1.420530200E0,2.135855258E-1
2.703247071E0,2.950782478E-1,1.357146859E0,2.034655064E-1
2.705230713E0,2.652508616E-1,1.296959519E0,1.837581247E-1
2.707214356E0,2.625876963E-1,1.251153111E0,1.704423130E-1
2.709197998E0,2.615224123E-1,1.221858382E0,1.635181010E-1
2.711212159E0,2.892192900E-1,1.212803602E0,1.549959779E-1
2.713195801E0,3.094593287E-1,1.217597246E0,1.549959779E-1
2.715148926E0,3.142530024E-1,1.203748822E0,1.486043930E-1
2.717163086E0,3.185140789E-1,1.190965652E0,1.320927888E-1
2.719146729E0,3.222424984E-1,1.191498280E0,1.145159304E-1
2.721160889E0,3.243730366E-1,1.181378245E0,1.065264493E-1
2.723083496E0,3.115898669E-1,1.146224499E0,8.468852192E-2
2.725097657E0,2.615224123E-1,1.101483464E0,3.089267015E-2
2.727050782E0,2.157160491E-1,1.075384498E0,-3.249056637E-2
2.729034424E0,1.821602285E-1,1.088700294E0,-7.882957160E-2
2.730987549E0,1.667138934E-1,1.117462397E0,-1.166464612E-1
2.732940674E0,1.651159972E-1,1.146224499E0,-1.438107044E-1
2.734893799E0,1.635181010E-1,1.181378245E0,-1.731054783E-1
2.736877442E0,1.624528319E-1,1.206411958E0,-2.029328793E-1
2.738891602E0,1.587243974E-1,1.221325755E0,-2.354234457E-1
2.740905762E0,1.491370201E-1,1.223456264E0,-2.673813701E-1
2.742858887E0,1.443433315E-1,1.219727755E0,-3.020024598E-1
2.744842530E0,1.411475390E-1,1.203216195E0,-3.387540877E-1
2.746765137E0,1.384843737E-1,1.186172009E0,-3.707120419E-1
2.748748780E0,1.400822699E-1,1.173388839E0,-3.952131271E-1
2.750793457E0,1.496696621E-1,1.164866686E0,-4.186489284E-1
2.752746582E0,1.544633508E-1,1.151018262E0,-4.394215941E-1
2.754669190E0,1.635181010E-1,1.148887753E0,-4.511395097E-1
2.756683350E0,1.741707325E-1,1.152083516E0,-4.591289759E-1
2.758605957E0,1.901497096E-1,1.166464567E0,-4.612595141E-1
2.760589600E0,2.087918371E-1,1.200553060E0,-4.612595141E-1
2.762542725E0,2.332929224E-1,1.239967823E0,-4.585963488E-1
2.764556885E0,2.444781959E-1,1.270327806E0,-4.527373910E-1
2.766510010E0,2.524676621E-1,1.304948926E0,-4.404868484E-1
2.768493653E0,2.396845073E-1,1.341700554E0,-4.293015897E-1
2.770446778E0,2.455434501E-1,1.375256419E0,-4.026699662E-1
2.772399903E0,2.514024079E-1,1.393898487E0,-3.717772961E-1
2.774353028E0,2.561961114E-1,1.398159623E0,-3.637878001E-1
2.776336670E0,2.668487430E-1,1.395496488E0,-3.392867148E-1
2.778350830E0,2.897519469E-1,1.377919555E0,-2.908172011E-1
2.780364991E0,3.089267015E-1,1.350222707E0,-2.530003190E-1
2.782318116E0,3.115898669E-1,1.338504791E0,-2.327602804E-1
2.784301758E0,3.366235793E-1,1.302285790E0,-1.906823367E-1
2.786224366E0,3.653857112E-1,1.249022603E0,-1.565938741E-1
2.788208008E0,3.893541694E-1,1.192563534E0,-1.225054115E-1
2.790161133E0,4.250405133E-1,1.118527651E0,-9.427590668E-2
2.792144776E0,4.585963488E-1,1.030643344E0,-6.977482140E-2
2.794067383E0,5.028048158E-1,9.741843343E-1,-6.444849819E-2
2.796051026E0,5.539374948E-1,9.049421549E-1,-5.113269389E-2
2.798004151E0,6.141249537E-1,8.383631110E-1,-3.302319720E-2
2.799987793E0,6.844323874E-1,7.792409658E-1,-1.544633508E-2
2.801910401E0,7.648598552E-1,7.158577442E-1,-1.065264456E-3
2.803924561E0,8.415589333E-1,6.583334208E-1,2.130528912E-3
2.805938721E0,9.182579517E-1,5.912217498E-1,-1.065264456E-3
2.807922364E0,9.715211987E-1,5.406216979E-1,-3.195793368E-3
2.809936524E0,1.032241225E0,4.862932265E-1,-8.522115648E-3
2.811889649E0,1.075384498E0,4.335626364E-1,-2.130528912E-2
2.813873291E0,1.135039330E0,3.781688809E-1,-3.302319720E-2
2.815856934E0,1.206944585E0,3.323625028E-1,-5.006742850E-2
2.817871094E0,1.236772060E0,2.498045117E-1,-6.870955974E-2
2.819885254E0,1.187769890E0,1.810949594E-1,-9.960222989E-2
2.821838379E0,1.119060278E0,1.651159972E-1,-1.283643693E-1
2.823822022E0,1.038100243E0,1.826928556E-1,-1.533980817E-1
2.825744629E0,9.587380290E-1,2.423476577E-1,-1.613875628E-1
2.827758789E0,8.777779341E-1,3.041329980E-1,-1.592570394E-1
2.829772950E0,7.914915085E-1,3.488741219E-1,-1.496696621E-1
2.831756592E0,7.004113793E-1,3.850930929E-1,-1.379517466E-1
2.833679200E0,6.146575809E-1,4.032025933E-1,-1.304948926E-1
2.835693360E0,5.395564437E-1,4.117247164E-1,-1.278317273E-1
2.837677002E0,4.724447727E-1,4.090615511E-1,-1.310275346E-1
2.839691162E0,4.159857631E-1,4.165183902E-1,-1.379517466E-1
2.841613770E0,3.691141307E-1,4.016047120E-1,-1.502022892E-1
2.843627930E0,3.307646215E-1,3.728425503E-1,-1.619201899E-1
2.845581055E0,2.972087860E-1,3.494067490E-1,-1.699096859E-1
2.847564698E0,2.860234976E-1,3.259709179E-1,-1.752360016E-1
2.849517823E0,2.775014043E-1,2.902845740E-1,-1.794970632E-1
2.851501465E0,2.679139972E-1,2.455434501E-1,-1.805623323E-1
2.853454590E0,2.593919039E-1,2.024002522E-1,-1.837581247E-1
2.855468750E0,2.535329461E-1,1.608549356E-1,-1.869539171E-1
2.857452393E0,2.482066154E-1,1.272991002E-1,-1.864212751E-1
2.859436035E0,2.391518652E-1,9.534116834E-2,-1.938781291E-1
2.861419678E0,2.332929224E-1,6.498113275E-2,-1.928128600E-1
2.863403321E0,2.247707993E-1,5.858954415E-2,-1.954760253E-1
2.865325928E0,2.130528986E-1,5.858954415E-2,-1.981391907E-1
2.867309571E0,2.071939409E-1,7.030745596E-2,-1.960086524E-1
2.869262696E0,2.002697140E-1,8.149272949E-2,-1.944107562E-1
2.871246338E0,1.869539171E-1,9.214537591E-2,-1.917476058E-1
2.873199463E0,1.763012707E-1,1.102548689E-1,-1.826928556E-1
2.875183106E0,1.693770438E-1,1.363538504E-1,-1.731054783E-1
2.877197266E0,1.555286050E-1,1.581917703E-1,-1.619201899E-1
2.879211426E0,1.395496428E-1,1.763012707E-1,-1.528654546E-1
2.881164551E0,1.177117229E-1,1.853560209E-1,-1.416801661E-1
2.883148194E0,9.374327213E-2,1.917476058E-1,-1.278317273E-1
2.885070801E0,6.391586363E-2,2.013349831E-1,-1.177117229E-1
2.887054444E0,3.195793182E-2,2.077265680E-1,-1.091896072E-1
2.889038086E0,-3.195793368E-3,2.130528986E-1,-1.006674916E-1
2.890991211E0,-3.675162420E-2,2.178465873E-1,-9.480853379E-2
2.892913819E0,-7.084008306E-2,2.226402760E-1,-8.948221803E-2
2.894897461E0,-1.001348570E-1,2.253034264E-1,-9.001484513E-2
2.896820069E0,-1.299622655E-1,2.210423797E-1,-8.894958347E-2
2.898834229E0,-1.565938741E-1,2.135855258E-1,-9.001484513E-2
2.900787354E0,-1.778991669E-1,1.965412945E-1,-9.427590668E-2
2.902770996E0,-2.050634027E-1,1.768338978E-1,-9.747169912E-2
2.904693604E0,-2.173139453E-1,1.624528319E-1,-1.017327532E-1
2.906707764E0,-2.599245310E-1,1.230380461E-1,-1.123853996E-1
2.908721924E0,-2.897519469E-1,9.853696078E-2,-1.288969964E-1
2.910705567E0,-3.211772442E-1,6.977482140E-2,-1.390170157E-1
2.912719727E0,-3.589941263E-1,4.474110901E-2,-1.539307088E-1
2.914733887E0,-4.016047120E-1,1.864212751E-2,-1.683117896E-1
2.916717530E0,-4.484763443E-1,-7.989482954E-3,-1.805623323E-1
2.918701172E0,-4.969458580E-1,-3.408846259E-2,-1.928128600E-1
2.920684815E0,-5.512743592E-1,-6.072007492E-2,-2.034655064E-1
2.922698975E0,-6.082659960E-1,-9.427590668E-2,-2.061286718E-1
2.924621582E0,-6.609966159E-1,-1.267664731E-1,-2.135855258E-1
2.926605225E0,-7.062703371E-1,-1.565938741E-1,-2.178465873E-1
2.928588867E0,-7.281082273E-1,-1.768338978E-1,-2.205097377E-1
2.930572510E0,-7.717841268E-1,-2.151834220E-1,-2.210423797E-1
2.932495117E0,-8.037420511E-1,-2.551308274E-1,-2.258360684E-1
2.934478760E0,-8.287757635E-1,-2.902845740E-1,-2.311623842E-1
2.936492920E0,-8.522115946E-1,-3.344930410E-1,-2.290318608E-1
2.938507080E0,-8.713863492E-1,-3.797667921E-1,-2.327602804E-1
2.940429688E0,-8.809736967E-1,-4.234426320E-1,-2.332929224E-1
2.942443848E0,-8.873652816E-1,-4.633900523E-1,-2.359560728E-1
2.944396973E0,-8.831042051E-1,-4.942827225E-1,-2.370213419E-1
2.946380616E0,-8.793758154E-1,-5.134574771E-1,-2.460760921E-1
2.948333741E0,-8.703210354E-1,-5.342301130E-1,-2.503371537E-1
2.950317383E0,-8.767126203E-1,-5.555354357E-1,-2.498045117E-1
2.952270508E0,-8.932242393E-1,-5.581985712E-1,-2.498045117E-1
2.954254151E0,-9.134642482E-1,-5.502091050E-1,-2.551308274E-1
2.956268311E0,-9.241169095E-1,-5.251753926E-1,-2.684466541E-1
2.958282471E0,-9.353021979E-1,-4.910869002E-1,-2.817624509E-1
2.960235596E0,-9.443569183E-1,-4.474110603E-1,-2.966761589E-1
2.962249756E0,-9.470201135E-1,-4.005394280E-1,-3.147856593E-1
2.964172364E0,-9.544769526E-1,-3.563309610E-1,-3.307646215E-1
2.966156006E0,-9.800432920E-1,-3.105245829E-1,-3.387540877E-1
2.968139649E0,-1.002946496E0,-2.673813701E-1,-3.568635881E-1
2.970123291E0,-1.030643344E0,-2.189118415E-1,-3.755057156E-1
2.972045899E0,-1.067394972E0,-1.784317940E-1,-4.063983858E-1
2.974029541E0,-1.125451922E0,-1.459412277E-1,-4.399542212E-1
2.976043701E0,-1.203748822E0,-1.523328125E-1,-5.145227313E-1
2.978057862E0,-1.306546807E0,-1.560612470E-1,-5.779059529E-1
2.980010987E0,-1.388039589E0,-1.528654546E-1,-6.146575809E-1
2.981994629E0,-1.451422811E0,-1.464738697E-1,-6.348975897E-1
2.983917237E0,-1.515338659E0,-1.768338978E-1,-6.519418359E-1
2.985931397E0,-1.594168305E0,-2.194444835E-1,-6.705839634E-1
2.987945557E0,-1.680987358E0,-2.652508616E-1,-6.886934638E-1
2.989929200E0,-1.762480021E0,-3.158509135E-1,-7.041398287E-1
2.991882325E0,-1.826928496E0,-3.387540877E-1,-7.334345579E-1
2.993896485E0,-1.894572854E0,-3.717772961E-1,-7.989483476E-1
2.995880127E0,-1.992044568E0,-4.101268053E-1,-8.687231541E-1
2.997863770E0,-2.082592010E0,-4.639226794E-1,-9.097358584E-1
2.999786377E0,-2.144377232E0,-5.150553584E-1,-8.894958496E-1
3.001800537E0,-2.156095266E0,-5.651227832E-1,-8.234494328E-1
3.003723145E0,-2.128398418E0,-5.779059529E-1,-7.275756001E-1
3.005706787E0,-2.071939468E0,-5.656554103E-1,-6.215817928E-1
3.007659912E0,-2.013349771E0,-5.177185535E-1,-5.198490620E-1
3.009643555E0,-1.952629805E0,-4.783037305E-1,-4.378236830E-1
3.011596680E0,-1.897235990E0,-4.452805519E-1,-3.824299276E-1
3.013580323E0,-1.835983276E0,-4.324973822E-1,-3.504720032E-1
3.015594483E0,-1.794438004E0,-4.298342168E-1,-3.499393761E-1
3.017608643E0,-1.767806411E0,-4.175836742E-1,-3.675162494E-1
3.019561768E0,-1.739044189E0,-3.787015080E-1,-3.824299276E-1
3.021545410E0,-1.713477850E0,-3.446130455E-1,-3.989415467E-1
3.023468018E0,-1.690042019E0,-3.115898669E-1,-4.213120937E-1
3.025451660E0,-1.669269443E0,-2.844256163E-1,-4.399542212E-1
3.027435303E0,-1.653290391E0,-2.439455539E-1,-4.479437172E-1
3.029388428E0,-1.647431493E0,-1.938781291E-1,-4.569984376E-1
3.031311035E0,-1.643703103E0,-1.518001854E-1,-4.729774296E-1
3.033294678E0,-1.649029374E0,-9.906959534E-2,-4.980111420E-1
3.035308838E0,-1.644768357E0,-5.805691332E-2,-5.257080197E-1
3.037292481E0,-1.653823018E0,-1.438106969E-2,-5.438175201E-1
3.039215088E0,-1.661812544E0,2.929477207E-2,-5.619270205E-1
3.041198731E0,-1.661812544E0,5.060006306E-2,-5.773733258E-1
3.043151856E0,-1.658084154E0,7.190535218E-2,-5.917543769E-1
3.045166016E0,-1.644235730E0,8.042746782E-2,-6.050702333E-1
3.047119141E0,-1.637311459E0,8.202536404E-2,-6.082659960E-1
3.049102784E0,-1.622930408E0,5.219795927E-2,-6.119944453E-1
3.051055909E0,-1.605353594E0,3.355583176E-2,-6.210491657E-1
3.053070069E0,-1.587776661E0,-1.438106969E-2,-6.338323355E-1
3.055053711E0,-1.569134593E0,-6.498113275E-2,-6.546050310E-1
3.057067871E0,-1.553155541E0,-1.294296384E-1,-6.838997602E-1
3.059082032E0,-1.525991321E0,-1.805623323E-1,-7.307714224E-1
3.061096192E0,-1.520665050E0,-2.119876295E-1,-7.973504663E-1
3.063018799E0,-1.507881880E0,-2.412824035E-1,-8.660600185E-1
3.065002442E0,-1.495098710E0,-2.881540358E-1,-9.470201135E-1
3.067047119E0,-1.473260760E0,-2.977414131E-1,-1.024784446E0
3.069000244E0,-1.463673353E0,-3.302319944E-1,-1.099885583E0
3.070922852E0,-1.442368031E0,-3.611246645E-1,-1.164334059E0
3.072937012E0,-1.432248116E0,-3.882888854E-1,-1.202150941E0
3.074859619E0,-1.377386928E0,-3.920173049E-1,-1.220260382E0
3.076843262E0,-1.300155282E0,-4.048005044E-1,-1.217064619E0
3.078796387E0,-1.280980468E0,-4.186489284E-1,-1.208009839E0
3.080810547E0,-1.215999365E0,-5.017395616E-1,-1.165931940E0
3.082763672E0,-1.161138296E0,-5.997439027E-1,-1.107342362E0
3.084747315E0,-1.110538244E0,-7.355651259E-1,-1.054611802E0
3.086700440E0,-1.083906531E0,-8.713863492E-1,-9.960222840E-1
3.088684082E0,-1.073786616E0,-1.021055937E0,-9.443569183E-1
3.090637207E0,-1.057807565E0,-1.191498280E0,-9.012137055E-1
3.092620850E0,-1.007207513E0,-1.388572216E0,-8.554073572E-1
3.094543457E0,-9.523464441E-1,-1.583515644E0,-8.096010089E-1
3.096557617E0,-8.910937309E-1,-1.731054783E0,-7.835019827E-1
3.098510742E0,-8.554073572E-1,-1.883920193E0,-7.760451436E-1
3.100524903E0,-8.016114831E-1,-2.009621382E0,-7.835019827E-1
3.102447510E0,-7.797735929E-1,-2.133192062E0,-7.861651778E-1
3.104431153E0,-7.760451436E-1,-2.240783691E0,-7.792409658E-1
3.106414795E0,-7.510114312E-1,-2.306830168E0,-7.659251690E-1
3.108398438E0,-7.318366766E-1,-2.349440813E0,-7.515440583E-1
3.110351563E0,-7.211840153E-1,-2.374474525E0,-7.398261428E-1
3.112335205E0,-7.217166424E-1,-2.379800797E0,-7.302387953E-1
3.114288330E0,-7.211840153E-1,-2.364886999E0,-7.265103459E-1
3.116302491E0,-7.350324988E-1,-2.341983795E0,-7.344998717E-1
3.118255616E0,-7.621967196E-1,-2.302036524E0,-7.286409140E-1
3.120269776E0,-7.808388472E-1,-2.237587929E0,-7.126619220E-1
3.122192383E0,-7.968178391E-1,-2.126267910E0,-7.068029642E-1
3.124176026E0,-8.223841786E-1,-1.963282347E0,-7.057377100E-1
3.126159668E0,-8.484831452E-1,-1.759816885E0,-7.004113793E-1
3.128143311E0,-8.671252728E-1,-1.549427152E0,-6.950850487E-1
3.130065918E0,-8.793758154E-1,-1.361407995E0,-6.950850487E-1
3.132049561E0,-8.916263580E-1,-1.173388839E0,-6.924219131E-1
3.134063721E0,-9.017463326E-1,-9.906959534E-1,-6.902913451E-1
3.136077881E0,-9.123989940E-1,-8.250473142E-1,-6.886934638E-1
3.138031006E0,-9.331716895E-1,-6.934871674E-1,-6.775081754E-1
3.140014649E0,-9.566074610E-1,-5.842975378E-1,-6.695187092E-1
3.141937256E0,-9.795106649E-1,-5.118595958E-1,-6.546050310E-1
3.143951416E0,-1.008805394E0,-4.303668439E-1,-6.503439546E-1
3.145904541E0,-1.023719192E0,-3.653857112E-1,-6.508765817E-1
3.147857666E0,-1.029578090E0,-3.073287904E-1,-6.508765817E-1
3.149810791E0,-1.024784446E0,-2.695119083E-1,-6.487460732E-1
3.151794434E0,-1.001881242E0,-2.428802997E-1,-6.428871155E-1
3.153808594E0,-9.864348769E-1,-2.455434501E-1,-6.391586661E-1
3.155822754E0,-9.688580036E-1,-2.593919039E-1,-6.396912932E-1
3.157745362E0,-9.475527406E-1,-2.668487430E-1,-6.412891746E-1
3.159729004E0,-9.113337398E-1,-2.705771625E-1,-6.396912932E-1
3.161682129E0,-8.660600185E-1,-2.689792812E-1,-6.343649626E-1
3.163665772E0,-8.111988902E-1,-2.615224123E-1,-6.306365728E-1
3.165618897E0,-7.563377619E-1,-3.227751255E-1,-6.178534031E-1
3.167602539E0,-6.865629554E-1,-3.424825370E-1,-6.093312502E-1
3.169555664E0,-6.274407506E-1,-3.360909224E-1,-6.061354876E-1
3.171569825E0,-5.842975378E-1,-3.238403797E-1,-6.040049195E-1
3.173553467E0,-5.507417321E-1,-3.046656251E-1,-6.072007418E-1
3.175537110E0,-5.203816891E-1,-2.647182047E-1,-6.242449880E-1
3.177490235E0,-4.953479767E-1,-2.253034264E-1,-6.412891746E-1
3.179504395E0,-4.804342687E-1,-1.853560209E-1,-6.599313021E-1
3.181457520E0,-4.783037305E-1,-1.411475390E-1,-6.812366247E-1
3.183441162E0,-4.772384763E-1,-9.001484513E-2,-6.966829300E-1
3.185394287E0,-4.692489803E-1,-2.609897964E-2,-6.934871674E-1
3.187347412E0,-4.591289759E-1,3.302319720E-2,-6.668555737E-1
3.189300537E0,-4.591289759E-1,8.628641814E-2,-6.247776151E-1
3.191284180E0,-4.713795185E-1,1.283643693E-1,-5.763080716E-1
3.193298340E0,-4.953479767E-1,1.640507281E-1,-5.347627401E-1
3.195312500E0,-5.273059011E-1,2.045307755E-1,-5.012069345E-1
3.197265625E0,-5.555354357E-1,2.471413612E-1,-4.735100567E-1
3.199279785E0,-5.768406987E-1,2.764361203E-1,-4.431500137E-1
3.201202393E0,-5.928196907E-1,3.025351167E-1,-4.197141826E-1
3.203186035E0,-5.976133347E-1,3.110572100E-1,-4.048005044E-1
3.205139160E0,-6.040049195E-1,3.291667104E-1,-3.771036267E-1
3.207122803E0,-6.056028605E-1,3.478088379E-1,-3.499393761E-1
3.209045410E0,-6.040049195E-1,3.691141307E-1,-3.206445873E-1
3.211029053E0,-6.018744111E-1,3.904194236E-1,-2.902845740E-1
3.213043213E0,-6.002765298E-1,4.037352204E-1,-2.593919039E-1
3.215057373E0,-6.029396653E-1,4.090615511E-1,-2.279665917E-1
3.217010498E0,-6.018744111E-1,4.069310129E-1,-1.976065636E-1
3.218994141E0,-5.992112756E-1,3.973436356E-1,-1.720402092E-1
3.220916748E0,-5.981460214E-1,3.861583769E-1,-1.502022892E-1
3.222930909E0,-5.912217498E-1,3.760383427E-1,-1.294296384E-1
3.224945069E0,-5.885586143E-1,3.621899188E-1,-1.139832959E-1
3.226928711E0,-5.848301649E-1,3.520699143E-1,-1.059938148E-1
3.228881836E0,-5.837649107E-1,3.579288721E-1,-1.001348570E-1
3.230895996E0,-5.901564956E-1,3.755057156E-1,-9.906959534E-2
3.232879639E0,-6.018744111E-1,4.069310129E-1,-9.587380290E-2
3.234863282E0,-6.146575809E-1,4.436826408E-1,-1.001348570E-1
3.236785889E0,-6.343649626E-1,4.793690145E-1,-1.054611802E-1
3.238800049E0,-6.546050310E-1,5.097290277E-1,-1.171790883E-1
3.240753174E0,-6.785734296E-1,5.374259353E-1,-1.288969964E-1
3.242736817E0,-7.068029642E-1,5.608617067E-1,-1.368864775E-1
3.244689942E0,-7.323693037E-1,5.864281058E-1,-1.475391239E-1
3.246673584E0,-7.526093125E-1,6.141249537E-1,-1.539307088E-1
3.248626709E0,-7.739146352E-1,6.455502510E-1,-1.608549356E-1
3.250610352E0,-7.978830934E-1,6.604639888E-1,-1.752360016E-1
3.252624512E0,-8.234494328E-1,6.748450398E-1,-1.853560209E-1
3.254638672E0,-8.431568146E-1,6.913566589E-1,-1.954760253E-1
3.256683350E0,-8.580704927E-1,7.099987864E-1,-2.018676102E-1
3.258636475E0,-8.729842305E-1,7.281082273E-1,-2.087918371E-1
3.260559082E0,-8.905611038E-1,7.376956344E-1,-2.284992188E-1
3.262542725E0,-8.996158242E-1,7.360977530E-1,-2.530003190E-1
3.264587403E0,-9.065400362E-1,7.371630073E-1,-2.732403278E-1
3.266540528E0,-9.118663669E-1,7.329019308E-1,-3.030677438E-1
3.268463135E0,-9.134642482E-1,7.243798375E-1,-3.339604139E-1
3.270477295E0,-9.081379771E-1,7.094660997E-1,-3.637878001E-1
3.272399903E0,-9.006810784E-1,6.977482438E-1,-3.909520507E-1
3.274383545E0,-8.836368918E-1,6.812366247E-1,-4.197141826E-1
3.276306153E0,-8.649947643E-1,6.599313021E-1,-4.474110603E-1
3.278320313E0,-8.495483994E-1,6.338323355E-1,-4.756405652E-1
3.280242920E0,-8.223841786E-1,6.098638773E-1,-4.926848114E-1
3.282226563E0,-7.973504663E-1,5.779059529E-1,-5.091964006E-1
3.284179688E0,-7.696535587E-1,5.411543250E-1,-5.219795704E-1
3.286163330E0,-7.408914566E-1,5.065332651E-1,-5.246427655E-1
3.288116455E0,-7.110640407E-1,4.692489803E-1,-5.214469433E-1
3.290100098E0,-6.833671331E-1,4.308994710E-1,-5.171858668E-1
3.292022705E0,-6.492787004E-1,3.957457542E-1,-5.022721887E-1
3.294006348E0,-6.194512844E-1,3.616572917E-1,-4.868258536E-1
3.295959473E0,-5.928196907E-1,3.286340833E-1,-4.660531878E-1
3.297973633E0,-5.683186054E-1,2.870887816E-1,-4.447479248E-1
3.299926758E0,-5.443501472E-1,2.391518652E-1,-4.223773479E-1
3.301910401E0,-5.187838078E-1,1.885518134E-1,-3.984089196E-1
3.303955078E0,-4.942827225E-1,1.336906850E-1,-3.733751774E-1
3.305938721E0,-4.692489803E-1,7.936219871E-2,-3.478088379E-1
3.307830811E0,-4.468784332E-1,2.716424316E-2,-3.233077526E-1
3.309814453E0,-4.239752591E-1,-2.663161233E-2,-2.934803665E-1
3.311767578E0,-3.994741738E-1,-7.723167539E-2,-2.652508616E-1
3.313751221E0,-3.712446690E-1,-1.193096191E-1,-2.332929224E-1
3.315673828E0,-3.520699143E-1,-1.549959779E-1,-2.066612989E-1
3.317657471E0,-3.355582952E-1,-1.858886480E-1,-1.816275865E-1
3.319610596E0,-3.206445873E-1,-2.008023560E-1,-1.635181010E-1
3.321594239E0,-3.041329980E-1,-2.066612989E-1,-1.464738697E-1
3.323547364E0,-2.977414131E-1,-2.013349831E-1,-1.438107044E-1
3.325500489E0,-2.924150825E-1,-1.869539171E-1,-1.384843737E-1
3.327453614E0,-2.908172011E-1,-1.619201899E-1,-1.384843737E-1
3.329467774E0,-2.924150825E-1,-1.198422536E-1,-1.443433315E-1
3.331390381E0,-2.972087860E-1,-7.137271762E-2,-1.544633508E-1
3.333404541E0,-3.089267015E-1,-1.438106969E-2,-1.635181010E-1
3.335357666E0,-3.222424984E-1,4.527373984E-2,-1.763012707E-1
3.337371826E0,-3.398193717E-1,1.043959185E-1,-1.853560209E-1
3.339294434E0,-3.568635881E-1,1.592570394E-1,-1.965412945E-1
3.341278076E0,-3.781688809E-1,2.130528986E-1,-2.045307755E-1
3.343261719E0,-4.000068009E-1,2.647182047E-1,-2.103897333E-1
3.345245362E0,-4.229099751E-1,3.222424984E-1,-2.082591951E-1
3.347198487E0,-4.458131790E-1,3.829625845E-1,-1.992044598E-1
3.349182129E0,-4.644553065E-1,4.426173866E-1,-1.794970632E-1
3.351135254E0,-4.809668958E-1,4.942827225E-1,-1.560612470E-1
3.353149414E0,-4.985437691E-1,5.390238166E-1,-1.225054115E-1
3.355133057E0,-5.171858668E-1,5.747101903E-1,-8.149272949E-2
3.357116700E0,-5.326322317E-1,5.906891227E-1,-2.929477207E-2
3.359069825E0,-5.470132828E-1,5.832322836E-1,3.089267015E-2
3.361083985E0,-5.597964525E-1,5.523396134E-1,9.374327213E-2
3.363067627E0,-5.688512325E-1,5.086637735E-1,1.587243974E-1
3.365051270E0,-5.805691481E-1,4.617921412E-1,2.199771106E-1
3.367004395E0,-5.858954787E-1,4.101268053E-1,2.806971967E-1
3.368988037E0,-5.869607329E-1,3.733751774E-1,3.387540877E-1
3.371002198E0,-5.901564956E-1,3.456783295E-1,3.930825889E-1
3.373016358E0,-5.901564956E-1,3.275688291E-1,4.410194755E-1
3.374969483E0,-5.949501991E-1,3.142530024E-1,4.809668958E-1
3.376953125E0,-5.965480804E-1,2.982740402E-1,5.033374429E-1
3.378875733E0,-6.018744111E-1,2.870887816E-1,5.177185535E-1
3.380859375E0,-6.087986231E-1,2.764361203E-1,5.209143162E-1
3.382843018E0,-6.167881489E-1,2.727077007E-1,5.315669775E-1
3.384796143E0,-6.210491657E-1,2.918824553E-1,5.406216979E-1
3.386718750E0,-6.157228351E-1,3.249056637E-1,5.534048676E-1
3.388732910E0,-6.114618182E-1,3.701793849E-1,5.576659441E-1
3.390716553E0,-6.040049195E-1,4.335626364E-1,5.576659441E-1
3.392730713E0,-5.997439027E-1,5.107942820E-1,5.438175201E-1
3.394653321E0,-5.981460214E-1,5.970807076E-1,5.331648588E-1
3.396667481E0,-5.928196907E-1,6.886934638E-1,5.219795704E-1
3.398620606E0,-5.944175720E-1,7.946872711E-1,5.139901042E-1
3.400604248E0,-5.901564956E-1,8.745821118E-1,5.054680109E-1
3.402557373E0,-7.339671850E-1,1.127049804E0,5.017395616E-1
3.404510498E0,-6.093312502E-1,9.875001311E-1,4.932174385E-1
3.406463623E0,-6.215817928E-1,1.030643344E0,4.926848114E-1
3.408447266E0,-6.290386319E-1,1.032773852E0,4.905542731E-1
3.410461426E0,-6.407565475E-1,1.048752904E0,4.905542731E-1
3.412475586E0,-6.530070901E-1,1.045024395E0,4.836300611E-1
3.414428711E0,-6.588660479E-1,1.053013921E0,4.708468914E-1
3.416442871E0,-6.572681665E-1,1.056742311E0,4.511395097E-1
3.418365479E0,-6.572681665E-1,1.066862345E0,4.271710515E-1
3.420349121E0,-6.540724039E-1,1.084439158E0,4.032025933E-1
3.422302246E0,-6.508765817E-1,1.095624447E0,3.802994192E-1
3.424285889E0,-6.519418359E-1,1.105744481E0,3.637878001E-1
3.426239014E0,-6.540724039E-1,1.094559193E0,3.584614992E-1
3.428192139E0,-6.524744630E-1,1.059938192E0,3.568635881E-1
3.430206299E0,-6.572681665E-1,1.015197039E0,3.637878001E-1
3.432220459E0,-6.652576327E-1,9.507485032E-1,3.739078343E-1
3.434173584E0,-6.785734296E-1,8.772453070E-1,3.850930929E-1
3.436157227E0,-6.918892860E-1,8.058725595E-1,3.968110085E-1
3.438079834E0,-7.094660997E-1,7.286409140E-1,4.042678475E-1
3.440093994E0,-7.318366766E-1,6.599313021E-1,4.106594622E-1
3.442077637E0,-7.499461770E-1,6.040049195E-1,4.122573435E-1
3.444030762E0,-7.637946010E-1,5.603290796E-1,4.154531360E-1
3.445953369E0,-7.653924823E-1,5.219795704E-1,4.186489284E-1
3.447937012E0,-7.621967196E-1,5.075985193E-1,4.186489284E-1
3.449951172E0,-7.595335841E-1,4.937500656E-1,4.138552547E-1
3.451934815E0,-7.382282615E-1,4.703142643E-1,3.930825889E-1
3.453948975E0,-7.259777188E-1,4.585963488E-1,3.648530841E-1
3.455963135E0,-7.115966678E-1,4.527373910E-1,3.312972486E-1
3.457916260E0,-7.004113793E-1,4.399542212E-1,2.945456207E-1
3.459899903E0,-6.844323874E-1,4.324973822E-1,2.599245310E-1
3.461944580E0,-6.732471585E-1,4.213120937E-1,2.215750068E-1
3.463928223E0,-6.652576327E-1,3.984089196E-1,1.800296903E-1
3.465850830E0,-6.604639888E-1,3.834952116E-1,1.352885813E-1
3.467834473E0,-6.572681665E-1,3.755057156E-1,1.139832959E-1
3.469787598E0,-6.535397172E-1,3.659183383E-1,6.870955974E-2
3.471771241E0,-6.492787004E-1,3.552657068E-1,2.024002373E-2
3.473693848E0,-6.482134461E-1,3.467435837E-1,-2.343581803E-2
3.475677491E0,-6.412891746E-1,3.408846259E-1,-6.817692518E-2
3.477630616E0,-6.402239203E-1,3.398193717E-1,-1.161138266E-1
3.479644776E0,-6.439523697E-1,3.563309610E-1,-1.624528319E-1
3.481628418E0,-6.450176239E-1,3.850930929E-1,-2.055960447E-1
3.483581543E0,-6.503439546E-1,4.143878818E-1,-2.498045117E-1
3.485504151E0,-6.524744630E-1,4.362258017E-1,-2.860234976E-1
3.487518311E0,-6.583334208E-1,4.554005563E-1,-3.227751255E-1
3.489440918E0,-6.695187092E-1,4.655205607E-1,-3.488741219E-1
3.491424561E0,-6.807039976E-1,4.633900523E-1,-3.728425503E-1
3.493347168E0,-6.908239722E-1,4.580637217E-1,-3.877562582E-1
3.495361328E0,-7.030745149E-1,4.458131790E-1,-4.032025933E-1
3.497314453E0,-7.089334726E-1,4.223773479E-1,-4.202468395E-1
3.499298096E0,-7.190535069E-1,4.079962969E-1,-4.340952635E-1
3.501251221E0,-7.243798375E-1,3.984089196E-1,-4.420847595E-1
3.503204346E0,-7.249124646E-1,3.877562582E-1,-4.468784332E-1
3.505157471E0,-7.286409140E-1,3.808320463E-1,-4.522047639E-1
3.507141114E0,-7.307714224E-1,3.765709996E-1,-4.564658105E-1
3.509155274E0,-7.329019308E-1,3.781688809E-1,-4.554005563E-1
3.511169434E0,-7.344998717E-1,3.818973005E-1,-4.463458061E-1
3.513122559E0,-7.275756001E-1,3.755057156E-1,-4.372910559E-1
3.515136719E0,-7.190535069E-1,3.675162494E-1,-4.303668439E-1
3.517059326E0,-7.057377100E-1,3.547330499E-1,-4.245078862E-1
3.519042969E0,-6.956176758E-1,3.387540877E-1,-4.229099751E-1
3.520996094E0,-6.876282096E-1,3.286340833E-1,-4.229099751E-1
3.522979737E0,-6.791061163E-1,3.424825370E-1,-4.170510471E-1
3.524902344E0,-6.695187092E-1,3.771036267E-1,-4.186489284E-1
3.526885987E0,-6.625944972E-1,4.245078862E-1,-4.239752591E-1
3.528839112E0,-6.476807594E-1,4.703142643E-1,-4.324973822E-1
3.530853272E0,-6.460828781E-1,5.171858668E-1,-4.314320982E-1
3.532806397E0,-6.503439546E-1,5.470132828E-1,-4.346278906E-1
3.534790039E0,-6.599313021E-1,5.725796223E-1,-4.426173866E-1
3.536712647E0,-6.764429212E-1,5.864281058E-1,-4.452805519E-1
3.538726807E0,-7.004113793E-1,5.922870636E-1,-4.420847595E-1
3.540740967E0,-7.227819562E-1,5.981460214E-1,-4.356931746E-1
3.542724610E0,-7.440872192E-1,5.912217498E-1,-4.266384244E-1
3.544677735E0,-7.712514400E-1,5.747101903E-1,-4.143878818E-1
3.546691895E0,-7.882956862E-1,5.534048676E-1,-4.005394280E-1
3.548614502E0,-8.058725595E-1,5.289037824E-1,-3.962783813E-1
3.550598145E0,-8.165252209E-1,4.969458580E-1,-3.973436356E-1
3.552612305E0,-8.234494328E-1,4.655205607E-1,-3.946804702E-1
3.554595948E0,-8.319715261E-1,4.372910559E-1,-4.032025933E-1
3.556518555E0,-8.356999755E-1,4.090615511E-1,-4.106594622E-1
3.558532715E0,-8.383631110E-1,3.659183383E-1,-4.223773479E-1
3.560485840E0,-8.383631110E-1,3.121224940E-1,-4.378236830E-1
3.562469483E0,-8.319715261E-1,2.689792812E-1,-4.554005563E-1
3.564422608E0,-8.250473142E-1,2.364887148E-1,-4.697816372E-1
3.566406250E0,-8.138620257E-1,2.119876295E-1,-4.889563918E-1
3.568420410E0,-8.000136018E-1,1.976065636E-1,-5.113269091E-1
3.570434571E0,-7.866978049E-1,1.869539171E-1,-5.315669775E-1
3.572387696E0,-7.696535587E-1,1.688444167E-1,-5.550028086E-1
3.574401856E0,-7.563377619E-1,1.427454352E-1,-5.704491138E-1
3.576324463E0,-7.408914566E-1,1.336906850E-1,-5.848301649E-1
3.578308106E0,-7.270429730E-1,1.528654546E-1,-5.922870636E-1
3.580291748E0,-7.110640407E-1,1.981391907E-1,-5.928196907E-1
3.582275391E0,-7.068029642E-1,2.284992188E-1,-5.970807076E-1
3.584197998E0,-6.924219131E-1,2.604571581E-1,-5.944175720E-1
3.586181641E0,-6.801713705E-1,2.705771625E-1,-5.880259871E-1
3.588195801E0,-6.593986750E-1,2.785666585E-1,-5.821670294E-1
3.590209961E0,-6.375607848E-1,2.806971967E-1,-5.768406987E-1
3.592163086E0,-6.077333689E-1,2.796319127E-1,-5.608617067E-1
3.594146729E0,-5.800365210E-1,2.711097896E-1,-5.486112237E-1
3.596069336E0,-5.486112237E-1,2.716424465E-1,-5.299690962E-1
3.598083496E0,-5.134574771E-1,2.615224123E-1,-5.065332651E-1
3.600067139E0,-4.761732221E-1,2.519350350E-1,-4.783037305E-1
3.602020264E0,-4.351605177E-1,2.407497615E-1,-4.506068528E-1
3.603942871E0,-3.978762627E-1,2.327602804E-1,-4.234426320E-1
3.605957032E0,-3.584614992E-1,2.199771106E-1,-3.914846778E-1
3.607971192E0,-3.206445873E-1,2.135855258E-1,-3.653857112E-1
3.609954834E0,-2.838929892E-1,1.992044598E-1,-3.307646215E-1
3.611877442E0,-2.492718846E-1,1.826928556E-1,-2.785666585E-1
3.613891602E0,-2.135855258E-1,1.672465205E-1,-2.199771106E-1
3.615844727E0,-1.858886480E-1,1.438107044E-1,-1.470064968E-1
3.617828369E0,-1.603222936E-1,1.209075153E-1,-5.432848632E-2
3.619873047E0,-1.331580579E-1,9.747169912E-2,2.876213938E-2
3.621856690E0,-1.123853996E-1,7.882957160E-2,1.086569726E-1
3.623809815E0,-8.788431436E-2,5.965480953E-2,1.880191714E-1
3.625762940E0,-6.072007492E-2,3.036003746E-2,2.684466541E-1
3.627777100E0,-2.822950855E-2,-9.587380104E-3,3.435477912E-1
3.629791260E0,-3.195793368E-3,-6.018744037E-2,4.143878818E-1
3.631744385E0,2.503371425E-2,-1.107875034E-1,4.830974340E-1
3.633728028E0,4.420847446E-2,-1.619201899E-1,5.480785370E-1
3.635650635E0,5.379585549E-2,-2.215750068E-1,6.008091569E-1
3.637634278E0,5.752427876E-2,-2.918824553E-1,6.412891746E-1
3.639617920E0,5.592638254E-2,-3.648530841E-1,6.583334208E-1
3.641571045E0,4.793690145E-2,-4.340952635E-1,6.684534550E-1
3.643493653E0,3.728425503E-2,-5.028048158E-1,6.673882008E-1
3.645507813E0,2.130528912E-2,-5.624596477E-1,6.620618701E-1
3.647521973E0,0.000000000E0,-6.018744111E-1,6.471481323E-1
3.649505616E0,-1.757686399E-2,-6.380934119E-1,6.588660479E-1
3.651550293E0,-3.941478580E-2,-6.657902598E-1,6.652576327E-1
3.653503418E0,-6.072007492E-2,-7.004113793E-1,6.583334208E-1
3.655456543E0,-7.989483327E-2,-7.227819562E-1,6.348975897E-1
3.657440186E0,-1.075917110E-1,-7.291735411E-1,5.885586143E-1
3.659484864E0,-1.400822699E-1,-7.089334726E-1,5.273059011E-1
3.661468506E0,-2.316950262E-1,-6.370281577E-1,4.229099751E-1
3.663391114E0,-2.956108749E-1,-6.178534031E-1,3.057309091E-1
3.665374756E0,-3.121224940E-1,-5.672533512E-1,2.045307755E-1
3.667327881E0,-3.083940744E-1,-5.475459099E-1,1.235706806E-1
3.669311524E0,-2.961435318E-1,-5.171858668E-1,5.486112088E-2
3.671234131E0,-2.743056118E-1,-4.740426838E-1,-9.587380104E-3
3.673217774E0,-2.428802997E-1,-4.250405133E-1,-6.604639441E-2
3.675170899E0,-2.034655064E-1,-3.728425503E-1,-1.225054115E-1
3.677185059E0,-1.661812514E-1,-3.275688291E-1,-1.752360016E-1
3.679168701E0,-1.288969964E-1,-2.945456207E-1,-2.098570913E-1
3.681121826E0,-9.534116834E-2,-2.684466541E-1,-2.306297570E-1
3.683044434E0,-6.604639441E-2,-2.514024079E-1,-2.396845073E-1
3.685058594E0,-3.728425503E-2,-2.657834888E-1,-2.247707993E-1
3.687011719E0,-1.331580617E-2,-2.966761589E-1,-2.077265680E-1
3.688995362E0,8.522115648E-3,-3.488741219E-1,-1.768338978E-1
3.690917969E0,2.450108156E-2,-4.079962969E-1,-1.390170157E-1
3.692901612E0,3.249056637E-2,-4.708468914E-1,-1.022653878E-1
3.694854737E0,3.941478580E-2,-5.278385282E-1,-5.805691332E-2
3.696868897E0,3.515372798E-2,-5.736449361E-1,-1.118527725E-2
3.698883057E0,3.195793182E-2,-6.056028605E-1,3.568635881E-2
3.700836182E0,2.077265643E-2,-6.274407506E-1,7.190535218E-2
3.702789307E0,1.118527725E-2,-6.498113275E-1,1.006674916E-1
3.704772950E0,-2.130528912E-3,-6.684534550E-1,1.278317273E-1
3.706726075E0,-1.704423130E-2,-6.881608367E-1,1.464738697E-1
3.708740235E0,-3.195793182E-2,-6.988134980E-1,1.635181010E-1
3.710693360E0,-4.314320907E-2,-7.004113793E-1,1.752360016E-1
3.712677002E0,-5.432848632E-2,-7.014766335E-1,1.800296903E-1
3.714599610E0,-6.977482140E-2,-7.094660997E-1,1.816275865E-1
3.716613770E0,-8.894958347E-2,-7.004113793E-1,1.773665249E-1
3.718597412E0,-1.139832959E-1,-6.769755483E-1,1.715075821E-1
3.720550537E0,-1.288969964E-1,-6.647250056E-1,1.704423130E-1
3.722473145E0,-1.512675583E-1,-6.450176239E-1,1.683117896E-1
3.724487305E0,-1.699096859E-1,-6.285060048E-1,1.656486243E-1
3.726409912E0,-1.826928556E-1,-6.178534031E-1,1.640507281E-1
3.728393555E0,-1.938781291E-1,-6.013417840E-1,1.565938741E-1
3.730316162E0,-2.119876295E-1,-5.842975378E-1,1.512675583E-1
3.732330323E0,-2.306297570E-1,-5.608617067E-1,1.454086006E-1
3.734283448E0,-2.482066154E-1,-5.155879855E-1,1.320927888E-1
3.736267090E0,-2.652508616E-1,-4.703142643E-1,1.177117229E-1
3.738220215E0,-2.817624509E-1,-4.324973822E-1,1.022653878E-1
3.740173340E0,-2.988066673E-1,-4.133225977E-1,9.054747969E-2
3.742126465E0,-3.153182864E-1,-3.904194236E-1,8.468852192E-2
3.744110108E0,-3.376888335E-1,-3.627225459E-1,8.575379103E-2
3.746063233E0,-3.515372574E-1,-3.579288721E-1,8.735168725E-2
3.748077393E0,-3.653857112E-1,-3.557983339E-1,8.628641814E-2
3.750061035E0,-3.771036267E-1,-3.542004228E-1,8.681905270E-2
3.752075196E0,-3.925499618E-1,-3.611246645E-1,8.841694891E-2
3.753997803E0,-4.058657587E-1,-3.691141307E-1,8.788431436E-2
3.756011963E0,-4.154531360E-1,-3.776362538E-1,7.616640627E-2
3.757965088E0,-4.207794666E-1,-3.898867965E-1,6.870955974E-2
3.759948731E0,-4.271710515E-1,-3.962783813E-1,5.645901710E-2
3.761871338E0,-4.229099751E-1,-3.962783813E-1,4.527373984E-2
3.763854981E0,-4.207794666E-1,-3.898867965E-1,2.929477207E-2
3.765808106E0,-4.170510471E-1,-3.744404614E-1,9.054748341E-3
3.767822266E0,-4.133225977E-1,-3.462109566E-1,-1.065264456E-2
3.769775391E0,-4.117247164E-1,-3.115898669E-1,-3.621899337E-2
3.771759034E0,-4.149205089E-1,-2.657834888E-1,-6.444849819E-2
3.773681641E0,-4.186489284E-1,-2.114549875E-1,-1.022653878E-1
3.775695801E0,-4.239752591E-1,-1.549959779E-1,-1.432780623E-1
3.777679444E0,-4.303668439E-1,-1.059938148E-1,-1.906823367E-1
3.779632569E0,-4.335626364E-1,-6.285060197E-2,-2.348908186E-1
3.781555176E0,-4.388889670E-1,-3.462109342E-2,-2.833603323E-1
3.783569336E0,-4.415521026E-1,-1.278317347E-2,-3.281014562E-1
3.785491944E0,-4.458131790E-1,0.000000000E0,-3.744404614E-1
3.787475586E0,-4.420847595E-1,1.278317347E-2,-4.186489284E-1
3.789398194E0,-4.415521026E-1,2.663161233E-2,-4.607268870E-1
3.791412354E0,-4.415521026E-1,3.568635881E-2,-5.049353242E-1
3.793365479E0,-4.383563101E-1,4.740426689E-2,-5.470132828E-1
3.795349121E0,-4.367584288E-1,4.740426689E-2,-5.858954787E-1
3.797302246E0,-4.319647253E-1,4.793690145E-2,-6.183860302E-1
3.799285889E0,-4.213120937E-1,4.474110901E-2,-6.514092088E-1
3.801239014E0,-4.069310129E-1,3.036003746E-2,-6.759102941E-1
3.803222657E0,-3.941478431E-1,1.171790902E-2,-6.972155571E-1
3.805175782E0,-3.792341352E-1,-1.384843793E-2,-7.169229984E-1
3.807159424E0,-3.637878001E-1,-4.154531285E-2,-7.233145833E-1
3.809082032E0,-3.531351686E-1,-5.486112088E-2,-7.238472104E-1
3.811065674E0,-3.307646215E-1,-9.161274135E-2,-7.126619220E-1
3.813018799E0,-3.009372056E-1,-1.336906850E-1,-6.934871674E-1
3.815032959E0,-2.711097896E-1,-1.816275865E-1,-6.652576327E-1
3.817016602E0,-2.300971150E-1,-2.279665917E-1,-6.247776151E-1
3.818969727E0,-1.912149638E-1,-2.695119083E-1,-5.805691481E-1
3.820892334E0,-1.496696621E-1,-3.009372056E-1,-5.320996046E-1
3.822906494E0,-1.054611802E-1,-3.249056637E-1,-4.799016416E-1
3.824829102E0,-5.752427876E-2,-3.387540877E-1,-4.250405133E-1
3.826812744E0,-3.728425596E-3,-3.382214606E-1,-3.712446690E-1
3.828735352E0,4.207794741E-2,-3.323625028E-1,-3.179814517E-1
3.830749512E0,9.214537591E-2,-3.110572100E-1,-2.625876963E-1
3.832702637E0,1.406149119E-1,-2.860234976E-1,-2.082591951E-1
3.834686280E0,1.880191714E-1,-2.524676621E-1,-1.571265012E-1
3.836639405E0,2.279665917E-1,-2.066612989E-1,-1.107875034E-1
3.838623047E0,2.636529505E-1,-1.576591432E-1,-6.285060197E-2
3.840576172E0,2.940129936E-1,-1.139832959E-1,-1.970739290E-2
3.842559815E0,3.126551211E-1,-7.456851006E-2,1.864212751E-2
3.844482422E0,3.270362020E-1,-5.273059011E-2,5.486112088E-2
3.846496582E0,3.339604139E-1,-3.781688958E-2,9.161274135E-2
3.848480225E0,3.233077526E-1,-3.195793182E-2,1.278317273E-1
3.850494385E0,3.089267015E-1,-4.420847446E-2,1.613875628E-1
3.852416992E0,2.844256163E-1,-6.125270575E-2,2.039981484E-1
3.854431153E0,2.455434501E-1,-9.587380290E-2,2.535329461E-1
3.856384278E0,2.146507949E-1,-1.454086006E-1,2.918824553E-1
3.858367920E0,1.842907518E-1,-1.970739216E-1,3.190467060E-1
3.860321045E0,1.544633508E-1,-2.380866110E-1,3.446130455E-1
3.862335205E0,1.150485575E-1,-2.854908705E-1,3.749730885E-1
3.864318848E0,7.882957160E-2,-3.089267015E-1,4.063983858E-1
3.866302491E0,3.781688958E-2,-2.977414131E-1,4.245078862E-1
3.868255616E0,-1.597896684E-3,-3.009372056E-1,4.426173866E-1
3.870269776E0,-3.089267015E-2,-3.062635362E-1,4.506068528E-1
3.872222901E0,-6.178534031E-2,-3.275688291E-1,4.644553065E-1
3.874176026E0,-8.522115648E-2,-3.430151641E-1,4.756405652E-1
3.876129151E0,-1.065264493E-1,-3.632551730E-1,4.905542731E-1
3.878112793E0,-1.161138266E-1,-3.829625845E-1,5.054680109E-1
3.880035401E0,-1.347559541E-1,-3.957457542E-1,5.177185535E-1
3.882019043E0,-1.491370201E-1,-4.186489284E-1,5.384911895E-1
3.884033203E0,-1.683117896E-1,-4.335626364E-1,5.597964525E-1
3.886047364E0,-1.725728363E-1,-4.564658105E-1,5.699164867E-1
3.888000489E0,-1.736381054E-1,-4.751079381E-1,5.853627920E-1
3.889984131E0,-1.699096859E-1,-4.932174385E-1,6.018744111E-1
3.891906739E0,-1.603222936E-1,-5.022721887E-1,6.231797338E-1
3.893920899E0,-1.475391239E-1,-5.022721887E-1,6.482134461E-1
3.895904541E0,-1.374191195E-1,-4.958806038E-1,6.721818447E-1
3.897857666E0,-1.139832959E-1,-4.830974340E-1,6.924219131E-1
3.899780274E0,-8.841694891E-2,-4.548679292E-1,7.169229984E-1
3.901794434E0,-6.924218684E-2,-4.202468395E-1,7.344998717E-1
3.903808594E0,-3.728425503E-2,-3.834952116E-1,7.579356432E-1
3.905792237E0,-3.195793368E-3,-3.462109566E-1,7.776430249E-1
3.907714844E0,3.142530099E-2,-2.940129936E-1,7.936220169E-1
3.909698487E0,6.711166352E-2,-2.306297570E-1,8.026767969E-1
3.911651612E0,1.091896072E-1,-1.571265012E-1,8.149272799E-1
3.913635254E0,1.597896665E-1,-8.096009493E-2,8.255799413E-1
3.915588379E0,2.061286718E-1,-4.793690052E-3,8.287757635E-1
3.917541504E0,2.311623842E-1,3.888215125E-2,8.293083906E-1
3.919494629E0,2.929477394E-1,1.145159304E-1,8.367652297E-1
3.921478272E0,3.494067490E-1,1.928128600E-1,8.372978568E-1
3.923492432E0,4.016047120E-1,2.727077007E-1,8.367652297E-1
3.925476075E0,4.671184719E-1,3.424825370E-1,8.314388990E-1
3.927429200E0,5.198490620E-1,4.133225977E-1,8.186557293E-1
3.929443360E0,5.757754445E-1,4.846953154E-1,8.096010089E-1
3.931396485E0,6.205165386E-1,5.443501472E-1,7.914915085E-1
3.933349610E0,6.615292430E-1,5.992112756E-1,7.781757116E-1
3.935394287E0,6.876282096E-1,6.567355394E-1,7.621967196E-1
3.937347412E0,7.025418878E-1,6.998787522E-1,7.430219650E-1
