"Time (s)","Acceleration x (m/s^2)","Acceleration y (m/s^2)","Acceleration z (m/s^2)"
0.000000000E0,-2.086845636E0,4.918204784E0,8.611019135E0
1.986823000E-3,-2.072472811E0,4.932577610E0,8.601437569E0
3.979635000E-3,-2.062890768E0,4.937368393E0,8.539155006E0
5.960781000E-3,-2.062890768E0,4.922995567E0,8.457708359E0
7.942135000E-3,-2.048517942E0,4.951741219E0,8.381052971E0
9.923906000E-3,-2.043727160E0,4.956532478E0,8.299607277E0
1.190630200E-2,-2.072472811E0,4.985278130E0,8.246906281E0
1.388947900E-2,-2.077263832E0,4.980487347E0,8.213370323E0
1.587354100E-2,-2.091636658E0,4.994860172E0,8.165460587E0
1.785802100E-2,-2.106009483E0,5.018814564E0,8.131923676E0
1.984250000E-2,-2.106009483E0,5.014023781E0,8.098386765E0
2.182822900E-2,-2.134755135E0,4.999650955E0,8.088805199E0
2.381520800E-2,-2.139546156E0,5.028396606E0,8.069641113E0
2.580338500E-2,-2.149128199E0,5.033187866E0,8.055268288E0
2.779265600E-2,-2.144337177E0,5.057142258E0,8.012149811E0
2.978291600E-2,-2.168292046E0,5.047560692E0,7.988194466E0
3.177395800E-2,-2.182664871E0,5.037978649E0,7.973821640E0
3.376567700E-2,-2.168292046E0,5.052351475E0,7.964239597E0
3.575807300E-2,-2.216201544E0,5.033187866E0,7.978612423E0
3.775109300E-2,-2.177873850E0,5.081097126E0,7.945075989E0
3.974463500E-2,-2.168292046E0,5.066724300E0,7.954657555E0
4.173854100E-2,-2.153918982E0,5.071515083E0,7.949866772E0
4.373265600E-2,-2.144337177E0,5.085888386E0,7.978612423E0
4.572677100E-2,-2.144337177E0,5.095469952E0,7.983403683E0
4.771755200E-2,-2.125173330E0,5.085888386E0,8.016940117E0
4.970739600E-2,-2.110800505E0,5.090679169E0,8.040895462E0
5.169723900E-2,-2.106009483E0,5.095469952E0,8.060059547E0
5.368708300E-2,-2.091636658E0,5.095469952E0,8.093596458E0
5.567692700E-2,-2.043727160E0,5.095469952E0,8.107969284E0
5.766677100E-2,-2.048517942E0,5.085888386E0,8.122342110E0
5.965661400E-2,-2.019772291E0,5.095469952E0,8.131923676E0
6.164640600E-2,-2.034145117E0,5.090679169E0,8.160669327E0
6.363619800E-2,-2.043727160E0,5.090679169E0,8.179833412E0
6.562598900E-2,-2.038936138E0,5.071515083E0,8.203787804E0
6.761578100E-2,-2.067681789E0,5.076306343E0,8.213370323E0
6.960557300E-2,-2.067681789E0,5.081097126E0,8.213370323E0
7.159536400E-2,-2.120382309E0,5.081097126E0,8.194206238E0
7.358515600E-2,-2.115591288E0,5.081097126E0,8.194206238E0
7.557494800E-2,-2.144337177E0,5.071515083E0,8.189414978E0
7.756473900E-2,-2.163501024E0,5.052351475E0,8.165460587E0
7.955453100E-2,-2.177873850E0,5.061933517E0,8.151087761E0
8.154432300E-2,-2.197037697E0,5.076306343E0,8.170250893E0
8.353411400E-2,-2.201828718E0,5.076306343E0,8.141505241E0
8.552390600E-2,-2.201828718E0,5.061933517E0,8.131923676E0
8.751369800E-2,-2.187455654E0,5.061933517E0,8.103178024E0
8.950348900E-2,-2.206619501E0,5.071515083E0,8.074432373E0
9.149328100E-2,-2.211410522E0,5.076306343E0,8.074432373E0
9.348307300E-2,-2.216201544E0,5.076306343E0,8.084013939E0
9.547286400E-2,-2.216201544E0,5.071515083E0,8.098386765E0
9.746265600E-2,-2.225783348E0,5.085888386E0,8.088805199E0
9.945244800E-2,-2.220992565E0,5.090679169E0,8.098386765E0
1.014422390E-1,-2.220992565E0,5.085888386E0,8.103178024E0
1.034320310E-1,-2.225783348E0,5.095469952E0,8.107969284E0
1.054218230E-1,-2.201828718E0,5.085888386E0,8.136714935E0
1.074116140E-1,-2.216201544E0,5.090679169E0,8.165460587E0
1.094014060E-1,-2.216201544E0,5.105051994E0,8.194206238E0
1.113912500E-1,-2.211410522E0,5.109842777E0,8.227743149E0
1.133810930E-1,-2.187455654E0,5.085888386E0,8.261279106E0
1.153709370E-1,-2.192246675E0,5.090679169E0,8.266070366E0
1.173607810E-1,-2.158710003E0,5.090679169E0,8.246906281E0
1.193506250E-1,-2.134755135E0,5.085888386E0,8.266070366E0
1.213404680E-1,-2.125173330E0,5.100261211E0,8.256488800E0
1.233303120E-1,-2.101218462E0,5.090679169E0,8.256488800E0
1.253201560E-1,-2.115591288E0,5.052351475E0,8.270861626E0
1.273100000E-1,-2.101218462E0,5.081097126E0,8.251697540E0
1.292998430E-1,-2.106009483E0,5.090679169E0,8.304398537E0
1.312896870E-1,-2.120382309E0,5.076306343E0,8.328352928E0
1.332795310E-1,-2.106009483E0,5.071515083E0,8.357098579E0
1.352693750E-1,-2.153918982E0,5.071515083E0,8.366680145E0
1.372592180E-1,-2.211410522E0,5.071515083E0,8.409799576E0
1.392490620E-1,-2.216201544E0,5.090679169E0,8.438545227E0
1.412389060E-1,-2.230574369E0,5.109842777E0,8.448126793E0
1.432287500E-1,-2.244947195E0,5.095469952E0,8.433753967E0
1.452185930E-1,-2.244947195E0,5.109842777E0,8.428962708E0
1.472084370E-1,-2.268902063E0,5.114634037E0,8.409799576E0
1.491982810E-1,-2.254529238E0,5.119424820E0,8.390635490E0
1.511881250E-1,-2.240156174E0,5.114634037E0,8.376262665E0
1.531779680E-1,-2.216201544E0,5.129006863E0,8.366680145E0
1.551678120E-1,-2.220992565E0,5.143379688E0,8.342725754E0
1.571576560E-1,-2.220992565E0,5.138588905E0,8.323561668E0
1.591475000E-1,-2.220992565E0,5.133797646E0,8.285234451E0
1.611373430E-1,-2.220992565E0,5.143379688E0,8.256488800E0
1.631271870E-1,-2.216201544E0,5.133797646E0,8.237324715E0
1.651170310E-1,-2.216201544E0,5.124215603E0,8.194206238E0
1.671068750E-1,-2.206619501E0,5.114634037E0,8.189414978E0
1.690967180E-1,-2.182664871E0,5.133797646E0,8.165460587E0
1.710865620E-1,-2.168292046E0,5.133797646E0,8.146296501E0
1.730764060E-1,-2.144337177E0,5.148170471E0,8.098386765E0
1.750662500E-1,-2.144337177E0,5.129006863E0,8.112759590E0
1.770560930E-1,-2.115591288E0,5.114634037E0,8.088805199E0
1.790459370E-1,-2.125173330E0,5.133797646E0,8.064849854E0
1.810357810E-1,-2.115591288E0,5.129006863E0,8.050477028E0
1.830256250E-1,-2.106009483E0,5.129006863E0,8.050477028E0
1.850154680E-1,-2.096427679E0,5.119424820E0,8.040895462E0
1.870053120E-1,-2.091636658E0,5.114634037E0,8.050477028E0
1.889951560E-1,-2.077263832E0,5.105051994E0,8.050477028E0
1.909850000E-1,-2.082054615E0,5.090679169E0,8.045686722E0
1.929748430E-1,-2.086845636E0,5.071515083E0,8.060059547E0
1.949646870E-1,-2.106009483E0,5.066724300E0,8.079222679E0
1.969545310E-1,-2.101218462E0,5.066724300E0,8.093596458E0
1.989443750E-1,-2.086845636E0,5.057142258E0,8.103178024E0
2.009342180E-1,-2.101218462E0,5.037978649E0,8.112759590E0
2.029240620E-1,-2.110800505E0,5.052351475E0,8.127132416E0
2.049139060E-1,-2.139546156E0,5.023605824E0,8.151087761E0
2.069037500E-1,-2.134755135E0,5.014023781E0,8.175042152E0
2.088935930E-1,-2.129964352E0,5.018814564E0,8.184623718E0
2.108834370E-1,-2.144337177E0,5.009232998E0,8.218160629E0
2.128732810E-1,-2.139546156E0,5.009232998E0,8.227743149E0
2.148631250E-1,-2.153918982E0,4.994860172E0,8.275651932E0
2.168529680E-1,-2.173082829E0,4.990068913E0,8.309188843E0
2.188428120E-1,-2.168292046E0,4.994860172E0,8.313980103E0
2.208326560E-1,-2.153918982E0,5.004441738E0,8.357098579E0
2.228225000E-1,-2.158710003E0,5.004441738E0,8.390635490E0
2.248123430E-1,-2.139546156E0,4.990068913E0,8.390635490E0
2.268021870E-1,-2.129964352E0,4.999650955E0,8.400217056E0
2.287920310E-1,-2.149128199E0,4.980487347E0,8.414589882E0
2.307818750E-1,-2.149128199E0,4.990068913E0,8.395426750E0
2.327717180E-1,-2.158710003E0,4.999650955E0,8.381052971E0
2.347615620E-1,-2.153918982E0,4.990068913E0,8.381052971E0
2.367514060E-1,-2.168292046E0,4.999650955E0,8.352307320E0
2.387412500E-1,-2.168292046E0,4.990068913E0,8.357098579E0
2.407310930E-1,-2.201828718E0,5.023605824E0,8.381052971E0
2.427209370E-1,-2.249738216E0,5.028396606E0,8.414589882E0
2.447107810E-1,-2.273693085E0,5.028396606E0,8.462499619E0
2.467006250E-1,-2.307229757E0,5.037978649E0,8.524782181E0
2.486904680E-1,-2.335975409E0,5.066724300E0,8.567900658E0
2.506803120E-1,-2.374303102E0,5.076306343E0,8.587064743E0
2.526701560E-1,-2.374303102E0,5.071515083E0,8.596646309E0
2.546600000E-1,-2.383884907E0,5.081097126E0,8.596646309E0
2.566498430E-1,-2.398257971E0,5.090679169E0,8.625391960E0
2.586396870E-1,-2.393466949E0,5.109842777E0,8.649347305E0
2.606295310E-1,-2.364721060E0,5.109842777E0,8.654137611E0
2.626193750E-1,-2.359930277E0,5.109842777E0,8.668510437E0
2.646092180E-1,-2.326393604E0,5.105051994E0,8.702047348E0
2.665990620E-1,-2.316811562E0,5.100261211E0,8.711629868E0
2.685889060E-1,-2.288065910E0,5.090679169E0,8.678092957E0
2.705787500E-1,-2.283274889E0,5.095469952E0,8.658928871E0
2.725685930E-1,-2.249738216E0,5.081097126E0,8.615810394E0
2.745584370E-1,-2.240156174E0,5.061933517E0,8.563109398E0
2.765482810E-1,-2.192246675E0,5.071515083E0,8.505618095E0
2.785381250E-1,-2.197037697E0,5.057142258E0,8.428962708E0
2.805279680E-1,-2.182664871E0,5.057142258E0,8.357098579E0
2.825178120E-1,-2.163501024E0,5.052351475E0,8.290025711E0
2.845076560E-1,-2.144337177E0,5.057142258E0,8.227743149E0
2.864975000E-1,-2.129964352E0,5.037978649E0,8.165460587E0
2.884873430E-1,-2.115591288E0,5.047560692E0,8.103178024E0
2.904771870E-1,-2.082054615E0,5.047560692E0,8.026522636E0
2.924670310E-1,-2.067681789E0,5.033187866E0,7.978612423E0
2.944568750E-1,-2.062890768E0,5.023605824E0,7.911539078E0
2.964467180E-1,-2.014981270E0,5.042769432E0,7.873211384E0
2.984365620E-1,-2.010190248E0,5.033187866E0,7.820510864E0
3.004264060E-1,-2.005399227E0,5.042769432E0,7.786974430E0
3.024162500E-1,-2.034145117E0,5.037978649E0,7.767810345E0
3.044061460E-1,-2.043727160E0,5.028396606E0,7.796555996E0
3.063960410E-1,-2.058099985E0,5.018814564E0,7.830092907E0
3.083859370E-1,-2.053308964E0,5.018814564E0,7.887584209E0
3.103758330E-1,-2.072472811E0,5.009232998E0,7.964239597E0
3.123657290E-1,-2.077263832E0,5.009232998E0,8.031313896E0
3.143556250E-1,-2.086845636E0,5.004441738E0,8.117550850E0
3.163455210E-1,-2.082054615E0,5.009232998E0,8.179833412E0
3.183354160E-1,-2.096427679E0,4.999650955E0,8.227743149E0
3.203253120E-1,-2.096427679E0,5.004441738E0,8.270861626E0
3.223152080E-1,-2.096427679E0,4.980487347E0,8.304398537E0
3.243051040E-1,-2.082054615E0,4.980487347E0,8.337934494E0
3.262950000E-1,-2.067681789E0,4.966114044E0,8.328352928E0
3.282848960E-1,-2.067681789E0,4.970905304E0,8.323561668E0
3.302747910E-1,-2.048517942E0,4.966114044E0,8.304398537E0
3.322646870E-1,-2.053308964E0,4.961323261E0,8.294816017E0
3.342545830E-1,-2.067681789E0,4.980487347E0,8.251697540E0
3.362444790E-1,-2.062890768E0,4.961323261E0,8.227743149E0
3.382343750E-1,-2.067681789E0,4.970905304E0,8.218160629E0
3.402242710E-1,-2.062890768E0,4.990068913E0,8.184623718E0
3.422141660E-1,-2.072472811E0,4.985278130E0,8.165460587E0
3.442040620E-1,-2.048517942E0,5.009232998E0,8.160669327E0
3.461939580E-1,-2.077263832E0,5.014023781E0,8.136714935E0
3.481838540E-1,-2.062890768E0,5.023605824E0,8.136714935E0
3.501737500E-1,-2.048517942E0,5.023605824E0,8.127132416E0
3.521636460E-1,-2.062890768E0,5.033187866E0,8.107969284E0
3.541534890E-1,-2.067681789E0,5.047560692E0,8.127132416E0
3.561433330E-1,-2.086845636E0,5.033187866E0,8.103178024E0
3.581331770E-1,-2.110800505E0,5.023605824E0,8.107969284E0
3.601230210E-1,-2.134755135E0,5.052351475E0,8.103178024E0
3.621128640E-1,-2.153918982E0,5.033187866E0,8.107969284E0
3.641027080E-1,-2.158710003E0,5.042769432E0,8.131923676E0
3.660925520E-1,-2.173082829E0,5.028396606E0,8.170250893E0
3.680823960E-1,-2.187455654E0,5.023605824E0,8.203787804E0
3.700722390E-1,-2.192246675E0,5.009232998E0,8.227743149E0
3.720620830E-1,-2.177873850E0,5.023605824E0,8.256488800E0
3.740519270E-1,-2.168292046E0,5.009232998E0,8.266070366E0
3.760417710E-1,-2.163501024E0,5.023605824E0,8.280443192E0
3.780316140E-1,-2.144337177E0,5.014023781E0,8.290025711E0
3.800214580E-1,-2.134755135E0,5.004441738E0,8.275651932E0
3.820113020E-1,-2.129964352E0,5.014023781E0,8.290025711E0
3.840011460E-1,-2.153918982E0,5.023605824E0,8.270861626E0
3.859909890E-1,-2.125173330E0,5.009232998E0,8.280443192E0
3.879808330E-1,-2.134755135E0,5.042769432E0,8.270861626E0
3.899706770E-1,-2.153918982E0,5.057142258E0,8.256488800E0
3.919605210E-1,-2.173082829E0,5.066724300E0,8.266070366E0
3.939503640E-1,-2.187455654E0,5.081097126E0,8.270861626E0
3.959402080E-1,-2.201828718E0,5.095469952E0,8.266070366E0
3.979300520E-1,-2.220992565E0,5.100261211E0,8.290025711E0
3.999198960E-1,-2.225783348E0,5.114634037E0,8.304398537E0
4.019097390E-1,-2.230574369E0,5.143379688E0,8.328352928E0
4.038995830E-1,-2.211410522E0,5.133797646E0,8.357098579E0
4.058894270E-1,-2.206619501E0,5.176916599E0,8.390635490E0
4.078792710E-1,-2.192246675E0,5.157752514E0,8.433753967E0
4.098691140E-1,-2.168292046E0,5.148170471E0,8.481663704E0
4.118589580E-1,-2.182664871E0,5.152961731E0,8.491245270E0
4.138488020E-1,-2.220992565E0,5.124215603E0,8.486454964E0
4.158386460E-1,-2.283274889E0,5.133797646E0,8.486454964E0
4.178284890E-1,-2.312020540E0,5.143379688E0,8.476872444E0
4.198183330E-1,-2.335975409E0,5.143379688E0,8.467290878E0
4.218081770E-1,-2.321602583E0,5.100261211E0,8.424172401E0
4.237980210E-1,-2.292856932E0,5.076306343E0,8.357098579E0
4.257878640E-1,-2.249738216E0,5.033187866E0,8.318771362E0
4.277777080E-1,-2.220992565E0,4.994860172E0,8.270861626E0
4.297675520E-1,-2.197037697E0,4.951741219E0,8.227743149E0
4.317573960E-1,-2.168292046E0,4.913413525E0,8.141505241E0
4.337472390E-1,-2.110800505E0,4.879877090E0,8.074432373E0
4.357370830E-1,-2.038936138E0,4.846340179E0,8.016940117E0
4.377269270E-1,-2.014981270E0,4.841549397E0,7.964239597E0
4.397167710E-1,-1.971862555E0,4.855922222E0,7.897166252E0
4.417066140E-1,-1.976653576E0,4.841549397E0,7.892375469E0
4.436964580E-1,-1.962280631E0,4.817594528E0,7.940284729E0
4.456863020E-1,-1.943116784E0,4.793639660E0,7.978612423E0
4.476761460E-1,-1.923953056E0,4.750521183E0,8.012149811E0
4.496659890E-1,-1.952698708E0,4.803221703E0,8.050477028E0
4.516558330E-1,-1.957489729E0,4.836758614E0,8.040895462E0
4.536456770E-1,-1.880834341E0,4.822385311E0,8.064849854E0
4.556355210E-1,-1.837715745E0,4.769684792E0,8.146296501E0
4.576253640E-1,-1.828133821E0,4.764894009E0,8.213370323E0
4.596152080E-1,-1.789806247E0,4.769684792E0,8.299607277E0
4.616050520E-1,-1.761060476E0,4.779266834E0,8.385844231E0
4.635948960E-1,-1.804179072E0,4.812803745E0,8.424172401E0
4.655847390E-1,-1.842506766E0,4.793639660E0,8.491245270E0
4.675745830E-1,-1.904789209E0,4.798430920E0,8.558319092E0
4.695644270E-1,-1.914371133E0,4.817594528E0,8.601437569E0
4.715542710E-1,-1.909580112E0,4.822385311E0,8.644556046E0
4.735441140E-1,-1.880834341E0,4.793639660E0,8.639764786E0
4.755339580E-1,-1.861670613E0,4.788848877E0,8.601437569E0
4.775238020E-1,-1.885625362E0,4.798430920E0,8.563109398E0
4.795136460E-1,-1.823342919E0,4.745730400E0,8.481663704E0
4.815034890E-1,-1.737105727E0,4.673865795E0,8.242115974E0
4.834933330E-1,-1.693987012E0,4.630747318E0,8.026522636E0
4.854831770E-1,-1.670032263E0,4.602001667E0,7.849256516E0
4.874730210E-1,-1.617331743E0,4.563673973E0,7.719901085E0
4.894628640E-1,-1.598167896E0,4.558882713E0,7.671991348E0
4.914527080E-1,-1.564631224E0,4.554091930E0,7.681573391E0
4.934425520E-1,-1.550258398E0,4.549301147E0,7.753437519E0
4.954323960E-1,-1.559840322E0,4.558882713E0,7.887584209E0
4.974222390E-1,-1.535885453E0,4.544509888E0,7.988194466E0
4.994120830E-1,-1.612540841E0,4.515764236E0,8.112759590E0
5.014019270E-1,-1.631704569E0,4.510973454E0,8.203787804E0
5.033917710E-1,-1.622122645E0,4.534928322E0,8.337934494E0
5.053816140E-1,-1.607749820E0,4.544509888E0,8.438545227E0
5.073714580E-1,-1.607749820E0,4.539719105E0,8.567900658E0
5.093613020E-1,-1.612540841E0,4.549301147E0,8.730792999E0
5.113511460E-1,-1.598167896E0,4.549301147E0,8.941595078E0
5.133409890E-1,-1.579004049E0,4.534928322E0,9.075741768E0
5.153308330E-1,-1.574213147E0,4.530137062E0,9.238635063E0
5.173206770E-1,-1.545467377E0,4.487018585E0,9.372781754E0
5.193105210E-1,-1.540676475E0,4.453481674E0,9.473391533E0
5.213003640E-1,-1.511930704E0,4.439108849E0,9.569211006E0
5.232902080E-1,-1.502348781E0,4.410363197E0,9.708148956E0
5.252800520E-1,-1.507139683E0,4.362453461E0,9.808758736E0
5.272698960E-1,-1.497557878E0,4.338499069E0,9.918951035E0
5.292597390E-1,-1.531094551E0,4.343289852E0,1.000997925E1
5.312495830E-1,-1.550258398E0,4.338499069E0,1.012975311E1
5.332394270E-1,-1.574213147E0,4.333707809E0,1.022078133E1
5.352292710E-1,-1.535885453E0,4.290589333E0,1.024473572E1
5.372191140E-1,-1.478394032E0,4.257052422E0,1.023515415E1
5.392089580E-1,-1.449648261E0,4.242679596E0,1.022557163E1
5.411988020E-1,-1.468812108E0,4.252261639E0,1.021599007E1
5.431886460E-1,-1.440066338E0,4.271425247E0,1.021599007E1
5.451784890E-1,-1.416111588E0,4.276216507E0,1.021599007E1
5.471683330E-1,-1.440066338E0,4.314544201E0,1.024952698E1
5.491581770E-1,-1.468812108E0,4.338499069E0,1.025431728E1
5.511480210E-1,-1.516721606E0,4.362453461E0,1.025431728E1
5.531378640E-1,-1.564631224E0,4.367244720E0,1.023036289E1
5.551277080E-1,-1.607749820E0,4.381617546E0,1.019203568E1
5.571175520E-1,-1.650868416E0,4.400781155E0,1.016808033E1
5.591073960E-1,-1.636495590E0,4.352871895E0,1.011058903E1
5.610972390E-1,-1.602958918E0,4.352871895E0,1.000518799E1
5.630870830E-1,-1.717941880E0,4.415153980E0,9.976442337E0
5.650769270E-1,-1.780224323E0,4.419945240E0,9.909368515E0
5.670667710E-1,-1.813760996E0,4.400781155E0,9.880622864E0
5.690566140E-1,-1.856879592E0,4.443900108E0,9.803967476E0
5.710464580E-1,-1.866461515E0,4.448690891E0,9.736894608E0
5.730363020E-1,-1.899998188E0,4.458272934E0,9.645866394E0
5.750261460E-1,-1.885625362E0,4.439108849E0,9.535674095E0
5.770159890E-1,-1.871252418E0,4.424736023E0,9.449437141E0
5.790058330E-1,-1.876043439E0,4.453481674E0,9.320080757E0
5.809956770E-1,-1.880834341E0,4.453481674E0,9.209889412E0
5.829855210E-1,-1.861670613E0,4.477436543E0,9.085324287E0
5.849753640E-1,-1.823342919E0,4.506182194E0,8.989504814E0
5.869652080E-1,-1.789806247E0,4.534928322E0,8.912849426E0
5.889550520E-1,-1.751478553E0,4.554091930E0,8.797866821E0
5.909448960E-1,-1.708359957E0,4.606792450E0,8.730792999E0
5.929347390E-1,-1.679614186E0,4.635538101E0,8.668510437E0
5.949245830E-1,-1.660450339E0,4.697820663E0,8.620601654E0
5.969144270E-1,-1.655659437E0,4.736148357E0,8.558319092E0
5.989042710E-1,-1.660450339E0,4.798430920E0,8.472081184E0
6.008941140E-1,-1.655659437E0,4.846340179E0,8.390635490E0
6.028839580E-1,-1.607749820E0,4.903831959E0,8.313980103E0
6.048738020E-1,-1.602958918E0,4.937368393E0,8.227743149E0
6.068636460E-1,-1.583795071E0,4.966114044E0,8.175042152E0
6.088534890E-1,-1.607749820E0,4.985278130E0,8.136714935E0
6.108433330E-1,-1.602958918E0,4.999650955E0,8.098386765E0
6.128331770E-1,-1.612540841E0,5.018814564E0,8.031313896E0
6.148230210E-1,-1.602958918E0,5.004441738E0,7.992985249E0
6.168128640E-1,-1.598167896E0,4.970905304E0,7.925911903E0
6.188027080E-1,-1.564631224E0,4.951741219E0,7.878002644E0
6.207925520E-1,-1.545467377E0,4.913413525E0,7.854047775E0
6.227823960E-1,-1.511930704E0,4.870295048E0,7.834883690E0
6.247722390E-1,-1.483184934E0,4.831967354E0,7.830092907E0
6.267620830E-1,-1.459230185E0,4.808012486E0,7.825302124E0
6.287519270E-1,-1.459230185E0,4.769684792E0,7.810929298E0
6.307417710E-1,-1.416111588E0,4.740939140E0,7.830092907E0
6.327316140E-1,-1.372992992E0,4.697820663E0,7.863629818E0
6.347214580E-1,-1.358620048E0,4.645120144E0,7.897166252E0
6.367113020E-1,-1.344247222E0,4.621165276E0,7.954657555E0
6.387011460E-1,-1.382574797E0,4.587628841E0,8.012149811E0
6.406909890E-1,-1.411320567E0,4.554091930E0,8.060059547E0
6.426808330E-1,-1.435275435E0,4.558882713E0,8.112759590E0
6.446706770E-1,-1.507139683E0,4.539719105E0,8.227743149E0
6.466605210E-1,-1.579004049E0,4.534928322E0,8.304398537E0
6.486503640E-1,-1.660450339E0,4.544509888E0,8.357098579E0
6.506402080E-1,-1.761060476E0,4.587628841E0,8.405008316E0
6.526300520E-1,-1.866461515E0,4.582837582E0,8.428962708E0
6.546198960E-1,-1.909580112E0,4.625956535E0,8.472081184E0
6.566097390E-1,-1.981444478E0,4.635538101E0,8.505618095E0
6.585995830E-1,-2.024563074E0,4.669075012E0,8.515200615E0
6.605894270E-1,-2.010190248E0,4.693029881E0,8.553527832E0
6.625792710E-1,-2.024563074E0,4.712193489E0,8.596646309E0
6.645691140E-1,-2.000608444E0,4.697820663E0,8.639764786E0
6.665589580E-1,-1.986235499E0,4.707402706E0,8.716420174E0
6.685488020E-1,-1.995817304E0,4.688238621E0,8.797866821E0
6.705386460E-1,-1.967071652E0,4.659492970E0,8.869730949E0
6.725284890E-1,-1.923953056E0,4.649910927E0,8.932013512E0
6.745183330E-1,-1.880834341E0,4.602001667E0,9.008668900E0
6.765081770E-1,-1.866461515E0,4.534928322E0,9.027832985E0
6.784980210E-1,-1.871252418E0,4.496600628E0,9.051787376E0
6.804878640E-1,-1.813760996E0,4.482227802E0,9.147606850E0
6.824777080E-1,-1.751478553E0,4.501391411E0,9.296126366E0
6.844675520E-1,-1.646077514E0,4.510973454E0,9.473391533E0
6.864573960E-1,-1.555049300E0,4.549301147E0,9.588375092E0
6.884472390E-1,-1.464021087E0,4.597210407E0,9.732103348E0
6.904370830E-1,-1.396947742E0,4.630747318E0,9.866250038E0
6.924269270E-1,-1.387365818E0,4.678657055E0,9.962069511E0
6.944167710E-1,-1.449648261E0,4.702611446E0,1.000997925E1
6.964066140E-1,-1.497557878E0,4.707402706E0,1.000518799E1
6.983964580E-1,-1.540676475E0,4.750521183E0,9.957278252E0
7.003863020E-1,-1.535885453E0,4.779266834E0,9.899786949E0
7.023761460E-1,-1.602958918E0,4.769684792E0,9.818340302E0
7.043659890E-1,-1.665241361E0,4.788848877E0,9.693776131E0
7.063558330E-1,-1.679614186E0,4.788848877E0,9.550046921E0
7.083456770E-1,-1.713150859E0,4.803221703E0,9.391945839E0
7.103355210E-1,-1.722732782E0,4.788848877E0,9.262589455E0
7.123253640E-1,-1.708359957E0,4.788848877E0,9.118861198E0
7.143152080E-1,-1.693987012E0,4.760103226E0,8.936804771E0
7.163050520E-1,-1.679614186E0,4.736148357E0,8.740375519E0
7.182948960E-1,-1.660450339E0,4.697820663E0,8.563109398E0
7.202847390E-1,-1.636495590E0,4.673865795E0,8.361889839E0
7.222745830E-1,-1.607749820E0,4.649910927E0,8.189414978E0
7.242644270E-1,-1.598167896E0,4.606792450E0,7.959448814E0
7.262542710E-1,-1.550258398E0,4.563673973E0,7.786974430E0
7.282441140E-1,-1.516721606E0,4.520555019E0,7.633663654E0
7.302339580E-1,-1.435275435E0,4.496600628E0,7.518680573E0
7.322238020E-1,-1.368201971E0,4.487018585E0,7.446816444E0
7.342136460E-1,-1.277173758E0,4.467854500E0,7.370161057E0
7.362034890E-1,-1.214891315E0,4.443900108E0,7.307878494E0
7.381933330E-1,-1.071162581E0,4.458272934E0,7.331833363E0
7.401831770E-1,-9.801344275E-1,4.410363197E0,7.331833363E0
7.421730210E-1,-9.322248697E-1,4.415153980E0,7.322251320E0
7.441628640E-1,-8.986881971E-1,4.410363197E0,7.331833363E0
7.461527080E-1,-9.082701206E-1,4.424736023E0,7.413279533E0
7.481425520E-1,-9.178519845E-1,4.405572414E0,7.398906708E0
7.501323960E-1,-9.082701206E-1,4.400781155E0,7.446816444E0
7.521222390E-1,-8.891062737E-1,4.405572414E0,7.470771313E0
7.541120830E-1,-9.130610824E-1,4.391199589E0,7.561799526E0
7.561019270E-1,-9.178519845E-1,4.391199589E0,7.686364174E0
7.580917710E-1,-9.226429462E-1,4.391199589E0,7.868420601E0
7.600816140E-1,-9.034791589E-1,4.415153980E0,8.064849854E0
7.620714580E-1,-8.795243502E-1,4.453481674E0,8.318771362E0
7.640613020E-1,-8.555695415E-1,4.491809368E0,8.524782181E0
7.660511460E-1,-8.459876776E-1,4.510973454E0,8.764329910E0
7.680409890E-1,-8.124509454E-1,4.558882713E0,9.013460159E0
7.700308330E-1,-7.453775406E-1,4.587628841E0,9.229052544E0
7.720206770E-1,-6.974679828E-1,4.621165276E0,9.492555618E0
7.740105210E-1,-6.160216928E-1,4.640329361E0,9.655447960E0
7.760003640E-1,-5.106206536E-1,4.597210407E0,9.847085953E0
7.779902080E-1,-4.148015082E-1,4.573255539E0,1.001956081E1
7.799800520E-1,-2.902366221E-1,4.510973454E0,1.015370750E1
7.819698960E-1,-1.800446212E-1,4.458272934E0,1.035013676E1
7.839597390E-1,-8.901644498E-2,4.381617546E0,1.049386597E1
7.859495830E-1,6.802698597E-3,4.252261639E0,1.062801266E1
7.879394270E-1,1.169947162E-1,4.142069817E0,1.075257683E1
7.899292710E-1,1.361585408E-1,4.036668777E0,1.086276913E1
7.919191140E-1,1.792771667E-1,3.921685696E0,1.095379734E1
7.939089580E-1,2.080229074E-1,3.821075439E0,1.102087116E1
7.958988020E-1,2.463505566E-1,3.730047226E0,1.107836246E1
7.978886460E-1,2.846782207E-1,3.662973881E0,1.110710812E1
7.998784890E-1,2.894691825E-1,3.576736689E0,1.109273529E1
8.018683330E-1,3.038420379E-1,3.524036169E0,1.105440712E1
8.038581770E-1,3.661244810E-1,3.504872322E0,1.091067886E1
8.058480210E-1,4.475707710E-1,3.490499496E0,1.073820400E1
8.078378640E-1,5.194351077E-1,3.519245148E0,1.047470188E1
8.098277080E-1,6.152542830E-1,3.547991037E0,1.023036289E1
8.118175520E-1,7.350282073E-1,3.562363863E0,9.981232643E0
8.138073960E-1,8.260563612E-1,3.576736689E0,9.741684914E0
8.157972390E-1,9.362483621E-1,3.576736689E0,9.530882835E0
8.177870830E-1,1.041649461E0,3.576736689E0,9.291335106E0
8.197769270E-1,1.127886653E0,3.595900536E0,9.099697113E0
8.217667710E-1,1.218914866E0,3.591109514E0,8.917640686E0
8.237566140E-1,1.305152059E0,3.600691557E0,8.773911476E0
8.257464580E-1,1.377016425E0,3.600691557E0,8.625391960E0
8.277363020E-1,1.444089890E0,3.595900536E0,8.524782181E0
8.297261460E-1,1.501581311E0,3.595900536E0,8.433753967E0
8.317159890E-1,1.563863754E0,3.586318731E0,8.333144188E0
8.337058330E-1,1.616564274E0,3.581527710E0,8.242115974E0
8.356956770E-1,1.726756334E0,3.557572842E0,8.155878067E0
8.376855210E-1,1.803411603E0,3.557572842E0,8.055268288E0
8.396753640E-1,1.904021740E0,3.504872322E0,7.949866772E0
8.416652080E-1,2.009422541E0,3.495290518E0,7.834883690E0
8.436550520E-1,2.110032797E0,3.442589998E0,7.719901085E0
8.456448960E-1,2.177106142E0,3.442589998E0,7.585753918E0
8.476347390E-1,2.239388704E0,3.418635130E0,7.465980053E0
8.496245830E-1,2.277716160E0,3.409053087E0,7.336624146E0
8.516144270E-1,2.325625896E0,3.394680262E0,7.226432323E0
8.536042710E-1,2.354371548E0,3.375516415E0,7.130613327E0
8.555941140E-1,2.368744373E0,3.380307436E0,7.015630245E0
8.575839580E-1,2.363953590E0,3.394680262E0,6.900647163E0
8.595738020E-1,2.373535395E0,3.423426151E0,6.828783035E0
8.615636460E-1,2.335207701E0,3.447380781E0,6.780873299E0
8.635534890E-1,2.306462049E0,3.456962824E0,6.780873299E0
8.655433330E-1,2.239388704E0,3.480917454E0,6.785664082E0
8.675331770E-1,2.172315121E0,3.480917454E0,6.833573818E0
8.695230210E-1,2.110032797E0,3.504872322E0,6.891065121E0
8.715128640E-1,2.038168430E0,3.476126671E0,6.996466160E0
8.735027080E-1,1.980677009E0,3.447380781E0,7.087494373E0
8.754925520E-1,1.923185587E0,3.428216934E0,7.236014366E0
8.774823960E-1,1.860903144E0,3.385098457E0,7.394115925E0
8.794722390E-1,1.817784429E0,3.356352568E0,7.576172352E0
8.814620830E-1,1.812993526E0,3.322815895E0,7.763019562E0
8.834519270E-1,1.827366352E0,3.289279222E0,7.935493946E0
8.854417710E-1,1.827366352E0,3.241369724E0,8.117550850E0
8.874316140E-1,1.832157373E0,3.169505358E0,8.270861626E0
8.894214580E-1,1.841739297E0,3.116804838E0,8.428962708E0
8.914113020E-1,1.803411603E0,3.068895340E0,8.587064743E0
8.934011460E-1,1.779456854E0,3.020985603E0,8.764329910E0
8.953909890E-1,1.717174411E0,2.949121237E0,8.912849426E0
8.973808330E-1,1.616564274E0,2.906002760E0,9.042205811E0
8.993706770E-1,1.563863754E0,2.877256870E0,9.161979675E0
9.013605210E-1,1.496790409E0,2.867675066E0,9.320080757E0
9.033503640E-1,1.439298868E0,2.858093023E0,9.526092529E0
9.053402080E-1,1.338688731E0,2.853302240E0,9.746476173E0
9.073300520E-1,1.214123845E0,2.858093023E0,1.000997925E1
9.093198960E-1,1.060813308E0,2.891629934E0,1.029264545E1
9.113097390E-1,8.931297660E-1,2.901211739E0,1.055614758E1
9.132995830E-1,7.685648799E-1,2.949121237E0,1.080527782E1
9.152894270E-1,6.200451851E-1,2.968285084E0,1.105440712E1
9.172792710E-1,5.146441460E-1,3.006612778E0,1.126520920E1
9.192691140E-1,4.379888475E-1,3.059313297E0,1.147122097E1
9.212589580E-1,3.804973662E-1,3.126386642E0,1.163890457E1
9.232488020E-1,3.373787403E-1,3.198251009E0,1.176826000E1
9.252386460E-1,3.230058849E-1,3.289279222E0,1.184012413E1
9.272284890E-1,3.086329997E-1,3.341979742E0,1.191198921E1
9.292183330E-1,3.325877786E-1,3.394680262E0,1.190719795E1
9.312081770E-1,3.709154427E-1,3.461753845E0,1.188324261E1
9.331980210E-1,4.140340686E-1,3.543200016E0,1.183054256E1
9.351878640E-1,4.523617029E-1,3.567154884E0,1.170118713E1
9.371777080E-1,5.050622225E-1,3.639019251E0,1.154787636E1
9.391675520E-1,5.433899164E-1,3.643810034E0,1.140893841E1
9.411573960E-1,6.344180703E-1,3.662973881E0,1.123167324E1
9.431472390E-1,6.727457643E-1,3.662973881E0,1.106398964E1
9.451370830E-1,7.637739182E-1,3.639019251E0,1.087714195E1
9.471269270E-1,8.356382847E-1,3.605482340E0,1.070466805E1
9.491167710E-1,9.362483621E-1,3.576736689E0,1.050823879E1
9.511066140E-1,1.032067537E0,3.533617973E0,1.030222702E1
9.530964580E-1,1.156632423E0,3.495290518E0,1.010100746E1
9.550863020E-1,1.233287692E0,3.485708475E0,9.890205383E0
9.570761460E-1,1.300361156E0,3.485708475E0,9.679402351E0
9.590659890E-1,1.391389251E0,3.480917454E0,9.468600273E0
9.610558330E-1,1.424926043E0,3.471335649E0,9.253007889E0
9.630456770E-1,1.496790409E0,3.466544628E0,9.070951462E0
9.650355210E-1,1.520745158E0,3.466544628E0,8.903267860E0
9.670253640E-1,1.525536060E0,3.452171803E0,8.764329910E0
9.690152080E-1,1.554281831E0,3.456962824E0,8.611019135E0
9.710050520E-1,1.544699907E0,3.476126671E0,8.486454964E0
9.729948960E-1,1.563863754E0,3.485708475E0,8.376262665E0
9.749847390E-1,1.544699907E0,3.500081301E0,8.266070366E0
9.769745830E-1,1.525536060E0,3.519245148E0,8.179833412E0
9.789644270E-1,1.539909005E0,3.557572842E0,8.103178024E0
9.809542710E-1,1.539909005E0,3.605482340E0,8.079222679E0
9.829441140E-1,1.525536060E0,3.624646187E0,8.074432373E0
9.849339580E-1,1.539909005E0,3.662973881E0,8.088805199E0
9.869238020E-1,1.583027601E0,3.682137728E0,8.122342110E0
9.889136460E-1,1.630937099E0,3.682137728E0,8.179833412E0
9.909034890E-1,1.707592487E0,3.653392076E0,8.261279106E0
9.928933330E-1,1.784247756E0,3.610273361E0,8.337934494E0
9.948831770E-1,1.865694046E0,3.552781820E0,8.419381142E0
9.968730210E-1,1.999840856E0,3.509663343E0,8.472081184E0
9.988628640E-1,2.110032797E0,3.452171803E0,8.519990921E0
1.000852708E0,2.244179487E0,3.380307436E0,8.587064743E0
1.002842552E0,2.383117199E0,3.322815895E0,8.563109398E0
1.004832396E0,2.507682085E0,3.274906397E0,8.567900658E0
1.006822239E0,2.651410818E0,3.274906397E0,8.543946266E0
1.008812083E0,2.766393900E0,3.246160746E0,8.548736572E0
1.010801927E0,2.867003918E0,3.207833052E0,8.601437569E0
1.012791771E0,2.972404957E0,3.212624073E0,8.678092957E0
1.014781614E0,3.029896498E0,3.179087162E0,8.817030907E0
1.016771458E0,3.068224192E0,3.217414856E0,8.970340729E0
1.018761302E0,3.130506516E0,3.226996899E0,9.142815590E0
1.020751146E0,3.173625231E0,3.231787682E0,9.329663277E0
1.022740989E0,3.168834209E0,3.265324593E0,9.540465355E0
1.024730833E0,3.149670362E0,3.313234091E0,9.760848999E0
1.026720677E0,3.111342669E0,3.356352568E0,9.971651077E0
1.028710521E0,3.068224192E0,3.409053087E0,1.018245316E1
1.030700364E0,2.991568804E0,3.456962824E0,1.035492802E1
1.032690208E0,2.900540590E0,3.552781820E0,1.055135727E1
1.034680052E0,2.780766726E0,3.610273361E0,1.072862244E1
1.036669896E0,2.632246971E0,3.662973881E0,1.088193321E1
1.038659739E0,2.493309259E0,3.710883617E0,1.099691582E1
1.040649583E0,2.344789743E0,3.715674400E0,1.108794403E1
1.042639427E0,2.201061010E0,3.739629269E0,1.114543533E1
1.044629271E0,2.062123060E0,3.754002094E0,1.115501785E1
1.046619114E0,1.951931238E0,3.744420290E0,1.113585377E1
1.048608958E0,1.851321220E0,3.734838247E0,1.110710812E1
1.050598802E0,1.745920181E0,3.725256443E0,1.099691582E1
1.052588646E0,1.678846717E0,3.691719770E0,1.086756039E1
1.054578489E0,1.606982350E0,3.648601055E0,1.069987679E1
1.056568333E0,1.554281831E0,3.610273361E0,1.049865627E1
1.058558177E0,1.515954137E0,3.543200016E0,1.028785419E1
1.060548021E0,1.482417464E0,3.504872322E0,1.006747055E1
1.062537864E0,1.463253617E0,3.447380781E0,9.808758736E0
1.064527708E0,1.468044639E0,3.380307436E0,9.574001312E0
1.066517552E0,1.458462715E0,3.318025112E0,9.344036102E0
1.068507396E0,1.453671694E0,3.279697418E0,9.147606850E0
1.070497239E0,1.439298868E0,3.241369724E0,8.917640686E0
1.072487083E0,1.439298868E0,3.212624073E0,8.687674522E0
1.074476927E0,1.458462715E0,3.207833052E0,8.476872444E0
1.076466771E0,1.496790409E0,3.174296379E0,8.299607277E0
1.078456614E0,1.515954137E0,3.169505358E0,8.084013939E0
1.080446458E0,1.539909005E0,3.150341511E0,7.940284729E0
1.082436302E0,1.539909005E0,3.145550489E0,7.743855476E0
1.084426146E0,1.520745158E0,3.155132532E0,7.600126743E0
1.086415989E0,1.501581311E0,3.169505358E0,7.504307747E0
1.088405833E0,1.444089890E0,3.198251009E0,7.422861576E0
1.090395677E0,1.353061676E0,3.212624073E0,7.350996971E0
1.092385521E0,1.223705769E0,3.246160746E0,7.307878494E0
1.094375364E0,1.108722806E0,3.250951529E0,7.279132843E0
1.096365208E0,9.458302855E-1,3.260533571E0,7.245595932E0
1.098355052E0,7.446100712E-1,3.250951529E0,7.188104630E0
1.100344896E0,5.385989547E-1,3.222205877E0,7.140194893E0
1.102334739E0,3.709154427E-1,3.203042030E0,7.030003071E0
1.104324583E0,1.696952432E-1,3.159923553E0,6.891065121E0
1.106314427E0,-6.506165862E-2,3.135968685E0,6.790455341E0
1.108304271E0,-2.998185456E-1,3.102432013E0,6.646726608E0
1.110294114E0,-5.633211732E-1,3.044940472E0,6.512579918E0
1.112283958E0,-8.555695415E-1,3.001821756E0,6.392805576E0
1.114273802E0,-1.119072199E0,3.040149450E0,6.340105057E0
1.116263646E0,-1.392156720E0,3.049731493E0,6.335314274E0
1.118253489E0,-1.804179072E0,3.001821756E0,6.354477882E0
1.120243333E0,-2.254529238E0,2.982657909E0,6.402387619E0
1.122233177E0,-2.700088263E0,2.973076105E0,6.464670181E0
1.124223021E0,-3.131274223E0,2.968285084E0,6.546116352E0
1.126212864E0,-3.514550924E0,2.992239952E0,6.641935349E0
1.128202708E0,-3.926573277E0,2.987448931E0,6.752127647E0
1.130192552E0,-4.357758999E0,2.977867126E0,6.814410210E0
1.132182396E0,-4.755408287E0,3.030567646E0,6.886274338E0
1.134172239E0,-5.105148315E0,3.088059187E0,6.967720509E0
1.136162083E0,-5.440515518E0,3.179087162E0,7.006048203E0
1.138151927E0,-5.785464287E0,3.274906397E0,7.068330765E0
1.140141771E0,-6.092085361E0,3.437798977E0,7.097076416E0
1.142131614E0,-6.326842308E0,3.591109514E0,7.101867199E0
1.144121458E0,-6.523271561E0,3.782747746E0,7.082703590E0
1.146111302E0,-6.667000294E0,3.979176998E0,7.034793854E0
1.148101146E0,-6.767610550E0,4.204351902E0,6.977302551E0
1.150090989E0,-6.786774158E0,4.415153980E0,6.924602032E0
1.152080833E0,-6.786774158E0,4.645120144E0,6.871901512E0
1.154070677E0,-6.762819767E0,4.870295048E0,6.776082516E0
1.156060521E0,-6.724492073E0,5.076306343E0,6.680263042E0
1.158050364E0,-6.667000294E0,5.287108421E0,6.589234829E0
1.160040208E0,-6.623881817E0,5.469164848E0,6.517370701E0
1.162030052E0,-6.547226429E0,5.593729496E0,6.440715313E0
1.164019896E0,-6.518480778E0,5.699130535E0,6.354477882E0
1.166009739E0,-6.480153084E0,5.780577183E0,6.273031712E0
1.167999583E0,-6.441825390E0,5.804531574E0,6.196376324E0
1.169989427E0,-6.403497696E0,5.794950008E0,6.153257847E0
1.171979271E0,-6.331633568E0,5.694339752E0,6.081393719E0
1.173969114E0,-6.269351006E0,5.617684364E0,6.023901939E0
1.175958958E0,-6.149577141E0,5.488328457E0,5.980783463E0
1.177948802E0,-5.996266365E0,5.315854073E0,5.952037811E0
1.179938646E0,-5.809419155E0,5.157752514E0,5.923292160E0
1.181928489E0,-5.574662209E0,5.014023781E0,5.961619854E0
1.183918333E0,-5.349487305E0,4.855922222E0,6.033483982E0
1.185908177E0,-5.124312401E0,4.731357574E0,6.158049107E0
1.187898021E0,-4.923091888E0,4.592419624E0,6.249076843E0
1.189887864E0,-4.688334942E0,4.419945240E0,6.378432751E0
1.191877708E0,-4.458369255E0,4.228306770E0,6.502997875E0
1.193867552E0,-4.228403091E0,4.051041603E0,6.651517391E0
1.195857396E0,-3.955318928E0,3.873775959E0,6.819200993E0
1.197847239E0,-3.754098654E0,3.710883617E0,6.958138466E0
1.199837083E0,-3.552878618E0,3.547991037E0,7.106658459E0
1.201826927E0,-3.327703476E0,3.413844109E0,7.283923626E0
1.203816771E0,-3.193556786E0,3.236578703E0,7.470771313E0
1.205806614E0,-3.078573704E0,3.126386642E0,7.643245697E0
1.207796458E0,-3.001918554E0,3.020985603E0,7.763019562E0
1.209786302E0,-2.939635992E0,2.929957390E0,7.897166252E0
1.211776146E0,-2.891726494E0,2.819765568E0,8.021731377E0
1.213765989E0,-2.843816996E0,2.723946333E0,8.103178024E0
1.215755833E0,-2.805489302E0,2.608963251E0,8.175042152E0
1.217745677E0,-2.815071106E0,2.541889906E0,8.203787804E0
1.219735521E0,-2.843816996E0,2.460443735E0,8.242115974E0
1.221725364E0,-2.886935472E0,2.412534237E0,8.246906281E0
1.223715208E0,-2.949218035E0,2.359833717E0,8.198997498E0
1.225705052E0,-2.977963686E0,2.355042696E0,8.175042152E0
1.227694896E0,-3.049828053E0,2.302342176E0,8.141505241E0
1.229684739E0,-3.116901398E0,2.302342176E0,8.093596458E0
1.231674583E0,-3.183974743E0,2.283178329E0,8.055268288E0
1.233664427E0,-3.255839109E0,2.278387308E0,7.992985249E0
1.235654271E0,-3.337285519E0,2.302342176E0,7.940284729E0
1.237644114E0,-3.423522711E0,2.273596287E0,7.858838558E0
1.239633958E0,-3.476223230E0,2.292760134E0,7.801347256E0
1.241623802E0,-3.552878618E0,2.283178329E0,7.724691868E0
1.243613646E0,-3.624742985E0,2.283178329E0,7.652827263E0
1.245603489E0,-3.706189156E0,2.264014482E0,7.609708786E0
1.247593333E0,-3.787635326E0,2.254432440E0,7.552217484E0
1.249583177E0,-3.897827387E0,2.230477810E0,7.537844658E0
1.251573021E0,-3.993646622E0,2.249641657E0,7.528262615E0
1.253562864E0,-4.099047184E0,2.244850636E0,7.533053398E0
1.255552708E0,-4.218821526E0,2.273596287E0,7.547426224E0
1.257542552E0,-4.314640522E0,2.316715002E0,7.590545177E0
1.259532396E0,-4.420041561E0,2.364624500E0,7.624081612E0
1.261522239E0,-4.487114906E0,2.417325020E0,7.648036480E0
1.263512083E0,-4.573352337E0,2.470025539E0,7.662409306E0
1.265501927E0,-4.659589291E0,2.541889906E0,7.652827263E0
1.267491771E0,-4.750617504E0,2.608963251E0,7.628872871E0
1.269481614E0,-4.803318024E0,2.680827618E0,7.614500046E0
1.271471458E0,-4.908719063E0,2.776646852E0,7.604918003E0
1.273461302E0,-5.023702145E0,2.872466087E0,7.600126743E0
1.275451146E0,-5.143476009E0,2.982657909E0,7.595335960E0
1.277440989E0,-5.258459091E0,3.044940472E0,7.604918003E0
1.279430833E0,-5.368650913E0,3.145550489E0,7.604918003E0
1.281420677E0,-5.469261169E0,3.203042030E0,7.595335960E0
1.283410521E0,-5.507588863E0,3.255742550E0,7.604918003E0
1.285400364E0,-5.526752472E0,3.318025112E0,7.600126743E0
1.287390208E0,-5.531543732E0,3.365934610E0,7.604918003E0
1.289380052E0,-5.526752472E0,3.399471283E0,7.604918003E0
1.291369896E0,-5.478843212E0,3.399471283E0,7.619290829E0
1.293359739E0,-5.445306301E0,3.375516415E0,7.604918003E0
1.295349583E0,-5.383023739E0,3.351561785E0,7.667200565E0
1.297339427E0,-5.363860130E0,3.313234091E0,7.734273911E0
1.299329271E0,-5.311159611E0,3.226996899E0,7.801347256E0
1.301319114E0,-5.234504223E0,3.097640991E0,7.930703163E0
1.303308958E0,-3.557669401E0,1.382478476E0,1.541417885E1
1.305298802E0,-6.985261291E-2,-1.228593111E0,2.792815781E1
1.307288646E0,-8.747333884E-1,-1.889554709E-1,2.439722252E1
1.309278489E0,-3.049828053E0,1.880738020E0,1.614719391E1
1.311268333E0,-4.228403091E0,2.795810699E0,1.197427082E1
1.313258177E0,-4.439205170E0,2.834138393E0,9.875831604E0
1.315248021E0,-4.151747704E0,2.575426579E0,9.253007889E0
1.317237864E0,-3.931364059E0,2.297551155E0,9.099697113E0
1.319227708E0,-3.902618408E0,2.125076771E0,8.697257042E0
1.321217552E0,-4.008019447E0,2.058003426E0,7.901957035E0
1.323207396E0,-4.271522045E0,2.019675732E0,6.919811249E0
1.325197239E0,-4.659589291E0,1.962184310E0,6.038274765E0
1.327187083E0,-4.932673931E0,1.789709806E0,5.420241356E0
1.329176927E0,-5.100357533E0,1.516625285E0,5.171111584E0
1.331166771E0,-5.167430878E0,1.229167819E0,5.257349014E0
1.333156614E0,-5.095566273E0,1.080648184E0,5.448987007E0
1.335146458E0,-5.085984707E0,9.608742595E-1,5.722071648E0
1.337136302E0,-5.253667831E0,8.315184116E-1,6.105348110E0
1.339126146E0,-5.536334515E0,7.356992960E-1,6.488625050E0
1.341115989E0,-5.804627895E0,6.734168530E-1,6.833573818E0
1.343105833E0,-6.039384842E0,7.644450068E-1,7.370161057E0
1.345095677E0,-6.221441269E0,9.608742595E-1,7.949866772E0
1.347085521E0,-6.556808472E0,1.353732705E0,8.500827789E0
1.349075364E0,-6.858638763E0,1.780127883E0,8.788285255E0
1.351065208E0,-7.002367496E0,2.177777290E0,8.951177597E0
1.353055052E0,-7.122141361E0,2.589799643E0,8.879312515E0
1.355044896E0,-7.261079311E0,2.925166607E0,8.860149384E0
1.357034739E0,-7.433553696E0,3.126386642E0,8.908059120E0
1.359024583E0,-7.730592728E0,3.231787682E0,9.123651505E0
1.361014427E0,-8.722321510E0,3.279697418E0,1.083402348E1
1.363004271E0,-1.035124683E1,3.279697418E0,1.385711765E1
1.364994114E0,-1.232512093E1,3.006612778E0,1.802045822E1
1.366983958E0,-1.349890614E1,2.378997326E0,2.080400467E1
1.368973802E0,-1.283296299E1,1.990930080E0,1.961105537E1
1.370963646E0,-1.145795822E1,2.072376251E0,1.585973740E1
1.372953489E0,-1.053809452E1,2.244850636E0,1.275040627E1
1.374943333E0,-1.020751858E1,2.345460653E0,1.133228302E1
1.376933177E0,-1.004941654E1,2.374206543E0,1.104003429E1
1.378923021E0,-9.809868813E0,2.455652714E0,1.137061024E1
1.380912864E0,-9.560738564E0,2.565844774E0,1.182575130E1
1.382902708E0,-9.249326706E0,2.585008621E0,1.186407948E1
1.384892552E0,-8.616920471E0,2.661664009E0,1.121250916E1
1.386882396E0,-8.142615318E0,2.834138393E0,1.032618237E1
1.388872239E0,-7.740174770E0,3.078477144E0,9.353617668E0
1.390862083E0,-7.007158279E0,3.289279222E0,8.807448387E0
1.392851927E0,-6.226232529E0,3.006612778E0,8.448126793E0
1.394841771E0,-5.009329319E0,2.671245813E0,8.055268288E0
1.396831614E0,-4.075092793E0,2.407743216E0,7.504307747E0
1.398821458E0,-3.634324789E0,2.192150116E0,6.991675377E0
1.400811302E0,-3.552878618E0,1.933438540E0,6.565280437E0
1.402801146E0,-3.595997095E0,1.669935942E0,6.301777363E0
1.404790989E0,-3.667861462E0,1.444760919E0,6.119721413E0
1.406780833E0,-3.768471479E0,1.344150782E0,6.028693199E0
1.408770677E0,-3.720561981E0,1.377687573E0,6.081393719E0
1.410760521E0,-3.222302437E0,1.732218385E0,6.229913235E0
1.412750364E0,-2.934844971E0,1.952602386E0,6.479043007E0
1.414740208E0,-3.413940668E0,1.732218385E0,6.704217911E0
1.416730052E0,-3.936155081E0,1.626817346E0,6.967720509E0
1.418719896E0,-4.487114906E0,1.607653499E0,7.236014366E0
1.420709739E0,-5.085984707E0,1.598071575E0,7.432443619E0
1.422699583E0,-5.713600159E0,1.626817346E0,7.667200565E0
1.424689427E0,-6.398706913E0,1.703472614E0,7.969030857E0
1.426679271E0,-6.978412628E0,1.775336981E0,8.280443192E0
1.428669114E0,-7.390434742E0,1.962184310E0,8.524782181E0
1.430658958E0,-7.558118343E0,2.283178329E0,8.735584259E0
1.432648802E0,-7.577282429E0,2.575426579E0,8.836194038E0
1.434638646E0,-7.534163475E0,2.891629934E0,8.817030907E0
1.436628489E0,-7.428762436E0,3.236578703E0,8.682883263E0
1.438618333E0,-7.361689091E0,3.485708475E0,8.515200615E0
1.440608177E0,-7.294615746E0,3.706092596E0,8.333144188E0
1.442598021E0,-7.294615746E0,3.892939806E0,8.251697540E0
1.444587864E0,-7.308988571E0,3.969595194E0,8.175042152E0
1.446577708E0,-7.285033703E0,3.993550062E0,8.064849854E0
1.448567552E0,-7.265870094E0,3.873775959E0,7.988194466E0
1.450557396E0,-7.251497269E0,3.777956963E0,7.901957035E0
1.452547239E0,-7.237124443E0,3.634228230E0,7.772601604E0
1.454537083E0,-7.165259838E0,3.495290518E0,7.739064693E0
1.456526927E0,-7.021531105E0,3.346770763E0,7.691154957E0
1.458516771E0,-6.906548023E0,3.236578703E0,7.686364174E0
1.460506614E0,-6.686164379E0,3.083268166E0,7.739064693E0
1.462496458E0,-6.494525909E0,2.977867126E0,7.858838558E0
1.464486302E0,-6.341215134E0,2.877256870E0,8.045686722E0
1.466476146E0,-6.144785881E0,2.762274027E0,8.266070366E0
1.468465989E0,-5.972311497E0,2.661664009E0,8.491245270E0
1.470455833E0,-5.814209938E0,2.513144255E0,8.658928871E0
1.472445677E0,-5.646526337E0,2.426907063E0,8.759538651E0
1.474435521E0,-5.435724258E0,2.335878849E0,8.773911476E0
1.476425364E0,-5.248877048E0,2.259223461E0,8.749957085E0
1.478415208E0,-5.095566273E0,2.206522942E0,8.673301697E0
1.480405052E0,-4.937464714E0,2.158613443E0,8.558319092E0
1.482394896E0,-4.798527241E0,2.125076771E0,8.390635490E0
1.484384739E0,-4.650007248E0,2.105912924E0,8.103178024E0
1.486374583E0,-4.554188251E0,2.134658575E0,7.830092907E0
1.488364427E0,-4.439205170E0,2.139449596E0,7.494725704E0
1.490354271E0,-4.338595390E0,2.182568073E0,7.231223106E0
1.492344114E0,-4.228403091E0,2.201731920E0,7.053957939E0
1.494333958E0,-4.123002052E0,2.244850636E0,6.972511768E0
1.496323802E0,-3.988855600E0,2.292760134E0,6.967720509E0
1.498313646E0,-3.878663540E0,2.331087828E0,7.034793854E0
1.500303489E0,-3.763680696E0,2.350251675E0,7.106658459E0
1.502293333E0,-3.701398134E0,2.388579369E0,7.216850281E0
1.504283177E0,-3.605579138E0,2.398161173E0,7.346206188E0
1.506273021E0,-3.533714771E0,2.412534237E0,7.489934921E0
1.508262864E0,-3.452268362E0,2.393370390E0,7.585753918E0
1.510252708E0,-3.366031170E0,2.364624500E0,7.619290829E0
1.512242552E0,-3.222302437E0,2.383788347E0,7.686364174E0
1.514232396E0,-3.150438070E0,2.364624500E0,7.686364174E0
1.516222239E0,-3.164810896E0,2.331087828E0,7.748646736E0
1.518212083E0,-3.001918554E0,2.388579369E0,7.830092907E0
1.520201927E0,-2.537195683E0,2.690409660E0,7.911539078E0
1.522191771E0,-2.359930277E0,2.527517080E0,8.031313896E0
1.524181614E0,-2.733624935E0,2.316715002E0,8.127132416E0
1.526171458E0,-2.843816996E0,2.177777290E0,7.969030857E0
1.528161302E0,-2.997127533E0,2.105912924E0,7.557008266E0
1.530151146E0,-3.054619074E0,2.192150116E0,7.461189270E0
1.532140989E0,-3.131274223E0,2.206522942E0,7.197686672E0
1.534130833E0,-3.337285519E0,2.206522942E0,6.986884594E0
1.536120677E0,-3.447477579E0,2.311923981E0,6.996466160E0
1.538110521E0,-3.485805035E0,2.402952194E0,6.747336388E0
1.540100364E0,-3.485805035E0,2.527517080E0,6.685054302E0
1.542090208E0,-3.442686558E0,2.628127098E0,6.546116352E0
1.544080052E0,-3.409149885E0,2.757483006E0,6.431133270E0
1.546069896E0,-3.461850405E0,2.843720198E0,6.445506096E0
1.548059739E0,-3.576833248E0,2.915584564E0,6.498206615E0
1.550049583E0,-3.715770960E0,2.939539433E0,6.512579918E0
1.552039427E0,-3.816381216E0,3.001821756E0,6.469460964E0
1.554029271E0,-3.883454561E0,3.044940472E0,6.373641968E0
1.556019114E0,-3.993646622E0,3.092849970E0,6.526952744E0
1.558008958E0,-4.041555882E0,3.040149450E0,6.747336388E0
1.559998802E0,-4.156538963E0,2.953912258E0,7.034793854E0
1.561988646E0,-4.185284615E0,2.882047892E0,7.394115925E0
1.563978489E0,-4.137374878E0,2.810183525E0,7.715109825E0
1.565968333E0,-4.055928707E0,2.733528137E0,7.988194466E0
1.567958177E0,-3.979273796E0,2.714364529E0,8.242115974E0
1.569948021E0,-3.897827387E0,2.723946333E0,8.543946266E0
1.571937864E0,-3.936155081E0,2.733528137E0,8.903267860E0
1.573927708E0,-3.912200212E0,2.747901201E0,9.195516586E0
1.575917552E0,-3.888245583E0,2.805392504E0,9.406318665E0
1.577907396E0,-3.830754042E0,2.925166607E0,9.492555618E0
1.579897239E0,-3.768471479E0,3.078477144E0,9.545255661E0
1.581887083E0,-3.778053522E0,3.241369724E0,9.449437141E0
1.583876927E0,-3.811590195E0,3.385098457E0,9.243425369E0
1.585866771E0,-3.816381216E0,3.595900536E0,8.884103775E0
1.587856614E0,-3.797217369E0,3.811493635E0,8.395426750E0
1.589846458E0,-3.495387077E0,4.170815468E0,8.084013939E0
1.591836302E0,-3.600788116E0,4.228306770E0,7.806138039E0
1.593826146E0,-3.706189156E0,4.290589333E0,7.585753918E0
1.595815989E0,-3.797217369E0,4.439108849E0,7.489934921E0
1.597805833E0,-3.897827387E0,4.482227802E0,7.427652359E0
1.599795677E0,-4.055928707E0,4.530137062E0,7.557008266E0
1.601785521E0,-4.185284615E0,4.563673973E0,7.624081612E0
1.603775364E0,-4.295476437E0,4.582837582E0,7.825302124E0
1.605765208E0,-4.257149220E0,4.625956535E0,8.112759590E0
1.607755052E0,-4.223612309E0,4.611583233E0,8.280443192E0
1.609744896E0,-3.888245583E0,4.333707809E0,8.318771362E0
1.611734739E0,-4.170911789E0,4.304962158E0,8.127132416E0
1.613724583E0,-4.146956921E0,4.300171375E0,8.740375519E0
1.615714427E0,-4.170911789E0,4.271425247E0,9.003877640E0
1.617704271E0,-4.099047184E0,4.247470856E0,9.358408928E0
1.619694114E0,-4.060719967E0,4.223515987E0,9.674612045E0
1.621683958E0,-3.873872757E0,4.132487774E0,9.674612045E0
1.623673802E0,-3.749307871E0,4.113323689E0,9.530882835E0
1.625663646E0,-3.840335846E0,4.041459560E0,9.550046921E0
1.627653489E0,-3.883454561E0,3.964804173E0,9.631493568E0
1.629643333E0,-3.945737123E0,4.031877518E0,9.588375092E0
1.631633177E0,-3.888245583E0,4.098950863E0,9.430273056E0
1.633623021E0,-4.089465618E0,4.257052422E0,9.382363319E0
1.635612864E0,-4.309849739E0,4.372035503E0,9.367990494E0
1.637602708E0,-4.372131824E0,4.372035503E0,9.085324287E0
1.639592552E0,-4.424832344E0,4.276216507E0,8.979923248E0
1.641582396E0,-4.592515945E0,4.328917027E0,8.951177597E0
1.643572239E0,-4.793735981E0,4.381617546E0,8.845776558E0
1.645562083E0,-4.918301105E0,4.372035503E0,8.898476601E0
1.647551927E0,-4.961419582E0,4.333707809E0,8.922431946E0
1.649541771E0,-4.793735981E0,4.242679596E0,8.898476601E0
1.651531614E0,-4.520651817E0,4.233098030E0,8.802658081E0
1.653521458E0,-4.223612309E0,4.266634464E0,8.644556046E0
1.655511302E0,-3.979273796E0,4.252261639E0,8.491245270E0
1.657501146E0,-3.744516850E0,4.223515987E0,8.395426750E0
1.659490989E0,-3.691816330E0,4.175606251E0,8.337934494E0
1.661480833E0,-3.572042465E0,4.151651382E0,8.328352928E0
1.663470677E0,-3.437895536E0,4.070205212E0,8.313980103E0
1.665460521E0,-3.346867323E0,4.012713909E0,8.261279106E0
1.667450364E0,-3.298957825E0,3.945640326E0,8.261279106E0
1.669440208E0,-3.318121672E0,3.912103653E0,8.280443192E0
1.671430052E0,-3.284584999E0,3.902521849E0,8.285234451E0
1.673419896E0,-3.260630131E0,3.816284657E0,8.246906281E0
1.675409739E0,-3.289375782E0,3.749211073E0,8.261279106E0
1.677399583E0,-3.351658344E0,3.696510553E0,8.165460587E0
1.679389427E0,-3.442686558E0,3.658182859E0,8.021731377E0
1.681379271E0,-3.519341946E0,3.682137728E0,7.969030857E0
1.683369114E0,-3.572042465E0,3.672555923E0,7.748646736E0
1.685358958E0,-3.595997095E0,3.682137728E0,7.533053398E0
1.687348802E0,-3.624742985E0,3.754002094E0,7.422861576E0
1.689338646E0,-3.634324789E0,3.720465422E0,7.274342060E0
1.691328489E0,-3.643906832E0,3.701301575E0,7.221641541E0
1.693318333E0,-3.610369921E0,3.686928749E0,7.173731804E0
1.695308177E0,-3.576833248E0,3.547991037E0,7.144986153E0
1.697298021E0,-3.471432209E0,3.456962824E0,7.058748722E0
1.699287864E0,-3.394777060E0,3.399471283E0,7.001257420E0
1.701277708E0,-3.428313732E0,3.284488201E0,6.905437946E0
1.703267552E0,-3.461850405E0,3.255742550E0,6.771291256E0
1.705257396E0,-3.495387077E0,3.183878183E0,6.689845085E0
1.707247239E0,-3.504968882E0,3.212624073E0,6.570071220E0
1.709237083E0,-3.548087597E0,3.179087162E0,6.570071220E0
1.711226927E0,-3.576833248E0,3.188669205E0,6.474252224E0
1.713216771E0,-3.658279657E0,3.174296379E0,6.507788658E0
1.715206614E0,-3.782844543E0,3.217414856E0,6.512579918E0
1.717196458E0,-3.893036366E0,3.308443069E0,6.574862003E0
1.719186302E0,-4.003228188E0,3.274906397E0,6.594026089E0
1.721176146E0,-4.041555882E0,3.303652048E0,6.641935349E0
1.723165989E0,-4.084674358E0,3.255742550E0,6.709009171E0
1.725155833E0,-4.166121006E0,3.322815895E0,6.809618950E0
1.727145677E0,-4.180493832E0,3.303652048E0,6.915019989E0
1.729135521E0,-4.161329746E0,3.327606916E0,6.934184074E0
1.731125364E0,-4.151747704E0,3.341979742E0,7.077912807E0
1.733115208E0,-4.204448223E0,3.428216934E0,7.231223106E0
1.735105052E0,-4.151747704E0,3.418635130E0,7.236014366E0
1.737094896E0,-4.065510750E0,3.442589998E0,7.216850281E0
1.739084739E0,-4.036765099E0,3.581527710E0,7.207268238E0
1.741074583E0,-4.008019447E0,3.639019251E0,7.130613327E0
1.743064427E0,-4.012810230E0,3.787538767E0,7.010839462E0
1.745054271E0,-4.036765099E0,3.979176998E0,6.862319469E0
1.747044114E0,-4.055928707E0,4.122905731E0,6.737754822E0
1.749033958E0,-4.199657440E0,4.300171375E0,6.637144566E0
1.751023802E0,-4.319431305E0,4.477436543E0,6.598816872E0
1.753013646E0,-4.472742081E0,4.683447838E0,6.565280437E0
1.755003541E0,-4.568561077E0,4.884667873E0,6.536534309E0
1.756993437E0,-4.606888771E0,5.100261211E0,6.594026089E0
1.758983333E0,-4.592515945E0,5.315854073E0,6.728172779E0
1.760973229E0,-4.487114906E0,5.507492542E0,6.876692295E0
1.762963125E0,-4.362550259E0,5.670384884E0,7.140194893E0
1.764953021E0,-4.228403091E0,5.790158749E0,7.470771313E0
1.766942916E0,-4.204448223E0,5.914723873E0,7.854047775E0
1.768932812E0,-4.803318024E0,6.743559361E0,9.286543846E0
1.770922708E0,-3.926573277E0,5.617684364E0,1.037409115E1
1.772912604E0,-2.575523376E0,3.361143589E0,9.281753540E0
1.774902500E0,-3.375613213E0,3.303652048E0,8.582273483E0
1.776892396E0,-4.300267696E0,4.103742123E0,8.917640686E0
1.778882291E0,-4.218821526E0,3.921685696E0,8.879312515E0
1.780872187E0,-3.639115810E0,3.428216934E0,8.409799576E0
1.782862083E0,-3.279793978E0,3.116804838E0,7.384533882E0
1.784851979E0,-3.198347807E0,3.020985603E0,6.028693199E0
1.786841875E0,-3.088155746E0,3.001821756E0,4.773462296E0
1.788831771E0,-2.987545490E0,2.838929415E0,3.786525249E0
1.790821666E0,-2.795907259E0,2.604172468E0,3.034345150E0
1.792811562E0,-2.570732355E0,2.546680927E0,2.464221239E0
1.794801458E0,-2.283274889E0,2.498771429E0,2.138436079E0
1.796791354E0,-1.976653576E0,2.431697845E0,2.133645058E0
1.798781250E0,-1.626913667E0,2.378997326E0,2.387565851E0
1.800771146E0,-1.545467377E0,2.465234756E0,2.828333855E0
1.802761041E0,-1.880834341E0,2.762274027E0,3.503858805E0
1.804750937E0,-2.264111042E0,3.054522276E0,4.323112488E0
1.806740781E0,-2.556359529E0,3.270115376E0,5.185484409E0
1.808730625E0,-2.738415718E0,3.399471283E0,5.937664986E0
1.810720468E0,-2.829443932E0,3.442589998E0,6.479043007E0
1.812710312E0,-2.882144451E0,3.514454365E0,6.795246124E0
1.814700156E0,-2.891726494E0,3.591109514E0,6.900647163E0
1.816690000E0,-2.824653149E0,3.634228230E0,6.919811249E0
1.818679843E0,-2.724042892E0,3.624646187E0,6.962929726E0
1.820669687E0,-2.709670067E0,3.624646187E0,7.034793854E0
1.822659531E0,-2.791116238E0,3.615064383E0,7.082703590E0
1.824649375E0,-2.977963686E0,3.567154884E0,7.049166679E0
1.826639218E0,-3.207929611E0,3.461753845E0,7.020421028E0
1.828629062E0,-3.524132729E0,3.365934610E0,6.924602032E0
1.830618906E0,-3.897827387E0,3.351561785E0,6.766500473E0
1.832608750E0,-4.209239483E0,3.298861265E0,6.526952744E0
1.834598593E0,-4.491905689E0,3.236578703E0,6.320941448E0
1.836588437E0,-4.712289810E0,3.169505358E0,6.124512196E0
1.838578281E0,-4.879973412E0,3.131177664E0,6.023901939E0
1.840568125E0,-4.932673931E0,3.068895340E0,5.894546032E0
1.842557968E0,-4.937464714E0,3.016194820E0,5.779563427E0
1.844547812E0,-4.860809803E0,2.958703279E0,5.674162388E0
1.846537656E0,-4.764990330E0,2.896420717E0,5.611879826E0
1.848527500E0,-4.635634422E0,2.882047892E0,5.549597263E0
1.850517343E0,-4.602097988E0,2.920375586E0,5.501687527E0
1.852507187E0,-4.582933903E0,2.963494301E0,5.444196224E0
1.854497031E0,-4.630843639E0,3.049731493E0,5.429823399E0
1.856486875E0,-4.731453896E0,3.131177664E0,5.444196224E0
1.858476718E0,-4.894346237E0,3.188669205E0,5.463360310E0
1.860466562E0,-5.076402664E0,3.255742550E0,5.559179306E0
1.862456406E0,-5.287204742E0,3.294070244E0,5.654998302E0
1.864446250E0,-5.488424778E0,3.318025112E0,5.741235733E0
1.866436093E0,-5.646526337E0,3.332397938E0,5.784354210E0
1.868425937E0,-5.751927376E0,3.303652048E0,5.827472687E0
1.870415781E0,-5.814209938E0,3.279697418E0,5.846636772E0
1.872405625E0,-5.833374023E0,3.279697418E0,5.817891121E0
1.874395468E0,-5.766300678E0,3.308443069E0,5.769981384E0
1.876385312E0,-5.780673504E0,3.284488201E0,5.640625477E0
1.878375156E0,-5.814209938E0,3.332397938E0,5.611879826E0
1.880365000E0,-5.895656109E0,3.351561785E0,5.607088566E0
1.882354843E0,-6.005848408E0,3.327606916E0,5.621461868E0
1.884344687E0,-6.154367924E0,3.341979742E0,5.635834694E0
1.886334531E0,-6.346006393E0,3.303652048E0,5.631043434E0
1.888324375E0,-6.532853603E0,3.226996899E0,5.635834694E0
1.890314218E0,-6.724492073E0,3.135968685E0,5.626252651E0
1.892304062E0,-6.858638763E0,3.054522276E0,5.659789562E0
1.894293906E0,-6.964039803E0,2.963494301E0,5.683743954E0
1.896283750E0,-6.978412628E0,2.915584564E0,5.712490082E0
1.898273593E0,-6.973621845E0,2.872466087E0,5.765190601E0
1.900263437E0,-6.949666977E0,2.800601721E0,5.803517818E0
1.902253281E0,-6.868220806E0,2.762274027E0,5.875382423E0
1.904243125E0,-6.777192593E0,2.690409660E0,5.889755249E0
1.906232968E0,-6.681373119E0,2.656872988E0,5.913710117E0
1.908222812E0,-6.609508991E0,2.618545294E0,5.908919334E0
1.910212656E0,-6.528062820E0,2.589799643E0,5.899337292E0
1.912202500E0,-6.465780258E0,2.618545294E0,5.851427555E0
1.914192343E0,-6.417870522E0,2.594590425E0,5.822681904E0
1.916182187E0,-6.427452564E0,2.642500162E0,5.760399342E0
1.918172031E0,-6.437034607E0,2.690409660E0,5.693325996E0
1.920161875E0,-6.504107952E0,2.767065048E0,5.602297783E0
1.922151718E0,-6.556808472E0,2.824556351E0,5.516060829E0
1.924141562E0,-6.619091034E0,2.901211739E0,5.425032616E0
1.926131406E0,-6.686164379E0,2.992239952E0,5.266931057E0
1.928121250E0,-6.748446465E0,3.107222795E0,5.137575150E0
1.930111093E0,-6.829893112E0,3.236578703E0,4.974682331E0
1.932100937E0,-6.853847504E0,3.356352568E0,4.874072552E0
1.934090781E0,-6.868220806E0,3.480917454E0,4.811789989E0
1.936080625E0,-6.796356201E0,3.610273361E0,4.778253078E0
1.938070468E0,-6.662209511E0,3.730047226E0,4.763880253E0
1.940060312E0,-6.484943867E0,3.835448265E0,4.783044338E0
1.942050156E0,-6.288514614E0,3.897730827E0,4.816580772E0
1.944040000E0,-6.053757668E0,3.960013151E0,4.859699726E0
1.946029843E0,-5.838164806E0,4.003131866E0,4.883654118E0
1.948019687E0,-5.656108379E0,4.046250820E0,4.907608986E0
1.950009531E0,-5.512379646E0,4.084578037E0,4.902818203E0
1.951999375E0,-5.435724258E0,4.094160080E0,4.912400246E0
1.953989218E0,-5.411769867E0,4.108532906E0,4.926773071E0
1.955979062E0,-5.430933475E0,4.103742123E0,4.960309505E0
1.957968906E0,-5.445306301E0,4.079787254E0,5.003427982E0
1.959958750E0,-5.474051952E0,4.051041603E0,5.013010025E0
1.961948593E0,-5.502797604E0,4.031877518E0,5.051337719E0
1.963938437E0,-5.531543732E0,3.983968019E0,5.108829498E0
1.965928281E0,-5.584244251E0,3.950431347E0,5.142365932E0
1.967918125E0,-5.622571945E0,3.912103653E0,5.161530018E0
1.969907968E0,-5.660899639E0,3.902521849E0,5.180693626E0
1.971897812E0,-5.732763767E0,3.902521849E0,5.171111584E0
1.973887656E0,-5.890865326E0,3.916894674E0,5.180693626E0
1.975877500E0,-6.077712536E0,3.979176998E0,5.199857235E0
1.977867343E0,-6.269351006E0,4.027086735E0,5.247766972E0
1.979857187E0,-6.489735126E0,4.079787254E0,5.338795185E0
1.981847031E0,-6.729282856E0,4.146860600E0,5.448987007E0
1.983836875E0,-6.925712109E0,4.194770336E0,5.559179306E0
1.985826718E0,-7.088604450E0,4.247470856E0,5.654998302E0
1.987816562E0,-7.241915226E0,4.304962158E0,5.760399342E0
1.989806406E0,-7.404807568E0,4.372035503E0,5.861009598E0
1.991796250E0,-7.467090130E0,4.419945240E0,5.947246552E0
1.993786093E0,-7.519790649E0,4.491809368E0,6.081393719E0
1.995775937E0,-7.572491169E0,4.534928322E0,6.191585541E0
1.997765781E0,-7.586863995E0,4.578046799E0,6.296986580E0
1.999755625E0,-7.591655254E0,4.678657055E0,6.378432751E0
2.001745468E0,-7.558118343E0,4.740939140E0,6.483833790E0
2.003735312E0,-7.500627041E0,4.817594528E0,6.536534309E0
2.005725156E0,-7.385643959E0,4.894249916E0,6.570071220E0
2.007715000E0,-7.289824963E0,4.990068913E0,6.589234829E0
2.009704843E0,-7.184423923E0,5.071515083E0,6.574862003E0
2.011694687E0,-7.126932144E0,5.148170471E0,6.526952744E0
2.013684531E0,-7.088604450E0,5.248780727E0,6.469460964E0
2.015674375E0,-7.093395710E0,5.325436115E0,6.411969662E0
2.017664218E0,-7.107768536E0,5.402091503E0,6.373641968E0
2.019654062E0,-7.131723404E0,5.493119717E0,6.316150665E0
2.021643906E0,-7.146096230E0,5.612893581E0,6.325732231E0
2.023633750E0,-7.232333183E0,5.646430016E0,6.249076843E0
2.025623593E0,-7.304197788E0,5.675175667E0,6.239495277E0
2.027613437E0,-7.423971653E0,5.737458229E0,6.268240929E0
2.029603281E0,-7.639564514E0,5.847650528E0,6.234704018E0
2.031593125E0,-7.835993767E0,5.943469524E0,6.182003498E0
2.033582968E0,-8.013259888E0,5.957842350E0,6.124512196E0
2.035572812E0,-8.089915276E0,5.986588001E0,6.062229633E0
2.037562656E0,-8.113869667E0,5.972215176E0,6.009529114E0
2.039552500E0,-8.056378365E0,5.986588001E0,5.961619854E0
2.041542343E0,-7.912649155E0,5.986588001E0,5.913710117E0
2.043532187E0,-7.668310642E0,5.948260307E0,5.846636772E0
2.045522031E0,-7.457508087E0,5.900351048E0,5.817891121E0
2.047511875E0,-7.222751617E0,5.804531574E0,5.774772167E0
2.049501718E0,-7.021531105E0,5.708712578E0,5.755608559E0
2.051491562E0,-6.853847504E0,5.660802841E0,5.746026516E0
2.053481406E0,-6.758028507E0,5.660802841E0,5.769981384E0
2.055471250E0,-6.714910030E0,5.670384884E0,5.808309078E0
2.057461093E0,-6.676582336E0,5.675175667E0,5.913710117E0
2.059450937E0,-6.710119247E0,5.689548969E0,6.019111156E0
2.061440781E0,-6.758028507E0,5.684757710E0,6.177212715E0
2.063430625E0,-6.781983376E0,5.656012058E0,6.373641968E0
2.065420468E0,-6.825101852E0,5.627266407E0,6.565280437E0
2.067410312E0,-6.873011589E0,5.598520756E0,6.713799953E0
2.069400156E0,-6.896966457E0,5.541028976E0,6.876692295E0
2.071390000E0,-6.896966457E0,5.478746891E0,7.030003071E0
2.073379843E0,-6.877802372E0,5.378136635E0,7.168941021E0
2.075369687E0,-6.829893112E0,5.368554592E0,7.283923626E0
2.077359531E0,-6.772401333E0,5.358972549E0,7.398906708E0
2.079349375E0,-6.686164379E0,5.315854073E0,7.465980053E0
2.081339218E0,-6.552017212E0,5.301481247E0,7.494725704E0
2.083329062E0,-6.441825390E0,5.277526379E0,7.537844658E0
2.085318906E0,-6.365170002E0,5.272735596E0,7.561799526E0
2.087308750E0,-6.293305874E0,5.243989944E0,7.509098530E0
2.089298593E0,-6.231023312E0,5.301481247E0,7.456398010E0
2.091288437E0,-6.163949966E0,5.320644855E0,7.379743099E0
2.093278281E0,-6.139995098E0,5.392509460E0,7.298296452E0
2.095268125E0,-6.096876621E0,5.454792023E0,7.226432323E0
2.097257968E0,-6.044176102E0,5.531447411E0,7.154567719E0
2.099247812E0,-6.001057148E0,5.584147930E0,7.097076416E0
2.101237656E0,-5.943565845E0,5.636848450E0,7.058748722E0
2.103227500E0,-5.862119675E0,5.665594101E0,7.001257420E0
2.105217343E0,-5.833374023E0,5.699130535E0,6.915019989E0
2.107207187E0,-5.852537632E0,5.737458229E0,6.852737427E0
2.109197031E0,-5.871701717E0,5.794950008E0,6.685054302E0
2.111186875E0,-5.929193020E0,5.857232094E0,6.522161484E0
2.113176718E0,-5.972311497E0,5.924305439E0,6.368851185E0
2.115166562E0,-6.005848408E0,6.010542870E0,6.287404537E0
2.117156406E0,-6.048966885E0,6.106361866E0,6.182003498E0
2.119146250E0,-6.072921753E0,6.173435211E0,6.114930153E0
2.121136093E0,-6.116040230E0,6.278836727E0,6.052647591E0
2.123125937E0,-6.149577141E0,6.369864464E0,5.995156288E0
2.125115781E0,-6.144785881E0,6.475265503E0,5.942455769E0
2.127105625E0,-6.178322792E0,6.575875759E0,5.918500900E0
2.129095468E0,-6.187904835E0,6.657321930E0,5.865800381E0
2.131085312E0,-6.192695618E0,6.767514229E0,5.856218338E0
2.133075156E0,-6.207068443E0,6.920824528E0,5.822681904E0
2.135065000E0,-6.202277660E0,7.088508129E0,5.817891121E0
2.137054843E0,-6.192695618E0,7.270564556E0,5.841845512E0
2.139044687E0,-6.202277660E0,7.433457375E0,5.851427555E0
2.141034531E0,-6.211859703E0,7.601140499E0,5.880173206E0
2.143024375E0,-6.226232529E0,7.720914364E0,5.851427555E0
2.145014218E0,-6.231023312E0,7.816733837E0,5.861009598E0
2.147004062E0,-6.197486401E0,7.893389225E0,5.837054729E0
2.148993906E0,-6.116040230E0,7.960462570E0,5.803517818E0
2.150983750E0,-5.972311497E0,7.974835396E0,5.779563427E0
2.152970000E0,-5.838164806E0,7.979626179E0,5.793936253E0
2.154956250E0,-5.780673504E0,8.003581047E0,5.779563427E0
2.156942916E0,-5.771091461E0,8.046699524E0,5.779563427E0
2.158930104E0,-5.795046329E0,8.128146172E0,5.678953171E0
2.160917916E0,-5.871701717E0,8.209591866E0,5.602297783E0
2.162906406E0,-5.991475582E0,8.329365730E0,5.573552132E0
2.164895573E0,-6.226232529E0,8.468303680E0,5.592715740E0
2.166885416E0,-6.475362301E0,8.635987282E0,5.626252651E0
2.168875937E0,-6.724492073E0,8.789298058E0,5.616670609E0
2.170867083E0,-6.853847504E0,8.937817574E0,5.587924957E0
2.172858750E0,-6.911339283E0,9.057591438E0,5.549597263E0
2.174850885E0,-6.935294151E0,9.158202171E0,5.597507000E0
2.176843333E0,-6.901757240E0,9.268393517E0,5.755608559E0
2.178835989E0,-6.815520287E0,9.402540207E0,5.544806480E0
2.180828750E0,-6.738864899E0,9.483986855E0,5.448987007E0
2.182821510E0,-6.700537205E0,9.560642242E0,5.511269569E0
2.184811458E0,-6.714910030E0,9.646879196E0,5.602297783E0
2.186801354E0,-6.667000294E0,9.689997673E0,5.631043434E0
2.188791198E0,-6.619091034E0,9.709161758E0,5.645416260E0
2.190781041E0,-6.556808472E0,9.718743324E0,5.674162388E0
2.192770885E0,-6.437034607E0,9.694788933E0,5.678953171E0
2.194760729E0,-6.326842308E0,9.666043282E0,5.693325996E0
2.196750573E0,-6.221441269E0,9.613342285E0,5.712490082E0
2.198740416E0,-6.111249447E0,9.570223808E0,5.702908039E0
2.200730260E0,-6.005848408E0,9.483986855E0,5.731653690E0
2.202720104E0,-5.900447369E0,9.402540207E0,5.755608559E0
2.204709948E0,-5.795046329E0,9.354630470E0,5.803517818E0
2.206699791E0,-5.684854031E0,9.306721687E0,5.851427555E0
2.208689635E0,-5.574662209E0,9.239647865E0,5.913710117E0
2.210679479E0,-5.517170906E0,9.167783737E0,5.952037811E0
2.212669323E0,-5.488424778E0,9.038427353E0,5.961619854E0
2.214659166E0,-5.450097084E0,8.870744705E0,5.889755249E0
2.216649010E0,-5.335114479E0,8.473094940E0,5.789144993E0
2.218638854E0,-5.435724258E0,8.295829773E0,5.664580345E0
2.220628698E0,-5.608198643E0,8.429976463E0,5.554388046E0
2.222618541E0,-5.823791981E0,8.530586243E0,5.597507000E0
2.224608385E0,-6.048966885E0,8.674315453E0,5.683743954E0
2.226598229E0,-6.240605354E0,8.774925232E0,5.760399342E0
2.228588073E0,-6.441825390E0,8.841998100E0,5.774772167E0
2.230577916E0,-6.566390514E0,8.918653488E0,5.817891121E0
2.232567760E0,-6.628672600E0,8.995308876E0,5.793936253E0
2.234557604E0,-6.643045425E0,9.076755524E0,5.865800381E0
2.236547448E0,-6.700537205E0,9.100709915E0,5.956828594E0
2.238537291E0,-6.767610550E0,9.139038086E0,6.033483982E0
2.240527135E0,-6.853847504E0,9.172574997E0,6.086184502E0
2.242516979E0,-6.920921326E0,9.172574997E0,6.090975285E0
2.244506823E0,-6.935294151E0,9.182156563E0,6.028693199E0
2.246496666E0,-6.949666977E0,9.201320648E0,5.961619854E0
2.248486510E0,-6.954457760E0,9.220483780E0,5.894546032E0
2.250476354E0,-6.968830585E0,9.263603210E0,5.913710117E0
2.252466198E0,-6.964039803E0,9.311511993E0,5.889755249E0
2.254456041E0,-6.949666977E0,9.335467339E0,5.875382423E0
2.256445885E0,-6.920921326E0,9.349840164E0,5.841845512E0
2.258435729E0,-6.906548023E0,9.412122726E0,5.741235733E0
2.260425573E0,-6.935294151E0,9.455241203E0,5.640625477E0
2.262415416E0,-6.935294151E0,9.488778114E0,5.592715740E0
2.264405260E0,-6.916130066E0,9.531896591E0,5.530433655E0
2.266395104E0,-6.873011589E0,9.642087936E0,5.520851612E0
2.268384948E0,-6.762819767E0,9.728325844E0,5.602297783E0
2.270374791E0,-6.585554123E0,9.809771538E0,5.698116779E0
2.272364635E0,-6.403497696E0,9.886426926E0,5.746026516E0
2.274354479E0,-6.283723831E0,9.996619225E0,5.722071648E0
2.276344323E0,-6.221441269E0,1.010202026E1,5.664580345E0
2.278334166E0,-6.173532009E0,1.022658539E1,5.583134174E0
2.280324010E0,-6.168740749E0,1.036552334E1,5.506478786E0
2.282313854E0,-6.154367924E0,1.048050594E1,5.439405441E0
2.284303698E0,-6.163949966E0,1.061944389E1,5.415450573E0
2.286293541E0,-6.178322792E0,1.072963524E1,5.391495705E0
2.288283385E0,-6.183113575E0,1.085420036E1,5.396286488E0
2.290273229E0,-6.154367924E0,1.095481014E1,5.377122879E0
2.292263073E0,-6.063339710E0,1.105542088E1,5.343585968E0
2.294252916E0,-5.953147888E0,1.114165783E1,5.281303883E0
2.296242760E0,-5.876492500E0,1.121352196E1,5.252557755E0
2.298232604E0,-5.804627895E0,1.122310448E1,5.214230537E0
2.300222448E0,-5.790255070E0,1.124226761E1,5.223812103E0
2.302212291E0,-5.756718636E0,1.123268604E1,5.290885448E0
2.304202135E0,-5.732763767E0,1.117519474E1,5.310049534E0
2.306191979E0,-5.737554550E0,1.108895779E1,5.247766972E0
2.308181823E0,-5.713600159E0,1.099313831E1,5.223812103E0
2.310171666E0,-5.675272465E0,1.088294601E1,5.204648495E0
2.312161510E0,-5.665690422E0,1.077275467E1,5.175902843E0
2.314151354E0,-5.656108379E0,1.065777111E1,5.171111584E0
2.316141198E0,-5.670481205E0,1.055716133E1,5.185484409E0
2.318131041E0,-5.689645290E0,1.043259621E1,5.228603363E0
2.320120885E0,-5.689645290E0,1.032719517E1,5.262139797E0
2.322110729E0,-5.732763767E0,1.019783974E1,5.281303883E0
2.324100573E0,-5.804627895E0,1.010202026E1,5.295676708E0
2.326090416E0,-5.890865326E0,1.003494644E1,5.281303883E0
2.328080260E0,-5.981893539E0,9.963082314E0,5.242976189E0
2.330070104E0,-6.077712536E0,9.905591011E0,5.195066452E0
2.332059948E0,-6.139995098E0,9.843308449E0,5.166320801E0
2.334049791E0,-6.163949966E0,9.766653061E0,5.156738758E0
2.336039635E0,-6.154367924E0,9.704370499E0,5.180693626E0
2.338029479E0,-6.130413055E0,9.632506371E0,5.209439278E0
2.340019323E0,-6.044176102E0,9.594179153E0,5.262139797E0
2.342009166E0,-5.991475582E0,9.555850983E0,5.300467491E0
2.343999010E0,-5.948356628E0,9.531896591E0,5.343585968E0
2.345988854E0,-5.905238152E0,9.522314072E0,5.372332096E0
2.347978698E0,-5.890865326E0,9.522314072E0,5.391495705E0
2.349968541E0,-5.886074543E0,9.527105331E0,5.348377228E0
2.351958385E0,-5.886074543E0,9.512732506E0,5.305258274E0
2.353948229E0,-5.895656109E0,9.522314072E0,5.276512623E0
2.355938073E0,-5.905238152E0,9.503150940E0,5.214230537E0
2.357927916E0,-5.938775063E0,9.503150940E0,5.180693626E0
2.359917760E0,-5.924402237E0,9.512732506E0,5.123202324E0
2.361907604E0,-5.905238152E0,9.488778114E0,5.104038239E0
2.363897448E0,-5.862119675E0,9.464822769E0,5.065710545E0
2.365887291E0,-5.756718636E0,9.436077118E0,5.056128502E0
2.367877135E0,-5.665690422E0,9.407331467E0,5.041755676E0
2.369866979E0,-5.541125298E0,9.388167381E0,5.041755676E0
2.371856823E0,-5.406978607E0,9.359421730E0,5.041755676E0
2.373846666E0,-5.296786785E0,9.354630470E0,5.017801285E0
2.375836510E0,-5.181803703E0,9.354630470E0,4.984264374E0
2.377826354E0,-5.062029839E0,9.301930428E0,4.979473591E0
2.379816198E0,-4.956628799E0,9.263603210E0,4.984264374E0
2.381806041E0,-4.860809803E0,9.201320648E0,4.965100765E0
2.383795885E0,-4.764990330E0,9.115082741E0,4.941145897E0
2.385785729E0,-4.664380550E0,9.014472961E0,4.926773071E0
2.387775573E0,-4.578143120E0,8.942608833E0,4.931563854E0
2.389765416E0,-4.501487732E0,8.889907837E0,4.955518723E0
2.391755260E0,-4.467951298E0,8.870744705E0,5.022592068E0
2.393745104E0,-4.429623604E0,8.885117531E0,5.075292587E0
2.395734948E0,-4.410459518E0,8.894699097E0,5.118411064E0
2.397724791E0,-4.386504650E0,8.904280663E0,5.084874630E0
2.399714635E0,-4.352968216E0,8.904280663E0,5.056128502E0
2.401704479E0,-4.329013348E0,8.889907837E0,5.056128502E0
2.403694323E0,-4.281103611E0,8.875535011E0,4.979473591E0
2.405684166E0,-4.266730785E0,8.856371880E0,4.989055157E0
2.407674010E0,-4.266730785E0,8.861162186E0,5.051337719E0
2.409663854E0,-4.290685654E0,8.875535011E0,5.132783890E0
2.411653698E0,-4.319431305E0,8.899490356E0,5.195066452E0
2.413643541E0,-4.415250778E0,8.942608833E0,5.262139797E0
2.415633385E0,-4.491905689E0,9.000100136E0,5.343585968E0
2.417623229E0,-4.592515945E0,9.062382698E0,5.434614182E0
2.419613073E0,-4.650007248E0,9.115082741E0,5.492105961E0
2.421602916E0,-4.736244678E0,9.158202171E0,5.520851612E0
2.423592760E0,-4.822482109E0,9.196529388E0,5.568761349E0
2.425582604E0,-4.889555454E0,9.225275040E0,5.587924957E0
2.427572448E0,-4.927883148E0,9.230066299E0,5.626252651E0
2.429562291E0,-4.923091888E0,9.249229431E0,5.659789562E0
2.431552135E0,-4.908719063E0,9.239647865E0,5.693325996E0
2.433541979E0,-4.884764194E0,9.234856606E0,5.702908039E0
2.435531823E0,-4.899137020E0,9.210902214E0,5.707698822E0
2.437521666E0,-4.927883148E0,9.177365303E0,5.741235733E0
2.439511510E0,-4.951837540E0,9.115082741E0,5.731653690E0
2.441501354E0,-4.942255974E0,9.052800179E0,5.755608559E0
2.443491198E0,-4.966210842E0,8.956981659E0,5.746026516E0
2.445481041E0,-4.923091888E0,8.870744705E0,5.746026516E0
2.447470885E0,-4.918301105E0,8.770133972E0,5.702908039E0
2.449460729E0,-4.894346237E0,8.674315453E0,5.659789562E0
2.451450573E0,-4.875182629E0,8.573704720E0,5.563970089E0
2.453440416E0,-4.899137020E0,8.482676506E0,5.463360310E0
2.455430260E0,-4.889555454E0,8.358112335E0,5.357959270E0
2.457420104E0,-4.865600586E0,8.267084122E0,5.257349014E0
2.459409948E0,-4.846436501E0,8.147309303E0,5.209439278E0
2.461399791E0,-4.846436501E0,8.037117958E0,5.151947975E0
2.463389635E0,-4.846436501E0,7.893389225E0,5.080083370E0
2.465379479E0,-4.865600586E0,7.787988186E0,5.046546936E0
2.467369323E0,-4.836854935E0,7.668213844E0,4.989055157E0
2.469359166E0,-4.832063675E0,7.577185631E0,4.945936680E0
2.471349010E0,-4.856018543E0,7.452620983E0,4.898026943E0
2.473338854E0,-4.884764194E0,7.390338421E0,4.888445377E0
2.475328698E0,-4.942255974E0,7.318474293E0,4.845326424E0
2.477318541E0,-4.994956493E0,7.289728642E0,4.874072552E0
2.479308385E0,-5.057238579E0,7.198700428E0,4.888445377E0
2.481298229E0,-5.076402664E0,7.145999908E0,4.898026943E0
2.483288073E0,-5.109939575E0,7.064553261E0,4.864490509E0
2.485277916E0,-5.172221661E0,6.987898350E0,4.845326424E0
2.487267760E0,-5.210549355E0,6.911242962E0,4.854908466E0
2.489257604E0,-5.224922180E0,6.801050663E0,4.826162815E0
2.491247448E0,-5.215340614E0,6.686068058E0,4.816580772E0
2.493237291E0,-5.239295006E0,6.561502934E0,4.840535641E0
2.495227135E0,-5.234504223E0,6.470474720E0,4.845326424E0
2.497216979E0,-5.248877048E0,6.365073681E0,4.854908466E0
2.499206823E0,-5.244086266E0,6.254881859E0,4.893236160E0
2.501196666E0,-5.253667831E0,6.216554165E0,4.931563854E0
2.503186510E0,-5.258459091E0,6.139898777E0,4.950727463E0
2.505176354E0,-5.244086266E0,6.082407475E0,4.969891548E0
2.507166198E0,-5.224922180E0,6.020124912E0,5.013010025E0
2.509156041E0,-5.181803703E0,5.986588001E0,5.022592068E0
2.511145885E0,-5.114730358E0,5.929096699E0,5.003427982E0
2.513135729E0,-5.009329319E0,5.862023354E0,5.060919762E0
2.515125573E0,-4.879973412E0,5.809322834E0,5.089665413E0
2.517115416E0,-4.784154415E0,5.742249489E0,5.132783890E0
2.519105260E0,-4.707499027E0,5.694339752E0,5.180693626E0
2.521095104E0,-4.635634422E0,5.636848450E0,5.204648495E0
2.523084948E0,-4.606888771E0,5.622475147E0,5.223812103E0
2.525074791E0,-4.568561077E0,5.579356670E0,5.228603363E0
2.527064635E0,-4.544606209E0,5.574565887E0,5.219021320E0
2.529054479E0,-4.539815426E0,5.579356670E0,5.171111584E0
2.531044323E0,-4.558979511E0,5.632057190E0,5.147156715E0
2.533034166E0,-4.544606209E0,5.718294621E0,5.123202324E0
2.535024010E0,-4.491905689E0,5.838068485E0,5.070501804E0
2.537013854E0,-4.496696949E0,6.000960827E0,5.080083370E0
2.539003698E0,-4.554188251E0,6.183017254E0,5.094456196E0
2.540993541E0,-4.717081070E0,6.398610592E0,5.137575150E0
2.542983385E0,-4.937464714E0,6.590248585E0,5.123202324E0
2.544973229E0,-5.143476009E0,6.781887054E0,5.046546936E0
2.546963073E0,-5.330323219E0,6.930406570E0,4.950727463E0
2.548952916E0,-5.450097084E0,7.016644001E0,4.917191029E0
2.550942760E0,-5.584244251E0,7.078926563E0,4.874072552E0
2.552932604E0,-5.737554550E0,7.122045040E0,4.845326424E0
2.554922448E0,-5.819001198E0,7.193909168E0,4.878863335E0
2.556912291E0,-5.833374023E0,7.222654819E0,4.926773071E0
2.558902135E0,-5.852537632E0,7.284937382E0,4.945936680E0
2.560891979E0,-5.866910458E0,7.342429161E0,4.969891548E0
2.562881823E0,-5.852537632E0,7.375965595E0,4.969891548E0
2.564871666E0,-5.823791981E0,7.380756855E0,4.979473591E0
2.566861510E0,-5.785464287E0,7.457411766E0,5.195066452E0
2.568851354E0,-5.636944771E0,7.428666115E0,5.223812103E0
2.570841198E0,-5.426142693E0,7.270564556E0,5.036964893E0
2.572831041E0,-5.296786785E0,7.064553261E0,4.835744858E0
2.574820885E0,-5.148266792E0,6.906451702E0,4.653688431E0
2.576810729E0,-5.028492928E0,6.714813709E0,4.495586872E0
2.578800573E0,-4.999747276E0,6.609412670E0,4.409349442E0
2.580790416E0,-4.927883148E0,6.518384457E0,4.380603790E0
2.582780260E0,-4.889555454E0,6.504011631E0,4.409349442E0
2.584770104E0,-4.812900066E0,6.412983418E0,4.414140701E0
2.586759948E0,-4.654798508E0,6.274045467E0,5.022592068E0
2.588749791E0,-4.348176956E0,6.000960827E0,4.811789989E0
2.590739635E0,-3.940946102E0,5.526656151E0,5.051337719E0
2.592729479E0,-3.687025309E0,5.502701283E0,4.749507427E0
2.594719323E0,-3.538505554E0,5.550611019E0,3.422412634E0
2.596709166E0,-3.457059383E0,5.402091503E0,2.751678705E0
2.598699010E0,-3.509759903E0,5.320644855E0,2.708559990E0
2.600688854E0,-3.653488636E0,5.287108421E0,3.130164146E0
2.602678698E0,-3.802008390E0,5.378136635E0,4.169801712E0
2.604668541E0,-3.749307871E0,5.349390984E0,4.715970993E0
2.606658385E0,-3.552878618E0,4.990068913E0,4.035655022E0
2.608648229E0,-3.404358864E0,4.731357574E0,3.762570620E0
2.610638073E0,-3.236675262E0,4.750521183E0,3.767361403E0
2.612627916E0,-3.011500359E0,4.740939140E0,3.954208851E0
2.614617760E0,-2.829443932E0,4.678657055E0,4.169801712E0
2.616607604E0,-2.795907259E0,4.578046799E0,4.145846844E0
2.618597448E0,-2.848607779E0,4.410363197E0,4.476422787E0
2.620587291E0,-3.207929611E0,4.922995567E0,4.730343819E0
2.622577135E0,-3.385195017E0,5.061933517E0,4.821372032E0
2.624566979E0,-3.083364725E0,4.304962158E0,6.637144566E0
2.626556823E0,-2.733624935E0,3.404262304E0,7.504307747E0
2.628546666E0,-2.589896202E0,2.738319159E0,7.628872871E0
2.630536510E0,-2.489285946E0,2.019675732E0,7.360579014E0
2.632526354E0,-2.623432875E0,1.425597072E0,6.886274338E0
2.634516198E0,-2.776743412E0,7.596540451E-1,6.234704018E0
2.636506041E0,-2.982754707E0,2.661854625E-1,5.463360310E0
2.638495885E0,-3.361240149E0,-5.480866134E-2,4.562660217E0
2.640485729E0,-3.878663540E0,-9.792728722E-2,3.551768541E0
2.642475573E0,-4.228403091E0,-6.899096072E-3,2.780424356E0
2.644465416E0,-4.626052856E0,-7.397249341E-2,1.946797848E0
2.646455260E0,-5.042865753E0,-5.001771450E-2,1.204199433E0
2.648445104E0,-5.383023739E0,1.128748357E-1,7.251037359E-1
2.650434948E0,-5.742345810E0,2.278577983E-1,3.178723752E-1
2.652424791E0,-6.010639191E0,4.099141955E-1,1.166521832E-1
2.654414635E0,-6.312469482E0,6.638349295E-1,5.916069821E-2
2.656404479E0,-6.575972080E0,9.465013742E-1,1.501888931E-1
2.658394323E0,-6.724492073E0,1.224376917E0,3.753638864E-1
2.660384166E0,-6.743655682E0,1.554952979E0,7.059398890E-1
2.662374010E0,-6.609508991E0,2.105912924E0,1.386255860E0
2.664363854E0,-6.427452564E0,3.020985603E0,2.469012260E0
2.666353698E0,-6.283723831E0,4.046250820E0,3.374503136E0
2.668343541E0,-6.044176102E0,4.884667873E0,4.265620708E0
2.670333385E0,-5.828582764E0,5.502701283E0,5.214230537E0
2.672323229E0,-5.775882244E0,6.058452606E0,5.923292160E0
2.674313073E0,-5.814209938E0,6.575875759E0,6.028693199E0
2.676302916E0,-5.737554550E0,6.844169617E0,6.234704018E0
2.678292760E0,-5.718390942E0,7.107672215E0,6.459879398E0
2.680282604E0,-5.737554550E0,7.385547638E0,6.522161484E0
2.682272448E0,-5.761509418E0,7.682587147E0,6.388014793E0
2.684262291E0,-5.727972984E0,7.902970791E0,6.239495277E0
2.686252135E0,-5.517170906E0,8.046699524E0,6.234704018E0
2.688241979E0,-5.296786785E0,8.233547211E0,6.229913235E0
2.690231823E0,-5.105148315E0,8.429976463E0,6.148467064E0
2.692221666E0,-4.966210842E0,8.664732933E0,6.100557327E0
2.694211510E0,-4.817690849E0,8.837207794E0,5.995156288E0
2.696201354E0,-4.650007248E0,8.952190399E0,5.870591640E0
2.698191198E0,-4.487114906E0,9.062382698E0,5.722071648E0
2.700181041E0,-4.352968216E0,9.225275040E0,5.621461868E0
2.702170885E0,-4.261940002E0,9.785817146E0,5.583134174E0
2.704160729E0,-4.156538963E0,1.057632542E1,5.540015221E0
2.706150573E0,-3.897827387E0,1.053320599E1,5.496896744E0
2.708140416E0,-3.782844543E0,1.061465263E1,5.750817299E0
2.710130260E0,-3.864290714E0,1.062423420E1,6.129302979E0
2.712120104E0,-4.142166138E0,1.046134186E1,6.661099434E0
2.714109948E0,-4.228403091E0,1.004452896E1,6.905437946E0
2.716099791E0,-4.309849739E0,9.565433502E0,6.867110729E0
2.718089635E0,-4.443996429E0,9.067173958E0,6.756918430E0
2.720079479E0,-4.487114906E0,8.784506798E0,6.306568623E0
2.722069323E0,-4.544606209E0,8.865953445E0,5.827472687E0
2.724059166E0,-4.448787212E0,8.722224236E0,5.238184929E0
2.726049010E0,-4.443996429E0,8.707851410E0,4.653688431E0
2.728038854E0,-4.467951298E0,8.473094940E0,4.188965321E0
2.730028698E0,-4.554188251E0,8.401230812E0,3.858389616E0
2.732018541E0,-4.664380550E0,8.166473389E0,3.628423691E0
2.734008385E0,-4.731453896E0,8.056282043E0,3.374503136E0
2.735998229E0,-4.669171333E0,7.730496407E0,3.120582342E0
2.737988073E0,-4.678753376E0,7.361592770E0,2.981644630E0
2.739977916E0,-4.721871853E0,7.131627083E0,2.938525915E0
2.741967760E0,-4.673962116E0,6.796259880E0,3.019972324E0
2.743957604E0,-4.630843639E0,6.724395275E0,2.928944111E0
2.745947448E0,-4.611680031E0,6.590248585E0,2.742096663E0
2.747937291E0,-4.530233383E0,6.365073681E0,2.459430218E0
2.749927135E0,-4.429623604E0,6.336328030E0,2.349238157E0
2.751916979E0,-4.271522045E0,6.077616215E0,2.200718641E0
2.753906823E0,-4.070301533E0,6.072825432E0,2.315701485E0
2.755896666E0,-3.888245583E0,5.895559788E0,2.272583008E0
2.757886510E0,-3.734934807E0,5.866814137E0,2.210300446E0
2.759876354E0,-3.586415291E0,5.818904400E0,2.167181969E0
2.761866198E0,-3.356449366E0,5.665594101E0,2.263000965E0
2.763856041E0,-3.255839109E0,5.780577183E0,2.411520720E0
2.765845885E0,-3.112110376E0,5.512283325E0,2.583995104E0
2.767835729E0,-3.078573704E0,5.459582806E0,2.813961029E0
2.769825573E0,-3.107319593E0,5.325436115E0,3.005599260E0
2.771815416E0,-3.188765764E0,5.335018158E0,3.087045670E0
2.773805260E0,-3.183974743E0,5.478746891E0,3.063090801E0
2.775795104E0,-3.145647287E0,5.555401802E0,3.000808477E0
2.777784948E0,-3.145647287E0,5.497910500E0,2.890616417E0
2.779774791E0,-3.227093458E0,5.833277702E0,2.770842552E0
2.781764635E0,-3.346867323E0,6.058452606E0,2.492966890E0
2.783754479E0,-3.471432209E0,6.264463425E0,2.243837118E0
2.785744323E0,-3.356449366E0,6.901660919E0,2.018662214E0
2.787734166E0,-4.357758999E0,7.054971695E0,1.985125542E0
2.789724010E0,-3.912200212E0,7.347219944E0,2.392356873E0
2.791713854E0,-3.840335846E0,7.807151794E0,2.411520720E0
2.793703698E0,-3.931364059E0,8.147309303E0,2.502548933E0
2.795693541E0,-3.701398134E0,8.616823196E0,3.082254648E0
2.797683385E0,-3.370822191E0,8.913863182E0,3.475113153E0
2.799673229E0,-3.107319593E0,9.076755524E0,2.732514858E0
2.801663073E0,-2.963590860E0,9.282766342E0,2.583995104E0
2.803652916E0,-2.867771626E0,9.450449944E0,2.761260509E0
2.805642760E0,-2.810280085E0,9.613342285E0,2.943316936E0
2.807632604E0,-2.977963686E0,9.924755096E0,3.168491840E0
2.809622448E0,-3.183974743E0,1.025053978E1,3.336175442E0
2.811612291E0,-3.227093458E0,1.023616695E1,3.350548267E0
2.813602135E0,-3.198347807E0,1.024574852E1,3.278683901E0
2.815591979E0,-3.227093458E0,1.034156799E1,3.211610556E0
2.817581823E0,-3.308539629E0,1.040864182E1,3.163700819E0
2.819571666E0,-3.466641188E0,1.035114956E1,3.120582342E0
2.821561510E0,-3.739725828E0,1.068651676E1,3.053508997E0
2.823551354E0,-3.854708910E0,1.079670906E1,2.790006161E0
2.825541198E0,-3.897827387E0,1.081587315E1,2.569622278E0
2.827531041E0,-3.993646622E0,1.064339828E1,2.363610983E0
2.829520885E0,-4.285894871E0,1.048529720E1,2.310910463E0
2.831510729E0,-4.448787212E0,1.051883316E1,2.334865332E0
2.833500573E0,-4.434414387E0,1.043259621E1,2.239046097E0
2.835490416E0,-4.443996429E0,1.039426899E1,2.210300446E0
2.837480260E0,-4.491905689E0,1.024095821E1,2.061780691E0
2.839470104E0,-4.563770294E0,9.919963837E0,2.033035040E0
2.841459948E0,-4.741035461E0,9.675624847E0,2.219882488E0
2.843449791E0,-4.721871853E0,9.349840164E0,2.186345577E0
2.845439635E0,-4.602097988E0,9.124665260E0,2.037826061E0
2.847429479E0,-4.558979511E0,8.961772919E0,2.061780691E0
2.849419323E0,-4.496696949E0,8.875535011E0,2.104899406E0
2.851409166E0,-4.448787212E0,8.698269844E0,2.056989908E0
2.853399010E0,-4.501487732E0,8.367693901E0,2.080944538E0
2.855388854E0,-4.602097988E0,8.267084122E0,2.171972752E0
2.857378698E0,-4.616470814E0,8.233547211E0,2.186345577E0
2.859368541E0,-4.578143120E0,8.128146172E0,2.152808905E0
2.861358385E0,-4.635634422E0,8.190428734E0,1.956379771E0
2.863348229E0,-4.793735981E0,8.108982086E0,1.908470154E0
2.865338073E0,-4.846436501E0,8.123354912E0,1.913261175E0
2.867327916E0,-4.937464714E0,8.247920036E0,1.999498367E0
2.869317760E0,-4.966210842E0,8.391648293E0,2.100108385E0
2.871307604E0,-4.999747276E0,8.487467766E0,2.205509424E0
2.873297448E0,-4.985374451E0,8.425185204E0,2.253419161E0
2.875287291E0,-4.894346237E0,8.377275467E0,2.243837118E0
2.877277135E0,-4.697916985E0,8.228755951E0,2.301328659E0
2.879266979E0,-4.539815426E0,7.955671310E0,2.377984047E0
2.881256823E0,-4.233194351E0,7.495739460E0,2.536085606E0
2.883246666E0,-4.290685654E0,7.112462997E0,2.646277666E0
2.885236510E0,-4.223612309E0,6.848960400E0,2.421102524E0
2.887226354E0,-3.802008390E0,6.796259880E0,2.631904602E0
2.889216198E0,-3.897827387E0,7.011852741E0,2.339656353E0
2.891206041E0,-4.065510750E0,7.462203026E0,2.301328659E0
2.893195885E0,-4.223612309E0,7.687377930E0,2.315701485E0
2.895185729E0,-4.376923084E0,7.505321503E0,2.330074310E0
2.897175573E0,-4.458369255E0,7.371174812E0,2.344447374E0
2.899165416E0,-4.448787212E0,7.452620983E0,2.406729698E0
2.901155260E0,-4.362550259E0,7.711332798E0,2.430684566E0
2.903145104E0,-4.458369255E0,7.883807182E0,2.698978186E0
2.905134948E0,-4.659589291E0,7.984417439E0,3.005599260E0
2.907124791E0,-4.745826721E0,8.061072350E0,3.168491840E0
2.909114635E0,-4.731453896E0,7.912552834E0,3.235565186E0
2.911104479E0,-4.726662636E0,7.663423061E0,3.273892879E0
2.913094323E0,-4.808109283E0,7.318474293E0,3.221192360E0
2.915084166E0,-4.875182629E0,6.978316307E0,3.058299780E0
2.917074010E0,-4.966210842E0,6.997479916E0,2.823543072E0
2.919063854E0,-4.851227760E0,7.193909168E0,2.713351011E0
2.921053698E0,-4.803318024E0,7.380756855E0,2.952898741E0
2.923043541E0,-4.879973412E0,7.529276371E0,2.900198221E0
2.925033385E0,-4.966210842E0,7.610722542E0,3.245147228E0
2.927023229E0,-4.932673931E0,7.692168713E0,3.494277000E0
2.929013073E0,-4.803318024E0,7.653841019E0,3.752988577E0
2.931002916E0,-4.693126202E0,7.438248158E0,4.102728367E0
2.932992760E0,-4.544606209E0,7.069344521E0,4.011700153E0
2.934982604E0,-4.031973839E0,6.892078876E0,3.954208851E0
2.936972448E0,-3.481014252E0,6.839378357E0,4.117101192E0
2.938962291E0,-3.025873184E0,6.944779396E0,4.212920189E0
2.940952135E0,-2.724042892E0,7.088508129E0,4.236875057E0
2.942941979E0,-2.594687223E0,7.054971695E0,4.452467918E0
2.944931823E0,-2.455749273E0,7.016644001E0,4.428513527E0
2.946921666E0,-2.177873850E0,7.064553261E0,4.404558659E0
2.948911510E0,-1.885625362E0,7.136417866E0,4.581823826E0
2.950901354E0,-1.650868416E0,7.145999908E0,4.821372032E0
2.952891198E0,-1.598167896E0,7.083717346E0,4.907608986E0
2.954881041E0,-1.646077514E0,6.925615788E0,5.008219242E0
2.956870885E0,-1.679614186E0,6.911242962E0,5.137575150E0
2.958860729E0,-1.842506766E0,7.026225567E0,5.252557755E0
2.960850573E0,-2.005399227E0,7.232236862E0,5.391495705E0
2.962840416E0,-2.197037697E0,7.490948677E0,5.568761349E0
2.964830260E0,-2.388675928E0,7.879016399E0,5.870591640E0
2.966820104E0,-2.709670067E0,9.115082741E0,6.234704018E0
2.968809948E0,-3.136065245E0,1.038468647E1,6.689845085E0
2.970799791E0,-3.284584999E0,9.713953018E0,6.651517391E0
2.972789635E0,-3.289375782E0,9.436077118E0,7.144986153E0
2.974779479E0,-3.255839109E0,8.870744705E0,7.413279533E0
2.976769323E0,-3.097737551E0,8.137727737E0,7.628872871E0
2.978759166E0,-2.781534433E0,7.567604065E0,7.763019562E0
2.980749010E0,-2.494076967E0,7.107672215E0,7.676782131E0
2.982738854E0,-2.254529238E0,6.801050663E0,7.480352879E0
2.984728698E0,-2.096427679E0,6.652531147E0,7.279132843E0
2.986718541E0,-2.043727160E0,6.542339325E0,7.039585114E0
2.988708385E0,-2.134755135E0,6.441729069E0,6.876692295E0
2.990698229E0,-2.292856932E0,6.412983418E0,6.790455341E0
2.992688073E0,-2.283274889E0,6.628576279E0,6.531743526E0
2.994677916E0,-2.316811562E0,6.743559361E0,6.220331192E0
2.996667760E0,-2.192246675E0,6.882497311E0,6.019111156E0
2.998657604E0,-2.168292046E0,7.112462997E0,5.928082943E0
3.000647448E0,-2.288065910E0,7.246609688E0,5.731653690E0
3.002637291E0,-2.594687223E0,7.534067154E0,5.669371128E0
3.004627135E0,-2.977963686E0,7.926925659E0,5.415450573E0
3.006616979E0,-3.514550924E0,8.281456947E0,5.060919762E0
3.008606823E0,-4.161329746E0,8.727015495E0,4.624942780E0
3.010596666E0,-4.707499027E0,9.507941246E0,4.366230965E0
3.012586510E0,-5.133893967E0,1.020742130E1,3.954208851E0
3.014576354E0,-5.517170906E0,1.069609928E1,3.556559324E0
3.016566198E0,-5.608198643E0,1.105542088E1,3.278683901E0
3.018556041E0,-5.823791981E0,1.146744347E1,3.053508997E0
3.020545885E0,-6.048966885E0,1.160159016E1,2.837915897E0
3.022535729E0,-6.302887440E0,1.187946510E1,2.909780264E0
3.024525573E0,-6.513689995E0,1.193695641E1,2.928944111E0
3.026515416E0,-6.585554123E0,1.208068562E1,3.067881823E0
3.028505260E0,-6.686164379E0,1.209984970E1,3.115791321E0
3.030495104E0,-6.580763340E0,1.208068562E1,3.111000299E0
3.032484948E0,-6.422661781E0,1.202798462E1,3.053508997E0
3.034474791E0,-6.111249447E0,1.195612049E1,2.885825396E0
3.036464635E0,-5.656108379E0,1.189862919E1,2.722932816E0
3.038454479E0,-5.105148315E0,1.163512611E1,2.646277666E0
3.040444323E0,-4.530233383E0,1.129017735E1,2.248628139E0
3.042434166E0,-3.916991234E0,1.094522858E1,1.807860017E0
3.044424010E0,-3.298957825E0,1.049967003E1,1.204199433E0
3.046413854E0,-2.805489302E0,1.015472031E1,7.586404085E-1
3.048403698E0,-2.613850832E0,9.934336662E0,1.262340993E-1
3.050393541E0,-2.244947195E0,9.661252022E0,-6.163643003E-1
3.052383385E0,-1.315501451E0,9.345048904E0,-7.121834159E-1
3.054373229E0,-1.281964779E0,8.985727310E0,-1.632047057E0
3.056363073E0,-1.339456201E0,8.851580620E0,-1.646420002E0
3.058352916E0,-1.325083375E0,8.813252449E0,-1.699120522E0
3.060342760E0,-1.334665298E0,8.597660065E0,-2.015323639E0
3.062332604E0,-1.377783895E0,8.564123154E0,-1.732657194E0
3.064322448E0,-1.272382855E0,8.425185204E0,-1.651210904E0
3.066312291E0,-1.219682336E0,8.247920036E0,-2.130306721E0
3.068302135E0,-1.238846183E0,8.113773346E0,-2.048860312E0
3.070291979E0,-1.363411069E0,8.013163567E0,-1.842849255E0
3.072281823E0,-1.698778033E0,8.300620079E0,-1.382917404E0
3.074271666E0,-1.885625362E0,8.281456947E0,-1.081086993E0
3.076261510E0,-1.727523804E0,8.314992905E0,-1.071505189E0
3.078251354E0,-1.693987012E0,8.683897018E0,-1.023595572E0
3.080241198E0,-1.746687531E0,8.937817574E0,-8.415392637E-1
3.082231041E0,-2.532404661E0,8.861162186E0,-7.121834159E-1
3.084220885E0,-1.708359957E0,9.311511993E0,-5.253360868E-1
3.086210729E0,-1.756269455E0,9.373794556E0,-5.253360868E-1
3.088200573E0,-2.331184387E0,9.311511993E0,-6.642738581E-1
3.090190416E0,-2.254529238E0,9.378585815E0,-5.444999337E-1
3.092180260E0,-2.225783348E0,9.460032463E0,-7.361382246E-1
3.094170104E0,-2.489285946E0,9.335467339E0,-1.128996611E0
3.096159948E0,-2.695297241E0,9.536686897E0,-9.613131881E-1
3.098149791E0,-2.973172665E0,9.455241203E0,-1.081086993E0
3.100139635E0,-3.298957825E0,9.493568420E0,-8.367483020E-1
3.102129479E0,-3.504968882E0,9.713953018E0,-8.080025315E-1
3.104119323E0,-3.873872757E0,9.651670456E0,-7.217653394E-1
3.106109166E0,-4.027183056E0,9.862472534E0,-2.905791700E-1
3.108099010E0,-4.290685654E0,1.013076591E1,2.076803744E-1
3.110088854E0,-4.396086693E0,1.006369305E1,7.538494468E-1
3.112078698E0,-4.362550259E0,1.003973770E1,1.127544165E0
3.114068541E0,-4.530233383E0,9.843308449E0,1.616221786E0
3.116058385E0,-4.405668736E0,9.800189972E0,2.258209944E0
3.118048229E0,-4.266730785E0,9.575015068E0,2.799588203E0
3.120038073E0,-4.237985134E0,9.383377075E0,3.283474922E0
3.122027916E0,-4.041555882E0,9.325884819E0,3.542186499E0
3.124017760E0,-4.012810230E0,9.440868378E0,3.901508331E0
3.126007604E0,-3.931364059E0,9.440868378E0,4.174592495E0
3.127997448E0,-3.471432209E0,9.431285858E0,4.222502232E0
3.129987291E0,-3.466641188E0,9.479195595E0,4.054818630E0
3.131977135E0,-3.322912693E0,9.685207367E0,3.887135506E0
3.133966979E0,-3.313330650E0,9.699580193E0,3.714660883E0
3.135956823E0,-3.265421152E0,9.795398712E0,3.427203655E0
3.137946666E0,-3.303748846E0,1.004931927E1,3.202028513E0
3.139936510E0,-3.524132729E0,1.033677673E1,2.967271805E0
3.141926354E0,-3.548087597E0,1.037989616E1,2.473803043E0
3.143916198E0,-3.624742985E0,1.058111572E1,2.181554794E0
3.145906041E0,-3.567251444E0,1.067693520E1,1.812651038E0
3.147895885E0,-3.739725828E0,1.064818954E1,1.496447921E0
3.149885729E0,-3.648697615E0,1.086378288E1,1.208990455E0
3.151875573E0,-3.485805035E0,1.086378288E1,8.736233711E-1
3.153865468E0,-3.433104515E0,1.094043732E1,6.771941185E-1
3.155855364E0,-3.298957825E0,1.113207626E1,5.382564068E-1
3.157845260E0,-3.246257305E0,1.112728500E1,1.933074892E-1
3.159835156E0,-3.222302437E0,1.116082191E1,-1.995509863E-1
3.161825052E0,-3.270212173E0,1.108416653E1,-3.816073537E-1
3.163814948E0,-3.303748846E0,1.109853935E1,-4.486807585E-1
3.165804843E0,-3.318121672E0,1.098355675E1,-6.115733385E-1
3.167794739E0,-3.442686558E0,1.102188396E1,-7.073924541E-1
3.169784635E0,-3.514550924E0,1.104583836E1,-7.648839355E-1
3.171774531E0,-3.548087597E0,1.100751114E1,-5.972004533E-1
3.173764427E0,-3.586415291E0,1.090690136E1,-6.451100111E-1
3.175754323E0,-3.528923750E0,1.063381672E1,-6.930195689E-1
3.177744218E0,-3.423522711E0,1.049008751E1,-4.582626522E-1
3.179734114E0,-3.294166803E0,1.018825722E1,-3.911892474E-1
3.181724010E0,-3.207929611E0,9.838517189E0,-3.720254302E-1
3.183713906E0,-3.164810896E0,9.474405289E0,-1.468504667E-1
3.185703802E0,-3.136065245E0,9.110292435E0,1.166521832E-1
3.187693698E0,-3.155229092E0,8.818043709E0,4.472282231E-1
3.189683593E0,-3.217511415E0,8.559331894E0,4.663920701E-1
3.191673489E0,-3.255839109E0,8.353321075E0,8.305047750E-1
3.193663385E0,-3.370822191E0,8.051490784E0,1.204199433E0
3.195653281E0,-3.370822191E0,7.577185631E0,1.563521266E0
3.197643177E0,-3.404358864E0,7.222654819E0,1.597057939E0
3.199633073E0,-3.466641188E0,6.930406570E0,1.803069115E0
3.201622968E0,-3.548087597E0,6.657321930E0,2.047407866E0
3.203612864E0,-3.696607351E0,6.628576279E0,2.167181969E0
3.205602708E0,-3.902618408E0,6.829796791E0,2.492966890E0
3.207592552E0,-4.031973839E0,6.633367538E0,2.205509424E0
3.209582396E0,-4.199657440E0,6.532757282E0,2.540876389E0
3.211572239E0,-4.247567177E0,6.288418293E0,2.473803043E0
3.213562083E0,-4.209239483E0,6.178226471E0,3.058299780E0
3.215551927E0,-3.979273796E0,5.794950008E0,4.921981812E0
3.217541771E0,-3.902618408E0,5.531447411E0,5.693325996E0
3.219531614E0,-4.199657440E0,5.737458229E0,5.104038239E0
3.221521458E0,-4.463160038E0,5.953051567E0,4.529123306E0
3.223511302E0,-4.582933903E0,6.135107994E0,4.198547363E0
3.225501146E0,-4.779363155E0,6.690858841E0,3.556559324E0
3.227490989E0,-4.942255974E0,7.361592770E0,2.751678705E0
3.229480833E0,-5.109939575E0,7.768824100E0,2.004289150E0
3.231470677E0,-5.109939575E0,8.185637474E0,1.117962241E0
3.233460521E0,-4.942255974E0,8.568914413E0,5.143015981E-1
3.235450364E0,-4.784154415E0,8.875535011E0,5.916069821E-2
3.237440208E0,-4.420041561E0,8.918653488E0,-2.762062848E-1
3.239430052E0,-4.003228188E0,9.081546783E0,-4.007711709E-1
3.241419896E0,-3.543296576E0,9.071964264E0,-3.097429872E-1
3.243409739E0,-3.183974743E0,9.172574997E0,-4.822174609E-1
3.245399583E0,-2.973172665E0,9.426495552E0,-6.307371259E-1
3.247389427E0,-2.795907259E0,9.613342285E0,-6.930195689E-1
3.249379271E0,-2.676133394E0,9.737907410E0,-8.750759363E-1
3.251369114E0,-2.546777487E0,9.800189972E0,-8.032115698E-1
3.253358958E0,-2.302438736E0,9.838517189E0,-8.750759363E-1
3.255348802E0,-2.240156174E0,9.737907410E0,-8.415392637E-1
3.257338646E0,-2.182664871E0,9.742698669E0,-7.936297059E-1
3.259328489E0,-2.106009483E0,9.704370499E0,-8.271663785E-1
3.261318333E0,-2.053308964E0,9.646879196E0,-6.882286072E-1
3.263308177E0,-2.077263832E0,9.531896591E0,-7.169743776E-1
3.265298021E0,-1.967071652E0,9.177365303E0,-7.792568207E-1
3.267287864E0,-1.856879592E0,8.822834969E0,-6.690648198E-1
3.269277708E0,-1.876043439E0,8.602450371E0,-6.738557816E-1
3.271267552E0,-1.976653576E0,8.410812378E0,-6.786467433E-1
3.273257396E0,-2.134755135E0,8.338948250E0,-4.055621326E-1
3.275247239E0,-2.249738216E0,8.214383125E0,-5.013812780E-1
3.277237083E0,-2.498867989E0,8.334156990E0,-5.013812780E-1
3.279226927E0,-2.743206739E0,8.358112335E0,-7.648839355E-1
3.281216771E0,-2.992336512E0,8.588077545E0,-7.121834159E-1
3.283206614E0,-3.217511415E0,8.832416534E0,-7.505110502E-1
3.285196458E0,-3.294166803E0,8.511422157E0,-5.732456446E-1
3.287186302E0,-3.495387077E0,8.861162186E0,-2.570424676E-1
3.289176146E0,-3.643906832E0,8.952190399E0,-3.121742979E-3
3.291165989E0,-3.605579138E0,8.913863182E0,-6.540418416E-2
3.293155833E0,-3.778053522E0,9.694788933E0,2.172622979E-1
3.295145677E0,-3.653488636E0,9.752280235E0,2.172622979E-1
3.297135521E0,-3.600788116E0,1.021700287E1,4.232734442E-1
3.299125364E0,-3.423522711E0,1.045176029E1,3.657819629E-1
3.301115208E0,-3.380403996E0,1.060507107E1,3.418271840E-1
3.303105052E0,-3.581624269E0,1.086857319E1,1.789346337E-1
3.305094896E0,-3.600788116E0,1.084940910E1,1.645617485E-1
3.307084739E0,-3.533714771E0,1.112728500E1,2.507989705E-1
3.309074583E0,-3.366031170E0,1.126622295E1,7.832452655E-2
3.311064427E0,-3.174392939E0,1.146265221E1,-4.624035954E-2
3.313054271E0,-3.088155746E0,1.120394039E1,-3.241158724E-1
3.315044114E0,-3.021082401E0,1.148660660E1,-4.486807585E-1
3.317033958E0,-2.915681124E0,1.140036964E1,-6.019914150E-1
3.319023802E0,-2.824653149E0,1.112249374E1,-6.930195689E-1
3.321013646E0,-2.886935472E0,1.068172646E1,-5.924094915E-1
3.323003489E0,-2.829443932E0,1.037989616E1,-7.840477824E-1
3.324993333E0,-2.786325455E0,1.024574852E1,-7.073924541E-1
3.326983177E0,-2.690506220E0,9.627715111E0,-7.073924541E-1
3.328973021E0,-2.585105181E0,9.522314072E0,-7.936297059E-1
3.330962864E0,-2.479704142E0,9.292348862E0,-7.744658589E-1
3.332952708E0,-2.570732355E0,9.158202171E0,-6.259461641E-1
3.334942552E0,-2.589896202E0,9.033637047E0,-7.361382246E-1
3.336932396E0,-2.767161608E0,8.382066727E0,-4.534716904E-1
3.338922239E0,-2.771952629E0,8.434766769E0,-1.372685432E-1
3.340912083E0,-1.909580112E0,9.215693474E0,-1.181047186E-1
3.342901927E0,-1.574213147E0,9.182156563E0,4.089005888E-1
3.344891771E0,-1.459230185E0,8.894699097E0,6.244935989E-1
3.346881614E0,-1.746687531E0,8.837207794E0,3.609910011E-1
3.348871458E0,-2.316811562E0,8.813252449E0,4.568101466E-1
3.350861302E0,-2.470122337E0,8.980936050E0,6.101207137E-1
3.352851146E0,-2.340766430E0,9.191738129E0,1.419792533E0
3.354840989E0,-2.546777487E0,9.349840164E0,1.304809570E0
3.356830833E0,-2.858189821E0,9.110292435E0,1.132335067E0
3.358820677E0,-3.404358864E0,9.191738129E0,1.280854821E0
3.360810521E0,-3.873872757E0,9.201320648E0,1.007770181E0
3.362800364E0,-4.367341042E0,9.273184776E0,6.532393694E-1
3.364790208E0,-4.884764194E0,9.162992477E0,4.855558872E-1
3.366780052E0,-5.047657013E0,8.961772919E0,-2.282967269E-1
3.368769896E0,-5.062029839E0,8.631196022E0,-8.463302255E-1
3.370759739E0,-5.378232956E0,8.779716492E0,-1.277516246E0
3.372749583E0,-5.435724258E0,9.287557602E0,-1.282307267E0
3.374739427E0,-5.406978607E0,9.876845360E0,-1.215233803E0
3.376729271E0,-5.105148315E0,1.034156799E1,-1.057132244E0
3.378719114E0,-5.047657013E0,1.063381672E1,-1.023595572E0
3.380708958E0,-4.487114906E0,1.074879932E1,-6.355280876E-1
3.382698802E0,-4.381713867E0,1.117519474E1,-2.378786206E-1
3.384688646E0,-4.300267696E0,1.148181629E1,8.790644258E-2
3.386678489E0,-4.285894871E0,1.183155537E1,5.574201941E-1
3.388668333E0,-4.151747704E0,1.188425636E1,1.410210609E0
3.390658177E0,-3.025873184E0,1.180280972E1,1.515611649E0
3.392648021E0,-2.197037697E0,1.176448250E1,2.296537638E0
3.394637864E0,-1.665241361E0,1.207110405E1,2.986435413E0
3.396627708E0,-1.449648261E0,1.254540825E1,3.580514193E0
3.398617552E0,-1.147817969E0,1.272267342E1,4.212920189E0
3.400607396E0,-5.681121349E-1,1.280412006E1,4.768671513E0
3.402597239E0,6.296271086E-1,1.214775848E1,5.118411064E0
3.404587083E0,1.496790409E0,1.112249374E1,5.051337719E0
3.406576927E0,5.385989547E-1,1.112249374E1,4.993846416E0
3.408566771E0,2.367686331E-1,1.080150032E1,5.151947975E0
3.410556614E0,4.331978858E-1,1.038468647E1,4.912400246E0
3.412546458E0,5.625537038E-1,9.761862755E0,4.715970993E0
3.414536302E0,4.715255499E-1,9.522314072E0,4.409349442E0
3.416526146E0,2.032319456E-1,9.124665260E0,4.347066879E0
3.418515989E0,-3.152495623E-2,8.904280663E0,4.016490936E0
3.420505833E0,-5.776940584E-1,8.808462143E0,3.752988577E0
3.422495677E0,-1.047207832E0,8.669524193E0,3.685915232E0
3.424485521E0,-1.516721606E0,8.530586243E0,3.048717976E0
3.426475364E0,-2.355139256E0,8.573704720E0,2.737305641E0
3.428465208E0,-3.112110376E0,8.621614456E0,2.401938677E0
3.430455052E0,-3.758889675E0,8.703061104E0,1.999498367E0
3.432444896E0,-4.443996429E0,8.875535011E0,1.822232962E0
3.434434739E0,-5.330323219E0,9.153410912E0,1.424583554E0
3.436424583E0,-6.144785881E0,9.421704292E0,1.055679798E0
3.438414427E0,-6.638254642E0,1.009243870E1,6.771941185E-1
3.440404271E0,-6.968830585E0,1.087336445E1,3.520591557E-2
3.442394114E0,-7.404807568E0,1.090211010E1,-5.205451250E-1
3.444383958E0,-7.725801945E0,1.086378288E1,-1.114623785E0
3.446373802E0,-8.248016357E0,1.078712749E1,-1.617674232E0
3.448363646E0,-8.995406151E0,1.073921776E1,-1.972205043E0
3.450353489E0,-9.666139603E0,1.060507107E1,-2.053651333E0
3.452343333E0,-9.991925240E0,1.031761360E1,-1.991369009E0
3.454333177E0,-1.001108932E1,9.939127922E0,-1.751821041E0
3.456323021E0,-9.833823204E0,9.728325844E0,-1.354171634E0
3.458312864E0,-9.484083176E0,9.642087936E0,-7.409291863E-1
3.460302708E0,-8.976242065E0,9.723534584E0,-1.372685432E-1
3.462292552E0,-8.497146606E0,9.929545403E0,5.238835216E-1
3.464282396E0,-8.137825012E0,1.002057362E1,1.232945204E0
3.466272239E0,-7.898276329E0,1.011160183E1,1.836605787E0
3.468262083E0,-7.677892208E0,1.018346691E1,2.411520720E0
3.470251927E0,-7.395226002E0,1.016909409E1,2.948107958E0
3.472241771E0,-7.227542400E0,1.024095821E1,3.374503136E0
3.474231614E0,-7.035903931E0,1.029844952E1,3.676333427E0
3.476221458E0,-7.452717304E0,1.023616695E1,3.915881157E0
3.478211302E0,-8.300717354E0,1.001099205E1,4.136264801E0
3.480201146E0,-8.564219475E0,9.661252022E0,3.982954502E0
3.482190989E0,-7.864739895E0,9.704370499E0,3.724242926E0
3.484180833E0,-7.682683468E0,9.570223808E0,3.666751385E0
3.486170677E0,-7.673101425E0,9.589387894E0,3.499068022E0
3.488160521E0,-7.261079311E0,9.570223808E0,3.355339289E0
3.490150364E0,-7.016740322E0,9.512732506E0,3.197237730E0
3.492140208E0,-6.896966457E0,9.747488976E0,3.106209517E0
3.494130052E0,-6.992785454E0,1.027449512E1,3.144537210E0
3.496119896E0,-7.433553696E0,1.113686657E1,3.230774403E0
3.498109739E0,-8.386954308E0,1.241126156E1,3.585305214E0
3.500099583E0,-8.578592300E0,1.212380409E1,3.101418495E0
3.502089427E0,-8.224061966E0,1.096918392E1,2.114481211E0
3.504086302E0,-8.712739944E0,1.032240391E1,1.951588750E0
3.506069166E0,-8.559429169E0,9.268393517E0,1.410210609E0
3.508052031E0,-7.936604023E0,8.051490784E0,6.244935989E-1
3.510035468E0,-7.055068016E0,7.270564556E0,4.376463294E-1
3.512019687E0,-5.512379646E0,6.403401375E0,-2.282967269E-1
3.514004896E0,-3.825963020E0,5.579356670E0,-6.546919346E-1
3.515991250E0,-2.225783348E0,5.033187866E0,-1.272725344E0
3.517978802E0,-9.801344275E-1,4.970905304E0,-1.541018963E0
3.519967604E0,4.667345881E-1,4.855922222E0,-2.226125717E0
3.521957656E0,2.023795605E0,4.841549397E0,-2.868113995E0
3.523948906E0,3.595229387E0,5.023605824E0,-3.615503311E0
3.525941250E0,5.238527775E0,5.373345375E0,-4.037107944E0
3.527934531E0,6.795588970E0,5.569774628E0,-4.616813660E0
3.529928593E0,7.911881924E0,6.000960827E0,-5.416903496E0
3.531923229E0,9.028174400E0,6.618994236E0,-5.843298435E0
3.533918229E0,9.708490372E0,7.328056335E0,-5.924745083E0
3.535913385E0,1.000073910E1,8.094609261E0,-5.397739410E0
3.537907239E0,1.016842270E1,8.588077545E0,-4.530576229E0
3.539897083E0,1.006781197E1,9.095919609E0,-3.275345325E0
3.541886927E0,9.804309845E0,9.263603210E0,-1.833267331E0
3.543876771E0,8.980264664E0,9.254020691E0,-5.444999337E-1
3.545866614E0,7.892718315E0,9.306721687E0,-1.037318483E-1
3.547856458E0,6.445848942E0,9.737907410E0,1.262340993E-1
3.549846302E0,5.353510857E0,1.014034748E1,-1.181047186E-1
3.551836146E0,4.433647156E0,1.037510490E1,2.562399954E-2
3.553825989E0,3.930596352E0,1.044217777E1,1.022793129E-1
3.555815833E0,3.556901693E0,1.041822338E1,4.855558872E-1
3.557805677E0,2.958032131E0,1.053320599E1,7.778042555E-1
3.559795521E0,2.292089224E0,1.047571468E1,1.232945204E0
3.561785364E0,1.765083909E0,1.008764744E1,2.028244019E0
3.563775208E0,1.190169096E0,9.771444321E0,2.679814339E0
3.565765052E0,6.487909555E-1,9.804981232E0,3.283474922E0
3.567754896E0,4.284069240E-1,9.469614029E0,3.077463627E0
3.569744739E0,-1.081802696E-1,9.330676079E0,3.513440847E0
3.571734583E0,-3.152495623E-2,9.048009872E0,3.561350346E0
3.573724427E0,-6.351855397E-1,9.000100136E0,3.283474922E0
3.575714271E0,-8.651514649E-1,8.750969887E0,3.254729033E0
3.577704114E0,-1.459230185E0,8.698269844E0,3.388875961E0
3.579693958E0,-1.655659437E0,8.659942627E0,3.350548267E0
3.581683802E0,-2.134755135E0,8.818043709E0,3.532604694E0
3.583673646E0,-2.134755135E0,8.635987282E0,3.178073883E0
3.585663489E0,-2.532404661E0,8.597660065E0,2.598367929E0
3.587653333E0,-2.776743412E0,8.525794983E0,2.483385086E0
3.589643177E0,-3.404358864E0,8.913863182E0,2.770842552E0
3.591633021E0,-4.146956921E0,8.952190399E0,3.144537210E0
3.593622864E0,-4.688334942E0,9.182156563E0,3.508649826E0
3.595612708E0,-4.889555454E0,9.388167381E0,3.724242926E0
3.597602552E0,-4.956628799E0,9.522314072E0,4.006909370E0
3.599592396E0,-5.062029839E0,9.685207367E0,3.992536545E0
3.601582239E0,-5.215340614E0,9.943918228E0,4.184174538E0
3.603572083E0,-5.454888344E0,1.029365826E1,4.054818630E0
3.605561927E0,-5.402187824E0,1.043259621E1,3.863180637E0
3.607551771E0,-5.421351433E0,1.052362442E1,3.858389616E0
3.609541614E0,-5.325532436E0,1.042780495E1,3.599678040E0
3.611531458E0,-5.105148315E0,1.024095821E1,3.417621613E0
3.613521302E0,-4.875182629E0,1.024095821E1,3.513440847E0
3.615511146E0,-4.434414387E0,1.042301464E1,3.408039808E0
3.617500989E0,-4.036765099E0,1.059548855E1,3.374503136E0
3.619490833E0,-3.778053522E0,1.096439266E1,3.221192360E0
3.621480677E0,-3.552878618E0,1.115123940E1,3.115791321E0
3.623470521E0,-3.346867323E0,1.138599682E1,3.149327993E0
3.625460364E0,-2.661760569E0,1.111291218E1,2.876243591E0
3.627450208E0,-2.498867989E0,1.120394039E1,2.756469488E0
3.629440052E0,-2.249738216E0,1.127580452E1,2.574413300E0
3.631429896E0,-2.139546156E0,1.136683273E1,2.330074310E0
3.633419739E0,-2.010190248E0,1.160638046E1,2.090526581E0
3.635409583E0,-1.641286492E0,1.181718254E1,1.697668076E0
3.637399427E0,-1.286755681E0,1.196091175E1,1.280854821E0
3.639389271E0,-8.507786393E-1,1.189862919E1,9.167419672E-1
3.641379114E0,-2.806547284E-1,1.175969124E1,6.867760420E-1
3.643368958E0,2.559324801E-1,1.156805325E1,1.406069696E-1
3.645358802E0,7.398191690E-1,1.123747730E1,-2.666243613E-1
3.647348646E0,1.041649461E0,1.083024597E1,-5.924094915E-1
3.649338489E0,1.113513827E0,1.043738747E1,-8.559121490E-1
3.651328333E0,1.089558959E0,9.972664833E0,-9.277764559E-1
3.653318177E0,8.164744377E-1,9.598969460E0,-1.004431725E0
3.655308021E0,2.750962973E-1,9.297139168E0,-9.613131881E-1
3.657297864E0,-1.081802696E-1,9.086337090E0,-8.798668981E-1
3.659287708E0,-4.291743934E-1,8.928236008E0,-7.026014924E-1
3.661277552E0,-5.776940584E-1,8.789298058E0,-6.163643003E-1
3.663267396E0,-6.016488671E-1,8.789298058E0,-4.534716904E-1
3.665257239E0,-4.004286528E-1,8.717433929E0,-2.762062848E-1
3.667247083E0,7.387609780E-2,8.386857986E0,-8.935897052E-2
3.669236927E0,5.481808782E-1,8.161683083E0,1.453979313E-1
3.671226771E0,9.458302855E-1,7.917343616E0,2.795447409E-1
3.673216614E0,1.166214347E0,7.797569752E0,3.993186653E-1
3.675206458E0,1.238078713E0,7.946089745E0,5.909569263E-1
3.677196302E0,1.544699907E0,7.773614883E0,9.119510651E-1
3.679186146E0,1.559072852E0,7.720914364E0,1.199408531E0
3.681175989E0,1.362643600E0,7.720914364E0,1.400628686E0
3.683165833E0,1.036858439E0,7.965253353E0,1.587476015E0
3.685155677E0,8.548021317E-1,8.032326698E0,1.539566517E0
3.687145521E0,8.548021317E-1,8.195219040E0,1.587476015E0
3.689135364E0,9.458302855E-1,7.970044136E0,1.529984593E0
3.691125208E0,1.017694592E0,8.027536392E0,1.467702150E0
3.693115052E0,1.094349980E0,7.740078449E0,1.434165478E0
3.695104896E0,1.185378194E0,7.462203026E0,1.506029725E0
3.697094739E0,1.247660637E0,7.352010727E0,1.386255860E0
3.699084583E0,1.022485614E0,7.256191730E0,1.352719188E0
3.701074427E0,5.912994742E-1,7.260982513E0,1.405419707E0
3.703064271E0,4.033939540E-2,7.366383553E0,1.515611649E0
3.705054114E0,2.415595949E-1,7.232236862E0,1.534775496E0
3.707043958E0,3.709154427E-1,7.375965595E0,1.218572378E0
3.709033802E0,-4.100105762E-1,7.586767673E0,1.141916990E0
3.711023646E0,-1.507139683E0,8.094609261E0,9.215329289E-1
3.713013489E0,-2.810280085E0,8.707851410E0,8.879962564E-1
3.715003333E0,-3.586415291E0,9.201320648E0,2.795447409E-1
3.716993177E0,-4.477532864E0,9.392958641E0,-3.384887278E-1
3.718983021E0,-5.349487305E0,9.464822769E0,-1.023595572E0
3.720972864E0,-5.804627895E0,9.785817146E0,-1.517064095E0
3.722962708E0,-6.484943867E0,9.670834541E0,-1.675165772E0
3.724952552E0,-7.423971653E0,9.766653061E0,-1.742239118E0
3.726942396E0,-8.276762009E0,9.987037659E0,-1.320634961E0
3.728932239E0,-9.220581055E0,1.006848335E1,-7.648839355E-1
3.730922083E0,-9.900897026E0,9.896009445E0,-1.851781011E-1
3.732911927E0,-1.051413918E1,9.761862755E0,5.430473685E-1
3.734901771E0,-1.067703152E1,9.488778114E0,1.328764319E0
3.736891614E0,-1.104593563E1,9.330676079E0,2.167181969E0
3.738881458E0,-1.077764225E1,9.000100136E0,2.866661549E0
3.740871302E0,-1.072015095E1,8.688688278E0,3.101418495E0
3.742861146E0,-1.036082840E1,8.247920036E0,3.618841887E0
3.744850989E0,-9.972761154E0,7.749660492E0,4.021282196E0
3.746840833E0,-9.484083176E0,7.366383553E0,4.203338146E0
3.748830677E0,-9.215789795E0,6.896870136E0,4.217711449E0
3.750820521E0,-8.803768158E0,6.403401375E0,4.385394573E0
3.752810364E0,-8.535473824E0,6.077616215E0,4.447677135E0
3.754800208E0,-8.339044571E0,5.881186962E0,4.294366360E0
3.756790052E0,-8.406118393E0,5.857232094E0,4.289575577E0
3.758779896E0,-8.549846649E0,5.933887482E0,3.949417830E0
3.760769739E0,-8.521100998E0,6.499220371E0,3.523022652E0
3.762759583E0,-8.592966080E0,7.385547638E0,3.120582342E0
3.764749427E0,-8.640874863E0,8.142518997E0,2.397147894E0
3.766739271E0,-9.100807190E0,8.693478584E0,1.271272898E0
3.768729114E0,-9.920061111E0,9.057591438E0,-6.061322987E-2
3.770718958E0,-1.014044476E1,8.880326271E0,-1.248770595E0
3.772708802E0,-9.546365738E0,9.661252022E0,-2.623775244E0
3.774698646E0,-9.651766777E0,1.027449512E1,-3.122034788E0
3.776688489E0,-9.833823204E0,1.126143169E1,-3.213063002E0
3.778678333E0,-9.685303688E0,1.217650509E1,-2.872905016E0
3.780668177E0,-9.776331902E0,1.312032318E1,-2.470464706E0
3.782658021E0,-9.584693909E0,1.398748684E1,-2.039278507E0
3.784647864E0,-9.043315887E0,1.422224331E1,-1.780566812E0
3.786637708E0,-9.076851845E0,1.477320385E1,-1.167324305E0
3.788627552E0,-8.602547646E0,1.486902237E1,-6.738557816E-1
3.790617396E0,-8.645666122E0,1.502233315E1,1.070702672E-1
3.792607239E0,-8.607338905E0,1.476362133E1,6.580303311E-1
3.794597083E0,-8.051587105E0,1.386771297E1,8.832052946E-1
3.796586927E0,-7.850366592E0,1.310595036E1,1.189826608E0
3.798576771E0,-7.179632664E0,1.223878670E1,1.146708012E0
3.800566614E0,-6.734073639E0,1.137641525E1,9.406967759E-1
3.802556458E0,-6.604717731E0,1.054757881E1,9.215329289E-1
3.804546302E0,-6.125622272E0,9.910382271E0,6.149116755E-1
3.806536146E0,-5.833374023E0,9.723534584E0,5.143015981E-1
3.808525989E0,-5.268041134E0,9.239647865E0,4.184824824E-1
3.810515833E0,-4.391295910E0,8.803670883E0,3.041495755E-2
3.812505677E0,-3.605579138E0,8.353321075E0,-1.851781011E-1
3.814495521E0,-2.987545490E0,7.979626179E0,-3.768163919E-1
3.816485364E0,-2.331184387E0,7.514903545E0,-5.349180102E-1
3.818475208E0,-1.794597149E0,6.681276798E0,-6.882286072E-1
3.820465052E0,-1.674823284E0,6.575875759E0,-6.594828963E-1
3.822454896E0,-1.339456201E0,6.115943909E0,-7.409291863E-1
3.824444739E0,-1.262800932E0,5.598520756E0,-1.090668917E0
3.826434583E0,-1.277173758E0,5.560193062E0,-1.272725344E0
3.828424427E0,-1.281964779E0,5.617684364E0,-1.723075271E0
3.830414271E0,-1.679614186E0,5.718294621E0,-2.034487486E0
3.832404114E0,-1.665241361E0,6.048870564E0,-2.475255489E0
3.834393958E0,-1.938325882E0,6.398610592E0,-2.738758087E0
3.836383802E0,-2.403048754E0,6.556712151E0,-2.829786301E0
3.838373646E0,-2.374303102E0,6.963943481E0,-2.944769382E0
3.840363489E0,-2.613850832E0,7.260982513E0,-2.868113995E0
3.842353333E0,-2.091636658E0,7.902970791E0,-2.542329073E0
3.844343177E0,-1.828133821E0,8.200010300E0,-2.034487486E0
3.846333021E0,-1.741896629E0,8.252710342E0,-1.646420002E0
3.848322864E0,-1.315501451E0,8.286247253E0,-1.157742381E0
3.850312708E0,-6.303945780E-1,8.616823196E0,-1.052341342E0
3.852302552E0,-7.789142728E-1,8.837207794E0,-6.786467433E-1
3.854292396E0,-5.154116154E-1,9.100709915E0,1.789346337E-1
3.856282239E0,-4.339653552E-1,9.172574997E0,5.334654450E-1
3.858272083E0,-2.183722854E-1,9.230066299E0,8.448776603E-1
3.860261927E0,-4.675020576E-1,9.249229431E0,1.084425569E0
3.862251771E0,-4.627110958E-1,9.196529388E0,1.467702150E0
3.864241614E0,-5.585302114E-1,9.129455566E0,1.702458978E0
3.866231458E0,-2.902366221E-1,9.119874001E0,1.898888230E0
3.868221302E0,-2.087903619E-1,9.345048904E0,1.803069115E0
3.870211146E0,2.798872590E-1,9.613342285E0,1.942006826E0
3.872200989E0,8.308473229E-1,9.886426926E0,1.601848960E0
3.874190833E0,1.487208486E0,1.012118435E1,1.386255860E0
3.876180677E0,2.129196644E0,1.023616695E1,8.448776603E-1
3.878170521E0,3.609602213E0,1.079191780E1,6.388664842E-1
3.880160364E0,5.090008259E0,1.112728500E1,1.693527102E-1
3.882150208E0,5.573894978E0,1.096439266E1,-2.618334293E-1
3.884140052E0,5.914052963E0,1.059069824E1,-6.738557816E-1
3.886129896E0,5.851770401E0,1.040864182E1,-8.750759363E-1
3.888119739E0,5.022934914E0,9.713953018E0,-1.071505189E0
3.890109583E0,4.457602024E0,9.440868378E0,-9.517312646E-1
3.892099427E0,4.831296444E0,9.881636620E0,-1.435617924E0
3.894089271E0,5.252900600E0,1.027449512E1,-4.486807585E-1
3.896079114E0,5.626595497E0,1.039905930E1,-1.507482290E0
3.898068958E0,6.057781696E0,1.050446033E1,-1.124205709E0
3.900058802E0,7.308221340E0,1.073921776E1,-8.990307450E-1
3.902048646E0,8.041237831E0,1.079191780E1,-1.478736520E0
3.904038489E0,7.969373703E0,1.109853935E1,-8.990307450E-1
3.906028333E0,8.558660507E0,1.152493477E1,-1.200860977E0
3.908018177E0,8.922773361E0,1.186988354E1,-8.559121490E-1
3.910008021E0,9.449778557E0,1.195132923E1,-6.738557816E-1
3.911997864E0,9.833055496E0,1.180760098E1,-3.432796896E-1
3.913987708E0,1.038880634E1,1.169740868E1,-2.091329098E-1
3.915977552E0,1.103558540E1,1.170699120E1,-8.456801623E-2
3.917967396E0,1.140927982E1,1.178843689E1,-4.678445756E-1
3.919957239E0,1.167278290E1,1.160159016E1,-9.421493411E-1
3.921947083E0,1.173506546E1,1.177885532E1,-1.239188671E0
3.923936927E0,1.188837624E1,1.191779327E1,-1.215233803E0
3.925926771E0,1.177339268E1,1.193216610E1,-1.866804004E0
3.927916614E0,1.171111012E1,1.204235744E1,-1.900340676E0
3.929906458E0,1.156738186E1,1.217171383E1,-2.091979027E0
3.931896302E0,1.138532543E1,1.225795078E1,-2.542329073E0
3.933886146E0,1.138532543E1,1.223399639E1,-2.700430632E0
3.935875989E0,1.144281673E1,1.221962357E1,-2.422554970E0
3.937865833E0,1.133262444E1,1.199923897E1,-1.718284369E0
3.939855677E0,1.098288536E1,1.173094559E1,-1.449990749E0
3.941845521E0,1.049899864E1,1.172615433E1,-3.720254302E-1
3.943835364E0,9.785145760E0,1.160638046E1,2.843357027E-1
3.945825208E0,8.280785561E0,1.186030197E1,1.841396809E0
3.947815052E0,7.265102863E0,1.139078808E1,2.459430218E0
3.949804896E0,5.990708351E0,1.119435883E1,2.972062588E0
3.951794739E0,4.792968750E0,1.095960140E1,3.920672178E0
3.953784583E0,3.911432505E0,1.065297985E1,4.145846844E0
3.955774427E0,3.556901693E0,1.039426899E1,4.471632004E0
3.957764271E0,3.647929907E0,1.025053978E1,4.816580772E0
3.959754114E0,3.921014547E0,9.987037659E0,4.538705349E0
3.961743958E0,4.452810764E0,9.872054100E0,4.907608986E0
3.963733802E0,4.855251312E0,9.565433502E0,4.246457100E0
3.965723646E0,5.099590302E0,9.225275040E0,4.054818630E0
3.967713489E0,5.339138031E0,9.014472961E0,3.930253983E0
3.969703333E0,5.372674942E0,8.712642670E0,3.666751385E0
3.971693177E0,5.195409298E0,8.521004677E0,3.388875961E0
3.973683021E0,4.807342052E0,8.276665688E0,3.120582342E0
3.975672864E0,4.495929718E0,8.219174385E0,2.804379225E0
3.977662708E0,4.146189690E0,8.080236435E0,2.545667410E0
3.979652552E0,3.849150181E0,7.965253353E0,2.152808905E0
3.981642396E0,3.633557081E0,7.706541538E0,1.788696289E0
3.983632239E0,3.451500654E0,7.677795887E0,1.323973417E0
3.985622083E0,3.120924711E0,7.562812805E0,1.137126088E0
3.987611927E0,2.895749807E0,7.189118385E0,8.352957368E-1
3.989601771E0,2.383117199E0,7.189118385E0,6.149116755E-1
3.991591614E0,2.023795605E0,6.968734264E0,3.082904816E-1
3.993581458E0,1.554281831E0,7.035807610E0,-1.749461517E-2
3.995571302E0,9.218755364E-1,7.208281994E0,-1.037318483E-1
3.997561146E0,1.074127927E-1,7.356801987E0,-1.947600245E-1
3.999550989E0,-4.770839512E-1,7.390338421E0,-4.007711709E-1
4.001541771E0,-8.747333884E-1,7.471784592E0,-5.444999337E-1
4.003531771E0,-1.262800932E0,7.620304585E0,-6.738557816E-1
4.005546927E0,-1.631704569E0,7.725705624E0,-7.409291863E-1
4.007511458E0,-1.938325882E0,7.821524620E0,-8.559121490E-1
4.009476979E0,-2.115591288E0,7.907762051E0,-9.852679372E-1
4.011444427E0,-2.359930277E0,8.166473389E0,-9.661041498E-1
4.013414635E0,-2.527613640E0,8.367693901E0,-9.804770350E-1
4.015388281E0,-2.618641853E0,8.631196022E0,-9.565222263E-1
4.017365833E0,-2.752788782E0,8.779716492E0,-9.948498607E-1
4.019347656E0,-2.891726494E0,8.794089317E0,-1.042759418E0
4.021333906E0,-2.872562647E0,8.818043709E0,-1.162533283E0
4.023324531E0,-2.906099319E0,9.048009872E0,-1.215233803E0
4.025319323E0,-3.001918554E0,9.239647865E0,-1.224815726E0
4.027317916E0,-3.030664206E0,9.407331467E0,-1.325425863E0
4.029319791E0,-3.183974743E0,9.646879196E0,-1.358962536E0
4.031324375E0,-3.260630131E0,9.939127922E0,-1.378126383E0
4.033330937E0,-3.298957825E0,1.006369305E1,-1.411663055E0
4.035338750E0,-3.279793978E0,1.019783974E1,-1.421244979E0
4.037347031E0,-3.227093458E0,1.034635925E1,-1.478736520E0
4.039349062E0,-3.006709337E0,1.039426899E1,-1.497900367E0
4.041338906E0,-2.848607779E0,1.053799725E1,-1.473945498E0
4.043328750E0,-2.709670067E0,1.074879932E1,-1.454781651E0
4.045318593E0,-2.551568508E0,1.085420036E1,-1.392499208E0
4.047308437E0,-2.518031836E0,1.109374809E1,-1.421244979E0
4.049298281E0,-2.503659010E0,1.121831322E1,-1.306262016E0
4.051288125E0,-2.326393604E0,1.119435883E1,-1.215233803E0
4.053277968E0,-2.240156174E0,1.127580452E1,-9.852679372E-1
4.055267812E0,-2.067681789E0,1.122789478E1,-7.744658589E-1
4.057257656E0,-1.947907805E0,1.117998600E1,-6.019914150E-1
4.059247500E0,-1.770642400E0,1.103625679E1,-4.726355374E-1
4.061237343E0,-1.660450339E0,1.088294601E1,-3.145339489E-1
4.063227187E0,-1.535885453E0,1.072005367E1,-1.612233222E-1
4.065217031E0,-1.478394032E0,1.054278851E1,7.353357226E-2
4.067206875E0,-1.406529665E0,1.028407669E1,3.753638864E-1
4.069196718E0,-1.344247222E0,1.005890179E1,5.574201941E-1
4.071186562E0,-1.262800932E0,9.862472534E0,7.730132937E-1
4.073176406E0,-1.176563740E0,9.723534584E0,9.406967759E-1
4.075166250E0,-1.080744505E0,9.752280235E0,1.146708012E0
4.077156093E0,-9.801344275E-1,9.666043282E0,1.290436745E0
4.079145937E0,-9.705525637E-1,9.589387894E0,1.352719188E0
4.081135781E0,-9.801344275E-1,9.483986855E0,1.448538303E0
4.083125625E0,-1.032835007E0,9.445658684E0,1.477284074E0
4.085115468E0,-1.032835007E0,9.431285858E0,1.472493052E0
4.087105312E0,-1.047207832E0,9.383377075E0,1.534775496E0
4.089095156E0,-9.849253893E-1,9.239647865E0,1.467702150E0
4.091085000E0,-1.008880258E0,9.277976036E0,1.352719188E0
4.093074843E0,-1.056789756E0,9.364212990E0,1.319182396E0
4.095064687E0,-1.018462181E0,9.503150940E0,1.304809570E0
4.097054531E0,-8.651514649E-1,9.541478157E0,1.371883035E0
4.099044375E0,-6.256036162E-1,9.555850983E0,1.347928166E0
4.101034218E0,-3.668919504E-1,9.426495552E0,1.362301111E0
4.103024062E0,-2.087903619E-1,9.378585815E0,1.252109051E0
4.105013906E0,-7.943452895E-2,9.359421730E0,1.165871859E0
4.107003750E0,-6.506165862E-2,9.426495552E0,1.127544165E0
4.108993593E0,2.011742443E-3,9.383377075E0,1.084425569E0
4.110983437E0,3.554844111E-2,9.388167381E0,1.017352104E0
4.112973281E0,2.596652694E-2,9.531896591E0,1.012561202E0
4.114963125E0,6.802698597E-3,9.675624847E0,1.012561202E0
4.116952968E0,3.554844111E-2,9.828935623E0,1.007770181E0
4.118942812E0,9.303992242E-2,9.929545403E0,1.017352104E0
4.120932656E0,1.984409839E-1,9.991827965E0,1.070052624E0
4.122922500E0,3.038420379E-1,1.002536488E1,1.141916990E0
4.124912343E0,4.571526647E-1,1.005411053E1,1.199408531E0
4.126902187E0,6.152542830E-1,1.008764744E1,1.271272898E0
4.128892031E0,7.350282073E-1,1.006848335E1,1.467702150E0
4.130881875E0,8.691749573E-1,1.003494644E1,1.678504229E0
4.132871718E0,9.697850943E-1,9.967873573E0,1.937215924E0
4.134861562E0,1.065604210E0,9.819354057E0,2.162390947E0
4.136851406E0,1.199751019E0,9.436077118E0,2.224673271E0
4.138841250E0,1.439298868E0,8.971354485E0,2.191136599E0
4.140831093E0,1.707592487E0,8.597660065E0,2.119272232E0
4.142820937E0,2.052541256E0,8.319784164E0,2.013871193E0
4.144810781E0,2.608292341E0,7.864643097E0,2.076153755E0
4.146800625E0,2.704111338E0,7.869434357E0,2.119272232E0
4.148790468E0,2.795139551E0,7.979626179E0,2.191136599E0
4.150780312E0,2.752021074E0,8.243128777E0,2.440266371E0
4.152770156E0,2.761602879E0,8.588077545E0,2.746887684E0
4.154760000E0,2.857422113E0,8.923444748E0,3.000808477E0
