"Time (s)","Gyroscope x (rad/s)","Gyroscope y (rad/s)","Gyroscope z (rad/s)"
0.000000000E0,2.713114321E-1,-6.131341457E-1,4.144807756E-1
3.971875000E-3,2.402794808E-1,-5.729566813E-1,4.148647487E-1
7.942188000E-3,2.014982551E-1,-5.251520872E-1,4.164879322E-1
1.191250000E-2,1.569050997E-1,-4.755149484E-1,4.197516739E-1
1.588281300E-2,1.080882400E-1,-4.255287349E-1,4.252669215E-1
1.985312500E-2,6.012659147E-2,-3.786142766E-1,4.351454973E-1
2.382500000E-2,1.315978263E-2,-3.415434659E-1,4.518482983E-1
2.779375000E-2,-3.249803185E-2,-3.205646276E-1,4.999670088E-1
3.176562500E-2,-9.553932399E-2,-3.460813463E-1,5.842314959E-1
3.573593800E-2,-1.756673902E-1,-4.153534472E-1,6.142511964E-1
3.970625000E-2,-2.664245069E-1,-5.147499442E-1,5.907590389E-1
4.367656300E-2,-3.554362953E-1,-6.291737556E-1,5.376137495E-1
4.764687500E-2,-4.329812825E-1,-7.347487211E-1,4.799481034E-1
5.161718800E-2,-4.857251346E-1,-8.128696680E-1,4.392993748E-1
5.558906300E-2,-5.194972754E-1,-8.675682545E-1,4.201007485E-1
5.955937500E-2,-5.310338736E-1,-8.980940580E-1,4.191931784E-1
6.352968800E-2,-4.431216419E-1,-7.797607183E-1,3.963119090E-1
6.750000000E-2,-2.717652023E-1,-4.937536418E-1,3.305130005E-1
7.147031300E-2,-8.735372871E-2,-1.912357211E-1,2.564586699E-1
7.544062500E-2,6.412339956E-2,6.181956083E-2,1.870120317E-1
7.941250000E-2,1.900489032E-1,2.597399056E-1,1.318770796E-1
8.338281300E-2,2.786069214E-1,3.249803185E-1,7.866198570E-2
8.735156300E-2,3.397108912E-1,2.637541592E-1,2.445206232E-2
9.132343800E-2,3.880914152E-1,1.669058353E-1,-1.410226058E-2
9.529375000E-2,3.708999157E-1,5.373868719E-2,4.241149873E-3
9.926406300E-2,3.289945722E-1,-7.976154983E-2,4.630358517E-2
1.032343750E-1,2.979277074E-1,-2.707354724E-1,6.766641140E-2
1.072046880E-1,2.541548312E-1,-5.275955796E-1,7.548549026E-2
1.111765630E-1,2.118655145E-1,-8.388401270E-1,7.585200667E-2
1.151468750E-1,1.675865203E-1,-1.151393652E0,7.744026184E-2
1.191171880E-1,1.038296372E-1,-1.468502522E0,8.538150787E-2
1.230875000E-1,2.637192421E-2,-1.769344926E0,1.029569730E-1
1.270578130E-1,-5.462880433E-2,-2.068564177E0,1.289100200E-1
1.310281250E-1,-1.430297345E-1,-2.345565319E0,1.663822383E-1
1.350000000E-1,-2.275385708E-1,-2.620018482E0,2.173982114E-1
1.389687500E-1,-2.310641408E-1,-2.734093189E0,2.775247991E-1
1.429406250E-1,1.385791413E-2,-2.261440516E0,3.326597512E-1
1.469109380E-1,4.220904112E-1,-1.359995484E0,3.580717444E-1
1.508812500E-1,6.370451450E-1,-8.911302090E-1,3.524692357E-1
1.548515630E-1,6.967005134E-1,-7.814711928E-1,3.348937631E-1
1.588218750E-1,7.348708510E-1,-6.845879555E-1,2.964790761E-1
1.627921880E-1,7.942121029E-1,-4.880464077E-1,2.307325304E-1
1.667625000E-1,8.190830350E-1,-3.188192844E-1,1.611811519E-1
1.707343750E-1,7.931997776E-1,-2.432465404E-1,1.165356338E-1
1.747046880E-1,7.514340281E-1,-2.035926580E-1,9.360200912E-2
1.786750000E-1,7.360576987E-1,-1.553168446E-1,7.892379165E-2
1.826453130E-1,7.272437811E-1,-1.204451695E-1,6.906268001E-2
1.866156250E-1,7.207162380E-1,-9.719738364E-2,6.904522330E-2
1.905859380E-1,7.224790454E-1,-8.887216449E-2,8.422958851E-2
1.945578130E-1,7.252017260E-1,-1.028173491E-1,1.193630695E-1
1.985265630E-1,7.244163752E-1,-1.361007690E-1,1.679530293E-1
2.024968750E-1,7.151835561E-1,-1.858775616E-1,2.279050946E-1
2.064687500E-1,6.989345551E-1,-2.539454103E-1,2.978753448E-1
2.104390630E-1,6.751108170E-1,-3.278426528E-1,3.708999157E-1
2.144093750E-1,6.503794789E-1,-4.103618264E-1,4.492826462E-1
2.183796880E-1,6.272364259E-1,-4.974886477E-1,5.318716168E-1
2.223500000E-1,6.062924862E-1,-5.868844390E-1,6.093991399E-1
2.263203130E-1,5.929930806E-1,-6.844308376E-1,6.800675392E-1
2.302921880E-1,5.889264345E-1,-7.879812717E-1,7.403337359E-1
2.342625000E-1,5.956808925E-1,-8.902400732E-1,7.878066897E-1
2.382328130E-1,6.129596233E-1,-9.897761941E-1,8.230623603E-1
2.422031250E-1,6.419844627E-1,-1.076553941E0,8.435525298E-1
2.461734380E-1,6.823713779E-1,-1.152755022E0,8.514588475E-1
2.501437500E-1,7.306820750E-1,-1.210420728E0,8.482474685E-1
2.541156250E-1,7.912973762E-1,-1.251942158E0,8.352098465E-1
2.580890630E-1,8.565028906E-1,-1.275120139E0,8.197637200E-1
2.620562500E-1,9.171530604E-1,-1.285818934E0,8.036891818E-1
2.660265630E-1,9.734748602E-1,-1.273444533E0,8.069878817E-1
2.699968750E-1,1.005798340E0,-1.221573353E0,8.490852118E-1
2.739671880E-1,9.946805835E-1,-1.163157225E0,9.326167107E-1
2.779390630E-1,7.623423338E-1,-1.460788250E0,1.102437258E0
2.819078130E-1,2.564935982E-1,-2.203966856E0,1.498644352E0
2.858796880E-1,-7.770206034E-2,-2.726937294E0,1.924906135E0
2.898500000E-1,-2.034181207E-1,-3.059562206E0,2.169880629E0
2.938203130E-1,-3.013485372E-1,-3.464757919E0,2.153212786E0
2.977906250E-1,-5.327966809E-1,-4.141980648E0,1.936739445E0
3.017609380E-1,-6.717597842E-1,-4.387914658E0,1.705832481E0
3.057312500E-1,-6.979746222E-1,-4.140776157E0,1.454086185E0
3.097031250E-1,-6.732956767E-1,-3.650198936E0,1.190541387E0
3.136734380E-1,-6.424382329E-1,-3.133267403E0,9.285151362E-1
3.176437500E-1,-6.378130913E-1,-2.711805344E0,6.836454868E-1
3.216140630E-1,-6.703460813E-1,-2.485837460E0,4.482703507E-1
3.255843750E-1,-6.953042746E-1,-2.370959997E0,2.403143793E-1
3.295546880E-1,-6.654242277E-1,-2.240880489E0,7.365289330E-2
3.335250000E-1,-5.767789483E-1,-2.056085110E0,-6.689847261E-2
3.374953130E-1,-4.395611584E-1,-1.850101352E0,-1.741489470E-1
3.414656250E-1,-2.782403827E-1,-1.682706833E0,-2.383945286E-1
3.454359380E-1,-9.808750451E-2,-1.554756761E0,-2.756049335E-1
3.494078130E-1,1.001295373E-1,-1.432356834E0,-2.902657092E-1
3.533781250E-1,2.864085436E-1,-1.278418779E0,-2.692868412E-1
3.573484380E-1,4.398229718E-1,-1.088282585E0,-2.118655145E-1
3.613187500E-1,5.443682075E-1,-9.094910622E-1,-1.379857361E-1
3.652890630E-1,6.206740141E-1,-7.731633782E-1,-7.340855151E-2
3.692609380E-1,6.906616688E-1,-6.967877746E-1,-2.993239649E-2
3.732312500E-1,7.787484527E-1,-6.786887050E-1,-2.478367416E-3
3.772015630E-1,8.824210167E-1,-7.009591460E-1,9.930923581E-3
3.811718750E-1,9.883101583E-1,-7.344868779E-1,1.104793418E-2
3.851421880E-1,1.097096562E0,-7.667231560E-1,3.804817796E-3
3.891125000E-1,1.196946740E0,-7.925888896E-1,-9.948376566E-3
3.930843750E-1,1.286202908E0,-8.037066460E-1,-3.310889751E-2
3.970531250E-1,1.362194538E0,-8.108101487E-1,-6.607816368E-2
4.010234380E-1,1.417678595E0,-8.360999823E-1,-9.382890165E-2
4.049953130E-1,1.453946471E0,-8.758586049E-1,-1.354899108E-1
4.089656250E-1,1.489149809E0,-8.972213864E-1,-2.090904415E-1
4.129359380E-1,1.522276163E0,-8.934689760E-1,-3.144210577E-1
4.169062500E-1,1.546257019E0,-8.520348072E-1,-4.367337227E-1
4.208765630E-1,1.555681825E0,-7.616093159E-1,-5.533915162E-1
4.248468750E-1,1.541893721E0,-6.365041137E-1,-6.526135206E-1
4.288187500E-1,1.500808597E0,-5.001764297E-1,-7.278721333E-1
4.327890630E-1,1.442846179E0,-3.816511333E-1,-7.912624478E-1
4.367593750E-1,1.369734406E0,-3.078237176E-1,-8.604473472E-1
4.407578130E-1,1.288367152E0,-2.747322619E-1,-9.479057789E-1
4.447000000E-1,1.206179619E0,-2.670353651E-1,-1.048820734E0
4.486718750E-1,1.133259773E0,-2.624975145E-1,-1.143644452E0
4.526421880E-1,1.065017343E0,-2.500184178E-1,-1.226355553E0
4.566109380E-1,1.005833268E0,-2.275036722E-1,-1.286604404E0
4.605828130E-1,9.581857324E-1,-1.983043104E-1,-1.323832273E0
4.645531250E-1,9.194219708E-1,-1.632755548E-1,-1.339871764E0
4.685234380E-1,8.859815001E-1,-1.254018992E-1,-1.339522719E0
4.724937500E-1,8.608661890E-1,-8.557349443E-2,-1.326328039E0
4.764640630E-1,8.391019702E-1,-3.892084211E-2,-1.305418968E0
4.804343750E-1,8.180881739E-1,1.298524998E-2,-1.280111790E0
4.844046880E-1,7.954512835E-1,6.956882030E-2,-1.245798588E0
4.883765630E-1,7.732855678E-1,1.261698455E-1,-1.209164143E0
4.923468750E-1,7.452381253E-1,1.874309033E-1,-1.166036963E0
4.963187500E-1,7.079753280E-1,2.522000670E-1,-1.119558930E0
5.002875000E-1,6.622826457E-1,3.176848292E-1,-1.080515862E0
5.042578130E-1,6.021909714E-1,3.862588108E-1,-1.041106343E0
5.082281250E-1,5.296376348E-1,4.487066865E-1,-1.007508755E0
5.121984380E-1,4.449542463E-1,5.050284863E-1,-9.775239825E-1
5.161703130E-1,3.400599360E-1,5.489234924E-1,-9.517803788E-1
5.201406250E-1,2.282367051E-1,5.733231902E-1,-9.333322644E-1
5.241109380E-1,1.169021502E-1,5.856801271E-1,-9.265429378E-1
5.280812500E-1,1.066396199E-2,5.935690403E-1,-9.468934536E-1
5.320531250E-1,-9.021607041E-2,5.938308239E-1,-9.909107089E-1
5.360218750E-1,-1.807812005E-1,5.889264345E-1,-1.045748949E0
5.399921880E-1,-2.528807521E-1,5.813168287E-1,-1.100080967E0
5.439640630E-1,-3.075095713E-1,5.781228542E-1,-1.149805427E0
5.479343750E-1,-3.495894372E-1,5.852612853E-1,-1.183996439E0
5.519046880E-1,-3.828205168E-1,6.078981757E-1,-1.206144691E0
5.558750000E-1,-4.115137160E-1,6.314252019E-1,-1.213876486E0
5.598453130E-1,-4.381125569E-1,6.571339369E-1,-1.213178396E0
5.638156250E-1,-4.640132189E-1,6.731909513E-1,-1.205621123E0
5.677875000E-1,-4.882209599E-1,6.557376385E-1,-1.190716028E0
5.717562500E-1,-5.139645338E-1,5.939355493E-1,-1.162581205E0
5.757281250E-1,-5.460960865E-1,5.655390620E-1,-1.136872530E0
5.796984380E-1,-5.863782763E-1,5.786464810E-1,-1.118738651E0
5.836687500E-1,-6.322804093E-1,5.989620686E-1,-1.103309870E0
5.876390630E-1,-6.803642511E-1,6.161535978E-1,-1.087113261E0
5.916109380E-1,-7.264758348E-1,6.319139004E-1,-1.067373514E0
5.955796880E-1,-7.648556232E-1,6.440090537E-1,-1.044474840E0
5.995500000E-1,-7.920303941E-1,6.557376385E-1,-1.012308359E0
6.035218750E-1,-8.022754788E-1,6.652845740E-1,-9.703681469E-1
6.074921880E-1,-8.049284220E-1,6.296100616E-1,-9.246405363E-1
6.114625000E-1,-8.258898258E-1,5.407902598E-1,-9.055815339E-1
6.154406250E-1,-8.932245970E-1,4.266631901E-1,-9.445547462E-1
6.194031250E-1,-9.886242747E-1,3.507588208E-1,-1.030145645E0
6.233734380E-1,-1.072138309E0,3.651577830E-1,-1.126313329E0
6.273453130E-1,-1.126854420E0,3.747396469E-1,-1.184520006E0
6.313156250E-1,-1.161132693E0,4.136779308E-1,-1.219985127E0
6.352859380E-1,-1.170557380E0,5.177868009E-1,-1.241871595E0
6.392562500E-1,-1.143487334E0,6.340082884E-1,-1.250004768E0
6.432265630E-1,-1.082400799E0,7.575601339E-1,-1.243232965E0
6.471968750E-1,-1.011208892E0,8.769930601E-1,-1.233179808E0
6.511671880E-1,-9.343619943E-1,9.722705483E-1,-1.221363902E0
6.551375000E-1,-8.556302190E-1,1.050077319E0,-1.203544140E0
6.591093750E-1,-7.839146256E-1,1.103048086E0,-1.177521229E0
6.630796880E-1,-7.089352608E-1,1.100814104E0,-1.144848704E0
6.670500000E-1,-6.058735847E-1,1.007665873E0,-1.099313021E0
6.710203130E-1,-4.786041975E-1,8.361349106E-1,-1.038802505E0
6.749906250E-1,-3.317347169E-1,6.252292991E-1,-9.781697989E-1
6.789609380E-1,-1.871167421E-1,3.852988780E-1,-9.248499870E-1
6.829312500E-1,-5.925392732E-2,1.548979729E-1,-8.748462796E-1
6.869031250E-1,3.323106840E-2,-2.787290886E-2,-8.258374333E-1
6.908734380E-1,9.859365225E-2,-1.612160653E-1,-7.724128962E-1
6.948437500E-1,1.467821896E-1,-2.254965454E-1,-7.256380916E-1
6.988140630E-1,1.903281510E-1,-2.363524884E-1,-6.950773597E-1
7.027843750E-1,2.460914254E-1,-2.212204784E-1,-6.876946092E-1
7.067546880E-1,3.205297291E-1,-2.172411382E-1,-6.991963387E-1
7.107250000E-1,4.007624984E-1,-2.450965792E-1,-7.271739841E-1
7.146953130E-1,4.798084497E-1,-3.086440265E-1,-7.657806873E-1
7.186671880E-1,5.409299135E-1,-4.053178132E-1,-8.124333024E-1
7.226375000E-1,5.750859976E-1,-5.349957943E-1,-8.703607917E-1
7.266078130E-1,5.815960765E-1,-6.737319827E-1,-9.331577420E-1
7.305781250E-1,5.634097457E-1,-8.189084530E-1,-1.001644492E0
7.345546880E-1,5.333551764E-1,-9.631948471E-1,-1.066029668E0
7.385187500E-1,5.032482147E-1,-1.111984134E0,-1.114462495E0
7.424906250E-1,4.480085671E-1,-1.382527709E0,-1.099696994E0
7.464609380E-1,3.826634288E-1,-1.670716405E0,-1.075314760E0
7.504312500E-1,3.484549820E-1,-1.969097853E0,-1.072836399E0
7.544015630E-1,3.312809467E-1,-2.214177132E0,-1.107708097E0
7.583718750E-1,3.214023709E-1,-2.418816805E0,-1.176735878E0
7.623421880E-1,3.049788177E-1,-2.622811079E0,-1.285469890E0
7.663140630E-1,2.745228410E-1,-2.766294479E0,-1.399387479E0
7.702828130E-1,2.374869436E-1,-2.796349049E0,-1.483477473E0
7.742546880E-1,2.021091282E-1,-2.725558519E0,-1.523463011E0
7.782250000E-1,1.671327353E-1,-2.606980801E0,-1.514474511E0
7.821953130E-1,1.415811032E-1,-2.450948477E0,-1.463667989E0
7.861656250E-1,1.454557329E-1,-2.284060001E0,-1.375877976E0
7.901359380E-1,1.840624213E-1,-2.109631777E0,-1.258312583E0
7.941062500E-1,2.660928965E-1,-1.919076800E0,-1.126051545E0
7.980781250E-1,3.799407184E-1,-1.706286192E0,-9.865997434E-1
8.020468750E-1,5.196543336E-1,-1.508680105E0,-8.591557741E-1
8.060187500E-1,6.662619710E-1,-1.374219894E0,-7.693062425E-1
8.099890630E-1,8.237605095E-1,-1.235221863E0,-7.144156098E-1
8.139593750E-1,9.982933998E-1,-9.993231893E-1,-6.990567446E-1
8.179296880E-1,1.178690672E0,-7.171906829E-1,-7.204893827E-1
8.219000000E-1,1.357796311E0,-4.754975140E-1,-7.661297321E-1
8.258718750E-1,1.539764404E0,-3.398854136E-1,-8.259246945E-1
8.298406250E-1,1.774336576E0,-3.731339276E-1,-9.075537324E-1
8.338125000E-1,2.124990702E0,-5.816833377E-1,-1.018556714E0
8.377828130E-1,2.517201185E0,-7.728317976E-1,-1.144342542E0
8.417531250E-1,2.911732674E0,-9.538747668E-1,-1.280670285E0
8.457234380E-1,3.275773525E0,-1.137134314E0,-1.420226812E0
8.496937500E-1,3.635049582E0,-1.336363673E0,-1.575072408E0
8.536640630E-1,3.965265989E0,-1.531212211E0,-1.717910171E0
8.576359380E-1,4.259912491E0,-1.718171954E0,-1.855180264E0
8.616062500E-1,4.540194988E0,-1.922148585E0,-1.977684975E0
8.655765630E-1,4.802884102E0,-2.116124392E0,-2.086436510E0
8.695468750E-1,5.039987087E0,-2.299296856E0,-2.182359695E0
8.735171880E-1,5.233823299E0,-2.447178602E0,-2.261108875E0
8.774875000E-1,5.401340008E0,-2.540606022E0,-2.322753906E0
8.814578130E-1,5.566151619E0,-2.534096003E0,-2.359737396E0
8.854296880E-1,5.708640575E0,-2.490637302E0,-2.373752594E0
8.894000000E-1,5.828893661E0,-2.434873819E0,-2.362809181E0
8.933703130E-1,5.919737816E0,-2.373211384E0,-2.328181982E0
8.973406250E-1,5.983582020E0,-2.300727844E0,-2.267845869E0
9.013109380E-1,6.030950069E0,-2.207754135E0,-2.185571194E0
9.052812500E-1,6.064355850E0,-2.103261471E0,-2.085965157E0
9.092515630E-1,6.081512451E0,-1.973827720E0,-1.971646070E0
9.132218750E-1,6.084165573E0,-1.834410906E0,-1.857850671E0
9.171937500E-1,6.065595150E0,-1.687820673E0,-1.739482403E0
9.211625000E-1,6.025243282E0,-1.539450169E0,-1.619229198E0
9.251343750E-1,5.968048573E0,-1.395233631E0,-1.500267625E0
9.291046880E-1,5.893662930E0,-1.256741762E0,-1.377274156E0
9.330750000E-1,5.800531864E0,-1.133172512E0,-1.260878205E0
9.370453130E-1,5.695114136E0,-1.037598252E0,-1.152720213E0
9.410156250E-1,5.567774773E0,-9.574177861E-1,-1.057076097E0
9.449859380E-1,5.439632893E0,-9.026494026E-1,-9.842609763E-1
9.489578130E-1,5.295887470E0,-8.576548100E-1,-9.255306721E-1
9.529281250E-1,5.143258572E0,-8.416850567E-1,-8.861385584E-1
9.568984380E-1,4.972757339E0,-8.570963144E-1,-8.666781187E-1
9.608687500E-1,4.789986134E0,-8.983035088E-1,-8.646186590E-1
9.648390630E-1,4.609432220E0,-9.644340277E-1,-8.794364929E-1
9.688093750E-1,4.422332764E0,-1.047651291E0,-9.094910622E-1
9.727796880E-1,4.252023697E0,-1.118895650E0,-9.412909746E-1
9.767515630E-1,4.107405663E0,-1.183961511E0,-9.769654870E-1
9.807203130E-1,3.976034641E0,-1.238712549E0,-1.013216019E0
9.846921880E-1,3.859167337E0,-1.279954672E0,-1.048419237E0
9.886625000E-1,3.759299517E0,-1.313569665E0,-1.077461600E0
9.926328130E-1,3.681929111E0,-1.340535045E0,-1.099784374E0
9.966031250E-1,3.622308731E0,-1.367744684E0,-1.118249893E0
1.000573438E0,3.576650858E0,-1.386594296E0,-1.133905530E0
1.004543750E0,3.546404362E0,-1.390468955E0,-1.143400073E0
1.008514063E0,3.529020786E0,-1.377169490E0,-1.150398850E0
1.012485938E0,3.518618584E0,-1.342402577E0,-1.153435707E0
1.016454688E0,3.511707067E0,-1.294493198E0,-1.150154471E0
1.020426563E0,3.500571966E0,-1.244489551E0,-1.139682531E0
1.024396875E0,3.483973980E0,-1.195637822E0,-1.112263441E0
1.028367188E0,3.457828760E0,-1.144970894E0,-1.070043921E0
1.032339063E0,3.424667597E0,-1.097428083E0,-1.012971640E0
1.036309375E0,3.376740932E0,-1.046499372E0,-9.450957775E-1
1.040278125E0,3.309004545E0,-9.946805835E-1,-8.644790053E-1
1.044250000E0,3.223919868E0,-9.498605132E-1,-7.805461287E-1
1.048220313E0,3.121626139E0,-9.155648351E-1,-6.904522777E-1
1.052190625E0,3.000133753E0,-9.060178399E-1,-6.053674221E-1
1.056162500E0,2.868815184E0,-9.236980677E-1,-5.266007185E-1
1.060131250E0,2.723586321E0,-9.605419636E-1,-4.645019174E-1
1.064101563E0,2.566244841E0,-1.002970934E0,-4.191059172E-1
1.068073438E0,2.393945932E0,-1.049571157E0,-3.922278285E-1
1.072043750E0,2.226184845E0,-1.087462306E0,-3.748443723E-1
1.076014063E0,2.054025650E0,-1.122613192E0,-3.608119190E-1
1.079984375E0,1.872319460E0,-1.174222589E0,-3.670776486E-1
1.083954688E0,1.696250558E0,-1.237211585E0,-3.836233616E-1
1.087925000E0,1.520251632E0,-1.308124304E0,-4.058588743E-1
1.091896875E0,1.360082746E0,-1.385948539E0,-4.309392571E-1
1.095867188E0,1.222009778E0,-1.461748123E0,-4.570319057E-1
1.099835938E0,1.096869588E0,-1.533777833E0,-4.840147197E-1
1.103807813E0,9.846449494E-1,-1.591565728E0,-5.119748712E-1
1.107778125E0,8.832587600E-1,-1.629195094E0,-5.412440300E-1
1.111748438E0,7.985754013E-1,-1.656771183E0,-5.669353008E-1
1.115720313E0,7.266678214E-1,-1.683509707E0,-5.879490376E-1
1.119689063E0,6.639755964E-1,-1.712167978E0,-5.985432267E-1
1.123660938E0,6.131516099E-1,-1.733652949E0,-5.948430896E-1
1.127631250E0,5.648409128E-1,-1.746934891E0,-5.783672333E-1
1.131601563E0,5.138598084E-1,-1.748139262E0,-5.477192402E-1
1.135571875E0,4.558799863E-1,-1.735206366E0,-5.064771175E-1
1.139542188E0,3.809879124E-1,-1.708049059E0,-4.630358517E-1
1.143512500E0,3.039490879E-1,-1.674468875E0,-4.286703169E-1
1.147484375E0,2.125287354E-1,-1.625233173E0,-4.026998281E-1
1.151454688E0,1.213876456E-1,-1.551615119E0,-3.846356571E-1
1.155425000E0,3.228859231E-2,-1.453789473E0,-3.784222901E-1
1.159395313E0,-5.686282739E-2,-1.342193127E0,-3.730641305E-1
1.163365625E0,-1.341460049E-1,-1.223545671E0,-3.600614369E-1
1.167335938E0,-2.065422684E-1,-1.091581225E0,-3.386287689E-1
1.171306250E0,-2.810852826E-1,-9.333148003E-1,-3.047344983E-1
1.175278125E0,-3.653846681E-1,-7.603178024E-1,-2.563190460E-1
1.179246875E0,-4.627915025E-1,-5.962917209E-1,-2.006255984E-1
1.183218750E0,-5.622926950E-1,-4.306599796E-1,-1.487544179E-1
1.187189063E0,-6.637661457E-1,-2.808932960E-1,-1.054178849E-1
1.191159375E0,-7.570714951E-1,-1.667138487E-1,-7.319910824E-2
1.195131250E0,-8.422435522E-1,-8.710937947E-2,-5.906194076E-2
1.199100000E0,-9.115505815E-1,-3.731513768E-2,-6.305874884E-2
1.203070313E0,-9.585348368E-1,-1.048942842E-2,-8.667305112E-2
1.207042188E0,-9.858317971E-1,-8.587019518E-3,-1.300095767E-1
1.211012500E0,-9.961117506E-1,-4.092797264E-2,-1.782330275E-1
1.214982813E0,-9.974381924E-1,-1.130100712E-1,-2.312735766E-1
1.218953125E0,-9.927956462E-1,-2.140122652E-1,-2.833367586E-1
1.222923438E0,-9.852558374E-1,-3.261845708E-1,-3.443360031E-1
1.226893750E0,-9.805957675E-1,-4.386710525E-1,-4.124736488E-1
1.230865625E0,-9.781697989E-1,-5.386086106E-1,-4.805240333E-1
1.234835938E0,-9.766339064E-1,-6.292435527E-1,-5.426926613E-1
1.238809375E0,-9.705252051E-1,-7.156373262E-1,-5.993809700E-1
1.242776563E0,-9.562833309E-1,-8.052774668E-1,-6.477265954E-1
1.246746875E0,-9.369102120E-1,-9.018465281E-1,-6.844308376E-1
1.250717188E0,-9.198059440E-1,-9.824283719E-1,-7.129669785E-1
1.254689063E0,-9.129293561E-1,-1.026951671E0,-7.295825481E-1
1.258657813E0,-9.161058664E-1,-1.030128241E0,-7.316769361E-1
1.262628125E0,-9.244660139E-1,-9.976825714E-1,-7.165623903E-1
1.266600000E0,-9.352346659E-1,-9.303652048E-1,-6.808704138E-1
1.270570313E0,-9.461778998E-1,-8.428195119E-1,-6.282138228E-1
1.274540625E0,-9.547474384E-1,-7.404559255E-1,-5.578595996E-1
1.278510938E0,-9.566847682E-1,-6.303954720E-1,-4.713261724E-1
1.282481250E0,-9.523738027E-1,-5.223770142E-1,-3.745650947E-1
1.286453125E0,-9.426697493E-1,-4.136604965E-1,-2.764776051E-1
1.290423438E0,-9.308015108E-1,-3.172484934E-1,-1.771160066E-1
1.294393750E0,-9.150761366E-1,-2.367190123E-1,-7.761479169E-2
1.298364063E0,-8.984605670E-1,-1.821600199E-1,8.988445625E-3
1.302334375E0,-8.837474585E-1,-1.528559327E-1,8.262388408E-2
1.306304688E0,-8.702735305E-1,-1.431344450E-1,1.367465407E-1
1.310275000E0,-8.608836532E-1,-1.389631182E-1,1.686162651E-1
1.314246875E0,-8.564854264E-1,-1.389282048E-1,1.865582466E-1
1.318215625E0,-8.532391191E-1,-1.380206347E-1,1.868724078E-1
1.322187500E0,-8.498356938E-1,-1.361182332E-1,1.744456589E-1
1.326157813E0,-8.474271894E-1,-1.354724616E-1,1.545139998E-1
1.330128125E0,-8.447044492E-1,-1.310916841E-1,1.309171468E-1
1.334098438E0,-8.462403417E-1,-1.282991469E-1,1.282118857E-1
1.338068750E0,-8.403585553E-1,-1.030791476E-1,1.232027933E-1
1.342039063E0,-8.178787231E-1,-5.356415361E-2,9.913469851E-2
1.346010938E0,-7.760606408E-1,-5.934119690E-4,6.967354566E-2
1.349981250E0,-7.131066322E-1,3.925245628E-2,4.647811875E-2
1.353951563E0,-5.917887688E-1,4.937536269E-2,2.553416602E-2
1.357921875E0,-3.884055614E-1,2.954842336E-2,1.134464052E-2
1.361892188E0,-1.491209269E-1,2.298598550E-2,3.874630900E-3
1.365862500E0,6.611306965E-2,5.571090803E-2,5.759586347E-4
1.369834375E0,2.124763876E-1,1.431344450E-1,7.679448463E-4
1.373804688E0,2.422342449E-1,2.713114321E-1,1.509709843E-2
1.377773438E0,1.703266799E-1,3.959977627E-1,4.398229718E-2
1.381745313E0,4.506440088E-2,4.901233613E-1,7.817329466E-2
1.385715625E0,-9.445721656E-2,5.423436165E-1,1.053131670E-1
1.389685938E0,-2.240304649E-1,5.648409128E-1,1.191710830E-1
1.393656250E0,-3.424510658E-1,5.669353008E-1,1.215796322E-1
1.397626563E0,-4.351803958E-1,5.507735610E-1,1.131671518E-1
1.401596875E0,-4.887270927E-1,5.125508308E-1,9.276425093E-2
1.405568750E0,-5.111196637E-1,4.495968223E-1,6.230825558E-2
1.409539063E0,-5.136329532E-1,3.633077443E-1,2.410299703E-2
1.413509375E0,-4.980122447E-1,2.532123625E-1,-2.302089334E-2
1.417479688E0,-4.787438214E-1,1.355597228E-1,-6.918485463E-2
1.421450000E0,-4.428598285E-1,9.773843922E-4,-1.102873534E-1
1.425420313E0,-3.883706629E-1,-1.492082030E-1,-1.477944851E-1
1.429392188E0,-3.170914054E-1,-3.100053668E-1,-1.742885858E-1
1.433390625E0,-2.388832122E-1,-4.685161710E-1,-1.935395598E-1
1.437332813E0,-1.534842551E-1,-6.130643487E-1,-2.036799192E-1
1.441303125E0,-6.150540337E-2,-7.350803018E-1,-2.048143893E-1
1.445273438E0,4.160865024E-2,-8.403236866E-1,-1.903805137E-1
1.449243750E0,1.704139411E-1,-9.349379539E-1,-1.572367102E-1
1.453214063E0,3.485248089E-1,-1.011261225E0,-1.082627699E-1
1.457184375E0,4.712214470E-1,-1.005623817E0,-4.312708601E-2
1.461156250E0,5.372123122E-1,-9.276250601E-1,-4.660028964E-3
1.465126563E0,5.641776919E-1,-8.222071528E-1,7.679448463E-4
1.469096875E0,5.684886575E-1,-7.275579572E-1,1.960004680E-2
1.473067188E0,5.718571544E-1,-6.549871564E-1,5.855579674E-2
1.477037500E0,5.844584107E-1,-6.020687819E-1,1.092052534E-1
1.481007813E0,6.041631699E-1,-5.490107536E-1,1.677261442E-1
1.484978125E0,6.335195899E-1,-4.745375812E-1,2.233323306E-1
1.488948438E0,6.751980782E-1,-3.786142766E-1,2.796890140E-1
1.492920313E0,7.295650840E-1,-2.602984011E-1,3.372674286E-1
1.496889063E0,7.940201163E-1,-1.317549050E-1,3.914249837E-1
1.500860938E0,8.582831025E-1,6.248278543E-3,4.365766644E-1
1.504831250E0,9.267698526E-1,1.427853853E-1,4.703138769E-1
1.508801563E0,1.008905053E0,2.566681206E-1,4.953767955E-1
1.512771875E0,1.097655058E0,3.569721878E-1,5.131965876E-1
1.516742188E0,1.193002343E0,4.388106763E-1,5.217661858E-1
1.520714063E0,1.283218384E0,5.099502802E-1,5.214345455E-1
1.524684375E0,1.373137832E0,5.797110796E-1,5.150117278E-1
1.528654688E0,1.474523902E0,6.319313645E-1,5.122715831E-1
1.532625000E0,1.580325842E0,6.765070558E-1,5.199859142E-1
1.536595313E0,1.670524478E0,7.295650840E-1,5.543340445E-1
1.540565625E0,1.722849369E0,7.851887345E-1,6.131341457E-1
1.544537500E0,1.724158406E0,8.708843589E-1,6.953042746E-1
1.548507813E0,1.630381823E0,9.925338626E-1,7.751531005E-1
1.552478125E0,1.426230669E0,1.117447019E0,8.365188837E-1
1.556448438E0,1.152022004E0,1.152772546E0,8.577769399E-1
1.560418750E0,8.407076597E-1,1.084146142E0,8.499055505E-1
1.564389063E0,5.198113918E-1,9.401390553E-1,8.321904540E-1
1.568359375E0,2.104168981E-1,7.464773059E-1,8.013679385E-1
1.572329688E0,-7.499679923E-2,5.283460617E-1,7.534586191E-1
1.576300000E0,-2.945941091E-1,3.093596101E-1,6.949028373E-1
1.580271875E0,-4.442910254E-1,9.396852553E-2,6.305351257E-1
1.584242188E0,-5.355193615E-1,-1.099557430E-1,5.663593411E-1
1.588210938E0,-5.794667602E-1,-2.817485034E-1,5.140692592E-1
1.592182813E0,-5.942322612E-1,-4.339063168E-1,4.746946394E-1
1.596153125E0,-5.857325196E-1,-5.593605638E-1,4.459141791E-1
1.600123438E0,-5.610709786E-1,-6.592108607E-1,4.263664782E-1
1.604095313E0,-5.291838050E-1,-7.261965871E-1,4.170638621E-1
1.608065625E0,-4.934918582E-1,-7.690967917E-1,4.173431396E-1
1.612035938E0,-4.536285102E-1,-7.863057256E-1,4.232946932E-1
1.616006250E0,-4.152138233E-1,-7.707897425E-1,4.347789586E-1
1.619976563E0,-3.773576319E-1,-7.223219872E-1,4.540299475E-1
1.623946875E0,-3.400948644E-1,-6.369928122E-1,4.867374301E-1
1.627917188E0,-2.989400029E-1,-5.397256017E-1,5.288347602E-1
1.631887500E0,-1.002342552E-1,-6.743254066E-1,6.068859100E-1
1.635857813E0,3.855432272E-1,-9.743126035E-1,6.752678752E-1
1.639829688E0,8.391543031E-1,-9.599834681E-1,6.834360361E-1
1.643800000E0,1.147536516E0,-7.133160830E-1,6.519677639E-1
1.647770313E0,1.292451262E0,-3.504272103E-1,6.152634621E-1
1.651740625E0,1.299816489E0,2.106612362E-2,6.016150117E-1
1.655710938E0,1.202095509E0,2.885727286E-1,6.266081333E-1
1.659681250E0,1.001906276E0,4.813618064E-1,6.875550151E-1
1.663653125E0,7.241021991E-1,6.625793576E-1,7.583455443E-1
1.667623438E0,4.011988342E-1,8.417199254E-1,8.456294537E-1
1.671593750E0,5.972516537E-2,1.040966749E0,9.156869650E-1
1.675564063E0,-2.512924969E-1,1.163785577E0,9.457241297E-1
1.679534375E0,-4.880813360E-1,1.229968429E0,9.243612885E-1
1.683504688E0,-6.401693225E-1,1.250545859E0,8.501673341E-1
1.687476563E0,-7.060031295E-1,1.197802067E0,7.439989448E-1
1.691445313E0,-7.014827132E-1,1.085350394E0,6.423160434E-1
1.695417188E0,-6.375164390E-1,9.297892451E-1,5.385736823E-1
1.699387500E0,-5.434082747E-1,7.733030319E-1,4.321609735E-1
1.703357813E0,-4.323354959E-1,6.038315296E-1,3.178942800E-1
1.707328125E0,-3.273364902E-1,4.390550256E-1,2.010968328E-1
1.711298438E0,-2.329490930E-1,2.772804499E-1,7.744026184E-2
1.715268750E0,-1.527861208E-1,1.255240738E-1,-3.248057887E-2
1.719240625E0,-1.155931577E-1,3.169517964E-2,-1.097812131E-1
1.723210938E0,-1.143714264E-1,-2.907718532E-2,-1.579173952E-1
1.727181250E0,-1.151219159E-1,-9.224065393E-2,-1.936442852E-1
1.731151563E0,-1.160643920E-1,-1.341460049E-1,-2.243097126E-1
1.735121875E0,-1.182635128E-1,-1.536413282E-1,-2.515892088E-1
1.739092188E0,-1.204975322E-1,-1.521054506E-1,-2.702991366E-1
1.743062500E0,-1.213876456E-1,-1.376890242E-1,-2.849424481E-1
1.747032813E0,-1.079486161E-1,-1.298524886E-1,-2.883283794E-1
1.751003125E0,-8.108799905E-2,-1.335351467E-1,-2.768790424E-1
1.754975000E0,-4.188790172E-2,-1.382649839E-1,-2.559700012E-1
1.758945313E0,7.173303049E-3,-1.322785020E-1,-2.261248529E-1
1.762915625E0,5.518731102E-2,-1.159771308E-1,-1.933650225E-1
1.766885938E0,1.030965969E-1,-9.079203010E-2,-1.578475833E-1
1.770856250E0,1.473407000E-1,-5.668829381E-2,-1.215098202E-1
1.774826563E0,1.835737228E-1,-1.242674422E-2,-9.231046587E-2
1.778798438E0,2.151467353E-1,3.825761750E-2,-7.127925009E-2
1.782768750E0,2.363350391E-1,8.609709144E-2,-5.918411538E-2
1.786739063E0,2.496693432E-1,1.339365691E-1,-5.377359316E-2
1.790709375E0,2.561619878E-1,1.878148764E-1,-5.251695588E-2
1.794679688E0,2.629687488E-1,2.429672778E-1,-5.745624006E-2
1.798650000E0,2.670004666E-1,2.885203660E-1,-7.108726352E-2
1.802621875E0,2.715208828E-1,3.187494874E-1,-9.419541806E-2
1.806590625E0,2.764601409E-1,3.382273614E-1,-1.229759008E-1
1.810562500E0,2.833192945E-1,3.505319357E-1,-1.587726027E-1
1.814532813E0,2.914176285E-1,3.558377326E-1,-1.932428479E-1
1.818503125E0,3.030240536E-1,3.579670191E-1,-2.200162113E-1
1.822473438E0,3.204948008E-1,3.628888428E-1,-2.318146378E-1
1.826443750E0,3.410024345E-1,3.685437143E-1,-2.372775078E-1
1.830414063E0,3.599043489E-1,3.758741021E-1,-2.451664060E-1
1.834384375E0,3.776368797E-1,3.871314824E-1,-2.603332996E-1
1.838356250E0,3.923325539E-1,3.926292658E-1,-2.814343274E-1
1.842326563E0,4.036946595E-1,3.906046748E-1,-3.030589819E-1
1.846296875E0,4.146378636E-1,3.948632777E-1,-3.204424381E-1
1.850267188E0,4.272740483E-1,4.149520397E-1,-3.320488930E-1
1.854237500E0,4.403465688E-1,4.405210912E-1,-3.383844197E-1
1.858209375E0,4.555134773E-1,4.604527652E-1,-3.418401778E-1
1.862179688E0,4.728446007E-1,4.733158350E-1,-3.412467837E-1
1.866148438E0,4.943645000E-1,4.799655378E-1,-3.356617093E-1
1.870120313E0,5.236162543E-1,4.871214032E-1,-3.283313513E-1
1.874090625E0,5.572836399E-1,4.965112507E-1,-3.193428814E-1
1.878060938E0,5.942147970E-1,5.132664442E-1,-3.064798117E-1
1.882031250E0,6.262939572E-1,5.305801034E-1,-2.873161137E-1
1.886001563E0,6.476044059E-1,5.426228642E-1,-2.573313415E-1
1.889971875E0,6.584254503E-1,5.540373325E-1,-2.210634053E-1
1.893943750E0,6.582509279E-1,5.607917309E-1,-1.859997362E-1
1.897914063E0,6.469062567E-1,5.655564666E-1,-1.550375968E-1
1.901884375E0,6.275331378E-1,5.728170872E-1,-1.313011199E-1
1.905854688E0,6.096783876E-1,5.810201168E-1,-1.154709831E-1
1.909825000E0,5.914746523E-1,5.869367719E-1,-1.039867178E-1
1.913795313E0,5.725727081E-1,5.854706764E-1,-9.662142396E-2
1.917767188E0,5.566727519E-1,5.744053125E-1,-9.079203010E-2
1.921737500E0,5.427275896E-1,5.557128191E-1,-8.730136603E-2
1.925707813E0,5.377184749E-1,5.332155228E-1,-8.941321820E-2
1.929678125E0,5.379453897E-1,5.077860951E-1,-9.552186728E-2
1.933648438E0,5.399525166E-1,4.817283154E-1,-1.069014147E-1
1.937618750E0,5.392718315E-1,4.616919458E-1,-1.211607531E-1
1.941589063E0,5.393940210E-1,4.400847554E-1,-1.409876943E-1
1.945559375E0,5.526759624E-1,3.892956972E-1,-1.607622802E-1
1.949531250E0,5.596223474E-1,3.385240734E-1,-1.734682769E-1
1.953501563E0,5.505990386E-1,3.039141893E-1,-1.785646379E-1
1.957471875E0,5.318192840E-1,2.858500183E-1,-1.895253062E-1
1.961442188E0,5.115734339E-1,2.820452154E-1,-2.050238252E-1
1.965412500E0,4.796513915E-1,3.088883758E-1,-2.078861594E-1
1.969382813E0,4.362624884E-1,3.741462231E-1,-1.814095229E-1
1.973353125E0,3.984237611E-1,4.510977864E-1,-1.320341527E-1
1.977325000E0,3.741113245E-1,5.195146799E-1,-7.278022915E-2
1.981295313E0,3.617543876E-1,5.689424276E-1,-1.247910410E-2
1.985265625E0,3.585255444E-1,6.071302295E-1,3.502875939E-2
1.989235938E0,3.577052355E-1,6.345493793E-1,6.576400250E-2
1.993206250E0,3.582462668E-1,6.693512201E-1,9.093165398E-2
1.997176563E0,3.564311266E-1,7.197039723E-1,1.045975834E-1
2.001146875E0,3.427303135E-1,7.473325133E-1,8.726646006E-2
2.005117188E0,3.016801476E-1,7.037167549E-1,2.492330223E-2
2.009089063E0,2.080781460E-1,5.262167454E-1,-5.939355493E-2
2.013059375E0,6.763150543E-2,2.388483137E-1,-1.257858723E-1
2.017051563E0,-9.285151958E-2,-1.024333760E-1,-2.004336119E-1
2.021000000E0,-2.033483088E-1,-3.327295780E-1,-2.829876840E-1
2.024970313E0,-2.783102095E-1,-4.926191866E-1,-3.560297191E-1
2.028940625E0,-3.579146564E-1,-6.249849200E-1,-3.860842884E-1
2.032912500E0,-4.303283691E-1,-6.930876970E-1,-3.813893497E-1
2.036882813E0,-4.842765033E-1,-7.070503235E-1,-3.532371819E-1
2.040853125E0,-5.278224945E-1,-6.974161267E-1,-3.053977191E-1
2.044823438E0,-5.663070083E-1,-6.714106798E-1,-2.582563758E-1
2.048793750E0,-6.064146757E-1,-6.146875024E-1,-2.238384783E-1
2.052764063E0,-6.487737894E-1,-5.326046944E-1,-2.034181207E-1
2.056734375E0,-6.950598955E-1,-4.438546896E-1,-1.907295734E-1
2.060704688E0,-7.465645671E-1,-3.791553378E-1,-1.832072139E-1
2.064675000E0,-7.992735505E-1,-3.407755494E-1,-1.842544079E-1
2.068646875E0,-8.572883010E-1,-3.146828711E-1,-1.899441779E-1
2.072617188E0,-9.232791662E-1,-2.875429988E-1,-2.079908848E-1
2.076587500E0,-9.949772954E-1,-2.579073012E-1,-2.435257882E-1
2.080557813E0,-1.061997890E0,-2.313433886E-1,-3.053104579E-1
2.084528125E0,-1.124498129E0,-2.216917276E-1,-3.997327685E-1
2.088498438E0,-1.183228493E0,-2.243097126E-1,-5.167745352E-1
2.092468750E0,-1.244733930E0,-2.009921223E-1,-6.502224207E-1
2.096440625E0,-1.315297604E0,-1.397659630E-1,-8.108974099E-1
2.100410938E0,-1.369245648E0,-6.960373372E-2,-9.742951393E-1
2.104381250E0,-1.373417020E0,2.014109865E-2,-1.097480536E0
2.108351563E0,-1.322401047E0,1.470963508E-1,-1.142736912E0
2.112321875E0,-1.242674470E0,2.928662598E-1,-1.119715929E0
2.116292188E0,-1.171430111E0,4.400149584E-1,-1.066256523E0
2.120262500E0,-1.122299075E0,5.479112267E-1,-1.007910132E0
2.124234375E0,-1.064214468E0,6.562787294E-1,-9.563880563E-1
2.128204688E0,-9.856921434E-1,7.471929193E-1,-9.092642069E-1
2.132175000E0,-8.916189075E-1,7.940724492E-1,-8.626464605E-1
2.136145313E0,-7.701614499E-1,8.205839992E-1,-8.258025050E-1
2.140115625E0,-6.144431829E-1,7.899360061E-1,-7.963238955E-1
2.144085938E0,-4.645368457E-1,6.935589314E-1,-7.702661753E-1
2.148056250E0,-3.242647350E-1,5.717349648E-1,-7.493221760E-1
2.152026563E0,-1.910786480E-1,4.518657327E-1,-7.389025688E-1
2.155998438E0,-5.714207888E-2,3.374070525E-1,-7.297046781E-1
2.159968750E0,5.693263933E-2,2.045351416E-1,-7.274532318E-1
2.163939063E0,1.392947286E-1,5.384340882E-2,-7.422012687E-1
2.167909375E0,1.813571602E-1,-7.408922911E-2,-8.072845936E-1
2.171879688E0,1.908342987E-1,-1.701696068E-1,-9.019512534E-1
2.175851563E0,1.457873583E-1,-3.169692457E-1,-1.014716983E0
2.179821875E0,1.492256485E-2,-6.352126002E-1,-1.121059895E0
2.183792188E0,-1.188743785E-1,-8.613723516E-1,-1.208745241E0
2.187762500E0,-2.489363104E-1,-1.066291451E0,-1.223981977E0
2.191732813E0,-3.545287251E-1,-1.301858544E0,-1.176561356E0
2.195703125E0,-3.915820718E-1,-1.438360691E0,-1.083674908E0
2.199673438E0,-3.574259877E-1,-1.410906672E0,-9.580112100E-1
2.203643750E0,-2.723062634E-1,-1.273252606E0,-8.032528758E-1
2.207615625E0,-1.462585926E-1,-1.094932318E0,-6.439915895E-1
2.211584375E0,4.904375412E-3,-9.132784605E-1,-4.946961105E-1
2.215556250E0,1.690351367E-1,-7.207337022E-1,-3.457148075E-1
2.219526563E0,3.188367486E-1,-5.478413701E-1,-2.062804699E-1
2.223496875E0,4.342379272E-1,-4.137826562E-1,-7.061602175E-2
2.227467188E0,5.179264545E-1,-3.281044364E-1,5.611233413E-2
2.231437500E0,5.754001737E-1,-2.747497261E-1,1.795071065E-1
2.235407813E0,6.025923491E-1,-2.632479966E-1,3.043679595E-1
2.239378125E0,6.027669311E-1,-2.911034524E-1,4.252843857E-1
2.243350000E0,5.791525841E-1,-3.438822329E-1,5.468640327E-1
2.247320313E0,5.427275896E-1,-3.867126107E-1,6.665936112E-1
2.251290625E0,5.026722550E-1,-4.063126445E-1,7.775965333E-1
2.255260938E0,4.573111832E-1,-4.058588743E-1,8.885820508E-1
2.259231250E0,4.067838788E-1,-3.942698836E-1,9.965655208E-1
2.263201563E0,3.611086309E-1,-3.760486245E-1,1.107638240E0
2.267173438E0,3.162187636E-1,-3.719994724E-1,1.215028405E0
2.271142188E0,2.681000233E-1,-4.225442111E-1,1.317112684E0
2.275114063E0,2.209063172E-1,-4.979773462E-1,1.422425866E0
2.279084375E0,1.834864616E-1,-5.929581523E-1,1.507562995E0
2.283054688E0,1.496096253E-1,-7.227932215E-1,1.575089812E0
2.287025000E0,1.400277615E-1,-8.115431666E-1,1.612282753E0
2.290995313E0,1.431169957E-1,-9.023875594E-1,1.633680582E0
2.294967188E0,1.489114910E-1,-9.999689460E-1,1.650557876E0
2.298937500E0,1.496270746E-1,-1.108179331E0,1.665794611E0
2.302907813E0,2.214997411E-1,-1.111739874E0,1.659249663E0
2.306878125E0,3.875154555E-1,-1.033723593E0,1.613940835E0
2.310848438E0,5.926963687E-1,-1.003110528E0,1.508488059E0
2.314818750E0,7.061776519E-1,-9.434900880E-1,1.254158735E0
2.318789063E0,7.166147232E-1,-7.469485402E-1,1.066797614E0
2.322760938E0,7.233865857E-1,-3.412118554E-1,1.131409645E0
2.326731250E0,6.258750558E-1,3.849149048E-1,1.299799085E0
2.330701563E0,3.518234789E-1,1.246479273E0,1.579819679E0
2.334671875E0,7.606144994E-2,1.830099940E0,1.825963497E0
2.338642188E0,-1.526639462E-1,1.953512073E0,1.915010214E0
2.342612500E0,-3.375117779E-1,1.659109950E0,1.724856496E0
2.346582813E0,-4.875228107E-1,1.195341110E0,1.312260747E0
2.350553125E0,-5.597969294E-1,6.403961778E-1,7.975107431E-1
2.354525000E0,-5.531646609E-1,2.460914291E-2,2.869844735E-1
2.358495313E0,-4.921304882E-1,-5.474225283E-1,-1.182111502E-1
2.362465625E0,-3.981794119E-1,-1.021157265E0,-3.985633850E-1
2.366435938E0,-2.928487957E-1,-1.350099444E0,-5.452234149E-1
2.370406250E0,-1.943249553E-1,-1.540916324E0,-5.808804631E-1
2.374376563E0,-1.007229537E-1,-1.611008763E0,-5.377534032E-1
2.378346875E0,-1.507964451E-2,-1.566502810E0,-4.464028478E-1
2.382318750E0,4.895648360E-2,-1.447035074E0,-3.404962718E-1
2.386289063E0,9.546951205E-2,-1.290217161E0,-2.373298705E-1
2.390257813E0,1.124341115E-1,-1.100988626E0,-1.436929554E-1
2.394229688E0,9.848892689E-2,-8.884947300E-1,-7.068583369E-2
2.398200000E0,5.361651629E-2,-6.625968218E-1,-2.799508162E-2
2.402170313E0,-5.253441166E-3,-4.320911467E-1,-4.537856206E-3
2.406142188E0,-5.101597309E-2,-1.755277663E-1,2.591813914E-2
2.410110938E0,-7.213445753E-2,8.511970937E-2,6.248278543E-2
2.414082813E0,-6.681120396E-2,3.220830560E-1,8.482300490E-2
2.418053125E0,-4.162610322E-2,5.009793043E-1,8.344419301E-2
2.422023438E0,-8.395033889E-3,5.943195224E-1,5.267403647E-2
2.426021875E0,1.593485661E-2,5.987875462E-1,2.949606394E-3
2.429964063E0,1.926843449E-2,5.306673646E-1,-5.850343779E-2
2.433934375E0,-3.316125600E-3,4.082674086E-1,-1.171290427E-1
2.437906250E0,-4.038691893E-2,2.637541592E-1,-1.671850830E-1
2.441876563E0,-8.333947510E-2,1.173210293E-1,-2.136632055E-1
2.445846875E0,-1.247910410E-1,-1.747074537E-2,-2.638414204E-1
2.449817188E0,-1.581791937E-1,-1.305855364E-1,-3.217863441E-1
2.453787500E0,-1.893333197E-1,-2.287603021E-1,-3.834139407E-1
2.457757813E0,-2.081479728E-1,-2.987480164E-1,-4.488637745E-1
2.461728125E0,-2.086890191E-1,-3.482804596E-1,-5.101946592E-1
2.465700000E0,-1.937664598E-1,-3.834837377E-1,-5.568996668E-1
2.469668750E0,-1.623330712E-1,-4.003610611E-1,-5.885075927E-1
2.473640625E0,-1.154535264E-1,-3.952647150E-1,-5.994507670E-1
2.477610938E0,-5.672319978E-2,-3.715107739E-1,-5.875650644E-1
2.481581250E0,9.791296907E-3,-3.288723826E-1,-5.513320565E-1
2.485551563E0,8.115781099E-2,-2.667386830E-1,-4.890761673E-1
2.489521875E0,1.504997462E-1,-1.931905001E-1,-4.016177058E-1
2.493492188E0,2.152689099E-1,-1.030965969E-1,-2.974041104E-1
2.497464063E0,2.724982500E-1,-3.063052893E-2,-1.658935398E-1
2.501434375E0,2.812947035E-1,-9.478883445E-2,1.781981252E-2
2.505404688E0,2.486395985E-1,-1.963320822E-1,2.146056890E-1
2.509375000E0,2.075370997E-1,-1.430820972E-1,4.317072034E-1
2.513345313E0,1.240056455E-1,-1.591740362E-2,6.508856416E-1
2.517315625E0,-5.993460491E-2,8.510225266E-2,8.418595791E-1
2.521285938E0,-2.127730846E-1,2.380454540E-1,9.904568791E-1
2.525256250E0,-2.844537497E-1,3.369881809E-1,1.107010007E0
2.529226563E0,-3.178419173E-1,3.869394958E-1,1.159858584E0
2.533198438E0,-3.345272541E-1,4.230329096E-1,1.164570928E0
2.537168750E0,-3.450341523E-1,3.906396031E-1,1.146803498E0
2.541139063E0,-3.530277610E-1,2.671924531E-1,1.119140029E0
2.545109375E0,-3.615972996E-1,9.557422996E-2,1.087235451E0
2.549079688E0,-3.639883995E-1,-9.133307636E-2,1.044736624E0
2.553050000E0,-3.552966714E-1,-2.575058639E-1,9.829519987E-1
2.557021875E0,-3.341956437E-1,-3.721914589E-1,8.968723416E-1
2.560992188E0,-3.014532626E-1,-4.290717542E-1,7.747516632E-1
2.564962500E0,-2.575407922E-1,-4.103443623E-1,6.151238680E-1
2.568932813E0,-2.098060250E-1,-3.371103406E-1,4.387408793E-1
2.572903125E0,-1.589645892E-1,-2.244842499E-1,2.815041542E-1
2.576873438E0,-1.035852879E-1,-1.043183282E-1,1.429424584E-1
2.580843750E0,-4.591961205E-2,-5.811946467E-3,3.499384969E-2
2.584815625E0,9.581857361E-3,5.942846090E-2,-4.879940674E-2
2.588784375E0,6.065019220E-2,9.332275391E-2,-1.107236892E-1
2.592756250E0,1.084198505E-1,9.731955826E-2,-1.383173466E-1
2.596726563E0,1.494874507E-1,8.796459436E-2,-1.363102198E-1
2.600696875E0,1.796292812E-1,8.248426020E-2,-1.195026934E-1
2.604667188E0,1.953198016E-1,8.873254061E-2,-9.976302087E-2
2.608637500E0,1.971349418E-1,1.075297371E-1,-8.168140799E-2
2.612609375E0,1.888795346E-1,1.326101124E-1,-6.356488913E-2
2.616579688E0,1.728748679E-1,1.483529806E-1,-4.468042776E-2
2.620550000E0,1.492954642E-1,1.449321359E-1,-2.321287990E-2
2.624520313E0,1.204102635E-1,1.222254038E-1,-5.270894151E-3
2.628490625E0,8.862782270E-2,8.482300490E-2,1.129228063E-2
2.632460938E0,5.490805954E-2,3.637266159E-2,2.028072625E-2
2.636432813E0,2.038544603E-2,-1.115265395E-2,2.293362655E-2
2.640401563E0,-1.209513191E-2,-5.234242231E-2,2.345722541E-2
2.644373438E0,-3.953170776E-2,-8.789478242E-2,2.436479554E-2
2.648343750E0,-6.113888323E-2,-1.150870100E-1,2.623229846E-2
2.652314063E0,-7.806857675E-2,-1.327148378E-1,2.837905288E-2
2.656284375E0,-9.000662714E-2,-1.374621242E-1,3.316125646E-2
2.660254688E0,-9.613273293E-2,-1.280024499E-1,3.621558100E-2
2.664226563E0,-9.471901506E-2,-1.088387296E-1,3.701843321E-2
2.668195313E0,-8.712683618E-2,-8.065166324E-2,3.420845419E-2
2.672167188E0,-7.566002011E-2,-4.619886354E-2,2.836159989E-2
2.676137500E0,-6.122614816E-2,-1.207767799E-2,2.052507177E-2
2.680107813E0,-4.646066576E-2,2.029817924E-2,1.064650808E-2
2.684078125E0,-2.953097038E-2,4.799655452E-2,1.134464052E-3
2.688048438E0,-1.396263391E-2,6.998769939E-2,-8.691739291E-3
2.692018750E0,1.954768784E-3,8.609709144E-2,-1.548107062E-2
2.695990625E0,1.576032303E-2,9.391617030E-2,-2.131047100E-2
2.699960938E0,2.658136375E-2,9.489355236E-2,-2.509783395E-2
2.703931250E0,3.466223925E-2,8.779006451E-2,-2.548180707E-2
2.707901563E0,3.483677283E-2,7.087782025E-2,-2.270673402E-2
2.711871875E0,2.974040993E-2,4.628613219E-2,-1.569050923E-2
2.715842188E0,2.225294709E-2,1.715658605E-2,-8.272860199E-3
2.719814063E0,1.141445339E-2,-1.513200440E-2,-1.658062800E-3
2.723782813E0,6.108652451E-4,-4.146902263E-2,3.193952609E-3
2.727753125E0,-9.128072299E-3,-6.368706375E-2,8.831365965E-3
2.731725000E0,-1.406735368E-2,-7.927285135E-2,1.315978263E-2
2.735695313E0,-1.521927118E-2,-8.663814515E-2,1.865756884E-2
2.739665625E0,-1.310742274E-2,-8.600982279E-2,2.069960535E-2
2.743635938E0,-8.779006079E-3,-8.161159605E-2,2.378883772E-2
2.747606250E0,-3.735004691E-3,-7.520623505E-2,2.563888580E-2
2.751576563E0,-4.712388909E-4,-6.555456668E-2,2.612757869E-2
2.755548438E0,1.256637042E-3,-5.506513640E-2,2.460914291E-2
2.759518750E0,2.932153177E-3,-4.539601505E-2,2.132792398E-2
2.763489063E0,3.508111695E-3,-3.504621238E-2,2.108357660E-2
2.767459375E0,2.600540640E-3,-2.633701824E-2,1.937315427E-2
2.771429688E0,1.623156248E-3,-2.073451132E-2,1.891936921E-2
2.775400000E0,-1.169370604E-3,-1.492256485E-2,1.820378378E-2
2.779370313E0,-5.532693584E-3,-1.054178830E-2,1.801179722E-2
2.783342188E0,-8.307767101E-3,-7.452555932E-3,1.916371472E-2
2.787312500E0,-1.219985168E-2,-5.131267942E-3,2.052507177E-2
2.791282813E0,-1.502728462E-2,-4.677482415E-3,2.178170905E-2
2.795253125E0,-1.832595654E-2,-7.120943163E-3,2.195624262E-2
2.799223438E0,-1.722639985E-2,-7.609635592E-3,2.380629070E-2
2.803193750E0,-1.588249579E-2,-9.686577134E-3,2.459168993E-2
2.807164063E0,-1.417207345E-2,-1.113520097E-2,2.555162087E-2
2.811135938E0,-1.103048120E-2,-1.302015595E-2,2.490584925E-2
2.815106250E0,-8.080874570E-3,-1.411971357E-2,2.518510073E-2
2.819076563E0,-4.764748737E-3,-1.410226058E-2,2.631956525E-2
2.823046875E0,-3.001966281E-3,-1.635373570E-2,2.448697016E-2
2.827017188E0,-2.687806962E-3,-2.131047100E-2,2.296853252E-2
2.830987500E0,-2.303834539E-3,-2.619739249E-2,2.122320421E-2
2.834957813E0,-1.605702913E-3,-3.035127558E-2,2.029817924E-2
2.838928125E0,-1.727875904E-3,-3.277728334E-2,1.977458037E-2
2.842898438E0,-2.199114766E-3,-3.387684003E-2,1.886700839E-2
2.846868750E0,-8.377580671E-4,-3.279473633E-2,1.968731359E-2
2.850840625E0,1.937315450E-3,-3.206169978E-2,2.005383372E-2
2.854810938E0,3.543018363E-3,-3.097959422E-2,1.865756884E-2
2.858781250E0,4.433136433E-3,-2.947861142E-2,1.722639985E-2
2.862751563E0,2.094394993E-3,-2.804744057E-2,1.520181727E-2
2.866721875E0,3.141592722E-3,-2.675589733E-2,1.513200440E-2
2.870693750E0,1.448623254E-3,-2.733185515E-2,1.420698036E-2
2.874664063E0,2.373647876E-3,-2.672099136E-2,1.411971357E-2
2.878634375E0,3.368485486E-3,-2.565634064E-2,1.242674422E-2
2.882604688E0,1.675516134E-3,-2.298598550E-2,1.228711754E-2
2.886575000E0,4.712388909E-4,-1.972221956E-2,1.136209350E-2
2.890545313E0,-1.221730490E-4,-1.766273193E-2,1.171115879E-2
2.894517188E0,-1.780235791E-3,-1.457349956E-2,1.045452245E-2
2.898485938E0,-4.171337001E-3,-1.000073645E-2,1.103048120E-2
2.902457813E0,-6.457718089E-3,-5.654866807E-3,1.282817032E-2
2.906428125E0,-8.552113548E-3,-2.705260413E-3,1.466076542E-2
2.910398438E0,-1.211258490E-2,1.570796303E-4,1.617920212E-2
2.914368750E0,-1.289798319E-2,1.361356815E-3,1.914626174E-2
2.918339063E0,-1.549852360E-2,7.504915702E-4,2.082177810E-2
2.922309375E0,-1.558579039E-2,-2.792526793E-4,2.125811018E-2
2.926279688E0,-1.424188633E-2,-3.420845373E-3,2.256710641E-2
2.930251563E0,-1.270599663E-2,-4.537856206E-3,2.246238664E-2
2.934221875E0,-1.078613475E-2,-6.178465672E-3,2.394591644E-2
2.938192188E0,-8.482299745E-3,-7.208209950E-3,2.387610450E-2
2.942162500E0,-6.073745899E-3,-7.487462368E-3,2.356194519E-2
2.946132813E0,-1.675516134E-3,-6.492624991E-3,2.363175713E-2
2.950104688E0,5.235987919E-5,-5.340707488E-3,2.228785492E-2
2.954075000E0,3.211405827E-3,-5.934119225E-3,2.059488557E-2
2.958045313E0,6.894050632E-3,-6.702064537E-3,1.909390278E-2
2.962015625E0,9.372417815E-3,-6.754423957E-3,1.689478755E-2
2.965985938E0,1.061160211E-2,-6.300638430E-3,1.602212340E-2
2.969956250E0,1.319468953E-2,-5.427973811E-3,1.534144394E-2
2.973926563E0,1.431170013E-2,-5.969026126E-3,1.455604564E-2
2.977896875E0,1.672025397E-2,-4.153883550E-3,1.254891697E-2
2.981867188E0,1.764527895E-2,-3.071779385E-3,1.216494478E-2
2.985837500E0,1.638864167E-2,-2.932153177E-3,1.132718660E-2
2.989809375E0,1.363102160E-2,-1.692969352E-3,1.291543618E-2
2.993779688E0,1.127482671E-2,-2.583087189E-3,1.226966456E-2
2.997750000E0,8.255407214E-3,-5.375613924E-3,1.225221157E-2
3.001720313E0,3.700098023E-3,-9.407324716E-3,1.195550524E-2
3.005690625E0,-1.692969352E-3,-1.513200440E-2,1.186823845E-2
3.009660938E0,-5.654866807E-3,-1.902408898E-2,1.260127686E-2
3.013632813E0,-8.203047328E-3,-2.366666496E-2,1.384046115E-2
3.017601563E0,-9.459684603E-3,-2.396337129E-2,1.507964451E-2
3.021573438E0,-9.040805511E-3,-2.239257470E-2,1.614429615E-2
3.025543750E0,-8.936085738E-3,-2.151990868E-2,1.703441329E-2
3.029514063E0,-6.335545331E-3,-1.858775690E-2,1.846558414E-2
3.033485938E0,-6.876597181E-3,-1.947787404E-2,2.049016580E-2
3.037454688E0,-6.702064537E-3,-2.165953629E-2,2.087413706E-2
3.041425000E0,-7.574729156E-3,-2.525491454E-2,2.141519077E-2
3.045396875E0,-8.848818950E-3,-2.799508162E-2,2.277654596E-2
3.049367188E0,-1.113520097E-2,-3.216641769E-2,2.282890677E-2
3.053337500E0,-1.279326342E-2,-3.595378250E-2,2.207841538E-2
3.057307813E0,-1.382300723E-2,-3.860668465E-2,2.279400080E-2
3.061278125E0,-1.349139493E-2,-3.885103017E-2,2.373647690E-2
3.065248438E0,-1.295034308E-2,-3.710569814E-2,2.232276089E-2
3.069220313E0,-1.401499379E-2,-3.469714522E-2,1.984439418E-2
3.073190625E0,-1.429424621E-2,-3.120648675E-2,1.754055917E-2
3.077159375E0,-1.406735368E-2,-2.818706818E-2,1.574287005E-2
3.081131250E0,-1.445132587E-2,-2.483603545E-2,1.391027402E-2
3.085101563E0,-1.530653704E-2,-2.035053819E-2,1.193805225E-2
3.089071875E0,-1.659808122E-2,-1.799434423E-2,9.459684603E-3
3.093043750E0,-1.570796408E-2,-1.495747175E-2,8.203047328E-3
3.097012500E0,-1.593485661E-2,-1.296779606E-2,7.278022822E-3
3.100984375E0,-1.555088349E-2,-8.970992640E-3,6.283185445E-3
3.104954688E0,-1.544616371E-2,-7.644542027E-3,4.380776547E-3
3.108925000E0,-1.556833647E-2,-4.729842301E-3,4.625122529E-3
3.112895313E0,-1.410226058E-2,-2.914699726E-3,4.991641734E-3
3.116865625E0,-1.324704941E-2,-1.989675453E-3,4.782202188E-3
3.120835938E0,-1.319468953E-2,-9.948377265E-4,5.480333697E-3
3.124806250E0,-1.242674422E-2,-1.396263397E-4,5.969026126E-3
3.128778125E0,-1.237438433E-2,-6.981316983E-5,8.203047328E-3
3.132748438E0,-1.219985168E-2,8.726646047E-5,1.059414819E-2
3.136718750E0,-1.171115879E-2,1.029744279E-3,1.136209350E-2
3.140689063E0,-1.068141498E-2,2.338741207E-3,1.232202444E-2
3.144659375E0,-1.040216256E-2,2.513274085E-3,1.302015595E-2
3.148629688E0,-9.599311277E-3,3.316125600E-3,1.425934024E-2
3.152600000E0,-7.871435024E-3,2.792526735E-3,1.548107062E-2
3.156570313E0,-8.918632753E-3,3.839724232E-4,1.595230959E-2
3.160542188E0,-9.494591504E-3,-8.726646047E-5,1.682497375E-2
3.164512500E0,-1.026253588E-2,-3.211405827E-3,1.645845547E-2
3.168482813E0,-1.000073645E-2,-5.096361507E-3,1.530653704E-2
3.172453125E0,-1.038470864E-2,-7.976154797E-3,1.439896598E-2
3.176423438E0,-9.285151958E-3,-1.113520097E-2,1.340412907E-2
3.180393750E0,-7.487462368E-3,-1.286307629E-2,1.270599663E-2
3.184364063E0,-6.562437862E-3,-1.513200440E-2,1.206022501E-2
3.188335938E0,-4.677482415E-3,-1.586504281E-2,1.054178830E-2
3.192306250E0,-4.625122529E-3,-1.621410809E-2,8.796459064E-3
3.196276563E0,-4.171337001E-3,-1.434660610E-2,7.888888009E-3
3.200246875E0,-3.298672382E-3,-1.129228063E-2,7.051130291E-3
3.204217188E0,-3.211405827E-3,-8.691739291E-3,6.527531426E-3
3.208189063E0,-3.944444004E-3,-5.759586580E-3,5.637413356E-3
3.212159375E0,-5.794493016E-3,-1.239183708E-3,5.253441166E-3
3.216128125E0,-7.941247895E-3,4.450589418E-3,4.555309191E-3
3.220100000E0,-8.045967668E-3,1.000073645E-2,4.520402756E-3
3.224070313E0,-8.220500313E-3,1.640609466E-2,3.909537569E-3
3.228040625E0,-8.115780540E-3,2.110103145E-2,4.956734832E-3
3.232010938E0,-7.627088577E-3,2.323033288E-2,5.375613924E-3
3.235981250E0,-7.819075137E-3,2.408554405E-2,6.248278543E-3
3.239951563E0,-8.307767101E-3,2.204350755E-2,6.161012221E-3
3.243921875E0,-9.494591504E-3,1.729621366E-2,8.098327555E-3
3.247893750E0,-1.085594762E-2,1.153662615E-2,9.512044489E-3
3.251864063E0,-1.151917316E-2,4.468042869E-3,1.017526910E-2
3.255834375E0,-1.228711754E-2,-1.867502346E-3,1.275835652E-2
3.259804688E0,-1.368338149E-2,-7.592182141E-3,1.432915311E-2
3.263775000E0,-1.466076542E-2,-1.270599663E-2,1.670280099E-2
3.267746875E0,-1.431170013E-2,-1.507964451E-2,1.853539608E-2
3.271717188E0,-1.436406001E-2,-1.825614460E-2,1.914626174E-2
3.275687500E0,-1.288053021E-2,-2.104867063E-2,2.038544603E-2
3.279657813E0,-1.188569237E-2,-2.328269184E-2,1.888446324E-2
3.283628125E0,-1.103048120E-2,-2.356194519E-2,1.698205434E-2
3.287598438E0,-1.080358773E-2,-2.499311417E-2,1.453859266E-2
3.291568750E0,-1.134464052E-2,-2.415535599E-2,1.314232964E-2
3.295539063E0,-1.253146399E-2,-2.317797206E-2,1.022762898E-2
3.299510938E0,-1.420698036E-2,-2.234021388E-2,7.051130291E-3
3.303481250E0,-1.418952644E-2,-2.029817924E-2,4.869468510E-3
3.307451563E0,-1.555088349E-2,-1.886700839E-2,3.089232836E-3
3.311421875E0,-1.619665511E-2,-1.609193534E-2,2.042035107E-3
3.315392188E0,-1.666789502E-2,-1.535889693E-2,1.762782573E-3
3.319362500E0,-1.679006778E-2,-1.623156108E-2,1.692969352E-3
3.323332813E0,-1.891936921E-2,-1.705186628E-2,1.064650831E-3
3.327304688E0,-2.083923109E-2,-1.848303713E-2,1.361356815E-3
3.331273438E0,-2.118829638E-2,-1.855284907E-2,1.570796361E-3
3.335245313E0,-2.263692021E-2,-2.036799304E-2,1.797689125E-3
3.339215625E0,-2.452187613E-2,-2.220058814E-2,2.600540640E-3
3.343185938E0,-2.591813914E-2,-2.328269184E-2,2.513274085E-3
3.347156250E0,-2.822197415E-2,-2.460914291E-2,2.932153177E-3
3.351126563E0,-2.989749052E-2,-2.586578019E-2,2.897246508E-3
3.355096875E0,-3.047344834E-2,-2.694788389E-2,2.583087189E-3
3.359068750E0,-3.077015467E-2,-2.602285892E-2,2.199114766E-3
3.363039063E0,-3.326597437E-2,-2.698278986E-2,2.862340072E-3
3.367009375E0,-3.300417587E-2,-2.542944625E-2,3.176499158E-3
3.370979688E0,-3.218387067E-2,-2.323033288E-2,2.652900526E-3
3.374950000E0,-3.031636961E-2,-2.022836544E-2,1.466076588E-3
3.378920313E0,-2.832669392E-2,-1.705186628E-2,-3.490658492E-5
3.382890625E0,-2.659881860E-2,-1.200786512E-2,1.745329246E-5
3.386862500E0,-2.464404888E-2,-7.225662936E-3,4.712388909E-4
3.390832813E0,-2.384119667E-2,-2.670353744E-3,-8.901178953E-4
3.394803125E0,-2.483603545E-2,4.537856148E-4,-1.553343027E-3
3.398773438E0,-2.494075522E-2,2.932153177E-3,-1.570796361E-3
3.402743750E0,-2.556907386E-2,5.986479111E-3,-2.478367416E-3
3.406715625E0,-2.604031190E-2,9.040805511E-3,-3.769911127E-3
3.410684375E0,-2.420771681E-2,1.225221157E-2,-4.712388851E-3
3.414654688E0,-2.312561311E-2,1.549852360E-2,-5.113814492E-3
3.418654688E0,-2.087413706E-2,1.874483563E-2,-6.405358203E-3
3.422596875E0,-1.923352852E-2,2.005383372E-2,-7.504915819E-3
3.426567188E0,-1.745329238E-2,2.083923109E-2,-7.347836159E-3
3.430537500E0,-1.654572040E-2,2.195624262E-2,-6.998770405E-3
3.434507813E0,-1.584758982E-2,2.103121765E-2,-6.754423957E-3
3.438479688E0,-1.521927118E-2,1.853539608E-2,-7.138396613E-3
3.442448438E0,-1.445132587E-2,1.457349956E-2,-6.038838997E-3
3.446420313E0,-1.500983164E-2,1.068141498E-2,-4.398229532E-3
3.450390625E0,-1.394518092E-2,7.714355364E-3,-1.867502346E-3
3.454360938E0,-1.307251584E-2,7.086036727E-3,-1.797689125E-3
3.458331250E0,-1.284562331E-2,7.365289610E-3,-2.792526793E-4
3.462301563E0,-1.308996975E-2,8.953538723E-3,1.151917269E-3
3.466271875E0,-1.268854365E-2,1.148426626E-2,2.722713631E-3
3.470242188E0,-1.153662615E-2,1.303760987E-2,4.188789986E-3
3.474214063E0,-1.153662615E-2,1.464331243E-2,5.934119225E-3
3.478184375E0,-1.078613475E-2,1.417207345E-2,5.794493016E-3
3.482154688E0,-8.936085738E-3,1.584758982E-2,5.602506921E-3
3.486125000E0,-6.649704650E-3,1.598721556E-2,6.003932562E-3
3.490095313E0,-5.742133129E-3,1.570796408E-2,5.358160939E-3
3.494065625E0,-2.042035107E-3,1.322959550E-2,5.323254038E-3
3.498035938E0,2.443460980E-4,1.199041214E-2,5.480333697E-3
3.502006250E0,1.762782573E-3,9.564404376E-3,6.265731994E-3
3.505978125E0,3.508111695E-3,5.759586580E-3,7.068583276E-3
3.509948438E0,3.961897455E-3,2.443460980E-4,8.185594343E-3
3.513918750E0,2.879793290E-3,-5.672320258E-3,1.027998887E-2
3.517889063E0,1.396263367E-3,-1.190314535E-2,1.082104165E-2
3.521859375E0,-1.378810150E-3,-1.743583940E-2,1.354375482E-2
3.525831250E0,-4.223696887E-3,-2.068215236E-2,1.560324337E-2
3.529800000E0,-8.429939859E-3,-2.394591644E-2,1.703441329E-2
3.533771875E0,-1.357866172E-2,-2.555162087E-2,1.801179722E-2
3.537742188E0,-1.839577034E-2,-2.715732343E-2,1.736602560E-2
3.541712500E0,-2.204350755E-2,-2.939134464E-2,1.675515994E-2
3.545682813E0,-2.631956525E-2,-3.207915276E-2,1.628392190E-2
3.549653125E0,-2.968805097E-2,-3.504621238E-2,1.329940930E-2
3.553623438E0,-3.267256171E-2,-3.640756756E-2,1.117010694E-2
3.557595313E0,-3.511602432E-2,-3.736750036E-2,9.407324716E-3
3.561564063E0,-3.651228920E-2,-3.701843321E-2,7.749261800E-3
3.565535938E0,-3.595378250E-2,-3.467969224E-2,6.562437862E-3
3.569506250E0,-3.536036983E-2,-3.270747140E-2,3.700098023E-3
3.573476563E0,-3.595378250E-2,-2.977531776E-2,1.884955564E-3
3.577446875E0,-3.536036983E-2,-2.677335031E-2,5.061454722E-4
3.581417188E0,-3.447025269E-2,-2.326523885E-2,6.108652451E-4
3.585389063E0,-3.377212211E-2,-2.008873969E-2,6.283185212E-4
3.589357813E0,-3.509857133E-2,-1.640609466E-2,3.054326167E-3
3.593329688E0,-3.558726236E-2,-1.439896598E-2,3.525565146E-3
3.597300000E0,-3.677408770E-2,-1.235693134E-2,4.258603323E-3
3.601270313E0,-3.708824515E-2,-1.092576142E-2,5.637413356E-3
3.605240625E0,-3.701843321E-2,-1.040216256E-2,8.272860199E-3
3.609210938E0,-3.625048697E-2,-1.237438433E-2,8.953538723E-3
3.613182813E0,-3.694862127E-2,-1.544616371E-2,1.062905509E-2
3.617153125E0,-3.712315485E-2,-1.940806210E-2,1.167625282E-2
3.621121875E0,-3.597123548E-2,-2.450442314E-2,1.284562331E-2
3.625093750E0,-3.431317210E-2,-3.155555204E-2,1.452113967E-2
3.629064063E0,-3.253293782E-2,-3.911282867E-2,1.434660610E-2
3.633034375E0,-3.085742146E-2,-4.694935679E-2,1.324704941E-2
3.637004688E0,-2.905973233E-2,-5.398303270E-2,1.385791413E-2
3.640975000E0,-2.544690110E-2,-5.986479297E-2,1.282817032E-2
3.644946875E0,-2.209586836E-2,-6.426302344E-2,1.450368576E-2
3.648917188E0,-1.820378378E-2,-6.812020391E-2,1.389282104E-2
3.652887500E0,-1.417207345E-2,-6.806784123E-2,1.357866172E-2
3.656857813E0,-1.312487572E-2,-6.836454570E-2,1.380555425E-2
3.660828125E0,-1.225221157E-2,-6.707300246E-2,1.415462047E-2
3.664798438E0,-1.157153305E-2,-6.583382189E-2,1.439896598E-2
3.668768750E0,-1.153662615E-2,-6.461209059E-2,1.401499379E-2
3.672739063E0,-1.139700040E-2,-6.459463388E-2,1.331686229E-2
3.676710938E0,-1.329940930E-2,-6.398376822E-2,1.387536712E-2
3.680679688E0,-1.560324337E-2,-6.459463388E-2,1.507964451E-2
3.684651563E0,-1.621410809E-2,-6.579891592E-2,1.644100063E-2
3.688621875E0,-1.726130582E-2,-6.686356664E-2,1.740093343E-2
3.692592188E0,-1.830850355E-2,-6.714281440E-2,1.900663599E-2
3.696564063E0,-1.993165910E-2,-6.721262634E-2,2.049016580E-2
3.700532813E0,-2.110103145E-2,-6.934192777E-2,2.055997774E-2
3.704503125E0,-2.125811018E-2,-6.899286807E-2,2.330014482E-2
3.708475000E0,-2.295107953E-2,-6.754424423E-2,2.686061710E-2
3.712445313E0,-2.474876866E-2,-6.550220400E-2,2.946115844E-2
3.716415625E0,-2.776818909E-2,-6.407103688E-2,3.178244457E-2
3.720385938E0,-3.052580915E-2,-6.400122494E-2,3.480186686E-2
3.724356250E0,-3.228859231E-2,-6.293657422E-2,3.708824515E-2
3.728326563E0,-3.380702808E-2,-6.340780854E-2,3.783873841E-2
3.732298438E0,-3.570943698E-2,-6.487388909E-2,3.818780556E-2
3.736268750E0,-3.501130641E-2,-6.586872786E-2,3.707079217E-2
3.740237500E0,-3.572688997E-2,-6.688101590E-2,3.572688997E-2
3.744209375E0,-3.380702808E-2,-6.639232486E-2,3.492403775E-2
3.748179688E0,-3.029891662E-2,-6.325073540E-2,3.441789374E-2
3.752150000E0,-2.801253460E-2,-6.199409440E-2,3.352777660E-2
3.756121875E0,-2.426007576E-2,-5.923647434E-2,3.391174600E-2
3.760090625E0,-2.071705833E-2,-5.506513640E-2,3.145083413E-2
3.764062500E0,-1.815142483E-2,-5.277875811E-2,3.139847144E-2
3.768032813E0,-1.476548519E-2,-4.900884628E-2,3.049090132E-2
3.772003125E0,-1.328195538E-2,-4.757767543E-2,3.024655581E-2
3.775973438E0,-1.183333248E-2,-4.539601505E-2,2.928662486E-2
3.779943750E0,-1.130973361E-2,-4.288274050E-2,2.829178795E-2
3.783914063E0,-1.162389293E-2,-4.087560996E-2,2.726204321E-2
3.787885938E0,-1.230457146E-2,-3.808308393E-2,2.399827726E-2
3.791856250E0,-1.324704941E-2,-3.721041977E-2,2.148500271E-2
3.795826563E0,-1.544616371E-2,-3.698352724E-2,1.736602560E-2
3.799796875E0,-1.661553420E-2,-3.616322204E-2,1.494001877E-2
3.803767188E0,-1.631882787E-2,-3.520328924E-2,1.174606569E-2
3.807737500E0,-1.624901593E-2,-3.509857133E-2,9.407324716E-3
3.811707813E0,-1.591740362E-2,-3.371975943E-2,7.138396613E-3
3.815679688E0,-1.523672417E-2,-3.351031989E-2,4.747295752E-3
3.819648438E0,-1.445132587E-2,-3.284709528E-2,4.118977115E-3
3.823620313E0,-1.425934024E-2,-3.253293782E-2,2.897246508E-3
3.827590625E0,-1.391027402E-2,-3.064798191E-2,4.537856206E-3
3.831560938E0,-1.396263391E-2,-2.834414691E-2,5.270894151E-3
3.835531250E0,-1.352630183E-2,-2.488839440E-2,4.258603323E-3
3.839501563E0,-1.219985168E-2,-2.021091245E-2,6.248278543E-3
3.843471875E0,-1.111774705E-2,-1.464331243E-2,6.161012221E-3
3.847443750E0,-1.052433532E-2,-8.220500313E-3,7.347836159E-3
3.851414063E0,-1.021017600E-2,-3.228859045E-3,8.569566533E-3
3.855384375E0,-1.225221157E-2,-5.585053586E-4,7.522369269E-3
3.859354688E0,-1.593485661E-2,-3.647738136E-3,9.651671164E-3
3.863325000E0,-1.991420612E-2,-8.499753661E-3,9.913469665E-3
3.867295313E0,-2.441715635E-2,-1.398008689E-2,9.232792072E-3
3.871265625E0,-2.708750963E-2,-2.022836544E-2,9.651671164E-3
3.875237500E0,-3.124139272E-2,-2.684316412E-2,9.459684603E-3
3.879206250E0,-3.279473633E-2,-3.111921996E-2,8.360126987E-3
3.883178125E0,-3.422590718E-2,-3.433062509E-2,7.470009383E-3
3.887148438E0,-3.310889751E-2,-3.623303398E-2,7.243116386E-3
3.891118750E0,-3.117158078E-2,-3.431317210E-2,7.033676840E-3
3.895089063E0,-2.974040993E-2,-3.230604529E-2,6.370451767E-3
3.899059375E0,-2.848377265E-2,-2.832669392E-2,6.352998316E-3
3.903029688E0,-2.708750963E-2,-2.532472648E-2,6.789330859E-3
3.907001563E0,-2.719222941E-2,-2.214822732E-2,7.661995478E-3
3.910971875E0,-2.555162087E-2,-1.799434423E-2,8.639379404E-3
3.914942188E0,-2.513274178E-2,-1.404990070E-2,9.058258496E-3
3.918912500E0,-2.321287990E-2,-1.061160211E-2,9.005898610E-3
3.922882813E0,-2.211332135E-2,-7.766715251E-3,1.034980267E-2
3.926853125E0,-2.167698927E-2,-6.876597181E-3,1.024508290E-2
3.930825000E0,-1.989675313E-2,-5.742133129E-3,1.022762898E-2
3.934793750E0,-2.094395086E-2,-4.084070213E-3,9.913469665E-3
3.938765625E0,-2.136282995E-2,-5.462880712E-3,1.027998887E-2
3.942735938E0,-2.148500271E-2,-5.969026126E-3,9.634217247E-3
3.946706250E0,-2.120575123E-2,-7.312929723E-3,8.395033889E-3
3.950676563E0,-2.022836544E-2,-8.255407214E-3,8.534659632E-3
3.954646875E0,-2.012364566E-2,-7.906341925E-3,9.930923581E-3
3.958617188E0,-1.919862255E-2,-7.208209950E-3,1.059414819E-2
3.962589063E0,-1.699950732E-2,-5.829399452E-3,1.120501384E-2
3.966559375E0,-1.462585945E-2,-4.415682983E-3,1.183333248E-2
3.970528125E0,-1.279326342E-2,-3.141592722E-3,1.199041214E-2
3.974500000E0,-1.096066739E-2,4.886921961E-4,1.354375482E-2
3.978470313E0,-9.721484035E-3,3.996803891E-3,1.303760987E-2
3.982440625E0,-7.609635592E-3,8.377579972E-3,1.275835652E-2
3.986410938E0,-5.846852902E-3,1.267109066E-2,1.312487572E-2
3.990382813E0,-5.235987715E-3,1.530653704E-2,1.188569237E-2
3.994353125E0,-6.126105785E-3,1.673770696E-2,1.048942842E-2
3.998323438E0,-7.120943163E-3,1.696459949E-2,9.075712413E-3
4.002293750E0,-7.819075137E-3,1.612684131E-2,9.005898610E-3
4.006264063E0,-8.150687441E-3,1.530653704E-2,9.599311277E-3
4.010234375E0,-1.021017600E-2,1.267109066E-2,9.459684603E-3
4.014204688E0,-1.118756086E-2,1.003564335E-2,9.407324716E-3
4.018175000E0,-1.129228063E-2,9.197885171E-3,9.546951391E-3
4.022146875E0,-1.237438433E-2,8.063420653E-3,8.831365965E-3
4.026117188E0,-1.160643995E-2,7.941247895E-3,8.796459064E-3
4.030087500E0,-1.291543618E-2,7.295476273E-3,7.435102481E-3
4.034057813E0,-1.204277202E-2,6.230825558E-3,5.585053470E-3
4.038028125E0,-1.302015595E-2,5.340707488E-3,3.438298590E-3
4.041998438E0,-1.387536712E-2,4.066617228E-3,1.972222002E-3
4.045970313E0,-1.380555425E-2,3.124139272E-3,-3.490658419E-4
4.049940625E0,-1.424188633E-2,2.129301662E-3,-3.071779385E-3
4.053910938E0,-1.404990070E-2,-6.981316983E-5,-4.066617228E-3
4.057881250E0,-1.445132587E-2,-1.553343027E-3,-5.253441166E-3
4.061851563E0,-1.425934024E-2,-2.548180753E-3,-6.003932562E-3
4.065821875E0,-1.375319436E-2,-1.745329238E-3,-7.400196046E-3
4.069792188E0,-1.286307629E-2,-1.239183708E-3,-7.906341925E-3
4.073762500E0,-1.172861271E-2,8.726646047E-5,-8.203047328E-3
4.077732813E0,-1.054178830E-2,1.326450263E-3,-8.133234456E-3
4.081704688E0,-1.082104165E-2,1.658062800E-3,-6.300638430E-3
4.085675000E0,-1.134464052E-2,2.338741207E-3,-4.921828397E-3
4.089645313E0,-1.059414819E-2,3.735004691E-3,-2.897246508E-3
4.093615625E0,-1.279326342E-2,4.694935866E-3,-1.780235791E-3
4.097585938E0,-1.366592757E-2,5.096361507E-3,4.537856148E-4
4.101557813E0,-1.555088349E-2,4.450589418E-3,3.298672382E-3
4.105528125E0,-1.801179722E-2,3.979350906E-3,4.799655639E-3
4.109498438E0,-1.939060725E-2,3.700098023E-3,5.637413356E-3
4.113468750E0,-2.307325229E-2,3.036872949E-3,5.864306353E-3
4.117439063E0,-2.523746155E-2,3.455751808E-3,5.759586580E-3
4.121409375E0,-2.579596639E-2,4.625122529E-3,6.195918657E-3
4.125379688E0,-2.638937905E-2,6.126105785E-3,5.550147034E-3
4.129351563E0,-2.640683204E-2,8.621926419E-3,6.736970972E-3
4.133320313E0,-2.413790300E-2,1.274090353E-2,5.986479111E-3
4.137292188E0,-2.281145379E-2,1.502728462E-2,5.794493016E-3
4.141262500E0,-2.080432512E-2,1.621410809E-2,6.056292448E-3
4.145232813E0,-1.951278187E-2,1.743583940E-2,5.515240598E-3
4.149203125E0,-1.768018492E-2,1.579522900E-2,6.736970972E-3
4.153173438E0,-1.720894687E-2,1.385791413E-2,5.986479111E-3
4.157143750E0,-1.617920212E-2,1.110029407E-2,5.497787148E-3
4.161114063E0,-1.469567232E-2,9.773843922E-3,6.422811653E-3
4.165085938E0,-1.221730467E-2,9.424777701E-3,5.148721393E-3
4.169054688E0,-1.157153305E-2,7.976154797E-3,4.677482415E-3
4.173026563E0,-7.923794910E-3,8.970992640E-3,3.944444004E-3
4.176996875E0,-6.073745899E-3,9.372417815E-3,3.316125600E-3
4.180967188E0,-2.879793290E-3,1.097812131E-2,2.391101094E-3
4.184939063E0,-2.443460980E-4,1.350884791E-2,9.424777818E-4
4.188907813E0,1.780235791E-3,1.446877979E-2,-4.712388909E-4
4.192878125E0,3.368485486E-3,1.532399096E-2,-1.902408898E-3
4.196850000E0,4.084070213E-3,1.598721556E-2,-2.862340072E-3
4.200820313E0,5.759586580E-3,1.511455141E-2,-2.827433404E-3
4.204790625E0,6.370451767E-3,1.504473854E-2,-2.809980186E-3
4.208760938E0,6.963863503E-3,1.516691130E-2,-3.106686054E-3
4.212731250E0,8.185594343E-3,1.656317525E-2,-3.176499158E-3
4.216701563E0,7.731808349E-3,1.616174914E-2,-2.897246508E-3
4.220673438E0,8.080874570E-3,1.471312530E-2,-1.623156248E-3
4.224643750E0,8.168140426E-3,1.237438433E-2,3.490658492E-5
4.228614063E0,6.091198884E-3,1.071632188E-2,1.692969352E-3
4.232584375E0,3.420845373E-3,9.372417815E-3,4.974188283E-3
4.236554688E0,1.919862116E-4,8.866272867E-3,6.283185445E-3
4.240525000E0,-4.118977115E-3,7.836528122E-3,8.133234456E-3
4.244496875E0,-7.347836159E-3,4.869468510E-3,9.215338156E-3
4.248465625E0,-9.546951391E-3,4.712388909E-4,1.040216256E-2
4.252435938E0,-1.176351868E-2,-4.118977115E-3,1.117010694E-2
4.256407813E0,-1.281071641E-2,-8.482299745E-3,1.242674422E-2
4.260378125E0,-1.307251584E-2,-1.277581044E-2,1.228711754E-2
4.264348438E0,-1.268854365E-2,-1.541125681E-2,1.345648803E-2
4.268318750E0,-1.214749180E-2,-1.624901593E-2,1.361356769E-2
4.272289063E0,-1.185078546E-2,-1.705186628E-2,1.200786512E-2
4.276260938E0,-1.192059834E-2,-1.637118869E-2,1.263618376E-2
4.280231250E0,-1.148426626E-2,-1.574287005E-2,1.265363675E-2
4.284201563E0,-1.167625282E-2,-1.406735368E-2,1.235693134E-2
4.288171875E0,-1.218239777E-2,-1.303760987E-2,1.136209350E-2
4.292142188E0,-1.185078546E-2,-1.080358773E-2,1.082104165E-2
4.296112500E0,-1.221730467E-2,-9.023352526E-3,1.052433532E-2
4.300082813E0,-1.277581044E-2,-7.801621687E-3,1.089085452E-2
4.304054688E0,-1.200786512E-2,-6.283185445E-3,9.791296907E-3
4.308025000E0,-1.272345055E-2,-2.426007763E-3,7.836528122E-3
4.311995313E0,-1.169370580E-2,1.884955564E-3,6.283185445E-3
4.315965625E0,-1.007054932E-2,6.318091881E-3,4.677482415E-3
4.319935938E0,-9.197885171E-3,1.169370580E-2,3.490658477E-3
4.323906250E0,-8.517206647E-3,1.699950732E-2,1.692969352E-3
4.327876563E0,-8.936085738E-3,2.094395086E-2,1.570796303E-4
4.331846875E0,-8.447393775E-3,2.363175713E-2,6.981316983E-5
4.335817188E0,-7.417649496E-3,2.282890677E-2,3.490658492E-5
4.339789063E0,-7.592182141E-3,2.157226950E-2,-4.014257283E-4
4.343759375E0,-8.412486874E-3,1.912880875E-2,-2.181661548E-3
4.347729688E0,-8.621926419E-3,1.834340952E-2,-1.727875904E-3
4.351700000E0,-8.970992640E-3,1.768018492E-2,-2.373647876E-3
4.355670313E0,-9.215338156E-3,1.525417715E-2,-2.530727303E-3
4.359642188E0,-9.267698042E-3,1.446877979E-2,-3.787364578E-3
4.363612500E0,-9.599311277E-3,1.380555425E-2,-2.460914198E-3
4.367581250E0,-9.372417815E-3,1.335176919E-2,-3.159045940E-3
4.371553125E0,-7.958701812E-3,1.425934024E-2,-4.852015525E-3
4.375523438E0,-6.091198884E-3,1.556833647E-2,-4.852015525E-3
4.379493750E0,-2.286381321E-3,1.680752076E-2,-4.834562074E-3
4.383464063E0,1.099557383E-3,1.818633080E-2,-4.694935866E-3
4.387434375E0,4.084070213E-3,1.839577034E-2,-6.161012221E-3
4.391404688E0,5.777040031E-3,1.694714651E-2,-5.026548170E-3
4.395376563E0,5.916666240E-3,1.476548519E-2,-4.886921961E-3
4.399346875E0,5.044001620E-3,1.027998887E-2,-2.443460980E-3
4.403317188E0,3.159045940E-3,3.543018363E-3,-2.967059845E-4
4.407287500E0,5.585053586E-4,-2.565633971E-3,1.588249579E-3
4.411285938E0,-3.106686054E-3,-9.424777701E-3,3.595378250E-3
4.415228125E0,-5.131267942E-3,-1.408480667E-2,7.278022822E-3
4.419200000E0,-7.749261800E-3,-1.665044017E-2,8.988445625E-3
4.423168750E0,-8.290314116E-3,-1.897172816E-2,9.599311277E-3
4.427140625E0,-9.634217247E-3,-1.912880875E-2,1.230457146E-2
4.431110938E0,-1.104793418E-2,-1.752310619E-2,1.272345055E-2
4.435081250E0,-1.155408006E-2,-1.483529899E-2,1.237438433E-2
4.439051563E0,-1.139700040E-2,-1.202531811E-2,1.031489577E-2
4.443021875E0,-1.029744279E-2,-9.337511845E-3,1.038470864E-2
4.446992188E0,-9.407324716E-3,-6.981316954E-3,7.696901914E-3
4.450964063E0,-7.522369269E-3,-5.462880712E-3,6.387905218E-3
4.454934375E0,-7.784168236E-3,-5.515240598E-3,5.148721393E-3
4.458904688E0,-7.696901914E-3,-3.281218931E-3,4.223696887E-3
4.462875000E0,-7.086036727E-3,-1.186823938E-3,3.089232836E-3
4.466845313E0,-6.457718089E-3,-1.919862116E-4,2.478367416E-3
4.470815625E0,-4.939281847E-3,1.850049011E-3,4.136430100E-3
4.474785938E0,-5.305801053E-3,5.113814492E-3,4.258603323E-3
4.478757813E0,-4.799655639E-3,7.155850064E-3,4.747295752E-3
4.482728125E0,-3.909537569E-3,9.040805511E-3,5.166174378E-3
4.486698438E0,-3.979350906E-3,1.134464052E-2,5.427973811E-3
4.490668750E0,-2.199114766E-3,1.164134592E-2,6.405358203E-3
4.494639063E0,-3.665191471E-4,1.097812131E-2,6.510077976E-3
4.498609375E0,1.448623254E-3,9.896016680E-3,6.684611086E-3
4.502579688E0,3.281218931E-3,7.504915819E-3,7.487462368E-3
4.506550000E0,3.752457909E-3,5.829399452E-3,6.649704650E-3
4.510521875E0,5.532693584E-3,4.188789986E-3,7.173303049E-3
4.514492188E0,5.846852902E-3,1.954768784E-3,6.108652335E-3
4.518462500E0,6.824237294E-3,1.221730490E-3,5.829399452E-3
4.522432813E0,5.881759338E-3,-1.064650831E-3,5.305801053E-3
4.526403125E0,7.749261800E-3,-3.769911127E-3,7.120943163E-3
4.530373438E0,7.627088577E-3,-6.440265104E-3,6.998770405E-3
4.534345313E0,7.452555932E-3,-8.639379404E-3,5.916666240E-3
4.538315625E0,5.899212789E-3,-1.101302728E-2,4.869468510E-3
4.542285938E0,6.091198884E-3,-1.148426626E-2,4.450589418E-3
4.546256250E0,6.597344764E-3,-1.055924222E-2,4.799655639E-3
4.550226563E0,5.969026126E-3,-1.031489577E-2,4.293509759E-3
4.554196875E0,5.811946467E-3,-7.993607782E-3,4.904375412E-3
4.558168750E0,5.462880712E-3,-7.086036727E-3,4.310963210E-3
4.562137500E0,5.078908056E-3,-4.293509759E-3,5.951572675E-3
4.566107813E0,4.520402756E-3,-2.042035107E-3,4.747295752E-3
4.570079688E0,3.019419499E-3,4.712388909E-4,6.230825558E-3
4.574050000E0,8.726646047E-5,3.682644805E-3,6.021386012E-3
4.578020313E0,-3.543018363E-3,6.335545331E-3,5.654866807E-3
4.581990625E0,-5.096361507E-3,1.003564335E-2,6.614797749E-3
4.585960938E0,-6.841690745E-3,1.326450240E-2,6.108652335E-3
4.589931250E0,-7.749261800E-3,1.530653704E-2,5.672320258E-3
4.593903125E0,-8.604473434E-3,1.553343050E-2,4.066617228E-3
4.597873438E0,-8.813912980E-3,1.635373570E-2,2.286381321E-3
4.601843750E0,-8.569566533E-3,1.761037298E-2,7.679448463E-4
4.605814063E0,-8.203047328E-3,1.673770696E-2,-9.599310579E-4
4.609784375E0,-8.412486874E-3,1.366592757E-2,-6.632251316E-4
4.613754688E0,-8.621926419E-3,9.529497474E-3,-1.186823938E-3
4.617726563E0,-7.766715251E-3,5.462880712E-3,-7.330382941E-4
4.621696875E0,-7.400196046E-3,2.426007763E-3,-6.108652451E-4
4.625667188E0,-6.387905218E-3,-7.504915702E-4,-2.792526793E-4
4.629637500E0,-5.375613924E-3,-1.588249579E-3,4.014257283E-4
4.633607813E0,-3.001966281E-3,-1.797689125E-3,1.169370604E-3
4.637578125E0,-8.901178953E-4,-1.919862116E-4,2.740166849E-3
4.641548438E0,-3.316125658E-4,-2.268928074E-4,3.159045940E-3
4.645518750E0,4.014257283E-4,-3.839724232E-4,3.246312495E-3
4.649489063E0,4.363323096E-4,-2.234021435E-3,4.485496320E-3
4.653459375E0,-1.623156248E-3,-6.928957067E-3,5.410520826E-3
4.657431250E0,-5.340707488E-3,-1.403244678E-2,7.749261800E-3
4.661401563E0,-1.066396199E-2,-2.220058814E-2,1.001818944E-2
4.665373438E0,-1.687733456E-2,-3.050835431E-2,1.181587856E-2
4.669342188E0,-2.165953629E-2,-3.824016452E-2,1.244419720E-2
4.673312500E0,-2.530727349E-2,-4.612905160E-2,1.514945831E-2
4.677284375E0,-2.717477642E-2,-5.391322076E-2,1.586504281E-2
4.681253125E0,-2.871066518E-2,-5.893976986E-2,1.499237865E-2
4.685225000E0,-2.865830623E-2,-6.115633622E-2,1.296779606E-2
4.689195313E0,-2.579596639E-2,-5.784020945E-2,1.047197543E-2
4.693165625E0,-2.247984149E-2,-5.260422453E-2,8.028514683E-3
4.697137500E0,-1.890191622E-2,-4.475024343E-2,6.335545331E-3
4.701106250E0,-1.616174914E-2,-3.698352724E-2,6.632251199E-3
4.705076563E0,-1.410226058E-2,-2.939134464E-2,6.562437862E-3
4.709048438E0,-1.506219152E-2,-2.410299703E-2,8.813912980E-3
4.713018750E0,-1.727875881E-2,-2.165953629E-2,1.179842558E-2
4.716987500E0,-1.994911395E-2,-2.132792398E-2,1.633628085E-2
4.720959375E0,-2.350958437E-2,-2.439970337E-2,2.220058814E-2
4.724929688E0,-2.881538495E-2,-2.926917188E-2,2.748893574E-2
4.728900000E0,-3.319616243E-2,-3.431317210E-2,3.262020275E-2
4.732870313E0,-3.871140257E-2,-3.998549283E-2,3.787364438E-2
4.736840625E0,-4.331907257E-2,-4.433136433E-2,4.256857932E-2
4.740810938E0,-4.857251421E-2,-4.817108810E-2,4.633849114E-2
4.744782813E0,-5.235987902E-2,-5.112069473E-2,5.003859103E-2
4.748753125E0,-5.785766616E-2,-5.475097895E-2,5.415756628E-2
4.752723438E0,-6.003932655E-2,-6.007423252E-2,5.719443783E-2
4.756693750E0,-6.257005036E-2,-6.415830553E-2,5.979498103E-2
4.760664063E0,-6.639232486E-2,-6.944665313E-2,6.167993695E-2
4.764634375E0,-6.963863969E-2,-7.668976486E-2,6.262241304E-2
4.768606250E0,-7.199483365E-2,-8.293804526E-2,6.361725181E-2
4.772575000E0,-7.321656495E-2,-9.000662714E-2,6.553710997E-2
4.776546875E0,-7.518878579E-2,-9.454448521E-2,6.513568759E-2
4.780517188E0,-7.735299319E-2,-9.484118968E-2,6.546729803E-2
4.784487500E0,-7.761479169E-2,-9.279915690E-2,6.661921740E-2
4.788457813E0,-7.618362457E-2,-8.955284208E-2,6.736970693E-2
4.792428125E0,-7.386233658E-2,-8.299040794E-2,6.921976060E-2
4.796400000E0,-7.068583369E-2,-7.616616786E-2,7.120943069E-2
4.800370313E0,-6.805038452E-2,-6.866125017E-2,7.157595456E-2
4.804340625E0,-6.541494280E-2,-6.113888323E-2,7.122688740E-2
4.808310938E0,-6.021386012E-2,-5.466371030E-2,6.991788745E-2
4.812281250E0,-5.703736097E-2,-4.679227620E-2,6.733480096E-2
4.816251563E0,-5.426228791E-2,-4.338888451E-2,6.590363383E-2
4.820221875E0,-4.946263134E-2,-4.461061582E-2,6.476917118E-2
4.824193750E0,-4.686209187E-2,-4.717624933E-2,6.237806752E-2
4.828164063E0,-4.317944497E-2,-4.756022245E-2,5.918411538E-2
4.832134375E0,-4.085815698E-2,-4.735078290E-2,5.625196174E-2
4.836104688E0,-3.708824515E-2,-4.324925691E-2,5.516985804E-2
4.840075000E0,-3.701843321E-2,-3.960151970E-2,5.414011329E-2
4.844045313E0,-3.789109737E-2,-3.714060783E-2,5.283111706E-2
4.848017188E0,-3.527310491E-2,-3.726277873E-2,5.113814771E-2
4.851985938E0,-3.459242731E-2,-3.668681905E-2,4.647811875E-2
4.855956250E0,-3.214896470E-2,-3.654719517E-2,4.028219730E-2
4.859928125E0,-2.970550396E-2,-3.726277873E-2,3.460988030E-2
4.863898438E0,-2.651155181E-2,-3.654719517E-2,2.996730246E-2
4.867868750E0,-2.206096239E-2,-3.649483621E-2,2.619739249E-2
4.871839063E0,-1.895427518E-2,-3.754203022E-2,2.460914291E-2
4.875809375E0,-1.692969352E-2,-3.677408770E-2,2.330014482E-2
4.879779688E0,-1.384046115E-2,-3.340560198E-2,2.265437320E-2
4.883751563E0,-1.260127686E-2,-3.071779385E-2,2.068215236E-2
4.887721875E0,-1.286307629E-2,-2.520255372E-2,1.986184716E-2
4.891692188E0,-1.384046115E-2,-1.684242673E-2,2.040289901E-2
4.895662500E0,-1.665044017E-2,-1.075122785E-2,1.965240762E-2
4.899632813E0,-2.115339041E-2,-4.485496320E-3,1.703441329E-2
4.903603125E0,-2.398082428E-2,-5.934119690E-4,1.364847459E-2
4.907575000E0,-2.953097038E-2,1.448623254E-3,1.050688233E-2
4.911543750E0,-3.127630055E-2,3.944444004E-3,8.936085738E-3
4.915515625E0,-3.249803185E-2,5.201081280E-3,8.377579972E-3
4.919485938E0,-3.460988030E-2,8.377579972E-3,8.377579972E-3
4.923456250E0,-3.562216833E-2,1.628392190E-2,8.988445625E-3
4.927426563E0,-3.738495335E-2,2.588323317E-2,8.988445625E-3
4.931396875E0,-3.829252347E-2,2.778564207E-2,1.214749180E-2
4.935367188E0,-3.687880561E-2,2.391101047E-2,1.658062823E-2
4.939339063E0,-3.710569814E-2,1.883210242E-2,2.104867063E-2
4.943309375E0,-3.776892647E-2,1.659808122E-2,2.417281084E-2
4.947279688E0,-3.869394958E-2,1.467821933E-2,2.604031190E-2
4.951250000E0,-3.909537569E-2,1.310742274E-2,2.818706818E-2
4.955220313E0,-3.888593614E-2,1.240929123E-2,2.799508162E-2
4.959190625E0,-3.885103017E-2,1.312487572E-2,2.809980139E-2
4.963160938E0,-3.851941600E-2,1.165879890E-2,2.691297606E-2
4.967132813E0,-3.708824515E-2,1.352630183E-2,2.645919099E-2
4.971101563E0,-3.506366536E-2,1.521927118E-2,2.633701824E-2
4.975073438E0,-3.211405873E-2,2.228785492E-2,2.616248466E-2
4.979043750E0,-2.879793197E-2,3.179989755E-2,2.672099136E-2
4.983014063E0,-2.581341937E-2,3.670427576E-2,2.595304511E-2
4.986984375E0,-2.204350755E-2,3.558726236E-2,2.319542505E-2
4.990954688E0,-1.968731359E-2,3.150319308E-2,1.900663599E-2
4.994925000E0,-1.818633080E-2,2.218313515E-2,1.476548519E-2
4.998896875E0,-1.612684131E-2,1.342158206E-2,1.139700040E-2
5.002867188E0,-1.349139493E-2,3.595378250E-3,8.115780540E-3
5.006837500E0,-1.099557430E-2,-2.862340072E-3,7.696901914E-3
5.010807813E0,-7.033676840E-3,-3.787364578E-3,7.295476273E-3
5.014778125E0,-4.188789986E-3,-4.188789986E-3,8.395033889E-3
5.018748438E0,-2.548180753E-3,-2.268928074E-4,1.003564335E-2
5.022718750E0,-1.745329246E-5,2.757620299E-3,1.242674422E-2
5.026690625E0,1.082104165E-3,5.951572675E-3,1.546361670E-2
5.030659375E0,1.518436475E-3,9.477137588E-3,1.670280099E-2
5.034631250E0,3.595378250E-3,1.176351868E-2,1.851794310E-2
5.038601563E0,3.979350906E-3,1.387536712E-2,2.035053819E-2
5.042571875E0,4.241149873E-3,1.289798319E-2,2.279400080E-2
5.046542188E0,3.403391922E-3,1.219985168E-2,2.523746155E-2
5.050512500E0,3.630284918E-3,1.396263391E-2,2.556907386E-2
5.054482813E0,3.839724232E-3,1.413716655E-2,2.204350755E-2
5.058454688E0,4.363323096E-3,1.207767799E-2,2.127556317E-2
5.062425000E0,4.485496320E-3,5.061454605E-3,1.926843449E-2
5.066395313E0,2.862340072E-3,-1.570796361E-3,1.783726551E-2
5.070365625E0,3.490658492E-5,-7.208209950E-3,1.685987972E-2
5.074335938E0,-1.291543595E-3,-1.441641990E-2,1.916371472E-2
5.078306250E0,-5.550147034E-3,-1.914626174E-2,1.993165910E-2
5.082278125E0,-1.057669520E-2,-2.324778587E-2,2.162462845E-2
5.086248438E0,-1.354375482E-2,-2.535963431E-2,2.478367463E-2
5.090217188E0,-1.583013684E-2,-2.439970337E-2,2.694788389E-2
5.094189063E0,-1.626646891E-2,-2.101376466E-2,2.977531776E-2
5.098159375E0,-1.668534800E-2,-1.574287005E-2,3.036872856E-2
5.102129688E0,-1.708677411E-2,-1.076868176E-2,3.082251363E-2
5.106101563E0,-1.780235767E-2,-5.550147034E-3,3.108431399E-2
5.110070313E0,-1.692969352E-2,1.204277156E-3,3.160791099E-2
5.114042188E0,-1.656317525E-2,9.005898610E-3,3.265510872E-2
5.118012500E0,-1.795943826E-2,1.675515994E-2,3.111921996E-2
5.121982813E0,-1.727875881E-2,2.450442314E-2,2.876302600E-2
5.125953125E0,-1.603957638E-2,3.118903376E-2,2.424262278E-2
5.129923438E0,-1.602212340E-2,3.639011458E-2,1.898918301E-2
5.133893750E0,-1.300270297E-2,4.227187485E-2,1.460840553E-2
5.137865625E0,-1.192059834E-2,3.974114731E-2,9.407324716E-3
5.141834375E0,-9.075712413E-3,3.124139272E-2,3.839724232E-3
5.145806250E0,-7.731808349E-3,1.893682219E-2,-2.426007763E-3
5.149776563E0,-5.881759338E-3,1.090830751E-2,-6.021386012E-3
5.153746875E0,-3.438298590E-3,6.562437862E-3,-7.103490178E-3
5.157717188E0,3.490658492E-5,5.270894151E-3,-8.133234456E-3
5.161687500E0,3.211405827E-3,2.391101094E-3,-8.569566533E-3
5.165659375E0,4.188789986E-3,-1.658062800E-3,-8.360126987E-3
5.169628125E0,4.293509759E-3,-6.038838997E-3,-8.464846760E-3
5.173600000E0,3.263765713E-3,-1.094321441E-2,-7.749261800E-3
5.177570313E0,1.500983140E-3,-1.207767799E-2,-8.901178837E-3
5.181540625E0,-7.504915702E-4,-1.190314535E-2,-8.761553094E-3
5.185510938E0,-3.752457909E-3,-1.171115879E-2,-7.819075137E-3
5.189481250E0,-8.307767101E-3,-1.165879890E-2,-4.415682983E-3
5.193451563E0,-1.295034308E-2,-1.466076542E-2,-1.867502346E-3
5.197423438E0,-1.733111963E-2,-1.860520989E-2,1.029744279E-3
5.201393750E0,-2.148500271E-2,-2.158972248E-2,6.614797749E-3
5.205364063E0,-2.377138473E-2,-2.328269184E-2,1.153662615E-2
5.209334375E0,-2.331759781E-2,-2.415535599E-2,1.626646891E-2
5.213304688E0,-2.258456126E-2,-2.274163999E-2,2.127556317E-2
5.217275000E0,-2.104867063E-2,-2.281145379E-2,2.483603545E-2
5.221246875E0,-1.912880875E-2,-2.494075522E-2,2.771582827E-2
5.225217188E0,-1.727875881E-2,-2.399827726E-2,2.878047898E-2
5.229185938E0,-1.258382387E-2,-1.998401992E-2,3.115412779E-2
5.233157813E0,-9.407324716E-3,-2.150245570E-2,3.164282069E-2
5.237128125E0,-5.864306353E-3,-2.129301615E-2,3.099704720E-2
5.241098438E0,-5.759586347E-4,-1.823868975E-2,2.843141370E-2
5.245068750E0,1.989675453E-3,-1.261873078E-2,2.654645778E-2
5.249039063E0,2.216568217E-3,-1.024508290E-2,2.530727349E-2
5.253009375E0,-1.169370604E-3,-1.172861271E-2,2.453932911E-2
5.256981250E0,-3.106686054E-3,-1.858775690E-2,2.539454028E-2
5.260953125E0,-6.335545331E-3,-2.565634064E-2,2.426007576E-2
5.264921875E0,-7.330382708E-3,-3.021164984E-2,2.426007576E-2
5.268892188E0,-6.370451767E-3,-3.319616243E-2,2.246238664E-2
5.272862500E0,-3.874630900E-3,-3.307398781E-2,1.928588748E-2
5.276834375E0,-1.256637042E-3,-3.064798191E-2,1.408480667E-2
5.280804688E0,2.722713631E-3,-2.668608353E-2,9.721484035E-3
5.284775000E0,7.976154797E-3,-1.708677411E-2,6.021386012E-3
5.288745313E0,1.324704941E-2,-1.005309634E-2,3.246312495E-3
5.292715625E0,1.809906401E-2,-3.857177682E-3,1.762782573E-3
5.296685938E0,1.665044017E-2,-4.049163777E-3,3.787364578E-3
5.300656250E0,1.085594762E-2,-1.190314535E-2,1.078613475E-2
5.304626563E0,9.250245057E-4,-2.434734255E-2,1.743583940E-2
5.308596875E0,-9.948376566E-3,-3.815289587E-2,2.309070528E-2
5.312568750E0,-1.684242673E-2,-4.565781355E-2,2.651155181E-2
5.316539063E0,-1.984439418E-2,-4.536110535E-2,2.967059799E-2
5.320509375E0,-2.062979154E-2,-3.879866749E-2,3.214896470E-2
5.324479688E0,-2.082177810E-2,-2.942625061E-2,3.474950418E-2
5.328450000E0,-2.148500271E-2,-1.973967440E-2,3.588397056E-2
5.332420313E0,-2.211332135E-2,-8.185594343E-3,3.843215108E-2
5.336390625E0,-2.377138473E-2,-1.413716702E-3,4.466297477E-2
5.340362500E0,-2.691297606E-2,-9.948377265E-4,4.900884628E-2
5.344332813E0,-2.775073424E-2,-1.047197497E-3,5.012585595E-2
5.348303125E0,-2.584832534E-2,7.644542027E-3,4.876450077E-2
5.352273438E0,-2.024581842E-2,2.061233856E-2,4.871213809E-2
5.356243750E0,-1.080358773E-2,2.851868048E-2,4.314453900E-2
5.360214063E0,1.727875904E-3,3.419100121E-2,3.354522958E-2
5.364184375E0,1.448623277E-2,3.687880561E-2,2.291617356E-2
5.368154688E0,2.354449220E-2,3.591887653E-2,1.261873078E-2
5.372126563E0,2.876302600E-2,3.476695716E-2,8.883725852E-3
5.376096875E0,2.771582827E-2,3.129375353E-2,6.405358203E-3
5.380065625E0,2.577851340E-2,3.070034087E-2,2.303834539E-3
5.384037500E0,2.827433310E-2,3.729768470E-2,-3.874630900E-3
5.388006250E0,3.661700711E-2,5.106833205E-2,-8.203047328E-3
5.391978125E0,4.557054490E-2,6.611306965E-2,-1.127482671E-2
5.395948438E0,5.436700583E-2,7.831292599E-2,-1.645845547E-2
5.399920313E0,5.878268927E-2,7.714354992E-2,-1.225221157E-2
5.403917188E0,5.016076192E-2,5.487314984E-2,3.892084118E-3
5.407864063E0,2.802998759E-2,1.218239777E-2,2.061233856E-2
5.411831250E0,5.689773243E-3,-3.914773464E-2,2.979277074E-2
5.415801563E0,-1.336922217E-2,-8.581783623E-2,3.459242731E-2
5.419773438E0,-2.707005665E-2,-1.174082980E-1,3.464478627E-2
5.423742188E0,-3.487167880E-2,-1.294161677E-1,3.087487444E-2
5.427714063E0,-3.930481523E-2,-1.265189201E-1,2.537708730E-2
5.431684375E0,-3.909537569E-2,-1.122072190E-1,1.808161102E-2
5.435654688E0,-3.618067503E-2,-9.552186728E-2,1.286307629E-2
5.439625000E0,-3.286454827E-2,-8.047713339E-2,8.796459064E-3
5.443595313E0,-2.809980139E-2,-6.707300246E-2,2.775073517E-3
5.447565625E0,-2.263692021E-2,-5.681046844E-2,-8.901178953E-4
5.451537500E0,-1.727875881E-2,-4.991641641E-2,-4.712388851E-3
5.455507813E0,-1.258382387E-2,-4.571017250E-2,-7.208209950E-3
5.459476563E0,-5.480333697E-3,-4.281292483E-2,-8.028514683E-3
5.463448438E0,-1.082104165E-3,-3.963642567E-2,-6.876597181E-3
5.467418750E0,3.054326167E-3,-3.700098023E-2,-3.560471581E-3
5.471389063E0,4.153883550E-3,-3.827507049E-2,1.343903481E-3
5.475359375E0,4.276056774E-3,-4.192280769E-2,7.452555932E-3
5.479329688E0,4.014257283E-4,-4.920083284E-2,1.144936029E-2
5.483300000E0,-4.345869645E-3,-5.771803856E-2,1.535889693E-2
5.487270313E0,-7.417649496E-3,-6.445501000E-2,1.891936921E-2
5.491242188E0,-1.061160211E-2,-6.696828455E-2,2.061233856E-2
5.495212500E0,-1.160643995E-2,-6.656685472E-2,1.984439418E-2
5.499182813E0,-1.171115879E-2,-6.298892945E-2,1.815142483E-2
5.503153125E0,-1.113520097E-2,-5.921902135E-2,1.619665511E-2
5.507123438E0,-9.773843922E-3,-5.431464687E-2,1.478293911E-2
5.511095313E0,-8.220500313E-3,-5.002113804E-2,1.321214251E-2
5.515065625E0,-7.208209950E-3,-4.754276946E-2,1.174606569E-2
5.519034375E0,-6.946410518E-3,-4.478514940E-2,1.090830751E-2
5.523006250E0,-8.080874570E-3,-4.392993823E-2,1.069886796E-2
5.526976563E0,-7.784168236E-3,-4.218460619E-2,9.738937020E-3
5.530946875E0,-8.150687441E-3,-3.918264061E-2,1.099557430E-2
5.534917188E0,-7.941247895E-3,-3.778637946E-2,1.026253588E-2
5.538887500E0,-7.888888009E-3,-3.593632951E-2,1.068141498E-2
5.542857813E0,-6.824237294E-3,-3.167772666E-2,1.214749180E-2
5.546828125E0,-6.702064537E-3,-2.876302600E-2,1.296779606E-2
5.550798438E0,-6.806783844E-3,-2.513274178E-2,1.469567232E-2
5.554770313E0,-7.749261800E-3,-2.434734255E-2,1.483529899E-2
5.558740625E0,-9.494591504E-3,-2.609267272E-2,1.668534800E-2
5.562710938E0,-1.221730467E-2,-3.047344834E-2,1.808161102E-2
5.566681250E0,-1.411971357E-2,-3.611086309E-2,1.888446324E-2
5.570653125E0,-1.628392190E-2,-4.241150245E-2,2.000147291E-2
5.574623438E0,-1.818633080E-2,-4.766494036E-2,2.073451132E-2
5.578593750E0,-1.930334233E-2,-5.234242231E-2,2.274163999E-2
5.582564063E0,-1.987930015E-2,-5.492551252E-2,2.417281084E-2
5.586534375E0,-1.898918301E-2,-5.695009232E-2,2.649409883E-2
5.590504688E0,-1.799434423E-2,-5.808455870E-2,2.694788389E-2
5.594475000E0,-1.727875881E-2,-5.581562966E-2,2.857103944E-2
5.598445313E0,-1.499237865E-2,-4.680972919E-2,2.419026382E-2
5.602417188E0,-4.468042869E-3,-1.947787404E-2,1.024508290E-2
5.606387500E0,1.345648803E-2,2.029817924E-2,3.124139272E-3
5.610357813E0,2.748893574E-2,5.703736097E-2,1.745329238E-3
5.614328125E0,3.940953314E-2,8.768533915E-2,-2.967059612E-3
5.618300000E0,4.989896342E-2,1.159945801E-1,-1.968731359E-2
5.622268750E0,7.532840967E-2,1.515120268E-1,-4.948008433E-2
5.626239063E0,1.151219159E-1,1.909041107E-1,-7.115707546E-2
5.630210938E0,1.555961072E-1,2.187944800E-1,-6.609562039E-2
5.634181250E0,1.821251065E-1,2.335774153E-1,-6.340780854E-2
5.638151563E0,1.896474808E-1,2.446602583E-1,-6.452482194E-2
5.642121875E0,1.774650812E-1,2.516066730E-1,-6.030112505E-2
5.646092188E0,1.550026834E-1,2.456201911E-1,-5.091125518E-2
5.650062500E0,1.300270259E-1,2.123018503E-1,-4.619886354E-2
5.654032813E0,1.043881401E-1,1.558928043E-1,-4.527384043E-2
5.658003125E0,8.368853480E-2,9.358455241E-2,-4.488986731E-2
5.661975000E0,6.461209059E-2,3.745476529E-2,-4.132939503E-2
5.665945313E0,4.368559271E-2,-9.843656793E-3,-3.633775562E-2
5.669915625E0,2.361430414E-2,-4.399975017E-2,-2.809980139E-2
5.673885938E0,3.193952609E-3,-6.630505621E-2,-1.874483563E-2
5.677856250E0,-1.371828746E-2,-7.979645580E-2,-9.512044489E-3
5.681826563E0,-2.565634064E-2,-8.452629298E-2,-3.490658477E-3
5.685796875E0,-3.314380348E-2,-8.424704522E-2,-3.124139272E-3
5.689768750E0,-3.824016452E-2,-7.695156336E-2,-4.084070213E-3
5.693739063E0,-4.108504951E-2,-6.932447851E-2,-7.661995478E-3
5.697709375E0,-4.106759652E-2,-5.949827284E-2,-1.083849464E-2
5.701679688E0,-3.940953314E-2,-5.152212083E-2,-1.258382387E-2
5.705650000E0,-3.851941600E-2,-4.763003439E-2,-1.347394194E-2
5.709621875E0,-3.904301673E-2,-4.948008433E-2,-1.417207345E-2
5.713592188E0,-4.052654654E-2,-5.763076991E-2,-9.983283468E-3
5.717560938E0,-4.572762549E-2,-7.044149190E-2,-6.335545331E-3
5.721532813E0,-5.176646635E-2,-8.463101834E-2,-3.874630900E-3
5.725503125E0,-5.710717291E-2,-9.871581942E-2,6.632251316E-4
5.729473438E0,-6.014404446E-2,-1.084198505E-1,3.211405827E-3
5.733443750E0,-6.078981608E-2,-1.141096279E-1,4.921828397E-3
5.737414063E0,-5.555383116E-2,-1.151393726E-1,4.764748737E-3
5.741384375E0,-4.756022245E-2,-1.126959100E-1,3.368485486E-3
5.745356250E0,-3.703588620E-2,-1.087514684E-1,1.815142459E-3
5.749326563E0,-2.541199327E-2,-1.019970402E-1,-1.588249579E-3
5.753296875E0,-1.500983164E-2,-9.375908971E-2,-5.340707488E-3
5.757267188E0,-5.672320258E-3,-8.424704522E-2,-7.976154797E-3
5.761237500E0,9.773843922E-4,-7.527604699E-2,-9.721484035E-3
5.765207813E0,3.298672382E-3,-6.902777404E-2,-1.153662615E-2
5.769179688E0,2.111848444E-3,-6.590363383E-2,-1.171115879E-2
5.773150000E0,-2.408554312E-3,-6.583382189E-2,-1.279326342E-2
5.777120313E0,-7.051130291E-3,-6.702063978E-2,-1.308996975E-2
5.781090625E0,-1.097812131E-2,-6.838200241E-2,-1.422443334E-2
5.785060938E0,-1.469567232E-2,-6.995279342E-2,-1.495747175E-2
5.789031250E0,-1.687733456E-2,-7.080800831E-2,-1.621410809E-2
5.793001563E0,-1.804670505E-2,-6.967354566E-2,-1.668534800E-2
5.796971875E0,-1.911135577E-2,-6.651449949E-2,-1.816887781E-2
5.800943750E0,-1.968731359E-2,-6.328564137E-2,-1.914626174E-2
5.804914063E0,-2.014109865E-2,-5.883504823E-2,-1.970476657E-2
5.808884375E0,-1.904154196E-2,-5.450663343E-2,-1.970476657E-2
5.812854688E0,-1.696459949E-2,-5.007349700E-2,-1.850049011E-2
5.816825000E0,-1.520181727E-2,-4.754276946E-2,-1.773254573E-2
5.820795313E0,-1.399754081E-2,-4.750786349E-2,-1.738347858E-2
5.824765625E0,-1.443387289E-2,-4.958480224E-2,-1.518436428E-2
5.828737500E0,-1.560324337E-2,-5.525712296E-2,-1.401499379E-2
5.832707813E0,-1.741838641E-2,-6.501351297E-2,-1.174606569E-2
5.836678125E0,-1.818633080E-2,-7.703883201E-2,-8.744099177E-3
5.840648438E0,-2.064724453E-2,-9.236282110E-2,-5.113814492E-3
5.844618750E0,-2.429498360E-2,-1.060113013E-1,-2.042035107E-3
5.848589063E0,-2.734931000E-2,-1.182984188E-1,2.792526735E-3
5.852559375E0,-3.010693006E-2,-1.272170544E-1,6.021386012E-3
5.856529688E0,-3.083996847E-2,-1.337620318E-1,7.766715251E-3
5.860501563E0,-3.237585723E-2,-1.375842988E-1,1.092576142E-2
5.864471875E0,-3.307398781E-2,-1.381078959E-1,1.251401100E-2
5.868442188E0,-3.417354822E-2,-1.381078959E-1,1.261873078E-2
5.872412500E0,-3.413863853E-2,-1.344950646E-1,1.265363675E-2
5.876382813E0,-3.399901465E-2,-1.297826767E-1,1.008800324E-2
5.880353125E0,-3.364994749E-2,-1.219286993E-1,8.220500313E-3
5.884325000E0,-3.356268257E-2,-1.147728488E-1,2.321287990E-3
5.888295313E0,-3.293436393E-2,-1.101826355E-1,-5.585053586E-4
5.892265625E0,-3.248057887E-2,-1.062730998E-1,-4.782202188E-3
5.896235938E0,-3.174753860E-2,-1.049640998E-1,-9.634217247E-3
5.900206250E0,-3.005456924E-2,-1.073202938E-1,-1.647590846E-2
5.904176563E0,-2.780309506E-2,-1.111076623E-1,-2.022836544E-2
5.908148438E0,-2.797762863E-2,-1.148077548E-1,-2.405063622E-2
5.912117188E0,-2.785545401E-2,-1.148601174E-1,-2.686061710E-2
5.916087500E0,-2.904227935E-2,-1.100779176E-1,-3.059562109E-2
5.920059375E0,-2.874557301E-2,-1.030965969E-1,-3.459242731E-2
5.924029688E0,-3.031636961E-2,-9.615018964E-2,-3.728023171E-2
5.928000000E0,-3.073524870E-2,-8.651597053E-2,-4.054399952E-2
5.931970313E0,-3.265510872E-2,-7.752752304E-2,-4.199262336E-2
5.935940625E0,-3.541272879E-2,-6.871361285E-2,-4.462806880E-2
5.939910938E0,-4.033455998E-2,-6.009168550E-2,-4.667010531E-2
5.943881250E0,-4.630358517E-2,-5.454153940E-2,-4.871213809E-2
5.947851563E0,-5.176646635E-2,-4.977678880E-2,-4.909611121E-2
5.951823438E0,-5.679301545E-2,-4.897394031E-2,-4.920083284E-2
5.955793750E0,-6.293657422E-2,-5.089380220E-2,-4.831071198E-2
5.959764063E0,-6.979571283E-2,-5.438445881E-2,-4.792674258E-2
5.963734375E0,-7.489208132E-2,-5.710717291E-2,-4.572762549E-2
5.967706250E0,-7.969173044E-2,-6.007423252E-2,-4.260348529E-2
5.971675000E0,-8.499753475E-2,-6.522295624E-2,-4.028219730E-2
5.975646875E0,-8.894197643E-2,-6.972590089E-2,-3.485422581E-2
5.979617188E0,-9.238027781E-2,-7.705628872E-2,-3.253293782E-2
5.983587500E0,-9.388125688E-2,-8.454374969E-2,-2.816961333E-2
5.987557813E0,-9.487609565E-2,-9.327039123E-2,-2.506292798E-2
5.991528125E0,-9.559167922E-2,-1.026253626E-1,-2.139773592E-2
5.995498438E0,-9.562659264E-2,-1.109331250E-1,-1.984439418E-2
5.999468750E0,-9.517280012E-2,-1.185253114E-1,-1.928588748E-2
6.003439063E0,-9.491100162E-2,-1.221555918E-1,-1.778490469E-2
6.007410938E0,-9.318313003E-2,-1.253670007E-1,-1.844812930E-2
6.011381250E0,-9.349729121E-2,-1.266585439E-1,-2.028072625E-2
6.015351563E0,-9.311331809E-2,-1.245816052E-1,-2.104867063E-2
6.019321875E0,-9.286896884E-2,-1.210211292E-1,-2.502802201E-2
6.023292188E0,-9.084438533E-2,-1.163261905E-1,-2.696533687E-2
6.027264063E0,-8.820894361E-2,-1.100081056E-1,-3.092723340E-2
6.031232813E0,-8.616690338E-2,-1.041263416E-1,-3.481931984E-2
6.035204688E0,-8.457865566E-2,-1.001819000E-1,-3.869394958E-2
6.039175000E0,-8.386307210E-2,-9.765116870E-2,-4.195771366E-2
6.043143750E0,-8.217009902E-2,-9.698794782E-2,-4.462806880E-2
6.047115625E0,-8.309512585E-2,-9.742427617E-2,-4.937536269E-2
6.051085938E0,-8.559094369E-2,-9.723228961E-2,-5.363396928E-2
6.055056250E0,-8.655087650E-2,-9.793042392E-2,-5.820672959E-2
6.059028125E0,-8.934340626E-2,-9.993755072E-2,-6.061528623E-2
6.062996875E0,-9.232791513E-2,-1.008974835E-1,-6.197664142E-2
6.066968750E0,-9.597565234E-2,-1.014559865E-1,-6.473426521E-2
6.070939063E0,-9.798278660E-2,-1.021890268E-1,-6.501351297E-2
6.074909375E0,-1.003040746E-1,-1.013512686E-1,-6.538003683E-2
6.078879688E0,-1.025729999E-1,-1.006705910E-1,-6.518805027E-2
6.082850000E0,-1.031664088E-1,-1.004786044E-1,-6.407103688E-2
6.086820313E0,-1.024159193E-1,-1.001469940E-1,-6.243042648E-2
6.090792188E0,-1.011592820E-1,-9.765116870E-2,-6.080726907E-2
6.094760938E0,-1.005309671E-1,-9.669124335E-2,-5.796238407E-2
6.098732813E0,-9.946631640E-2,-9.178686142E-2,-5.527457595E-2
6.102701563E0,-1.000946313E-1,-8.326965570E-2,-5.155702680E-2
6.106673438E0,-1.023635566E-1,-7.487462461E-2,-4.998622835E-2
6.110643750E0,-1.038645431E-1,-6.667158008E-2,-4.806636646E-2
6.114614063E0,-1.060636565E-1,-6.347762793E-2,-4.471533373E-2
6.118585938E0,-1.082802266E-1,-6.159266829E-2,-4.277801886E-2
6.122554688E0,-1.106713265E-1,-6.260495633E-2,-4.138175771E-2
6.126526563E0,-1.120501384E-1,-6.497860700E-2,-3.949680179E-2
6.130496875E0,-1.121025011E-1,-7.070329040E-2,-3.932226822E-2
6.134467188E0,-1.112123802E-1,-7.988371700E-2,-3.790855035E-2
6.138437500E0,-1.102349982E-1,-8.995427191E-2,-3.588397056E-2
6.142407813E0,-1.089259982E-1,-1.026602685E-1,-3.476695716E-2
6.146379688E0,-1.072330326E-1,-1.159073189E-1,-3.356268257E-2
6.150350000E0,-1.051211804E-1,-1.256986111E-1,-3.174753860E-2
6.154320313E0,-1.048768312E-1,-1.338143945E-1,-3.277728334E-2
6.158290625E0,-1.033234894E-1,-1.392423660E-1,-3.183480725E-2
6.162260938E0,-1.012465507E-1,-1.421570629E-1,-3.220132366E-2
6.166231250E0,-9.904743731E-2,-1.442689151E-1,-3.410373256E-2
6.170201563E0,-9.878563881E-2,-1.458746195E-1,-3.670427576E-2
6.174173438E0,-9.855873883E-2,-1.466076523E-1,-4.038691893E-2
6.178142188E0,-9.819222242E-2,-1.481435448E-1,-4.495968297E-2
6.182112500E0,-9.946631640E-2,-1.518611014E-1,-5.007349700E-2
6.186084375E0,-1.014559865E-1,-1.567305624E-1,-5.487314984E-2
6.190054688E0,-1.027126238E-1,-1.617745608E-1,-5.927138031E-2
6.194025000E0,-1.034980267E-1,-1.656492054E-1,-6.298892945E-2
6.197996875E0,-1.020494029E-1,-1.692096740E-1,-6.651449949E-2
6.201965625E0,-9.866346419E-2,-1.737475246E-1,-6.834709644E-2
6.205935938E0,-9.386380762E-2,-1.797514558E-1,-6.820746511E-2
6.209907813E0,-8.944812417E-2,-1.841845959E-1,-6.921976060E-2
6.213878125E0,-8.695230633E-2,-1.868374944E-1,-7.040657848E-2
6.217848438E0,-8.388052136E-2,-1.917418689E-1,-6.860889494E-2
6.221818750E0,-7.916813344E-2,-2.018996924E-1,-6.361725181E-2
6.225789063E0,-7.703883201E-2,-2.129999846E-1,-6.005677953E-2
6.229759375E0,-7.799876481E-2,-2.152863592E-1,-5.777039751E-2
6.233731250E0,-7.929030806E-2,-2.124240249E-1,-5.567600206E-2
6.237701563E0,-8.173377067E-2,-2.106088847E-1,-5.286602303E-2
6.241670313E0,-8.403760195E-2,-2.089333683E-1,-4.852015153E-2
6.245642188E0,-8.642870188E-2,-2.094046026E-1,-4.468042776E-2
6.249612500E0,-9.023351967E-2,-2.084795833E-1,-4.021238536E-2
6.253582813E0,-9.346237779E-2,-2.055125237E-1,-3.663446009E-2
6.257554688E0,-9.642943740E-2,-2.020393163E-1,-3.391174600E-2
6.261523438E0,-9.990264475E-2,-1.966287941E-1,-2.988003753E-2
6.265495313E0,-1.020144969E-1,-1.936966330E-1,-2.581341937E-2
6.269465625E0,-1.034631208E-1,-1.879719645E-1,-2.295107953E-2
6.273435938E0,-1.052084491E-1,-1.803099662E-1,-2.174680308E-2
6.277406250E0,-1.071632132E-1,-1.736253500E-1,-2.068215236E-2
6.281376563E0,-1.064650863E-1,-1.670803726E-1,-2.087413706E-2
6.285346875E0,-1.037249193E-1,-1.619141996E-1,-1.895427518E-2
6.289318750E0,-9.925687313E-2,-1.572541595E-1,-1.965240762E-2
6.293289063E0,-9.431759268E-2,-1.543743759E-1,-1.939060725E-2
6.297259375E0,-9.136798233E-2,-1.524370611E-1,-1.932079531E-2
6.301229688E0,-8.578293025E-2,-1.516167521E-1,-1.900663599E-2
6.305200000E0,-8.147197217E-2,-1.517040133E-1,-1.832595654E-2
6.309170313E0,-7.794640213E-2,-1.535366178E-1,-1.738347858E-2
6.313140625E0,-7.386233658E-2,-1.535540670E-1,-1.413716655E-2
6.317112500E0,-7.009242475E-2,-1.520705372E-1,-1.192059834E-2
6.321081250E0,-6.414084882E-2,-1.476199478E-1,-8.639379404E-3
6.325053125E0,-6.047565863E-2,-1.447925121E-1,-5.375613924E-3
6.329023438E0,-5.546656251E-2,-1.437453181E-1,-1.675516134E-3
6.332993750E0,-5.234242231E-2,-1.463458538E-1,1.082104165E-3
6.336964063E0,-5.092870817E-2,-1.491209269E-1,4.363323096E-3
6.340934375E0,-5.220279843E-2,-1.504648328E-1,6.876597181E-3
6.344904688E0,-5.375614017E-2,-1.503601074E-1,8.447393775E-3
6.348876563E0,-5.536184460E-2,-1.473232359E-1,9.005898610E-3
6.352846875E0,-5.698499829E-2,-1.427679360E-1,9.302604944E-3
6.356817188E0,-5.649630725E-2,-1.367465407E-1,7.871435024E-3
6.360787500E0,-5.698499829E-2,-1.330813617E-1,6.894050632E-3
6.364757813E0,-5.454153940E-2,-1.316676438E-1,6.928957067E-3
6.368728125E0,-5.284857005E-2,-1.322086900E-1,6.195918657E-3
6.372700000E0,-5.286602303E-2,-1.338492930E-1,5.550147034E-3
6.376670313E0,-5.152212083E-2,-1.357866228E-1,3.874630900E-3
6.380639063E0,-5.101597309E-2,-1.374970376E-1,3.595378250E-3
6.384610938E0,-5.028293654E-2,-1.365894675E-1,4.415682983E-3
6.388581250E0,-4.963716492E-2,-1.309345961E-1,6.143558770E-3
6.392551563E0,-4.857251421E-2,-1.246339604E-1,9.145525284E-3
6.396551563E0,-4.722860828E-2,-1.151742786E-1,1.324704941E-2
6.400492188E0,-4.417428374E-2,-1.036725566E-1,1.928588748E-2
6.404462500E0,-4.066617042E-2,-8.833111078E-2,2.626720443E-2
6.408434375E0,-3.644247353E-2,-7.122688740E-2,3.441789374E-2
6.412404688E0,-3.127630055E-2,-5.277875811E-2,4.391248524E-2
6.416375000E0,-2.647664398E-2,-3.591887653E-2,5.302310362E-2
6.420345313E0,-2.295107953E-2,-2.309070528E-2,6.366961449E-2
6.424315625E0,-2.263692021E-2,-1.237438433E-2,7.503170520E-2
6.428285938E0,-2.691297606E-2,-6.719517522E-3,8.491026610E-2
6.432257813E0,-3.556980938E-2,-8.726646192E-4,9.546951205E-2
6.436228125E0,-4.686209187E-2,2.740166849E-3,1.049990058E-1
6.440198438E0,-5.897467583E-2,6.091198884E-3,1.130449772E-1
6.444168750E0,-7.117452472E-2,5.462880712E-3,1.151568219E-1
6.448139063E0,-8.264134079E-2,-5.585053586E-4,1.126959100E-1
6.452109375E0,-8.984954655E-2,-1.192059834E-2,1.063254550E-1
6.456079688E0,-9.203121066E-2,-2.434734255E-2,9.955357760E-2
6.460050000E0,-8.972737938E-2,-4.131194204E-2,9.086184204E-2
6.464021875E0,-8.311257511E-2,-5.745624006E-2,8.166395873E-2
6.467992188E0,-7.597418129E-2,-6.981316954E-2,7.550293952E-2
6.471962500E0,-6.642723083E-2,-7.274532318E-2,7.223917544E-2
6.475932813E0,-5.625196174E-2,-6.506587565E-2,7.319910824E-2
6.479903125E0,-4.607669264E-2,-4.380776361E-2,8.080874383E-2
6.483873438E0,-3.860668465E-2,-1.012290921E-2,9.334021062E-2
6.487845313E0,-3.003711626E-2,3.328342736E-2,1.113694608E-1
6.491815625E0,-2.312561311E-2,8.660323918E-2,1.348790377E-1
6.495785938E0,-1.802925020E-2,1.430995464E-1,1.614778638E-1
6.499756250E0,-1.111774705E-2,2.028596252E-1,1.943075061E-1
6.503726563E0,-4.049163777E-3,2.536486983E-1,2.230530828E-1
6.507696875E0,4.398229532E-3,2.976135314E-1,2.531076372E-1
6.511668750E0,1.548107062E-2,3.265511096E-1,2.791654170E-1
6.515639063E0,2.951351739E-2,3.420670927E-1,3.029716909E-1
6.519607813E0,4.792674258E-2,3.429571986E-1,3.267954588E-1
6.523579688E0,6.897541136E-2,3.332531750E-1,3.485073447E-1
6.527550000E0,9.267698228E-2,3.177720904E-1,3.720867336E-1
6.531520313E0,1.217367128E-1,2.961125672E-1,3.953868747E-1
6.535490625E0,1.518959999E-1,2.690948546E-1,4.190710187E-1
6.539460938E0,1.873087287E-1,2.381152660E-1,4.397007823E-1
6.543431250E0,2.258979678E-1,1.972396523E-1,4.571366310E-1
6.547403125E0,2.660579979E-1,1.433787942E-1,4.683067501E-1
6.551371875E0,3.102497160E-1,8.101818711E-2,4.698600769E-1
6.555343750E0,3.518932760E-1,7.539822254E-3,4.649906158E-1
6.559314063E0,3.880390525E-1,-7.661995292E-2,4.527384043E-1
6.563284375E0,4.176223874E-1,-1.611986160E-1,4.355469048E-1
6.567254688E0,4.483750761E-1,-2.386737764E-1,4.137477577E-1
6.571226563E0,4.831769466E-1,-2.918539643E-1,3.909013867E-1
6.575195313E0,5.262516737E-1,-3.112969100E-1,3.655242920E-1
6.579165625E0,5.850692987E-1,-3.026575446E-1,3.372499645E-1
6.583137500E0,6.604500413E-1,-2.683443725E-1,3.012612760E-1
6.587107813E0,7.449763417E-1,-2.077639997E-1,2.616248429E-1
6.591078125E0,8.410916328E-1,-1.311614960E-1,2.210284919E-1
6.595048438E0,9.360375404E-1,-4.445353523E-2,1.810779124E-1
6.599018750E0,1.032414556E0,3.984586522E-2,1.471836120E-1
6.602990625E0,1.121217012E0,1.038470864E-1,1.228362694E-1
6.606960938E0,1.203264832E0,1.383173466E-1,1.127133593E-1
6.610931250E0,1.271158218E0,1.418603659E-1,1.209164113E-1
6.614901563E0,1.309956908E0,1.411098689E-1,1.397659630E-1
6.618871875E0,1.323832273E0,1.548979729E-1,1.618443877E-1
6.622842188E0,1.319154739E0,1.720545590E-1,1.859822869E-1
6.626812500E0,1.307094574E0,1.794023961E-1,2.103296220E-1
6.630784375E0,1.287529349E0,1.811651736E-1,2.365444750E-1
6.634754688E0,1.263775468E0,1.847780049E-1,2.606998384E-1
6.638725000E0,1.231225014E0,1.900838017E-1,2.819055915E-1
6.642695313E0,1.198657274E0,2.007826716E-1,2.979800701E-1
6.646665625E0,1.162162423E0,2.177298218E-1,3.069859743E-1
6.650635938E0,1.128407717E0,2.391624600E-1,3.055722415E-1
6.654606250E0,1.100342870E0,2.665815949E-1,2.957111299E-1
6.658576563E0,1.073447347E0,2.990098000E-1,2.796017528E-1
6.662548438E0,1.047040462E0,3.348763287E-1,2.598795295E-1
6.666518750E0,1.021174669E0,3.732735515E-1,2.333679795E-1
6.670489063E0,9.901950955E-1,4.153360128E-1,2.064375430E-1
6.674459375E0,9.587791562E-1,4.639434218E-1,1.807463020E-1
6.678429688E0,9.274156094E-1,5.195146799E-1,1.653001308E-1
6.682400000E0,8.932071328E-1,5.654866695E-1,1.642878354E-1
6.686371875E0,8.565726876E-1,5.984035730E-1,1.692969352E-1
6.690340625E0,8.250345588E-1,6.157172322E-1,1.685115397E-1
6.694312500E0,8.043175340E-1,6.143559217E-1,1.550725102E-1
6.698282813E0,7.873354554E-1,6.055594087E-1,1.406909972E-1
6.702253125E0,7.738789916E-1,6.029589176E-1,1.416160166E-1
6.706223438E0,7.666009665E-1,6.123661995E-1,1.519483626E-1
6.710195313E0,7.719067931E-1,6.193475127E-1,1.633802652E-1
6.714164063E0,7.912101150E-1,6.175673008E-1,1.747772694E-1
6.718134375E0,8.177914619E-1,5.984385014E-1,1.906946748E-1
6.722106250E0,8.412836194E-1,5.633573532E-1,2.050936371E-1
6.726076563E0,8.621577621E-1,5.170014501E-1,2.168222517E-1
6.730046875E0,8.757364154E-1,4.686383605E-1,2.287603021E-1
6.734017188E0,8.825955391E-1,4.286179543E-1,2.317448109E-1
6.737987500E0,8.839219809E-1,3.957534134E-1,2.273989469E-1
6.741957813E0,8.802044392E-1,3.706206679E-1,2.193180770E-1
6.745929688E0,8.727518916E-1,3.556457460E-1,2.089508176E-1
6.749898438E0,8.631350994E-1,3.461686075E-1,1.960179210E-1
6.753870313E0,8.528027534E-1,3.430968225E-1,1.799783558E-1
6.757840625E0,8.410741687E-1,3.451563120E-1,1.606051922E-1
6.761810938E0,8.289964795E-1,3.557853699E-1,1.414065808E-1
6.765781250E0,8.158890605E-1,3.728546798E-1,1.226966456E-1
6.769751563E0,8.031481504E-1,3.982143104E-1,1.038121805E-1
6.773721875E0,7.906516194E-1,4.301363826E-1,8.534660190E-2
6.777692188E0,7.780503035E-1,4.686907232E-1,6.653194875E-2
6.781664063E0,7.667929530E-1,5.121843219E-1,4.972442985E-2
6.785634375E0,7.545232773E-1,5.630955696E-1,2.204350755E-2
6.789604688E0,7.448541522E-1,6.155252457E-1,-5.061454605E-3
6.793575000E0,7.397577763E-1,6.597693563E-1,-1.846558414E-2
6.797545313E0,7.382917404E-1,6.833662391E-1,-2.434734255E-2
6.801515625E0,7.392516732E-1,6.866474152E-1,-3.370230645E-2
6.805487500E0,7.419220209E-1,6.765070558E-1,-4.803146049E-2
6.809456250E0,7.417125702E-1,6.645166278E-1,-5.946336687E-2
6.813428125E0,7.407701015E-1,6.585127115E-1,-6.499606371E-2
6.817398438E0,7.331430316E-1,6.559121609E-1,-6.674139202E-2
6.821368750E0,7.207686305E-1,6.528229713E-1,-6.914994121E-2
6.825339063E0,6.996327043E-1,6.493148208E-1,-7.218682021E-2
6.829309375E0,6.715503335E-1,6.443231702E-1,-7.644542307E-2
6.833279688E0,6.366612315E-1,6.413735747E-1,-7.785914093E-2
6.837250000E0,5.943020582E-1,6.421066523E-1,-7.777187228E-2
6.841221875E0,5.501452088E-1,6.440963149E-1,-7.805112749E-2
6.845192188E0,5.008396506E-1,6.497337222E-1,-7.737044245E-2
6.849162500E0,4.509581625E-1,6.540796161E-1,-7.342600077E-2
6.853132813E0,4.030314386E-1,6.582159996E-1,-6.908012927E-2
6.857103125E0,3.565009534E-1,6.606420279E-1,-6.403613091E-2
6.861075000E0,3.105115294E-1,6.638360023E-1,-5.806710571E-2
6.865045313E0,2.633003592E-1,6.657384038E-1,-5.229006335E-2
6.869015625E0,2.213252038E-1,6.657732725E-1,-4.790928960E-2
6.872985938E0,1.814793348E-1,6.651799083E-1,-4.136430472E-2
6.876956250E0,1.459444314E-1,6.698224545E-1,-3.543018550E-2
6.880926563E0,1.174257547E-1,6.861063838E-1,-2.532472648E-2
6.884898438E0,9.176941216E-2,6.993883252E-1,-1.228711754E-2
6.888868750E0,7.093018293E-2,7.097730637E-1,4.363323096E-4
6.892837500E0,5.434955284E-2,7.219554186E-1,1.022762898E-2
6.896809375E0,4.204498231E-2,7.389724255E-1,1.909390278E-2
6.900779688E0,3.342305496E-2,7.589215040E-1,2.682571113E-2
6.904750000E0,2.816961333E-2,7.820471525E-1,3.576179594E-2
6.908720313E0,2.590068616E-2,8.049284220E-1,4.412192479E-2
6.912690625E0,2.576106042E-2,8.226434588E-1,5.171410739E-2
6.916660938E0,3.097959422E-2,8.325394988E-1,5.852089077E-2
6.920632813E0,3.867649660E-2,8.304625750E-1,5.998696759E-2
6.924601563E0,4.986405745E-2,8.139517307E-1,5.873033032E-2
6.928573438E0,6.061528623E-2,7.869166136E-1,5.190609023E-2
6.932543750E0,7.138396800E-2,7.419568896E-1,3.914773464E-2
6.936514063E0,8.382816613E-2,6.870139241E-1,2.167698927E-2
6.940484375E0,9.309586138E-2,6.300638318E-1,1.047197584E-4
6.944456250E0,1.006356850E-1,5.745798349E-1,-1.905899495E-2
6.948425000E0,1.032013148E-1,5.304579139E-1,-3.127630055E-2
6.952396875E0,1.041787043E-1,4.933522046E-1,-4.078834504E-2
6.956367188E0,1.008102149E-1,4.636641741E-1,-5.424483120E-2
6.960337500E0,9.827949107E-2,4.446226358E-1,-6.890559942E-2
6.964307813E0,9.761626273E-2,4.342553616E-1,-8.852309734E-2
6.968278125E0,9.714502841E-2,4.273264110E-1,-1.123119369E-1
6.972248438E0,1.025729999E-1,4.304854572E-1,-1.365720183E-1
6.976218750E0,1.067268848E-1,4.420046210E-1,-1.612684280E-1
6.980210938E0,1.100604609E-1,4.569097459E-1,-1.842718571E-1
6.984160938E0,1.110727564E-1,4.653222263E-1,-2.039591819E-1
6.988131250E0,1.104269847E-1,4.646590054E-1,-2.203827202E-1
6.992101563E0,1.089085415E-1,4.584456384E-1,-2.371553332E-1
6.996071875E0,1.104793400E-1,4.566653967E-1,-2.514670491E-1
7.000042188E0,1.117883399E-1,4.670326412E-1,-2.547657192E-1
7.004014063E0,1.146855876E-1,4.936663806E-1,-2.470338941E-1
7.007982813E0,1.188918278E-1,5.411044359E-1,-2.337170392E-1
7.011954688E0,1.248259470E-1,6.039013863E-1,-2.126509100E-1
7.015925000E0,1.334304214E-1,6.810798049E-1,-1.854761392E-1
7.019895313E0,1.389980167E-1,7.710864544E-1,-1.556484550E-1
7.023865625E0,1.421047002E-1,8.676904440E-1,-1.228886321E-1
7.027835938E0,1.367465407E-1,9.535606503E-1,-9.131562710E-2
7.031806250E0,1.231678873E-1,1.025642753E0,-5.749114603E-2
7.035776563E0,1.019970402E-1,1.090621352E0,-2.759365551E-2
7.039746875E0,8.007570356E-2,1.147466660E0,-3.089232836E-3
7.043717188E0,5.914920941E-2,1.195864677E0,1.818633080E-2
7.047687500E0,4.148647562E-2,1.219339371E0,2.886774577E-2
7.051659375E0,3.207915276E-2,1.218379498E0,2.593559213E-2
7.055629688E0,3.082251363E-2,1.193613172E0,1.401499379E-2
7.059601563E0,3.921754658E-2,1.143033624E0,-3.822271014E-3
7.063570313E0,5.721189082E-2,1.067827344E0,-2.729694918E-2
7.067540625E0,8.478809148E-2,9.891828299E-1,-5.478588492E-2
7.071512500E0,1.183333248E-1,9.159662127E-1,-8.995427191E-2
7.075482813E0,1.546361744E-1,8.646535873E-1,-1.332907975E-1
7.079453125E0,1.857728511E-1,8.362395763E-1,-1.825265288E-1
7.083423438E0,2.091078907E-1,8.187513947E-1,-2.352529317E-1
7.087393750E0,2.246587873E-1,8.053297997E-1,-2.884680033E-1
7.091364063E0,2.272418737E-1,7.881208658E-1,-3.420670927E-1
7.095334375E0,2.108881325E-1,7.648207545E-1,-3.954741657E-1
7.099306250E0,1.847954541E-1,7.420267463E-1,-4.425282180E-1
7.103276563E0,1.466774642E-1,7.153232098E-1,-4.882034957E-1
7.107246875E0,9.866346419E-2,6.872932315E-1,-5.332329869E-1
7.111217188E0,4.127703607E-2,6.507809162E-1,-5.788558722E-1
7.115187500E0,-2.408554405E-2,5.998696685E-1,-6.303256750E-1
7.119159375E0,-1.031489596E-1,5.287998319E-1,-6.852861047E-1
7.123129688E0,-1.823345423E-1,4.512374103E-1,-7.377157807E-1
7.127100000E0,-2.740166783E-1,3.673568964E-1,-7.908261418E-1
7.131070313E0,-3.683691919E-1,2.848028243E-1,-8.450011611E-1
7.135040625E0,-4.688477814E-1,2.116560787E-1,-8.928580880E-1
7.139010938E0,-5.616120696E-1,1.446878016E-1,-9.348506927E-1
7.142981250E0,-6.444977522E-1,8.599237353E-2,-9.724276662E-1
7.146951563E0,-7.060031295E-1,3.652974218E-2,-1.004960537E0
7.150923438E0,-7.465994954E-1,2.216568217E-3,-1.034980297E0
7.154892188E0,-7.664962411E-1,-1.134464052E-3,-1.064458847E0
7.158864063E0,-7.640178800E-1,3.211405873E-2,-1.094897389E0
7.162834375E0,-7.421488762E-1,1.080707833E-1,-1.122979760E0
7.166804688E0,-7.075215578E-1,2.015506178E-1,-1.144185543E0
7.170775000E0,-6.617939472E-1,3.059911132E-1,-1.150905013E0
7.174745313E0,-6.010739207E-1,3.867126107E-1,-1.143644452E0
7.178717188E0,-5.402143002E-1,4.280943573E-1,-1.121880174E0
7.182685938E0,-4.834038317E-1,4.250225723E-1,-1.083238602E0
7.186657813E0,-4.299094975E-1,3.984586596E-1,-1.032519341E0
7.190628125E0,-3.868871331E-1,3.611086309E-1,-9.735097289E-1
7.194598438E0,-3.598694503E-1,3.200584650E-1,-9.090547562E-1
7.198568750E0,-3.535687923E-1,2.839127183E-1,-8.389623165E-1
7.202539063E0,-3.713362515E-1,2.615201473E-1,-7.686255574E-1
7.206509375E0,-4.182681441E-1,2.580992877E-1,-6.951471567E-1
7.210481250E0,-4.833514690E-1,2.614503205E-1,-6.278298497E-1
7.214451563E0,-5.584355593E-1,2.346595228E-1,-5.783497691E-1
7.218421875E0,-6.218608022E-1,1.686686128E-1,-5.530948639E-1
7.222392188E0,-6.641327143E-1,5.708971992E-2,-5.411219001E-1
7.226362500E0,-6.906442642E-1,-8.398524672E-2,-5.318367481E-1
7.230332813E0,-7.065965533E-1,-2.436654121E-1,-5.158669949E-1
7.234303125E0,-7.131589651E-1,-4.177445471E-1,-4.975584745E-1
7.238275000E0,-7.109598517E-1,-5.876174569E-1,-4.801226258E-1
7.242243750E0,-7.027044892E-1,-7.507184744E-1,-4.725653529E-1
7.246215625E0,-6.913598180E-1,-8.780227900E-1,-4.749564528E-1
7.250185938E0,-6.813241839E-1,-9.631425142E-1,-4.805589616E-1
7.254156250E0,-6.717946529E-1,-1.006862998E0,-4.784296453E-1
7.258126563E0,-6.638708711E-1,-1.002778888E0,-4.625122547E-1
7.262096875E0,-6.627189517E-1,-9.339780211E-1,-4.291590154E-1
7.266068750E0,-6.607642174E-1,-8.414756060E-1,-3.923151195E-1
7.270039063E0,-6.534861922E-1,-7.576997876E-1,-3.536386192E-1
7.274009375E0,-6.342875361E-1,-7.168591022E-1,-3.181037009E-1
7.277979688E0,-5.981243253E-1,-7.317991257E-1,-2.817659676E-1
7.281950000E0,-5.695358515E-1,-7.493571043E-1,-2.481858134E-1
7.285931250E0,-5.571265221E-1,-7.386931777E-1,-2.353401929E-1
7.289892188E0,-5.421690941E-1,-7.211351395E-1,-2.515717447E-1
7.293860938E0,-5.086238384E-1,-7.330731750E-1,-2.874208093E-1
7.297832813E0,-4.637514353E-1,-7.867769599E-1,-3.267430961E-1
7.301803125E0,-4.104839861E-1,-8.650898933E-1,-3.580717444E-1
7.305773438E0,-3.708475530E-1,-9.282882810E-1,-3.909013867E-1
7.309743750E0,-3.418401778E-1,-9.703681469E-1,-4.333477914E-1
7.313714063E0,-3.304955363E-1,-9.696176648E-1,-4.793372154E-1
7.317684375E0,-3.441091180E-1,-9.266651273E-1,-5.223596096E-1
7.321654688E0,-3.783699274E-1,-8.529947400E-1,-5.525537729E-1
7.325626563E0,-4.417777359E-1,-7.484146357E-1,-5.659928322E-1
7.329596875E0,-5.331282616E-1,-6.287025213E-1,-5.636191964E-1
7.333567188E0,-6.350729465E-1,-5.247681737E-1,-5.488536954E-1
7.337537500E0,-7.396705151E-1,-4.505043924E-1,-5.285729766E-1
7.341507813E0,-8.390495777E-1,-4.167148173E-1,-5.098979473E-1
7.345478125E0,-9.113411307E-1,-4.179714620E-1,-4.996004999E-1
7.349450000E0,-9.494765401E-1,-4.515864849E-1,-4.963018298E-1
7.353418750E0,-9.532290101E-1,-5.231100917E-1,-5.040161610E-1
7.357390625E0,-9.299812317E-1,-6.105685234E-1,-5.216963887E-1
7.361360938E0,-8.883551359E-1,-7.008369565E-1,-5.445252657E-1
7.365331250E0,-8.389797807E-1,-7.683811784E-1,-5.696056485E-1
7.369301563E0,-7.901105285E-1,-7.882430553E-1,-5.931501389E-1
7.373271875E0,-7.495141625E-1,-7.765493393E-1,-6.174975038E-1
7.377242188E0,-7.104886174E-1,-7.465296984E-1,-6.428222060E-1
7.381212500E0,-6.655464172E-1,-7.198610306E-1,-6.733480096E-1
7.385184375E0,-6.135006547E-1,-7.204021215E-1,-7.106457353E-1
7.389182813E0,-5.540024042E-1,-7.656933665E-1,-7.611730099E-1
7.393125000E0,-4.943819642E-1,-8.598539233E-1,-8.183150887E-1
7.397095313E0,-4.481132925E-1,-9.830043316E-1,-8.741655946E-1
7.401065625E0,-4.185648561E-1,-1.136279106E0,-9.164375067E-1
7.405035938E0,-4.149345756E-1,-1.282345772E0,-9.405579567E-1
7.409007813E0,-4.355120063E-1,-1.397153497E0,-9.453401566E-1
7.412976563E0,-4.765447080E-1,-1.462952375E0,-9.449037910E-1
7.416946875E0,-5.325872302E-1,-1.490319133E0,-9.461429715E-1
7.420918750E0,-5.961171985E-1,-1.485414863E0,-9.547474384E-1
7.424889063E0,-6.563485265E-1,-1.451328516E0,-9.705426693E-1
7.428860938E0,-7.119547129E-1,-1.392284036E0,-9.912073612E-1
7.432829688E0,-7.582059503E-1,-1.313081026E0,-1.004611492E0
7.436800000E0,-7.890807986E-1,-1.225395679E0,-1.007037520E0
7.440771875E0,-8.063246608E-1,-1.155861735E0,-1.005850673E0
7.444742188E0,-8.124682307E-1,-1.106259465E0,-1.008992314E0
7.448712500E0,-8.125554919E-1,-1.074232697E0,-1.018399596E0
7.452682813E0,-8.145276904E-1,-1.052328825E0,-1.027492762E0
7.456653125E0,-8.231670856E-1,-1.031890988E0,-1.030913591E0
7.460623438E0,-8.422784209E-1,-1.004122853E0,-1.026689887E0
7.464595313E0,-8.663814664E-1,-9.749060273E-1,-1.018364668E0
7.468565625E0,-8.999091983E-1,-9.385508299E-1,-1.006548882E0
7.472534375E0,-9.431235790E-1,-8.891928792E-1,-9.881181717E-1
7.476506250E0,-9.944187999E-1,-8.212297559E-1,-9.602975845E-1
7.480476563E0,-1.053585410E0,-7.393912673E-1,-9.263858795E-1
7.484446875E0,-1.116417289E0,-6.445500851E-1,-8.887914419E-1
7.488417188E0,-1.179161906E0,-5.436700583E-1,-8.527853489E-1
7.492387500E0,-1.240545154E0,-4.536634386E-1,-8.217184544E-1
7.496357813E0,-1.291613460E0,-3.966086209E-1,-7.964635491E-1
7.500329688E0,-1.340011477E0,-3.706032038E-1,-7.748214602E-1
7.504300000E0,-1.378059626E0,-3.730117679E-1,-7.565478683E-1
7.508270313E0,-1.408463240E0,-3.915646076E-1,-7.416776419E-1
7.512240625E0,-1.432356834E0,-4.162784815E-1,-7.314849496E-1
7.516210938E0,-1.446546316E0,-4.386885166E-1,-7.249224782E-1
7.520181250E0,-1.450717688E0,-4.633325636E-1,-7.220078111E-1
7.524153125E0,-1.447122335E0,-4.882907569E-1,-7.192850709E-1
7.528121875E0,-1.438517809E0,-5.200732350E-1,-7.115183473E-1
7.532092188E0,-1.425427794E0,-5.625196099E-1,-7.009067535E-1
7.536064063E0,-1.409213781E0,-6.187541485E-1,-6.862459779E-1
7.540034375E0,-1.391132116E0,-6.931574941E-1,-6.694734097E-1
7.544004688E0,-1.375127435E0,-7.818027735E-1,-6.542541385E-1
7.547976563E0,-1.363730431E0,-8.812690973E-1,-6.421589851E-1
7.551945313E0,-1.354131103E0,-9.872629642E-1,-6.359979510E-1
7.555915625E0,-1.347132325E0,-1.098004103E0,-6.342352033E-1
7.559887500E0,-1.338527918E0,-1.202741265E0,-6.339384913E-1
7.563857813E0,-1.329207897E0,-1.307740331E0,-6.346017122E-1
7.567828125E0,-1.315943360E0,-1.414432287E0,-6.320709586E-1
7.571798438E0,-1.295924425E0,-1.510599971E0,-6.264510155E-1
7.575768750E0,-1.266026974E0,-1.592752576E0,-6.156474352E-1
7.579739063E0,-1.224208832E0,-1.655252814E0,-5.992937088E-1
7.583710938E0,-1.169824362E0,-1.699095488E0,-5.768138766E-1
7.587681250E0,-1.102175474E0,-1.725135803E0,-5.434082747E-1
7.591651563E0,-1.022536039E0,-1.729970336E0,-5.005255342E-1
7.595621875E0,-9.365960360E-1,-1.716478944E0,-4.438895881E-1
7.599592188E0,-8.378627300E-1,-1.687227249E0,-3.791553378E-1
7.603562500E0,-7.368256450E-1,-1.644344449E0,-3.101624548E-1
7.607534375E0,-6.311808825E-1,-1.593433261E0,-2.298773080E-1
7.611503125E0,-5.322730541E-1,-1.531421661E0,-1.470789015E-1
7.615475000E0,-4.272915125E-1,-1.449583173E0,-7.065092772E-2
7.619445313E0,-3.175975680E-1,-1.363974810E0,-1.685987972E-2
7.623415625E0,-2.093696892E-1,-1.275277138E0,2.076941729E-2
7.627385938E0,-9.683086723E-2,-1.170260668E0,5.345943570E-2
7.631356250E0,1.602212340E-2,-1.047738552E0,8.065166324E-2
7.635326563E0,1.217716187E-1,-9.083216786E-1,1.003913358E-1
7.639298438E0,2.394940853E-1,-7.516086102E-1,1.213178337E-1
7.643268750E0,3.551570475E-1,-5.790304542E-1,1.508662552E-1
7.647239063E0,4.575031698E-1,-4.302760065E-1,1.943773180E-1
7.651209375E0,5.707401037E-1,-2.683269083E-1,2.553940415E-1
7.655179688E0,6.897192001E-1,-1.146681309E-1,3.282440603E-1
7.659150000E0,8.203570843E-1,3.221877664E-2,4.042706192E-1
7.663120313E0,9.590235353E-1,1.706059277E-1,4.739266932E-1
7.667092188E0,1.116085649E0,3.170565069E-1,5.464276671E-1
7.671060938E0,1.293533325E0,4.733856618E-1,6.198362112E-1
7.675032813E0,1.480091572E0,6.410419941E-1,7.017096281E-1
7.679003125E0,1.679443121E0,7.972140312E-1,7.934964895E-1
7.682973438E0,1.870556593E0,9.433330297E-1,9.008516669E-1
7.686943750E0,2.045299053E0,1.078055024E0,1.024106860E0
7.690914063E0,2.193407536E0,1.194625497E0,1.163436532E0
7.694884375E0,2.298860312E0,1.276830554E0,1.301823616E0
7.698856250E0,2.379023314E0,1.326258183E0,1.459077835E0
7.702826563E0,2.439952850E0,1.335246682E0,1.634047031E0
7.706796875E0,2.488664865E0,1.307461023E0,1.803867579E0
7.710767188E0,2.526800394E0,1.255799294E0,1.971314430E0
7.714737500E0,2.552544117E0,1.199704409E0,2.135078669E0
7.718707813E0,2.565738678E0,1.160521746E0,2.281634092E0
7.722679688E0,2.572335958E0,1.136471152E0,2.411556244E0
7.726650000E0,2.571341276E0,1.119070172E0,2.522786140E0
7.730618750E0,2.569124699E0,1.104898095E0,2.621606588E0
7.734590625E0,2.565529346E0,1.087968469E0,2.717250824E0
7.738560938E0,2.555720568E0,1.078857780E0,2.815146208E0
7.742531250E0,2.533903837E0,1.081318736E0,2.909516096E0
7.746503125E0,2.495105267E0,1.095036983E0,2.993099928E0
7.750471875E0,2.439830542E0,1.105282068E0,3.069266081E0
7.754443750E0,2.370628357E0,1.096660137E0,3.129008770E0
7.758414063E0,2.259189129E0,1.054580331E0,3.157562494E0
7.762384375E0,2.102668047E0,9.875072837E-1,3.151000023E0
7.766354688E0,1.906405687E0,9.486213326E-1,3.085811853E0
7.770325000E0,1.714890718E0,9.452877641E-1,2.948733807E0
7.774295313E0,1.551842093E0,9.517978430E-1,2.726727962E0
7.778265625E0,1.439041376E0,9.703332186E-1,2.408048153E0
7.782237500E0,1.404606104E0,9.969146252E-1,1.998873234E0
7.786207813E0,1.467437983E0,9.671741724E-1,1.571826100E0
7.790178125E0,1.635094285E0,8.729613423E-1,1.155652285E0
7.794148438E0,1.871481657E0,7.522019744E-1,7.765318751E-1
7.798118750E0,2.178240776E0,6.163979173E-1,4.622679055E-1
7.802089063E0,2.500219107E0,4.857774973E-1,2.103121728E-1
7.806059375E0,2.827677727E0,3.865380585E-1,2.649409883E-2
7.810029688E0,3.120805740E0,3.457322717E-1,-9.756390750E-2
7.814001563E0,3.369707108E0,3.689626157E-1,-1.737475246E-1
7.817971875E0,3.545810938E0,4.566130340E-1,-1.913404465E-1
7.821942188E0,3.642763853E0,5.686107874E-1,-1.647416204E-1
7.825912500E0,3.673900604E0,6.883229613E-1,-1.219636053E-1
7.829882813E0,3.647389174E0,7.912101150E-1,-8.051203936E-2
7.833853125E0,3.583108664E0,8.752127886E-1,-5.089380220E-2
7.837825000E0,3.491216898E0,9.460382462E-1,-3.895574808E-2
7.841793750E0,3.388958216E0,1.014175892E0,-4.564036056E-2
7.845765625E0,3.273347616E0,1.083273530E0,-6.843435764E-2
7.849735938E0,3.148835659E0,1.155739546E0,-1.026951745E-1
7.853706250E0,3.006451845E0,1.256986141E0,-1.509186178E-1
7.857676563E0,2.853613377E0,1.399701715E0,-2.106088847E-1
7.861648438E0,2.685956955E0,1.574967623E0,-2.403841913E-1
7.865617188E0,2.501615286E0,1.785052896E0,-2.291791886E-1
