"Time (s)","Acceleration x (m/s^2)","Acceleration y (m/s^2)","Acceleration z (m/s^2)"
0.000000000E0,-2.894729614E0,6.587677002E-1,9.072067261E0
5.004883000E-3,-3.027618408E0,5.270843506E-1,9.158248901E0
9.918213000E-3,-3.039581299E0,4.205474854E-1,9.190582275E0
1.486206100E-2,-2.916275024E0,3.092193604E-1,9.216918945E0
1.977539100E-2,-2.798965454E0,2.469635010E-1,9.096008301E0
2.471923900E-2,-2.684036255E0,1.883087158E-1,8.874542236E0
2.963256900E-2,-2.521240234E0,1.559906006E-1,8.568084717E0
3.457641600E-2,-2.502090454E0,1.631774902E-1,8.325073242E0
3.948974700E-2,-2.588272095E0,2.182464600E-1,8.185012817E0
4.440307700E-2,-2.690032959E0,2.685241699E-1,8.181411743E0
4.931640700E-2,-2.560745239E0,3.547058105E-1,8.530975342E0
5.426025400E-2,-2.561935425E0,4.121704102E-1,8.811096191E0
5.917358400E-2,-2.237518311E0,4.552612305E-1,8.924819946E0
6.408691500E-2,-1.871215820E0,7.294006348E-1,9.073257446E0
6.903076200E-2,-1.668899536E0,9.245300293E-1,9.213317871E0
7.394409200E-2,-1.531234741E0,1.063385010E0,9.260009766E0
7.885742200E-2,-1.181686401E0,9.029846191E-1,9.232467651E0
8.380127000E-2,-8.692321777E-1,7.150421143E-1,9.410842896E0
8.871460000E-2,-5.795440674E-1,5.223083496E-1,9.674209595E0
9.362793000E-2,-1.174621582E-1,3.535156250E-1,9.762786865E0
9.857177800E-2,4.224395752E-1,2.242279053E-1,9.658645630E0
1.034851080E-1,9.048614502E-1,1.188812256E-1,9.406051636E0
1.083984380E-1,1.127532959E0,8.895874023E-2,9.298309326E0
1.133422860E-1,1.128723145E0,1.667633057E-1,9.303100586E0
1.182556160E-1,9.120483398E-1,1.679534912E-1,9.158248901E0
1.231689460E-1,7.540283203E-1,1.296539307E-1,9.224090576E0
1.280822760E-1,5.756683350E-1,1.712036133E-2,9.435974121E0
1.330261240E-1,4.152526855E-1,-1.504669189E-1,9.470703125E0
1.379394540E-1,4.224395752E-1,-2.438354492E-1,9.268386841E0
1.428527840E-1,5.337677002E-1,-2.174987793E-1,8.910446167E0
1.477661140E-1,5.481262207E-1,-5.709838867E-2,8.536956787E0
1.527099610E-1,6.642456055E-1,1.308441162E-1,8.341827393E0
1.576232910E-1,8.677520752E-1,2.014770508E-1,8.253250122E0
1.625366220E-1,1.020980835E0,1.990814209E-1,8.261627197E0
1.674804690E-1,1.141891479E0,1.260681152E-1,8.179031372E0
1.723937990E-1,4.846801758E-1,-7.394409180E-1,7.781585693E0
1.773071290E-1,-3.413238525E-1,-1.355941772E0,7.159088135E0
1.822204590E-1,2.033691406E-1,-3.707275391E-1,7.330276489E0
1.871643070E-1,9.144439697E-1,7.218933105E-2,7.253662109E0
1.920776370E-1,1.552490234E0,4.109649658E-1,7.369781494E0
1.969909670E-1,1.682983398E0,4.947662354E-1,7.469146729E0
2.019348150E-1,1.674606323E0,2.649230957E-1,7.434432983E0
2.068481450E-1,1.817062378E0,-3.219604492E-3,7.560119629E0
2.117614750E-1,2.261184692E0,-1.851806641E-1,7.693008423E0
2.166748050E-1,2.651428223E0,-3.001098633E-1,7.853408813E0
2.216186530E-1,2.850158691E0,-3.779144287E-1,8.121566772E0
2.265319830E-1,2.766357422E0,-4.689025879E-1,8.424423218E0
2.314453130E-1,2.662216187E0,-4.485473633E-1,8.503433228E0
2.363891610E-1,2.700515747E0,-3.719329834E-1,8.474716187E0
2.413024910E-1,2.896835327E0,-4.365692139E-1,8.671035767E0
2.462158210E-1,3.101547241E0,-5.910034180E-1,8.850601196E0
2.511596680E-1,3.181747437E0,-7.131042480E-1,8.939178467E0
2.560729990E-1,3.069229126E0,-7.645874023E-1,9.027770996E0
2.609863290E-1,3.053665161E0,-7.729644775E-1,9.208526611E0
2.658996590E-1,3.138656616E0,-7.621917725E-1,9.420425415E0
2.708435060E-1,3.227233887E0,-8.292236328E-1,9.475479126E0
2.757568360E-1,3.253570557E0,-9.357604980E-1,9.429992676E0
2.806701660E-1,3.267944336E0,-1.019561768E0,9.355773926E0
2.855834970E-1,3.148239136E0,-1.083007812E0,9.294723511E0
2.904968270E-1,3.010559082E0,-1.051879883E0,9.327041626E0
2.954406740E-1,2.906417847E0,-9.597015381E-1,9.230087280E0
3.003540040E-1,2.477859497E0,-8.986511230E-1,8.684204102E0
3.052978520E-1,9.048614502E-1,-8.627471924E-1,7.660675049E0
3.102111820E-1,1.474685669E0,-8.352050781E-1,7.862991333E0
3.151245120E-1,1.923599243E0,-7.286682129E-1,7.542160034E0
3.200378420E-1,2.078018188E0,-7.190856934E-1,7.233322144E0
3.249816900E-1,2.412017822E0,-5.526885986E-1,7.391326904E0
3.298950200E-1,3.145843506E0,-3.838958740E-1,7.394927979E0
3.348083500E-1,3.780303955E0,-2.785644531E-1,7.302749634E0
3.397521980E-1,4.138229370E0,-2.725677490E-1,7.247680664E0
3.446655280E-1,4.251953125E0,-3.420104980E-1,7.313522339E0
3.495788580E-1,4.497360229E0,-5.491027832E-1,7.309936523E0
3.544921880E-1,4.533279419E0,-6.927490234E-1,7.063323975E0
3.594360360E-1,4.515319824E0,-9.848480225E-1,6.922073364E0
3.643493660E-1,4.534469604E0,-1.284118652E0,6.925659180E0
3.692626960E-1,4.620666504E0,-1.668395996E0,7.022628784E0
3.742065430E-1,4.814590454E0,-2.117309570E0,7.169876099E0
3.791198740E-1,4.782272339E0,-2.524322510E0,7.214157104E0
3.840332040E-1,4.824172974E0,-2.878662109E0,7.478713989E0
3.889465340E-1,4.544052124E0,-3.036682129E0,7.573287964E0
3.938903810E-1,4.562011719E0,-3.410171509E0,7.824676514E0
3.988037110E-1,4.426742554E0,-3.599319458E0,8.043746948E0
4.037170410E-1,4.420745850E0,-3.745361328E0,8.223312378E0
4.086608890E-1,4.005355835E0,-3.436508179E0,8.106002808E0
4.135742190E-1,3.685729980E0,-3.019912720E0,7.791168213E0
4.184875490E-1,3.586364746E0,-2.621276855E0,7.485900879E0
4.234313970E-1,3.631866455E0,-2.239410400E0,7.086074829E0
4.283447270E-1,3.768325806E0,-2.029922485E0,6.688629150E0
4.332580570E-1,3.916763306E0,-2.061035156E0,6.303161621E0
4.381713870E-1,3.959869385E0,-2.203491211E0,6.194229126E0
4.431152350E-1,4.273513794E0,-2.811630249E0,6.155929565E0
4.480285650E-1,4.850509644E0,-3.860290527E0,6.050582886E0
4.529418950E-1,5.116271973E0,-4.618041992E0,5.894958496E0
4.578857430E-1,4.673339844E0,-4.882614136E0,5.510681152E0
4.627990730E-1,4.066406250E0,-5.029846191E0,5.363449097E0
4.677124030E-1,3.502578735E0,-5.093292236E0,5.173110962E0
4.726257330E-1,2.746002197E0,-4.913726807E0,4.955230713E0
4.775695810E-1,2.566436768E0,-4.811981201E0,4.780456543E0
4.824829110E-1,2.066055298E0,-4.551010132E0,4.557800293E0
4.873962410E-1,2.123519897E0,-4.460037231E0,5.088104248E0
4.923400880E-1,1.777557373E0,-4.489959717E0,5.307174683E0
4.972534180E-1,1.893676758E0,-4.840713501E0,5.502304077E0
5.021667490E-1,2.447921753E0,-5.615234375E0,5.529846191E0
5.070800790E-1,3.376876831E0,-6.674667358E0,5.499908447E0
5.120239260E-1,4.643417358E0,-8.030990601E0,5.486740112E0
5.169372560E-1,6.257095337E0,-9.515380859E0,5.162338257E0
5.218505860E-1,7.880371094E0,-1.078671265E1,4.976776123E0
5.267639160E-1,8.386749268E0,-1.145349121E1,5.127609253E0
5.317077640E-1,6.908325195E0,-1.110273743E1,6.007476807E0
5.366210940E-1,3.842544556E0,-9.334625244E0,7.057342529E0
5.415344240E-1,1.308288574E0,-7.379760742E0,7.478713989E0
5.464782720E-1,3.254699707E-1,-6.299972534E0,7.476333618E0
5.513916020E-1,3.685607910E-1,-6.150344849E0,7.303939819E0
5.563049320E-1,1.028167725E0,-6.434051514E0,6.645538330E0
5.612487800E-1,1.890075684E0,-6.714172363E0,5.546600342E0
5.661621100E-1,1.994232178E0,-6.621994019E0,4.257324219E0
5.710754400E-1,1.761993408E0,-6.569320679E0,3.055435181E0
5.759887700E-1,2.212097168E0,-6.747695923E0,2.052261353E0
5.809326180E-1,2.793884277E0,-6.874588013E0,1.641662598E0
5.858459480E-1,3.129074097E0,-6.757263184E0,1.914596558E0
5.907592780E-1,3.460678101E0,-6.687835693E0,2.698699951E0
5.957031250E-1,3.882049561E0,-6.808746338E0,3.537872314E0
6.006164560E-1,4.101119995E0,-7.088867188E0,4.225006104E0
6.055297860E-1,3.806640625E0,-7.305541992E0,4.916931152E0
6.104431160E-1,3.023727417E0,-7.232513428E0,5.604064941E0
6.153869630E-1,2.317443848E0,-7.298355103E0,6.027832031E0
6.203002930E-1,1.718887329E0,-7.658691406E0,6.073318481E0
6.252136240E-1,1.138305664E0,-8.118377686E0,5.741729736E0
6.301574710E-1,6.510772705E-1,-8.439193726E0,5.278442383E0
6.350708010E-1,3.697662354E-1,-8.630737305E0,4.756515503E0
6.399841310E-1,7.276916504E-1,-8.520599365E0,4.518295288E0
6.448974610E-1,1.710510254E0,-8.366165161E0,4.107681274E0
6.498413090E-1,2.280334473E0,-8.848602295E0,3.419357300E0
6.547546390E-1,2.769943237E0,-9.438766479E0,3.503143311E0
6.596679690E-1,3.363708496E0,-9.935577393E0,4.046630859E0
6.646118170E-1,4.074783325E0,-1.014385986E1,5.144378662E0
6.695251470E-1,4.626647949E0,-9.966690063E0,6.638351440E0
6.744384770E-1,5.153381348E0,-1.007682800E1,7.991073608E0
6.793518070E-1,5.585525513E0,-1.068136597E1,9.042129517E0
6.842956550E-1,5.682495117E0,-1.129428101E1,1.019853210E1
6.892089850E-1,5.347305298E0,-1.170967102E1,1.162428284E1
6.941223150E-1,4.708053589E0,-1.195149231E1,1.320565796E1
6.990661630E-1,4.190902710E0,-1.199697876E1,1.444584656E1
7.039794930E-1,3.975433350E0,-1.181022644E1,1.499172974E1
7.088928230E-1,4.159774780E0,-1.150737000E1,1.492588806E1
7.138366700E-1,4.602706909E0,-1.111231995E1,1.435008240E1
7.187500000E-1,5.085144043E0,-1.060116577E1,1.325114441E1
7.236633310E-1,5.559188843E0,-9.927185059E0,1.196066284E1
7.285766610E-1,6.121826172E0,-9.283157349E0,1.021528625E1
7.335205080E-1,6.558776855E0,-8.630737305E0,8.158676147E0
7.384338380E-1,6.793411255E0,-8.015426636E0,6.222961426E0
7.433471680E-1,6.915512085E0,-7.531799316E0,4.875030518E0
7.482910160E-1,7.035217285E0,-7.310333252E0,4.119659424E0
7.532043460E-1,7.120208740E0,-7.385742188E0,3.883834839E0
7.581176760E-1,7.114227295E0,-7.558120728E0,4.172332764E0
7.630615240E-1,7.277038574E0,-7.868179321E0,5.016281128E0
7.679748540E-1,7.548767090E0,-7.961547852E0,6.086486816E0
7.728881840E-1,7.594268799E0,-7.744873047E0,7.078887939E0
7.778015140E-1,7.418289185E0,-7.527008057E0,7.766021729E0
7.827453620E-1,7.326110840E0,-7.556930542E0,7.933624268E0
7.876586920E-1,7.490112305E0,-7.758041382E0,7.829467773E0
7.925720220E-1,7.570327759E0,-7.904083252E0,7.652297974E0
7.974853520E-1,7.698410034E0,-7.791564941E0,7.282394409E0
8.024292000E-1,8.021621704E0,-7.400115967E0,6.862213135E0
8.073425300E-1,8.623764038E0,-7.011047363E0,6.433654785E0
8.122558600E-1,9.354003906E0,-6.654312134E0,5.921295166E0
8.171997070E-1,1.006268311E1,-6.486724854E0,5.638778687E0
8.221130380E-1,1.067559814E1,-6.412506104E0,5.631591797E0
8.270263680E-1,1.116162109E1,-6.238922119E0,5.758483887E0
8.319702150E-1,1.164166260E1,-6.174285889E0,5.740524292E0
8.368835450E-1,1.198043823E1,-6.304763794E0,5.733352661E0
8.417968750E-1,1.198522949E1,-6.460388184E0,5.929672241E0
8.467102060E-1,1.196128845E1,-6.764450073E0,6.361831665E0
8.516540530E-1,1.234915161E1,-7.287582397E0,7.246490479E0
8.565673830E-1,1.243653870E1,-7.379760742E0,8.319091797E0
8.614807130E-1,1.215402222E1,-7.129562378E0,8.885314941E0
8.664245610E-1,1.185714722E1,-7.064926147E0,9.039733887E0
8.713378910E-1,1.145372009E1,-7.074493408E0,8.848205566E0
8.762512210E-1,1.091023254E1,-6.979934692E0,8.313095093E0
8.811645510E-1,1.026858521E1,-6.896133423E0,7.564910889E0
8.861083990E-1,9.636520386E0,-6.847045898E0,6.639556885E0
8.910217290E-1,9.004455566E0,-6.819519043E0,5.829116821E0
8.959350590E-1,8.581878662E0,-6.857818604E0,5.288024902E0
9.008789070E-1,8.587860107E0,-6.945205688E0,5.191055298E0
9.057922370E-1,8.757843018E0,-7.048156738E0,5.548995972E0
9.107055670E-1,8.739883423E0,-7.006271362E0,6.152328491E0
9.156494150E-1,8.845230103E0,-6.993103027E0,6.877777100E0
9.205627450E-1,9.088241577E0,-6.967956543E0,7.667861938E0
9.254760750E-1,8.782989502E0,-6.904510498E0,8.253250122E0
9.303894050E-1,8.086273193E0,-7.038589478E0,8.353805542E0
9.353332520E-1,7.457794189E0,-7.420455933E0,8.309509277E0
9.402465820E-1,6.102676392E0,-7.778396606E0,9.092407227E0
9.451599130E-1,5.566375732E0,-8.165054321E0,9.170227051E0
9.501037600E-1,6.376815796E0,-8.329055786E0,7.325485229E0
9.550170900E-1,6.610244751E0,-7.655090332E0,4.655960083E0
9.599304200E-1,5.610671997E0,-6.994293213E0,3.446884155E0
9.648437500E-1,4.639816284E0,-7.039779663E0,3.098526001E0
9.697570810E-1,3.964660645E0,-7.240890503E0,2.966842651E0
9.747009280E-1,3.323013306E0,-7.562911987E0,3.591735840E0
9.796447760E-1,3.915573120E0,-8.101608276E0,4.137619019E0
9.845581060E-1,6.269073486E0,-7.716140747E0,1.215484619E0
9.894714360E-1,7.414703369E0,-6.576507568E0,-1.511505127E0
9.943847660E-1,6.627014160E0,-5.890563965E0,-2.387786865E0
9.992980960E-1,5.856079102E0,-6.129989624E0,-2.094497681E0
1.004241944E0,5.365264893E0,-6.545379639E0,-1.779327393E-1
1.009155274E0,4.947479248E0,-6.996688843E0,2.016357422E0
1.014068604E0,4.976211548E0,-7.645523071E0,2.565826416E0
1.019012452E0,4.439910889E0,-8.263214111E0,3.202682495E0
1.023925782E0,3.947891235E0,-8.592422485E0,4.251342773E0
1.028839112E0,3.465469360E0,-8.885711670E0,4.785247803E0
1.033752442E0,3.045288086E0,-9.145477295E0,4.913330078E0
1.038696290E0,2.285125732E0,-9.327438354E0,4.961212158E0
1.043609620E0,1.791915894E0,-9.305892944E0,4.979171753E0
1.048522950E0,1.800292969E0,-8.983871460E0,5.162338257E0
1.053466797E0,1.941558838E0,-8.549331665E0,5.255706787E0
1.058380127E0,2.146255493E0,-8.131546021E0,5.388580322E0
1.063293457E0,1.611160278E0,-8.056121826E0,5.953613281E0
1.068206788E0,1.299911499E0,-7.882537842E0,6.127197266E0
1.073150635E0,1.122741699E0,-7.764022827E0,5.996704102E0
1.078063965E0,6.702270508E-1,-7.731704712E0,5.871017456E0
1.082977295E0,2.584228516E-1,-7.409683228E0,5.916503906E0
1.087921143E0,2.249145508E-1,-7.420455933E0,6.691024780E0
1.092834473E0,3.123016357E-1,-7.643127441E0,7.078887939E0
1.097747803E0,7.121276855E-1,-7.730514526E0,7.430831909E0
1.102661133E0,1.102386475E0,-7.942398071E0,8.583648682E0
1.107604981E0,1.049713135E0,-8.190200806E0,9.925598145E0
1.112518311E0,8.761291504E-1,-8.459548950E0,1.104129028E1
1.117431641E0,1.375320435E0,-8.096817017E0,1.095271301E1
1.122375489E0,1.510604858E0,-7.693405151E0,1.070251465E1
1.127288819E0,5.481262207E-1,-8.319488525E0,1.143634033E1
1.132202149E0,-1.000915527E0,-9.510604858E0,1.308114624E1
1.137145997E0,-2.146545410E0,-1.018576050E1,1.455477905E1
1.142059327E0,-2.144149780E0,-9.756011963E0,1.291116333E1
1.146972657E0,-7.734680176E-1,-8.221328735E0,1.037809753E1
1.151885987E0,2.943420410E-1,-6.697418213E0,7.798339844E0
1.156829834E0,-5.663757324E-1,-5.611648560E0,4.807983398E0
1.161743165E0,-8.752288818E-1,-5.635589600E0,3.111694336E0
1.166656495E0,2.476501465E-1,-5.930068970E0,4.928894043E0
1.171600342E0,-1.539611816E0,-7.026611328E0,8.344223022E0
1.176513672E0,-1.551589966E0,-7.316314697E0,1.016500854E1
1.181427002E0,3.386383057E-1,-5.337509155E0,9.367752075E0
1.186340332E0,5.696716309E-1,-4.655151367E0,1.129627991E1
1.191284180E0,3.756362915E0,-2.470443726E0,4.476394653E0
1.196197510E0,5.473007202E0,-2.219055176E0,-2.341094971E0
1.201110840E0,5.417938232E0,-1.800079346E0,-5.047454834E-1
1.206054688E0,4.133453369E0,-8.388061523E-1,3.144012451E0
1.210968018E0,4.129852295E0,-2.001190186E0,4.873825073E0
1.215881348E0,1.918807983E0,-6.199417114E0,1.599490356E1
1.220794678E0,2.452697754E-1,-6.680648804E0,1.466252136E1
1.225738526E0,-2.156219482E-1,-5.367431641E0,1.088926697E1
1.230651856E0,-1.439056396E0,-4.507919312E0,9.997421265E0
1.235565186E0,-2.441024780E0,-5.362640381E0,7.604415894E0
1.240509034E0,-1.445037842E0,-4.746139526E0,5.387390137E0
1.245422364E0,1.105972290E0,-3.121673584E0,2.490402222E0
1.250335694E0,-7.650909424E-1,-3.897399902E0,8.734481812E0
1.255279541E0,-2.382369995E0,-4.134414673E0,1.448774719E1
1.260192872E0,-1.689300537E-1,-3.023513794E0,9.857360840E0
1.265106202E0,-6.429901123E-1,-2.227432251E0,1.405679321E1
1.270050049E0,2.763961792E0,-9.154205322E-1,5.262893677E0
1.274963379E0,5.988952637E0,1.014312744E0,-1.056398010E1
1.279876709E0,3.558837891E0,2.825531006E0,-8.618698120E0
1.284820557E0,3.926345825E0,2.107269287E0,-4.363006592E0
1.289733887E0,5.198867798E0,5.677947998E-1,-8.447265625E-1
1.294647217E0,5.325759888E0,-5.897979736E-1,4.391403198E0
1.299560547E0,5.000152588E0,-9.249877930E-1,6.698211670E0
1.304504395E0,3.415191650E0,-1.078216553E0,6.609619141E0
1.309417725E0,1.457931519E0,-1.019561768E0,5.631591797E0
1.314331055E0,7.145233154E-1,-8.519744873E-1,3.913757324E0
1.319244385E0,9.970397949E-1,-1.843170166E0,4.017898560E0
1.324188233E0,1.614685059E-1,-2.244201660E0,4.217819214E0
1.329101563E0,-1.306304932E-1,-3.315597534E0,5.256896973E0
1.334014893E0,-8.752441406E-2,-4.590515137E0,6.470764160E0
1.338958741E0,-3.556823730E-1,-5.153152466E0,7.448791504E0
1.343872071E0,-5.244750977E-1,-5.483551025E0,7.695388794E0
1.348785401E0,-5.280609131E-1,-5.772048950E0,7.203384399E0
1.353698731E0,-1.688049316E0,-6.806350708E0,8.596817017E0
1.358642579E0,-2.089080811E0,-7.474334717E0,7.493087769E0
1.363555909E0,-1.422302246E0,-6.083297729E0,5.550186157E0
1.368469239E0,-1.275054932E0,-2.702682495E0,1.592575073E0
1.373413086E0,-1.050003052E0,-5.458419800E0,5.832702637E0
1.378326416E0,-1.691650391E0,-8.478698730E0,8.742858887E0
1.383239747E0,-2.141754150E0,-9.605163574E0,9.670608521E0
1.388183594E0,-1.837692261E0,-9.072463989E0,1.089404297E1
1.393096924E0,-1.205627441E0,-8.453552246E0,1.130226135E1
1.398010254E0,-1.181686401E0,-8.562500000E0,1.096348572E1
1.402923584E0,-8.225555420E-1,-8.788742065E0,1.084736633E1
1.407867432E0,-3.413238525E-1,-8.461944580E0,1.069532776E1
1.412780762E0,5.970764160E-2,-8.071685791E0,1.003692627E1
1.417694092E0,5.708770752E-1,-8.145904541E0,9.740051270E0
1.422637940E0,8.892974854E-1,-7.801132202E0,8.818283081E0
1.427551270E0,9.036712646E-1,-7.431228638E0,7.732513428E0
1.432464600E0,6.331176758E-1,-6.896133423E0,6.505477905E0
1.437408448E0,7.157287598E-1,-6.225753784E0,4.508712769E0
1.442321778E0,1.704528809E0,-5.526641846E0,5.377807617E0
1.447235108E0,3.108734131E0,-5.660720825E0,7.105224609E0
1.452148438E0,1.243637085E0,-7.659881592E0,4.549407959E0
1.457092286E0,-1.750305176E0,-8.801910400E0,3.300842285E0
1.462005616E0,-2.937835693E0,-8.520599365E0,3.902984619E0
1.466918946E0,-3.002471924E0,-7.335464478E0,4.470413208E0
1.471832276E0,-2.849243164E0,-5.567352295E0,3.111694336E0
1.476776124E0,-9.063415527E-1,-4.025482178E0,-2.932464600E0
1.481689454E0,-2.900726318E0,-6.723754883E0,-4.937606812E0
1.486602784E0,-6.088592529E0,-4.120056152E0,-8.028259277E-1
1.491546631E0,-2.509262085E0,-2.859512329E0,2.860305786E0
1.496459961E0,2.421585083E0,-3.356307983E0,5.527450562E0
1.501373291E0,5.584335327E0,-3.963241577E0,8.830245972E0
1.506317139E0,6.105072021E0,-3.989562988E0,1.186370850E1
1.511230469E0,6.174499512E0,-3.606491089E0,1.406398010E1
1.516143799E0,4.949874878E0,-3.999145508E0,1.715847778E1
1.521057129E0,3.229629517E0,-5.664321899E0,1.870034790E1
1.526000977E0,3.732421875E0,-7.422851562E0,1.691905212E1
1.530914307E0,4.755935669E0,-7.877746582E0,1.559147644E1
1.535827637E0,4.316604614E0,-6.793182373E0,1.490911865E1
1.540771485E0,2.852554321E0,-5.357864380E0,1.293031311E1
1.545684815E0,1.514190674E0,-4.262512207E0,9.957916260E0
1.550598145E0,6.690368652E-1,-3.635223389E0,7.155502319E0
1.555511475E0,-3.738403320E-3,-3.048645020E0,5.145568848E0
1.560455323E0,-7.279815674E-1,-2.299270630E0,4.021499634E0
1.565368653E0,-1.357650757E0,-1.545089722E0,3.492370605E0
1.570281983E0,-1.486938477E0,-1.106948853E0,3.345138550E0
1.575195313E0,-9.087371826E-1,-8.555603027E-1,3.462448120E0
1.580139161E0,5.840454102E-1,-4.509429932E-1,3.849105835E0
1.585052491E0,1.465103149E0,1.113891602E-2,3.746154785E0
1.589965821E0,1.422012329E0,1.715545654E-1,3.788055420E0
1.594909668E0,1.524963379E0,-7.322540283E-1,4.640396118E0
1.599822999E0,1.973876953E0,-2.845138550E0,5.716583252E0
1.604736329E0,2.359344482E0,-5.330322266E0,6.829895020E0
1.609649659E0,2.195343018E0,-7.647903442E0,8.553710938E0
1.614593506E0,1.279556274E0,-9.571655273E0,1.115261841E1
1.619506836E0,-6.334075928E-1,-1.110873413E1,1.455717468E1
1.624420166E0,-5.897064209E0,-1.196466064E1,2.764149475E1
1.629364014E0,-9.136413574E0,-1.370643616E1,3.047024536E1
1.634277344E0,-8.097335815E0,-1.549610901E1,2.046008301E1
1.639190674E0,-8.329574585E0,-1.507951355E1,2.018115234E1
1.644104004E0,-8.139236450E0,-1.322161865E1,1.893856812E1
1.649047852E0,-6.739822388E0,-1.119132996E1,1.569921875E1
1.653961182E0,-5.292526245E0,-1.012950134E1,1.342831421E1
1.658874512E0,-4.175628662E0,-9.609954834E0,1.208876038E1
1.663818360E0,-2.520034790E0,-9.465103149E0,1.120050049E1
1.668731690E0,-2.412307739E0,-9.213714600E0,1.038528442E1
1.673645020E0,-2.710372925E0,-9.334625244E0,8.044952393E0
1.678558350E0,-1.854446411E0,-9.753616333E0,4.333938599E0
1.683502198E0,-1.838897705E0,-9.398071289E0,4.831924438E0
1.688415528E0,-1.711990356E0,-8.689392090E0,5.543014526E0
1.693328858E0,-1.222534180E-1,-8.884521484E0,4.357879639E0
1.698272706E0,1.698455811E-1,-9.654251099E0,3.104507446E0
1.703186036E0,-3.508911133E-1,-1.078790283E1,3.499557495E0
1.708099366E0,6.330871582E-2,-1.208317566E1,3.576171875E0
1.713043213E0,4.104614258E-1,-1.310789490E1,3.649200439E0
1.717956543E0,1.351318359E-1,-1.361904907E1,3.141632080E0
1.722869874E0,3.314514160E-1,-1.363580322E1,3.363082886E0
1.727783204E0,2.955474854E-1,-1.338562012E1,4.616455078E0
1.732727051E0,3.039245605E-1,-1.274037170E1,5.472381592E0
1.737640381E0,7.959289551E-1,-1.177909851E1,5.110855103E0
1.742553711E0,1.145477295E0,-1.108718872E1,4.128036499E0
1.747497559E0,1.417221069E0,-1.081903076E1,4.660751343E0
1.752410889E0,1.453140259E0,-1.031025696E1,5.246124268E0
1.757324219E0,1.581222534E0,-9.910430908E0,5.760879517E0
1.762237549E0,1.651855469E0,-9.382507324E0,5.939254761E0
1.767181397E0,1.297515869E0,-8.858184814E0,5.821929932E0
1.772094727E0,9.359893799E-1,-8.495452881E0,6.720962524E0
1.777008057E0,2.380828857E-1,-8.585235596E0,7.671447754E0
1.781951905E0,-5.603942871E-1,-8.906066895E0,8.369369507E0
1.786865235E0,-1.148162842E0,-9.058090210E0,9.919616699E0
1.791778565E0,-1.741928101E0,-9.228088379E0,1.176434326E1
1.796691895E0,-2.002899170E0,-8.646286011E0,1.155604553E1
1.801635743E0,-1.433074951E0,-7.695800781E0,9.998611450E0
1.806549073E0,-3.700408936E-1,-6.335891724E0,8.194580078E0
1.811462403E0,3.230743408E-1,-5.040618896E0,5.903335571E0
1.816406250E0,-1.805374146E0,-6.553756714E0,1.032662964E1
1.821319581E0,-4.164855957E0,-7.480316162E0,1.511981201E1
1.826263428E0,-2.031616211E0,-5.845077515E0,1.298179626E1
1.831176758E0,1.424407959E0,-2.310043335E0,6.896926880E0
1.836090088E0,1.546508789E0,-1.761764526E0,5.594482422E0
1.841003418E0,4.188385010E-1,-1.652832031E0,4.715805054E0
1.845916749E0,-1.513275146E0,-2.305252075E0,5.758483887E0
1.850860596E0,-2.479339600E0,-3.714233398E0,9.185791016E0
1.855773926E0,-2.712768555E0,-4.054214478E0,9.821441650E0
1.860687256E0,-4.883117676E0,-5.019073486E0,1.083659363E1
1.865600586E0,-1.757492065E0,-4.197860718E0,1.569082642E1
1.870544434E0,5.996139526E0,-8.627471924E-1,5.158737183E0
1.875457764E0,5.204849243E0,5.127258301E-1,9.784698486E-1
1.880371094E0,2.128295898E0,7.736968994E-1,3.653976440E0
1.885314942E0,1.874511719E0,-3.683471680E-1,3.948471069E0
1.890228272E0,2.054077148E0,-1.110549927E0,2.363510132E0
1.895141602E0,5.493316650E-1,-7.107086182E-1,1.253799438E0
1.900054932E0,1.351318359E-1,-8.663330078E-1,1.057739258E-1
1.904998780E0,-1.504898071E0,-1.747406006E0,2.801651001E0
1.909912110E0,-2.476943970E0,-2.693115234E0,4.746932983E0
1.914855957E0,-1.422302246E0,-3.005554199E0,4.833129883E0
1.919769288E0,-8.800201416E-1,-2.763732910E0,4.755310059E0
1.924682618E0,-9.410705566E-1,-2.839157104E0,4.977981567E0
1.929595948E0,4.638671875E-3,-2.695510864E0,4.865447998E0
1.934539795E0,9.096527100E-1,-2.579391479E0,5.052200317E0
1.939453125E0,8.306427002E-1,-2.861907959E0,5.796798706E0
1.944366456E0,1.973724365E-1,-3.278488159E0,6.531814575E0
1.949279786E0,-4.777832031E-1,-3.815994263E0,6.966354370E0
1.954223633E0,-7.866363525E-1,-4.523483276E0,7.378158569E0
1.959136963E0,-1.218795776E0,-5.241744995E0,8.196975708E0
1.964050293E0,-1.728759766E0,-6.077316284E0,9.335418701E0
1.968994141E0,-2.283020020E0,-6.660308838E0,1.004051208E1
1.973907471E0,-2.414703369E0,-6.777618408E0,1.009558105E1
1.978820801E0,-2.229141235E0,-6.589675903E0,9.802291870E0
1.983734131E0,-2.315338135E0,-6.313140869E0,9.433593750E0
1.988677979E0,-2.657714844E0,-6.232940674E0,8.958343506E0
1.993591309E0,-3.091064453E0,-6.118011475E0,8.730895996E0
1.998504639E0,-3.386749268E0,-6.119216919E0,8.779968262E0
2.003448487E0,-3.164077759E0,-6.191040039E0,8.773986816E0
2.008361817E0,-2.190841675E0,-6.137176514E0,9.186981201E0
2.013275147E0,-1.808959961E0,-5.840286255E0,9.418029785E0
2.018218995E0,-1.381591797E0,-5.673889160E0,8.947570801E0
2.023132325E0,1.040039062E-1,-5.275253296E0,8.442382812E0
2.028045655E0,1.155059814E0,-4.527069092E0,8.007843018E0
2.032989502E0,1.644668579E0,-4.154769897E0,7.602020264E0
2.037902832E0,2.286315918E0,-4.032669067E0,6.966354370E0
2.042816163E0,2.571228027E0,-3.783676147E0,6.621597290E0
2.047760010E0,2.406036377E0,-3.347930908E0,6.462387085E0
2.052673340E0,1.514190674E0,-2.913375854E0,6.401336670E0
2.057586670E0,2.153320312E-1,-2.937316895E0,5.959594727E0
2.062500000E0,-7.830505371E-1,-2.931335449E0,5.799194336E0
2.067443848E0,-1.216400146E0,-2.714660645E0,5.771652222E0
2.072357178E0,-1.503707886E0,-2.559036255E0,6.085296631E0
2.077270508E0,-1.672500610E0,-2.585372925E0,6.489913940E0
2.082183838E0,-1.909515381E0,-2.924148560E0,7.032196045E0
2.087097168E0,-2.401535034E0,-4.084136963E0,8.220916748E0
2.092041016E0,-2.882766724E0,-5.545806885E0,1.060435486E1
2.096954346E0,-3.115005493E0,-6.814727783E0,1.261907959E1
2.101898194E0,-2.858825684E0,-7.868179321E0,1.365576172E1
2.106842041E0,-2.394348145E0,-8.569671631E0,1.389158630E1
2.111755372E0,-1.844879150E0,-8.766006470E0,1.333134460E1
2.116668702E0,-1.149353027E0,-8.696563721E0,1.232577515E1
2.121582032E0,-5.352478027E-1,-8.776779175E0,1.130584717E1
2.126495362E0,-4.490509033E-1,-9.149078369E0,1.048583984E1
2.131408692E0,-6.082763672E-1,-9.260406494E0,9.633499146E0
2.136322022E0,-5.460205078E-1,-8.847412109E0,8.501052856E0
2.141265870E0,-6.298217773E-1,-8.291946411E0,7.727722168E0
2.146179200E0,-7.986145020E-1,-7.881347656E0,7.101638794E0
2.151123047E0,-7.866363525E-1,-7.412078857E0,6.371398926E0
2.156036377E0,-5.855255127E-1,-6.741699219E0,6.067337036E0
2.160949707E0,-6.908721924E-1,-5.985137939E0,6.518646240E0
2.165893555E0,-1.144577026E0,-5.445251465E0,7.009460449E0
2.170806885E0,-7.423400879E-1,-4.955627441E0,7.489501953E0
2.175720215E0,-3.616638184E-1,-4.946060181E0,9.049316406E0
2.180633545E0,-9.913482666E-1,-5.640365601E0,1.188046265E1
2.185577393E0,-2.342864990E0,-6.420883179E0,1.412382507E1
2.190490723E0,-3.403503418E0,-7.043380737E0,1.678857422E1
2.195434571E0,-1.860443115E0,-6.013870239E0,1.555316162E1
2.200347901E0,-9.171295166E-1,-6.448410034E0,2.042297363E1
2.205261231E0,-1.252304077E0,-5.709808350E0,2.393048096E1
2.210174561E0,5.888366699E-1,-4.080551147E0,1.259872437E1
2.215087891E0,-1.354217529E-1,-2.645233154E0,9.348587036E0
2.220031739E0,-2.359771729E-1,-2.347152710E0,9.912429810E0
2.224945069E0,4.739074707E-1,-1.894638062E0,9.093612671E0
2.229858399E0,1.084426880E0,-1.321228027E0,6.337890625E0
2.234802247E0,6.869964600E-1,-4.844665527E-1,3.306823730E0
2.239715577E0,-3.221588135E-1,3.247833252E-1,4.098358154E-1
2.244628907E0,-7.998046875E-1,4.516754150E-1,-2.007110596E0
2.249542237E0,-1.200836182E0,4.792022705E-1,-3.548965454E0
2.254486084E0,-5.663757324E-1,1.056213379E0,-4.734100342E0
2.259429932E0,-3.018188477E-1,9.113616943E-1,-4.349838257E0
2.264343262E0,-3.329315186E-1,-5.359344482E-1,-1.495941162E0
2.269256592E0,-8.883972168E-1,-1.941329956E0,2.675949097E0
2.274169922E0,-1.044021606E0,-1.776138306E0,3.938888550E0
2.279083252E0,-1.091903687E0,-1.179977417E0,3.614486694E0
2.283996582E0,-5.184936523E-1,-1.027938843E0,3.693481445E0
2.288940430E0,1.650543213E-1,-1.027938843E0,3.803619385E0
2.293853760E0,3.649749756E-1,-1.025543213E0,3.292465210E0
2.298767090E0,6.678314209E-1,-1.163208008E0,3.450469971E0
2.303710938E0,1.710357666E-1,-1.557067871E0,4.891784668E0
2.308624268E0,-4.059600830E-1,-2.102935791E0,6.380981445E0
2.313537598E0,-1.093093872E0,-2.575790405E0,6.395339966E0
2.318481446E0,-2.062744141E0,-2.602127075E0,5.751296997E0
2.323394776E0,-3.052749634E0,-2.318420410E0,5.453231812E0
2.328308106E0,-3.622573853E0,-2.796066284E0,5.819534302E0
2.333251954E0,-3.920654297E0,-2.896621704E0,7.331481934E0
2.338165284E0,-2.417083740E0,-2.447708130E0,9.887283325E0
2.343078614E0,-4.502563477E-1,-4.306808472E0,1.270886230E1
2.347991944E0,-4.251098633E-1,-6.790786743E0,1.239282227E1
2.352935791E0,-3.223937988E0,-8.229705811E0,1.087728882E1
2.357849122E0,-2.961776733E0,-8.534957886E0,8.327468872E0
2.362792969E0,-2.043594360E0,-7.992675781E0,9.607162476E0
2.367706299E0,-1.876007080E0,-8.008239746E0,1.039605713E1
2.372619629E0,-1.666503906E0,-8.697769165E0,1.048583984E1
2.377532959E0,-1.568344116E0,-9.297515869E0,8.395706177E0
2.382446290E0,-7.196044922E-1,-9.226882935E0,8.182617188E0
2.387359620E0,2.572326660E-1,-9.632705688E0,6.620407104E0
2.392272950E0,-1.773071289E-1,-9.181396484E0,6.465972900E0
2.397216797E0,-3.975830078E-1,-8.696563721E0,4.518295288E0
2.402160645E0,-1.361251831E0,-7.626358032E0,4.087341309E0
2.407073975E0,-2.139358521E0,-7.424057007E0,1.804458618E0
2.411987305E0,-2.934234619E0,-6.558547974E0,1.185562134E0
2.416900635E0,-2.443420410E0,-5.651153564E0,1.537506104E0
2.421844483E0,-6.358032227E-1,-6.371795654E0,9.569091797E-1
2.426757813E0,-9.566345215E-1,-6.623199463E0,1.122116089E0
2.431671143E0,-2.821716309E0,-5.651153564E0,-1.485168457E0
2.436614991E0,-4.443786621E0,-4.461517334E-1,-2.473968506E0
2.441528321E0,-2.405120850E0,3.946014404E0,1.011473083E1
2.446441651E0,3.045288086E0,-2.805633545E0,1.279743958E1
2.451354981E0,9.337249756E0,-1.175515747E1,2.640045166E0
2.456298829E0,1.032365417E1,-1.096627808E1,3.804824829E0
2.461212159E0,3.235626221E0,-5.451232910E0,1.063786316E1
2.466125489E0,-7.543182373E-1,-4.263702393E0,1.565850830E1
2.471069336E0,2.018173218E0,-9.539337158E0,1.738113403E1
2.475982666E0,4.072387695E0,-1.358074951E1,1.707707214E1
2.480895997E0,1.682983398E0,-1.339279175E1,1.582611084E1
2.485839844E0,-1.660522461E0,-1.155285645E1,1.400053406E1
2.490753174E0,-2.751083374E0,-1.028871155E1,1.284413147E1
2.495666504E0,-2.065139771E0,-9.948745728E0,1.223719788E1
2.500579834E0,-1.290618896E0,-9.540527344E0,1.152012634E1
2.505523682E0,-8.105773926E-1,-8.892898560E0,1.049900818E1
2.510437012E0,-1.473846436E-1,-8.506225586E0,9.166625977E0
2.515350342E0,1.937866211E-1,-8.373352051E0,8.669830322E0
2.520294190E0,1.099853516E-1,-8.373352051E0,9.148681641E0
2.525207520E0,-6.120300293E-2,-8.376937866E0,8.977493286E0
2.530120850E0,2.536468506E-1,-8.299133301E0,7.359008789E0
2.535034180E0,8.234558105E-1,-8.250045776E0,5.811157227E0
2.539947510E0,1.550094604E0,-8.161468506E0,4.872634888E0
2.544860840E0,2.267166138E0,-8.028594971E0,3.934112549E0
2.549804688E0,2.699325562E0,-7.905288696E0,3.922134399E0
2.554748536E0,2.926773071E0,-7.801132202E0,3.852706909E0
2.559661866E0,3.089569092E0,-7.275619507E0,2.523925781E0
2.564605713E0,4.475814819E0,-6.820709229E0,2.443710327E0
2.569519043E0,5.711227417E0,-6.217376709E0,1.432159424E0
2.574432374E0,6.465393066E0,-5.404541016E0,3.260498047E-1
2.579345704E0,6.690460205E0,-4.852676392E0,7.464599609E-2
2.584289551E0,5.890792847E0,-4.785644531E0,7.067260742E-1
2.589202881E0,3.607925415E0,-5.363845825E0,1.514770508E0
2.594116211E0,1.289138794E0,-6.097671509E0,1.217880249E0
2.599029541E0,-3.760375977E-1,-6.595657349E0,1.737426758E0
2.603942872E0,-1.579116821E0,-6.973937988E0,2.380264282E0
2.608856202E0,-2.504486084E0,-7.366592407E0,2.871078491E0
2.613800049E0,-4.070281982E0,-8.205764771E0,3.428924561E0
2.618713379E0,-5.503219604E0,-9.121536255E0,3.473220825E0
2.623626709E0,-6.234649658E0,-9.223297119E0,3.375061035E0
2.628540040E0,-5.650466919E0,-1.030906677E1,3.851501465E0
2.633483887E0,-4.489273071E0,-1.184614563E1,3.949661255E0
2.638397217E0,-2.419479370E0,-1.269488525E1,3.785659790E0
2.643310547E0,-7.004547119E-1,-1.229985046E1,4.323165894E0
2.648254395E0,-9.674072266E-1,-1.158876038E1,5.833908081E0
2.653167725E0,-2.291397095E0,-1.229026794E1,7.545761108E0
2.658081055E0,-3.864379883E0,-1.339758301E1,7.719345093E0
2.663024903E0,-4.503631592E0,-1.363340759E1,7.815109253E0
2.667938233E0,-3.967330933E0,-1.328146362E1,7.549346924E0
2.672851563E0,-2.986907959E0,-1.288642883E1,7.422454834E0
2.677795411E0,-2.073516846E0,-1.203527832E1,6.504287720E0
2.682708741E0,-6.417846680E-1,-1.099740601E1,5.258102417E0
2.687622071E0,2.057647705E-1,-1.010675049E1,3.997558594E0
2.692535401E0,5.373535156E-1,-9.716506958E0,2.843551636E0
2.697448731E0,8.102874756E-1,-9.291534424E0,1.264572144E0
2.702392579E0,1.151473999E0,-8.973098755E0,-1.504058838E-1
2.707305909E0,1.582427979E0,-8.710937500E0,-6.340332031E-1
2.712219239E0,2.158233643E0,-8.639114380E0,-4.568634033E-1
2.717163086E0,2.687347412E0,-8.895294189E0,4.134368896E-1
2.722076416E0,3.234420776E0,-9.331039429E0,1.488433838E0
2.726989747E0,3.977828979E0,-9.509399414E0,2.250976562E0
2.731903077E0,4.374069214E0,-9.305892944E0,2.822006226E0
2.736846924E0,4.222030640E0,-8.968307495E0,3.518707275E0
2.741760254E0,3.567214966E0,-8.815078735E0,4.196273804E0
2.746673584E0,3.125488281E0,-8.466720581E0,4.646377563E0
2.751617432E0,2.832199097E0,-8.142318726E0,4.891784668E0
2.756530762E0,2.729248047E0,-7.720932007E0,4.933685303E0
2.761474610E0,2.609542847E0,-7.394119263E0,5.102478027E0
2.766387940E0,2.214492798E0,-6.949996948E0,4.664337158E0
2.771301270E0,1.547714233E0,-6.593261719E0,2.873474121E0
2.776245118E0,1.225692749E0,-6.876983643E0,2.167190552E0
2.781158448E0,1.348983765E0,-7.206176758E0,2.792068481E0
2.786071778E0,1.726074219E0,-7.680236816E0,2.953674316E0
2.790985108E0,2.031341553E0,-8.445175171E0,3.317596436E0
2.795898438E0,1.278366089E0,-8.259628296E0,4.181900024E0
2.800842286E0,7.576141357E-1,-7.971130371E0,3.673141479E0
2.805786133E0,8.545837402E-1,-7.729309082E0,3.305633545E0
2.810699463E0,1.123931885E0,-7.491088867E0,3.182327271E0
2.815612793E0,1.252029419E0,-7.392929077E0,2.956069946E0
2.820526124E0,8.186798096E-1,-7.227722168E0,2.519134521E0
2.825439454E0,6.953735352E-1,-6.770431519E0,2.490402222E0
2.830352784E0,5.229949951E-1,-6.604034424E0,2.318023682E0
2.835296631E0,3.649749756E-1,-6.462783813E0,2.131271362E0
2.840209961E0,1.710357666E-1,-6.298782349E0,2.115707397E0
2.845123291E0,8.364868164E-2,-6.217376709E0,2.128875732E0
2.850036622E0,1.459045410E-1,-6.266448975E0,1.931350708E0
2.854980469E0,2.512512207E-1,-6.194625854E0,1.823623657E0
2.859924317E0,4.583435059E-1,-6.208999634E0,1.629684448E0
2.864837647E0,7.085418701E-1,-6.332290649E0,1.353149414E0
2.869750977E0,8.031158447E-1,-6.484329224E0,1.169998169E0
2.874694825E0,7.444458008E-1,-6.588470459E0,1.241821289E0
2.879608155E0,6.175537109E-1,-6.668685913E0,1.902618408E0
2.884521485E0,3.829345703E-1,-6.908096313E0,2.416183472E0
2.889434815E0,8.724975586E-2,-7.262451172E0,2.200698853E0
2.894348145E0,7.048034668E-2,-8.175827026E0,2.707077026E0
2.899261475E0,2.261047363E-1,-9.150268555E0,3.395416260E0
2.904205323E0,2.404785156E-1,-9.720092773E0,3.780883789E0
2.909118653E0,4.774475098E-2,-9.890075684E0,3.973602295E0
2.914062500E0,7.034301758E-3,-9.829025269E0,4.086135864E0
2.918975831E0,1.147766113E-1,-9.996627808E0,4.010726929E0
2.923889161E0,4.068756104E-1,-1.079508972E1,3.643203735E0
2.928802491E0,3.661651611E-1,-1.155644226E1,4.003540039E0
2.933746338E0,3.853302002E-1,-1.205204773E1,4.997131348E0
2.938659668E0,5.972137451E-1,-1.233935547E1,5.404144287E0
2.943572999E0,6.223449707E-1,-1.250454712E1,5.430480957E0
2.948516846E0,4.272155762E-1,-1.281340027E1,5.046218872E0
2.953430176E0,3.338470459E-1,-1.340237427E1,4.294433594E0
2.958343506E0,1.638641357E-1,-1.406077576E1,3.482803345E0
2.963256836E0,-2.886962891E-2,-1.466531372E1,2.584976196E0
2.968200684E0,-1.186523438E-1,-1.521717834E1,1.501602173E0
2.973114014E0,-1.593627930E-1,-1.559545898E1,4.936370850E-1
2.978027344E0,-6.597900391E-2,-1.548294067E1,-1.695556641E-1
2.982971192E0,2.500457764E-1,-1.504719543E1,-4.664306641E-1
2.987884522E0,5.277709961E-1,-1.465574646E1,-4.173583984E-1
2.992797852E0,7.707824707E-1,-1.460067749E1,-1.528015137E-1
2.997711182E0,9.910583496E-1,-1.453723145E1,2.757720947E-1
3.002655030E0,1.188583374E0,-1.412063599E1,9.593048096E-1
3.007568360E0,1.158645630E0,-1.343589783E1,1.694335938E0
3.012481690E0,8.294525146E-1,-1.245426941E1,2.531097412E0
3.017425538E0,3.194885254E-1,-1.110273743E1,3.296051025E0
3.022338868E0,-2.528381348E-2,-9.975082397E0,3.616867065E0
3.027252198E0,1.470947266E-1,-9.522567749E0,3.565399170E0
3.032165528E0,4.176483154E-1,-9.492645264E0,3.284072876E0
3.037078858E0,6.091766357E-1,-9.619537354E0,2.869888306E0
3.042022706E0,6.702270508E-1,-9.783538818E0,2.419769287E0
3.046936036E0,6.965637207E-1,-9.881698608E0,2.088180542E0
3.051879883E0,8.258514404E-1,-9.874511719E0,2.027130127E0
3.056793213E0,1.070068359E0,-9.971481323E0,2.467651367E0
3.061706543E0,1.038940430E0,-1.027793884E1,2.833969116E0
3.066619874E0,8.641662598E-1,-1.053053284E1,3.134445190E0
3.071563721E0,5.445404053E-1,-1.080227661E1,3.376251221E0
3.076477051E0,-1.976623535E-1,-1.088247681E1,3.248168945E0
3.081390381E0,-1.148162842E0,-1.043116760E1,2.874664307E0
3.086334229E0,-1.842483521E0,-9.863739014E0,2.392242432E0
3.091247559E0,-2.235137939E0,-9.431594849E0,2.029510498E0
3.096160889E0,-2.311752319E0,-9.115554810E0,1.837982178E0
3.101074219E0,-1.896347046E0,-8.816284180E0,1.786499023E0
3.106018067E0,-1.260696411E0,-8.432006836E0,1.488433838E0
3.110931397E0,-2.252044678E-1,-8.196182251E0,1.329208374E0
3.115844727E0,9.407806396E-1,-8.131546021E0,9.653015137E-1
3.120758057E0,1.483062744E0,-8.191390991E0,6.516571045E-1
3.125701905E0,1.263992310E0,-8.239273071E0,8.407897949E-1
3.130615235E0,8.773345947E-1,-8.362579346E0,9.928283691E-1
3.135559082E0,8.916931152E-1,-8.319488525E0,1.634475708E0
3.140472413E0,1.252029419E0,-7.975921631E0,2.036697388E0
3.145385743E0,1.042526245E0,-8.220123291E0,2.587371826E0
3.150299073E0,5.038299561E-1,-8.329055786E0,3.023117065E0
3.155242920E0,1.435089111E-1,-8.345825195E0,3.325973511E0
3.160156250E0,1.746368408E-1,-8.712127686E0,3.689895630E0
3.165069581E0,7.887420654E-1,-9.229278564E0,3.833541870E0
3.170013428E0,1.431594849E0,-9.417221069E0,3.856292725E0
3.174926758E0,1.190979004E0,-9.121536255E0,3.421752930E0
3.179840088E0,1.159851074E0,-8.734878540E0,3.343933105E0
3.184753418E0,1.557281494E0,-8.415252686E0,3.607299805E0
3.189697266E0,1.879302979E0,-7.925643921E0,3.372665405E0
3.194610596E0,2.255187988E0,-7.594039917E0,3.426528931E0
3.199523926E0,2.305465698E0,-7.365402222E0,3.032684326E0
3.204467774E0,1.794311523E0,-7.366592407E0,1.756576538E0
3.209381104E0,1.302307129E0,-7.673049927E0,1.225067139E0
3.214294434E0,3.446197510E-1,-8.363769531E0,8.659362793E-1
3.219207764E0,-7.746734619E-1,-9.496231079E0,-2.772979736E-1
3.224151612E0,-6.429901123E-1,-9.496231079E0,1.247817993E0
3.229064942E0,-1.282348633E-1,-8.886917114E0,2.582580566E0
3.233978272E0,4.534912109E-2,-8.950363159E0,2.210281372E0
3.238922120E0,9.323120117E-2,-9.377716064E0,1.719467163E0
3.243835450E0,5.289764404E-1,-9.436386108E0,1.787704468E0
3.248748780E0,6.702270508E-1,-9.439971924E0,1.882278442E0
3.253662110E0,9.479675293E-1,-9.283157349E0,2.526321411E0
3.258605957E0,9.311981201E-1,-8.660659790E0,4.280075073E0
3.263519288E0,-8.752441406E-2,-8.251251221E0,5.490341187E0
3.268432618E0,-1.129013062E0,-8.386520386E0,5.056991577E0
3.273376465E0,-1.709609985E0,-8.423629761E0,4.286056519E0
3.278289795E0,-8.476867676E-1,-9.049713135E0,2.902206421E0
3.283203125E0,1.144287109E0,-1.014506531E1,8.635406494E-1
3.288146973E0,2.821426392E0,-1.076756287E1,-8.638763428E-1
3.293060303E0,3.410400391E0,-1.040962219E1,-1.653961182E0
3.297973633E0,3.281112671E0,-1.001098633E1,-1.562988281E0
3.302886963E0,2.846557617E0,-1.006605530E1,-1.097305298E0
3.307830811E0,2.245620728E0,-1.025997925E1,-4.867858887E-1
3.312744141E0,1.918807983E0,-1.083219910E1,1.476745605E-1
3.317657471E0,1.590805054E0,-1.184375000E1,7.905120850E-1
3.322601319E0,1.119140625E0,-1.231062317E1,1.774536133E0
3.327514649E0,5.996093750E-1,-1.127752686E1,2.844741821E0
3.332427979E0,6.449890137E-2,-1.052813721E1,3.807220459E0
3.337371827E0,-9.710693359E-2,-1.047665405E1,4.023895264E0
3.342285157E0,2.258300781E-3,-1.048144531E1,3.849105835E0
3.347198487E0,3.087158203E-1,-1.034378052E1,3.767715454E0
3.352111817E0,4.212341309E-1,-1.003971863E1,3.844329834E0
3.357055665E0,1.423187256E-1,-9.530944824E0,3.598922729E0
3.361968995E0,-2.551269531E-1,-9.137100220E0,2.960861206E0
3.366882325E0,-4.921569824E-1,-8.763610840E0,2.647216797E0
3.371795655E0,-5.663757324E-1,-8.675018311E0,2.132461548E0
3.376739502E0,-4.526519775E-1,-9.271179199E0,1.737426758E0
3.381652832E0,-6.238403320E-1,-9.660232544E0,1.508773804E0
3.386566163E0,-3.078002930E-1,-9.765579224E0,1.448928833E0
3.391510010E0,1.913909912E-1,-9.596786499E0,1.772140503E0
3.396423340E0,9.276123047E-1,-8.642700195E0,3.044891357E-1
3.401336670E0,1.921203613E0,-1.025997925E1,-9.413146973E-2
3.406250000E0,5.996093750E-1,-1.092079163E1,3.667449951E-1
3.411193848E0,5.517272949E-1,-1.139483643E1,1.234649658E0
3.416107178E0,-4.538421631E-1,-1.094831848E1,2.496383667E0
3.421020508E0,-3.605651855E-2,-1.019294739E1,2.903396606E0
3.425964356E0,4.104614258E-1,-1.013189697E1,2.880661011E0
3.430877686E0,2.943420410E-1,-1.011991882E1,2.732223511E0
3.435791016E0,2.356872559E-1,-1.023364258E1,2.897415161E0
3.440734864E0,1.662597656E-1,-1.033659363E1,3.352310181E0
3.445648194E0,-3.269500732E-1,-1.024681091E1,3.670745850E0
3.450561524E0,-8.584594727E-1,-1.014865112E1,3.754547119E0
3.455505372E0,-1.158935547E0,-1.034976196E1,3.608489990E0
3.460418702E0,-1.052398682E0,-1.087528992E1,3.421752930E0
3.465332032E0,-4.322967529E-1,-1.153489685E1,3.274505615E0
3.470245362E0,1.255493164E-1,-1.182220459E1,2.805236816E0
3.475158692E0,6.846008301E-1,-1.194909668E1,2.148025513E0
3.480102540E0,1.350189209E0,-1.183656311E1,1.723052979E0
3.485015870E0,1.758392334E0,-1.156362915E1,1.636871338E0
3.489959717E0,2.014572144E0,-1.150616455E1,1.979232788E0
3.494873047E0,1.815856934E0,-1.151095581E1,2.867492676E0
3.499786377E0,1.802688599E0,-1.158517456E1,3.944885254E0
3.504699707E0,1.985839844E0,-1.164263916E1,4.508712769E0
3.509643555E0,2.073242188E0,-1.160192871E1,5.139587402E0
3.514556885E0,2.306671143E0,-1.136251831E1,5.965591431E0
3.519470215E0,2.791488647E0,-1.144869995E1,6.060150146E0
3.524383545E0,2.936340332E0,-1.179586792E1,5.157546997E0
3.529327393E0,2.474258423E0,-1.202091980E1,4.230987549E0
3.534240723E0,1.876907349E0,-1.209992981E1,3.267318726E0
3.539154053E0,1.292724609E0,-1.164622498E1,2.335983276E0
3.544097901E0,7.013549805E-1,-1.079150391E1,1.964874268E0
3.549011231E0,2.140808105E-2,-9.918807983E0,1.815231323E0
3.553924561E0,-4.550476074E-1,-9.162246704E0,1.574615479E0
3.558837891E0,-7.136230469E-1,-9.003036499E0,1.658416748E0
3.563781739E0,-9.877471924E-1,-9.137100220E0,1.930160522E0
3.568695069E0,-1.021270752E0,-9.625518799E0,2.329986572E0
3.573608399E0,-1.288223267E0,-9.712905884E0,2.910583496E0
3.578552247E0,-2.352447510E0,-8.555313110E0,3.627655029E0
3.583465577E0,-2.909103394E0,-7.651504517E0,4.131622314E0
3.588378907E0,-2.892333984E0,-7.148712158E0,4.473999023E0
3.593322754E0,-2.886352539E0,-6.832687378E0,4.390197754E0
3.598236084E0,-2.617004395E0,-6.783599854E0,3.868270874E0
3.603149415E0,-2.089080811E0,-6.953598022E0,3.002761841E0
3.608062745E0,-1.254699707E0,-7.103225708E0,1.808059692E0
3.613006592E0,-3.760375977E-1,-7.063720703E0,5.714416504E-1
3.617919922E0,4.990539551E-1,-7.199005127E0,-1.013183594E-1
3.622833252E0,1.339416504E0,-7.634735107E0,-3.982086182E-1
3.627777100E0,1.782333374E0,-8.010635376E0,-1.456146240E-1
3.632690430E0,1.893676758E0,-8.246459961E0,3.356170654E-1
3.637603760E0,1.735656738E0,-8.606781006E0,9.162139893E-1
3.642517090E0,1.430389404E0,-9.161041260E0,1.407028198E0
3.647460938E0,1.462707520E0,-9.951126099E0,2.244995117E0
3.652374268E0,1.161041260E0,-1.048623657E1,2.912979126E0
3.657287598E0,6.187591553E-1,-1.049461365E1,3.381042480E0
3.662231446E0,2.991333008E-1,-1.063108826E1,3.501953125E0
3.667144776E0,-1.797027588E-1,-1.033540344E1,3.668350220E0
3.672058106E0,-8.321228027E-1,-9.528549194E0,4.083740234E0
3.676971436E0,-1.204421997E0,-8.825851440E0,4.440475464E0
3.681915284E0,-1.227172852E0,-8.183013916E0,4.578140259E0
3.686828614E0,-9.685974121E-1,-7.543762207E0,4.296829224E0
3.691741944E0,-5.663757324E-1,-7.042175293E0,3.835937500E0
3.696685791E0,2.259826660E-2,-6.705795288E0,3.353515625E0
3.701599122E0,4.296112061E-1,-6.803955078E0,2.759750366E0
3.706512452E0,7.743835449E-1,-6.977539062E0,2.425765991E0
3.711425782E0,9.120483398E-1,-7.112808228E0,2.349151611E0
3.716339112E0,7.624053955E-1,-7.391723633E0,2.207885742E0
3.721282959E0,3.422241211E-1,-7.743682861E0,2.012756348E0
3.726226807E0,-6.478881836E-2,-7.935211182E0,2.143249512E0
3.731140137E0,-3.508911133E-1,-8.226104736E0,2.046279907E0
3.736053467E0,-5.627746582E-1,-8.493057251E0,1.835586548E0
3.740966797E0,-5.472259521E-1,-8.579254150E0,1.895446777E0
3.745910645E0,-5.939025879E-1,-8.738464355E0,1.951705933E0
3.750823975E0,-5.735473633E-1,-8.817474365E0,2.067825317E0
3.755737305E0,-6.585540771E-1,-8.835433960E0,2.219863892E0
3.760681153E0,-6.824951172E-1,-8.862960815E0,2.393432617E0
3.765594483E0,-6.896667480E-1,-8.867752075E0,2.642440796E0
3.770507813E0,-6.130523682E-1,-8.797134399E0,2.866287231E0
3.775421143E0,-3.796234131E-1,-8.671432495E0,3.121276855E0
3.780334473E0,-2.263946533E-1,-8.515808105E0,3.594131470E0
3.785278321E0,-1.306304932E-1,-8.098022461E0,3.975997925E0
3.790191651E0,-2.635040283E-1,-7.556930542E0,3.932907104E0
3.795104981E0,-3.293457031E-1,-7.005065918E0,3.740173340E0
3.800048829E0,-3.592681885E-1,-6.740509033E0,3.286468506E0
3.804962159E0,-5.268707275E-1,-6.770431519E0,2.707077026E0
3.809875489E0,-7.124176025E-1,-6.774032593E0,2.316818237E0
3.814819336E0,-1.061965942E0,-7.365402222E0,2.023529053E0
3.819732666E0,-4.394836426E-1,-8.683395386E0,1.623703003E0
3.824645997E0,-2.886962891E-2,-9.855361938E0,1.324432373E0
3.829559327E0,4.774932861E-1,-1.037132263E1,1.164016724E0
3.834503174E0,1.113159180E0,-1.075558472E1,1.092193604E0
3.839416504E0,1.262802124E0,-1.083219910E1,1.344772339E0
3.844329834E0,1.441162109E0,-1.064305115E1,1.940933228E0
3.849243165E0,1.727279663E0,-1.046827698E1,2.319213867E0
3.854187012E0,2.245620728E0,-1.002655029E1,2.482025146E0
3.859100342E0,2.397644043E0,-9.724884033E0,2.848327637E0
3.864013672E0,1.535736084E0,-9.794311523E0,3.181121826E0
3.868957520E0,1.437576294E0,-9.568054199E0,3.397811890E0
3.873870850E0,1.309478760E0,-9.383712769E0,3.895797729E0
3.878784180E0,6.151733398E-1,-9.501022339E0,4.548217773E0
3.883728028E0,3.996887207E-1,-9.523773193E0,4.366256714E0
3.888641358E0,-5.162048340E-2,-9.635101318E0,3.628845215E0
3.893554688E0,-3.125915527E-1,-9.617141724E0,2.838760376E0
3.898498536E0,-6.537628174E-1,-9.855361938E0,1.888259888E0
3.903411866E0,-9.159240723E-1,-1.048025513E1,1.085006714E0
3.908325196E0,-9.757843018E-1,-1.102732849E1,5.247650146E-1
3.913238526E0,-8.979644775E-1,-1.128230286E1,-3.308105469E-2
3.918182374E0,-4.729919434E-1,-1.125358582E1,3.523864746E-1
3.923095704E0,-8.514404297E-2,-1.081184387E1,6.684112549E-1
3.928009034E0,6.211547852E-1,-1.024681091E1,1.353149414E0
3.932952881E0,1.351379395E0,-9.742843628E0,2.375473022E0
3.937866211E0,1.489044189E0,-9.345397949E0,3.304428101E0
3.942779541E0,1.398071289E0,-8.888107300E0,4.089721680E0
3.947723389E0,1.277160645E0,-8.466720581E0,4.312393188E0
3.952636719E0,1.146682739E0,-8.143508911E0,4.092117310E0
3.957550049E0,7.492370605E-1,-8.153091431E0,3.365478516E0
3.962463379E0,5.349578857E-1,-8.109985352E0,2.763336182E0
3.967407227E0,3.829345703E-1,-8.029785156E0,2.630462646E0
3.972320557E0,1.542816162E-1,-8.483489990E0,1.948120117E0
3.977233887E0,8.964538574E-2,-9.072463989E0,1.511169434E0
3.982147217E0,-2.299804688E-1,-9.678192139E0,1.020355225E0
3.987091065E0,-1.078796387E-1,-9.856567383E0,9.437408447E-1
3.992004395E0,-1.342773438E-3,-9.566864014E0,1.561447144E0
3.996917725E0,2.895507812E-1,-9.220901489E0,2.334777832E0
4.001861573E0,5.672760010E-1,-9.545318604E0,2.890228271E0
4.006774903E0,9.419708252E-1,-1.034617615E1,2.565826416E0
4.011688233E0,1.466308594E0,-1.071488953E1,2.525115967E0
4.016601563E0,1.380111694E0,-1.055087280E1,2.635253906E0
4.021545411E0,1.044921875E0,-1.013069153E1,2.335983276E0
4.026458741E0,8.090972900E-1,-9.904449463E0,2.529907227E0
4.031372071E0,4.751129150E-1,-9.647064209E0,1.733840942E0
4.036315918E0,2.811737061E-1,-9.200546265E0,1.023956299E0
4.041229249E0,2.584228516E-1,-8.886917114E0,4.397735596E-1
4.046142579E0,4.739074707E-1,-8.679809570E0,-1.827239990E-1
4.051086426E0,9.730987549E-1,-8.736068726E0,-4.472808838E-1
4.055999756E0,1.611160278E0,-8.737274170E0,-9.175109863E-2
4.060913086E0,2.166610718E0,-8.901275635E0,8.551635742E-1
4.065826416E0,2.366531372E0,-8.596008301E0,2.058242798E0
4.070770264E0,1.957122803E0,-9.218505859E0,2.162399292E0
4.075683594E0,2.085205078E0,-9.135910034E0,2.382659912E0
4.080596924E0,2.155838013E0,-9.396881104E0,3.340347290E0
4.085540772E0,2.025344849E0,-3.343139648E0,5.687850952E0
4.090454102E0,-7.914276123E-1,-6.990707397E0,5.710601807E0
4.095367432E0,3.805389404E-1,-1.049940491E1,-1.323562622E0
4.100280762E0,1.714111328E0,-1.289360046E1,-1.767684937E0
4.105224610E0,2.616714478E0,-1.291516113E1,1.237030029E0
4.110137940E0,1.686569214E0,-1.078671265E1,2.309646606E0
4.115051270E0,1.207580566E-1,-1.083219910E1,3.523498535E0
4.119995118E0,-2.766723633E-1,-1.035455322E1,3.458862305E0
4.124908448E0,-1.138610840E-1,-1.015823364E1,3.142822266E0
4.129821778E0,5.900268555E-1,-1.007563782E1,3.264923096E0
4.134735108E0,1.472290039E0,-1.006845093E1,3.481597900E0
4.139678956E0,2.226470947E0,-1.049461365E1,3.394210815E0
4.144592286E0,2.468276978E0,-1.124279785E1,2.526321411E0
4.149505616E0,2.165405273E0,-1.151214600E1,1.921783447E0
4.154449463E0,1.629104614E0,-1.104647827E1,1.761367798E0
4.159362793E0,6.642456055E-1,-1.097465515E1,1.034729004E0
4.164276124E0,1.518859863E-1,-1.126315308E1,1.668243408E-1
4.169219971E0,-3.366088867E-2,-1.101774597E1,4.830932617E-2
4.174133301E0,-2.048492432E-1,-1.050538635E1,5.930023193E-1
4.179046631E0,-3.366088867E-2,-1.037969971E1,1.010787964E0
4.183959961E0,-2.156219482E-1,-9.708114624E0,1.458496094E0
4.188903809E0,-2.527313232E-1,-9.759597778E0,2.122894287E0
4.193817139E0,4.559478760E-1,-9.857757568E0,2.398223877E0
4.198730469E0,8.007202148E-1,-9.742843628E0,2.672363281E0
4.203674317E0,8.438110352E-1,-9.508209229E0,2.944107056E0
4.208587647E0,9.383850098E-1,-9.444763184E0,2.637649536E0
4.213500977E0,8.701477051E-1,-9.552505493E0,2.558639526E0
4.218444825E0,9.443664551E-1,-9.249633789E0,2.201904297E0
4.223358155E0,9.695129395E-1,-9.432785034E0,1.805664062E0
4.228271485E0,1.054504395E0,-9.692565918E0,1.046691895E0
4.233184815E0,1.339416504E0,-9.893676758E0,7.474212646E-1
4.238128663E0,1.485458374E0,-9.887680054E0,1.137680054E0
4.243041993E0,1.667419434E0,-1.022286987E1,1.632080078E0
4.247955323E0,1.564468384E0,-1.073643494E1,1.991210938E0
4.252899170E0,1.174209595E0,-1.110035706E1,2.175567627E0
4.257812500E0,8.067016602E-1,-1.123202515E1,2.209075928E0
4.262725831E0,8.102874756E-1,-1.094592285E1,2.813613892E0
4.267639161E0,8.821258545E-1,-1.066461182E1,3.596527100E0
4.272583008E0,7.959289551E-1,-1.063467407E1,3.744964600E0
4.277496338E0,6.235504150E-1,-1.105725098E1,3.157180786E0
4.282409668E0,4.260253906E-1,-1.141398621E1,2.403015137E0
4.287353516E0,3.865203857E-1,-1.167495728E1,2.171966553E0
4.292266846E0,5.158081055E-1,-1.188325500E1,2.114517212E0
4.297180176E0,5.876312256E-1,-1.216577148E1,2.346755981E0
4.302093506E0,9.419708252E-1,-1.205923462E1,2.691513062E0
4.307037354E0,1.527359009E0,-1.222084045E1,2.695098877E0
4.311950684E0,1.041336060E0,-1.251652527E1,2.509552002E0
4.316864014E0,9.982452393E-1,-1.223880005E1,1.517166138E0
4.321807862E0,1.230468750E0,-1.204127502E1,5.798339844E-1
4.326721192E0,1.350189209E0,-1.126435852E1,-2.258148193E-1
4.331634522E0,1.441162109E0,-1.123802185E1,-3.539123535E-1
4.336578370E0,1.368148804E0,-1.092916870E1,-4.808044434E-1
4.341491700E0,1.420822144E0,-1.086811829E1,-2.270202637E-1
4.346405030E0,1.471099854E0,-1.088128662E1,3.703308105E-1
4.351318360E0,1.413635254E0,-1.074481201E1,1.116134644E0
4.356262207E0,1.364547729E0,-1.078073120E1,1.605743408E0
4.361175538E0,1.358566284E0,-1.067657471E1,1.963684082E0
4.366088868E0,1.411239624E0,-1.060116577E1,2.480819702E0
4.371002198E0,1.451934814E0,-1.063946533E1,2.738204956E0
4.375946045E0,1.692550659E0,-1.044793701E1,3.037475586E0
4.380859375E0,1.746429443E0,-1.044433594E1,3.129653931E0
4.385772706E0,1.805084229E0,-1.005407715E1,2.892623901E0
4.390716553E0,2.210906982E0,-9.252029419E0,2.942901611E0
4.395629883E0,2.536514282E0,-9.054504395E0,3.397811890E0
4.400543213E0,2.939941406E0,-8.902465820E0,5.297607422E0
4.405456543E0,2.089996338E0,-9.201751709E0,3.200286865E0
4.410400391E0,1.114364624E0,-9.896072388E0,3.104858398E-1
4.415313721E0,5.397491455E-1,-1.051017761E1,-2.425842285E-1
4.420227051E0,-1.091003418E-2,-9.947540283E0,2.290802002E-1
4.425170899E0,-3.999786377E-1,-9.394485474E0,1.223861694E0
4.430084229E0,-1.154144287E0,-9.870925903E0,1.148452759E0
4.434997559E0,-1.617431641E0,-9.882904053E0,1.380691528E0
4.439941407E0,-1.581512451E0,-9.190979004E0,1.622497559E0
4.444854737E0,-1.374420166E0,-8.935989380E0,1.639266968E0
4.449768067E0,-1.096694946E0,-8.829452515E0,1.606948853E0
4.454681397E0,-8.225555420E-1,-8.607986450E0,1.893051147E0
4.459625245E0,-4.933471680E-1,-8.514617920E0,1.926574707E0
4.464538575E0,-1.713256836E-1,-8.527786255E0,1.717071533E0
4.469451905E0,1.422119141E-2,-8.449966431E0,1.676376343E0
4.474365235E0,1.662597656E-1,-8.302719116E0,1.784118652E0
4.479309082E0,3.853302002E-1,-8.053726196E0,1.829605103E0
4.484222413E0,4.751129150E-1,-7.839447021E0,1.992401123E0
4.489166260E0,7.013549805E-1,-7.555740356E0,2.065429688E0
4.494079590E0,9.898529053E-1,-7.066116333E0,1.888259888E0
4.498992920E0,1.395675659E0,-6.481933594E0,1.702713013E0
4.503906250E0,1.649459839E0,-6.013870239E0,1.577011108E0
4.508850098E0,1.672210693E0,-5.772048950E0,1.418991089E0
4.513763428E0,1.396865845E0,-5.744522095E0,1.389068604E0
4.518676758E0,1.244842529E0,-6.181457520E0,1.408218384E0
4.523590088E0,1.315475464E0,-6.991897583E0,1.669189453E0
4.528533936E0,1.061691284E0,-7.663467407E0,1.737426758E0
4.533447266E0,4.523620605E-1,-8.167449951E0,2.221054077E0
4.538360596E0,-1.581573486E-1,-8.531372070E0,2.784881592E0
4.543304444E0,-4.275054932E-1,-8.921630859E0,3.090148926E0
4.548217774E0,-3.712463379E-1,-9.360961914E0,2.940505981E0
4.553131104E0,-2.084350586E-1,-9.855361938E0,2.705886841E0
4.558044434E0,-6.837463379E-2,-1.020372009E1,2.482025146E0
4.562988282E0,4.055786133E-2,-1.043714905E1,2.076202393E0
4.567901612E0,2.258300781E-3,-1.056883240E1,1.876281738E0
4.572814942E0,-1.294250488E-1,-1.055447388E1,1.826004028E0
4.577758790E0,-2.048492432E-1,-1.041680908E1,1.689544678E0
4.582672120E0,-3.281555176E-1,-1.015583801E1,1.405822754E0
4.587585450E0,-3.006134033E-1,-9.909240723E0,1.037124634E0
4.592529297E0,-7.914733887E-2,-9.848175049E0,6.097564697E-1
4.597442627E0,1.291503906E-1,-9.925994873E0,5.020141602E-1
4.602355957E0,1.686401367E-1,-1.000260925E1,6.396789551E-1
4.607269288E0,-1.809692383E-2,-1.007443237E1,9.186096191E-1
4.612213135E0,-3.137817383E-1,-9.948745728E0,1.440551758E0
4.617126465E0,-4.729919434E-1,-9.862548828E0,1.946914673E0
4.622039795E0,-6.214447021E-1,-9.769180298E0,2.381469727E0
4.626983643E0,-6.405944824E-1,-9.708114624E0,2.588562012E0
4.631896973E0,-4.574432373E-1,-9.728469849E0,2.576599121E0
4.636810303E0,-5.424346924E-1,-9.718902588E0,2.661590576E0
4.641723633E0,-6.884765625E-1,-9.712905884E0,2.813613892E0
4.646667481E0,-8.428955078E-1,-9.655441284E0,2.830383301E0
4.651580811E0,-9.542388916E-1,-9.661437988E0,2.869888306E0
4.656494141E0,-1.077529907E0,-9.636291504E0,2.830383301E0
4.661437989E0,-1.038024902E0,-9.641082764E0,2.581375122E0
4.666351319E0,-1.126617432E0,-9.516586304E0,2.399429321E0
4.671264649E0,-1.208023071E0,-9.043731689E0,2.259368896E0
4.676177979E0,-1.011688232E0,-8.721710205E0,2.086975098E0
4.681121827E0,-8.488922119E-1,-8.326660156E0,2.103744507E0
4.686035157E0,-6.920623779E-1,-8.032180786E0,2.116912842E0
4.690948487E0,-6.154479980E-1,-7.919647217E0,2.019943237E0
4.695892334E0,-7.878417969E-1,-7.832260132E0,2.071411133E0
4.700805665E0,-9.410705566E-1,-7.898101807E0,2.003189087E0
4.705718995E0,-1.030853271E0,-8.238082886E0,1.806854248E0
4.710632325E0,-1.022460938E0,-8.602005005E0,1.683563232E0
4.715576172E0,-1.030853271E0,-8.983871460E0,1.803268433E0
4.720489502E0,-1.048797607E0,-9.372940063E0,1.986419678E0
4.725433350E0,-9.817657471E-1,-9.674606323E0,2.188735962E0
4.730346680E0,-9.338836670E-1,-9.910430908E0,2.520324707E0
4.735260010E0,-1.115844727E0,-1.008880615E1,2.774108887E0
4.740173340E0,-1.212799072E0,-1.037251282E1,2.774108887E0
4.745117188E0,-1.430679321E0,-1.070530701E1,2.511947632E0
4.750030518E0,-1.626998901E0,-1.092198181E1,2.385055542E0
4.754943848E0,-1.728759766E0,-1.097944641E1,1.774536133E0
4.759857178E0,-2.054367065E0,-1.086691284E1,1.492019653E0
4.764801026E0,-1.970565796E0,-1.053053284E1,1.580612183E0
4.769714356E0,-1.496520996E0,-1.046348572E1,1.043106079E0
4.774627686E0,-1.600662231E0,-1.038568115E1,7.905120850E-1
4.779571534E0,-1.837692261E0,-1.023364258E1,1.331604004E0
4.784484864E0,-1.653335571E0,-1.009239197E1,1.719467163E0
4.789398194E0,-1.592285156E0,-9.885299683E0,2.076202393E0
4.794311524E0,-1.513275146E0,-9.727279663E0,2.368301392E0
4.799255372E0,-1.580322266E0,-9.457931519E0,2.480819702E0
4.804168702E0,-1.500106812E0,-9.396881104E0,2.674758911E0
4.809082032E0,-1.480957031E0,-9.369338989E0,2.778900146E0
4.813995362E0,-1.489334106E0,-9.420822144E0,2.637649536E0
4.818939209E0,-1.379196167E0,-9.529754639E0,2.398223877E0
4.823852540E0,-1.184082031E0,-9.656646729E0,2.337173462E0
4.828796387E0,-1.197250366E0,-9.612350464E0,2.307250977E0
4.833709717E0,-1.193649292E0,-9.526168823E0,2.282104492E0
4.838623047E0,-1.149353027E0,-9.480667114E0,2.213867188E0
4.843536377E0,-1.133804321E0,-9.457931519E0,2.188735962E0
4.848480225E0,-1.193649292E0,-9.394485474E0,2.199508667E0
4.853393555E0,-1.283432007E0,-9.252029419E0,2.148025513E0
4.858306885E0,-1.356460571E0,-8.915634155E0,2.022338867E0
4.863250733E0,-1.404342651E0,-8.513412476E0,1.853546143E0
4.868194581E0,-1.242736816E0,-8.370956421E0,1.715881348E0
4.873107911E0,-1.063171387E0,-8.466720581E0,1.828399658E0
4.878021241E0,-1.040420532E0,-8.490676880E0,1.966064453E0
4.882934571E0,-1.024856567E0,-8.526580811E0,2.003189087E0
4.887847901E0,-8.464965820E-1,-8.622344971E0,1.997192383E0
4.892761231E0,-3.173828125E-1,-9.182586670E0,2.133666992E0
4.897705079E0,3.506011963E-1,-9.843399048E0,2.278518677E0
4.902618409E0,6.091766357E-1,-9.917617798E0,2.467651367E0
4.907531739E0,8.006286621E-2,-9.374130249E0,2.649612427E0
4.912445069E0,-9.374694824E-1,-8.720520020E0,2.766937256E0
4.917388916E0,-1.765869141E0,-8.540954590E0,2.772918701E0
4.922302247E0,-1.981338501E0,-8.837829590E0,2.476043701E0
4.927215577E0,-1.585098267E0,-9.280761719E0,2.019943237E0
4.932159424E0,-1.191253662E0,-9.447158813E0,1.770950317E0
4.937072754E0,-1.296600342E0,-9.570449829E0,1.806854248E0
4.941986084E0,-1.255905151E0,-9.615951538E0,1.936141968E0
4.946929932E0,-1.316955566E0,-9.360961914E0,1.948120117E0
4.951843262E0,-1.847274780E0,-9.193374634E0,2.310836792E0
4.956756592E0,-2.376388550E0,-9.599182129E0,2.705886841E0
4.961669922E0,-2.073516846E0,-9.954727173E0,2.732223511E0
4.966613770E0,-1.739532471E0,-1.000619507E1,2.741790771E0
4.971527100E0,-1.557571411E0,-1.011991882E1,2.691513062E0
4.976440430E0,-1.131408691E0,-1.006964111E1,2.171966553E0
4.981353760E0,-1.143371582E0,-1.004450989E1,2.019943237E0
4.986297608E0,-1.339706421E0,-1.018936157E1,1.745803833E0
4.991210938E0,-1.084716797E0,-1.034617615E1,1.240631104E0
4.996124268E0,-5.137023926E-1,-1.040243530E1,6.480712891E-1
5.001068116E0,1.195678711E-1,-1.004809570E1,6.408843994E-1
5.005981446E0,5.984039307E-1,-9.594390869E0,8.144531250E-1
5.010894776E0,4.391937256E-1,-9.523773193E0,1.033523560E0
5.015838624E0,2.979278564E-1,-9.430389404E0,1.350769043E0
5.020751954E0,5.577087402E-1,-9.224487305E0,1.560256958E0
5.025665284E0,9.000701904E-1,-8.825851440E0,1.599761963E0
5.030578614E0,8.258514404E-1,-8.467926025E0,1.696731567E0
5.035522461E0,7.288970947E-1,-8.388916016E0,1.498001099E0
5.040435791E0,3.901062012E-1,-8.599609375E0,1.216690063E0
5.045349122E0,3.110961914E-1,-8.853393555E0,9.844512939E-1
5.050262452E0,4.882812500E-1,-8.970703125E0,9.245910645E-1
5.055206299E0,5.612945557E-1,-9.267593384E0,8.384094238E-1
5.060119629E0,5.457305908E-1,-9.229278564E0,7.845306396E-1
5.065032959E0,4.559478760E-1,-9.126327515E0,6.444702148E-1
5.069976807E0,3.685607910E-1,-9.254425049E0,8.312225342E-1
5.074890137E0,5.372619629E-2,-9.694946289E0,1.035919189E0
5.079803467E0,-2.443542480E-1,-1.023364258E1,1.296890259E0
5.084747315E0,-2.766723633E-1,-1.042997742E1,1.966064453E0
5.089660645E0,-6.561584473E-1,-1.008161926E1,2.332382202E0
5.094573975E0,-7.495269775E-1,-9.880508423E0,2.422164917E0
5.099487305E0,-8.165588379E-1,-9.791915894E0,2.182754517E0
5.104431153E0,-4.837646484E-1,-9.538131714E0,1.937347412E0
5.109344483E0,-1.210479736E-1,-9.429199219E0,1.781723022E0
5.114257813E0,4.188385010E-1,-9.316665649E0,1.633270264E0
5.119201661E0,8.174743652E-1,-9.325042725E0,1.380691528E0
5.124114991E0,1.126327515E0,-9.563278198E0,1.190353394E0
5.129028321E0,1.310684204E0,-1.002894592E1,9.964141846E-1
5.133941651E0,8.079071045E-1,-1.054609680E1,9.197998047E-1
5.138885499E0,-4.322967529E-1,-1.070770264E1,1.000015259E0
5.143798829E0,-2.357238770E0,-1.041320801E1,1.120925903E0
5.148712159E0,-3.089859009E0,-1.018457031E1,1.584197998E0
5.153656006E0,-2.107040405E0,-1.040243530E1,2.021133423E0
5.158569336E0,-7.243957520E-1,-1.082621765E1,2.322814941E0
5.163482666E0,4.547576904E-1,-1.072566223E1,2.526321411E0
5.168395997E0,1.511795044E0,-1.006964111E1,2.468856812E0
5.173339844E0,2.344970703E0,-9.036544800E0,2.339569092E0
5.178253174E0,2.738830566E0,-8.029785156E0,2.080993652E0
5.183166504E0,2.927963257E0,-7.349838257E0,1.727844238E0
5.188110352E0,2.911209106E0,-7.094848633E0,1.420196533E0
5.193023682E0,2.564041138E0,-7.019439697E0,1.069442749E0
5.197937012E0,1.954727173E0,-6.897323608E0,6.612243652E-1
5.202880860E0,1.465103149E0,-7.037384033E0,3.176574707E-1
5.207794190E0,1.031753540E0,-7.591644287E0,1.069793701E-1
5.212707520E0,6.391143799E-1,-7.880142212E0,1.201477051E-1
5.217620850E0,1.123809814E-1,-8.507431030E0,5.430603027E-2
5.222564698E0,-6.645355225E-1,-9.406448364E0,1.512603760E-1
5.227478028E0,-1.680877686E0,-1.032223511E1,2.446441650E-1
5.232391358E0,-2.314132690E0,-1.059877014E1,3.918914795E-1
5.237335206E0,-2.218368530E0,-1.067298889E1,8.779144287E-1
5.242248536E0,-1.273864746E0,-1.092317200E1,1.822418213E0
5.247161866E0,-1.198577881E-1,-1.093395996E1,2.553848267E0
5.252075196E0,6.965637207E-1,-1.007922363E1,2.878265381E0
5.257019043E0,1.812271118E0,-9.729675293E0,2.857910156E0
5.261932374E0,2.741210938E0,-9.210128784E0,2.399429321E0
5.266845704E0,3.011764526E0,-9.370544434E0,2.440124512E0
5.271789551E0,2.164215088E0,-8.597213745E0,2.556243896E0
5.276702881E0,1.101196289E0,-7.945983887E0,3.308029175E0
5.281616211E0,5.900268555E-1,-8.665451050E0,5.510681152E0
5.286529541E0,-6.142578125E-1,-1.019653320E1,2.962066650E0
5.291473389E0,-1.533630371E0,-1.118893433E1,-3.958129883E-1
5.296386719E0,-2.182464600E0,-1.047665405E1,-1.468414307E0
5.301300049E0,-1.927474976E0,-1.096148682E1,-2.082519531E0
5.306243897E0,-1.569549561E0,-1.147624207E1,-1.858673096E0
5.311157227E0,-1.349273682E0,-1.188204956E1,-5.957183838E-1
5.316070557E0,-8.321228027E-1,-1.188444519E1,1.037124634E0
5.320983887E0,-3.425140381E-1,-1.203887939E1,2.160003662E0
5.325927735E0,1.758270264E-1,-1.203169250E1,2.830383301E0
5.330841065E0,4.595489502E-1,-1.198979187E1,2.921356201E0
5.335754395E0,4.008789062E-1,-1.161869812E1,2.558639526E0
5.340698243E0,5.744628906E-1,-1.154806519E1,1.837982178E0
5.345611573E0,9.814758301E-1,-1.129188538E1,1.304077148E0
5.350524903E0,9.467620850E-1,-1.034378052E1,1.184371948E0
5.355468750E0,1.157455444E0,-9.457931519E0,1.253799438E0
5.360382081E0,1.340606689E0,-9.020980835E0,1.049087524E0
5.365295411E0,1.469894409E0,-9.316665649E0,9.197998047E-1
5.370208741E0,1.427993774E0,-9.541717529E0,1.028747559E0
5.375152588E0,1.135910034E0,-9.219711304E0,1.169998169E0
5.380065918E0,1.024581909E0,-8.827056885E0,1.119720459E0
5.384979249E0,1.187377930E0,-8.946762085E0,1.085006714E0
5.389923096E0,1.338211060E0,-9.578826904E0,1.304077148E0
5.394836426E0,1.104782104E0,-9.969085693E0,1.561447144E0
5.399749756E0,8.246612549E-1,-9.989440918E0,1.792495728E0
5.404663086E0,7.408599854E-1,-1.047785950E1,1.761367798E0
5.409606934E0,6.738281250E-1,-1.096028137E1,1.700317383E0
5.414520264E0,1.985778809E-1,-1.104768372E1,1.536315918E0
5.419433594E0,-1.629486084E-1,-1.121168518E1,1.626098633E0
5.424377442E0,-4.753875732E-1,-1.139004517E1,1.494415283E0
5.429290772E0,-6.992492676E-1,-1.134695435E1,1.241821289E0
5.434204102E0,-9.063415527E-1,-1.139004517E1,8.802947998E-1
5.439117432E0,-1.042816162E0,-1.152172852E1,5.834197998E-1
5.444061280E0,-1.030853271E0,-1.137568665E1,4.505462646E-1
5.448974610E0,-6.370086670E-1,-1.081184387E1,6.169433594E-1
5.453887940E0,-1.306304932E-1,-1.046827698E1,7.773437500E-1
5.458831788E0,3.314514160E-1,-1.043714905E1,8.384094238E-1
5.463745118E0,6.905822754E-1,-1.080346680E1,8.815002441E-1
5.468658448E0,1.435180664E0,-1.148580933E1,2.410202026E0
5.473602295E0,-9.757843018E-1,-9.120346069E0,6.013793945E-1
5.478515625E0,-2.419586182E-1,-9.566864014E0,1.392974854E-1
5.483428956E0,8.234558105E-1,-1.035215759E1,8.946685791E-1
5.488372803E0,6.103820801E-1,-1.024322510E1,1.178375244E0
5.493286133E0,3.422241211E-1,-1.030667114E1,8.264312744E-1
5.498199463E0,4.332122803E-1,-1.053890991E1,5.666656494E-1
5.503112793E0,4.846801758E-1,-1.017858887E1,8.958587646E-1
5.508026124E0,3.769378662E-1,-9.649459839E0,1.403427124E0
5.512969971E0,4.152526855E-1,-9.581222534E0,1.615325928E0
5.517883301E0,4.128570557E-1,-9.448348999E0,1.781723022E0
5.522796631E0,4.595489502E-1,-9.618331909E0,1.347167969E0
5.527740479E0,4.344024658E-1,-9.927185059E0,1.239425659E0
5.532653809E0,1.674499512E-1,-1.017019653E1,1.338790894E0
5.537567139E0,-1.581573486E-1,-1.013429260E1,1.687149048E0
5.542510987E0,-3.556823730E-1,-1.021090698E1,2.326400757E0
5.547424317E0,-4.143371582E-1,-1.043237305E1,2.786087036E0
5.552337647E0,-1.820983887E-1,-1.114942932E1,1.575820923E0
5.557250977E0,7.983245850E-1,-1.267932129E1,-1.485168457E0
5.562194825E0,9.934539795E-1,-1.300852966E1,-2.023864746E0
5.567108155E0,2.476501465E-1,-1.182818604E1,-1.599731445E-1
5.572021485E0,-3.796234131E-1,-1.052215576E1,7.976989746E-1
5.576934815E0,-5.567932129E-1,-1.015344238E1,9.569091797E-1
5.581878663E0,-5.292663574E-1,-1.032463074E1,1.074234009E0
5.586791993E0,-3.939971924E-1,-1.037370300E1,1.168807983E0
5.591705323E0,-2.970275879E-1,-1.036653137E1,1.174789429E0
5.596649170E0,-5.520629883E-2,-1.025520325E1,1.213088989E0
5.601562500E0,2.632141113E-1,-1.007682800E1,1.556655884E0
5.606475831E0,5.074310303E-1,-1.020013428E1,1.828399658E0
5.611419678E0,4.942626953E-1,-1.064784241E1,1.774536133E0
5.616333008E0,2.991333008E-1,-1.074960327E1,1.877487183E0
5.621246338E0,1.494903564E-1,-1.133857727E1,1.974456787E0
5.626190186E0,-1.557617188E-1,-1.138285828E1,2.028320312E0
5.631103516E0,-2.778778076E-1,-1.136251831E1,1.944519043E0
5.636016846E0,-1.737213135E-1,-1.117218018E1,1.596160889E0
5.640930176E0,2.608184814E-1,-1.108479309E1,1.592575073E0
5.645874024E0,3.613739014E-1,-1.149180603E1,1.945724487E0
5.650787354E0,4.092712402E-1,-1.162947083E1,2.296478271E0
5.655700684E0,1.016082764E-1,-1.133976746E1,2.514343262E0
5.660644532E0,2.258300781E-3,-1.090162659E1,2.640045166E0
5.665557862E0,1.207580566E-1,-1.046948242E1,2.468856812E0
5.670471192E0,3.302612305E-1,-9.757202148E0,2.206695557E0
5.675384522E0,4.978485107E-1,-9.135910034E0,2.182754517E0
5.680328370E0,1.078445435E0,-8.939575195E0,2.143249512E0
5.685241700E0,1.435180664E0,-9.234069824E0,1.695526123E0
5.690155030E0,1.501022339E0,-9.764389038E0,1.308868408E0
5.695098877E0,1.395675659E0,-9.590805054E0,8.156585693E-1
5.700012207E0,9.479675293E-1,-8.982681274E0,2.733764648E-1
5.704925538E0,6.307220459E-1,-8.161468506E0,1.452789307E-1
5.709838868E0,5.792541504E-1,-7.837051392E0,4.601135254E-1
5.714782715E0,8.186798096E-1,-8.621154785E0,6.803894043E-1
5.719696045E0,5.014343262E-1,-8.524185181E0,2.482299805E-1
5.724609375E0,1.818084717E-1,-7.977111816E0,-2.916564941E-1
5.729553223E0,-4.324340820E-2,-8.223709106E0,-5.849456787E-1
5.734466553E0,-4.514465332E-1,-8.575668335E0,-6.807250977E-1
5.739379883E0,-5.651702881E-1,-8.740859985E0,-5.143280029E-1
5.744323731E0,-5.232696533E-1,-8.666641235E0,-1.827239990E-1
5.749237061E0,-3.568725586E-1,-8.618759155E0,2.434387207E-1
5.754150391E0,2.560424805E-1,-9.364547729E0,7.294616699E-1
5.759063721E0,7.624053955E-1,-9.521377563E0,1.207107544E0
5.764007569E0,8.701477051E-1,-9.473495483E0,1.762557983E0
5.768920899E0,9.324035645E-1,-9.613555908E0,2.146835327E0
5.773834229E0,8.210601807E-1,-9.137100220E0,2.375473022E0
5.778778077E0,7.923431396E-1,-8.815078735E0,2.442520142E0
5.783691407E0,1.113159180E0,-8.906066895E0,2.460479736E0
5.788604737E0,1.381317139E0,-8.909652710E0,2.395828247E0
5.793518067E0,1.594390869E0,-9.231674194E0,2.425765991E0
5.798461915E0,1.633895874E0,-9.733261108E0,2.183944702E0
5.803375245E0,1.492645264E0,-9.835006714E0,1.843963623E0
5.808319092E0,1.301101685E0,-9.589614868E0,1.408218384E0
5.813232422E0,1.187377930E0,-9.284347534E0,7.761535645E-1
5.818145752E0,1.084426880E0,-9.201751709E0,3.009033203E-1
5.823059082E0,9.587402344E-1,-9.388488770E0,9.020996094E-2
5.828002930E0,8.689575195E-1,-9.539337158E0,2.075347900E-1
5.832916260E0,8.881072998E-1,-9.703338623E0,6.349029541E-1
5.837829590E0,8.701477051E-1,-9.943954468E0,1.209503174E0
5.842742920E0,6.307220459E-1,-1.024203491E1,1.562652588E0
5.847686768E0,3.913116455E-1,-1.034378052E1,1.647644043E0
5.852600098E0,3.793334961E-1,-9.983459473E0,1.571029663E0
5.857513428E0,4.403839111E-1,-9.473495483E0,9.988098145E-1
5.862426758E0,5.972137451E-1,-9.301101685E0,5.475006104E-1
5.867370606E0,7.229003906E-1,-9.422012329E0,4.912414551E-1
5.872283936E0,7.995147705E-1,-9.481872559E0,5.307464600E-1
5.877197266E0,9.467620850E-1,-9.454330444E0,4.445495605E-1
5.882110596E0,1.305892944E0,-9.252029419E0,3.823089600E-1
5.887054444E0,1.988235474E0,-9.287933350E0,3.044891357E-1
5.891967774E0,2.614318848E0,-9.420822144E0,5.343322754E-1
5.896911622E0,2.523345947E0,-8.914443970E0,1.083801270E0
5.901824952E0,1.923599243E0,-8.566085815E0,1.445327759E0
5.906738282E0,1.430389404E0,-8.889297485E0,1.651229858E0
5.911682129E0,1.103576660E0,-9.309494019E0,1.762557983E0
5.916595459E0,7.336730957E-1,-9.468704224E0,1.876281738E0
5.921508790E0,3.721618652E-1,-9.523773193E0,1.621307373E0
5.926452637E0,4.463806152E-1,-9.657836914E0,1.438156128E0
5.931365967E0,5.888366699E-1,-9.150268555E0,1.307662964E0
5.936279297E0,8.258514404E-1,-8.429611206E0,6.791839600E-1
5.941192627E0,2.811737061E-1,-7.473129272E0,-2.252517700E0
5.946136475E0,2.895507812E-1,-7.206176758E0,-2.250122070E0
5.951049805E0,6.929779053E-1,-7.376174927E0,-2.306060791E-1
5.955963135E0,1.084426880E0,-7.589248657E0,1.371109009E0
5.960906983E0,1.692550659E0,-8.099212646E0,2.612503052E0
5.965820313E0,2.221679688E0,-8.530166626E0,3.455261230E0
5.970733643E0,2.534118652E0,-9.099990845E0,3.786865234E0
5.975646973E0,2.646652222E0,-9.632705688E0,3.547439575E0
5.980590821E0,2.348571777E0,-1.006246948E1,2.865097046E0
5.985504151E0,1.842193604E0,-1.041920471E1,2.216262817E0
5.990417481E0,1.280761719E0,-1.040003967E1,1.665603638E0
5.995330811E0,7.432556152E-1,-1.026716614E1,1.185562134E0
6.000274659E0,3.901062012E-1,-1.030667114E1,8.000946045E-1
6.005187989E0,2.033691406E-1,-1.024203491E1,4.744873047E-1
6.010101319E0,2.165374756E-1,-1.005528259E1,4.086456299E-1
6.015045166E0,4.128570557E-1,-9.983459473E0,5.127868652E-1
6.019958497E0,6.822052002E-1,-9.955917358E0,6.277160645E-1
6.024871827E0,8.964843750E-1,-9.970291138E0,8.623504639E-1
6.029785157E0,9.563446045E-1,-9.887680054E0,1.173583984E0
6.034729004E0,9.982452393E-1,-9.747619629E0,1.432159424E0
6.039642334E0,1.005416870E0,-9.638687134E0,1.656021118E0
6.044555665E0,1.091613770E0,-9.648269653E0,1.794891357E0
6.049499512E0,1.151473999E0,-9.728469849E0,1.806854248E0
6.054412842E0,1.122741699E0,-9.739242554E0,1.701507568E0
6.059326172E0,1.077239990E0,-9.736846924E0,1.626098633E0
6.064270020E0,9.850769043E-1,-9.734451294E0,1.566238403E0
6.069183350E0,9.431762695E-1,-9.696151733E0,1.588989258E0
6.074096680E0,9.012756348E-1,-9.663833618E0,1.542297363E0
6.079010010E0,6.702270508E-1,-9.587219238E0,1.511169434E0
6.083953858E0,5.337677002E-1,-9.583618164E0,1.547088623E0
6.088867188E0,4.990539551E-1,-9.550109863E0,1.605743408E0
6.093780518E0,5.924224854E-1,-9.491439819E0,1.684753418E0
6.098724366E0,7.815704346E-1,-9.535736084E0,1.575820923E0
6.103637696E0,7.193145752E-1,-9.395675659E0,1.483642578E0
6.108551026E0,6.606597900E-1,-9.168228149E0,1.477661133E0
6.113464356E0,7.049560547E-1,-9.055694580E0,1.384277344E0
6.118408204E0,7.767791748E-1,-8.937194824E0,1.027542114E0
6.123321534E0,8.366241455E-1,-8.617568970E0,7.019348145E-1
6.128234864E0,1.037750244E0,-8.709732056E0,4.002685547E-1
6.133148194E0,1.186187744E0,-9.742843628E0,-5.657958984E-1
6.138092041E0,1.496231079E0,-1.012351990E1,-7.681121826E-1
6.143005372E0,1.802688599E0,-1.013668823E1,8.303833008E-2
6.147918702E0,1.997817993E0,-1.032582092E1,2.613983154E-1
6.152862549E0,2.008590698E0,-1.050299072E1,3.643493652E-1
6.157775879E0,1.948730469E0,-1.064784241E1,7.546081543E-1
6.162689209E0,1.930786133E0,-1.078431702E1,1.411819458E0
6.167602540E0,1.843399048E0,-1.082501221E1,1.733840942E0
6.172546387E0,1.659042358E0,-1.073522949E1,2.784881592E0
6.177459717E0,1.503417969E0,-1.048504639E1,4.228591919E0
6.182373047E0,8.821258545E-1,-1.012231445E1,4.463226318E0
6.187316895E0,-8.529663086E-3,-9.627914429E0,4.130432129E0
6.192230225E0,-8.752288818E-1,-9.080841064E0,3.403793335E0
6.197143555E0,-1.636581421E0,-8.513412476E0,2.576599121E0
6.202087403E0,-2.168090820E0,-8.156677246E0,2.064239502E0
6.207000733E0,-2.244705200E0,-8.077667236E0,1.498001099E0
6.211914063E0,-2.247100830E0,-8.010635376E0,1.067047119E0
6.216827393E0,-2.268646240E0,-7.870574951E0,1.062255859E0
6.221771241E0,-2.041198730E0,-7.993865967E0,1.266967773E0
6.226684571E0,-1.417510986E0,-8.060913086E0,1.132888794E0
6.231597901E0,-7.650909424E-1,-7.155899048E0,5.666656494E-1
6.236511231E0,-5.975036621E-1,-7.444396973E0,1.767349243E0
6.241455079E0,-6.812896729E-1,-8.287155151E0,2.812423706E0
6.246368409E0,-7.962188721E-1,-9.156265259E0,3.246963501E0
6.251281739E0,-7.207946777E-1,-9.959518433E0,3.705459595E0
6.256225586E0,-5.364379883E-1,-1.071368408E1,3.590530396E0
6.261138916E0,-3.341369629E-1,-1.115901184E1,2.693908691E0
6.266052247E0,-3.078002930E-1,-1.096746826E1,1.638061523E0
6.270996094E0,-5.711669922E-1,-1.022647095E1,4.936370850E-1
6.275909424E0,-9.542388916E-1,-8.900085449E0,-2.545471191E-1
6.280822754E0,-1.192459106E0,-6.829086304E0,-4.233398438E-1
6.285736084E0,-1.221191406E0,-5.023864746E0,-1.240692139E-1
6.290679932E0,-1.289428711E0,-3.750152588E0,6.648254395E-1
6.295593262E0,-7.495269775E-1,-4.230194092E0,1.347167969E0
6.300506592E0,-3.916015625E-1,-5.913314819E0,1.174789429E0
6.305450440E0,-7.854461670E-1,-7.057739258E0,7.881317139E-1
6.310363770E0,-1.112243652E0,-8.397293091E0,6.420745850E-1
6.315277100E0,-1.079925537E0,-1.023603821E1,9.257965088E-1
6.320190430E0,-9.099426270E-1,-1.196105957E1,1.456100464E0
6.325134278E0,-7.447357178E-1,-1.329223633E1,1.969665527E0
6.330047608E0,-6.525573730E-1,-1.458750916E1,2.558639526E0
6.334960938E0,-4.765930176E-1,-1.571636963E1,3.242187500E0
6.339904786E0,-2.647094727E-1,-1.571157837E1,3.580963135E0
6.344818116E0,2.020263672E-2,-1.467608643E1,3.525894165E0
6.349731446E0,-9.831237793E-2,-1.383811951E1,3.798828125E0
6.354644776E0,-6.178436279E-1,-1.319647217E1,4.189086914E0
6.359588624E0,-1.083526611E0,-1.266615295E1,3.592926025E0
6.364501954E0,-6.370086670E-1,-1.147145081E1,2.549057007E0
6.369415284E0,-1.820983887E-1,-1.141638184E1,2.048675537E0
6.374359131E0,-1.167312622E0,-1.257278442E1,2.434387207E-1
6.379272461E0,-2.408706665E0,-1.210830688E1,-1.602493286E0
6.384185791E0,-1.302581787E0,-1.073164368E1,-2.080123901E0
6.389099122E0,1.985778809E-1,-1.088366699E1,-1.647644043E-1
6.394042969E0,4.092712402E-1,-1.030187988E1,2.569412231E0
6.398956299E0,2.620239258E-1,-9.168228149E0,4.526672363E0
6.403869629E0,4.415893555E-1,-8.613967896E0,5.745315552E0
6.408813477E0,5.720672607E-1,-8.564895630E0,6.183456421E0
6.413726807E0,3.506011963E-1,-8.360183716E0,5.987136841E0
6.418640137E0,-1.330566406E-2,-7.961547852E0,4.960021973E0
6.423583985E0,-3.820190430E-1,-7.432434082E0,3.184722900E0
6.428497315E0,-3.700408936E-1,-6.930847168E0,1.440551758E0
6.433410645E0,5.731201172E-2,-6.929656982E0,7.474212646E-1
6.438323975E0,8.031158447E-1,-7.960357666E0,1.451324463E0
6.443267823E0,1.216110229E0,-9.408843994E0,2.448501587E0
6.448181153E0,6.271362305E-1,-9.911621094E0,2.438919067E0
6.453094483E0,-6.992492676E-1,-9.586013794E0,1.359146118E0
6.458038331E0,-1.603057861E0,-9.564468384E0,-1.288604736E-1
6.462951661E0,-1.294204712E0,-1.003613281E1,-5.933227539E-1
6.467864991E0,-8.225555420E-1,-1.005647278E1,3.535766602E-1
6.472778321E0,-6.010894775E-1,-9.609954834E0,1.809249878E0
6.477722168E0,-4.598236084E-1,-9.348983765E0,3.227813721E0
6.482635499E0,-4.406738281E-1,-9.351379395E0,4.230987549E0
6.487548829E0,-7.902374268E-1,-9.186187744E0,4.476394653E0
6.492492676E0,-9.506378174E-1,-8.974304199E0,4.213027954E0
6.497406006E0,-8.428955078E-1,-8.748046875E0,3.820373535E0
6.502319336E0,-5.891113281E-1,-8.591232300E0,3.340347290E0
6.507232666E0,-4.382781982E-1,-8.455947876E0,2.843551636E0
6.512145997E0,-4.215240479E-1,-8.439193726E0,2.430541992E0
6.517089844E0,-4.167327881E-1,-8.609176636E0,2.230636597E0
6.522003174E0,-3.903961182E-1,-8.833038330E0,2.413787842E0
6.526947022E0,-3.845214844E-2,-9.316665649E0,2.859115601E0
6.531860352E0,1.530914307E-1,-9.677001953E0,3.132049561E0
6.536773682E0,-6.358337402E-2,-9.856567383E0,3.139236450E0
6.541717530E0,-3.903961182E-1,-1.007084656E1,3.050643921E0
6.546630860E0,-4.969329834E-1,-1.021090698E1,2.587371826E0
6.551544190E0,-3.221588135E-1,-1.028512573E1,1.839172363E0
6.556457520E0,1.997680664E-1,-1.052813721E1,9.090270996E-1
6.561401368E0,7.827606201E-1,-1.040364075E1,1.596527100E-1
6.566314698E0,1.524963379E0,-1.004090881E1,-4.505920410E-2
6.571228028E0,2.474258423E0,-1.012112427E1,-8.456420898E-2
6.576171875E0,2.730438232E0,-1.069332886E1,2.135162354E-1
6.581085206E0,1.845779419E0,-1.096867371E1,7.127075195E-1
6.585998536E0,7.444458008E-1,-1.065982056E1,1.278930664E0
6.590942383E0,2.213134766E-1,-1.046948242E1,1.681167603E0
6.595855713E0,1.219635010E-1,-1.065382385E1,1.899032593E0
6.600769043E0,2.416687012E-1,-1.107521057E1,1.835586548E0
6.605682374E0,3.302612305E-1,-1.124879456E1,1.648834229E0
6.610626221E0,3.542022705E-1,-1.101655579E1,1.493209839E0
6.615539551E0,5.038299561E-1,-1.073522949E1,1.525543213E0
6.620452881E0,6.175537109E-1,-1.072087097E1,1.818832397E0
6.625366211E0,9.324035645E-1,-1.053651428E1,2.173171997E0
6.630310059E0,1.240051270E0,-1.021330261E1,2.361114502E0
6.635223389E0,1.438766479E0,-9.609954834E0,2.811218262E0
6.640136719E0,1.443557739E0,-8.897689819E0,3.662368774E0
6.645080567E0,1.351379395E0,-8.726501465E0,4.375839233E0
6.649993897E0,1.210128784E0,-9.020980835E0,4.422515869E0
6.654907227E0,8.450164795E-1,-9.085632324E0,3.582153320E0
6.659820557E0,4.834899902E-1,-8.957534790E0,2.576599121E0
6.664764405E0,1.626586914E-1,-8.604400635E0,2.127685547E0
6.669677735E0,-4.324340820E-2,-8.307510376E0,2.076202393E0
6.674591065E0,-6.958007812E-2,-8.513412476E0,2.173171997E0
6.679534913E0,-8.035278320E-2,-9.254425049E0,2.025924683E0
6.684448243E0,-2.431488037E-1,-9.802688599E0,1.818832397E0
6.689361573E0,-8.189544678E-1,-9.544113159E0,1.708694458E0
6.694274903E0,-1.479766846E0,-8.708541870E0,1.944519043E0
6.699218750E0,-1.761077881E0,-8.089645386E0,2.222244263E0
6.704132081E0,-1.728759766E0,-7.776000977E0,2.515533447E0
6.709045411E0,-1.740722656E0,-7.865783691E0,3.050643921E0
6.713989258E0,-1.457015991E0,-8.317092896E0,3.476806641E0
6.718902588E0,-8.752288818E-1,-8.868957520E0,3.263732910E0
6.723815918E0,-5.172882080E-1,-9.384902954E0,2.626876831E0
6.728759766E0,-3.508911133E-1,-9.770370483E0,1.824813843E0
6.733673096E0,8.604431152E-2,-9.781143188E0,1.195144653E0
6.738586426E0,5.876312256E-1,-9.663833618E0,9.245910645E-1
6.743499756E0,7.001647949E-1,-9.699737549E0,1.171203613E0
6.748443604E0,5.636901855E-1,-9.787124634E0,1.683563232E0
6.753356934E0,3.290557861E-1,-9.954727173E0,2.188735962E0
6.758270264E0,1.075897217E-1,-9.991836548E0,2.570602417E0
6.763214112E0,-1.509857178E-1,-9.929580688E0,2.738204956E0
6.768127442E0,-3.544921875E-1,-9.900848389E0,2.052261353E0
6.773040772E0,-9.554290771E-1,-1.073522949E1,-1.251739502E0
6.777954102E0,-1.671295166E0,-9.492645264E0,6.217346191E-1
6.782897950E0,-1.053588867E0,-1.071966553E1,1.251403809E0
6.787811280E0,-4.921569824E-1,-1.112309265E1,3.761718750E0
6.792724610E0,-7.795715332E-2,-1.046110535E1,5.246124268E0
6.797668457E0,1.291503906E-1,-9.679397583E0,5.284439087E0
6.802581788E0,3.027191162E-1,-8.839019775E0,4.958816528E0
6.807495118E0,4.798889160E-1,-8.066894531E0,4.167541504E0
6.812408448E0,6.307220459E-1,-7.568908691E0,2.947692871E0
6.817352295E0,6.881866455E-1,-7.544967651E0,1.743408203E0
6.822265625E0,4.332122803E-1,-7.825088501E0,8.204498291E-1
6.827178956E0,-2.335815430E-1,-8.263214111E0,2.171020508E-1
6.832122803E0,-9.279022217E-1,-8.955139160E0,2.613983154E-1
6.837036133E0,-1.281036377E0,-9.742843628E0,5.822296143E-1
6.841949463E0,-1.330123901E0,-1.051017761E1,8.312225342E-1
6.846862793E0,-1.224777222E0,-1.102493286E1,1.156829834E0
6.851806641E0,-1.011688232E0,-1.114344788E1,1.499206543E0
6.856719971E0,-8.393096924E-1,-1.088487244E1,1.824813843E0
6.861633301E0,-7.567138672E-1,-1.035694885E1,2.121688843E0
6.866577149E0,-7.674865723E-1,-9.698547363E0,2.303649902E0
6.871490479E0,-5.747528076E-1,-9.289138794E0,2.254577637E0
6.876403809E0,-4.119415283E-1,-9.086822510E0,2.060638428E0
6.881347657E0,-4.478607178E-1,-9.038940430E0,1.890655518E0
6.886260987E0,-4.322967529E-1,-9.395675659E0,1.779327393E0
6.891174317E0,-5.771484375E-1,-9.447158813E0,1.881072998E0
6.896087647E0,-6.788940430E-1,-9.295120239E0,2.399429321E0
6.901031495E0,-4.598236084E-1,-9.518981934E0,2.602935791E0
6.905944825E0,-1.904754639E-1,-1.035575867E1,2.971633911E0
6.910858155E0,1.182556152E-2,-1.046110535E1,3.011138916E0
6.915802002E0,-1.473846436E-1,-9.643478394E0,2.412597656E0
6.920715332E0,-6.621398926E-1,-9.137100220E0,1.699111938E0
6.925628663E0,-1.119430542E0,-8.976699829E0,1.815231323E0
6.930541993E0,-9.195098877E-1,-8.922821045E0,2.265350342E0
6.935485840E0,-7.435455322E-1,-8.816284180E0,2.717849731E0
6.940399170E0,-7.088317871E-1,-8.809097290E0,2.891433716E0
6.945312500E0,-5.699615479E-1,-9.077255249E0,2.532302856E0
6.950225831E0,-5.424346924E-1,-9.406448364E0,2.005569458E0
6.955169678E0,-4.801788330E-1,-9.649459839E0,1.488433838E0
6.960083008E0,-4.670104980E-1,-9.668609619E0,1.148452759E0
6.964996338E0,-4.131469727E-1,-9.732070923E0,1.069442749E0
6.969940186E0,-2.802581787E-1,-9.876907349E0,1.275344849E0
6.974853516E0,-8.035278320E-2,-1.029110718E1,1.374710083E0
6.979766846E0,7.408142090E-2,-1.080107117E1,1.355545044E0
6.984710694E0,-1.162567139E-1,-1.078431702E1,1.223861694E0
6.989624024E0,-2.192077637E-1,-1.113865662E1,8.994598389E-1
6.994537354E0,-4.023742676E-1,-1.081065369E1,7.809448242E-1
6.999481202E0,-4.430694580E-1,-1.075439453E1,6.971435547E-1
7.004394532E0,-5.113067627E-1,-1.042758179E1,6.947479248E-1
7.009307862E0,-5.627746582E-1,-9.923599243E0,1.035919189E0
7.014221192E0,-5.388336182E-1,-9.577636719E0,1.413009644E0
7.019134522E0,-3.820190430E-1,-9.404052734E0,1.756576538E0
7.024078370E0,-1.198577881E-1,-9.377716064E0,1.942123413E0
7.028991700E0,1.997680664E-1,-9.479476929E0,1.928955078E0
7.033935547E0,3.901062012E-1,-9.568054199E0,1.835586548E0
7.038848877E0,3.625793457E-1,-9.571655273E0,1.859527588E0
7.043762207E0,2.512512207E-1,-9.480667114E0,1.821228027E0
7.048675538E0,2.237091064E-1,-9.475891113E0,1.829605103E0
7.053619385E0,2.189331055E-1,-9.518981934E0,1.889450073E0
7.058532715E0,1.818084717E-1,-9.613555908E0,1.817626953E0
7.063446045E0,5.372619629E-2,-9.505813599E0,1.876281738E0
7.068359375E0,-2.767944336E-2,-9.370544434E0,1.854736328E0
7.073303223E0,-3.724670410E-2,-9.466308594E0,1.741012573E0
7.078216553E0,-7.795715332E-2,-9.617141724E0,1.541107178E0
7.083129883E0,-3.365325928E-1,-9.588409424E0,1.306472778E0
7.088043213E0,-5.951080322E-1,-9.410049438E0,1.089797974E0
7.092987061E0,-7.255859375E-1,-9.041336060E0,1.046691895E0
7.097900391E0,-6.537628174E-1,-8.622344971E0,1.117324829E0
7.102844239E0,-6.896667480E-1,-8.203369141E0,1.202316284E0
7.107757569E0,-9.243011475E-1,-7.559326172E0,1.271759033E0
7.112670899E0,-1.096694946E0,-7.060134888E0,1.311264038E0
7.117584229E0,-1.191253662E0,-7.052947998E0,1.378295898E0
7.122528077E0,-9.350738525E-1,-7.796356201E0,1.515960693E0
7.127441407E0,-2.587127686E-1,-9.167037964E0,1.768554688E0
7.132354737E0,4.356079102E-1,-1.061791992E1,2.009170532E0
7.137298584E0,9.024658203E-1,-1.188204956E1,2.088180542E0
7.142211915E0,1.235260010E0,-1.262066650E1,2.219863892E0
7.147125245E0,1.299911499E0,-1.273320007E1,2.320419312E0
7.152038575E0,8.270568848E-1,-1.241835022E1,2.352737427E0
7.156982422E0,1.028137207E-1,-1.220886230E1,2.527511597E0
7.161895752E0,-2.922363281E-1,-1.196466064E1,2.653213501E0
7.166809082E0,-5.783386230E-1,-1.156721497E1,2.787277222E0
7.171752930E0,-6.741180420E-1,-1.164503479E1,2.689117432E0
7.176666260E0,-2.036437988E-1,-1.285171509E1,2.395828247E0
7.181579590E0,-2.431488037E-1,-1.251652527E1,2.307250977E0
7.186523438E0,-4.538421631E-1,-1.182579041E1,2.264144897E0
7.191436768E0,-1.203231812E0,-1.091360474E1,2.204299927E0
7.196350098E0,-1.764663696E0,-9.860153198E0,1.882278442E0
7.201263428E0,-1.471374512E0,-9.586013794E0,1.597366333E0
7.206207276E0,-1.241531372E0,-9.202941895E0,1.490829468E0
7.211120606E0,-1.055984497E0,-8.636718750E0,1.673980713E0
7.216033936E0,-9.841613770E-1,-8.144714355E0,1.732635498E0
7.220977784E0,-8.620605469E-1,-7.906478882E0,1.696731567E0
7.225891114E0,-6.477813721E-1,-7.889724731E0,1.580612183E0
7.230804444E0,-4.813842773E-1,-8.090835571E0,1.447723389E0
7.235717774E0,-3.640594482E-1,-8.494262695E0,1.378295898E0
7.240661622E0,-3.365325928E-1,-9.014999390E0,1.396255493E0
7.245574952E0,-4.059600830E-1,-9.091613770E0,1.579406738E0
7.250488282E0,-2.742767334E-1,-8.414062500E0,1.930160522E0
7.255432129E0,-3.939971924E-1,-7.977111816E0,2.343154907E0
7.260345459E0,-4.215240479E-1,-8.107604980E0,2.329986572E0
7.265258790E0,-4.370880127E-1,-8.232101440E0,2.474838257E0
7.270172120E0,-5.268707275E-1,-8.125549316E0,2.935729980E0
7.275115967E0,-4.562377930E-1,-8.293151855E0,2.762145996E0
7.280059815E0,-5.340576172E-1,-8.307510376E0,3.165573120E0
7.284973145E0,-4.813842773E-1,-8.598403931E0,2.970443726E0
7.289886475E0,-4.873657227E-1,-8.909652710E0,2.686721802E0
7.294799805E0,-4.945526123E-1,-9.418426514E0,2.058242798E0
7.299713135E0,-6.729125977E-1,-9.947540283E0,1.490829468E0
7.304626465E0,-9.159240723E-1,-1.027914429E1,1.312454224E0
7.309570313E0,-1.059570312E0,-1.036174011E1,1.323226929E0
7.314483643E0,-1.234359741E0,-1.031504822E1,1.551879883E0
7.319396973E0,-1.531234741E0,-1.044194031E1,1.964874268E0
7.324340821E0,-2.079513550E0,-1.066221619E1,2.090576172E0
7.329254151E0,-2.547576904E0,-1.063348389E1,1.994796753E0
7.334167481E0,-2.551162720E0,-1.061312866E1,1.741012573E0
7.339111329E0,-2.395538330E0,-1.052334595E1,1.604553223E0
7.344024659E0,-2.062744141E0,-1.040603638E1,1.354354858E0
7.348937989E0,-1.717987061E0,-1.021928406E1,1.136474609E0
7.353851319E0,-1.478561401E0,-1.012231445E1,1.086196899E0
7.358795166E0,-1.303787231E0,-9.917617798E0,1.263366699E0
7.363708497E0,-1.146972656E0,-9.811065674E0,1.014373779E0
7.368621827E0,-1.145767212E0,-9.741638184E0,7.953033447E-1
7.373565674E0,-1.205627441E0,-9.654251099E0,7.677764893E-1
7.378479004E0,-1.225967407E0,-9.375320435E0,8.395996094E-1
7.383392334E0,-1.338500977E0,-9.046127319E0,1.073028564E0
7.388305665E0,-9.398651123E-1,-9.025772095E0,1.112533569E0
7.393249512E0,-8.800201416E-1,-9.115554810E0,1.068252563E0
7.398162842E0,-6.848907471E-1,-1.000379944E1,9.197998047E-1
7.403076172E0,-1.388778687E0,-1.034259033E1,1.094589233E0
7.408020020E0,-1.625808716E0,-9.284347534E0,1.448928833E0
7.412933350E0,-1.105072021E0,-9.437576294E0,1.811645508E0
7.417846680E0,-1.066757202E0,-9.611160278E0,1.987625122E0
7.422760010E0,-1.330123901E0,-9.619537354E0,2.011566162E0
7.427703858E0,-1.336105347E0,-9.720092773E0,1.954101562E0
7.432617188E0,-1.313369751E0,-9.777557373E0,1.962478638E0
7.437530518E0,-1.355255127E0,-9.741638184E0,2.001983643E0
7.442474366E0,-1.367233276E0,-9.706924438E0,2.055847168E0
7.447387696E0,-1.385192871E0,-9.666229248E0,2.078598022E0
7.452301026E0,-1.361251831E0,-9.591995239E0,2.076202393E0
7.457214356E0,-1.309768677E0,-9.497436523E0,2.071411133E0
7.462158204E0,-1.252304077E0,-9.382507324E0,2.101348877E0
7.467071534E0,-1.217590332E0,-9.317871094E0,2.118103027E0
7.471984864E0,-1.164916992E0,-9.292724609E0,2.119293213E0
7.476928711E0,-1.108657837E0,-9.292724609E0,2.096557617E0
7.481842041E0,-1.047607422E0,-9.343002319E0,2.090576172E0
7.486755372E0,-9.793701172E-1,-9.370544434E0,2.125289917E0
7.491699219E0,-9.123382568E-1,-9.405258179E0,2.148025513E0
7.496612549E0,-8.608551025E-1,-9.455535889E0,2.126480103E0
7.501525879E0,-8.345184326E-1,-9.522567749E0,2.113311768E0
7.506439209E0,-7.758636475E-1,-9.550109863E0,2.082183838E0
7.511383057E0,-7.411499023E-1,-9.582427979E0,2.047470093E0
7.516296387E0,-7.303771973E-1,-9.563278198E0,2.019943237E0
7.521209717E0,-7.291717529E-1,-9.514190674E0,2.051071167E0
7.526123047E0,-6.812896729E-1,-9.432785034E0,2.091766357E0
7.531036377E0,-5.376434326E-1,-9.323852539E0,2.164794922E0
7.535980225E0,-5.927124023E-1,-9.323852539E0,2.203094482E0
7.540893555E0,-7.507324219E-1,-9.029357910E0,2.098953247E0
7.545837403E0,-7.686767578E-1,-8.374557495E0,2.145629883E0
7.550750733E0,-3.635742188E0,-6.407714844E0,1.276152039E1
7.555664063E0,-4.552719116E0,-4.671920776E0,1.826939392E1
7.560607911E0,-1.653442383E-1,-9.099990845E0,4.864501953E-1
7.565521241E0,8.604431152E-2,-9.600387573E0,1.469244385E1
7.570434571E0,-1.509857178E-1,-7.627563477E0,1.598052979E1
7.575347901E0,5.954238892E0,-1.232737732E1,-4.484863281E-1
7.580291749E0,4.929519653E0,-1.355320740E1,-2.677154541E-1
7.585205079E0,-4.279785156E0,-1.204725647E1,-9.590744019E0
7.590118409E0,-2.737915039E0,-1.167735291E1,-7.422790527E0
7.595062256E0,-5.903167725E-1,-1.089205933E1,-4.197799683E0
7.599975586E0,-9.590148926E-1,-1.007084656E1,-3.317932129E0
7.604888916E0,-1.034439087E0,-9.769180298E0,-2.472778320E0
7.609832764E0,-4.622192383E-1,-9.767974854E0,-1.098510742E0
7.614746094E0,-2.168121338E-1,-1.000021362E1,-1.153564453E-2
7.619659424E0,-5.041198730E-1,-1.008161926E1,9.473419189E-1
7.624572754E0,-9.578247070E-1,-1.004930115E1,1.304077148E0
7.629516602E0,-9.925384521E-1,-1.000260925E1,1.057464600E0
7.634429932E0,-9.662017822E-1,-1.009118652E1,7.917175293E-1
7.639343262E0,-8.333282471E-1,-9.896072388E0,1.426177979E0
7.644287110E0,-1.449890137E-1,-9.700942993E0,2.103744507E0
7.649200440E0,5.253906250E-1,-9.588409424E0,2.173171997E0
7.654113770E0,6.905822754E-1,-9.413635254E0,2.139648438E0
7.659027100E0,1.076049805E0,-9.629119873E0,1.881072998E0
7.663970948E0,1.082031250E0,-9.605163574E0,1.432159424E0
7.668884278E0,1.212524414E0,-9.681777954E0,1.025146484E0
7.673797608E0,1.411239624E0,-1.020252991E1,2.003479004E-1
7.678741456E0,1.046127319E0,-1.007324219E1,5.618743896E-1
7.683654786E0,3.781433105E-1,-9.832626343E0,8.755187988E-1
7.688568116E0,-2.359771729E-1,-9.578826904E0,1.501602173E0
7.693511963E0,-6.226348877E-1,-9.374130249E0,2.410202026E0
7.698425293E0,-5.843353271E-1,-9.343002319E0,2.842346191E0
7.703338624E0,-3.101959229E-1,-9.477081299E0,3.103317261E0
7.708251954E0,1.066467285E0,-9.627914429E0,3.329574585E0
7.713195801E0,1.997817993E0,-9.829025269E0,3.285278320E0
7.718109131E0,1.363357544E0,-1.018336487E1,2.697494507E0
7.723022461E0,3.398284912E-1,-1.028752136E1,2.266540527E0
7.727935791E0,-2.168121338E-1,-1.015344238E1,2.254577637E0
7.732879639E0,-9.195098877E-1,-1.001577759E1,1.966064453E0
7.737792969E0,-2.095077515E0,-9.783538818E0,1.882278442E0
7.742706299E0,-3.083877563E0,-9.677001953E0,1.757781982E0
7.747619629E0,-3.541168213E0,-9.587219238E0,1.773345947E0
7.752563477E0,-3.961349487E0,-9.459121704E0,2.047470093E0
7.757476807E0,-4.158874512E0,-9.396881104E0,2.296478271E0
7.762390137E0,-3.905090332E0,-9.596786499E0,2.148025513E0
7.767333985E0,-3.227523804E0,-9.904449463E0,1.889450073E0
7.772247315E0,-2.390747070E0,-1.022647095E1,1.869110107E0
7.777160645E0,-1.389984131E0,-1.066699219E1,1.718276978E0
7.782104493E0,-6.932678223E-1,-1.109556580E1,1.440551758E0
7.787017823E0,-3.293457031E-1,-1.113984680E1,1.588989258E0
7.791931153E0,-9.745788574E-1,-1.068495178E1,2.137252808E0
7.796844483E0,-1.962188721E0,-1.017259216E1,2.932128906E0
7.801788331E0,-2.369201660E0,-9.580032349E0,3.655181885E0
7.806732178E0,-2.268646240E0,-8.914443970E0,3.298446655E0
7.811645508E0,-2.079513550E0,-8.669036865E0,2.616104126E0
7.816558838E0,-1.775451660E0,-9.060485840E0,2.058242798E0
7.821472168E0,-1.366043091E0,-9.348983765E0,1.764953613E0
7.826385499E0,-8.692321777E-1,-9.376525879E0,1.696731567E0
7.831329346E0,-5.951080322E-1,-9.352584839E0,1.662002563E0
7.836242676E0,-4.526519775E-1,-9.223297119E0,1.715881348E0
7.841156006E0,-4.203796387E-2,-8.953948975E0,1.383087158E0
7.846069336E0,2.069549561E-1,-8.823471069E0,8.802947998E-1
7.851013184E0,4.104614258E-1,-8.904861450E0,1.056274414E0
7.855926514E0,1.435089111E-1,-8.920425415E0,1.167602539E0
7.860839844E0,-1.114807129E-1,-9.370544434E0,3.523864746E-1
7.865783692E0,-1.354217529E-1,-9.897262573E0,2.374572754E-1
7.870697022E0,-3.401184082E-1,-1.003613281E1,8.731231689E-1
7.875610352E0,-3.401184082E-1,-9.890075684E0,1.282531738E0
7.880523682E0,-2.635040283E-1,-9.724884033E0,1.784118652E0
7.885437012E0,2.093505859E-1,-9.796707153E0,1.842773438E0
7.890380860E0,4.020843506E-1,-9.961914062E0,1.922973633E0
7.895294190E0,-3.964233398E-2,-9.946350098E0,2.040298462E0
7.900238038E0,-2.910461426E-1,-9.886489868E0,2.308441162E0
7.905151368E0,-3.042144775E-1,-1.005049133E1,2.335983276E0
7.910064698E0,-6.178436279E-1,-1.001457214E1,2.805236816E0
7.914978028E0,-9.937438965E-1,-9.771560669E0,2.892623901E0
7.919921875E0,-1.170913696E0,-9.524963379E0,2.440124512E0
7.924835206E0,-1.224777222E0,-9.400466919E0,2.453292847E0
7.929748536E0,-1.525253296E0,-9.358566284E0,2.574203491E0
7.934692383E0,-1.397155762E0,-9.315475464E0,2.308441162E0
7.939605713E0,-1.088302612E0,-9.411239624E0,2.292877197E0
7.944519043E0,-6.872863770E-1,-9.509399414E0,2.194717407E0
7.949462891E0,-3.951873779E-1,-9.508209229E0,2.072616577E0
7.954376221E0,-6.609497070E-1,-9.407653809E0,2.204299927E0
7.959289551E0,-7.483367920E-1,-9.400466919E0,2.071411133E0
7.964202881E0,-1.058380127E0,-9.338211060E0,1.938537598E0
7.969146729E0,-1.266677856E0,-9.467498779E0,1.842773438E0
7.974060059E0,-9.949340820E-1,-9.594390869E0,1.532714844E0
7.978973389E0,-8.452911377E-1,-9.562072754E0,1.586593628E0
7.983917237E0,-5.220794678E-1,-9.638687134E0,1.858337402E0
7.988830567E0,-2.886505127E-1,-9.744033813E0,1.872695923E0
7.993743897E0,-2.826538086E-1,-9.738052368E0,1.909805298E0
7.998657227E0,-5.543975830E-1,-9.687774658E0,1.944519043E0
8.003601075E0,-4.358825684E-1,-9.657836914E0,1.787704468E0
8.008514405E0,-4.574432373E-1,-9.668609619E0,1.835586548E0
8.013427735E0,-9.913482666E-1,-9.582427979E0,2.069015503E0
8.018371582E0,-1.313369751E0,-9.735656738E0,2.504760742E0
8.023284913E0,-1.206817627E0,-9.740447998E0,1.866714478E0
8.028198243E0,-2.790679932E-1,-9.785934448E0,6.540527344E-1
8.033142090E0,2.141418457E-1,-9.869735718E0,3.834991455E-1
8.038055420E0,7.001647949E-1,-9.916412354E0,8.108673096E-1
8.042968750E0,8.677520752E-1,-1.000140381E1,1.605743408E0
8.047882081E0,9.802856445E-1,-1.011752319E1,2.467651367E0
8.052825928E0,1.240051270E0,-1.025639343E1,2.711868286E0
8.057739258E0,1.518981934E0,-1.045152283E1,2.351531982E0
8.062652588E0,1.487854004E0,-1.066938782E1,2.091766357E0
8.067565918E0,1.011413574E0,-1.068495178E1,2.419769287E0
8.072509766E0,3.601837158E-1,-1.033779907E1,2.332382202E0
8.077423096E0,-2.024536133E-1,-1.018696594E1,2.262954712E0
8.082336426E0,-4.035644531E-1,-1.036174011E1,2.036697388E0
8.087280274E0,-7.950134277E-1,-1.046588135E1,1.877487183E0
8.092193604E0,-1.648544312E0,-9.843399048E0,1.408218384E0
8.097106934E0,-1.899948120E0,-8.930007935E0,8.312225342E-1
8.102050782E0,-1.665313721E0,-8.549331665E0,1.014373779E0
8.106964112E0,-1.255905151E0,-8.625946045E0,1.226257324E0
8.111877442E0,-9.207153320E-1,-8.890502930E0,1.323226929E0
8.116790772E0,-7.842407227E-1,-9.200546265E0,1.380691528E0
8.121734620E0,-9.003601074E-1,-9.200546265E0,1.565048218E0
8.126647950E0,-1.115844727E0,-9.132308960E0,1.888259888E0
8.131561280E0,-9.733886719E-1,-9.168228149E0,1.918182373E0
8.136505127E0,-9.506378174E-1,-9.218505859E0,1.916992188E0
8.141418457E0,-8.919830322E-1,-9.401657104E0,1.792495728E0
8.146362305E0,-7.890319824E-1,-9.503417969E0,1.633270264E0
8.151275635E0,-1.096694946E0,-9.441162109E0,1.611724854E0
8.156188965E0,-1.142181396E0,-9.343002319E0,1.620117188E0
8.161102295E0,-1.231964111E0,-9.296325684E0,1.630889893E0
8.166015625E0,-1.180480957E0,-9.287933350E0,1.744613647E0
8.170959473E0,-9.602203369E-1,-9.332229614E0,1.687149048E0
8.175872803E0,-7.315673828E-1,-9.339416504E0,1.453720093E0
8.180786133E0,-4.610290527E-1,-9.459121704E0,1.509979248E0
8.185729981E0,-2.635040283E-1,-9.568054199E0,1.582992554E0
8.190643311E0,-4.921569824E-1,-9.570449829E0,1.714675903E0
8.195556641E0,-8.752288818E-1,-9.423217773E0,1.749389648E0
8.200469971E0,-1.352874756E0,-9.296325684E0,1.561447144E0
8.205413819E0,-1.744323730E0,-9.060485840E0,6.576385498E-1
8.210327149E0,-7.926177979E-1,-9.219711304E0,9.329681396E-1
8.215240479E0,6.953735352E-1,-9.630310059E0,2.347946167E0
8.220184327E0,1.207733154E0,-9.923599243E0,2.952484131E0
8.225097657E0,1.350189209E0,-1.016900635E1,3.050643921E0
8.230010987E0,1.419616699E0,-1.036293030E1,2.909393311E0
8.234924317E0,1.331039429E0,-1.050299072E1,2.503570557E0
8.239868165E0,1.141891479E0,-1.050059509E1,1.993606567E0
8.244781495E0,7.480468750E-1,-1.032821655E1,1.652435303E0
8.249694825E0,5.529174805E-1,-1.026237488E1,1.368713379E0
8.254608155E0,3.829345703E-1,-1.026716614E1,1.141265869E0
8.259552002E0,5.851745605E-2,-1.018576050E1,1.213088989E0
8.264465332E0,-3.365325928E-1,-9.959518433E0,1.417800903E0
8.269378663E0,-4.406738281E-1,-9.815856934E0,1.609329224E0
8.274322510E0,-2.599182129E-1,-9.795516968E0,1.714675903E0
8.279235840E0,-3.640594482E-1,-9.767974854E0,1.725448608E0
8.284149170E0,-6.034851074E-1,-9.663833618E0,1.724258423E0
8.289093018E0,-5.268707275E-1,-9.656646729E0,1.726654053E0
8.294006348E0,-4.610290527E-1,-9.693756104E0,1.732635498E0
8.298919678E0,-4.825744629E-1,-9.667419434E0,1.737426758E0
8.303833008E0,-4.909515381E-1,-9.666229248E0,1.774536133E0
8.308776856E0,-5.196838379E-1,-9.674606323E0,1.784118652E0
8.313690186E0,-5.639801025E-1,-9.699737549E0,1.796081543E0
8.318603516E0,-5.723571777E-1,-9.682983398E0,1.798477173E0
8.323547364E0,-6.070709229E-1,-9.650665283E0,1.774536133E0
8.328460694E0,-5.915069580E-1,-9.603973389E0,1.742218018E0
8.333374024E0,-5.639801025E-1,-9.574050903E0,1.739822388E0
8.338287354E0,-5.879211426E-1,-9.533340454E0,1.752990723E0
8.343231202E0,-5.496063232E-1,-9.503417969E0,1.717071533E0
8.348144532E0,-5.005340576E-1,-9.463912964E0,1.725448608E0
8.353057862E0,-4.370880127E-1,-9.454330444E0,1.697921753E0
8.358001709E0,-4.442749023E-1,-9.465103149E0,1.767349243E0
8.362915040E0,-4.454650879E-1,-9.511795044E0,1.818832397E0
8.367828370E0,-4.526519775E-1,-9.508209229E0,1.851150513E0
8.372741700E0,-4.765930176E-1,-9.530944824E0,1.875091553E0
8.377685547E0,-5.160980225E-1,-9.580032349E0,1.893051147E0
8.382598877E0,-5.520019531E-1,-9.612350464E0,1.903823853E0
8.387512207E0,-5.460205078E-1,-9.636291504E0,1.900238037E0
8.392456055E0,-6.525573730E-1,-9.631500244E0,1.958892822E0
8.397369385E0,-6.657257080E-1,-9.681777954E0,2.005569458E0
8.402282715E0,-6.022796631E-1,-9.685379028E0,2.039093018E0
8.407196045E0,-5.951080322E-1,-9.687774658E0,1.967269897E0
8.412139893E0,-6.453857422E-1,-9.704528809E0,1.921783447E0
8.417053223E0,-6.370086670E-1,-9.711715698E0,1.895446777E0
8.421966553E0,-6.405944824E-1,-9.720092773E0,1.871505737E0
8.426910401E0,-6.250305176E-1,-9.744033813E0,1.863128662E0
8.431823731E0,-6.346130371E-1,-9.759597778E0,1.841567993E0
8.436737061E0,-6.764984131E-1,-9.826629639E0,1.847564697E0
8.441680909E0,-6.537628174E-1,-9.839797974E0,1.823623657E0
8.446594239E0,-5.723571777E-1,-9.855361938E0,1.837982178E0
8.451507569E0,-5.376434326E-1,-9.892471313E0,1.894241333E0
8.456420899E0,-5.148925781E-1,-9.924789429E0,1.876281738E0
8.461364747E0,-6.609497070E-1,-9.902053833E0,1.905014038E0
8.466278077E0,-6.657257080E-1,-9.876907349E0,1.987625122E0
8.471191407E0,-6.453857422E-1,-9.845794678E0,1.940933228E0
8.476135254E0,-6.872863770E-1,-9.902053833E0,1.933746338E0
8.481048584E0,-7.950134277E-1,-9.879302979E0,2.033111572E0
8.485961915E0,-7.650909424E-1,-9.841003418E0,2.106140137E0
8.490875245E0,-7.279815674E-1,-9.783538818E0,2.069015503E0
8.495819092E0,-7.279815674E-1,-9.730865479E0,2.030715942E0
8.500732422E0,-7.459411621E-1,-9.739242554E0,2.004379272E0
8.505645752E0,-8.057861328E-1,-9.685379028E0,2.048675537E0
8.510589600E0,-8.512878418E-1,-9.639892578E0,2.019943237E0
8.515502930E0,-8.560638428E-1,-9.602783203E0,1.992401123E0
8.520416260E0,-8.632507324E-1,-9.601577759E0,2.001983643E0
8.525329590E0,-8.441009521E-1,-9.576446533E0,2.025924683E0
8.530273438E0,-9.171295166E-1,-9.597991943E0,2.082183838E0
8.535186768E0,-9.231109619E-1,-9.596786499E0,2.162399292E0
8.540100098E0,-8.381195068E-1,-9.650665283E0,2.116912842E0
8.545043946E0,-8.141784668E-1,-9.677001953E0,2.086975098E0
8.549957276E0,-9.398651123E-1,-9.681777954E0,2.119293213E0
8.554878267E0,-8.967742920E-1,-9.644668579E0,2.136062622E0
8.559791597E0,-8.297271729E-1,-9.667419434E0,2.139648438E0
8.564735445E0,-8.441009521E-1,-9.687774658E0,2.174362183E0
8.569648775E0,-8.764190674E-1,-9.688964844E0,2.193527222E0
8.574562105E0,-8.464965820E-1,-9.655441284E0,2.192321777E0
8.579505952E0,-8.572692871E-1,-9.625518799E0,2.156417847E0
8.584419283E0,-8.955688477E-1,-9.641082764E0,2.133666992E0
8.589332613E0,-9.183197021E-1,-9.679397583E0,2.180358887E0
8.594276460E0,-9.195098877E-1,-9.677001953E0,2.176757812E0
8.599189790E0,-9.650115967E-1,-9.679397583E0,2.223449707E0
8.604103120E0,-1.050003052E0,-9.663833618E0,2.231826782E0
8.609016451E0,-1.076339722E0,-9.651855469E0,2.243804932E0
8.613960298E0,-1.129013062E0,-9.632705688E0,2.211471558E0
8.618873628E0,-1.175689697E0,-9.613555908E0,2.194717407E0
8.623786958E0,-1.132598877E0,-9.607559204E0,2.189926147E0
8.628730806E0,-1.131408691E0,-9.565673828E0,2.173171997E0
8.633644136E0,-1.186477661E0,-9.493835449E0,2.176757812E0
8.638557466E0,-1.221191406E0,-9.522567749E0,2.134857178E0
8.643470796E0,-1.193649292E0,-9.520172119E0,2.118103027E0
8.648414644E0,-1.247528076E0,-9.529754639E0,2.119293213E0
8.653327974E0,-1.247528076E0,-9.466308594E0,2.124084473E0
8.658271822E0,-1.351669312E0,-9.503417969E0,2.140853882E0
8.663185152E0,-1.349273682E0,-9.448348999E0,2.176757812E0
8.668098482E0,-1.300201416E0,-9.402862549E0,2.224639893E0
8.673011812E0,-1.300201416E0,-9.376525879E0,2.262954712E0
8.677925142E0,-1.356460571E0,-9.358566284E0,2.253372192E0
8.682868990E0,-1.381591797E0,-9.370544434E0,2.261749268E0
8.687782320E0,-1.379196167E0,-9.417221069E0,2.288085938E0
8.692695650E0,-1.383987427E0,-9.441162109E0,2.324005127E0
8.697639497E0,-1.427093506E0,-9.412429810E0,2.350341797E0
8.702552827E0,-1.448638916E0,-9.511795044E0,2.340759277E0
8.707466158E0,-1.461807251E0,-9.574050903E0,2.327590942E0
8.712379488E0,-1.435470581E0,-9.568054199E0,2.324005127E0
8.717292818E0,-1.397155762E0,-9.614746094E0,2.303649902E0
8.722236665E0,-1.399551392E0,-9.633895874E0,2.271331787E0
8.727149995E0,-1.411529541E0,-9.655441284E0,2.221054077E0
8.732093843E0,-1.421096802E0,-9.647064209E0,2.180358887E0
8.737007173E0,-1.413925171E0,-9.589614868E0,2.158798218E0
8.741920503E0,-1.443847656E0,-9.562072754E0,2.125289917E0
8.746864351E0,-1.468978882E0,-9.498626709E0,2.077407837E0
8.751777681E0,-1.500106812E0,-9.435180664E0,2.084579468E0
8.756691011E0,-1.518066406E0,-9.395675659E0,2.030715942E0
8.761604341E0,-1.479766846E0,-9.412429810E0,2.036697388E0
8.766548189E0,-1.431869507E0,-9.435180664E0,2.077407837E0
8.771461519E0,-1.464202881E0,-9.412429810E0,2.086975098E0
8.776374849E0,-1.480957031E0,-9.418426514E0,2.124084473E0
8.781318697E0,-1.573135376E0,-9.390884399E0,2.199508667E0
8.786232027E0,-1.543212891E0,-9.437576294E0,2.239013672E0
8.791145357E0,-1.496520996E0,-9.447158813E0,2.320419312E0
8.796058687E0,-1.557571411E0,-9.387298584E0,2.352737427E0
8.800972017E0,-1.601867676E0,-9.455535889E0,2.350341797E0
8.805915865E0,-1.448638916E0,-9.626724243E0,2.326400757E0
8.810829195E0,-1.272659302E0,-9.686569214E0,2.326400757E0
8.815773042E0,-1.126617432E0,-9.588409424E0,2.404205322E0
8.820686372E0,-1.202026367E0,-9.510604858E0,2.386260986E0
8.825599702E0,-1.223587036E0,-9.425598145E0,2.285690308E0
8.830513033E0,-1.246322632E0,-9.363357544E0,2.218658447E0
8.835426363E0,-1.269073486E0,-9.406448364E0,2.142044067E0
8.840370210E0,-1.253509521E0,-9.491439819E0,2.125289917E0
8.845283540E0,-1.308578491E0,-9.462722778E0,2.200698853E0
8.850227388E0,-1.453430176E0,-9.407653809E0,2.200698853E0
8.855140718E0,-1.197250366E0,-9.467498779E0,2.165985107E0
8.860054048E0,-1.018875122E0,-9.455535889E0,2.260559082E0
8.864967378E0,-1.035629272E0,-9.454330444E0,2.266540527E0
8.869911226E0,-1.046417236E0,-9.532150269E0,2.304855347E0
8.874824556E0,-1.035629272E0,-9.605163574E0,2.333587646E0
8.879737886E0,-1.023666382E0,-9.630310059E0,2.308441162E0
8.884681734E0,-1.058380127E0,-9.655441284E0,2.322814941E0
8.889595064E0,-1.088302612E0,-9.715301514E0,2.297668457E0
8.894508394E0,-1.087112427E0,-9.729675293E0,2.291687012E0
8.899421724E0,-1.118240356E0,-9.738052368E0,2.301254272E0
8.904365572E0,-1.130203247E0,-9.757202148E0,2.283309937E0
8.909278902E0,-1.198440552E0,-9.791915894E0,2.284500122E0
8.914192232E0,-1.194854736E0,-9.784729004E0,2.247390747E0
8.919136079E0,-1.186477661E0,-9.775161743E0,2.240203857E0
8.924049410E0,-1.253509521E0,-9.790725708E0,2.177963257E0
8.928962740E0,-1.293014526E0,-9.752410889E0,2.233032227E0
8.933906587E0,-1.344482422E0,-9.714111328E0,2.319213867E0
8.938819917E0,-1.410324097E0,-9.703338623E0,2.341964722E0
8.943733247E0,-1.443847656E0,-9.690170288E0,2.349151611E0
8.948646577E0,-1.458206177E0,-9.672210693E0,2.361114502E0
8.953590425E0,-1.492935181E0,-9.637496948E0,2.414978027E0
8.958503755E0,-1.569549561E0,-9.591995239E0,2.471252441E0
8.963417085E0,-1.577926636E0,-9.521377563E0,2.447311401E0
8.968360933E0,-1.565948486E0,-9.457931519E0,2.424560547E0
8.973274263E0,-1.575531006E0,-9.390884399E0,2.403015137E0
8.978187593E0,-1.561157227E0,-9.346603394E0,2.383865356E0
8.983100923E0,-1.502502441E0,-9.359771729E0,2.380264282E0
8.988044771E0,-1.595886230E0,-9.335815430E0,2.356323242E0
8.992958101E0,-1.589889526E0,-9.315475464E0,2.303649902E0
8.997871431E0,-1.595886230E0,-9.334625244E0,2.296478271E0
9.002815279E0,-1.571929932E0,-9.327438354E0,2.331192017E0
9.007728609E0,-1.612640381E0,-9.289138794E0,2.383865356E0
9.012641939E0,-1.579116821E0,-9.291534424E0,2.408996582E0
9.017555269E0,-1.610244751E0,-9.283157349E0,2.392242432E0
9.022499117E0,-1.530044556E0,-9.328643799E0,2.401809692E0
9.027412447E0,-1.556381226E0,-9.279556274E0,2.408996582E0
9.032325777E0,-1.486938477E0,-9.296325684E0,2.410202026E0
9.037269624E0,-1.540817261E0,-9.269989014E0,2.357528687E0
9.042182954E0,-1.516876221E0,-9.315475464E0,2.325195312E0
9.047096285E0,-1.531234741E0,-9.347793579E0,2.349151611E0
9.052040132E0,-1.500106812E0,-9.353775024E0,2.329986572E0
9.056953462E0,-1.473770142E0,-9.378921509E0,2.313232422E0
9.061866792E0,-1.504898071E0,-9.478271484E0,2.300064087E0
9.066810640E0,-1.542007446E0,-9.540527344E0,2.224639893E0
9.071723970E0,-1.591094971E0,-9.583618164E0,2.230636597E0
9.076637300E0,-1.636581421E0,-9.623123169E0,2.180358887E0
9.081550630E0,-1.692840576E0,-9.621932983E0,2.149230957E0
9.086463960E0,-1.695236206E0,-9.629119873E0,2.125289917E0
9.091407808E0,-1.684463501E0,-9.626724243E0,2.167190552E0
9.096321138E0,-1.719177246E0,-9.620727539E0,2.109725952E0
9.101234468E0,-1.662918091E0,-9.633895874E0,2.048675537E0
9.106178316E0,-1.624603271E0,-9.619537354E0,2.036697388E0
9.111091646E0,-1.628204346E0,-9.624328613E0,2.058242798E0
9.116004976E0,-1.618621826E0,-9.642288208E0,2.034301758E0
9.120918306E0,-1.624603271E0,-9.643478394E0,2.051071167E0
9.125862154E0,-1.673690796E0,-9.627914429E0,2.064239502E0
9.130775484E0,-1.655731201E0,-9.574050903E0,2.057052612E0
9.135688814E0,-1.684463501E0,-9.572845459E0,2.036697388E0
9.140632661E0,-1.697631836E0,-9.521377563E0,2.023529053E0
9.145545992E0,-1.683273315E0,-9.489059448E0,2.006774902E0
9.150459322E0,-1.719177246E0,-9.485458374E0,2.007965088E0
9.155403169E0,-1.688049316E0,-9.484268188E0,2.013961792E0
9.160316499E0,-1.672500610E0,-9.426803589E0,1.986419678E0
9.165229829E0,-1.690444946E0,-9.432785034E0,1.969665527E0
9.170173677E0,-1.653335571E0,-9.411239624E0,1.986419678E0
9.175087007E0,-1.676086426E0,-9.438766479E0,1.964874268E0
9.180000337E0,-1.710800171E0,-9.441162109E0,1.969665527E0
9.184913667E0,-1.680877686E0,-9.430389404E0,2.051071167E0
9.189826997E0,-1.647354126E0,-9.451934814E0,2.070220947E0
9.194770845E0,-1.616226196E0,-9.465103149E0,2.064239502E0
9.199684175E0,-1.623413086E0,-9.461517334E0,2.057052612E0
9.204628023E0,-1.621017456E0,-9.489059448E0,2.098953247E0
9.209541353E0,-1.595886230E0,-9.539337158E0,2.132461548E0
9.214454683E0,-1.570739746E0,-9.552505493E0,2.113311768E0
9.219368013E0,-1.576721191E0,-9.566864014E0,2.179153442E0
9.224311861E0,-1.559967041E0,-9.576446533E0,2.206695557E0
9.229225191E0,-1.563552856E0,-9.572845459E0,2.185134888E0
9.234138521E0,-1.580322266E0,-9.588409424E0,2.201904297E0
9.239082368E0,-1.567153931E0,-9.602783203E0,2.121688843E0
9.243995699E0,-1.594680786E0,-9.630310059E0,2.098953247E0
9.248909029E0,-1.630599976E0,-9.654251099E0,2.130081177E0
9.253852876E0,-1.635375977E0,-9.669815063E0,2.065429688E0
9.258766206E0,-1.635375977E0,-9.700942993E0,2.100143433E0
9.263679536E0,-1.647354126E0,-9.705734253E0,2.139648438E0
9.268592867E0,-1.654541016E0,-9.681777954E0,2.185134888E0
9.273536714E0,-1.654541016E0,-9.654251099E0,2.164794922E0
9.278450044E0,-1.600662231E0,-9.630310059E0,2.151626587E0
9.283363374E0,-1.618621826E0,-9.629119873E0,2.151626587E0
9.288276704E0,-1.624603271E0,-9.583618164E0,2.164794922E0
9.293220552E0,-1.567153931E0,-9.516586304E0,2.137252808E0
9.298133882E0,-1.575531006E0,-9.414825439E0,2.096557617E0
9.303047212E0,-1.549194336E0,-9.369338989E0,2.057052612E0
9.307991060E0,-1.553985596E0,-9.371734619E0,2.053466797E0
9.312904390E0,-1.570739746E0,-9.357376099E0,2.078598022E0
9.317817720E0,-1.539611816E0,-9.350189209E0,2.109725952E0
9.322731050E0,-1.546798706E0,-9.395675659E0,2.073806763E0
9.327674898E0,-1.581512451E0,-9.406448364E0,2.046279907E0
9.332588228E0,-1.595886230E0,-9.427993774E0,2.103744507E0
9.337501558E0,-1.615036011E0,-9.466308594E0,2.128875732E0
9.342445406E0,-1.660522461E0,-9.516586304E0,2.133666992E0
9.347358736E0,-1.654541016E0,-9.527359009E0,2.131271362E0
9.352272066E0,-1.647354126E0,-9.544113159E0,2.152816772E0
9.357185396E0,-1.647354126E0,-9.540527344E0,2.187530518E0
9.362129243E0,-1.648544312E0,-9.552505493E0,2.158798218E0
9.367042574E0,-1.626998901E0,-9.589614868E0,2.148025513E0
9.371955904E0,-1.610244751E0,-9.596786499E0,2.155212402E0
9.376899751E0,-1.623413086E0,-9.618331909E0,2.194717407E0
9.381813081E0,-1.632995605E0,-9.626724243E0,2.210281372E0
9.386726411E0,-1.558761597E0,-9.619537354E0,2.256973267E0
9.391670259E0,-1.586303711E0,-9.661437988E0,2.189926147E0
9.396583589E0,-1.586303711E0,-9.665023804E0,2.098953247E0
9.401496919E0,-1.586303711E0,-9.613555908E0,2.051071167E0
9.406410249E0,-1.605453491E0,-9.615951538E0,2.052261353E0
9.411354097E0,-1.628204346E0,-9.609954834E0,2.022338867E0
9.416267427E0,-1.576721191E0,-9.618331909E0,2.018737793E0
9.421180757E0,-1.579116821E0,-9.595596313E0,2.018737793E0
9.426124605E0,-1.588699341E0,-9.582427979E0,2.031906128E0
9.431037935E0,-1.603057861E0,-9.553695679E0,2.021133423E0
9.435951265E0,-1.588699341E0,-9.553695679E0,2.007965088E0
9.440864595E0,-1.553985596E0,-9.541717529E0,2.013961792E0
9.445808443E0,-1.538421631E0,-9.534545898E0,2.031906128E0
9.450721773E0,-1.510879517E0,-9.523773193E0,2.080993652E0
9.455635103E0,-1.470184326E0,-9.540527344E0,2.138458252E0
9.460578951E0,-1.457015991E0,-9.533340454E0,2.160003662E0
9.465492281E0,-1.436660767E0,-9.532150269E0,2.149230957E0
9.470405611E0,-1.445037842E0,-9.533340454E0,2.188735962E0
9.475318941E0,-1.462997437E0,-9.559677124E0,2.132461548E0
9.480262788E0,-1.494125366E0,-9.556091309E0,2.047470093E0
9.485176118E0,-1.549194336E0,-9.566864014E0,2.070220947E0
9.490089449E0,-1.552780151E0,-9.597991943E0,2.013961792E0
9.495033296E0,-1.521652222E0,-9.596786499E0,2.037902832E0
9.499946626E0,-1.485748291E0,-9.613555908E0,2.061843872E0
9.504859956E0,-1.506103516E0,-9.611160278E0,2.061843872E0
9.509773286E0,-1.480957031E0,-9.572845459E0,2.070220947E0
9.514717134E0,-1.453430176E0,-9.576446533E0,2.061843872E0
9.519630464E0,-1.434265137E0,-9.589614868E0,2.033111572E0
9.524543794E0,-1.447433472E0,-9.607559204E0,2.045074463E0
9.529487642E0,-1.442657471E0,-9.596786499E0,2.039093018E0
9.534400972E0,-1.398361206E0,-9.587219238E0,2.030715942E0
9.539314302E0,-1.401947021E0,-9.568054199E0,2.039093018E0
9.544258150E0,-1.392364502E0,-9.602783203E0,2.011566162E0
9.549171480E0,-1.428283691E0,-9.596786499E0,1.963684082E0
9.554084810E0,-1.429489136E0,-9.583618164E0,2.012756348E0
9.558998140E0,-1.435470581E0,-9.594390869E0,2.000793457E0
9.563941988E0,-1.421096802E0,-9.545318604E0,2.018737793E0
9.568855318E0,-1.424697876E0,-9.511795044E0,2.076202393E0
9.573768648E0,-1.397155762E0,-9.544113159E0,2.112121582E0
9.578681978E0,-1.394760132E0,-9.544113159E0,2.104934692E0
9.583625826E0,-1.397155762E0,-9.501022339E0,2.078598022E0
9.588539156E0,-1.407928467E0,-9.542922974E0,2.089370728E0
9.593452486E0,-1.369628906E0,-9.558486938E0,2.058242798E0
9.598396333E0,-1.388778687E0,-9.553695679E0,2.085784912E0
9.603309663E0,-1.394760132E0,-9.563278198E0,2.083389282E0
9.608222993E0,-1.409133911E0,-9.553695679E0,2.071411133E0
9.613166841E0,-1.437866211E0,-9.596786499E0,2.049865723E0
9.618080171E0,-1.417510986E0,-9.600387573E0,2.031906128E0
9.622993501E0,-1.369628906E0,-9.605163574E0,2.021133423E0
9.627906831E0,-1.372024536E0,-9.597991943E0,2.023529053E0
9.632850679E0,-1.362442017E0,-9.591995239E0,1.990020752E0
9.637764009E0,-1.337310791E0,-9.597991943E0,1.978042603E0
9.642677339E0,-1.325332642E0,-9.614746094E0,1.974456787E0
9.647621187E0,-1.307373047E0,-9.642288208E0,1.944519043E0
9.652534517E0,-1.277450562E0,-9.637496948E0,1.962478638E0
9.657447847E0,-1.251113892E0,-9.653060913E0,2.022338867E0
9.662361177E0,-1.271469116E0,-9.690170288E0,2.013961792E0
9.667305025E0,-1.231964111E0,-9.675796509E0,2.030715942E0
9.672218355E0,-1.227172852E0,-9.703338623E0,2.061843872E0
9.677131685E0,-1.258300781E0,-9.704528809E0,2.040298462E0
9.682075533E0,-1.309768677E0,-9.694946289E0,2.055847168E0
9.686988863E0,-1.355255127E0,-9.644668579E0,2.001983643E0
9.691902193E0,-1.379196167E0,-9.626724243E0,1.979232788E0
9.696815523E0,-1.382797241E0,-9.632705688E0,1.993606567E0
9.701759370E0,-1.416320801E0,-9.580032349E0,1.985229492E0
9.706672701E0,-1.434265137E0,-9.527359009E0,2.017547607E0
9.711586031E0,-1.387588501E0,-9.515380859E0,2.036697388E0
9.716529878E0,-1.378005981E0,-9.490249634E0,2.071411133E0
9.721443208E0,-1.372024536E0,-9.485458374E0,2.104934692E0
9.726356538E0,-1.385192871E0,-9.501022339E0,2.082183838E0
9.731269868E0,-1.383987427E0,-9.501022339E0,2.071411133E0
9.736213716E0,-1.387588501E0,-9.509399414E0,2.028320312E0
9.741127046E0,-1.407928467E0,-9.546508789E0,1.954101562E0
9.746040376E0,-1.352874756E0,-9.541717529E0,1.903823853E0
9.750984224E0,-1.328918457E0,-9.564468384E0,1.885864258E0
9.755897554E0,-1.301391602E0,-9.569259644E0,1.952896118E0
9.760810884E0,-1.295410156E0,-9.575241089E0,1.928955078E0
9.765754732E0,-1.297805786E0,-9.612350464E0,1.919387817E0
9.770668062E0,-1.263092041E0,-9.621932983E0,1.926574707E0
9.775581392E0,-1.261886597E0,-9.648269653E0,1.934951782E0
9.780494722E0,-1.271469116E0,-9.626724243E0,1.938537598E0
9.785438570E0,-1.252304077E0,-9.618331909E0,1.919387817E0
9.790351900E0,-1.270263672E0,-9.639892578E0,1.899032593E0
9.795295747E0,-1.283432007E0,-9.661437988E0,1.887069702E0
9.800209077E0,-1.306182861E0,-9.654251099E0,1.925369263E0
9.805122408E0,-1.361251831E0,-9.641082764E0,1.915786743E0
9.810035738E0,-1.352874756E0,-9.614746094E0,1.936141968E0
9.814949068E0,-1.367233276E0,-9.615951538E0,1.960083008E0
9.819892915E0,-1.388778687E0,-9.614746094E0,1.961288452E0
9.824806245E0,-1.379196167E0,-9.603973389E0,1.937347412E0
9.829719576E0,-1.355255127E0,-9.621932983E0,1.891845703E0
9.834663423E0,-1.413925171E0,-9.620727539E0,1.884674072E0
9.839576753E0,-1.406738281E0,-9.601577759E0,1.875091553E0
9.844490083E0,-1.375610352E0,-9.591995239E0,1.851150513E0
9.849433931E0,-1.332519531E0,-9.586013794E0,1.855941772E0
9.854347261E0,-1.307373047E0,-9.575241089E0,1.818832397E0
9.859260591E0,-1.287033081E0,-9.606369019E0,1.817626953E0
9.864173921E0,-1.289428711E0,-9.633895874E0,1.855941772E0
9.869117769E0,-1.303787231E0,-9.684173584E0,1.860733032E0
9.874031099E0,-1.331314087E0,-9.653060913E0,1.860733032E0
9.878944429E0,-1.343292236E0,-9.624328613E0,1.864318848E0
9.883857759E0,-1.342086792E0,-9.626724243E0,1.901428223E0
9.888801607E0,-1.355255127E0,-9.589614868E0,1.899032593E0
9.893714937E0,-1.373214722E0,-9.566864014E0,1.902618408E0
9.898628267E0,-1.385192871E0,-9.551300049E0,1.901428223E0
9.903572115E0,-1.362442017E0,-9.542922974E0,1.902618408E0
9.908485445E0,-1.392364502E0,-9.510604858E0,1.893051147E0
9.913398775E0,-1.404342651E0,-9.518981934E0,1.887069702E0
9.918342622E0,-1.409133911E0,-9.533340454E0,1.893051147E0
9.923255952E0,-1.404342651E0,-9.577636719E0,1.889450073E0
9.928169283E0,-1.401947021E0,-9.611160278E0,1.885864258E0
9.933082613E0,-1.392364502E0,-9.619537354E0,1.926574707E0
9.937995943E0,-1.395965576E0,-9.651855469E0,1.922973633E0
9.942939790E0,-1.442657471E0,-9.638687134E0,1.916992188E0
9.947853120E0,-1.403152466E0,-9.659042358E0,1.945724487E0
9.952796968E0,-1.393569946E0,-9.657836914E0,1.951705933E0
9.957710298E0,-1.383987427E0,-9.637496948E0,1.945724487E0
9.962623628E0,-1.344482422E0,-9.662628174E0,1.979232788E0
9.967536958E0,-1.358856201E0,-9.645874023E0,1.963684082E0
9.972480806E0,-1.348083496E0,-9.650665283E0,1.951705933E0
9.977394136E0,-1.342086792E0,-9.663833618E0,1.961288452E0
9.982307466E0,-1.351669312E0,-9.650665283E0,1.970855713E0
9.987251314E0,-1.358856201E0,-9.630310059E0,1.924179077E0
9.992164644E0,-1.333709717E0,-9.639892578E0,1.859527588E0
9.997077974E0,-1.336105347E0,-9.578826904E0,1.895446777E0
1.000202182E1,-1.326538086E0,-9.566864014E0,1.897842407E0
1.000693515E1,-1.338500977E0,-9.576446533E0,1.882278442E0
1.001184848E1,-1.351669312E0,-9.565673828E0,1.848754883E0
1.001676181E1,-1.330123901E0,-9.559677124E0,1.797286987E0
1.002167514E1,-1.333709717E0,-9.524963379E0,1.782913208E0
1.002661899E1,-1.345687866E0,-9.529754639E0,1.743408203E0
1.003153232E1,-1.351669312E0,-9.544113159E0,1.758972168E0
1.003647617E1,-1.386383057E0,-9.571655273E0,1.767349243E0
1.004138950E1,-1.373214722E0,-9.583618164E0,1.772140503E0
1.004630283E1,-1.378005981E0,-9.566864014E0,1.810455322E0
1.005121616E1,-1.387588501E0,-9.582427979E0,1.854736328E0
1.005616000E1,-1.401947021E0,-9.565673828E0,1.887069702E0
1.006107334E1,-1.433074951E0,-9.607559204E0,1.930160522E0
1.006598666E1,-1.448638916E0,-9.609954834E0,1.985229492E0
1.007093051E1,-1.451034546E0,-9.606369019E0,1.960083008E0
1.007584384E1,-1.467788696E0,-9.636291504E0,1.946914673E0
1.008075717E1,-1.439056396E0,-9.650665283E0,1.961288452E0
1.008567050E1,-1.378005981E0,-9.648269653E0,1.952896118E0
1.009061435E1,-1.439056396E0,-9.699737549E0,1.943328857E0
1.009552768E1,-1.398361206E0,-9.718902588E0,1.966064453E0
1.010044101E1,-1.373214722E0,-9.728469849E0,1.945724487E0
1.010538486E1,-1.360046387E0,-9.779953003E0,1.829605103E0
1.011029819E1,-1.387588501E0,-9.753616333E0,1.775726318E0
1.011521152E1,-1.403152466E0,-9.715301514E0,1.810455322E0
1.012012485E1,-1.376815796E0,-9.716506958E0,1.784118652E0
1.012506870E1,-1.385192871E0,-9.678192139E0,1.715881348E0
