"Time (s)","Acceleration x (m/s^2)","Acceleration y (m/s^2)","Acceleration z (m/s^2)"
0.000000000E0,4.290967464E0,3.258440495E0,1.103083611E1
2.402969000E-3,4.290967464E0,3.258440495E0,1.103083611E1
4.805938000E-3,4.171262264E0,3.045365572E0,1.125827503E1
7.208907000E-3,4.171262264E0,3.045365572E0,1.125827503E1
9.611875000E-3,4.171262264E0,3.045365572E0,1.125827503E1
1.201484400E-2,4.171262264E0,3.045365572E0,1.125827503E1
1.446078200E-2,4.171262264E0,3.045365572E0,1.125827503E1
1.694953200E-2,4.171262264E0,3.045365572E0,1.125827503E1
1.943776100E-2,3.584708214E0,2.219401360E0,1.197650528E1
2.193875000E-2,3.476974010E0,2.051814556E0,1.202678108E1
2.445031300E-2,3.405150890E0,1.900986433E0,1.203396320E1
2.695765700E-2,3.326145649E0,1.740581751E0,1.200762844E1
2.946197900E-2,3.247140408E0,1.577783108E0,1.197171688E1
3.196411500E-2,3.110676765E0,1.412590265E0,1.192383480E1
3.446474000E-2,3.046036243E0,1.280914783E0,1.183285904E1
3.696411500E-2,2.945483923E0,1.163603902E0,1.175146008E1
3.946244800E-2,2.864084482E0,1.055869460E0,1.166766644E1
4.195994800E-2,2.773108721E0,9.553174376E-1,1.161260223E1
4.445677100E-2,2.703680038E0,8.954648376E-1,1.148810959E1
4.695302100E-2,2.684527159E0,8.260360360E-1,1.136122131E1
4.944875000E-2,2.627068758E0,7.901245952E-1,1.119363403E1
5.194401100E-2,2.545669556E0,7.470308542E-1,1.102125931E1
5.443890700E-2,2.447511435E0,7.230898142E-1,1.086085510E1
5.693349000E-2,2.318229914E0,7.278780341E-1,1.070044994E1
5.940604200E-2,2.143460989E0,6.728137732E-1,1.043949318E1
6.185130200E-2,1.846592665E0,1.532943100E-1,9.833786011E0
6.429151100E-2,1.456354499E0,-6.798520088E-1,8.902482033E0
6.673171900E-2,1.535359859E0,-4.541586339E-2,9.565647125E0
6.917114600E-2,1.638306022E0,3.543986678E-1,9.563253403E0
7.161052100E-2,1.743646383E0,6.967547536E-1,9.613529205E0
7.405072900E-2,1.865745544E0,1.194727182E0,9.867303848E0
7.649093800E-2,2.086002588E0,1.716640711E0,9.915185928E0
7.893036500E-2,2.325412512E0,2.049420357E0,9.541706085E0
8.136979200E-2,2.469058275E0,2.171519518E0,9.055704117E0
8.381000000E-2,2.502575636E0,2.341500521E0,8.730107307E0
8.625020900E-2,2.481028795E0,2.425293922E0,8.440421104E0
8.868963600E-2,2.500181437E0,2.446841002E0,8.054970741E0
9.112901100E-2,2.557640076E0,2.523452044E0,7.846684456E0
9.356921900E-2,2.679738998E0,2.614427805E0,7.619245052E0
9.600942700E-2,2.785079241E0,2.679068565E0,7.446870327E0
9.844885400E-2,2.916754723E0,2.791591167E0,7.305618286E0
1.008882290E-1,2.988577843E0,2.822714567E0,7.157184124E0
1.033284380E-1,3.019701004E0,2.844261169E0,7.056632042E0
1.057686460E-1,2.995759964E0,2.841867208E0,7.001567841E0
1.082080730E-1,2.943089962E0,2.774832487E0,6.994385719E0
1.106475000E-1,2.895207882E0,2.712585926E0,6.991991043E0
1.130877090E-1,2.835355520E0,2.652733564E0,7.008749962E0
1.155279170E-1,2.816202641E0,2.633580446E0,7.073390484E0
1.179673440E-1,2.763532400E0,2.568939924E0,7.044661522E0
1.204067190E-1,2.732409239E0,2.566545725E0,7.037479401E0
1.228469270E-1,2.727621078E0,2.566545725E0,7.126060486E0
1.252871360E-1,2.718044519E0,2.597669125E0,7.209854126E0
1.277265630E-1,2.684527159E0,2.638368607E0,7.279283047E0
1.301659380E-1,2.696497679E0,2.652733564E0,7.377441406E0
1.326061460E-1,2.725226879E0,2.714979887E0,7.477993011E0
1.350463540E-1,2.777896881E0,2.753285408E0,7.621639252E0
1.374857820E-1,2.888025522E0,2.717373848E0,7.669521332E0
1.399252090E-1,2.943089962E0,2.844261169E0,7.798802853E0
1.423654170E-1,2.919148922E0,2.999877691E0,8.066941261E0
1.448056250E-1,2.880843163E0,3.160282135E0,8.337474823E0
1.472450520E-1,2.883237600E0,3.260834455E0,8.517032623E0
1.496844270E-1,2.895207882E0,3.296746016E0,8.701377869E0
1.521246360E-1,2.935907602E0,3.335051537E0,8.888116837E0
1.545648440E-1,2.969424963E0,3.387721777E0,8.988670349E0
1.570042710E-1,2.988577843E0,3.454756498E0,9.122738838E0
1.594436460E-1,3.000548363E0,3.464333057E0,9.163438797E0
1.618838540E-1,3.022095203E0,3.428421497E0,9.115556717E0
1.643240630E-1,2.988577843E0,3.385327816E0,9.094010353E0
1.667634900E-1,2.892813683E0,3.339839697E0,9.067675591E0
1.692029170E-1,2.775502920E0,3.284775496E0,9.034156799E0
1.716431250E-1,2.639039278E0,3.232105255E0,8.967123032E0
1.740833340E-1,2.519334555E0,3.177041054E0,8.938393593E0
1.765227610E-1,2.390053034E0,3.131553173E0,8.904875755E0
1.789621360E-1,2.251195192E0,3.150706053E0,8.835447311E0
1.814023440E-1,2.145854950E0,3.210558414E0,8.722925186E0
1.838425520E-1,1.999814987E0,3.138735533E0,8.627161026E0
1.862819790E-1,1.815469384E0,3.028606892E0,8.505062103E0
1.887213540E-1,1.635911942E0,2.992695570E0,8.399722099E0
1.911615630E-1,1.520995259E0,2.992695570E0,8.239316940E0
1.936017710E-1,1.434807658E0,2.980725050E0,8.112429619E0
1.960411980E-1,1.343831897E0,2.951995611E0,7.940054893E0
1.984806250E-1,1.228915095E0,2.959177971E0,7.853866577E0
2.009208340E-1,1.109210253E0,2.906507969E0,7.698250771E0
2.033610420E-1,1.023022771E0,2.896931410E0,7.616851330E0
2.058004690E-1,9.033177495E-1,2.870596409E0,7.580939770E0
2.082398440E-1,8.674062490E-1,2.956784010E0,7.463628769E0
2.106800520E-1,7.740364075E-1,2.990301132E0,7.449264050E0
2.131202610E-1,6.926370859E-1,2.985513210E0,7.489963531E0
2.155596880E-1,6.112377048E-1,3.038183212E0,7.499540329E0
2.179990630E-1,5.322324634E-1,2.966360092E0,7.542634010E0
2.204392710E-1,5.274442434E-1,3.047759771E0,7.616851330E0
2.228794790E-1,4.651976824E-1,3.023818731E0,7.686280251E0
2.253189070E-1,4.771681428E-1,2.985513210E0,7.738950253E0
2.277583340E-1,4.891386628E-1,2.992695570E0,7.777255535E0
2.301985420E-1,5.442029238E-1,2.947207451E0,7.758103371E0
2.326387500E-1,5.801144242E-1,2.973542690E0,7.724585533E0
2.350781770E-1,6.088436246E-1,2.944813490E0,7.784438133E0
2.375175520E-1,6.615137458E-1,2.884960890E0,7.813167095E0
2.399577610E-1,7.141839266E-1,2.837079048E0,7.837108135E0
2.423979690E-1,7.644599676E-1,2.796379328E0,7.882596016E0
2.448373960E-1,8.051596880E-1,2.743709326E0,7.952024937E0
2.472767710E-1,8.721944094E-1,2.758073807E0,8.059759140E0
2.497169790E-1,9.464114904E-1,2.765255928E0,8.153129578E0
2.521571880E-1,1.049357772E0,2.822714567E0,8.265651703E0
2.545966150E-1,1.188215494E0,2.880172729E0,8.347051620E0
2.570360420E-1,1.264826655E0,2.932842970E0,8.397327423E0
2.594762500E-1,1.343831897E0,2.947207451E0,8.514637947E0
2.619164590E-1,1.379743338E0,2.980725050E0,8.572095871E0
2.643558860E-1,1.475507379E0,3.016636372E0,8.627161026E0
2.667952610E-1,1.585635900E0,3.026212692E0,8.639131546E0
2.692354690E-1,1.693370342E0,3.047759771E0,8.689407349E0
2.716756770E-1,1.791528344E0,3.083671093E0,8.758835793E0
2.741151040E-1,1.904050946E0,3.107612133E0,8.777989388E0
2.765545320E-1,1.978268147E0,3.136341095E0,8.799535751E0
2.789947400E-1,2.121913910E0,3.129158974E0,8.828265190E0
2.814348960E-1,2.203313351E0,3.155494213E0,8.840234756E0
2.838743230E-1,2.334988832E0,3.167464733E0,8.861782074E0
2.863137500E-1,2.433146715E0,3.179435253E0,8.856994629E0
2.887539590E-1,2.516940355E0,3.203376055E0,8.878540993E0
2.911941670E-1,2.586369276E0,3.234499454E0,8.897694588E0
2.936335940E-1,2.619886398E0,3.291957617E0,8.895299911E0
2.960729690E-1,2.662980318E0,3.332657576E0,8.876147270E0
2.985131770E-1,2.718044519E0,3.339839697E0,8.876147270E0
3.009533860E-1,2.761138201E0,3.390115738E0,8.888116837E0
3.033928130E-1,2.758744240E0,3.385327816E0,8.890512466E0
3.058322400E-1,2.780291319E0,3.361386776E0,8.833053589E0
3.082724480E-1,2.756350279E0,3.342233658E0,8.749259949E0
3.107126570E-1,2.737197399E0,3.380539417E0,8.624767303E0
3.131520840E-1,2.768320799E0,3.382933378E0,8.481121063E0
3.155914590E-1,2.787473440E0,3.399692297E0,8.315928459E0
3.180316670E-1,2.777896881E0,3.382933378E0,8.172282219E0
3.204718750E-1,2.773108721E0,3.363780737E0,7.985542297E0
3.229113020E-1,2.761138201E0,3.339839697E0,7.887383938E0
3.253506770E-1,2.749167919E0,3.332657576E0,7.760497093E0
3.277908860E-1,2.710862160E0,3.311110497E0,7.676703453E0
3.302310940E-1,2.665374517E0,3.284775496E0,7.640792370E0
3.326705210E-1,2.648615837E0,3.260834455E0,7.583333492E0
3.351099480E-1,2.615098238E0,3.229711294E0,7.487569809E0
3.375501570E-1,2.536092997E0,3.184223175E0,7.480387688E0
3.399903650E-1,2.440329313E0,3.117188454E0,7.434899807E0
3.424297920E-1,2.354141474E0,3.069306374E0,7.370259285E0
3.448691670E-1,2.217678070E0,3.026212692E0,7.346318245E0
3.473093750E-1,2.112337589E0,2.954389811E0,7.360682487E0
3.497495840E-1,2.038120508E0,2.920872450E0,7.348711967E0
3.521890110E-1,1.963903546E0,2.870596409E0,7.305618286E0
3.546284380E-1,1.942356586E0,2.825108528E0,7.296041489E0
3.570686460E-1,1.932780266E0,2.793985128E0,7.269706726E0
3.595088540E-1,1.860957265E0,2.750891447E0,7.264918804E0
3.619482820E-1,1.769981503E0,2.736526728E0,7.269706726E0
3.643876570E-1,1.707734823E0,2.731738806E0,7.255342007E0
3.668278650E-1,1.600000501E0,2.755679607E0,7.245765686E0
3.692680730E-1,1.600000501E0,2.762861967E0,7.200278282E0
3.717075000E-1,1.628729582E0,2.772438288E0,7.073390484E0
3.741469270E-1,1.633517861E0,2.777226448E0,7.037479401E0
3.765871360E-1,1.681399822E0,2.779620647E0,7.025508881E0
3.790272920E-1,1.829833984E0,2.808349609E0,6.944108963E0
3.814667190E-1,1.942356586E0,2.829896688E0,6.838768959E0
3.839061460E-1,2.086002588E0,2.870596409E0,6.678364754E0
3.863463540E-1,2.141066790E0,2.937631130E0,6.561053753E0
3.887865630E-1,2.205707550E0,2.975936651E0,6.477260113E0
3.912259900E-1,2.265559912E0,2.995089531E0,6.410225391E0
3.936653650E-1,2.303865433E0,3.009454012E0,6.388678551E0
3.961055730E-1,2.457087755E0,3.002271652E0,6.285732269E0
3.985457820E-1,2.574398756E0,3.014242172E0,6.283338070E0
4.009852090E-1,2.674950838E0,3.035789251E0,6.359949112E0
4.034246360E-1,2.787473440E0,3.054941893E0,6.436560631E0
4.058648440E-1,2.868872643E0,3.081276894E0,6.515565872E0
4.083050520E-1,2.957454443E0,3.121976614E0,6.611329556E0
4.107444790E-1,3.014912844E0,3.145917654E0,6.752581596E0
4.131838540E-1,3.024489164E0,3.155494213E0,6.860316277E0
4.156240630E-1,3.053218603E0,3.143523693E0,7.011144161E0
4.180642710E-1,3.036459684E0,3.133947134E0,7.169154644E0
4.205036980E-1,2.974213362E0,3.124370813E0,7.264918804E0
4.229431250E-1,2.971818924E0,3.083671093E0,7.329559326E0
4.253833340E-1,2.940695763E0,3.052547932E0,7.365470886E0
4.278235420E-1,2.914360762E0,2.983119011E0,7.370259285E0
4.302629690E-1,2.823385000E0,2.882566929E0,7.384623528E0
4.327023440E-1,2.730015039E0,2.808349609E0,7.358288765E0
4.351425520E-1,2.677345037E0,2.736526728E0,7.315194607E0
4.375827610E-1,2.636645317E0,2.693433046E0,7.248160362E0
4.400221880E-1,2.591157198E0,2.671886206E0,7.099725723E0
4.424615630E-1,2.454693794E0,2.614427805E0,6.970444679E0
4.449017710E-1,2.409205675E0,2.564151764E0,6.745398998E0
4.473419790E-1,2.440329313E0,2.518663883E0,6.520353794E0
4.497814070E-1,2.409205675E0,2.449234962E0,6.441348553E0
4.522208340E-1,2.346959352E0,2.396564722E0,6.362343311E0
4.546610420E-1,2.423570395E0,2.360653162E0,6.185180187E0
4.571012500E-1,2.509757996E0,2.298406601E0,6.048716545E0
4.595406770E-1,2.593551397E0,2.264889479E0,5.962528706E0
4.619800520E-1,2.624674797E0,2.226583719E0,5.897888184E0
4.644202610E-1,2.624674797E0,2.130820036E0,5.878735542E0
4.668604690E-1,2.691709518E0,2.090120316E0,5.854794502E0
4.692998960E-1,2.880843163E0,2.039844275E0,5.893100262E0
4.717393230E-1,3.079553604E0,1.979991674E0,5.976893902E0
4.741795320E-1,3.206440687E0,1.932109594E0,6.197150707E0
4.766197400E-1,3.335721970E0,1.891409874E0,6.484442711E0
4.790591670E-1,3.455426931E0,1.929715395E0,6.738216877E0
4.814985420E-1,3.553585052E0,1.922533274E0,7.011144161E0
4.839387500E-1,3.630196333E0,1.898592234E0,7.319982529E0
4.863789590E-1,3.668501854E0,1.874651432E0,7.602486610E0
4.888183860E-1,3.682866573E0,1.886621714E0,8.004694939E0
4.912578130E-1,3.740324736E0,1.910562754E0,8.416480064E0
4.936980210E-1,3.879182577E0,1.884227753E0,8.670253754E0
4.961382290E-1,3.953399420E0,1.874651432E0,8.979093552E0
4.985776570E-1,3.986917019E0,1.848316193E0,9.247232437E0
5.010170320E-1,4.032404900E0,1.843528032E0,9.453125000E0
5.034572400E-1,4.087469101E0,1.860286713E0,9.596771240E0
5.058974480E-1,4.180839062E0,1.860286713E0,9.668594360E0
5.083368750E-1,4.298150063E0,1.833951473E0,9.673381805E0
5.107763020E-1,4.441795349E0,1.833951473E0,9.668594360E0
5.132165110E-1,4.578259468E0,1.807616472E0,9.493824005E0
5.156567190E-1,4.741057873E0,1.745369911E0,9.235261917E0
5.180961460E-1,4.870339394E0,1.673546910E0,9.017398834E0
5.205355210E-1,5.004408836E0,1.563418508E0,8.845024109E0
5.229757290E-1,5.145660400E0,1.544265747E0,8.746866226E0
5.254159380E-1,5.270153999E0,1.558630228E0,8.694194794E0
5.278553650E-1,5.397040844E0,1.582571268E0,8.536185265E0
5.302947400E-1,5.514351845E0,1.620876789E0,8.471544266E0
5.327349480E-1,5.590962887E0,1.719034791E0,8.397327423E0
5.351751570E-1,5.636450768E0,1.833951473E0,8.354233742E0
5.376145840E-1,5.751367569E0,1.934503794E0,8.256075859E0
5.400540110E-1,5.849525928E0,2.023085356E0,8.110035896E0
5.424942190E-1,5.952472210E0,2.142790556E0,8.033424377E0
5.449344270E-1,6.048235893E0,2.315165520E0,7.925689697E0
5.473738540E-1,6.167941093E0,2.461205482E0,7.796408653E0
5.498132290E-1,6.242157936E0,2.612033606E0,7.647974491E0
5.522534380E-1,6.309192657E0,2.791591167E0,7.549816132E0
5.546936460E-1,6.352286339E0,2.956784010E0,7.403776169E0
5.571330730E-1,6.433685780E0,3.105217934E0,7.205066204E0
5.595725000E-1,6.479173660E0,3.215346575E0,7.066208839E0
5.620127090E-1,6.543814659E0,3.303928137E0,6.929744720E0
5.644529170E-1,6.579726219E0,3.380539417E0,6.759763718E0
5.668923440E-1,6.610848904E0,3.402086258E0,6.649635315E0
5.693317190E-1,6.677884102E0,3.404480457E0,6.460501671E0
5.717719270E-1,6.773647785E0,3.380539417E0,6.314461231E0
5.742121360E-1,6.821529865E0,3.399692297E0,6.197150707E0
5.766515630E-1,6.867017269E0,3.382933378E0,6.087022305E0
5.790909900E-1,6.895747185E0,3.380539417E0,5.986469746E0
5.815311980E-1,6.960387707E0,3.423633099E0,5.873947144E0
5.839714070E-1,7.056151390E0,3.459544659E0,5.706360340E0
5.864108340E-1,7.195009708E0,3.502638578E0,5.601020336E0
5.888502090E-1,7.374566555E0,3.536155701E0,5.533985138E0
5.912904170E-1,7.561306477E0,3.593614101E0,5.629749298E0
5.937306250E-1,7.726499081E0,3.660649061E0,5.775789261E0
5.961700520E-1,7.910844803E0,3.698954344E0,5.902676582E0
5.986094790E-1,8.083220482E0,3.763595104E0,6.055898666E0
6.010496880E-1,8.238837242E0,3.804295063E0,6.264184952E0
6.034898960E-1,8.384877205E0,3.864147663E0,6.546689034E0
6.059293230E-1,8.557251930E0,3.902452946E0,6.783704758E0
6.083686980E-1,8.743991852E0,3.900058746E0,6.996779442E0
6.108089070E-1,8.911578178E0,3.912029266E0,7.269706726E0
6.132491150E-1,9.081559181E0,3.883300304E0,7.530663490E0
6.156885420E-1,9.249146461E0,3.868935585E0,7.784438133E0
6.181279690E-1,9.359275818E0,3.856965065E0,8.023847580E0
6.205681770E-1,9.450250626E0,3.837812424E0,8.246499062E0
6.230083860E-1,9.538832664E0,3.828236103E0,8.476332664E0
6.254478130E-1,9.653749466E0,3.794718504E0,8.679831505E0
6.278871880E-1,9.725572586E0,3.756412983E0,8.909664154E0
6.303273960E-1,9.783030510E0,3.746836424E0,9.108374596E0
6.327676040E-1,9.809365273E0,3.727683783E0,9.256809235E0
6.352070320E-1,9.811759949E0,3.694166183E0,9.431578636E0
6.376464590E-1,9.842882156E0,3.648678541E0,9.532130241E0
6.400866670E-1,9.826124191E0,3.593614101E0,9.697322845E0
6.425268750E-1,9.806971550E0,3.509820700E0,9.824210167E0
6.449663020E-1,9.744724274E0,3.437997818E0,9.917580605E0
6.474056770E-1,9.675296783E0,3.301534176E0,9.960674286E0
6.498458860E-1,9.534044266E0,3.193799734E0,1.008277321E1
6.522860940E-1,9.366457939E0,3.057335854E0,1.015938377E1
6.547255210E-1,9.196476936E0,2.925660610E0,1.017614269E1
6.571649480E-1,8.988189697E0,2.765255928E0,1.023599529E1
6.596051570E-1,8.722444534E0,2.643157005E0,1.032457733E1
6.620453650E-1,8.502187729E0,2.506693363E0,1.033654690E1
6.644847920E-1,8.284324646E0,2.377411842E0,1.033175945E1
6.669241670E-1,8.001820564E0,2.281647921E0,1.037485313E1
6.693643750E-1,7.731287479E0,2.157155037E0,1.030781841E1
6.718045840E-1,7.472724438E0,2.082937956E0,1.022641945E1
6.742440110E-1,7.183039188E0,2.020691156E0,1.020726585E1
6.766833860E-1,6.991510868E0,1.886621714E0,1.012586594E1
6.791235940E-1,6.752100945E0,1.821981192E0,1.004446697E1
6.815638020E-1,6.486355782E0,1.750158072E0,9.963068008E0
6.840032290E-1,6.287645817E0,1.714246750E0,9.881668091E0
6.864426570E-1,6.098512173E0,1.640029550E0,9.761962891E0
6.888828650E-1,5.926136971E0,1.582571268E0,9.613529205E0
6.913230730E-1,5.737002850E0,1.584965348E0,9.493824005E0
6.937625000E-1,5.598145485E0,1.606512189E0,9.335814476E0
6.962019270E-1,5.454499722E0,1.652000070E0,9.309478760E0
6.986421360E-1,5.332400322E0,1.675941110E0,9.220896721E0
7.010822920E-1,5.255789280E0,1.673546910E0,9.125133514E0
7.035217190E-1,5.155237198E0,1.707064390E0,9.026975632E0
7.059611460E-1,5.040320396E0,1.733399510E0,8.967123032E0
7.084013540E-1,4.932586193E0,1.752552152E0,8.924029350E0
7.108415630E-1,4.846398354E0,1.754946351E0,8.878540993E0
7.132809900E-1,4.721905231E0,1.728611231E0,8.785171509E0
7.157204170E-1,4.606988430E0,1.683123350E0,8.737289429E0
7.181606250E-1,4.489677429E0,1.644817829E0,8.651102066E0
7.206008340E-1,4.372366905E0,1.580177069E0,8.560126305E0
7.230402610E-1,4.300543785E0,1.501171827E0,8.440421104E0
7.254796360E-1,4.190415382E0,1.403013825E0,8.291987419E0
7.279198440E-1,4.099439621E0,1.297673464E0,8.078911781E0
7.303600520E-1,4.015645981E0,1.177968621E0,7.863443375E0
7.327994790E-1,3.951005459E0,1.086992860E0,7.636003971E0
7.352388540E-1,3.874394178E0,1.000805259E0,7.451658249E0
7.376790630E-1,3.816936016E0,8.834944367E-1,7.300830364E0
7.401192710E-1,3.790600777E0,8.260360360E-1,7.161972046E0
7.425586980E-1,3.761871815E0,7.542131543E-1,7.085361004E0
7.449981250E-1,3.752295256E0,7.230898142E-1,7.020720482E0
7.474383340E-1,3.754689217E0,6.871783137E-1,6.939321041E0
7.498785420E-1,3.740324736E0,6.632373929E-1,6.841163158E0
7.523179690E-1,3.764265776E0,6.512668729E-1,6.757369518E0
7.547573440E-1,3.824118137E0,6.512668729E-1,6.647241116E0
7.571975520E-1,3.903123379E0,6.177495122E-1,6.577812195E0
7.596378130E-1,3.986917019E0,6.321140528E-1,6.527536392E0
7.620772400E-1,4.132956982E0,6.440845728E-1,6.517959595E0
7.645166150E-1,4.267026424E0,6.584491730E-1,6.529930115E0
7.669568230E-1,4.427431107E0,6.680255532E-1,6.563447475E0
7.693970320E-1,4.580653667E0,6.799960732E-1,6.584994793E0
7.718364590E-1,4.738664150E0,6.823901534E-1,6.616117477E0
7.742758860E-1,4.884704113E0,7.015429735E-1,6.692728996E0
7.767160940E-1,5.023561478E0,7.087252736E-1,6.800463676E0
7.791562500E-1,5.217483521E0,7.015429735E-1,6.929744720E0
7.815956770E-1,5.380282402E0,6.943606734E-1,7.082967281E0
7.840351040E-1,5.555051327E0,7.087252736E-1,7.236189842E0
7.864753130E-1,5.727426529E0,6.704196334E-1,7.432505608E0
7.889155210E-1,5.904590130E0,6.991488338E-1,7.621639252E0
7.913549480E-1,6.045842171E0,6.776019335E-1,7.798802853E0
7.937943750E-1,6.177517414E0,6.536609530E-1,7.978360176E0
7.962345840E-1,6.316374779E0,6.847842932E-1,8.136370659E0
7.986747400E-1,6.409745216E0,7.015429735E-1,8.239316940E0
8.011141670E-1,6.519873619E0,7.015429735E-1,8.378174782E0
8.035535940E-1,6.613243580E0,7.326661944E-1,8.457180023E0
8.059938020E-1,6.661125183E0,7.566072345E-1,8.488303185E0
8.084340110E-1,6.728159904E0,7.566072345E-1,8.481121063E0
8.108734380E-1,6.785618305E0,8.092773557E-1,8.457180023E0
8.133128650E-1,6.828711987E0,8.332183957E-1,8.406903267E0
8.157530730E-1,6.828711987E0,8.595535159E-1,8.359022141E0
8.181932820E-1,6.811953545E0,9.074353576E-1,8.315928459E0
8.206327090E-1,6.819136143E0,9.337704778E-1,8.301563263E0
8.230720840E-1,6.768859386E0,9.289823174E-1,8.313533783E0
8.255122920E-1,6.713795662E0,9.146177173E-1,8.272833824E0
8.279525000E-1,6.646760464E0,8.643416762E-1,8.282410622E0
8.303919270E-1,6.562966824E0,8.068832755E-1,8.284804344E0
8.328313540E-1,6.471991539E0,7.494249344E-1,8.320715904E0
8.352715630E-1,6.395380497E0,6.823901534E-1,8.342263222E0
8.377117710E-1,6.273281097E0,6.392964125E-1,8.375781059E0
8.401511980E-1,6.163152695E0,5.794438720E-1,8.414086342E0
8.425905730E-1,6.031477451E0,5.363501310E-1,8.466755867E0
8.450307820E-1,5.914166451E0,4.836799502E-1,8.500272751E0
8.474709900E-1,5.801643848E0,4.381920695E-1,8.524213791E0
8.499104170E-1,5.698697567E0,3.879160285E-1,8.552944183E0
8.523498440E-1,5.586174965E0,3.615809679E-1,8.550549507E0
8.547900520E-1,5.488017082E0,3.328517675E-1,8.555337906E0
8.572302610E-1,5.389859200E0,3.208812475E-1,8.500272751E0
8.596696880E-1,5.298882961E0,3.304576278E-1,8.464362144E0
8.621090630E-1,5.210301399E0,3.328517675E-1,8.416480064E0
8.645492710E-1,5.138478279E0,3.232753873E-1,8.385356903E0
8.669894790E-1,5.076231956E0,3.567926884E-1,8.325504303E0
8.694289070E-1,5.016379356E0,3.998865485E-1,8.277622223E0
8.718683340E-1,4.879916191E0,4.142510891E-1,8.220164299E0
8.743085420E-1,4.764998913E0,4.812858701E-1,8.148341179E0
8.767487500E-1,4.647687912E0,5.004386306E-1,8.062153816E0
8.791881770E-1,4.518406868E0,5.171973109E-1,7.983148098E0
8.816275520E-1,4.386731625E0,5.148032904E-1,7.913719177E0
8.840677610E-1,4.233509064E0,4.788917899E-1,7.844290733E0
8.865079690E-1,4.085074902E0,4.549507499E-1,7.772467613E0
8.889473960E-1,3.962975979E0,4.166452289E-1,7.719797134E0
8.913868230E-1,3.819329977E0,3.496104479E-1,7.602486610E0
8.938270320E-1,3.687654495E0,3.184871674E-1,7.545028210E0
8.962672400E-1,3.577526093E0,2.753933668E-1,7.492358208E0
8.987066670E-1,3.467397451E0,2.418759614E-1,7.425323009E0
9.011460420E-1,3.378815651E0,2.059644908E-1,7.370259285E0
9.035862500E-1,3.302204847E0,1.844175905E-1,7.296041489E0
9.060264590E-1,3.266293287E0,1.628707200E-1,7.233795166E0
9.084658860E-1,3.211229086E0,1.652648300E-1,7.200278282E0
9.109053130E-1,3.165740967E0,1.724471003E-1,7.169154644E0
9.133455210E-1,3.101100445E0,1.652648300E-1,7.176337242E0
9.157857290E-1,3.072371244E0,1.413238198E-1,7.161972046E0
9.182251570E-1,3.026883364E0,1.341415495E-1,7.178730965E0
9.206645320E-1,2.974213362E0,1.125946194E-1,7.193095684E0
9.231047400E-1,2.950272322E0,9.344185889E-2,7.190701485E0
9.255449480E-1,2.926331282E0,8.625955880E-2,7.197883606E0
9.279843750E-1,2.878449202E0,5.992446840E-2,7.202672005E0
9.304238020E-1,2.856902361E0,2.161888778E-2,7.224219322E0
9.328640110E-1,2.813808441E0,-1.189850271E-2,7.250554085E0
9.353042190E-1,2.785079241E0,-2.386897802E-2,7.240977764E0
9.377436460E-1,2.761138201E0,-6.456865370E-2,7.252948284E0
9.401830210E-1,2.741985559E0,-9.090374410E-2,7.281677246E0
9.426232290E-1,2.744379759E0,-1.004801467E-1,7.303224087E0
9.450634380E-1,2.746773720E0,-1.100565419E-1,7.351106167E0
9.475028650E-1,2.722832680E0,-7.175095379E-2,7.406170845E0
9.499422920E-1,2.761138201E0,-3.583948314E-2,7.482781887E0
9.523825000E-1,2.835355520E0,2.161888778E-2,7.561786652E0
9.548227090E-1,2.931119442E0,9.583593905E-2,7.576151848E0
9.572621360E-1,3.031671524E0,1.772353202E-1,7.595304012E0
9.597015110E-1,3.074765205E0,2.729992270E-1,7.597698212E0
9.621417190E-1,3.132223845E0,3.615809679E-1,7.590516090E0
9.645819270E-1,3.244746208E0,4.501625896E-1,7.580939770E0
9.670213540E-1,3.369239569E0,5.387442112E-1,7.585727692E0
9.694607820E-1,3.539220572E0,6.201435924E-1,7.576151848E0
9.719009900E-1,3.702019215E0,6.991488338E-1,7.578545570E0
9.743411980E-1,3.857635498E0,7.973068953E-1,7.624033451E0
9.767806250E-1,3.998887539E0,8.858885169E-1,7.662339211E0
9.792200000E-1,4.140139103E0,1.010381579E0,7.707826614E0
9.816602090E-1,4.257450104E0,1.091780901E0,7.791620255E0
9.841004170E-1,3.795388937E0,1.820235103E-1,7.039873123E0
9.865398440E-1,3.589496613E0,-9.025032520E-1,6.395860672E0
9.889792710E-1,3.601466894E0,-1.866676956E-1,7.145213604E0
9.914194790E-1,3.907911777E0,4.549507499E-1,7.995118618E0
9.938596880E-1,4.391519547E0,1.005593419E0,8.675043106E0
9.962991150E-1,4.798516273E0,1.606512189E0,9.240050316E0
9.987384900E-1,4.985256195E0,1.900986433E0,9.173015594E0
1.001178698E0,5.011590958E0,2.001538515E0,8.928816795E0
1.003618959E0,5.085808277E0,1.972809315E0,8.763624191E0
1.006058386E0,5.298882961E0,1.912956953E0,8.696590424E0
1.008497761E0,5.526322365E0,1.848316193E0,8.596036911E0
1.010937969E0,5.746579647E0,1.769310951E0,8.416480064E0
1.013378177E0,5.902195930E0,1.826769352E0,8.251287460E0
1.015817604E0,5.806431770E0,1.920139313E0,8.157917976E0
1.018257032E0,5.945289612E0,2.032661676E0,8.210587502E0
1.020697240E0,6.043447971E0,2.032661676E0,8.323110580E0
1.023137448E0,6.153576374E0,2.051814556E0,8.442814827E0
1.025576875E0,6.230187416E0,1.989567995E0,8.526608467E0
1.028016250E0,6.366651058E0,2.015903234E0,8.737289429E0
1.030456459E0,6.424109459E0,1.939291954E0,8.868965149E0
1.032896667E0,6.460021019E0,1.867469072E0,8.890512466E0
1.035336094E0,6.495932579E0,1.766916871E0,8.866571426E0
1.037775521E0,6.584514141E0,1.754946351E0,8.849812508E0
1.040215729E0,6.697036266E0,1.805222511E0,8.959939957E0
1.042655938E0,6.862229347E0,1.903380394E0,9.091616631E0
1.045095365E0,7.032210350E0,1.960838795E0,9.223291397E0
1.047534740E0,7.209373951E0,1.965626955E0,9.249626160E0
1.049974948E0,7.307531834E0,2.044632196E0,9.252019882E0
1.052415157E0,7.400901318E0,2.051814556E0,9.302296638E0
1.054854584E0,7.558912277E0,2.130820036E0,9.347784042E0
1.057294011E0,7.654675961E0,2.145184517E0,9.386090279E0
1.059734219E0,7.771986961E0,2.142790556E0,9.374118805E0
1.062174427E0,7.922815323E0,2.185884237E0,9.345390320E0
1.064613854E0,8.016184807E0,2.147578478E0,9.357360840E0
1.067053229E0,8.131102562E0,2.183490038E0,9.350177765E0
1.069493438E0,8.202925682E0,2.195460558E0,9.340601921E0
1.071933646E0,8.234048843E0,2.121243477E0,9.275960922E0
1.074373073E0,8.229260445E0,2.073361397E0,9.177803040E0
1.076812500E0,8.296295166E0,2.190672159E0,9.216109276E0
1.079252709E0,8.322630882E0,2.236160278E0,9.177803040E0
1.081692917E0,8.432758331E0,2.319953680E0,9.208927155E0
1.084132344E0,8.504581451E0,2.355865240E0,9.153862000E0
1.086571719E0,8.559646606E0,2.346288681E0,9.062887192E0
1.089011927E0,8.566828728E0,2.202642679E0,8.854599953E0
1.091452136E0,8.732021332E0,2.353471041E0,8.919240952E0
1.093891563E0,8.717656136E0,2.398958921E0,8.959939957E0
1.096330990E0,8.787085533E0,2.415717602E0,8.904875755E0
1.098771198E0,8.820602417E0,2.542604685E0,8.852206230E0
1.101211407E0,8.782297134E0,2.580910444E0,8.756442070E0
1.103650834E0,8.736809731E0,2.583304405E0,8.663072586E0
1.106090261E0,8.686533928E0,2.578516245E0,8.584067345E0
1.108530469E0,8.650621414E0,2.667098045E0,8.598431587E0
1.110970625E0,8.578798294E0,2.750891447E0,8.672649384E0
1.113410052E0,8.492611885E0,2.760467768E0,8.641525269E0
1.115849479E0,8.389664650E0,2.762861967E0,8.512244225E0
1.118289688E0,8.262778282E0,2.767650127E0,8.356627464E0
1.120729896E0,8.092797279E0,2.719768286E0,8.141159058E0
1.123169323E0,7.934785843E0,2.676674366E0,7.999907017E0
1.125608750E0,7.791140079E0,2.657521486E0,7.829926014E0
1.128048959E0,7.633129597E0,2.633580446E0,7.719797134E0
1.130489167E0,7.470330715E0,2.643157005E0,7.628821850E0
1.132928594E0,7.314713955E0,2.612033606E0,7.578545570E0
1.135367969E0,7.154309273E0,2.554575205E0,7.535451889E0
1.137808177E0,7.001087666E0,2.499511003E0,7.523481369E0
1.140248386E0,6.886170387E0,2.451628923E0,7.547421932E0
1.142687813E0,6.756888866E0,2.396564722E0,7.588122368E0
1.145127240E0,6.682672024E0,2.358259201E0,7.647974491E0
1.147567448E0,6.632396221E0,2.298406601E0,7.746132851E0
1.150007657E0,6.615637302E0,2.255312920E0,7.892172813E0
1.152447084E0,6.615637302E0,2.231371880E0,8.026242256E0
1.154886459E0,6.644366264E0,2.226583719E0,8.181859016E0
1.157326667E0,6.632396221E0,2.255312920E0,8.330292702E0
1.159766875E0,6.653943062E0,2.315165520E0,8.454785347E0
1.162206302E0,6.711401463E0,2.391776800E0,8.531396866E0
1.164645729E0,6.776041985E0,2.446841002E0,8.574490547E0
1.167085938E0,6.816741467E0,2.437264442E0,8.629554749E0
1.169526146E0,6.819136143E0,2.463599443E0,8.682225227E0
1.171965573E0,6.778436184E0,2.410929441E0,8.761230469E0
1.174404948E0,6.670701504E0,2.372623682E0,8.840234756E0
1.176845157E0,6.572543621E0,2.255312920E0,8.852206230E0
1.179285365E0,6.452838421E0,2.209825277E0,8.811506271E0
1.181724792E0,6.349892616E0,2.157155037E0,8.770807266E0
1.184164219E0,6.266098976E0,2.123637438E0,8.703772545E0
1.186604427E0,6.100905895E0,1.979991674E0,8.596036911E0
1.189044636E0,5.375494003E0,9.792583585E-1,8.907270432E0
1.191484063E0,5.195937157E0,6.991488338E-1,8.361415863E0
1.193923438E0,5.059473038E0,7.613953948E-1,8.023847580E0
1.196363646E0,4.951738358E0,8.451889157E-1,7.940054893E0
1.198803854E0,5.009196758E0,9.936230779E-1,7.880202293E0
1.201243282E0,5.061867714E0,1.043898940E0,7.839502335E0
1.203682709E0,4.975679398E0,1.146845222E0,7.896960735E0
1.206122917E0,4.925403595E0,1.256973863E0,7.849078655E0
1.208563125E0,4.863156796E0,1.254579663E0,7.743738174E0
1.211002552E0,4.822457314E0,1.192333102E0,7.674309731E0
1.213441927E0,4.767393112E0,1.039110780E0,7.621639252E0
1.215882136E0,4.709935188E0,8.954648376E-1,7.604880810E0
1.218322344E0,4.640505791E0,7.613953948E-1,7.638398170E0
1.220761771E0,4.554318428E0,6.919665933E-1,7.693462372E0
1.223201198E0,4.460948467E0,7.087252736E-1,7.609668732E0
1.225641407E0,4.413066387E0,6.895724535E-1,7.463628769E0
1.228081615E0,4.527983189E0,5.148032904E-1,7.272100449E0
1.230521042E0,4.666841030E0,2.490582913E-1,7.078178883E0
1.232960417E0,4.650082588E0,-6.217455864E-2,7.001567841E0
1.235400625E0,4.566288948E0,-3.398900330E-1,6.932138443E0
1.237840886E0,4.408278465E0,-6.319700480E-1,6.977626801E0
1.240280313E0,4.262238503E0,-8.522270918E-1,7.102119446E0
1.242719688E0,4.161686420E0,-1.058119655E0,7.195489883E0
1.245159896E0,4.149715900E0,-1.220918417E0,7.274495125E0
1.247600104E0,4.197597504E0,-1.376534820E0,7.327165127E0
1.250039532E0,4.247873306E0,-1.501027942E0,7.315194607E0
1.252478959E0,4.374761105E0,-1.606368303E0,7.217036724E0
1.254919167E0,4.480101585E0,-1.735649705E0,7.092543602E0
1.257359375E0,4.571076870E0,-1.829019547E0,6.972838879E0
1.259798802E0,4.695569992E0,-1.917601109E0,6.807645798E0
1.262238177E0,4.844004631E0,-1.989423990E0,6.637664795E0
1.264678386E0,4.956527233E0,-2.106734753E0,6.470077515E0
1.267118594E0,5.045108318E0,-2.209681273E0,6.292914867E0
1.269558021E0,5.119325638E0,-2.319809675E0,6.139692307E0
1.271997448E0,5.162419319E0,-2.446696997E0,5.962528706E0
1.274437657E0,5.210301399E0,-2.564007759E0,5.785365582E0
1.276877865E0,5.253395081E0,-2.662165880E0,5.572290897E0
1.279317292E0,5.298882961E0,-2.733988762E0,5.359216213E0
1.281756667E0,5.337188721E0,-2.822570562E0,5.213176250E0
1.284196875E0,5.454499722E0,-2.911152124E0,5.071924210E0
1.286637084E0,5.605327606E0,-3.014098406E0,4.966583729E0
1.289076511E0,5.780097008E0,-3.136197329E0,4.885184765E0
1.291515938E0,5.899802208E0,-3.157744408E0,4.892366886E0
1.293956146E0,6.005142212E0,-3.143379688E0,4.976160049E0
1.296396354E0,6.206246376E0,-3.236749649E0,4.899549007E0
1.298835782E0,6.390592098E0,-3.406730652E0,4.842090607E0
1.301275157E0,6.553390980E0,-3.586287975E0,4.849273205E0
1.303715365E0,6.632396221E0,-3.739510298E0,4.851667404E0
1.306155573E0,6.723371983E0,-3.859215260E0,4.854061127E0
1.308595000E0,6.833500385E0,-4.002861023E0,4.933066845E0
1.311034427E0,6.989117146E0,-4.120172024E0,5.007283688E0
1.313474636E0,7.135157108E0,-4.208753586E0,5.091077328E0
1.315914844E0,7.333867073E0,-4.299729347E0,5.194023132E0
1.318354271E0,7.479907036E0,-4.347611427E0,5.318516254E0
1.320793646E0,7.640311718E0,-4.414646149E0,5.440615177E0
1.323233854E0,7.858174324E0,-4.474498749E0,5.553138256E0
1.325674063E0,8.054491043E0,-4.534350872E0,5.691995621E0
1.328113490E0,8.334601402E0,-4.622932434E0,5.768606663E0
1.330552917E0,8.490217209E0,-4.905436516E0,6.130115509E0
1.332993125E0,8.576404572E0,-5.427350044E0,6.869892120E0
1.335433334E0,8.868484497E0,-5.678730011E0,6.838768959E0
1.337872761E0,9.194082260E0,-5.523114204E0,6.711881638E0
1.340312188E0,9.467009544E0,-5.226245403E0,6.958474159E0
1.342752396E0,9.608261108E0,-5.161604881E0,7.221824646E0
1.345192604E0,9.735148430E0,-5.262156963E0,7.346318245E0
1.347632032E0,9.835700035E0,-5.626060009E0,7.473205090E0
1.350071407E0,9.881188393E0,-6.188673496E0,7.480387688E0
1.352511615E0,9.974558830E0,-6.605246544E0,6.886651039E0
1.354951823E0,1.005595779E1,-6.765651226E0,6.793281078E0
1.357391250E0,1.011581039E1,-6.954784870E0,6.685546875E0
1.359830677E0,1.017326832E1,-7.215741634E0,6.460501671E0
1.362270886E0,1.021875668E1,-7.577250481E0,6.166027069E0
1.364711094E0,1.025227356E1,-7.797507763E0,5.955346584E0
1.367150521E0,1.022833252E1,-8.103952408E0,5.761424541E0
1.369589896E0,1.007989883E1,-8.338573456E0,5.663266659E0
1.372030104E0,9.888370514E0,-8.494190216E0,5.670448780E0
1.374470313E0,9.742330551E0,-8.635441780E0,5.703966141E0
1.376909740E0,9.687266350E0,-8.836545944E0,5.842823982E0
1.379349167E0,9.687266350E0,-9.047226906E0,5.938587666E0
1.381789375E0,9.806971550E0,-9.202843666E0,5.998440266E0
1.384229584E0,9.979346275E0,-9.382400513E0,6.017593384E0
1.386669011E0,1.019720936E1,-9.530834198E0,5.976893902E0
1.389108386E0,1.042704391E1,-9.667298317E0,5.763818741E0
1.391548594E0,1.070954609E1,-9.760668755E0,5.522014618E0
1.393988802E0,1.102556705E1,-9.696027756E0,5.423856735E0
1.396428229E0,1.126258373E1,-9.585898399E0,5.318516254E0
1.398867657E0,1.155945110E1,-9.423100471E0,5.093471050E0
1.401307865E0,1.182519627E1,-9.281848907E0,4.839696884E0
1.403748073E0,1.218191719E1,-9.030467987E0,4.389605999E0
1.406187500E0,1.239499283E1,-8.908368111E0,3.958667994E0
1.408626875E0,1.246681595E1,-8.640229225E0,3.621100187E0
1.411067084E0,1.244048023E1,-8.477431297E0,3.384084463E0
1.413507292E0,1.226810455E1,-8.465460777E0,3.271561623E0
1.415946719E0,1.189941311E1,-8.697688103E0,3.115945101E0
1.418386146E0,1.165521526E1,-9.001738548E0,3.173403740E0
1.420826354E0,1.159536362E1,-9.205237389E0,3.455907106E0
1.423266563E0,1.168155003E1,-9.514075279E0,3.709681749E0
1.425705990E0,1.173900986E1,-9.719968796E0,3.499001026E0
1.428145417E0,1.182998466E1,-9.602657318E0,3.410419464E0
1.430585625E0,1.187547207E1,-9.351277351E0,3.549277067E0
1.433025834E0,1.170788574E1,-9.296212196E0,3.657011747E0
1.435465261E0,1.164803314E1,-9.171719551E0,3.877268791E0
1.437904636E0,1.161691093E1,-9.133414268E0,4.135831833E0
1.440344844E0,1.166000366E1,-9.073561668E0,4.267507076E0
1.442785052E0,1.180125523E1,-8.984980583E0,4.169348717E0
1.445224479E0,1.180843830E1,-9.075955391E0,3.838963270E0
1.447663907E0,1.190899086E1,-9.071167946E0,3.355355263E0
1.450104115E0,1.221064663E1,-8.767117500E0,3.068063259E0
1.452544323E0,1.256736755E1,-8.259568214E0,2.866958857E0
1.454983750E0,1.280917168E1,-7.620344639E0,2.768800974E0
1.457423125E0,1.269664860E1,-6.949996471E0,2.646701813E0
1.459863334E0,1.273974228E1,-6.272466660E0,2.577272892E0
1.462303542E0,1.260806751E1,-5.793646812E0,2.720918894E0
1.464742969E0,1.264637280E1,-5.611695766E0,2.814288855E0
1.467182396E0,1.269664860E1,-5.568601608E0,3.070457458E0
1.469622604E0,1.268946648E1,-5.465655327E0,3.422389984E0
1.472062813E0,1.274213600E1,-5.456079006E0,3.671376228E0
1.474502240E0,1.288817692E1,-5.573390007E0,3.889239073E0
1.476941615E0,1.303900433E1,-5.664365768E0,4.119072914E0
1.479381823E0,1.318983364E1,-5.748158932E0,4.365664959E0
1.481822032E0,1.302224636E1,-5.695488930E0,4.597892761E0
1.484261459E0,1.276368332E1,-5.688306332E0,4.684080124E0
1.486700886E0,1.250033283E1,-5.721824169E0,4.782238007E0
1.489141094E0,1.222501183E1,-5.743371010E0,4.992918491E0
1.491581302E0,1.184195518E1,-5.750553131E0,5.069530010E0
1.494020729E0,1.138228893E1,-5.781676769E0,5.000101089E0
1.496460104E0,1.096332169E1,-5.808011532E0,4.906731129E0
1.498900313E0,9.684872627E0,-7.177435875E0,5.541167736E0
1.501340521E0,8.619498253E0,-8.580377579E0,5.280210495E0
1.503779948E0,8.432758331E0,-8.331391335E0,4.128649235E0
1.506219375E0,8.530916214E0,-7.792719364E0,4.064008713E0
1.508659584E0,8.863696098E0,-7.014637470E0,4.638592243E0
1.511099792E0,8.861302376E0,-6.547788143E0,5.112623692E0
1.513539219E0,8.643439293E0,-6.207826138E0,4.985736847E0
1.515978646E0,8.088008881E0,-6.018692493E0,4.839696884E0
1.518418854E0,7.520606518E0,-5.999539375E0,4.564375401E0
1.520859011E0,7.362596035E0,-6.408930779E0,4.456640720E0
1.523298438E0,7.460753918E0,-6.519059181E0,4.293842316E0
1.525737865E0,7.379354954E0,-6.724951744E0,4.286659718E0
1.528178073E0,7.767199039E0,-6.622004986E0,3.953879833E0
1.530618282E0,8.545281410E0,-6.301196098E0,3.903603792E0
1.533057709E0,8.892425537E0,-5.918139935E0,4.056826115E0
1.535497084E0,8.997766495E0,-5.688306332E0,4.001761913E0
1.537937292E0,9.091135025E0,-5.513537407E0,3.989791155E0
1.540377552E0,9.237175941E0,-5.544660568E0,4.456640720E0
1.542816979E0,9.086347580E0,-5.714641571E0,4.985736847E0
1.545256354E0,8.722444534E0,-5.858287334E0,5.701571941E0
1.547696563E0,8.193348885E0,-6.138397217E0,6.395860672E0
1.550136771E0,8.200531006E0,-6.198249340E0,6.398254871E0
1.552576198E0,8.061673164E0,-6.207826138E0,6.467683792E0
1.555015625E0,8.327418327E0,-5.587754726E0,6.608935833E0
1.557455834E0,8.360936165E0,-5.034717560E0,6.747793198E0
1.559896042E0,8.411211967E0,-4.627720833E0,6.774127960E0
1.562335469E0,9.045648575E0,-4.378734589E0,6.010410786E0
1.564774844E0,8.796661377E0,-4.491257668E0,5.979287624E0
1.567215052E0,8.423182487E0,-4.575050354E0,6.055898666E0
1.569655261E0,8.131102562E0,-4.943742275E0,6.259397030E0
1.572094688E0,7.896480083E0,-5.113723278E0,6.711881638E0
1.574534115E0,7.477512836E0,-5.278915405E0,7.202672005E0
1.576974323E0,7.290772915E0,-5.439320564E0,7.777255535E0
1.579414532E0,6.972358227E0,-5.525507927E0,8.052577019E0
1.581853959E0,7.341049671E0,-4.970077038E0,8.397327423E0
1.584293334E0,7.376961231E0,-5.092175961E0,8.054970741E0
1.586733542E0,7.185432911E0,-5.568601608E0,8.275228500E0
1.589173750E0,7.604400158E0,-5.499173164E0,8.215375900E0
1.591613177E0,8.322630882E0,-5.204698563E0,8.031029701E0
1.594052604E0,8.906790733E0,-5.013171196E0,7.817955494E0
1.596492813E0,9.462221146E0,-4.857554436E0,7.734162331E0
1.598933021E0,1.004398727E1,-4.915012360E0,7.997512817E0
1.601372448E0,1.077897549E1,-4.709120274E0,7.779649734E0
1.603811823E0,1.105669117E1,-4.534350872E0,7.880202293E0
1.606252032E0,1.109020805E1,-4.606173992E0,8.136370659E0
1.608692240E0,1.093459129E1,-4.685179234E0,8.287199020E0
1.611131667E0,1.055871868E1,-4.867131233E0,8.363810539E0
1.613571094E0,1.006314087E1,-4.989230156E0,8.670253754E0
1.616011302E0,9.584320068E0,-5.065841198E0,8.727713585E0
1.618451511E0,9.150988579E0,-5.125693321E0,8.677436829E0
1.620890938E0,8.657804489E0,-5.223851681E0,8.646312714E0
1.623330313E0,8.111949921E0,-5.439320564E0,8.689407349E0
1.625770521E0,7.534971714E0,-5.587754726E0,8.689407349E0
1.628210729E0,6.732947826E0,-5.949263573E0,8.821083069E0
1.630650157E0,5.892619610E0,-6.291619778E0,8.830658913E0
1.633089584E0,5.241424561E0,-6.622004986E0,8.780383110E0
1.635529792E0,4.812880993E0,-6.660310745E0,8.576885223E0
1.637970000E0,4.702752590E0,-6.574122906E0,8.193829536E0
1.640409427E0,4.338849545E0,-6.612428665E0,8.035818100E0
1.642848854E0,3.941428900E0,-6.657916546E0,7.971177578E0
1.645289063E0,3.424303770E0,-6.777621746E0,8.038212776E0
1.647729219E0,2.971818924E0,-6.811139107E0,8.038212776E0
1.650168646E0,2.545669556E0,-6.890143871E0,8.191434860E0
1.652608073E0,2.045302868E0,-7.098431110E0,8.375781059E0
1.655048282E0,1.688582063E0,-7.191800594E0,8.342263222E0
1.657488490E0,1.408472657E0,-7.270805836E0,8.320715904E0
1.659927917E0,1.212156534E0,-7.318687916E0,8.471544266E0
1.662367344E0,6.782724261E-1,-7.474304676E0,8.461968422E0
1.664807552E0,1.204474568E-1,-7.696955681E0,8.433238983E0
1.667247761E0,3.186580166E-2,-7.708926201E0,8.335081100E0
1.669687188E0,2.228940651E-2,-7.677802563E0,8.315928459E0
1.672126563E0,7.017138600E-2,-7.696955681E0,8.229740143E0
1.674566771E0,3.742219210E-1,-7.605979443E0,8.074124336E0
1.677006979E0,1.039781332E0,-7.285170555E0,7.932872295E0
1.679446407E0,1.968691707E0,-6.849444389E0,7.839502335E0
1.681885834E0,3.340510130E0,-6.511876583E0,7.427717209E0
1.684326042E0,4.403490067E0,-6.152761936E0,7.092543602E0
1.686766250E0,4.762605190E0,-5.513537407E0,7.331953049E0
1.689205677E0,4.808093071E0,-5.403409004E0,7.183519363E0
1.691645052E0,4.736269951E0,-5.226245403E0,7.463628769E0
1.694085261E0,4.499254227E0,-5.087388039E0,7.679097652E0
1.696525469E0,4.140139103E0,-5.147240639E0,7.880202293E0
1.698964896E0,3.761871815E0,-5.343556404E0,8.320715904E0
1.701404323E0,3.223199606E0,-5.652395248E0,8.586461067E0
1.703844532E0,3.089129925E0,-5.690700531E0,8.426056862E0
1.706284740E0,3.204046726E0,-5.530295849E0,8.248892784E0
1.708724167E0,3.014912844E0,-5.480020046E0,8.198616982E0
1.711163542E0,2.622280836E0,-5.417773724E0,7.968783855E0
1.713603750E0,2.234436750E0,-5.523114204E0,7.930478096E0
1.716043959E0,2.265559912E0,-5.712247372E0,7.837108135E0
1.718483386E0,2.282318592E0,-5.927716732E0,7.983148098E0
1.720922813E0,2.119519949E0,-6.241343498E0,8.088488579E0
1.723363021E0,1.911233425E0,-6.440053463E0,8.129188538E0
1.725803229E0,1.719705343E0,-6.622004986E0,7.944842815E0
1.728242657E0,1.600000501E0,-6.602852345E0,7.975965977E0
1.730682032E0,1.324679136E0,-6.720162868E0,8.268046379E0
1.733122240E0,1.185821414E0,-6.825503349E0,8.409297943E0
1.735562448E0,1.283979535E0,-6.873385429E0,8.172282219E0
1.738001875E0,9.033177495E-1,-7.165465355E0,8.117218018E0
1.740441302E0,4.699858725E-1,-7.400086880E0,8.143552780E0
1.742881511E0,-5.671584979E-2,-7.773566723E0,8.160311699E0
1.745321719E0,-3.464018106E-1,-7.981853008E0,7.935266018E0
1.747761146E0,-5.642648339E-1,-8.175774574E0,7.760497093E0
1.750200521E0,-8.491625786E-1,-8.336179733E0,7.643186092E0
1.752640729E0,-9.760497808E-1,-8.707264900E0,7.485175610E0
1.755080938E0,-1.452475429E0,-8.961039543E0,7.485175610E0
1.757520365E0,-1.864260435E0,-9.013710022E0,7.391805649E0
1.759959792E0,-2.201828241E0,-9.054409027E0,7.425323009E0
1.762400000E0,-1.871442795E0,-8.843729019E0,7.284070969E0
1.764840209E0,-1.634426832E0,-8.637835503E0,7.063814163E0
1.767279636E0,-1.526692510E0,-8.398426056E0,7.437293530E0
1.769719011E0,-1.083784223E0,-7.957911968E0,7.068602562E0
1.772159219E0,-9.712616205E-1,-7.850178242E0,7.255342007E0
1.774599427E0,-3.272489905E-1,-7.345023155E0,6.980020523E0
1.777038854E0,3.837983012E-1,-6.882962227E0,6.881862640E0
1.779478282E0,6.040553451E-1,-6.717769146E0,6.635270596E0
1.781918490E0,-1.146030784E0,-7.701743603E0,7.437293530E0
1.784358698E0,-2.510667086E0,-8.068040848E0,8.418873787E0
1.786798125E0,-1.509933710E0,-7.744837761E0,7.750920773E0
1.789237552E0,-1.162789464E0,-7.493456841E0,7.832320213E0
1.791677761E0,-1.107725263E0,-7.471910000E0,7.303224087E0
1.794117969E0,-1.301647305E0,-7.610767841E0,6.867498398E0
1.796557396E0,-1.244188905E0,-7.483880520E0,6.347978592E0
1.798996771E0,-1.136454344E0,-7.117583752E0,6.565841675E0
1.801436979E0,-1.031113982E0,-7.239682674E0,6.395860672E0
1.803877188E0,-1.921718717E0,-7.910030365E0,6.288125992E0
1.806316615E0,-1.543451071E0,-8.202110291E0,5.471738815E0
1.808756042E0,-2.559256554E-2,-7.845389366E0,5.057559490E0
1.811196250E0,7.931891680E-1,-7.297141075E0,5.624961376E0
1.813636459E0,2.473846436E0,-6.459206581E0,4.607469082E0
1.816075886E0,4.923009396E0,-5.580572128E0,3.405631065E0
1.818515261E0,7.247679710E0,-5.192728043E0,2.606002092E0
1.820955469E0,5.804038048E0,-5.638030529E0,4.652956486E0
1.823395677E0,2.904784203E0,-6.765651226E0,8.131582260E0
1.825835104E0,2.083608389E0,-7.431210518E0,1.002052593E1
1.828274532E0,2.425964594E0,-7.826237202E0,1.082254887E1
1.830714740E0,7.237603068E-1,-8.968221664E0,1.078903198E1
1.833154948E0,-7.438222170E-1,-1.010541821E1,9.601559639E0
1.835594375E0,-7.327593327E0,-1.381148338E1,1.177061176E1
1.838033750E0,-9.949131966E0,-1.524315453E1,1.632418633E1
1.840473959E0,-7.435328007E0,-1.514260292E1,1.418625832E1
1.842914167E0,-6.578240871E0,-1.436212540E1,1.454537296E1
1.845353594E0,-4.737178802E0,-1.359840870E1,1.407134151E1
1.847793021E0,-3.216926336E0,-1.301664257E1,1.456692028E1
1.850233229E0,-1.799619794E0,-1.235108280E1,1.499067497E1
1.852673438E0,-7.605808973E-1,-1.165918827E1,1.605604935E1
1.855112865E0,2.712756693E-1,-1.078294849E1,1.691792488E1
1.857552240E0,1.276797175E0,-9.918678284E0,1.721479225E1
1.859992448E0,2.169795990E0,-9.075955391E0,1.749250793E1
1.862432657E0,2.921542883E0,-8.386455536E0,1.755714798E1
1.864872084E0,3.436274290E0,-8.084799767E0,1.726506805E1
1.867311511E0,3.572737694E0,-8.175774574E0,1.677667236E1
1.869751719E0,3.651742935E0,-8.479825974E0,1.617814636E1
1.872191927E0,3.630196333E0,-8.776693344E0,1.564426422E1
1.874631354E0,3.819329977E0,-8.788664818E0,1.511995602E1
1.877070729E0,4.267026424E0,-8.690505981E0,1.447594452E1
1.879510938E0,4.877521515E0,-8.671353340E0,1.415752888E1
1.881951146E0,5.770520687E0,-8.360120773E0,1.377447319E1
1.884390573E0,5.593357086E0,-8.563618660E0,1.426765728E1
1.886830000E0,5.078626156E0,-8.791058540E0,1.647262192E1
1.889270209E0,7.654675961E0,-8.185351372E0,1.645825768E1
1.891710417E0,7.726499081E0,-8.142257690E0,1.627630615E1
1.894149844E0,6.747313023E0,-8.034523010E0,1.972141457E1
1.896589219E0,8.138284683E0,-7.778355122E0,1.976211166E1
1.899029427E0,9.534044266E0,-7.340235233E0,2.041330910E1
1.901469636E0,1.060420609E1,-7.282776356E0,2.011883354E1
1.903909063E0,1.231838131E1,-6.624399185E0,1.918034554E1
1.906348490E0,1.403494930E1,-5.702671051E0,1.917077065E1
1.908788698E0,1.565814877E1,-4.926982880E0,1.919950104E1
1.911228907E0,1.689350319E1,-4.486469269E0,1.896487808E1
1.913668334E0,1.715924835E1,-4.692361355E0,1.852197075E1
1.916107761E0,1.706348419E1,-5.161604881E0,1.784683418E1
1.918547969E0,1.656551170E1,-5.937293053E0,1.735843849E1
1.920988125E0,1.564617825E1,-6.861414909E0,1.724352264E1
1.923427552E0,1.466699123E1,-7.591615200E0,1.706635857E1
1.925866979E0,1.401340294E1,-8.001006126E0,1.645346832E1
1.928307188E0,1.354415989E1,-8.170987129E0,1.522529697E1
1.930747396E0,1.337417889E1,-7.910030365E0,1.307779026E1
1.933186823E0,1.340051365E1,-7.371357918E0,8.797142029E0
1.935626250E0,1.320419788E1,-6.765651226E0,5.912252903E0
1.938066459E0,1.506680679E1,-4.922194958E0,1.689062595E0
1.940506667E0,1.680252838E1,-3.253508329E0,-5.675185204E0
1.942946094E0,1.389848614E1,-2.585554838E0,-7.932820320E0
1.945385469E0,8.904396057E0,-4.280576706E0,-9.606294632E0
1.947825677E0,7.216556072E0,-4.390705109E0,-1.118879509E1
1.950265886E0,9.802183151E0,-2.578372240E0,-1.000132179E1
1.952705313E0,1.023790932E1,-1.216130257E0,-8.615139008E0
1.955144740E0,7.432024956E0,-2.717230082E0,-4.447012424E0
1.957584948E0,6.924476147E0,-2.896787643E0,1.569357514E0
1.960025157E0,6.330739498E0,-2.693289042E0,3.542094946E0
1.962464584E0,6.471991539E0,-2.413179636E0,5.064741611E0
1.964903959E0,7.681011677E0,-2.949457884E0,4.885184765E0
1.967344167E0,8.286719322E0,-3.837668180E0,2.888505936E0
1.969784375E0,7.108821392E0,-5.417773724E0,-2.005032063E0
1.972223802E0,5.653209686E0,-5.989963055E0,-3.934675455E0
1.974663229E0,3.318963528E0,-6.746498585E0,-4.387159824E0
1.977103438E0,1.252856135E0,-7.349811077E0,-7.413300991E0
1.979543646E0,-1.766102433E0,-8.053675652E0,-8.715690613E0
1.981983073E0,-3.913609028E0,-8.542072296E0,-8.703720093E0
1.984422448E0,-3.827421427E0,-8.554042816E0,-8.512191772E0
1.986862657E0,-3.678987265E0,-7.768778324E0,-7.058974266E0
1.989302865E0,-3.317478180E0,-6.181490898E0,-5.399863720E0
1.991742292E0,-2.046211958E0,-4.871919155E0,-3.970587015E0
1.994181719E0,8.214187622E-2,-3.787392378E0,-3.123075962E0
1.996621927E0,2.196130991E0,-2.882422924E0,-2.364146709E0
1.999062136E0,3.385998249E0,-2.183346033E0,-1.789562941E0
2.001501563E0,3.759477377E0,-1.903236508E0,-1.162309051E0
2.003940938E0,4.013252258E0,-1.783531666E0,-3.147982061E-1
2.006381146E0,3.678078175E0,-1.941542149E0,4.944071770E-1
2.008821354E0,3.017307043E0,-2.121099472E0,1.104902387E0
2.011260782E0,1.877715826E0,-2.506549597E0,1.349100590E0
2.013700209E0,8.745885491E-1,-3.131409407E0,1.765673637E0
2.016140417E0,6.298908591E-2,-3.818515539E0,2.151123524E0
2.018580625E0,-6.073585749E-1,-4.519986629E0,2.507844210E0
2.021020052E0,-1.119695783E0,-5.051476479E0,2.802318335E0
2.023459427E0,-1.129272103E0,-5.360314846E0,3.463089705E0
2.025899636E0,-1.912142396E0,-5.776888371E0,4.353694439E0
2.028339844E0,-1.890595555E0,-6.155156136E0,5.050377369E0
2.030779271E0,-1.588938951E0,-6.423295021E0,5.450191498E0
2.033218698E0,-9.928084612E-1,-6.313166618E0,5.794942379E0
2.035658907E0,1.510711014E-2,-6.076150417E0,6.508383274E0
2.038099115E0,1.358196497E0,-5.599725246E0,7.044661522E0
2.040538542E0,2.306259394E0,-5.228639603E0,7.643186092E0
2.042977917E0,2.902390242E0,-4.838401318E0,8.021453857E0
2.045418125E0,3.704413176E0,-4.474498749E0,7.856261253E0
2.047858386E0,4.616565228E0,-4.041166782E0,7.873019695E0
2.050297813E0,5.397040844E0,-3.536011696E0,7.846684456E0
2.052737188E0,5.935713291E0,-2.982975006E0,7.413352489E0
2.055177396E0,6.160758495E0,-2.540066719E0,7.008749962E0
2.057617604E0,6.907717705E0,-2.133069992E0,6.762157440E0
2.060057032E0,7.953938484E0,-1.740437746E0,6.659211636E0
2.062496407E0,8.722444534E0,-1.484269261E0,6.644847393E0
2.064936615E0,8.945095062E0,-1.378928900E0,6.326431751E0
2.067376875E0,9.330545425E0,-1.194583297E0,6.177997589E0
2.069816302E0,9.093530655E0,-9.599615932E-1,5.850006104E0
2.072255677E0,9.012130737E0,-8.641976118E-1,5.505256176E0
2.074695886E0,9.122259140E0,-9.312323928E-1,5.591443539E0
2.077136094E0,8.856514931E0,-1.129942656E0,5.814094543E0
2.079575521E0,7.946756363E0,-1.448357821E0,5.792547703E0
2.082014948E0,7.223738670E0,-1.979847670E0,5.596231461E0
2.084455157E0,6.337922096E0,-2.257563114E0,5.203599453E0
2.086895365E0,6.608455181E0,-1.874507427E0,3.913180113E0
2.089334792E0,6.110482693E0,-1.398081660E0,3.022575378E0
2.091774167E0,3.567949772E0,-2.485002518E0,4.303418636E0
2.094214375E0,2.672556639E0,-2.865664244E0,4.686474323E0
2.096654584E0,2.512151957E0,-2.722018242E0,3.704893351E0
2.099094011E0,2.512151957E0,-2.362903595E0,2.917235136E0
2.101533438E0,2.220072031E0,-1.831413507E0,1.619633675E0
2.103973646E0,1.995026708E0,-1.489057422E0,6.907233000E-1
2.106413854E0,1.829833984E0,-1.139518976E0,1.222848892E-3
2.108853282E0,1.980662107E0,-1.520180821E0,1.759920716E-1
2.111292657E0,1.992632627E0,-1.826625466E0,7.026938200E-1
2.113732865E0,1.887292385E0,-1.845778108E0,1.365859151E0
2.116173073E0,1.585635900E0,-1.946330309E0,1.641180515E0
2.118612500E0,1.245673895E0,-2.291080475E0,2.251675606E0
2.121051927E0,9.272587299E-1,-2.896787643E0,2.780771494E0
2.123492136E0,4.819563627E-1,-3.732327938E0,3.017787218E0
2.125932344E0,-1.069919318E-1,-5.154422760E0,3.487030745E0
2.128371771E0,-7.031224966E-1,-6.001933575E0,4.224413395E0
2.130811146E0,-7.988864183E-1,-6.478359222E0,5.768606663E0
2.133251354E0,-1.356711507E0,-7.323475838E0,7.916113853E0
2.135691563E0,-1.423746228E0,-7.795113564E0,7.494752407E0
2.138130990E0,-1.742161393E0,-8.752752304E0,7.281677246E0
2.140570417E0,-2.292804003E0,-9.080744743E0,7.377441406E0
2.143010625E0,-2.589672327E0,-9.442252159E0,8.196223259E0
2.145450834E0,-2.223375320E0,-1.076140118E1,8.744471550E0
2.147890261E0,-2.115640640E0,-1.189381027E1,8.526608467E0
2.150329636E0,-3.343813419E0,-1.185550499E1,1.044667625E1
2.152769844E0,-4.205688953E0,-1.212124920E1,1.148332024E1
2.155210052E0,-4.011766911E0,-1.194169235E1,1.192862320E1
2.157649479E0,-3.614346504E0,-1.243248272E1,1.138037395E1
2.160088907E0,-2.991880894E0,-1.294721317E1,1.123194027E1
2.162529115E0,-2.204222441E0,-1.317225838E1,1.065974998E1
2.164969323E0,-1.071813703E0,-1.228883648E1,9.429183960E0
2.167408750E0,-5.618706942E-1,-1.189620495E1,9.098797798E0
2.169848125E0,-5.283533335E-1,-1.242051125E1,9.151468277E0
2.172288334E0,-5.666588545E-1,-1.270062160E1,8.847417831E0
2.174728542E0,-7.126989365E-1,-1.258331013E1,8.217770576E0
2.177167969E0,-8.108569384E-1,-1.280117321E1,8.186646461E0
2.179607396E0,-9.425323606E-1,-1.322492886E1,8.043000221E0
2.182047604E0,-7.557926774E-1,-1.362234974E1,7.353500366E0
2.184487813E0,-8.036746979E-1,-1.404610443E1,6.833980560E0
2.186927240E0,-8.898621798E-1,-1.463026428E1,5.924222946E0
2.189366615E0,-7.581868172E-1,-1.457520103E1,5.653690338E0
2.191806823E0,-4.852595329E-1,-1.426396751E1,5.658478260E0
2.194247032E0,-6.121467352E-1,-1.355052662E1,5.040800571E0
2.196686459E0,-6.217231154E-1,-1.107981682E1,3.427178144E0
2.199125886E0,-1.069919318E-1,-1.035679817E1,4.032885075E0
2.201566094E0,4.604094625E-1,-1.155384827E1,5.081500530E0
2.204006302E0,8.506475687E-1,-1.187944603E1,5.234722614E0
2.206445729E0,1.288767576E0,-1.180044079E1,5.275422573E0
2.208885104E0,9.511997700E-1,-1.210209656E1,5.814094543E0
2.211325313E0,6.184200048E-1,-1.178128719E1,5.385550976E0
2.213765521E0,1.419943422E-1,-1.180283451E1,5.565108776E0
2.216204948E0,-2.626083493E-1,-1.187226391E1,5.677631378E0
2.218644375E0,-4.541362524E-1,-1.192493343E1,5.852400303E0
2.221084584E0,-7.079107165E-1,-1.184592819E1,5.488497257E0
2.223524792E0,-6.576346159E-1,-1.187705135E1,5.560320377E0
2.225964219E0,-9.712616205E-1,-1.248036480E1,6.027169704E0
2.228403594E0,-1.146030784E0,-1.274371529E1,6.211514950E0
2.230843802E0,-1.011961222E0,-1.275329113E1,6.443742752E0
2.233284011E0,-8.467684388E-1,-1.260007000E1,6.482048035E0
2.235723438E0,-8.324038982E-1,-1.237741852E1,6.443742752E0
2.238162865E0,-7.366398573E-1,-1.245881748E1,6.498806953E0
2.240603073E0,-8.994386196E-1,-1.250669956E1,6.587388515E0
2.243043282E0,-9.401383400E-1,-1.250191116E1,6.419801712E0
2.245482709E0,-9.161973000E-1,-1.217152596E1,6.151662827E0
2.247922084E0,-7.797337174E-1,-1.169749355E1,5.802124023E0
2.250362292E0,-5.810235143E-1,-1.129049778E1,5.533985138E0
2.252802500E0,-4.804713726E-1,-1.092659473E1,5.337669373E0
2.255241927E0,-3.655546010E-1,-1.051959801E1,5.208387852E0
2.257681354E0,-1.285388172E-1,-9.849249840E0,4.808573246E0
2.260121563E0,2.832461894E-1,-9.133414268E0,4.415941238E0
2.262561771E0,4.819563627E-1,-8.609107018E0,4.217230797E0
2.265001198E0,5.250501633E-1,-8.321814537E0,4.236383438E0
2.267440573E0,4.819563627E-1,-8.051281929E0,4.482975483E0
2.269880782E0,5.609616041E-1,-7.584433079E0,4.595498562E0
2.272321042E0,7.974778116E-2,-7.029002190E0,5.055165768E0
2.274760469E0,-1.117801368E-1,-6.722557545E0,5.519620895E0
2.277199844E0,3.814042211E-1,-6.507088661E0,5.646507740E0
2.279640052E0,1.044569612E0,-6.207826138E0,5.531590939E0
2.282080261E0,1.305526376E0,-6.236555099E0,5.555531979E0
2.284519688E0,1.295949936E0,-6.332319260E0,5.711148739E0
2.286959063E0,1.145121694E0,-6.258101940E0,5.735089779E0
2.289399271E0,1.015840411E0,-6.459206581E0,5.768606663E0
2.291839532E0,7.237603068E-1,-6.598063946E0,5.972105026E0
2.294278959E0,5.465970039E-1,-6.545393944E0,6.089416027E0
2.296718334E0,3.000048697E-1,-6.509482384E0,6.058292866E0
2.299158542E0,-5.068064332E-1,-7.072095394E0,6.199544907E0
2.301598750E0,-1.196306825E0,-7.361781597E0,6.278550148E0
2.304038177E0,-1.500357389E0,-7.419239998E0,6.130115509E0
2.306477604E0,-2.194646120E0,-7.572462559E0,6.041533947E0
2.308917813E0,-2.553760767E0,-7.467122078E0,5.591443539E0
2.311358021E0,-2.874569893E0,-7.749625683E0,5.332880974E0
2.313797396E0,-3.056521416E0,-7.866936684E0,5.103047848E0
2.316236823E0,-2.912875652E0,-7.835813046E0,4.913913727E0
2.318677032E0,-2.446026564E0,-7.251653194E0,4.406364441E0
2.321117240E0,-2.264075041E0,-7.141524315E0,4.001761913E0
2.323556667E0,-2.230557442E0,-7.198983192E0,3.867692232E0
2.325996042E0,-2.125217199E0,-7.313899517E0,3.762351990E0
2.328436250E0,-2.048605919E0,-7.280382633E0,3.628282547E0
2.330876459E0,-1.579362631E0,-6.861414909E0,3.113551140E0
2.333315886E0,-1.181942225E0,-6.880568027E0,2.505450249E0
2.335755313E0,-1.143636584E0,-7.895665646E0,2.737677574E0
2.338195521E0,-8.084628582E-1,-8.144651413E0,2.206187725E0
2.340635729E0,-5.905998945E-1,-7.962700367E0,2.148729324E0
2.343075157E0,-8.826799393E-1,-8.436731339E0,2.194217205E0
2.345514532E0,-1.227430105E0,-8.709658623E0,2.579667091E0
2.347954740E0,-1.687097073E0,-8.975403786E0,2.809500694E0
2.350395000E0,-1.847501755E0,-9.346489906E0,3.185374260E0
2.352834427E0,-1.794831514E0,-9.358459473E0,3.436754465E0
2.355273802E0,-1.907354116E0,-9.360853195E0,3.592370987E0
2.357714011E0,-2.309562683E0,-9.818126678E0,4.047249794E0
2.360154219E0,-2.695012808E0,-1.017963600E1,4.262718678E0
2.362593646E0,-2.793170691E0,-1.054832649E1,4.593104362E0
2.365033021E0,-2.769229650E0,-1.058184338E1,4.564375401E0
2.367473229E0,-2.620795488E0,-1.100081158E1,4.696050644E0
2.369913438E0,-2.319139242E0,-1.097447681E1,4.564375401E0
2.372352865E0,-2.185069799E0,-1.097926426E1,4.518887043E0
2.374792292E0,-1.981571198E0,-1.144371986E1,4.863637447E0
2.377232500E0,-1.770890474E0,-1.145808411E1,5.024042130E0
2.379672709E0,-1.531480670E0,-1.146047878E1,4.992918491E0
2.382112136E0,-1.014355421E0,-1.125219154E1,5.009677887E0
2.384551563E0,-4.828654528E-1,-1.135274315E1,5.306545734E0
2.386991771E0,-1.357211173E-1,-1.128331470E1,5.469344616E0
2.389431979E0,2.947170287E-2,-1.151554298E1,5.850006104E0
2.391871407E0,1.108710617E-1,-1.172143459E1,6.110963345E0
2.394310782E0,1.989530772E-2,-1.182198715E1,6.137298107E0
2.396750990E0,1.348120421E-1,-1.181959343E1,5.981681824E0
2.399191198E0,1.826940328E-1,-1.182198715E1,5.814094543E0
2.401630625E0,2.401523888E-1,-1.185311031E1,5.617778778E0
2.404070052E0,3.526750207E-1,-1.173101139E1,5.275422573E0
2.406510261E0,5.992671847E-1,-1.154666519E1,4.933066845E0
2.408950469E0,9.631701708E-1,-1.157778931E1,4.640985966E0
2.411389896E0,1.152304053E0,-1.170946503E1,4.456640720E0
2.413829271E0,1.281585336E0,-1.182438183E1,4.265112877E0
2.416269479E0,1.274402976E0,-1.164721775E1,4.131043434E0
2.418709688E0,1.255250216E0,-1.160651875E1,4.274689198E0
2.421149115E0,1.080481052E0,-1.156342411E1,4.164560795E0
2.423588542E0,1.465930939E0,-1.115882111E1,4.121467113E0
2.426028750E0,1.434807658E0,-1.100320530E1,4.133437634E0
2.428468959E0,1.331861377E0,-1.088589478E1,4.133437634E0
2.430908386E0,1.226521134E0,-1.092180538E1,4.064008713E0
2.433347761E0,1.540148020E0,-1.084758854E1,3.944303513E0
2.435787969E0,1.046963692E0,-1.104629993E1,3.963456154E0
2.438228177E0,4.675917625E-1,-1.133119678E1,3.953879833E0
2.440667604E0,3.909806311E-1,-1.147244835E1,4.109496593E0
2.443107032E0,7.189721465E-1,-1.156103039E1,4.380029678E0
2.445547240E0,1.020628572E0,-1.157060623E1,4.844484806E0
2.447987396E0,1.099633813E0,-1.156342411E1,5.301757812E0
2.450426823E0,1.176244974E0,-1.142696095E1,5.703966141E0
2.452866250E0,1.030205011E0,-1.136471462E1,6.008016586E0
2.455306459E0,1.200186014E0,-1.131683254E1,6.283338070E0
2.457746667E0,1.319890857E0,-1.124500942E1,6.637664795E0
2.460186094E0,1.513812900E0,-1.121628094E1,6.795675278E0
2.462625469E0,1.554512620E0,-1.113966846E1,6.905803680E0
2.465065677E0,2.234436750E0,-1.090744114E1,7.209854126E0
2.467505938E0,2.141066790E0,-1.098644638E1,7.214642525E0
2.469945365E0,2.945483923E0,-1.109418201E1,7.770073891E0
2.472384740E0,3.230381727E0,-1.121867466E1,8.153129578E0
2.474824948E0,2.660586357E0,-1.157539463E1,7.995118618E0
2.477265157E0,2.387659073E0,-1.189620495E1,8.031029701E0
2.479704584E0,1.729281902E0,-1.231517124E1,7.968783855E0
2.482144011E0,1.468325019E0,-1.246121120E1,7.839502335E0
2.484584219E0,1.499448419E0,-1.220025444E1,7.355894089E0
2.487024427E0,1.978268147E0,-1.171185875E1,6.683152676E0
2.489463854E0,2.136278391E0,-1.107263470E1,6.199544907E0
2.491903229E0,2.418782234E0,-1.046213913E1,5.921829224E0
2.494343438E0,2.998154163E0,-9.842067719E0,5.747060299E0
2.496783646E0,2.849720001E0,-9.521258354E0,5.610596180E0
2.499223073E0,2.423570395E0,-9.403947830E0,4.827726364E0
2.501662500E0,2.267954111E0,-9.193266869E0,4.813361645E0
2.504102709E0,1.494660139E0,-9.317759514E0,4.861243725E0
2.506542865E0,7.812187076E-1,-9.320153236E0,4.705626965E0
2.508982292E0,1.111604333E0,-9.054409027E0,4.827726364E0
2.511421719E0,1.264826655E0,-8.898792267E0,4.473399639E0
2.513861927E0,6.184200048E-1,-8.384061813E0,4.119072914E0
2.516302136E0,9.631701708E-1,-7.838207722E0,5.052771091E0
2.518741563E0,1.051751852E0,-7.345023155E0,5.189235210E0
2.521180990E0,3.550691307E-1,-7.227712154E0,4.454246521E0
2.523621198E0,-3.607664108E-1,-7.208559513E0,5.392733097E0
2.526061354E0,-1.667944312E0,-7.182224274E0,4.384817600E0
2.528500782E0,-2.434056044E0,-7.052943230E0,3.915574074E0
2.530940209E0,-3.262413979E0,-6.882962227E0,4.195683956E0
2.533380417E0,-3.726869345E0,-6.418506622E0,3.171009541E0
2.535820625E0,-4.337364674E0,-5.714641571E0,1.215030909E0
2.538260052E0,-4.679720402E0,-4.946135998E0,6.548117995E-1
2.540699427E0,-5.067564487E0,-4.268606186E0,3.890668452E-1
2.543139636E0,-5.448225975E0,-3.698810577E0,-6.820601970E-2
2.545579896E0,-6.425018311E0,-3.509676695E0,-1.073727489E0
2.548019323E0,-7.490392685E0,-3.729933739E0,-1.727316499E0
2.550458698E0,-7.823172092E0,-3.878368139E0,-1.899691463E0
2.552898907E0,-8.103281021E0,-3.940614462E0,-1.933208823E0
2.555339115E0,-7.748954773E0,-3.713175297E0,-1.205402851E0
2.557778542E0,-7.502363205E0,-3.380395651E0,-2.453693151E-1
2.560217917E0,-7.935695171E0,-3.674869537E0,-1.025845408E0
2.562658125E0,-7.820777893E0,-3.768239498E0,-3.171922863E-1
2.565098334E0,-7.693891048E0,-3.605440855E0,5.231363773E-1
2.567537761E0,-6.884685516E0,-3.440248013E0,1.373041391E0
2.569977188E0,-5.991686344E0,-3.052403927E0,1.815949798E0
2.572417396E0,-5.129810810E0,-2.647801399E0,2.009871721E0
2.574857604E0,-4.258358955E0,-2.331780195E0,2.134364843E0
2.577297032E0,-3.693351746E0,-2.154616833E0,2.045783043E0
2.579736407E0,-3.221714497E0,-2.118705273E0,1.727367997E0
2.582176615E0,-2.781200171E0,-2.226439953E0,1.559781194E0
2.584616823E0,-2.204222441E0,-2.616677999E0,1.588510394E0
2.587056250E0,-1.567392111E0,-3.208020210E0,2.076906443E0
2.589495677E0,-1.102936983E0,-3.780210018E0,2.957934618E0
2.591935886E0,-9.473205805E-1,-4.429010391E0,3.872480392E0
2.594376094E0,-9.305619001E-1,-4.991623878E0,4.449458599E0
2.596815521E0,-6.863638163E-1,-5.243004322E0,4.672109604E0
2.599254948E0,-3.009139299E-1,-5.570995808E0,5.069530010E0
2.601695157E0,-7.347454131E-2,-5.853499413E0,5.577079296E0
2.604135313E0,2.090291083E-1,-6.349078178E0,5.720725060E0
2.606574740E0,3.885865211E-1,-6.629187584E0,5.785365582E0
2.609014167E0,3.502809405E-1,-7.155889034E0,5.579473019E0
2.611454375E0,2.425464988E-1,-7.716108322E0,5.237117290E0
2.613894584E0,5.530716851E-3,-8.542072296E0,5.222752094E0
2.616334011E0,-1.165683120E-1,-9.135808945E0,4.997707367E0
2.618773386E0,2.468350530E-2,-9.739121437E0,4.980947971E0
2.621213594E0,1.443884373E-1,-1.006471825E1,4.820543766E0
2.623653802E0,3.885865211E-1,-1.046692753E1,4.518887043E0
2.626093229E0,6.088436246E-1,-1.080688953E1,4.348906040E0
2.628532657E0,7.309426069E-1,-1.118036842E1,4.001761913E0
2.630972865E0,9.751406908E-1,-1.116839886E1,3.472666025E0
2.633413073E0,1.082875133E0,-1.123064423E1,3.010604858E0
2.635852500E0,1.130757093E0,-1.112530422E1,2.134364843E0
2.638291875E0,1.315102696E0,-1.114924526E1,1.902137280E0
2.640732084E0,1.489871979E0,-1.110375786E1,1.279671669E0
2.643172292E0,1.777163744E0,-1.085237789E1,5.518655777E-1
2.645611719E0,1.913627386E0,-1.082604218E1,3.531553745E-1
2.648051146E0,2.143460989E0,-1.082364750E1,1.041690931E-1
2.650491354E0,2.215283632E0,-1.083083057E1,-1.065116003E-1
2.652931563E0,2.346959352E0,-1.082125378E1,-3.315568864E-1
2.655370990E0,2.272742271E0,-1.048608017E1,-1.085698009E0
2.657810365E0,2.488210917E0,-1.053635693E1,-8.654409051E-1
2.660250573E0,2.890419722E0,-1.072070122E1,-8.774113655E-1
2.662690782E0,3.488944530E0,-1.073027897E1,-2.429752350E-1
2.665130209E0,3.917488098E0,-1.020118237E1,-6.739130020E-1
2.667569636E0,4.427431107E0,-9.976136208E0,5.829888582E-1
2.670009844E0,4.805698395E0,-1.091462326E1,2.560514450E0
2.672450052E0,4.930191994E0,-1.145808411E1,3.415207624E0
2.674889479E0,4.973285675E0,-1.185311031E1,3.882056952E0
2.677328854E0,5.171996117E0,-1.198957443E1,4.552404881E0
2.679769063E0,5.435346603E0,-1.219546700E1,5.488497257E0
2.682209271E0,5.349158764E0,-1.235587120E1,6.400649071E0
2.684648698E0,5.646027565E0,-1.253303432E1,7.420535088E0
2.687088125E0,5.844737530E0,-1.257134056E1,8.162705421E0
2.689528334E0,5.818402290E0,-1.254739952E1,8.722925186E0
2.691968542E0,5.849525928E0,-1.261203957E1,9.223291397E0
2.694407969E0,5.988383293E0,-1.260007000E1,9.819421768E0
2.696847344E0,5.847131729E0,-1.260007000E1,1.030303001E1
2.699287552E0,5.729821205E0,-1.254500484E1,1.043949318E1
2.701727761E0,5.753761768E0,-1.228883648E1,1.037245941E1
2.704167188E0,5.593357086E0,-1.198239136E1,9.979825974E0
2.706606615E0,5.236636639E0,-1.167834187E1,9.242444038E0
2.709046823E0,4.918221474E0,-1.142935467E1,8.342263222E0
2.711487032E0,4.638112068E0,-1.133119678E1,7.403776169E0
2.713926459E0,4.326879025E0,-1.138386726E1,6.786098480E0
2.716365834E0,3.737930775E0,-1.158257771E1,6.424590111E0
2.718806042E0,3.182499647E0,-1.186029243E1,6.280944347E0
2.721246250E0,2.651009798E0,-1.212603760E1,6.300096512E0
2.723685677E0,2.148248911E0,-1.231756592E1,6.297702789E0
2.726125104E0,1.619153261E0,-1.248036480E1,6.233062267E0
2.728565313E0,1.255250216E0,-1.262640476E1,6.125327587E0
2.731005521E0,1.128363013E0,-1.256894588E1,6.046322346E0
2.733444948E0,9.057118893E-1,-1.263119221E1,5.967317104E0
2.735884323E0,8.027656078E-1,-1.261922169E1,6.065474987E0
2.738324532E0,7.548836470E-1,-1.248036480E1,6.173209667E0
2.740764740E0,9.272587299E-1,-1.213082600E1,6.237850189E0
2.743204167E0,1.137939334E0,-1.175255871E1,6.268973827E0
2.745643594E0,1.315102696E0,-1.121867466E1,6.326431751E0
2.748083802E0,1.509024739E0,-1.076379585E1,6.388678551E0
2.750524011E0,2.023756027E0,-1.015090656E1,6.367131710E0
2.752963438E0,2.430752754E0,-9.461405754E0,6.264184952E0
2.755402813E0,2.911966562E0,-8.647412300E0,6.302491188E0
2.757843021E0,3.462609291E0,-7.766384602E0,6.161239147E0
2.760283229E0,3.905517578E0,-6.938025951E0,5.943376064E0
2.762722657E0,4.223932743E0,-6.224584579E0,5.895493984E0
2.765162084E0,4.463342667E0,-5.575784206E0,5.684813499E0
2.767602292E0,4.456160545E0,-5.104146481E0,5.680025101E0
2.770042500E0,4.362790585E0,-4.821642876E0,5.861976624E0
2.772481927E0,4.178444862E0,-4.570262432E0,5.833247662E0
2.774921302E0,4.152109623E0,-4.388310909E0,5.749454021E0
2.777361511E0,4.063528061E0,-4.297335148E0,5.929011822E0
2.779801719E0,3.967764139E0,-4.294941425E0,6.142086029E0
2.782241146E0,3.883970737E0,-4.215936184E0,6.443742752E0
2.784680573E0,3.680472136E0,-4.237483025E0,6.865104198E0
2.787120782E0,3.505702972E0,-4.285364628E0,7.300830364E0
2.789560990E0,3.429091930E0,-4.417039871E0,7.691068172E0
2.792000417E0,3.326145649E0,-4.491257668E0,8.011877060E0
2.794439792E0,3.101100445E0,-4.543927670E0,8.308745384E0
2.796880000E0,2.787473440E0,-4.594203472E0,8.564913750E0
2.799320209E0,2.641433477E0,-4.701938152E0,8.797142029E0
2.801759636E0,2.208101511E0,-4.905436516E0,9.101192474E0
2.804199063E0,1.904050946E0,-5.029929638E0,9.292719841E0
2.806639271E0,1.492265940E0,-5.163999081E0,9.354967117E0
2.809079427E0,1.233703375E0,-5.283703804E0,9.292719841E0
2.811518854E0,1.044569612E0,-5.465655327E0,9.139497757E0
2.813958282E0,8.027656078E-1,-5.556631088E0,8.811506271E0
2.816398490E0,6.998193860E-1,-5.673942089E0,8.373386383E0
2.818838698E0,7.381249070E-1,-5.721824169E0,7.786832333E0
2.821278125E0,7.309426069E-1,-5.800829411E0,7.308012009E0
2.823717500E0,7.764304876E-1,-5.731400490E0,6.668787956E0
2.826157709E0,9.248646498E-1,-5.729006767E0,6.022381306E0
2.828597917E0,1.011052251E0,-5.623665810E0,5.335275173E0
2.831037344E0,1.011052251E0,-5.554236889E0,4.741538525E0
2.833476771E0,1.049357772E0,-5.477625847E0,4.099920273E0
2.835916979E0,1.094845653E0,-5.434532166E0,3.520547867E0
2.838357188E0,1.152304053E0,-5.420167446E0,2.974693537E0
2.840796615E0,1.145121694E0,-5.448896885E0,2.390533447E0
2.843235990E0,1.135545373E0,-5.542266369E0,2.096059322E0
2.845676198E0,1.161880374E0,-5.666759491E0,2.108029604E0
2.848116407E0,1.113998413E0,-5.791253090E0,2.321104527E0
2.850555834E0,9.607761502E-1,-5.954051495E0,2.615578651E0
2.852995261E0,8.267065287E-1,-6.121638775E0,2.962723017E0
2.855435469E0,6.854547262E-1,-6.286831379E0,3.199738741E0
2.857875677E0,5.849026442E-1,-6.452023983E0,3.312261343E0
2.860315104E0,4.604094625E-1,-6.669887066E0,3.429572105E0
2.862754479E0,3.885865211E-1,-6.827897549E0,3.525336266E0
2.865194688E0,3.263399303E-1,-6.938025951E0,3.594764948E0
2.867634896E0,2.162114084E-1,-7.012243271E0,3.788686991E0
2.870074323E0,1.802999228E-1,-7.151101112E0,3.946697474E0
2.872513750E0,1.539648324E-1,-7.213347435E0,4.109496593E0
2.874953959E0,1.276297420E-1,-7.316294193E0,4.336935520E0
2.877394167E0,1.204474568E-1,-7.424027920E0,4.590710163E0
2.879833594E0,6.059498712E-2,-7.555703640E0,4.856455326E0
2.882272969E0,-7.826274633E-2,-7.661044121E0,5.136564732E0
2.884713177E0,-1.836030781E-1,-7.768778324E0,5.373580456E0
2.887153386E0,-2.171204686E-1,-7.922000885E0,5.612990856E0
2.889592813E0,-2.219086885E-1,-8.039311409E0,5.826065063E0
2.892032240E0,-1.620562077E-1,-8.151833534E0,5.986469746E0
2.894472448E0,-4.713945463E-2,-8.228445053E0,6.077445507E0
2.896912657E0,8.932417631E-2,-8.319420815E0,6.197150707E0
2.899352084E0,2.736697793E-1,-8.345755577E0,6.347978592E0
2.901791459E0,4.005569816E-1,-8.364908218E0,6.515565872E0
2.904231667E0,5.418088436E-1,-8.273933411E0,6.580206394E0
2.906671875E0,8.243125081E-1,-8.285903931E0,6.544294834E0
2.909111302E0,9.535937905E-1,-8.293085098E0,6.453319073E0
2.911550729E0,1.068510532E0,-8.307450294E0,6.438954830E0
2.913990938E0,1.224127054E0,-8.484613419E0,6.316855907E0
2.916431146E0,1.109210253E0,-8.611500740E0,6.285732269E0
2.918870573E0,8.769826889E-1,-8.769511223E0,6.249820709E0
2.921309948E0,7.285485864E-1,-8.999344826E0,6.257003307E0
2.923750157E0,4.747740626E-1,-9.269877434E0,6.233062267E0
2.926190365E0,2.233936936E-1,-9.538016319E0,6.137298107E0
2.928629792E0,-9.502144158E-2,-9.736727715E0,6.031957626E0
2.931069167E0,-1.524797976E-1,-9.856432915E0,5.938587666E0
2.933509375E0,-2.362732589E-1,-9.885161400E0,5.794942379E0
2.935949636E0,-1.596620977E-1,-9.827702522E0,5.703966141E0
2.938389063E0,-3.751310110E-1,-9.700815201E0,5.512438297E0
2.940828438E0,-5.092005134E-1,-9.605051994E0,5.332880974E0
2.943268646E0,-6.552405953E-1,-9.466193199E0,5.158111572E0
2.945708854E0,-7.677631974E-1,-9.360853195E0,4.988130569E0
2.948148282E0,-8.300097585E-1,-9.224390030E0,4.798996449E0
2.950587709E0,-7.677631974E-1,-9.075955391E0,4.657745361E0
2.953027917E0,-6.911519766E-1,-8.894004822E0,4.475793839E0
2.955468073E0,-8.012805581E-1,-8.841334343E0,4.229201317E0
2.957907500E0,-9.999907017E-1,-8.879639626E0,4.269901276E0
2.960346927E0,-1.548239350E0,-8.975403786E0,4.339330196E0
2.962787136E0,-1.390228868E0,-8.927521706E0,4.518887043E0
2.965227344E0,-1.378258348E0,-8.805422783E0,4.717597485E0
2.967666771E0,-1.634426832E0,-8.580377579E0,4.928277969E0
2.970106146E0,-1.792437553E0,-8.465460777E0,5.170082092E0
2.972546354E0,-1.301647305E0,-8.223656654E0,5.253875732E0
2.974986563E0,-1.380652547E0,-8.094375610E0,5.431039333E0
2.977425990E0,-1.395017028E0,-7.888483524E0,5.541167736E0
2.979865417E0,-7.701572776E-1,-7.538945198E0,5.584260941E0
2.982305625E0,-7.486103773E-1,-7.237288475E0,5.701571941E0
2.984745834E0,-3.487959206E-1,-6.957179070E0,5.648901939E0
2.987185261E0,2.209995985E-1,-6.724951744E0,5.601020336E0
2.989624636E0,4.316802621E-1,-6.626793385E0,5.450191498E0
2.992064844E0,9.559879303E-1,-6.425689220E0,5.416674137E0
2.994505052E0,1.322284937E0,-6.322742939E0,5.493285656E0
2.996944479E0,2.320624352E0,-5.887017250E0,5.907464504E0
2.999383907E0,2.351747513E0,-5.798435211E0,6.381495953E0
3.001824115E0,2.413994074E0,-5.827164650E0,6.845951080E0
3.004264323E0,2.492999315E0,-5.989963055E0,6.941715240E0
3.006703750E0,2.227254152E0,-6.231767178E0,7.339135647E0
3.009143125E0,1.983056188E0,-6.452023983E0,7.583333492E0
3.011583334E0,2.222466230E0,-6.447236061E0,8.045394897E0
3.014023542E0,1.892080545E0,-6.483147621E0,8.323110580E0
3.016462969E0,1.549724340E0,-6.533423424E0,8.490696907E0
3.018902396E0,1.746040463E0,-6.461600304E0,8.854599953E0
3.021342604E0,1.710129023E0,-6.449630260E0,8.959939957E0
3.023782761E0,1.492265940E0,-6.564547062E0,9.242444038E0
3.026222188E0,1.556906700E0,-6.545393944E0,9.204137802E0
3.028661615E0,1.659852982E0,-6.507088661E0,9.287932396E0
3.031101823E0,1.614365101E0,-6.449630260E0,9.340601921E0
3.033542032E0,1.604788661E0,-6.313166618E0,9.292719841E0
3.035981459E0,2.004603148E0,-6.052209377E0,9.539312363E0
3.038420834E0,1.927991986E0,-5.769706249E0,9.290326118E0
3.040861042E0,2.045302868E0,-5.441714764E0,9.283143997E0
3.043301250E0,2.416388273E0,-5.061053276E0,9.208927155E0
3.045740677E0,2.294289112E0,-4.943742275E0,8.971911430E0
3.048180104E0,2.277530432E0,-4.816854477E0,8.584067345E0
3.050620313E0,2.466664314E0,-4.685179234E0,8.100459099E0
3.053060521E0,2.615098238E0,-4.555898190E0,7.401381969E0
3.055499948E0,2.629462957E0,-4.527168751E0,7.001567841E0
3.057939323E0,2.423570395E0,-4.654056072E0,6.874680519E0
3.060379532E0,2.600733757E0,-4.735455513E0,6.771734238E0
3.062819740E0,2.576792717E0,-4.666026592E0,6.266579628E0
3.065259167E0,2.598339796E0,-4.682785034E0,6.024775505E0
3.067698594E0,2.643827438E0,-4.891071320E0,5.658478260E0
3.070138802E0,2.528910637E0,-4.773761272E0,5.404703617E0
3.072579011E0,2.533699036E0,-4.907830715E0,5.536379337E0
3.075018438E0,2.627068758E0,-5.149634361E0,5.675237179E0
3.077457813E0,2.586369276E0,-5.556631088E0,5.821277142E0
3.079898021E0,2.318229914E0,-6.207826138E0,6.537112713E0
3.082338229E0,1.750828743E0,-6.736922264E0,7.341529846E0
3.084777657E0,1.212156534E0,-7.050549030E0,7.667127132E0
3.087217084E0,8.985295296E-1,-7.414452076E0,8.184252739E0
3.089657292E0,6.040553451E-1,-7.538945198E0,8.739683151E0
3.092097500E0,4.867445529E-1,-7.637103081E0,9.256809235E0
3.094536927E0,4.101333916E-1,-7.792719364E0,9.754780769E0
3.096976302E0,4.388625920E-1,-8.051281929E0,1.000616264E1
3.099416511E0,3.239458501E-1,-8.230838776E0,1.024078274E1
3.101856719E0,3.904809803E-2,-8.348150253E0,1.005164909E1
3.104296146E0,-1.405093223E-1,-8.601924896E0,1.040118790E1
3.106735521E0,-4.804713726E-1,-8.987374306E0,1.024796486E1
3.109175729E0,-5.403237939E-1,-9.147778511E0,1.023599529E1
3.111615938E0,-4.301952422E-1,-9.569140434E0,1.043470478E1
3.114055365E0,-7.031224966E-1,-9.638569832E0,9.958280563E0
3.116494792E0,-1.009567142E0,-9.894737244E0,9.716476440E0
3.118935000E0,-1.141242623E0,-1.007190037E1,9.668594360E0
3.121375209E0,-1.560209870E0,-1.025624657E1,8.940788269E0
3.123814636E0,-1.723008633E0,-1.018921185E1,7.832320213E0
3.126254011E0,-1.794831514E0,-1.010541821E1,6.881862640E0
3.128694219E0,-1.713432074E0,-9.899525642E0,6.297702789E0
3.131134427E0,-1.612879992E0,-9.497317314E0,6.154056549E0
3.133573854E0,-2.333503723E0,-9.624204636E0,6.015199184E0
3.136013282E0,-2.730924368E0,-9.672086716E0,5.873947144E0
3.138453490E0,-2.424479485E0,-9.444647789E0,5.771001339E0
3.140893698E0,-2.649524689E0,-9.315365791E0,5.665660858E0
3.143333125E0,-2.292804003E0,-8.937098503E0,5.210781574E0
3.145772500E0,-1.976783037E0,-8.850910187E0,4.540434361E0
3.148212709E0,-2.273651361E0,-9.016103745E0,4.214837074E0
3.150652917E0,-2.335897684E0,-9.164537430E0,3.822204351E0
3.153092344E0,-2.589672327E0,-9.420706749E0,3.580400467E0
3.155531771E0,-2.683042288E0,-9.825308800E0,3.743199110E0
3.157971979E0,-2.958363533E0,-1.010541821E1,3.958667994E0
3.160412188E0,-2.829082251E0,-1.016287613E1,3.726440430E0
3.162851615E0,-3.588011503E0,-1.103911686E1,4.597892761E0
3.165290990E0,-3.767569065E0,-1.127134418E1,5.258663654E0
3.167731198E0,-4.349335194E0,-1.161370087E1,5.215569973E0
3.170171407E0,-4.801819324E0,-1.072548962E1,4.619439602E0
3.172610834E0,-4.710844040E0,-9.755879402E0,5.543561459E0
3.175050209E0,-4.694085121E0,-1.003120136E1,6.649635315E0
3.177490417E0,-4.303846836E0,-1.038073921E1,7.202672005E0
3.179930625E0,-3.956702709E0,-1.088828850E1,6.539506435E0
3.182370052E0,-3.868120909E0,-1.131922626E1,5.656084061E0
3.184809479E0,-3.990220070E0,-1.160651875E1,6.087022305E0
3.187249688E0,-3.868120909E0,-1.112051678E1,6.968050003E0
3.189689896E0,-3.465912580E0,-1.068000221E1,7.154790401E0
3.192129323E0,-3.078068495E0,-1.041665173E1,7.070996761E0
3.194568698E0,-2.544184446E0,-1.014132977E1,6.841163158E0
3.197008907E0,-1.971994877E0,-9.889949799E0,6.642453194E0
3.199449115E0,-1.560209870E0,-9.583504677E0,6.764552116E0
3.201888542E0,-9.401383400E-1,-9.195660591E0,6.723852158E0
3.204327969E0,-4.732890129E-1,-8.819787979E0,6.697517395E0
3.206768177E0,1.084769666E-1,-8.393637657E0,6.975232601E0
3.209208386E0,8.841649294E-1,-8.008188248E0,6.934533119E0
3.211647813E0,1.339043736E0,-7.732867241E0,6.699911118E0
3.214087188E0,1.566483140E0,-7.526974678E0,6.247426510E0
3.216527396E0,2.528910637E0,-7.213347435E0,5.718330860E0
3.218967604E0,3.232775688E0,-7.036183834E0,5.711148739E0
3.221407032E0,3.678078175E0,-6.906903267E0,5.689601898E0
3.223846459E0,4.051557541E0,-6.892538548E0,5.809306622E0
3.226286667E0,4.429824829E0,-6.803956509E0,5.885917664E0
3.228726875E0,4.875127316E0,-7.198983192E0,6.795675278E0
3.231166302E0,4.891886711E0,-7.538945198E0,7.056632042E0
3.233605677E0,4.774575710E0,-7.469516277E0,6.822010040E0
3.236045886E0,5.435346603E0,-7.237288475E0,6.434165955E0
3.238486094E0,6.005142212E0,-6.684251308E0,5.591443539E0
3.240925521E0,7.137550831E0,-5.697883129E0,4.499734879E0
3.243364948E0,8.267565727E0,-4.735455513E0,4.542828083E0
3.245805157E0,9.007342339E0,-4.546321392E0,5.471738815E0
3.248245313E0,8.964248657E0,-4.795308113E0,6.412619591E0
3.250684740E0,8.382482529E0,-5.053870678E0,6.680758476E0
3.253124167E0,7.867751122E0,-5.592542648E0,7.126060486E0
3.255564375E0,8.138284683E0,-5.875046730E0,7.090149403E0
3.258004584E0,8.341782570E0,-5.898987770E0,6.991991043E0
3.260444011E0,8.607528687E0,-5.767312050E0,7.564181328E0
3.262883386E0,9.091135025E0,-5.489596367E0,7.504328728E0
3.265323594E0,9.239570618E0,-5.163999081E0,7.559392452E0
3.267763802E0,8.830179214E0,-5.175969601E0,7.564181328E0
3.270203229E0,8.174196243E0,-5.554236889E0,7.545028210E0
3.272642657E0,7.760016441E0,-6.054603577E0,7.899354458E0
3.275082865E0,7.515818596E0,-6.571729183E0,8.660677910E0
3.277523073E0,7.364990711E0,-6.844656467E0,9.580012321E0
3.279962500E0,7.154309273E0,-7.048154354E0,1.036767006E1
3.282401875E0,6.814347267E0,-7.263623714E0,1.083691406E1
3.284842084E0,6.462415218E0,-7.534157276E0,1.099013615E1
3.287282292E0,6.199063778E0,-7.785537243E0,1.097816658E1
3.289721719E0,5.954865932E0,-8.056070328E0,1.075551414E1
3.292161146E0,6.014718533E0,-8.381667137E0,1.061426353E1
3.294601354E0,5.777702808E0,-8.719235420E0,1.053286362E1
3.297041563E0,5.432952404E0,-9.047226906E0,1.052328682E1
3.299480990E0,4.987649918E0,-9.301001549E0,1.057835102E1
3.301920365E0,4.314908504E0,-9.655327797E0,1.070284462E1
3.304360573E0,3.606255293E0,-1.012935925E1,1.066214561E1
3.306800782E0,3.220805168E0,-1.060339069E1,1.037485313E1
3.309240209E0,2.897602081E0,-1.110615158E1,9.998979568E0
3.311679584E0,2.789867401E0,-1.149638939E1,9.726052284E0
3.314119792E0,2.938301802E0,-1.160173035E1,9.781116486E0
3.316560000E0,2.617492437E0,-1.137907887E1,9.656622887E0
3.318999427E0,2.342170954E0,-1.080688953E1,9.505795479E0
3.321438854E0,1.860957265E0,-1.026103497E1,9.017398834E0
3.323879063E0,1.595212221E0,-9.832491875E0,8.201010704E0
3.326319271E0,1.212156534E0,-9.636174202E0,7.652762890E0
3.328758698E0,9.200764298E-1,-9.499711990E0,6.857921600E0
3.331198073E0,3.550691307E-1,-9.245936394E0,5.794942379E0
3.333638282E0,-2.410614789E-1,-9.001738548E0,4.978554249E0
3.336078490E0,-8.371920586E-1,-8.769511223E0,3.910785913E0
3.338517917E0,-1.768496513E0,-8.137469292E0,2.989058018E0
3.340957344E0,-1.845107675E0,-8.089587212E0,1.090537786E0
3.343397552E0,-1.354317427E0,-8.386455536E0,8.223987222E-1
3.345837761E0,-1.239400625E0,-8.156621933E0,1.033079505E0
3.348277188E0,-2.017482758E0,-7.814266682E0,8.535220027E-1
3.350716563E0,-2.788382530E0,-7.570067883E0,-1.903050840E-1
3.353156771E0,-3.628711224E0,-7.608374119E0,-2.098401785E0
3.355596979E0,-3.468306541E0,-7.541338921E0,-2.175013065E0
3.358036407E0,-3.422818661E0,-7.294746876E0,-2.313870907E0
3.360475782E0,-3.657440186E0,-6.921267509E0,-3.087164640E0
3.362915990E0,-3.762780666E0,-6.590881824E0,-3.910734415E0
3.365356198E0,-4.126683712E0,-6.420900822E0,-4.006498337E0
3.367795625E0,-3.851362228E0,-6.260496140E0,-3.594713688E0
3.370235052E0,-4.038102150E0,-6.162338257E0,-3.618654490E0
3.372675261E0,-3.801086187E0,-6.056998253E0,-3.439097166E0
3.375115469E0,-3.875303268E0,-5.946869373E0,-3.137440681E0
3.377554896E0,-3.805874586E0,-5.796041012E0,-2.732838154E0
3.379994271E0,-3.671804905E0,-5.537478447E0,-1.842233062E0
3.382434479E0,-3.676593304E0,-5.233428001E0,-1.478330016E0
3.384874688E0,-4.033313751E0,-4.977259636E0,-1.138368130E0
3.387314115E0,-3.846574306E0,-4.706726074E0,-5.135083795E-1
3.389753542E0,-3.755598545E0,-4.383522987E0,2.382386327E-1
3.392193750E0,-3.757992506E0,-4.045954704E0,6.284767389E-1
3.394633959E0,-3.358177900E0,-3.471371174E0,9.684387445E-1
3.397073386E0,-3.358177900E0,-2.805811882E0,9.995619655E-1
3.399512761E0,-2.766835690E0,-2.109128952E0,1.078567386E0
3.401952969E0,-2.888934851E0,-1.635097504E0,1.576539874E0
3.404393177E0,-3.018215895E0,-1.309500098E0,1.435288072E0
3.406832604E0,-2.905693293E0,-1.005449533E0,1.198272347E0
3.409271979E0,-3.408453941E0,-1.000661254E0,1.040261745E0
3.411712188E0,-2.977516174E0,-6.990048289E-1,6.931173801E-1
3.414152396E0,-2.766835690E0,-4.524126649E-1,7.793049216E-1
3.416591823E0,-2.309562683E0,-6.456865370E-2,1.009138465E0
3.419031250E0,-2.079729319E0,3.041225076E-1,1.258124828E0
3.421471459E0,-1.983965397E0,4.645271301E-1,1.667515635E0
3.423911667E0,-1.545845270E0,6.656314731E-1,1.729762197E0
3.426351094E0,-9.975967407E-1,8.954648376E-1,2.273222446E0
3.428790469E0,-5.331414938E-1,1.142057061E0,2.512632370E0
3.431230677E0,-1.362207532E-2,1.412590265E0,2.656278133E0
3.433670886E0,7.285485864E-1,1.836345673E0,2.821471214E0
3.436110313E0,1.185821414E0,2.092514277E0,2.730495453E0
3.438549740E0,1.619153261E0,1.908168793E0,3.235650063E0
3.440989948E0,2.179372549E0,1.893804073E0,3.216497421E0
3.443430157E0,2.509757996E0,1.443713427E0,3.508577347E0
3.445869584E0,2.548063517E0,6.895724535E-1,3.678558350E0
3.448308959E0,2.133884430E0,-4.667772651E-1,4.351300716E0
3.450749167E0,1.590424180E0,-1.544121742E0,4.897155285E0
3.453189375E0,1.097239733E0,-2.578372240E0,5.347245693E0
3.455628802E0,7.955833077E-1,-3.325331211E0,5.732695580E0
3.458068177E0,1.085269213E0,-3.306178331E0,6.125327587E0
3.460508386E0,7.500954270E-1,-3.804151058E0,8.143552780E0
3.462948594E0,2.138173133E-1,-5.307644844E0,8.143552780E0
3.465388021E0,-4.517421722E-1,-6.272466660E0,6.721457958E0
3.467827448E0,-6.863638163E-1,-5.997145653E0,5.443009853E0
3.470267657E0,-4.589244425E-1,-5.173575401E0,4.779844284E0
3.472707865E0,-6.504523158E-1,-5.190333843E0,4.978554249E0
3.475147292E0,-3.703427911E-1,-4.960500717E0,4.298630238E0
3.477586667E0,-2.798667178E-2,-4.704331875E0,3.853327751E0
3.480026875E0,-4.474535957E-2,-4.905436516E0,3.776716471E0
3.482467084E0,-7.108044624E-2,-5.322009563E0,2.979481697E0
3.484906511E0,-4.045680165E-3,-5.223851681E0,2.189429045E0
3.487345938E0,3.359163404E-1,-4.505621910E0,1.564569473E0
3.489786146E0,9.440174103E-1,-3.612622976E0,1.064202666E0
3.492226354E0,1.544936299E0,-3.344484091E0,6.165062189E-1
3.494665782E0,1.851380825E0,-3.698810577E0,5.159540772E-1
3.497105157E0,2.100367069E0,-3.923855782E0,6.356589794E-1
3.499545365E0,2.186554670E0,-4.479287148E0,6.093239188E-1
3.501985573E0,2.248801231E0,-4.891071320E0,6.141121387E-1
3.504425000E0,2.339776993E0,-5.008382320E0,4.991953969E-1
3.506864375E0,2.868872643E0,-4.555898190E0,5.973534584E-1
3.509304584E0,2.986183643E0,-4.718696594E0,1.250942469E0
3.511744792E0,3.314175129E0,-4.723484993E0,1.284459829E0
3.514184219E0,3.924670219E0,-4.938953400E0,1.638786435E0
3.516623646E0,4.350820065E0,-5.326797485E0,2.055359602E0
3.519063854E0,4.544742107E0,-5.853499413E0,2.397715569E0
3.521504063E0,4.618958950E0,-6.643551826E0,2.474326611E0
3.523943490E0,4.451372147E0,-7.936365604E0,3.204526901E0
3.526382865E0,4.381943226E0,-1.027300549E1,4.243566036E0
3.528823073E0,4.109015942E0,-1.295439529E1,5.194023132E0
3.531263282E0,3.599072933E0,-1.587998486E1,6.012804985E0
3.533702709E0,2.313441992E0,-1.764204216E1,6.415013790E0
3.536142136E0,3.574632108E-1,-1.841294098E1,6.628087997E0
3.538582344E0,-1.026325822E0,-1.772822952E1,6.058292866E0
3.541022500E0,-1.478810549E0,-1.579619122E1,3.439148664E0
3.543461927E0,-1.323194146E0,-1.312916565E1,5.470773578E-1
3.545901354E0,-3.344313204E-1,-1.222898388E1,-1.212585211E0
3.548341563E0,1.537753820E0,-1.236305332E1,-7.265831828E-1
3.550781771E0,1.743646383E0,-1.401976967E1,7.793049216E-1
3.553221198E0,5.394147635E-1,-1.483136940E1,2.606002092E0
3.555660573E0,1.994527131E-1,-1.508514309E1,4.052038193E0
3.558100782E0,5.729321241E-1,-1.569085026E1,3.166221380E0
3.560540990E0,6.298908591E-2,-1.623670578E1,1.746520877E0
3.562980417E0,2.473346889E-1,-1.571479130E1,1.279671669E0
3.565419844E0,5.394147635E-1,-1.572197342E1,2.430268228E-1
3.567860052E0,7.716423273E-1,-1.524315453E1,-3.602860868E-1
3.570300261E0,8.889531493E-1,-1.441240120E1,-3.315568864E-1
3.572739688E0,1.657458901E0,-1.386175919E1,-4.129562378E-1
3.575179063E0,2.643827438E0,-1.351222038E1,3.363966644E-1
3.577619271E0,3.984522820E0,-1.374444866E1,1.033079505E0
3.580059479E0,4.839216232E0,-1.369177818E1,1.200666428E0
3.582498907E0,4.642899990E0,-1.420172119E1,9.014039636E-1
3.584938282E0,4.140139103E0,-1.470208740E1,5.231363773E-1
3.587378490E0,4.010858059E0,-1.497022629E1,2.262681276E-1
3.589818698E0,3.773842335E0,-1.559269238E1,4.154019356E-1
3.592258125E0,3.898335218E0,-1.635641098E1,8.080341220E-1
3.594697552E0,3.680472136E0,-1.687592888E1,1.243760228E0
3.597137761E0,3.735536575E0,-1.724222755E1,1.456834912E0
3.599577969E0,3.876788378E0,-1.768274117E1,1.545416594E0
3.602017396E0,4.132956982E0,-1.802030945E1,1.416135311E0
3.604456771E0,4.015645981E0,-1.819268417E1,1.193484068E0
3.606896979E0,4.044375420E0,-1.822380829E1,1.004350305E0
3.609337188E0,4.257450104E0,-1.853503990E1,8.487337828E-1
3.611776615E0,4.259843826E0,-1.895879555E1,5.877770185E-1
3.614216042E0,4.518406868E0,-1.917426300E1,4.441311061E-1
3.616656250E0,4.654870510E0,-1.932988167E1,3.866727352E-1
3.619096407E0,4.693175793E0,-1.926045227E1,4.225842059E-1
3.621535834E0,4.697964668E0,-1.906892395E1,7.649403811E-1
3.623975261E0,5.167207718E0,-1.878402519E1,8.008518219E-1
3.626415469E0,5.859101772E0,-1.861883354E1,5.566537380E-1
3.628855677E0,5.837555408E0,-1.829084206E1,4.680720866E-1
3.631295104E0,5.839949608E0,-1.820465279E1,2.262681276E-1
3.633734479E0,6.076964855E0,-1.848237038E1,-2.573398352E-1
3.636174688E0,6.536632061E0,-1.859249687E1,-4.871733189E-1
3.638614896E0,7.053757668E0,-1.847758102E1,-4.488676786E-1
3.641054323E0,7.163886070E0,-1.786948204E1,-3.722565770E-1
3.643493750E0,7.113609791E0,-1.710336876E1,-2.142460346E-1
3.645933959E0,6.831106186E0,-1.655272675E1,-2.118519545E-1
3.648374115E0,6.586907864E0,-1.609305954E1,-1.926991642E-1
3.650813542E0,6.033871651E0,-1.574112701E1,2.276974171E-2
3.653252969E0,5.133689880E0,-1.553284073E1,1.698638916E0
3.655693177E0,5.150448799E0,-1.531497765E1,-5.494198799E-1
3.658133386E0,4.896674633E0,-1.492952728E1,-8.295294642E-1
3.660572813E0,4.592624187E0,-1.456083679E1,-5.144730955E-2
3.663012188E0,4.278996944E0,-1.382584763E1,3.579435647E-1
3.665452396E0,3.603861332E0,-1.241332912E1,1.028291225E0
3.667892604E0,2.823385000E0,-1.103193474E1,2.002689362E0
3.670332032E0,3.417121410E0,-1.194408703E1,1.401770711E0
3.672771459E0,4.475313187E0,-1.264076900E1,1.243760228E0
3.675211667E0,4.757816315E0,-1.288017845E1,1.013926625E0
3.677651875E0,4.731481552E0,-1.261203957E1,1.562175274E0
3.680091302E0,4.702752590E0,-1.221461964E1,1.717791677E0
3.682530677E0,5.009196758E0,-1.203027344E1,1.389800191E0
3.684970886E0,5.152842999E0,-1.186986923E1,1.521475554E0
3.687411094E0,5.497592926E0,-1.160173035E1,1.629209995E0
3.689850521E0,5.940501690E0,-1.161609459E1,1.722579956E0
3.692289896E0,6.321163177E0,-1.179086399E1,1.808767438E0
3.694730104E0,7.307531834E0,-1.133837986E1,1.938048840E0
3.697170313E0,7.439207554E0,-1.117318630E1,2.182246685E0
3.699609740E0,7.783957481E0,-1.122346210E1,2.455173969E0
3.702049167E0,7.659464359E0,-1.128092098E1,2.713736773E0
3.704489375E0,7.956332684E0,-1.094574642E1,2.368986368E0
3.706929584E0,8.135890007E0,-1.037355709E1,2.139153004E0
3.709369011E0,6.969964027E0,-8.929915428E0,1.966777921E0
3.711808386E0,5.959654331E0,-7.960306644E0,1.526263833E0
3.714248594E0,5.875861168E0,-7.718502522E0,1.143208027E0
3.716688802E0,5.643633366E0,-7.354599476E0,1.217425108E0
3.719128229E0,4.894280434E0,-6.808744907E0,1.514293313E0
3.721567604E0,2.198525190E0,-4.369158268E0,1.076173186E0
3.724007813E0,1.834622145E0,-3.761057377E0,5.207422972E-1
3.726448021E0,1.315102696E0,-3.796968460E0,2.262681276E-1
3.728887448E0,8.626180291E-1,-3.899914742E0,5.063776970E-1
3.731326875E0,4.723799527E-1,-4.000466824E0,7.362111807E-1
3.733767084E0,1.276297420E-1,-4.170447826E0,1.085749626E0
3.736207292E0,-4.045680165E-3,-4.491257668E0,1.423317552E0
3.738646719E0,-2.219086885E-1,-4.867131233E0,1.722579956E0
3.741086094E0,-2.458496690E-1,-5.281310081E0,1.823132038E0
3.743526302E0,-2.841552198E-1,-5.860681534E0,2.067330122E0
3.745966511E0,-2.195145786E-1,-6.078544617E0,2.187034845E0
3.748405938E0,1.443884373E-1,-6.279649258E0,2.239705086E0
3.750845365E0,5.944790244E-1,-6.389777660E0,2.280404568E0
3.753285573E0,9.511997700E-1,-6.698616505E0,2.246887445E0
3.755725782E0,1.339043736E0,-7.040972710E0,2.246887445E0
3.758165209E0,1.492265940E0,-7.376145840E0,2.213369846E0
3.760604584E0,1.578453660E0,-7.627526760E0,2.088876963E0
3.763044792E0,1.631123781E0,-7.893271446E0,1.990718961E0
3.765485000E0,1.549724340E0,-8.216474533E0,1.813555717E0
3.767924427E0,1.475507379E0,-8.446308136E0,1.612451315E0
3.770363802E0,1.559300780E0,-8.532495499E0,1.420923471E0
3.772804011E0,1.492265940E0,-8.635441780E0,1.133631587E0
3.775244219E0,1.372561097E0,-8.726417542E0,9.229508638E-1
3.777683646E0,1.312708616E0,-8.850910187E0,6.883291602E-1
3.780123021E0,1.248067975E0,-8.939492226E0,5.255304575E-1
3.782563229E0,1.224127054E0,-8.884428024E0,3.435789645E-1
3.785003438E0,1.025416851E0,-9.028073311E0,6.586351991E-2
3.787442865E0,8.913472295E-1,-9.274666786E0,-2.453693151E-1
3.789882292E0,7.022134066E-1,-9.346489906E0,-5.781490803E-1
3.792322500E0,8.554357290E-1,-9.475770950E0,-8.079825044E-1
3.794762709E0,7.046075463E-1,-9.478164673E0,-9.420520663E-1
3.797202136E0,4.747740626E-1,-9.681662560E0,-1.138368130E0
3.799641511E0,1.563589424E-1,-9.787003517E0,-1.337078333E0
3.802081719E0,4.623039439E-2,-9.923466682E0,-1.389748454E0
3.804521927E0,2.947170287E-2,-9.765456200E0,-1.157520890E0
3.806961354E0,-1.841026917E-2,-9.619416237E0,-9.252933860E-1
3.809400782E0,-7.108044624E-2,-9.224390030E0,-5.996959209E-1
3.811840990E0,-8.783912659E-2,-9.138202667E0,-3.914093673E-1
3.814281146E0,-1.362207532E-2,-9.377612114E0,-2.286106348E-1
3.816720573E0,1.348120421E-1,-9.707997322E0,-1.328466833E-1
3.819160000E0,2.257877886E-1,-9.880373955E0,-9.693520516E-2
3.821600209E0,2.976107597E-1,-1.006711292E1,-6.341781467E-2
3.824040417E0,4.125275016E-1,-1.017005825E1,-9.454109520E-2
3.826479844E0,6.040553451E-1,-1.012457180E1,7.543991506E-2
3.828919219E0,8.769826889E-1,-1.009105396E1,2.142976373E-1
3.831359427E0,9.775348306E-1,-9.863615036E0,4.106137455E-1
3.833799636E0,1.121180773E0,-9.810944557E0,5.925652385E-1
3.836239063E0,1.331861377E0,-9.808550835E0,8.247928023E-1
3.838678490E0,1.532965779E0,-9.739121437E0,1.066596866E0
3.841118698E0,1.667035222E0,-9.631386757E0,1.428105831E0
3.843558907E0,1.846592665E0,-9.667298317E0,1.686668396E0
3.845998334E0,1.918415666E0,-9.803761482E0,1.966777921E0
3.848437709E0,2.038120508E0,-1.005274868E1,2.196611404E0
3.850877917E0,2.148248911E0,-1.036398029E1,2.479115009E0
3.853318125E0,2.251195192E0,-1.059860229E1,2.778377533E0
3.855757552E0,2.260771751E0,-1.076140118E1,3.063275099E0
3.858196927E0,2.181766510E0,-1.080688953E1,3.240438461E0
3.860637136E0,2.176978350E0,-1.067281914E1,3.448724985E0
3.863077344E0,2.126702309E0,-1.021554661E1,3.779110670E0
3.865516771E0,2.062061548E0,-9.753485680E0,3.941909313E0
3.867956198E0,1.985450387E0,-9.375218391E0,3.903603792E0
3.870396407E0,1.841804504E0,-9.061591148E0,3.671376228E0
3.872836615E0,1.707734823E0,-8.810210228E0,3.238044262E0
3.875276042E0,1.580847740E0,-8.587559700E0,2.689795732E0
3.877715417E0,1.461142778E0,-8.259568214E0,2.249281406E0
3.880155625E0,1.367772818E0,-7.957911968E0,1.973960280E0
3.882595834E0,1.319890857E0,-7.706532001E0,1.815949798E0
3.885035261E0,1.312708616E0,-7.467122078E0,1.818343759E0
3.887474636E0,1.334255457E0,-7.220530033E0,1.868619919E0
3.889914844E0,1.348620176E0,-7.007454872E0,1.878196359E0
3.892355052E0,1.406078458E0,-6.847050667E0,1.885378718E0
3.894794479E0,1.432413578E0,-6.746498585E0,1.806373358E0
3.897233907E0,1.449172258E0,-6.717769146E0,1.619633675E0
3.899674115E0,1.547330260E0,-6.641158104E0,1.507111073E0
3.902114323E0,1.662246943E0,-6.598063946E0,1.329947710E0
3.904553750E0,1.762799263E0,-6.631581306E0,1.183907628E0
3.906993125E0,1.846592665E0,-6.638763905E0,1.004350305E0
3.909433334E0,1.913627386E0,-6.679463387E0,8.678866029E-1
3.911873542E0,1.913627386E0,-6.823109627E0,7.266347408E-1
3.914312969E0,1.884898305E0,-7.112795353E0,6.859351397E-1
3.916752344E0,1.927991986E0,-7.361781597E0,6.811468601E-1
3.919192552E0,1.983056188E0,-7.467122078E0,7.745167613E-1
3.921632761E0,1.987844467E0,-7.486275196E0,8.535220027E-1
3.924072188E0,1.846592665E0,-7.601191521E0,7.984577417E-1
3.926511615E0,1.657458901E0,-7.763989925E0,4.728603065E-1
3.928951823E0,1.631123781E0,-7.831025124E0,3.363966644E-1
3.931392032E0,1.664641142E0,-7.416846275E0,6.955115199E-1
3.933831459E0,1.693370342E0,-6.499906063E0,1.724974036E0
3.936270834E0,2.148248911E0,-6.775227547E0,9.636505246E-1
3.938711042E0,2.514546156E0,-7.313899517E0,1.233218908E-1
3.941151250E0,2.773108721E0,-7.969882488E0,-5.135083795E-1
3.943590677E0,3.043642044E0,-8.403214455E0,-1.004298568E0
3.946030052E0,3.184893847E0,-8.446308136E0,-1.193432331E0
3.948470261E0,3.273475409E0,-8.568407059E0,-1.167097330E0
3.950910469E0,3.359663010E0,-8.704870224E0,-1.289196372E0
3.953349896E0,3.292628288E0,-8.460672379E0,-1.143156290E0
3.955789323E0,3.031671524E0,-7.938759327E0,-9.659929872E-1
3.958229532E0,2.667768478E0,-7.232500553E0,-6.427897215E-1
3.960669688E0,2.033332348E0,-5.673942089E0,6.332648993E-1
3.963109115E0,2.217678070E0,-5.166392803E0,1.368253350E0
3.965548542E0,2.368506193E0,-4.871919155E0,1.681880116E0
3.967988750E0,2.799443960E0,-4.768972397E0,1.880590439E0
3.970428959E0,2.911966562E0,-4.812066555E0,2.062541962E0
3.972868386E0,2.959848404E0,-5.099358559E0,2.498267651E0
3.975307761E0,2.969424963E0,-5.197516441E0,2.742465973E0
3.977747969E0,3.110676765E0,-5.159211159E0,2.881323576E0
3.980188177E0,3.235169888E0,-5.434532166E0,3.010604858E0
3.982627604E0,3.194470167E0,-5.594936848E0,2.936388016E0
3.985067032E0,3.184893847E0,-5.673942089E0,2.881323576E0
3.987507240E0,2.919148922E0,-5.891805172E0,2.883717775E0
3.989947396E0,2.509757996E0,-6.229372978E0,2.981875658E0
3.992386823E0,2.059667587E0,-6.222190380E0,2.933993578E0
3.994826250E0,1.580847740E0,-6.447236061E0,2.914840937E0
3.997266459E0,1.003869891E0,-6.502300262E0,3.029757738E0
3.999706667E0,6.279963851E-1,-6.571729183E0,2.701766253E0
4.002146094E0,4.173156917E-1,-6.885355949E0,2.541361332E0
4.004585469E0,3.957688212E-1,-7.251653194E0,2.242099285E0
4.007025677E0,3.430986106E-1,-7.632315159E0,2.196611404E0
4.009465886E0,6.854547262E-1,-7.881300926E0,1.988324881E0
4.011905313E0,7.405190468E-1,-7.670620441E0,1.933260560E0
4.014344740E0,8.698003888E-1,-6.787198067E0,1.744126797E0
4.016784948E0,1.607182741E0,-7.266017437E0,1.361070991E0
4.019225104E0,3.175317526E0,-1.005035496E1,1.157572508E0
4.021664532E0,4.654870510E0,-1.227686596E1,1.590904474E0
4.024103959E0,5.588569164E0,-1.297354889E1,2.067330122E0
4.026544167E0,6.335527897E0,-1.337336349E1,1.863831639E0
4.028984375E0,7.209373951E0,-1.405089378E1,1.349100590E0
4.031423802E0,7.728893280E0,-1.461350632E1,9.037980437E-1
4.033863177E0,8.030550003E0,-1.495346832E1,1.114478827E0
4.036303386E0,8.147860527E0,-1.527427769E1,1.241366029E0
4.038743594E0,7.822262764E0,-1.491516304E1,1.104902387E0
4.041183021E0,7.355413914E0,-1.364868450E1,1.294036150E0
4.043622396E0,6.981934547E0,-1.298312569E1,1.442470312E0
4.046062604E0,6.608455181E0,-1.275089741E1,2.261251926E0
4.048502813E0,5.842343330E0,-1.347630978E1,2.991452217E0
4.050942240E0,5.449711323E0,-1.459674740E1,2.775983095E0
4.053381667E0,5.260577679E0,-1.542271137E1,2.799924135E0
4.055821875E0,5.145660400E0,-1.627501106E1,2.967511177E0
4.058262084E0,4.994832516E0,-1.703633308E1,2.881323576E0
4.060701511E0,4.633323669E0,-1.781680870E1,2.486297131E0
4.063140886E0,4.269420624E0,-1.823577690E1,2.079300642E0
4.065581094E0,3.603861332E0,-1.812804413E1,1.938048840E0
4.068021302E0,2.959848404E0,-1.784314537E1,1.724974036E0
4.070460729E0,2.452299833E0,-1.720152664E1,1.325159550E0
4.072900104E0,2.270348310E0,-1.657666779E1,1.159966707E0
4.075340313E0,2.320624352E0,-1.551847553E1,1.114478827E0
4.077780521E0,2.382870674E0,-1.429030228E1,8.343691826E-1
4.080219948E0,2.473846436E0,-1.319141197E1,5.686242580E-1
4.082659375E0,2.572004557E0,-1.203027344E1,5.470773578E-1
4.085099584E0,2.560034037E0,-1.105108738E1,4.752543867E-1
4.087539792E0,2.385264635E0,-1.044298649E1,4.776484966E-1
4.089979219E0,2.222466230E0,-1.017963600E1,4.680720866E-1
4.092418594E0,2.083608389E0,-9.940225601E0,5.734124780E-1
4.094858802E0,2.052485228E0,-9.923466682E0,6.859351397E-1
4.097299011E0,2.018967867E0,-1.001204872E1,8.942216635E-1
4.099738438E0,2.090790749E0,-1.006232452E1,1.066596866E0
4.102177813E0,2.229648590E0,-1.014132977E1,1.274883389E0
4.104618021E0,2.349353552E0,-1.020357609E1,1.370647430E0
4.107058229E0,2.488210917E0,-1.032088757E1,1.509505153E0
4.109497657E0,2.572004557E0,-1.023230553E1,1.677092075E0
4.111937084E0,2.703680038E0,-1.014372349E1,1.808767438E0
4.114377292E0,2.737197399E0,-1.029215813E1,1.825526118E0
4.116817448E0,2.753956079E0,-1.036637592E1,1.945231080E0
4.119256875E0,2.876055002E0,-1.036158657E1,2.033812761E0
4.121696302E0,3.000548363E0,-1.039989281E1,2.136758804E0
4.124136511E0,3.113070965E0,-1.049565697E1,2.158305883E0
4.126576719E0,3.239958048E0,-1.064648438E1,2.234916925E0
4.129016146E0,3.295022488E0,-1.073985481E1,2.412080288E0
4.131455521E0,3.362057209E0,-1.095053577E1,2.445597649E0
4.133895729E0,3.455426931E0,-1.118515682E1,2.598819971E0
4.136335938E0,3.567949772E0,-1.136471462E1,2.622761011E0
4.138775365E0,3.658925533E0,-1.159694195E1,2.594031572E0
4.141214792E0,3.776236296E0,-1.172861767E1,2.486297131E0
4.143655000E0,3.833694458E0,-1.196563339E1,2.450385571E0
4.146095157E0,3.836088657E0,-1.224334812E1,2.522208691E0
4.148534584E0,3.886364698E0,-1.263598061E1,2.833441734E0
4.150974011E0,3.948611259E0,-1.301424885E1,2.890899897E0
4.153414219E0,4.037192822E0,-1.342603397E1,2.910052776E0
4.155854427E0,4.274209023E0,-1.376838970E1,3.032151699E0
4.158293854E0,4.513618469E0,-1.406286335E1,3.068063259E0
4.160733229E0,4.700358391E0,-1.427593899E1,2.948358536E0
4.163173438E0,4.820063591E0,-1.439564323E1,2.752042294E0
4.165613646E0,4.932586193E0,-1.445070744E1,2.807106495E0
4.168053073E0,5.049897194E0,-1.433579063E1,2.802318335E0
4.170492448E0,5.013985634E0,-1.406286335E1,2.677825212E0
4.172932657E0,5.052290916E0,-1.360798454E1,2.421656609E0
4.175372865E0,5.057078838E0,-1.274610996E1,1.897349000E0
4.177812292E0,4.657264709E0,-1.200872612E1,1.430499792E0
4.180251719E0,4.185627460E0,-1.119233990E1,1.344312310E0
4.182691927E0,3.699625015E0,-1.035679817E1,1.315583229E0
4.185132136E0,3.184893847E0,-9.583504677E0,1.497534633E0
4.187571563E0,3.216017246E0,-8.676141739E0,9.301331639E-1
4.190010938E0,2.864084482E0,-7.610767841E0,7.290288806E-1
4.192451146E0,2.006997347E0,-7.148706913E0,2.246887445E0
4.194891354E0,2.785079241E0,-6.073756695E0,7.386052608E-1
4.197330782E0,3.285445929E0,-4.460134029E0,-1.545364976E0
4.199770157E0,2.248801231E0,-4.764184475E0,-1.741680980E0
4.202210365E0,8.626180291E-1,-5.946869373E0,-2.895636797E0
4.204650573E0,-8.874681592E-1,-6.346683979E0,-1.825474501E0
4.207090000E0,-2.113246679E0,-6.121638775E0,-2.980394959E-1
4.209529427E0,-2.970334053E0,-5.812799931E0,1.057020426E0
4.211969636E0,-3.094827175E0,-5.609301567E0,1.950019360E0
4.214409792E0,-2.723741770E0,-5.348344326E0,2.637125492E0
4.216849219E0,-2.086911440E0,-5.005988598E0,3.520547867E0
4.219288646E0,-1.193912745E0,-4.591809750E0,4.265112877E0
4.221728854E0,-1.045978367E-1,-4.218329906E0,4.846878529E0
4.224169063E0,1.032599092E0,-3.883156300E0,5.256269455E0
4.226608490E0,2.097973108E0,-3.650928497E0,5.646507740E0
4.229047865E0,2.933513403E0,-3.600652456E0,5.838035583E0
4.231488073E0,3.625407934E0,-3.741904259E0,5.861976624E0
4.233928282E0,4.123380661E0,-4.053137302E0,5.603414059E0
4.236367709E0,4.578259468E0,-4.531957150E0,5.186840534E0
4.238807136E0,4.949344635E0,-5.111329079E0,4.502128601E0
4.241247344E0,5.274941921E0,-5.822376251E0,3.736016989E0
4.243687500E0,5.725032330E0,-6.516664982E0,2.941175938E0
4.246126927E0,6.100905895E0,-7.172647953E0,2.254069567E0
4.248566354E0,6.311586857E0,-7.780748844E0,1.768067837E0
4.251006563E0,6.392985821E0,-8.281115532E0,1.473593712E0
4.253446771E0,6.306798458E0,-8.656988144E0,1.607663155E0
4.255886198E0,6.141605854E0,-8.855698586E0,1.961989760E0
4.258325573E0,5.923742771E0,-8.719235420E0,2.287587166E0
4.260765782E0,5.655603886E0,-8.489401817E0,2.438415527E0
4.263205990E0,5.267759800E0,-8.364908218E0,2.622761011E0
4.265645417E0,4.925403595E0,-8.328996658E0,2.682613373E0
4.268084792E0,4.674023628E0,-8.338573456E0,2.704160213E0
4.270525000E0,4.441795349E0,-8.326602936E0,2.764012575E0
4.272965209E0,4.427431107E0,-8.352937698E0,2.850200176E0
4.275404636E0,4.484889507E0,-8.379273415E0,2.943570137E0
4.277844063E0,4.551924229E0,-8.534889221E0,3.001028538E0
4.280284271E0,4.590229988E0,-8.714447021E0,3.051304579E0
4.282724427E0,4.671628952E0,-8.803028107E0,3.106369019E0
4.285163854E0,4.688387871E0,-8.925127983E0,3.154250860E0
4.287603282E0,4.719511032E0,-8.929915428E0,3.190162420E0
4.290043490E0,4.769786835E0,-8.946674347E0,3.120733500E0
4.292483698E0,4.803304672E0,-8.949069023E0,3.017787218E0
4.294923125E0,4.853580475E0,-8.934704781E0,2.938781977E0
4.297362500E0,4.865550995E0,-8.944280624E0,2.854988337E0
4.299802709E0,4.829639435E0,-8.884428024E0,2.732889414E0
4.302242917E0,4.772181511E0,-8.776693344E0,2.591637611E0
4.304682344E0,4.683599472E0,-8.714447021E0,2.457568169E0
4.307121719E0,4.664446831E0,-8.688111305E0,2.361804247E0
4.309561927E0,4.623746872E0,-8.659382820E0,2.299557686E0
4.312002136E0,4.563894272E0,-8.616288185E0,2.299557686E0
4.314441563E0,4.559106350E0,-8.582771301E0,2.278010607E0
4.316880990E0,4.511224270E0,-8.539677620E0,2.239705086E0
4.319321198E0,4.511224270E0,-8.446308136E0,2.254069567E0
4.321761407E0,4.489677429E0,-8.362514496E0,2.309134007E0
4.324200834E0,4.516013145E0,-8.278720856E0,2.412080288E0
4.326640209E0,4.523194790E0,-8.182957649E0,2.517420769E0
4.329080417E0,4.539953709E0,-8.111134529E0,2.548543930E0
4.331520625E0,4.604594707E0,-8.020158768E0,2.603608131E0
4.333960052E0,4.652476311E0,-7.984247684E0,2.680219173E0
4.336399427E0,4.678811550E0,-7.936365604E0,2.699372292E0
4.338839636E0,4.666841030E0,-7.900454044E0,2.752042294E0
4.341279844E0,4.642899990E0,-7.850178242E0,2.843017817E0
4.343719271E0,4.623746872E0,-7.816660404E0,2.893294096E0
4.346158698E0,4.640505791E0,-7.790325642E0,2.929205418E0
4.348598907E0,4.666841030E0,-7.775960445E0,2.981875658E0
4.351039063E0,4.666841030E0,-7.783143044E0,3.027363777E0
4.353478490E0,4.678811550E0,-7.840601444E0,3.123127460E0
4.355917917E0,4.633323669E0,-7.895665646E0,3.194950342E0
4.358358125E0,4.578259468E0,-7.941153526E0,3.283532143E0
4.360798334E0,4.523194790E0,-7.929183006E0,3.305078983E0
4.363237761E0,4.460948467E0,-7.917212486E0,3.338596344E0
4.365677136E0,4.384337425E0,-7.888483524E0,3.343384743E0
4.368117344E0,4.336455345E0,-7.907636166E0,3.355355263E0
4.370557552E0,4.233509064E0,-7.881300926E0,3.345778704E0
4.372996979E0,4.118592262E0,-7.878907204E0,3.288320541E0
4.375436354E0,4.032404900E0,-7.823842525E0,3.233256102E0
4.377876563E0,3.924670219E0,-7.795113564E0,3.163827181E0
4.380316771E0,3.874394178E0,-7.752019405E0,3.103974581E0
4.382756198E0,3.819329977E0,-7.744837761E0,3.039334297E0
4.385195625E0,3.792994976E0,-7.763989925E0,2.962723017E0
4.387635834E0,3.766659737E0,-7.773566723E0,2.922023296E0
4.390076042E0,3.725960255E0,-7.771172523E0,2.809500694E0
4.392515469E0,3.733142614E0,-7.816660404E0,2.754436493E0
4.394954844E0,3.733142614E0,-7.874118805E0,2.754436493E0
4.397395052E0,3.725960255E0,-7.938759327E0,2.713736773E0
4.399835261E0,3.725960255E0,-7.960306644E0,2.696977854E0
4.402274688E0,3.752295256E0,-7.974670887E0,2.718524933E0
4.404714063E0,3.831300497E0,-7.905241966E0,2.639519691E0
4.407154271E0,3.783418417E0,-7.965094566E0,2.515026331E0
4.409594479E0,3.855241537E0,-7.919606686E0,2.732889414E0
4.412033907E0,3.757083416E0,-7.957911968E0,2.807106495E0
4.414473282E0,3.646955013E0,-7.991429329E0,2.567696571E0
4.416913490E0,3.699625015E0,-7.960306644E0,2.507844210E0
4.419353698E0,3.692442656E0,-7.962700367E0,2.548543930E0
4.421793125E0,3.632590294E0,-7.950729847E0,2.625154972E0
4.424232552E0,3.527250051E0,-7.977065086E0,2.742465973E0
4.426672761E0,3.488944530E0,-7.960306644E0,2.764012575E0
4.429112969E0,3.421909809E0,-7.792719364E0,2.665854692E0
4.431552396E0,3.400362730E0,-7.689773083E0,2.673036814E0
4.433991771E0,3.457820892E0,-7.684985161E0,2.740071774E0
4.436431979E0,3.472185850E0,-7.759202003E0,2.854988337E0
4.438872188E0,3.498520851E0,-7.838207722E0,2.811894655E0
4.441311615E0,3.577526093E0,-7.919606686E0,2.627549171E0
4.443750990E0,3.728354216E0,-8.012976646E0,2.385745287E0
4.446191198E0,3.850453138E0,-8.003399849E0,2.131970644E0
4.448631407E0,3.979734659E0,-7.996218204E0,2.009871721E0
4.451070834E0,4.049163342E0,-8.010581970E0,1.930866599E0
4.453510261E0,4.094651699E0,-8.032129288E0,1.938048840E0
4.455950469E0,4.111410141E0,-8.068040848E0,2.096059322E0
4.458390625E0,4.106621742E0,-8.099164009E0,2.158305883E0
4.460830052E0,4.128168583E0,-8.127892494E0,2.232522964E0
4.463269479E0,4.118592262E0,-8.206897736E0,2.177458525E0
4.465709688E0,4.216750622E0,-8.364908218E0,2.115211964E0
4.468149896E0,4.293361664E0,-8.525313377E0,1.973960280E0
4.470589323E0,4.372366905E0,-8.791058540E0,1.792008758E0
4.473028698E0,4.446584225E0,-9.099896431E0,1.574145794E0
4.475468907E0,4.516013145E0,-9.432676315E0,1.339524031E0
4.477909115E0,4.563894272E0,-9.844461441E0,1.095326066E0
4.480348542E0,4.628535271E0,-1.025864029E1,9.061921835E-1
4.482787917E0,4.700358391E0,-1.070633793E1,7.888813019E-1
4.485228125E0,4.793727875E0,-1.118994522E1,7.074819803E-1
4.487668334E0,4.863156796E0,-1.169749355E1,7.242406607E-1
4.490107761E0,4.927797318E0,-1.216194916E1,7.505757213E-1
4.492547188E0,4.951738358E0,-1.253782272E1,8.894335032E-1
4.494987396E0,4.911038876E0,-1.289693737E1,1.018714786E0
4.497427552E0,4.827245712E0,-1.315071201E1,1.164754868E0
4.499866979E0,4.669235229E0,-1.338054562E1,1.394588470E0
4.502306407E0,4.405883789E0,-1.355292034E1,1.650756955E0
4.504746615E0,4.161686420E0,-1.365826035E1,1.988324881E0
4.507186823E0,3.910305738E0,-1.358164978E1,2.280404568E0
4.509626250E0,3.678078175E0,-1.346194458E1,2.440809488E0
4.512065625E0,3.479367971E0,-1.324886990E1,2.512632370E0
4.514505834E0,3.306993008E0,-1.301903629E1,2.483903170E0
4.516946042E0,3.261504889E0,-1.277723217E1,2.297163486E0
4.519385469E0,3.283051968E0,-1.254261017E1,2.110423803E0
4.521824844E0,3.395574570E0,-1.237023544E1,1.926078320E0
4.524265052E0,3.668501854E0,-1.220264816E1,1.619633675E0
4.526705261E0,4.022828579E0,-1.212124920E1,1.301218510E0
4.529144688E0,4.439401627E0,-1.211167336E1,9.325272441E-1
4.531584115E0,4.793727875E0,-1.218349648E1,6.021416187E-1
4.534024323E0,5.004408836E0,-1.235587120E1,3.459730744E-1
4.536464532E0,5.088202477E0,-1.257373428E1,1.616274714E-1
4.538903959E0,5.066655636E0,-1.276765633E1,9.459270537E-2
4.541343334E0,4.896674633E0,-1.296636677E1,1.424746811E-1
4.543783542E0,4.633323669E0,-1.307410049E1,3.316084743E-1
4.546223750E0,4.252662182E0,-1.310761833E1,7.338170409E-1
4.548663177E0,3.809753656E0,-1.306452465E1,1.114478827E0
4.551102552E0,3.297416449E0,-1.287299633E1,1.581328034E0
4.553542761E0,2.809020281E0,-1.257852268E1,1.997901320E0
4.555982969E0,2.334988832E0,-1.224574280E1,2.392927408E0
4.558422396E0,1.868139505E0,-1.185789871E1,2.706554413E0
4.560861771E0,1.458748579E0,-1.147963047E1,2.960328817E0
4.563301979E0,1.046963692E0,-1.109418201E1,3.108762980E0
4.565742188E0,6.974252462E-1,-1.077816010E1,3.211709261E0
4.568181615E0,3.861924112E-1,-1.050523281E1,3.252408981E0
4.570621042E0,1.156592518E-1,-1.030891609E1,3.245226622E0
4.573061250E0,-5.432174727E-2,-1.021315289E1,3.173403740E0
4.575501459E0,-1.285388172E-1,-1.018442345E1,3.058486938E0
4.577940886E0,-1.524797976E-1,-1.022991180E1,2.922023296E0
4.580380261E0,-1.429034173E-1,-1.028497601E1,2.732889414E0
4.582820469E0,-7.826274633E-2,-1.035919285E1,2.558120251E0
4.585260677E0,8.214187622E-2,-1.039510441E1,2.416868448E0
4.587700104E0,2.856402695E-1,-1.039510441E1,2.304345608E0
4.590139479E0,5.298383832E-1,-1.038552761E1,2.237310886E0
4.592579688E0,7.237603068E-1,-1.038313389E1,2.237310886E0
4.595019896E0,8.865590692E-1,-1.040228653E1,2.215764284E0
4.597459323E0,9.918993711E-1,-1.039749813E1,2.225340366E0
4.599898750E0,1.046963692E0,-1.036398029E1,2.301951647E0
4.602338959E0,1.070904732E0,-1.034243488E1,2.414474487E0
4.604779115E0,1.078086972E0,-1.030173492E1,2.498267651E0
4.607218542E0,1.056540012E0,-1.028976345E1,2.536573410E0
4.609657969E0,1.051751852E0,-1.025624657E1,2.582061291E0
4.612098177E0,1.056540012E0,-1.025385284E1,2.596426010E0
4.614538386E0,1.046963692E0,-1.022751713E1,2.629943132E0
4.616977813E0,9.871112108E-1,-1.026821709E1,2.687401772E0
4.619417188E0,9.583820105E-1,-1.033525181E1,2.682613373E0
4.621857396E0,8.865590692E-1,-1.037595177E1,2.658672333E0
4.624297604E0,8.482534885E-1,-1.043101597E1,2.572484970E0
4.626737032E0,8.314948082E-1,-1.045016861E1,2.440809488E0
4.629176407E0,7.788246274E-1,-1.046692753E1,2.301951647E0
4.631616615E0,7.572777271E-1,-1.041665173E1,2.158305883E0
4.634056823E0,8.195242882E-1,-1.031849384E1,1.978748441E0
4.636496250E0,8.458593488E-1,-1.026342869E1,1.825526118E0
4.638935677E0,9.488056302E-1,-1.017245388E1,1.679486156E0
4.641375886E0,1.097239733E0,-1.003359604E1,1.519081593E0
4.643816042E0,1.283979535E0,-9.906708717E0,1.370647430E0
4.646255469E0,1.532965779E0,-9.727150917E0,1.284459829E0
4.648694896E0,1.777163744E0,-9.619416237E0,1.140813947E0
4.651135104E0,1.975873947E0,-9.470982552E0,9.732269049E-1
4.653575313E0,2.002209187E0,-9.339306831E0,7.769108415E-1
4.656014740E0,1.916021466E0,-9.279454231E0,4.824366868E-1
4.658454115E0,1.973479867E0,-9.212419510E0,-4.187092930E-2
4.660894323E0,1.896868706E0,-9.178902626E0,-5.518139601E-1
4.663334532E0,2.222466230E0,-8.882033348E0,5.389302224E-2
4.665773959E0,2.334988832E0,-8.685717583E0,6.667823195E-1
4.668213334E0,2.260771751E0,-8.606712341E0,7.505757213E-1
4.670653542E0,2.263165712E0,-8.597136497E0,6.715704799E-1
4.673093750E0,2.184160471E0,-8.501372337E0,7.505757213E-1
4.675533177E0,2.117125750E0,-8.448701859E0,8.032459021E-1
4.677972604E0,2.114731789E0,-8.352937698E0,7.888813019E-1
4.680412813E0,2.074032068E0,-8.314632416E0,6.763586998E-1
4.682852969E0,2.081214428E0,-8.293085098E0,4.968012571E-1
4.685292396E0,2.059667587E0,-8.261962891E0,3.196379840E-1
4.687731823E0,2.069243908E0,-8.266750336E0,1.496569812E-1
4.690172032E0,1.966297626E0,-8.317026138E0,-8.353538811E-3
4.692612240E0,1.887292385E0,-8.381667137E0,-6.341781467E-2
4.695051667E0,1.803498864E0,-8.439126015E0,-1.089056954E-1
4.697491042E0,1.695764422E0,-8.465460777E0,-8.496470004E-2
4.699931250E0,1.573665380E0,-8.501372337E0,2.037563920E-2
4.702371459E0,1.382137537E0,-8.594742775E0,9.219860286E-2
4.704810886E0,1.240885615E0,-8.633047104E0,1.424746811E-1
4.707250261E0,1.068510532E0,-8.714447021E0,1.281100810E-1
4.709690469E0,9.799289107E-1,-8.795846939E0,5.149892345E-2
4.712130677E0,1.003869891E0,-8.829363823E0,-2.429752350E-1
4.714570104E0,8.003714681E-1,-8.889216423E0,-1.687581539E-1
4.717009532E0,5.154737830E-1,-8.867669106E0,1.113513932E-1
4.719449740E0,3.287340701E-1,-8.764723778E0,3.220320642E-1
4.721889896E0,2.521228790E-1,-8.779088020E0,5.949593782E-1
4.724329323E0,3.981629014E-1,-8.692900658E0,6.548117995E-1
4.726768750E0,7.309426069E-1,-8.573195457E0,1.520510763E-1
4.729208959E0,6.232081652E-1,-8.530101776E0,-3.411332965E-1
4.731649167E0,9.411236644E-2,-8.688111305E0,2.047212422E-1
4.734088594E0,-4.517421722E-1,-8.826969147E0,1.641180515E0
4.736527969E0,-6.097527146E-1,-8.850910187E0,2.579667091E0
4.738968177E0,-6.097527146E-1,-8.850910187E0,2.919629097E0
4.741408386E0,-5.834175944E-1,-8.894004822E0,2.874141216E0
4.743847813E0,-5.139886737E-1,-8.963433266E0,2.562908411E0
4.746287188E0,-4.445598423E-1,-8.984980583E0,2.318710327E0
4.748727396E0,-3.703427911E-1,-9.004132271E0,2.064935923E0
4.751167604E0,-3.751310110E-1,-9.032862663E0,2.050571442E0
4.753607032E0,-4.182247519E-1,-9.087926865E0,2.127182484E0
4.756046407E0,-4.086483717E-1,-9.061591148E0,2.103241444E0
4.758486615E0,-4.230129719E-1,-9.016103745E0,2.218158245E0
4.760926823E0,-4.086483717E-1,-9.035256386E0,2.201399326E0
4.763366250E0,-4.685008526E-1,-8.980191231E0,2.261251926E0
4.765805677E0,-4.924418330E-1,-8.996950150E0,2.321104527E0
4.768245886E0,-4.948359132E-1,-9.006526947E0,2.385745287E0
4.770686094E0,-4.445598423E-1,-8.989768982E0,2.493479729E0
4.773125521E0,-3.200667202E-1,-8.932309151E0,2.565302372E0
4.775564896E0,-1.285388172E-1,-8.750358582E0,2.673036814E0
4.778005104E0,-1.122797653E-2,-8.664170265E0,2.744859934E0
4.780445313E0,3.186580166E-2,-8.611500740E0,2.718524933E0
4.782884740E0,6.298908591E-2,-8.566013336E0,2.663460732E0
4.785324115E0,1.276297420E-1,-8.544466019E0,2.570090771E0
4.787764323E0,1.228415519E-1,-8.566013336E0,2.476721048E0
4.790204532E0,1.204474568E-1,-8.585165977E0,2.397715569E0
4.792643959E0,1.419943422E-1,-8.613894463E0,2.316316128E0
4.795083334E0,1.898763031E-1,-8.707264900E0,2.237310886E0
4.797523542E0,2.593051791E-1,-8.841334343E0,2.182246685E0
4.799963750E0,3.670396209E-1,-8.994556427E0,2.163094044E0
4.802403177E0,4.939268827E-1,-9.147778511E0,2.124788523E0
4.804842604E0,5.992671847E-1,-9.380006790E0,2.088876963E0
4.807282813E0,7.333367467E-1,-9.585898399E0,2.050571442E0
4.809722969E0,8.195242882E-1,-9.808550835E0,2.029024601E0
4.812162396E0,9.128941298E-1,-1.005035496E1,1.983536720E0
4.814601823E0,1.030205011E0,-1.021315289E1,1.950019360E0
4.817042032E0,1.166668653E0,-1.034003925E1,1.952413440E0
4.819482240E0,1.279191256E0,-1.040228653E1,1.940442920E0
4.821921667E0,1.386925697E0,-1.048847485E1,1.904531479E0
4.824361042E0,1.485083699E0,-1.054832649E1,1.818343759E0
4.826801250E0,1.568877220E0,-1.060578442E1,1.765673637E0
4.829241459E0,1.631123781E0,-1.060578442E1,1.650756955E0
4.831680886E0,1.674217463E0,-1.058423901E1,1.600480914E0
4.834120261E0,1.750828743E0,-1.051241589E1,1.535840154E0
4.836560469E0,1.789134264E0,-1.040468025E1,1.468805432E0
4.839000677E0,1.762799263E0,-1.034003925E1,1.408952951E0
4.841440104E0,1.758010983E0,-1.023948765E1,1.356282830E0
4.843879532E0,1.760405064E0,-1.012696552E1,1.277277589E0
4.846319740E0,1.738858223E0,-1.003598976E1,1.267701149E0
4.848759896E0,1.671823502E0,-9.928256035E0,1.217425108E0
4.851199323E0,1.602394581E0,-9.837279320E0,1.222213268E0
4.853638750E0,1.537753820E0,-9.731938362E0,1.167149067E0
4.856078959E0,1.501842380E0,-9.638569832E0,1.104902387E0
4.858519167E0,1.456354499E0,-9.549987793E0,1.004350305E0
4.860958594E0,1.377349257E0,-9.521258354E0,9.851974249E-1
4.863397969E0,1.305526376E0,-9.442252159E0,9.540741444E-1
4.865838177E0,1.226521134E0,-9.377612114E0,9.133744836E-1
4.868278386E0,1.121180773E0,-9.344094276E0,9.397095442E-1
4.870717813E0,1.030205011E0,-9.289031029E0,9.349213839E-1
4.873157188E0,9.009236097E-1,-9.262695312E0,9.492859244E-1
4.875597396E0,7.907951474E-1,-9.257907867E0,9.468918443E-1
4.878037604E0,7.165780663E-1,-9.214813232E0,9.875915647E-1
4.880477032E0,6.806665659E-1,-9.200448990E0,1.040261745E0
4.882916407E0,6.663019657E-1,-9.212419510E0,1.013926625E0
4.885356615E0,6.279963851E-1,-9.229178429E0,1.013926625E0
4.887796823E0,5.465970039E-1,-9.241148949E0,1.011532545E0
4.890236250E0,4.891386628E-1,-9.248330116E0,1.030685306E0
4.892675677E0,4.771681428E-1,-9.286636353E0,1.033079505E0
4.895115886E0,4.412566721E-1,-9.339306831E0,1.018714786E0
4.897556042E0,4.771681428E-1,-9.377612114E0,1.037867665E0
4.899995469E0,4.963209629E-1,-9.396765709E0,1.018714786E0
4.902434896E0,5.274442434E-1,-9.468588829E0,1.030685306E0
4.904875104E0,5.537793636E-1,-9.533228874E0,1.023503065E0
4.907315313E0,5.729321241E-1,-9.578716278E0,1.030685306E0
4.909754740E0,5.298383832E-1,-9.621810913E0,1.042655826E0
4.912194115E0,5.513852239E-1,-9.660115242E0,1.061808586E0
4.914634323E0,5.705379844E-1,-9.698421478E0,1.057020426E0
4.917074532E0,6.184200048E-1,-9.753485680E0,1.066596866E0
4.919513959E0,6.495432258E-1,-9.796579361E0,9.923797250E-1
4.921953334E0,7.261544466E-1,-9.810944557E0,9.612564445E-1
4.924393542E0,7.955833077E-1,-9.818126678E0,9.373154044E-1
4.926833750E0,8.075538278E-1,-9.856432915E0,8.870393634E-1
4.929273177E0,8.338888884E-1,-9.892343521E0,8.559161425E-1
4.931712604E0,8.698003888E-1,-9.904314995E0,8.774629831E-1
4.934152813E0,9.128941298E-1,-9.913890839E0,9.181627035E-1
4.936592969E0,9.488056302E-1,-9.882767677E0,9.492859244E-1
4.939032396E0,9.440174103E-1,-9.916284561E0,9.612564445E-1
4.941471823E0,9.775348306E-1,-9.928256035E0,1.033079505E0
4.943912032E0,9.823229909E-1,-9.897131920E0,1.097720027E0
4.946352188E0,9.895052910E-1,-9.892343521E0,1.061808586E0
4.948791615E0,9.918993711E-1,-9.815732956E0,1.100114226E0
4.951231042E0,9.918993711E-1,-9.775032997E0,1.133631587E0
4.953671250E0,9.559879303E-1,-9.753485680E0,1.150390267E0
4.956111459E0,9.775348306E-1,-9.696027756E0,1.195878148E0
4.958550886E0,9.320469499E-1,-9.628993034E0,1.157572508E0
4.960990261E0,9.320469499E-1,-9.600263596E0,1.167149067E0
4.963430469E0,9.152882695E-1,-9.571534157E0,1.181513548E0
4.965870677E0,9.488056302E-1,-9.542805672E0,1.200666428E0
4.968310104E0,9.176822901E-1,-9.478164673E0,1.222213268E0
4.970749479E0,9.344409704E-1,-9.475770950E0,1.222213268E0
4.973189688E0,9.559879303E-1,-9.411129951E0,1.238971949E0
4.975629896E0,9.942935109E-1,-9.389582634E0,1.241366029E0
4.978069323E0,1.015840411E0,-9.459012032E0,1.212636948E0
4.980508750E0,1.013446331E0,-9.482952118E0,1.224607348E0
4.982948959E0,1.020628572E0,-9.475770950E0,1.227001429E0
4.985389115E0,1.056540012E0,-9.454223633E0,1.210242748E0
4.987828542E0,1.003869891E0,-9.487740517E0,1.238971949E0
4.990267969E0,1.044569612E0,-9.533228874E0,1.212636948E0
4.992708177E0,1.032599092E0,-9.573928833E0,1.195878148E0
4.995148386E0,1.025416851E0,-9.628993034E0,1.200666428E0
4.997587813E0,1.073298693E0,-9.645751953E0,1.222213268E0
5.000027188E0,1.082875133E0,-9.667298317E0,1.246154308E0
5.002467396E0,1.104421973E0,-9.667298317E0,1.272489309E0
5.004907604E0,1.102028012E0,-9.700815201E0,1.255730629E0
5.007347032E0,1.082875133E0,-9.779820442E0,1.198272347E0
5.009786407E0,1.123574853E0,-9.846855164E0,1.193484068E0
5.012226615E0,1.123574853E0,-9.956984520E0,1.085749626E0
5.014666823E0,1.195397735E0,-9.988107681E0,1.073779106E0
5.017106250E0,1.300738096E0,-9.990501404E0,1.052232265E0
5.019545625E0,1.312708616E0,-9.992895126E0,1.042655826E0
5.021985834E0,1.358196497E0,-9.964166641E0,1.080961347E0
5.024426042E0,1.307920337E0,-9.983319283E0,1.052232265E0
5.026865469E0,1.353408217E0,-9.937831879E0,1.001956105E0
5.029304896E0,1.358196497E0,-9.947407722E0,9.947738051E-1
5.031745104E0,1.360590577E0,-9.916284561E0,9.804092646E-1
5.034185261E0,1.310314536E0,-9.966560364E0,9.444977641E-1
5.036624688E0,1.286373496E0,-9.988107681E0,9.516800642E-1
5.039064115E0,1.324679136E0,-9.980925560E0,9.612564445E-1
5.041504323E0,1.319890857E0,-9.990501404E0,9.181627035E-1
5.043944479E0,1.303132296E0,-9.947407722E0,9.971679449E-1
5.046383907E0,1.233703375E0,-9.887555122E0,1.025897145E0
5.048823334E0,1.128363013E0,-9.933043480E0,1.057020426E0
5.051263542E0,1.063722372E0,-9.842067719E0,1.183907628E0
5.053703750E0,1.025416851E0,-9.743909836E0,1.262912869E0
5.056143177E0,1.006263971E0,-9.674480438E0,1.408952951E0
5.058582552E0,8.913472295E-1,-9.614628792E0,1.521475554E0
5.061022761E0,8.434652686E-1,-9.538016319E0,1.631604195E0
5.063462969E0,8.075538278E-1,-9.456617355E0,1.713003516E0
5.065902396E0,7.213662267E-1,-9.425494194E0,1.722579956E0
5.068341771E0,7.046075463E-1,-9.310577393E0,1.808767438E0
5.070781979E0,5.920849442E-1,-9.334518433E0,1.794402957E0
5.073222188E0,4.723799527E-1,-9.401553154E0,1.760885477E0
5.075661615E0,4.340744019E-1,-9.399159431E0,1.818343759E0
5.078100990E0,4.221039116E-1,-9.279454231E0,1.885378718E0
5.080541198E0,4.556212723E-1,-9.171719551E0,1.909319520E0
5.082981407E0,4.412566721E-1,-9.131020546E0,1.930866599E0
