"Time (s)","Gyroscope x (rad/s)","Gyroscope y (rad/s)","Gyroscope z (rad/s)"
8.795166000E-2,7.495117188E-2,5.509033203E-1,2.729034424E-1
9.194946300E-2,6.216430664E-2,4.678192139E-1,2.782287598E-1
9.597778300E-2,4.725646973E-2,3.602142334E-1,2.771606445E-1
1.000061030E-1,3.340148926E-2,2.547607422E-1,2.686462402E-1
1.040344240E-1,3.767395020E-2,1.684722900E-1,2.441406250E-1
1.080322260E-1,4.939270020E-2,5.448913574E-2,2.057952881E-1
1.120605470E-1,5.897521973E-2,-1.155090332E-2,1.802215576E-1
1.160888670E-1,7.495117188E-2,-8.361816406E-3,1.621246338E-1
1.201171870E-1,9.732055664E-2,4.597473145E-2,1.493377686E-1
1.241149900E-1,1.271514893E-1,1.492919922E-1,1.376190186E-1
1.281433100E-1,1.665649414E-1,2.632751465E-1,1.195068359E-1
1.321716310E-1,2.049102783E-1,3.314666748E-1,9.288024902E-2
1.361694330E-1,2.219543457E-1,3.357238770E-1,7.369995117E-2
1.401977540E-1,2.145080566E-1,3.133544922E-1,5.879211426E-2
1.442260740E-1,1.985321045E-1,2.845916748E-1,4.493713379E-2
1.482238770E-1,1.782836914E-1,2.526245117E-1,3.535461426E-2
1.522521970E-1,1.612396240E-1,2.228088379E-1,2.789306641E-2
1.562805170E-1,1.505889893E-1,2.046966553E-1,2.363586426E-2
1.602783200E-1,1.441955566E-1,2.206726074E-1,2.789306641E-2
1.643066410E-1,1.399383545E-1,2.472991943E-1,3.428649902E-2
1.683349610E-1,1.346130371E-1,2.622222900E-1,4.067993164E-2
1.723327640E-1,1.292877197E-1,2.622222900E-1,5.133056641E-2
1.763610840E-1,1.186370850E-1,2.536926270E-1,5.986022949E-2
1.803894040E-1,1.058502197E-1,2.398529053E-1,7.157897949E-2
1.844177250E-1,9.199523926E-2,2.270660400E-1,8.328247070E-2
1.884155270E-1,7.920837402E-2,2.164154053E-1,9.713745117E-2
1.924438480E-1,7.069396973E-2,2.068176270E-1,1.056671143E-1
1.964721680E-1,6.536865234E-2,2.036285400E-1,1.163177490E-1
2.004699710E-1,6.323242188E-2,2.046966553E-1,1.227111816E-1
2.044982910E-1,6.111145020E-2,2.057647705E-1,1.290893555E-1
2.085266110E-1,6.216430664E-2,2.100219727E-1,1.354827881E-1
2.125244140E-1,6.748962402E-2,2.164154053E-1,1.365509033E-1
2.165527340E-1,7.815551758E-2,2.270660400E-1,1.333618164E-1
2.205810550E-1,9.413146973E-2,2.387847900E-1,1.259002686E-1
2.245788570E-1,1.122436523E-1,2.515716553E-1,1.205749512E-1
2.286071780E-1,1.346130371E-1,2.643432617E-1,1.120452881E-1
2.326354980E-1,1.580505371E-1,2.728729248E-1,1.024627686E-1
2.366333010E-1,1.804199219E-1,2.824554443E-1,9.074401855E-2
2.406616210E-1,2.027893066E-1,2.899169922E-1,8.116149902E-2
2.446899410E-1,2.240905762E-1,3.016357422E-1,7.051086426E-2
2.486877440E-1,2.464599609E-1,3.122863770E-1,5.986022949E-2
2.527160640E-1,2.667083740E-1,3.218688965E-1,5.346679688E-2
2.567443850E-1,2.880096436E-1,3.293304443E-1,4.707336426E-2
2.607421870E-1,3.082427979E-1,3.421173096E-1,4.281616211E-2
2.647705080E-1,3.284912109E-1,3.538360596E-1,3.749084473E-2
2.687988280E-1,3.455352783E-1,3.634185791E-1,3.428649902E-2
2.727966310E-1,3.625793457E-1,3.687438965E-1,3.215026855E-2
2.768249510E-1,3.753509521E-1,3.730010986E-1,3.109741211E-2
2.808532710E-1,3.849487305E-1,3.762054443E-1,2.896118164E-2
2.848510740E-1,3.977355957E-1,3.762054443E-1,2.577209473E-2
2.888793940E-1,4.105072021E-1,3.772583008E-1,2.256774902E-2
2.929077150E-1,4.201049805E-1,3.751373291E-1,2.256774902E-2
2.969055170E-1,4.307556152E-1,3.708801270E-1,2.682495117E-2
3.009338380E-1,4.414062500E-1,3.687438965E-1,2.896118164E-2
3.049621580E-1,4.488677979E-1,3.538360596E-1,2.149963379E-2
3.089599610E-1,4.616394043E-1,2.941741943E-1,4.455566406E-3
3.129882810E-1,4.701690674E-1,2.611541748E-1,-9.384155273E-3
3.170166010E-1,4.776306152E-1,2.984313965E-1,-7.263183594E-3
3.210144040E-1,4.872131348E-1,3.815307617E-1,-2.990722656E-3
3.250427250E-1,5.000000000E-1,4.369201660E-1,-8.316040039E-3
3.290710450E-1,5.106506348E-1,4.571533203E-1,-2.110290527E-2
3.330688480E-1,5.202331543E-1,4.635467529E-1,-3.707885742E-2
3.370971680E-1,5.266265869E-1,4.699401855E-1,-5.200195312E-2
3.410949710E-1,5.319519043E-1,4.710083008E-1,-6.904602051E-2
3.451232910E-1,5.340881348E-1,4.699401855E-1,-8.183288574E-2
3.491516110E-1,5.308837891E-1,4.688720703E-1,-9.567260742E-2
3.531494140E-1,5.287628174E-1,4.741973877E-1,-1.105957031E-1
3.571777340E-1,5.213012695E-1,4.795379639E-1,-1.255035400E-1
3.612060550E-1,5.106506348E-1,4.859161377E-1,-1.382904053E-1
3.652038570E-1,5.000000000E-1,4.891204834E-1,-1.510620117E-1
3.692321780E-1,4.850769043E-1,4.923095703E-1,-1.595916748E-1
3.732604980E-1,4.701690674E-1,4.944458008E-1,-1.681060791E-1
3.772583010E-1,4.520568848E-1,4.955139160E-1,-1.766357422E-1
3.812866210E-1,4.350128174E-1,4.955139160E-1,-1.819610596E-1
3.853149410E-1,4.211578369E-1,4.944458008E-1,-1.872863770E-1
3.893127440E-1,4.062500000E-1,4.912414551E-1,-1.915435791E-1
3.933410640E-1,3.924102783E-1,4.859161377E-1,-1.936798096E-1
3.973693850E-1,3.764190674E-1,4.827270508E-1,-1.936798096E-1
4.013671870E-1,3.647003174E-1,4.837951660E-1,-1.883544922E-1
4.053955080E-1,3.519287109E-1,4.848632812E-1,-1.787719727E-1
4.094238280E-1,3.380737305E-1,4.880523682E-1,-1.691741943E-1
4.134216310E-1,3.263549805E-1,4.912414551E-1,-1.595916748E-1
4.174499510E-1,3.135681152E-1,4.933776855E-1,-1.542663574E-1
4.214782710E-1,2.997283936E-1,4.912414551E-1,-1.489410400E-1
4.254760740E-1,2.880096436E-1,4.901885986E-1,-1.414794922E-1
4.295043940E-1,2.752227783E-1,4.933776855E-1,-1.340179443E-1
4.335327150E-1,2.624359131E-1,5.114898682E-1,-1.340179443E-1
4.375305170E-1,2.485961914E-1,5.402526855E-1,-1.382904053E-1
4.415588380E-1,2.283477783E-1,5.764770508E-1,-1.457366943E-1
4.455566410E-1,1.985321045E-1,6.031036377E-1,-1.574554443E-1
4.495581420E-1,1.548461914E-1,6.307983398E-1,-1.755676270E-1
4.535864620E-1,1.026458740E-1,6.627502441E-1,-2.032623291E-1
4.575842650E-1,4.725646973E-2,6.925811768E-1,-2.309570312E-1
4.616125850E-1,-1.345825195E-2,7.085571289E-1,-2.554626465E-1
4.656409060E-1,-7.524108887E-2,7.085571289E-1,-2.820892334E-1
4.696387080E-1,-1.380920410E-1,6.979064941E-1,-3.151245117E-1
4.736670290E-1,-2.030792236E-1,6.712799072E-1,-3.524017334E-1
4.776953490E-1,-2.680664062E-1,6.180114746E-1,-3.843536377E-1
4.816931520E-1,-3.415679932E-1,5.509033203E-1,-4.163208008E-1
4.857214720E-1,-4.161376953E-1,4.784698486E-1,-4.461517334E-1
4.897497920E-1,-4.938964844E-1,4.060211182E-1,-4.738464355E-1
4.937475950E-1,-5.716552734E-1,3.325195312E-1,-5.004730225E-1
4.977759150E-1,-6.504974365E-1,2.568969727E-1,-5.228424072E-1
5.018042360E-1,-7.325134277E-1,1.908416748E-1,-5.420227051E-1
5.058020380E-1,-8.156127930E-1,1.418457031E-1,-5.526733398E-1
5.098303590E-1,-8.933715820E-1,1.141510010E-1,-5.590667725E-1
5.138586790E-1,-9.647369385E-1,1.066894531E-1,-5.611877441E-1
5.178564820E-1,-1.033981323E0,1.130828857E-1,-5.601348877E-1
5.218848020E-1,-1.097900391E0,1.205291748E-1,-5.633239746E-1
5.259131220E-1,-1.156494141E0,1.258697510E-1,-5.761108398E-1
5.299109250E-1,-1.208694458E0,1.386413574E-1,-6.091308594E-1
5.339392450E-1,-1.251296997E0,1.642150879E-1,-6.517486572E-1
5.379370480E-1,-1.281127930E0,2.110900879E-1,-6.932830811E-1
5.419653680E-1,-1.300308228E0,2.803192139E-1,-7.241821289E-1
5.459936890E-1,-1.306701660E0,3.698120117E-1,-7.401580811E-1
5.499914910E-1,-1.307754517E0,4.592895508E-1,-7.390899658E-1
5.540198120E-1,-1.310958862E0,5.477142334E-1,-7.305755615E-1
5.580481320E-1,-1.322677612E0,6.254730225E-1,-7.231140137E-1
5.620459350E-1,-1.337585449E0,7.021636963E-1,-7.209777832E-1
5.660742550E-1,-1.354629517E0,7.682189941E-1,-7.231140137E-1
5.701025750E-1,-1.381256104E0,8.023071289E-1,-7.284393311E-1
5.741003780E-1,-1.417480469E0,8.023071289E-1,-7.359008789E-1
5.781286980E-1,-1.462219238E0,7.692871094E-1,-7.433624268E-1
5.821570190E-1,-1.514419556E0,7.021636963E-1,-7.476196289E-1
5.861548220E-1,-1.573013306E0,6.329345703E-1,-7.508087158E-1
5.901831420E-1,-1.631607056E0,5.732727051E-1,-7.561340332E-1
5.942114620E-1,-1.691253662E0,5.093536377E-1,-7.550659180E-1
5.982092650E-1,-1.739196777E0,4.411773682E-1,-7.444152832E-1
6.022375850E-1,-1.770080566E0,3.825988770E-1,-7.422943115E-1
6.062659060E-1,-1.774337769E0,3.176116943E-1,-7.326965332E-1
6.102637080E-1,-1.745590210E0,2.217407227E-1,-6.932830811E-1
6.142920290E-1,-1.706161499E0,8.538818359E-2,-6.027374268E-1
6.182898310E-1,-1.671020508E0,-6.907653809E-2,-4.525451660E-1
6.223181520E-1,-1.661422729E0,-1.926574707E-1,-2.469482422E-1
6.263464720E-1,-1.686996460E0,-2.650909424E-1,-5.126953125E-3
6.303442750E-1,-1.753036499E0,-2.736053467E-1,2.388153076E-1
6.343725950E-1,-1.833999634E0,-2.288665771E-1,4.113922119E-1
6.384009150E-1,-1.891525269E0,-1.500396729E-1,4.870300293E-1
6.423987180E-1,-1.905380249E0,-4.138183594E-2,4.795684814E-1
6.464270380E-1,-1.874481201E0,1.024322510E-1,4.113922119E-1
6.504553590E-1,-1.778610229E0,2.867126465E-1,3.059234619E-1
6.544531610E-1,-1.607101440E0,5.146789551E-1,2.047271729E-1
6.584814820E-1,-1.397247314E0,7.788696289E-1,1.397552490E-1
6.625098020E-1,-1.175659180E0,1.055831909E0,1.067199707E-1
6.665076050E-1,-9.743347168E-1,1.299789429E0,8.116149902E-2
6.705359250E-1,-8.017578125E-1,1.483016968E0,7.369995117E-2
6.745642450E-1,-6.579437256E-1,1.593795776E0,7.902526855E-2
6.785620480E-1,-5.343780518E-1,1.637466431E0,9.394836426E-2
6.825903680E-1,-4.257202148E-1,1.649185181E0,1.120452881E-1
6.866186890E-1,-3.309173584E-1,1.641738892E0,1.386871338E-1
6.906164910E-1,-2.435607910E-1,1.639602661E0,1.621246338E-1
6.946448120E-1,-1.764526367E-1,1.664108276E0,1.567993164E-1
6.986731320E-1,-1.423645020E-1,1.699264526E0,8.967590332E-2
7.026709350E-1,-1.380920410E-1,1.716308594E0,6.591796875E-3
7.066992550E-1,-1.594085693E-1,1.706710815E0,-4.028320312E-2
7.107275750E-1,-2.009429932E-1,1.680084229E0,-7.862854004E-2
7.147253780E-1,-2.531433105E-1,1.614044189E0,-1.489410400E-1
7.187536980E-1,-3.074798584E-1,1.520294189E0,-2.543945312E-1
7.227515010E-1,-3.575439453E-1,1.390335083E0,-3.822326660E-1
7.267798220E-1,-4.246520996E-1,1.207107544E0,-4.994049072E-1
7.308081420E-1,-5.269165039E-1,8.896636963E-1,-5.761108398E-1
7.348059450E-1,-6.462249756E-1,4.901885986E-1,-6.251068115E-1
7.388342650E-1,-7.623443604E-1,1.322479248E-1,-6.613311768E-1
7.428625850E-1,-8.539581299E-1,-1.138153076E-1,-6.900939941E-1
7.468603880E-1,-9.093475342E-1,-2.288665771E-1,-7.060699463E-1
7.508887080E-1,-9.232025146E-1,-2.448425293E-1,-6.996765137E-1
7.549170290E-1,-9.029541016E-1,-2.373962402E-1,-6.762390137E-1
7.589148310E-1,-8.848419189E-1,-1.809387207E-1,-6.357574463E-1
7.629431520E-1,-8.741912842E-1,-1.234130859E-1,-5.867614746E-1
7.669714720E-1,-8.731384277E-1,-8.399963379E-2,-5.313720703E-1
7.709692750E-1,-8.901824951E-1,-3.819274902E-2,-4.695892334E-1
7.749975950E-1,-9.199981689E-1,1.614379883E-2,-4.088592529E-1
7.790259150E-1,-9.455718994E-1,7.046508789E-2,-3.502655029E-1
7.830237180E-1,-9.679412842E-1,1.482391357E-1,-2.895507812E-1
7.870520380E-1,-9.764556885E-1,2.334594727E-1,-2.341613770E-1
7.910803590E-1,-9.572906494E-1,3.069610596E-1,-1.872863770E-1
7.950781610E-1,-9.029541016E-1,3.527679443E-1,-1.457366943E-1
7.991064820E-1,-8.262634277E-1,3.857879639E-1,-1.095275879E-1
8.031348020E-1,-7.389068604E-1,4.241333008E-1,-8.076477051E-2
8.071326050E-1,-6.547546387E-1,4.731445312E-1,-5.307006836E-2
8.111609250E-1,-5.950927734E-1,5.594329834E-1,-1.045227051E-2
8.151587280E-1,-5.386352539E-1,5.881805420E-1,2.256774902E-2
8.191870480E-1,-4.800415039E-1,5.647583008E-1,5.133056641E-2
8.232153680E-1,-4.310455322E-1,5.391845703E-1,8.435058594E-2
8.272131710E-1,-3.905639648E-1,5.200042725E-1,1.109924316E-1
8.312414910E-1,-3.522186279E-1,5.050964355E-1,1.354827881E-1
8.352698120E-1,-3.128051758E-1,4.901885986E-1,1.557312012E-1
8.392676140E-1,-2.744598389E-1,4.731445312E-1,1.748962402E-1
8.432959350E-1,-2.350311279E-1,4.539642334E-1,1.898193359E-1
8.473242550E-1,-1.966857910E-1,4.369201660E-1,1.994018555E-1
8.513220580E-1,-1.658020020E-1,4.156188965E-1,2.015380859E-1
8.553503780E-1,-1.498107910E-1,4.081573486E-1,2.015380859E-1
8.593786980E-1,-1.370391846E-1,3.964385986E-1,1.930084229E-1
8.633765010E-1,-1.008148193E-1,3.421173096E-1,1.695709229E-1
8.674048220E-1,-6.033325195E-2,2.994995117E-1,1.514739990E-1
8.714331420E-1,-2.731323242E-2,2.824554443E-1,1.248321533E-1
8.754309450E-1,-1.026916504E-2,2.749938965E-1,8.755493164E-2
8.794592650E-1,-6.011962891E-3,2.675476074E-1,4.281616211E-2
8.834875850E-1,-9.201049805E-3,2.505035400E-1,-1.045227051E-2
8.874853880E-1,-2.305603027E-2,2.291870117E-1,-6.584167480E-2
8.915137080E-1,-4.435729980E-2,2.057647705E-1,-1.233673096E-1
8.955420290E-1,-7.737731934E-2,1.855163574E-1,-1.840972900E-1
8.995398310E-1,-1.199951172E-1,1.844482422E-1,-2.437438965E-1
9.035681520E-1,-1.689910889E-1,1.929779053E-1,-2.980804443E-1
9.075659540E-1,-2.137298584E-1,1.897735596E-1,-3.449401855E-1
9.115942750E-1,-2.499542236E-1,1.876525879E-1,-3.822326660E-1
9.156225950E-1,-2.787170410E-1,1.940460205E-1,-4.099273682E-1
9.196203980E-1,-3.000183105E-1,2.100219727E-1,-4.259033203E-1
9.236487180E-1,-3.138732910E-1,2.270660400E-1,-4.269714355E-1
9.276770380E-1,-3.170623779E-1,2.398529053E-1,-4.163208008E-1
9.316748410E-1,-3.117370605E-1,2.494354248E-1,-3.939514160E-1
9.357031610E-1,-2.957611084E-1,2.547607422E-1,-3.662567139E-1
9.397314820E-1,-2.701873779E-1,2.547607422E-1,-3.332214355E-1
9.437292840E-1,-2.339782715E-1,2.547607422E-1,-2.927551270E-1
9.477576050E-1,-1.892242432E-1,2.558288574E-1,-2.448120117E-1
9.517859250E-1,-1.349029541E-1,2.600860596E-1,-1.904754639E-1
9.557837280E-1,-6.991577148E-2,2.622222900E-1,-1.393432617E-1
9.598120480E-1,2.517700195E-3,2.664794922E-1,-8.502197266E-2
9.638403680E-1,8.348083496E-2,2.803192139E-1,-2.749633789E-2
9.678381710E-1,1.740264893E-1,3.133544922E-1,3.535461426E-2
9.718664910E-1,2.677612305E-1,3.623504639E-1,9.927368164E-2
9.758948120E-1,3.615112305E-1,4.241333008E-1,1.621246338E-1
9.798926140E-1,4.499206543E-1,4.944458008E-1,2.239074707E-1
9.839209350E-1,5.298156738E-1,5.615539551E-1,2.846221924E-1
9.879492550E-1,6.001281738E-1,6.180114746E-1,3.464050293E-1
9.919470580E-1,6.619110107E-1,6.616973877E-1,4.071350098E-1
9.959753780E-1,7.141113281E-1,6.883239746E-1,4.742431641E-1
9.999731810E-1,7.545928955E-1,6.947174072E-1,5.434875488E-1
1.004001501E0,7.844238281E-1,6.744689941E-1,6.180572510E-1
1.008029822E0,8.057250977E-1,6.254730225E-1,6.915588379E-1
1.012027624E0,8.174438477E-1,5.477142334E-1,7.586669922E-1
1.016055945E0,8.238372803E-1,4.433135986E-1,8.204498291E-1
1.020084265E0,8.291625977E-1,3.197479248E-1,8.694610596E-1
1.024082068E0,8.323516846E-1,1.823272705E-1,9.024810791E-1
1.028110388E0,8.398132324E-1,4.490661621E-2,9.184570312E-1
1.032138708E0,8.515319824E-1,-8.718872070E-2,9.163208008E-1
1.036136511E0,8.643188477E-1,-1.990356445E-1,9.003448486E-1
1.040164831E0,8.845520020E-1,-2.799987793E-1,8.747863770E-1
1.044193152E0,9.048004150E-1,-3.417816162E-1,8.364257812E-1
1.048190954E0,9.207763672E-1,-3.929138184E-1,7.906188965E-1
1.052219275E0,9.261016846E-1,-4.270019531E-1,7.437591553E-1
1.056247595E0,9.218444824E-1,-4.525756836E-1,7.011413574E-1
1.060245398E0,9.005279541E-1,-4.866638184E-1,6.542663574E-1
1.064273718E0,8.600463867E-1,-5.346069336E-1,6.127319336E-1
1.068302038E0,8.110504150E-1,-5.910644531E-1,5.743713379E-1
1.072299841E0,7.588500977E-1,-6.485900879E-1,5.456085205E-1
1.076328161E0,7.002716064E-1,-7.412567139E-1,5.200500488E-1
1.080356482E0,6.278228760E-1,-8.499145508E-1,5.008697510E-1
1.084354284E0,5.532531738E-1,-9.671020508E-1,4.870300293E-1
1.088382605E0,4.733581543E-1,-1.083206177E0,4.678497314E-1
1.092380407E0,3.892059326E-1,-1.198257446E0,4.412231445E-1
1.096408728E0,3.061218262E-1,-1.287750244E0,4.124603271E-1
1.100437048E0,2.315521240E-1,-1.338882446E0,3.794403076E-1
1.104434851E0,1.676330566E-1,-1.359115601E0,3.442840576E-1
1.108463171E0,1.154327393E-1,-1.363372803E0,3.069915771E-1
1.112491491E0,8.241271973E-2,-1.347396851E0,2.675781250E-1
1.116489294E0,7.601928711E-2,-1.312240601E0,2.260284424E-1
1.120517614E0,9.199523926E-2,-1.268569946E0,1.834259033E-1
1.124545935E0,1.303405762E-1,-1.213180542E0,1.429443359E-1
1.128543738E0,2.017211914E-1,-1.126892090E0,1.024627686E-1
1.132572058E0,2.901306152E-1,-1.031021118E0,6.518554688E-2
1.136600378E0,3.902740479E-1,-9.415283203E-1,3.215026855E-2
1.140598181E0,4.957275391E-1,-8.690948486E-1,1.983642578E-4
1.144626501E0,6.022644043E-1,-8.030548096E-1,-3.921508789E-2
1.148654822E0,7.034606934E-1,-7.497863770E-1,-8.288574219E-2
1.152652624E0,7.854919434E-1,-7.167663574E-1,-1.297607422E-1
1.156680945E0,8.419494629E-1,-7.103729248E-1,-1.670532227E-1
1.160709265E0,8.813629150E-1,-7.178192139E-1,-2.053985596E-1
1.164707068E0,9.122467041E-1,-7.231597900E-1,-2.373504639E-1
1.168735388E0,9.218444824E-1,-7.444610596E-1,-2.639923096E-1
1.172763708E0,9.122467041E-1,-7.721557617E-1,-2.991333008E-1
1.176761511E0,8.952026367E-1,-7.923889160E-1,-3.342895508E-1
1.180789831E0,8.749694824E-1,-8.105010986E-1,-3.609313965E-1
1.184787634E0,8.366241455E-1,-8.552398682E-1,-3.619842529E-1
1.188815954E0,7.737731934E-1,-9.330139160E-1,-3.300323486E-1
1.192844275E0,6.949310303E-1,-1.006515503E0,-2.810363770E-1
1.196842077E0,6.065216064E-1,-1.068298340E0,-2.064666748E-1
1.200870398E0,5.180969238E-1,-1.094924927E0,-1.009979248E-1
1.204898718E0,4.445953369E-1,-1.091735840E0,2.363586426E-2
1.208896521E0,3.870697021E-1,-1.089599609E0,1.504058838E-1
1.212924841E0,3.508605957E-1,-1.098129272E0,2.686462402E-1
1.216953161E0,3.380737305E-1,-1.110916138E0,3.773040771E-1
1.220950964E0,3.529815674E-1,-1.114105225E0,4.646606445E-1
1.224979284E0,3.732299805E-1,-1.135406494E0,5.317687988E-1
1.229007605E0,4.051818848E-1,-1.165237427E0,5.796966553E-1
1.233005407E0,4.339447021E-1,-1.223831177E0,6.159210205E-1
1.237033728E0,4.595184326E-1,-1.310119629E0,6.318969727E-1
1.241062048E0,4.691009521E-1,-1.419830322E0,6.244506836E-1
1.245059851E0,4.627075195E-1,-1.533813477E0,5.935516357E-1
1.249088171E0,4.520568848E-1,-1.623306274E0,5.466766357E-1
1.253116491E0,4.456634521E-1,-1.688278198E0,4.859619141E-1
1.257114294E0,4.477996826E-1,-1.714920044E0,4.167175293E-1
1.261142614E0,4.701690674E-1,-1.679763794E0,3.549346924E-1
1.265170935E0,4.989318848E-1,-1.623306274E0,3.038024902E-1
1.269168738E0,5.383453369E-1,-1.572174072E0,2.611846924E-1
1.273197058E0,5.873413086E-1,-1.543411255E0,2.207031250E-1
1.277194861E0,6.384735107E-1,-1.547668457E0,1.791687012E-1
1.281223181E0,6.864166260E-1,-1.576431274E0,1.376190186E-1
1.285251501E0,7.236938477E-1,-1.608383179E0,9.927368164E-2
1.289249304E0,7.439422607E-1,-1.621170044E0,7.369995117E-2
1.293277624E0,7.481994629E-1,-1.631820679E0,4.386901855E-2
1.297305945E0,7.577819824E-1,-1.604125977E0,1.084899902E-2
1.301303747E0,7.727050781E-1,-1.568969727E0,-2.963256836E-2
1.305332068E0,7.844238281E-1,-1.566848755E0,-7.649230957E-2
1.309360388E0,7.876129150E-1,-1.639282227E0,-1.308288574E-1
1.313358191E0,7.918701172E-1,-1.725570679E0,-1.787719727E-1
1.317386511E0,7.972106934E-1,-1.803329468E0,-2.245788574E-1
1.321414831E0,7.940063477E-1,-1.872573853E0,-2.639923096E-1
1.325412634E0,7.918701172E-1,-1.890686035E0,-2.852935791E-1
1.329440954E0,7.886810303E-1,-1.884292603E0,-2.970123291E-1
1.333469275E0,7.822875977E-1,-1.889617920E0,-3.002014160E-1
1.337467077E0,7.801513672E-1,-1.904525757E0,-2.980804443E-1
1.341495398E0,7.865447998E-1,-1.886428833E0,-2.852935791E-1
1.345523718E0,7.972106934E-1,-1.860855103E0,-2.682495117E-1
1.349521521E0,8.131866455E-1,-1.834228516E0,-2.480010986E-1
1.353549841E0,8.312988281E-1,-1.812911987E0,-2.245788574E-1
1.357578161E0,8.515319824E-1,-1.792678833E0,-2.011413574E-1
1.361575964E0,8.728332520E-1,-1.785217285E0,-1.787719727E-1
1.365604284E0,8.973388672E-1,-1.756454468E0,-1.531982422E-1
1.369632605E0,9.250335693E-1,-1.701065063E0,-1.265716553E-1
1.373630407E0,9.537963867E-1,-1.657394409E0,-1.031341553E-1
1.377658728E0,9.783020020E-1,-1.617980957E0,-8.502197266E-2
1.381656531E0,9.985351562E-1,-1.587081909E0,-7.223510742E-2
1.385684851E0,1.013458252E0,-1.558319092E0,-6.478881836E-2
1.389713171E0,1.018783569E0,-1.526367188E0,-6.372070312E-2
1.393710974E0,1.018783569E0,-1.500793457E0,-6.690979004E-2
1.397739294E0,1.014511108E0,-1.497604370E0,-7.649230957E-2
1.401767614E0,1.007064819E0,-1.478424072E0,-8.076477051E-2
1.405765417E0,1.000671387E0,-1.435821533E0,-8.927917480E-2
1.409793738E0,9.985351562E-1,-1.398529053E0,-1.009979248E-1
1.413822058E0,9.996032715E-1,-1.382553101E0,-1.148529053E-1
1.417819861E0,1.000671387E0,-1.376159668E0,-1.340179443E-1
1.421848181E0,1.002792358E0,-1.375091553E0,-1.553344727E-1
1.425876501E0,1.008132935E0,-1.366577148E0,-1.808929443E-1
1.429874304E0,1.015579224E0,-1.351654053E0,-2.096557617E-1
1.433902624E0,1.017715454E0,-1.360183716E0,-2.448120117E-1
1.437930945E0,1.020904541E0,-1.395339966E0,-2.810363770E-1
1.441928747E0,1.024108887E0,-1.347396851E0,-2.948760986E-1
1.445957068E0,1.028366089E0,-1.286682129E0,-3.108520508E-1
1.449985388E0,1.035827637E0,-1.264312744E0,-3.332214355E-1
1.453983191E0,1.045410156E0,-1.269638062E0,-3.609313965E-1
1.458011511E0,1.057128906E0,-1.280288696E0,-3.886260986E-1
1.462039831E0,1.066711426E0,-1.281356812E0,-4.141845703E-1
1.466037634E0,1.076309204E0,-1.285614014E0,-4.397583008E-1
1.470065954E0,1.081634521E0,-1.316497803E0,-4.695892334E-1
1.474063757E0,1.083755493E0,-1.263244629E0,-4.951477051E-1
1.478092077E0,1.082687378E0,-1.154586792E0,-5.196533203E-1
1.482120398E0,1.074172974E0,-1.062973022E0,-5.505371094E-1
1.486118200E0,1.057128906E0,-1.008636475E0,-5.814361572E-1
1.490146521E0,1.034759521E0,-9.777526855E-1,-6.038055420E-1
1.494174841E0,1.012390137E0,-9.457855225E-1,-6.187133789E-1
1.498172644E0,9.942779541E-1,-9.116973877E-1,-6.315002441E-1
1.502200964E0,9.783020020E-1,-8.765563965E-1,-6.421508789E-1
1.506229284E0,9.676513672E-1,-8.403320312E-1,-6.485443115E-1
1.510227087E0,9.601898193E-1,-8.030548096E-1,-6.474761963E-1
1.514255407E0,9.484710693E-1,-7.710876465E-1,-6.400299072E-1
1.518283728E0,9.378204346E-1,-7.369995117E-1,-6.293792725E-1
1.522281531E0,9.218444824E-1,-6.986541748E-1,-6.144561768E-1
1.526309851E0,9.005279541E-1,-6.571044922E-1,-5.920867920E-1
1.530338171E0,8.770904541E-1,-6.198272705E-1,-5.643920898E-1
1.534335974E0,8.526000977E-1,-5.857391357E-1,-5.313720703E-1
1.538364294E0,8.227691650E-1,-5.420532227E-1,-4.919586182E-1
1.542392614E0,7.897491455E-1,-4.962463379E-1,-4.429473877E-1
1.546390417E0,7.492675781E-1,-4.493865967E-1,-3.811645508E-1
1.550418738E0,6.959991455E-1,-3.950500488E-1,-3.108520508E-1
1.554447058E0,6.363525391E-1,-3.268737793E-1,-2.384185791E-1
1.558444861E0,5.681762695E-1,-2.437896729E-1,-1.617279053E-1
1.562473181E0,4.850769043E-1,-1.436462402E-1,-8.076477051E-2
1.566470984E0,3.945312500E-1,-2.966308594E-2,-4.058837891E-3
1.570499304E0,2.880096436E-1,7.792663574E-2,7.369995117E-2
1.574527624E0,1.623077393E-1,1.524963379E-1,1.610565186E-1
1.578525427E0,1.210021973E-2,1.865844727E-1,2.569274902E-1
1.582553747E0,-1.583404541E-1,1.801910400E-1,3.549346924E-1
1.586582068E0,-3.287811279E-1,1.322479248E-1,4.539947510E-1
1.590579870E0,-4.896392822E-1,4.702758789E-2,5.530700684E-1
1.594608191E0,-6.227874756E-1,-4.884338379E-2,6.532135010E-1
1.598636511E0,-7.261199951E-1,-1.255340576E-1,7.437591553E-1
1.602634314E0,-8.070831299E-1,-1.702880859E-1,8.183288574E-1
1.606662634E0,-8.763275146E-1,-1.873321533E-1,8.779754639E-1
1.610690954E0,-9.476928711E-1,-1.841278076E-1,9.227142334E-1
1.614688757E0,-1.025466919E0,-1.575012207E-1,9.536132812E-1
1.618717077E0,-1.114944458E0,-1.148834229E-1,9.791717529E-1
1.622745398E0,-1.217208862E0,-6.375122070E-2,9.919586182E-1
1.626743200E0,-1.323745728E0,-2.326965332E-2,9.866333008E-1
1.630771521E0,-1.421737671E0,-1.475524902E-2,9.600067139E-1
1.634799841E0,-1.515487671E0,1.678466797E-4,9.035491943E-1
1.638797644E0,-1.599639893E0,6.620788574E-2,8.545379639E-1
1.642825964E0,-1.664627075E0,1.269226074E-1,7.938232422E-1
1.646854284E0,-1.706161499E0,1.546325684E-1,7.203216553E-1
1.650852087E0,-1.727478027E0,1.663360596E-1,6.308288574E-1
1.654880407E0,-1.733871460E0,1.652832031E-1,5.211181641E-1
1.658878210E0,-1.728546143E0,1.482391357E-1,3.932800293E-1
1.662906531E0,-1.723205566E0,1.215972900E-1,2.494659424E-1
1.666934851E0,-1.715759277E0,1.109466553E-1,8.328247070E-2
1.670932654E0,-1.714691162E0,1.450347900E-1,-1.052551270E-1
1.674960974E0,-1.709365845E0,2.345275879E-1,-3.076629639E-1
1.678989294E0,-1.695510864E0,3.644866943E-1,-5.132598877E-1
1.682987097E0,-1.663558960E0,5.168151855E-1,-7.113952637E-1
1.687015417E0,-1.602844238E0,6.638183594E-1,-9.020843506E-1
1.691043738E0,-1.517623901E0,7.927246094E-1,-1.094894409E0
1.695041540E0,-1.411087036E0,8.747406006E-1,-1.284515381E0
1.699069861E0,-1.291778564E0,8.811340332E-1,-1.444305420E0
1.703098181E0,-1.161819458E0,8.076324463E-1,-1.562545776E0
1.707095984E0,-1.023330688E0,6.531677246E-1,-1.625396729E0
1.711124304E0,-8.795166016E-1,4.198760986E-1,-1.632858276E0
1.715152624E0,-7.421112061E-1,9.815979004E-2,-1.573196411E0
1.719150427E0,-6.217346191E-1,-2.959747314E-1,-1.449630737E0
1.723178747E0,-5.258483887E-1,-7.114410400E-1,-1.279190063E0
1.727207068E0,-4.768524170E-1,-1.110916138E0,-1.063995361E0
1.731204870E0,-5.109405518E-1,-1.462448120E0,-7.987518311E-1
1.735233191E0,-6.483612061E-1,-1.742614746E0,-4.951477051E-1
1.739261511E0,-8.646087646E-1,-1.894943237E0,-2.235107422E-1
1.743259314E0,-1.110687256E0,-1.898132324E0,-3.282165527E-2
1.747287634E0,-1.323745728E0,-1.775634766E0,8.541870117E-2
1.751315954E0,-1.476074219E0,-1.546600342E0,1.504058838E-1
1.755313757E0,-1.554901123E0,-1.267501831E0,1.759643555E-1
1.759342077E0,-1.555969238E0,-9.521789551E-1,1.493377686E-1
1.763339880E0,-1.494186401E0,-5.761413574E-1,6.091308594E-2
1.767368200E0,-1.382324219E0,-1.883850098E-1,-1.052551270E-1
1.771396521E0,-1.215087891E0,1.365203857E-1,-3.151245117E-1
1.775394323E0,-1.015884399E0,3.953704834E-1,-4.568023682E-1
1.779422644E0,-8.230590820E-1,6.169433594E-1,-4.930114746E-1
1.783450964E0,-6.483612061E-1,7.841949463E-1,-4.983367920E-1
1.787448767E0,-4.885711670E-1,8.939208984E-1,-5.270996094E-1
1.791477087E0,-3.532867432E-1,9.588928223E-1,-5.856933594E-1
1.795505407E0,-2.478179932E-1,9.993743896E-1,-6.602630615E-1
1.799503210E0,-1.807098389E-1,1.016418457E0,-7.359008789E-1
1.803531531E0,-1.466217041E-1,9.983215332E-1,-8.094024658E-1
1.807559851E0,-1.370391846E-1,9.461212158E-1,-8.850402832E-1
1.811557654E0,-1.508789062E-1,8.438568115E-1,-9.596099854E-1
1.815585974E0,-1.966857910E-1,6.829986572E-1,-1.019256592E0
1.819614294E0,-2.797851562E-1,5.029602051E-1,-1.050155640E0
1.823612097E0,-3.948211670E-1,3.293304443E-1,-1.059738159E0
1.827640417E0,-5.279846191E-1,1.461029053E-1,-1.069320679E0
1.831668738E0,-6.504974365E-1,-6.056213379E-2,-1.068267822E0
1.835666540E0,-7.431640625E-1,-2.725524902E-1,-1.057601929E0
1.839694861E0,-8.177337646E-1,-4.333953857E-1,-1.033111572E0
1.843723181E0,-8.592834473E-1,-5.729522705E-1,-1.007537842E0
1.847720984E0,-8.710021973E-1,-6.741485596E-1,-9.723815918E-1
1.851749304E0,-8.614196777E-1,-7.242126465E-1,-9.265747070E-1
1.855747107E0,-8.283843994E-1,-7.231597900E-1,-8.786468506E-1
1.859775427E0,-7.783203125E-1,-6.741485596E-1,-8.285827637E-1
1.863803747E0,-7.229309082E-1,-5.729522705E-1,-7.699890137E-1
1.867801550E0,-6.611480713E-1,-4.525756836E-1,-7.092742920E-1
1.871829870E0,-5.865783691E-1,-3.364562988E-1,-6.474761963E-1
1.875858191E0,-5.077514648E-1,-2.118225098E-1,-5.878295898E-1
1.879855993E0,-4.225311279E-1,-8.718872070E-2,-5.313720703E-1
1.883884314E0,-3.373107910E-1,2.893066406E-2,-4.812927246E-1
1.887912634E0,-2.552795410E-1,1.343841553E-1,-4.365539551E-1
1.891910437E0,-1.775207520E-1,2.196044922E-1,-3.982086182E-1
1.895938757E0,-1.008148193E-1,2.781982422E-1,-3.651885986E-1
1.899967077E0,-2.944946289E-2,3.271942139E-1,-3.311004639E-1
1.903964880E0,4.086303711E-2,3.527679443E-1,-2.991333008E-1
1.907993200E0,1.122436523E-1,3.474426270E-1,-2.693176270E-1
1.912021521E0,1.665649414E-1,3.399810791E-1,-2.320251465E-1
1.916019323E0,2.102355957E-1,3.112182617E-1,-1.968688965E-1
1.920047644E0,2.422027588E-1,2.718048096E-1,-1.595916748E-1
1.924075964E0,2.528533936E-1,2.377166748E-1,-1.212463379E-1
1.928073767E0,2.336730957E-1,2.430419922E-1,-7.543945312E-2
1.932102087E0,2.027893066E-1,2.345275879E-1,-4.028320312E-2
1.936130407E0,1.804199219E-1,1.823272705E-1,-1.791381836E-2
1.940128210E0,1.623077393E-1,1.354522705E-1,4.455566406E-3
1.944156531E0,1.410064697E-1,1.120147705E-1,2.470397949E-2
1.948154333E0,1.154327393E-1,1.034851074E-1,4.493713379E-2
1.952182654E0,8.666992188E-2,9.710693359E-2,6.198120117E-2
1.956210974E0,6.004333496E-2,8.538818359E-2,8.009338379E-2
1.960208777E0,3.340148926E-2,7.473754883E-2,9.713745117E-2
1.964237097E0,1.210021973E-2,7.153320312E-2,1.088562012E-1
1.968265417E0,-8.132934570E-3,6.939697266E-2,1.173858643E-1
1.972263220E0,-2.624511719E-2,7.153320312E-2,1.173858643E-1
1.976291540E0,-4.542541504E-2,7.579040527E-2,1.088562012E-1
1.980319861E0,-6.886291504E-2,9.283447266E-2,9.394836426E-2
1.984317663E0,-9.867858887E-2,1.301269531E-1,7.690429688E-2
1.988345984E0,-1.263885498E-1,1.588897705E-1,4.600524902E-2
1.992374304E0,-1.359710693E-1,1.716766357E-1,2.334594727E-3
1.996372107E0,-1.327667236E-1,1.759338379E-1,-4.347229004E-2
2.000400427E0,-1.221160889E-1,1.791229248E-1,-8.927917480E-2
2.004428747E0,-1.029510498E-1,1.748657227E-1,-1.308288574E-1
2.008426550E0,-7.312011719E-2,1.514282227E-1,-1.670532227E-1
2.012454870E0,-5.075073242E-2,1.684722900E-1,-1.872863770E-1
2.016483191E0,-2.198791504E-2,1.876525879E-1,-2.000732422E-1
2.020480993E0,6.774902344E-3,1.983032227E-1,-2.000732422E-1
2.024509314E0,3.340148926E-2,2.121429443E-1,-1.872863770E-1
2.028537634E0,5.897521973E-2,2.068176270E-1,-1.627807617E-1
2.032535437E0,9.306335449E-2,1.567535400E-1,-1.393432617E-1
2.036563757E0,1.346130371E-1,5.981445312E-2,-1.137847900E-1
2.040592077E0,1.750946045E-1,-3.392028809E-2,-7.756042480E-2
2.044589880E0,2.230224609E-1,-1.042327881E-1,-3.070068359E-2
2.048618200E0,2.741546631E-1,-1.521759033E-1,2.363586426E-2
2.052616003E0,3.263549805E-1,-1.862640381E-1,7.902526855E-2
2.056644323E0,3.742980957E-1,-2.150268555E-1,1.290893555E-1
2.060672644E0,4.158325195E-1,-2.491149902E-1,1.770324707E-1
2.064670447E0,4.520568848E-1,-2.885284424E-1,2.217712402E-1
2.068698767E0,4.872131348E-1,-3.354034424E-1,2.697143555E-1
2.072727087E0,5.276947021E-1,-3.769378662E-1,3.219146729E-1
2.076724890E0,5.702972412E-1,-4.195556641E-1,3.719787598E-1
2.080753210E0,6.182403564E-1,-4.461822510E-1,4.188537598E-1
2.084781531E0,6.683044434E-1,-4.557647705E-1,4.657135010E-1
2.088779333E0,7.183685303E-1,-4.813385010E-1,5.008697510E-1
2.092807654E0,7.673797607E-1,-4.951934814E-1,5.488128662E-1
2.096835974E0,8.131866455E-1,-5.228881836E-1,5.988769531E-1
2.100833777E0,8.472747803E-1,-5.846710205E-1,6.372222900E-1
2.104862097E0,8.717651367E-1,-6.517791748E-1,6.745147705E-1
2.108890417E0,8.845520020E-1,-7.050476074E-1,7.171173096E-1
2.112888220E0,8.941497803E-1,-7.583007812E-1,7.490844727E-1
2.116916540E0,8.952026367E-1,-7.934570312E-1,7.821044922E-1
2.120944861E0,8.824310303E-1,-8.296813965E-1,8.193817139E-1
2.124942663E0,8.515319824E-1,-8.680267334E-1,8.470916748E-1
2.128970984E0,8.046569824E-1,-9.053192139E-1,8.598632812E-1
2.132999304E0,7.471313477E-1,-9.489898682E-1,8.566741943E-1
2.136997107E0,6.757659912E-1,-1.012908936E0,8.364257812E-1
2.141025427E0,5.958709717E-1,-1.097061157E0,8.012847900E-1
2.145023230E0,5.149078369E-1,-1.191864014E0,7.469482422E-1
2.149051550E0,4.360809326E-1,-1.282409668E0,6.787719727E-1
2.153079870E0,3.742980957E-1,-1.346328735E0,5.946197510E-1
2.157077673E0,3.380737305E-1,-1.363372803E0,4.934234619E-1
2.161105993E0,3.295593262E-1,-1.332489014E0,3.826293945E-1
2.165134314E0,3.476562500E-1,-1.257919312E0,2.707824707E-1
2.169132116E0,3.860168457E-1,-1.159912109E0,1.663818359E-1
2.173160437E0,4.392700195E-1,-1.048065186E0,7.051086426E-2
2.177188757E0,4.904022217E-1,-9.511260986E-1,-8.316040039E-3
2.181186560E0,5.404815674E-1,-8.786773682E-1,-7.011413574E-2
2.185214880E0,5.926666260E-1,-7.774810791E-1,-1.159210205E-1
2.189243200E0,6.427459717E-1,-6.677551270E-1,-1.350860596E-1
2.193241003E0,6.853485107E-1,-5.761413574E-1,-1.478729248E-1
2.197269323E0,7.098541260E-1,-4.994506836E-1,-1.553344727E-1
2.201297644E0,7.173156738E-1,-4.387207031E-1,-1.606597900E-1
2.205295447E0,7.119750977E-1,-3.929138184E-1,-1.574554443E-1
2.209323767E0,6.992034912E-1,-3.758697510E-1,-1.521301270E-1
2.213352087E0,6.736297607E-1,-4.152984619E-1,-1.510620117E-1
2.217349890E0,6.427459717E-1,-4.898529053E-1,-1.436157227E-1
2.221378210E0,6.075897217E-1,-5.708160400E-1,-1.297607422E-1
2.225406531E0,5.777587891E-1,-6.539154053E-1,-1.084594727E-1
2.229404333E0,5.681762695E-1,-7.199554443E-1,-7.011413574E-2
2.233432654E0,5.884094238E-1,-7.252807617E-1,-1.258850098E-2
2.237430456E0,6.363525391E-1,-6.858673096E-1,6.198120117E-2
2.241458777E0,7.066497803E-1,-6.315460205E-1,1.429443359E-1
2.245487097E0,8.195800781E-1,-5.239410400E-1,2.057952881E-1
2.249484900E0,9.431457520E-1,-4.099578857E-1,2.643890381E-1
2.253513220E0,1.017715454E0,-3.939819336E-1,3.549346924E-1
2.257541540E0,1.036880493E0,-4.515075684E-1,4.646606445E-1
2.261539343E0,1.012390137E0,-5.314025879E-1,5.647888184E-1
2.265567663E0,9.708404541E-1,-6.294097900E-1,6.372222900E-1
2.269595984E0,9.303588867E-1,-7.295379639E-1,6.777038574E-1
2.273593786E0,9.037322998E-1,-8.243560791E-1,6.926269531E-1
2.277622107E0,8.824310303E-1,-9.362030029E-1,6.904907227E-1
2.281650427E0,8.643188477E-1,-1.045928955E0,6.766357422E-1
2.285648230E0,8.366241455E-1,-1.142868042E0,6.585388184E-1
2.289676550E0,8.110504150E-1,-1.246200562E0,6.265716553E-1
2.293704870E0,7.908172607E-1,-1.328216553E0,5.850219727E-1
2.297702673E0,7.844238281E-1,-1.350601196E0,5.413513184E-1
2.301730993E0,7.833557129E-1,-1.374023438E0,4.902191162E-1
2.305759314E0,7.844238281E-1,-1.407058716E0,4.401550293E-1
2.309757116E0,7.929382324E-1,-1.419830322E0,3.986053467E-1
2.313785437E0,7.972106934E-1,-1.462448120E0,3.485412598E-1
2.317813757E0,8.078613281E-1,-1.506118774E0,2.984771729E-1
2.321811560E0,8.280944824E-1,-1.491210938E0,2.547912598E-1
2.325839880E0,8.547210693E-1,-1.457122803E0,2.196502686E-1
2.329837683E0,8.739013672E-1,-1.485885620E0,1.919403076E-1
2.333866003E0,8.845520020E-1,-1.510375977E0,1.812896729E-1
2.337894323E0,8.898773193E-1,-1.519973755E0,1.823577881E-1
2.341892126E0,8.941497803E-1,-1.531692505E0,1.812896729E-1
2.345920447E0,9.058532715E-1,-1.550857544E0,1.781005859E-1
2.349948767E0,9.282379150E-1,-1.588150024E0,1.748962402E-1
2.353946570E0,9.537963867E-1,-1.626495361E0,1.781005859E-1
2.357974890E0,9.729766846E-1,-1.668045044E0,1.919403076E-1
2.362003210E0,9.846954346E-1,-1.694671631E0,2.111206055E-1
2.366001013E0,9.878845215E-1,-1.691482544E0,2.345581055E-1
2.370029333E0,9.932098389E-1,-1.671234131E0,2.590637207E-1
2.374057654E0,1.000671387E0,-1.637145996E0,2.771606445E-1
2.378055456E0,1.014511108E0,-1.574295044E0,2.888793945E-1
2.382083777E0,1.039016724E0,-1.511444092E0,2.984771729E-1
2.386112097E0,1.079498291E0,-1.433685303E0,3.038024902E-1
2.390109900E0,1.130630493E0,-1.327163696E0,3.027343750E-1
2.394138220E0,1.193481445E0,-1.253662109E0,2.931518555E-1
2.398166540E0,1.255264282E0,-1.266433716E0,2.750396729E-1
2.402164343E0,1.295745850E0,-1.381484985E0,2.420196533E-1
2.406192663E0,1.335159302E0,-1.426223755E0,2.196502686E-1
2.410220984E0,1.385223389E0,-1.381484985E0,1.951446533E-1
2.414218786E0,1.435302734E0,-1.331420898E0,1.642456055E-1
2.418247107E0,1.474716187E0,-1.309051514E0,1.195068359E-1
2.422275427E0,1.501342773E0,-1.295196533E0,5.453491211E-2
2.426273230E0,1.505599976E0,-1.249389648E0,-1.684570312E-2
2.430301550E0,1.482162476E0,-1.188674927E0,-9.034729004E-2
2.434299353E0,1.429977417E0,-1.130081177E0,-1.659851074E-1
2.438327673E0,1.357528687E0,-1.078948975E0,-2.469482422E-1
2.442355993E0,1.270187378E0,-1.041671753E0,-3.300323486E-1
2.446353796E0,1.176437378E0,-1.022491455E0,-4.109954834E-1
2.450382116E0,1.080566406E0,-1.013977051E0,-4.887542725E-1
2.454410437E0,9.910888672E-1,-1.016098022E0,-5.601348877E-1
2.458408239E0,9.069213867E-1,-1.018234253E0,-6.240386963E-1
2.462436560E0,8.249053955E-1,-1.017166138E0,-6.805114746E-1
2.466464880E0,7.471313477E-1,-1.007583618E0,-7.305755615E-1
2.470462683E0,6.746978760E-1,-9.873352051E-1,-7.742462158E-1
2.474491003E0,6.001281738E-1,-9.500579834E-1,-8.072662354E-1
2.478519323E0,5.330200195E-1,-9.010467529E-1,-8.307037354E-1
2.482517126E0,4.701690674E-1,-8.445892334E-1,-8.424224854E-1
2.486545447E0,4.158325195E-1,-7.902679443E-1,-8.381652832E-1
2.490573767E0,3.732299805E-1,-7.284851074E-1,-8.189849854E-1
2.494571570E0,3.455352783E-1,-6.688232422E-1,-7.934265137E-1
2.498599890E0,3.284912109E-1,-6.081085205E-1,-7.550659180E-1
2.502628210E0,3.252868652E-1,-5.814666748E-1,-7.018127441E-1
2.506626013E0,3.316802979E-1,-5.399322510E-1,-6.432189941E-1
2.510654333E0,3.402099609E-1,-5.005187988E-1,-5.814361572E-1
2.514682654E0,3.497924805E-1,-6.528472900E-1,-5.441436768E-1
2.518680456E0,3.508605957E-1,-7.987823486E-1,-4.951477051E-1
2.522708777E0,3.529815674E-1,-8.286132812E-1,-3.950195312E-1
2.526737097E0,3.497924805E-1,-7.220916748E-1,-2.671813965E-1
2.530734900E0,3.412628174E-1,-4.951934814E-1,-1.233673096E-1
2.534763220E0,3.274230957E-1,-2.224731445E-1,1.831054688E-2
2.538761023E0,2.933349609E-1,-4.244995117E-2,1.354827881E-1
2.542789343E0,2.304840088E-1,2.146911621E-2,2.420196533E-1
2.546817663E0,1.399383545E-1,2.998352051E-2,3.613281250E-1
2.550815466E0,2.807617188E-2,3.851318359E-2,4.944763184E-1
2.554843786E0,-9.867858887E-2,5.023193359E-2,6.244506836E-1
2.558872107E0,-2.318420410E-1,4.383850098E-2,7.362976074E-1
2.562869909E0,-3.596801758E-1,8.682250977E-3,8.236541748E-1
2.566898230E0,-4.811096191E-1,-4.138183594E-2,8.854370117E-1
2.570926550E0,-5.919036865E-1,-9.890747070E-2,9.237823486E-1
2.574924353E0,-6.856384277E-1,-1.575012207E-1,9.408264160E-1
2.578952673E0,-7.655334473E-1,-2.097015381E-1,9.418945312E-1
2.582980993E0,-8.379821777E-1,-2.586975098E-1,9.227142334E-1
2.586978796E0,-9.050903320E-1,-3.055725098E-1,8.811798096E-1
2.591007116E0,-9.743347168E-1,-3.471069336E-1,8.140563965E-1
2.595035437E0,-1.049972534E0,-3.705444336E-1,7.267150879E-1
2.599033239E0,-1.139450073E0,-3.598937988E-1,6.287078857E-1
2.603061560E0,-1.248107910E0,-3.279418945E-1,5.296325684E-1
2.607089880E0,-1.366348267E0,-2.778778076E-1,4.263000488E-1
2.611087683E0,-1.488861084E0,-2.224731445E-1,3.240356445E-1
2.615116003E0,-1.616683960E0,-1.511077881E-1,2.175140381E-1
2.619113806E0,-1.739196777E0,-6.163024902E-2,1.131134033E-1
2.623142126E0,-1.847854614E0,1.721191406E-2,1.937866211E-2
2.627170447E0,-1.932006836E0,6.407165527E-2,-7.543945312E-2
2.631168249E0,-1.986328125E0,7.579040527E-2,-1.755676270E-1
2.635196570E0,-2.024688721E0,7.473754883E-2,-2.927551270E-1
2.639224890E0,-2.048110962E0,7.260131836E-2,-4.259033203E-1
2.643222693E0,-2.057708740E0,9.283447266E-2,-5.718536377E-1
2.647251013E0,-2.056640625E0,1.471710205E-1,-7.284393311E-1
2.651279333E0,-2.042785645E0,2.345275879E-1,-8.892974854E-1
2.655277136E0,-2.018295288E0,3.378448486E-1,-1.053344727E0
2.659305456E0,-1.981002808E0,4.315948486E-1,-1.216339111E0
2.663333777E0,-1.934127808E0,5.168151855E-1,-1.364410400E0
2.667331579E0,-1.863830566E0,6.244049072E-1,-1.477325439E0
2.671359900E0,-1.763687134E0,7.533111572E-1,-1.530578613E0
2.675388220E0,-1.648651123E0,8.715515137E-1,-1.528457642E0
2.679386023E0,-1.534667969E0,9.514465332E-1,-1.494369507E0
2.683414343E0,-1.436660767E0,9.972534180E-1,-1.453887939E0
2.687442663E0,-1.349304199E0,1.003646851E0,-1.424057007E0
2.691440466E0,-1.266220093E0,9.642333984E-1,-1.415542603E0
2.695468786E0,-1.183120728E0,8.683471680E-1,-1.416595459E0
2.699497107E0,-1.093643188E0,7.053680420E-1,-1.408081055E0
2.703494909E0,-1.003097534E0,4.507751465E-1,-1.379318237E0
2.707523230E0,-9.232025146E-1,1.279907227E-1,-1.296234131E0
2.711551550E0,-8.763275146E-1,-2.650909424E-1,-1.160934448E0
2.715549353E0,-8.891143799E-1,-7.050476074E-1,-9.649353027E-1
2.719577673E0,-9.785919189E-1,-1.119430542E0,-7.263183594E-1
2.723575476E0,-1.156494141E0,-1.450729370E0,-4.781036377E-1
2.727603796E0,-1.416412354E0,-1.626495361E0,-2.895507812E-1
2.731632116E0,-1.700836182E0,-1.603057861E0,-1.958160400E-1
2.735629919E0,-1.916030884E0,-1.383621216E0,-1.340179443E-1
2.739658239E0,-2.002319336E0,-1.092803955E0,-9.460449219E-2
2.743686560E0,-1.958633423E0,-8.296813965E-1,-1.191101074E-1
2.747684363E0,-1.826538086E0,-5.825347900E-1,-2.235107422E-1
2.751712683E0,-1.617752075E0,-2.810668945E-1,-3.577270508E-1
2.755741003E0,-1.351440430E0,1.077575684E-1,-4.759674072E-1
2.759738806E0,-1.068069458E0,5.423889160E-1,-5.878295898E-1
2.763767126E0,-7.889709473E-1,9.503784180E-1,-6.932830811E-1
2.767795447E0,-5.354461670E-1,1.284866333E0,-7.518768311E-1
2.771793249E0,-3.191986084E-1,1.534149170E0,-7.827758789E-1
2.775821570E0,-1.359710693E-1,1.682220459E0,-8.094024658E-1
2.779849890E0,3.814697266E-4,1.728027344E0,-8.360290527E-1
2.783847693E0,7.283020020E-2,1.692871094E0,-8.583984375E-1
2.787876013E0,6.962585449E-2,1.615097046E0,-8.743896484E-1
2.791904333E0,3.585815430E-3,1.514968872E0,-8.903656006E-1
2.795902136E0,-1.199951172E-1,1.411636353E0,-9.127349854E-1
2.799930456E0,-2.882995605E-1,1.306182861E0,-9.414978027E-1
2.803958777E0,-4.704589844E-1,1.181533813E0,-9.627990723E-1
2.807956579E0,-6.483612061E-1,9.844665527E-1,-9.787750244E-1
2.811984900E0,-8.038940430E-1,7.778015137E-1,-9.691925049E-1
2.815982702E0,-9.242706299E-1,5.732727051E-1,-9.532165527E-1
2.820011023E0,-1.007354736E0,2.952423096E-1,-9.542846680E-1
2.824039343E0,-1.073394775E0,4.277038574E-2,-9.308471680E-1
2.828037146E0,-1.108551025E0,-1.404571533E-1,-8.839721680E-1
2.832065466E0,-1.102157593E0,-2.491149902E-1,-8.253784180E-1
2.836093786E0,-1.065948486E0,-3.023681641E-1,-7.667846680E-1
2.840091589E0,-1.018005371E0,-3.130187988E-1,-7.124633789E-1
2.844119909E0,-9.636840820E-1,-2.863922119E-1,-6.517486572E-1
2.848148230E0,-8.976287842E-1,-2.320709229E-1,-5.867614746E-1
2.852146032E0,-8.273315430E-1,-1.404571533E-1,-5.175170898E-1
2.856174353E0,-7.559509277E-1,-2.220153809E-2,-4.589233398E-1
2.860202673E0,-6.824493408E-1,1.130828857E-1,-4.088592529E-1
2.864200476E0,-6.014862061E-1,2.377166748E-1,-3.619842529E-1
2.868228796E0,-5.077514648E-1,3.506317139E-1,-3.119201660E-1
2.872257116E0,-4.097442627E-1,4.646148682E-1,-2.554626465E-1
2.876254919E0,-3.074798584E-1,5.722045898E-1,-1.947479248E-1
2.880283239E0,-2.041473389E-1,6.659545898E-1,-1.382904053E-1
2.884311560E0,-9.867858887E-2,7.362670898E-1,-8.927917480E-2
2.888309363E0,2.517700195E-3,7.831268311E-1,-4.454040527E-2
2.892337683E0,9.413146973E-2,8.108215332E-1,4.455566406E-3
2.896366003E0,1.665649414E-1,8.459777832E-1,5.879211426E-2
2.900363806E0,2.113037109E-1,8.896636963E-1,1.152496338E-1
2.904392126E0,2.571105957E-1,8.779449463E-1,1.567993164E-1
2.908420447E0,3.039855957E-1,8.374633789E-1,1.983337402E-1
2.912418249E0,3.391418457E-1,8.097686768E-1,2.409515381E-1
2.916446570E0,3.657684326E-1,7.969818115E-1,2.761077881E-1
2.920444372E0,3.881378174E-1,7.884521484E-1,3.069915771E-1
2.924472693E0,4.115753174E-1,7.799377441E-1,3.314971924E-1
2.928501013E0,4.360809326E-1,7.703552246E-1,3.496093750E-1
2.932498816E0,4.541931152E-1,7.586364746E-1,3.645172119E-1
2.936527136E0,4.712371826E-1,7.426452637E-1,3.751678467E-1
2.940555456E0,4.829559326E-1,7.181549072E-1,3.836975098E-1
2.944553259E0,4.850769043E-1,6.851196289E-1,3.826293945E-1
2.948581579E0,4.754943848E-1,6.435852051E-1,3.740997314E-1
2.952609900E0,4.477996826E-1,5.945739746E-1,3.613281250E-1
2.956607702E0,4.158325195E-1,5.434417725E-1,3.442840576E-1
2.960636023E0,3.785552979E-1,4.869842529E-1,3.187103271E-1
2.964664343E0,3.338165283E-1,4.358520508E-1,2.803649902E-1
2.968662146E0,2.816162109E-1,3.911132812E-1,2.292327881E-1
2.972690466E0,2.262268066E-1,3.538360596E-1,1.695709229E-1
2.976718786E0,1.708221436E-1,3.208007812E-1,1.056671143E-1
2.980716589E0,1.175689697E-1,3.016357422E-1,3.854370117E-2
2.984744909E0,6.962585449E-2,2.931060791E-1,-2.856445312E-2
2.988773230E0,3.021240234E-2,2.994995117E-1,-8.927917480E-2
2.992771032E0,-3.875732422E-3,3.218688965E-1,-1.446838379E-1
2.996799353E0,-3.050231934E-2,3.485107422E-1,-1.894226074E-1
3.000827673E0,-4.968261719E-2,3.644866943E-1,-2.235107422E-1
3.004825476E0,-6.246948242E-2,3.698120117E-1,-2.469482422E-1
3.008853796E0,-6.886291504E-2,3.644866943E-1,-2.607879639E-1
3.012851599E0,-8.058166504E-2,3.751373291E-1,-2.597198486E-1
3.016879919E0,-9.974670410E-2,3.996429443E-1,-2.533264160E-1
3.020908239E0,-9.016418457E-2,3.538360596E-1,-2.501373291E-1
3.024906042E0,-5.287170410E-2,2.600860596E-1,-2.330932617E-1
3.028934363E0,-1.452636719E-2,1.897735596E-1,-2.085876465E-1
3.032962683E0,1.635742188E-2,1.567535400E-1,-1.787719727E-1
3.036960486E0,4.086303711E-2,1.343841553E-1,-1.414794922E-1
3.040988806E0,6.748962402E-2,1.109466553E-1,-9.780883789E-2
3.045017126E0,9.625244141E-2,8.857727051E-2,-5.307006836E-2
3.049014929E0,1.303405762E-1,6.513977051E-2,-9.384155273E-3
3.053043249E0,1.687011719E-1,4.277038574E-2,2.896118164E-2
3.057071570E0,2.113037109E-1,2.572631836E-2,6.198120117E-2
3.061069372E0,2.549896240E-1,1.826477051E-2,9.074401855E-2
3.065097693E0,3.082427979E-1,1.933288574E-2,1.141815186E-1
3.069126013E0,3.679046631E-1,2.146911621E-2,1.333618164E-1
3.073123816E0,4.275512695E-1,1.721191406E-2,1.472015381E-1
3.077152136E0,4.850769043E-1,7.614135742E-3,1.557312012E-1
3.081180456E0,5.330200195E-1,-1.582336426E-2,1.610565186E-1
3.085178259E0,5.724334717E-1,-5.523681641E-2,1.642456055E-1
3.089206579E0,6.001281738E-1,-1.084899902E-1,1.653137207E-1
3.093234900E0,6.193084717E-1,-1.724090576E-1,1.653137207E-1
3.097232702E0,6.267547607E-1,-2.501678467E-1,1.695709229E-1
3.101261023E0,6.235656738E-1,-3.321990967E-1,1.812896729E-1
3.105258825E0,6.182403564E-1,-4.067687988E-1,1.919403076E-1
3.109287146E0,6.118469238E-1,-4.674835205E-1,2.026062012E-1
3.113315466E0,6.097106934E-1,-5.079650879E-1,2.121887207E-1
3.117313269E0,6.107788086E-1,-5.282135010E-1,2.196502686E-1
3.121341589E0,6.171722412E-1,-5.260772705E-1,2.239074707E-1
3.125369909E0,6.246337891E-1,-5.068969727E-1,2.292327881E-1
3.129367712E0,6.320800781E-1,-4.728088379E-1,2.334899902E-1
3.133396032E0,6.374206543E-1,-4.312744141E-1,2.356262207E-1
3.137424353E0,6.406097412E-1,-3.854675293E-1,2.388153076E-1
3.141422156E0,6.395416260E-1,-3.279418945E-1,2.409515381E-1
3.145450476E0,6.310272217E-1,-2.672271729E-1,2.441406250E-1
3.149478796E0,6.118469238E-1,-2.160797119E-1,2.505340576E-1
3.153476599E0,5.798950195E-1,-1.905212402E-1,2.558593750E-1
3.157504919E0,5.319519043E-1,-2.011718750E-1,2.611846924E-1
3.161533239E0,4.680328369E-1,-2.448425293E-1,2.601165771E-1
3.165531042E0,3.881378174E-1,-3.226165771E-1,2.516021729E-1
3.169559363E0,3.039855957E-1,-4.259490967E-1,2.377471924E-1
3.173587683E0,2.294158936E-1,-5.207519531E-1,2.239074707E-1
3.177585486E0,1.580505371E-1,-6.102294922E-1,2.057952881E-1
3.181613806E0,8.666992188E-2,-7.146301270E-1,1.759643555E-1
3.185642126E0,1.103210449E-2,-8.158264160E-1,1.546630859E-1
3.189639929E0,-5.926513672E-2,-8.669586182E-1,1.472015381E-1
3.193668249E0,-1.125335693E-1,-8.531188965E-1,1.461334229E-1
3.197696570E0,-1.306457520E-1,-7.732238770E-1,1.461334229E-1
3.201694372E0,-1.136016846E-1,-6.358032227E-1,1.482696533E-1
3.205722693E0,-6.246948242E-2,-4.674835205E-1,1.535949707E-1
3.209720495E0,1.316833496E-2,-2.991790771E-1,1.674499512E-1
3.213748816E0,1.015930176E-1,-1.372528076E-1,1.898193359E-1
3.217777136E0,1.921386719E-1,-4.104614258E-3,2.153778076E-1
3.221774939E0,2.741546631E-1,8.325195312E-2,2.409515381E-1
3.225803259E0,3.423309326E-1,1.205291748E-1,2.601165771E-1
3.229831579E0,3.934631348E-1,1.152038574E-1,2.750396729E-1
3.233829382E0,4.328765869E-1,9.815979004E-2,2.899475098E-1
3.237857702E0,4.786834717E-1,1.173400879E-1,2.952728271E-1
3.241886023E0,5.639038086E-1,2.057647705E-1,2.835540771E-1
3.245883825E0,6.757659912E-1,3.112182617E-1,2.782287598E-1
3.249912146E0,7.737731934E-1,3.612823486E-1,3.069915771E-1
3.253940466E0,8.334197998E-1,3.240051270E-1,3.623962402E-1
3.257938269E0,8.483428955E-1,1.823272705E-1,4.263000488E-1
3.261966589E0,8.291625977E-1,-1.794433594E-2,4.934234619E-1
3.265994909E0,7.822875977E-1,-2.277984619E-1,5.573272705E-1
3.269992712E0,7.194366455E-1,-4.067687988E-1,6.169891357E-1
3.274021032E0,6.555175781E-1,-5.452575684E-1,6.734466553E-1
3.278049353E0,5.905456543E-1,-6.389923096E-1,7.331085205E-1
3.282047156E0,5.234375000E-1,-6.634979248E-1,7.916870117E-1
3.286075476E0,4.722900391E-1,-6.666870117E-1,8.279113770E-1
3.290103796E0,4.424743652E-1,-6.880035400E-1,8.332366943E-1
3.294101599E0,4.339447021E-1,-7.636260986E-1,8.172607422E-1
3.298129919E0,4.392700195E-1,-8.467254639E-1,7.938232422E-1
3.302127722E0,4.488677979E-1,-9.116973877E-1,7.725219727E-1
3.306156042E0,4.488677979E-1,-9.894714355E-1,7.480163574E-1
3.310184363E0,4.307556152E-1,-1.093872070E0,7.160644531E-1
3.314182165E0,4.083862305E-1,-1.170562744E0,6.840972900E-1
3.318210486E0,3.913421631E-1,-1.203582764E0,6.489410400E-1
3.322238806E0,3.796234131E-1,-1.227020264E0,6.042022705E-1
3.326236609E0,3.796234131E-1,-1.228088379E0,5.583953857E-1
3.330264929E0,3.924102783E-1,-1.186538696E0,5.115203857E-1
3.334293249E0,4.147796631E-1,-1.126892090E0,4.582672119E-1
3.338291052E0,4.435424805E-1,-1.064041138E0,3.954162598E-1
3.342319372E0,4.818878174E-1,-9.820098877E-1,3.240356445E-1
3.346347693E0,5.202331543E-1,-8.978576660E-1,2.526702881E-1
3.350345495E0,5.500640869E-1,-8.254241943E-1,1.908874512E-1
3.354373816E0,5.692291260E-1,-7.753448486E-1,1.461334229E-1
3.358402136E0,5.766906738E-1,-7.497863770E-1,1.227111816E-1
3.362399939E0,5.809478760E-1,-7.615051270E-1,9.927368164E-2
3.366428259E0,5.820159912E-1,-8.041076660E-1,6.837463379E-2
3.370456579E0,5.820159912E-1,-8.563079834E-1,3.854370117E-2
3.374454382E0,5.798950195E-1,-9.170379639E-1,2.470397949E-2
3.378482702E0,5.841522217E-1,-9.532470703E-1,2.682495117E-2
3.382511023E0,5.948028564E-1,-9.617767334E-1,3.215026855E-2
3.386508825E0,6.118469238E-1,-9.713592529E-1,3.428649902E-2
3.390537146E0,6.320800781E-1,-9.873352051E-1,4.174804688E-2
3.394565466E0,6.459350586E-1,-1.021423340E0,7.157897949E-2
3.398563269E0,6.576538086E-1,-1.077880859E0,1.067199707E-1
3.402591589E0,6.683044434E-1,-1.104522705E0,1.440124512E-1
3.406589392E0,6.832122803E-1,-1.118362427E0,1.802215576E-1
3.410617712E0,7.066497803E-1,-1.135406494E0,2.079315186E-1
3.414646032E0,7.418060303E-1,-1.115173340E0,2.270965576E-1
3.418643835E0,7.833557129E-1,-1.073623657E0,2.377471924E-1
3.422672156E0,8.238372803E-1,-1.039535522E0,2.452087402E-1
3.426700476E0,8.504638672E-1,-1.039535522E0,2.452087402E-1
3.430698279E0,8.675079346E-1,-1.056579590E0,2.366943359E-1
3.434726599E0,8.898773193E-1,-1.060836792E0,2.249755859E-1
3.438754919E0,9.154510498E-1,-1.061904907E0,2.153778076E-1
3.442752722E0,9.356842041E-1,-1.068298340E0,2.132568359E-1
3.446781042E0,9.410095215E-1,-1.092803955E0,2.228393555E-1
3.450809363E0,9.346160889E-1,-1.162048340E0,2.239074707E-1
3.454807165E0,9.378204346E-1,-1.174819946E0,2.270965576E-1
3.458835486E0,9.420776367E-1,-1.212112427E0,2.153778076E-1
3.462863806E0,9.484710693E-1,-1.247268677E0,2.015380859E-1
3.466861609E0,9.676513672E-1,-1.271759033E0,1.844940186E-1
3.470889929E0,1.002792358E0,-1.289871216E0,1.653137207E-1
3.474918249E0,1.049667358E0,-1.298400879E0,1.461334229E-1
3.478916052E0,1.102935791E0,-1.300521851E0,1.237640381E-1
3.482944372E0,1.150863647E0,-1.293075562E0,9.606933594E-2
3.486972693E0,1.192413330E0,-1.278152466E0,6.304931641E-2
3.490970495E0,1.226501465E0,-1.257919312E0,1.937866211E-2
3.494998816E0,1.252075195E0,-1.164169312E0,-1.898193359E-2
3.498996618E0,1.272308350E0,-1.020355225E0,-5.944824219E-2
3.503024939E0,1.286163330E0,-9.127655029E-1,-1.116485596E-1
3.507053259E0,1.286163330E0,-8.701629639E-1,-1.713104248E-1
3.511051062E0,1.271240234E0,-9.074401855E-1,-2.309570312E-1
3.515079382E0,1.245681763E0,-9.564514160E-1,-2.778320312E-1
3.519107702E0,1.221176147E0,-8.744201660E-1,-3.002014160E-1
3.523105505E0,1.206268311E0,-7.625732422E-1,-3.225708008E-1
3.527133825E0,1.194549561E0,-6.890716553E-1,-3.470764160E-1
3.531162146E0,1.175369263E0,-6.549682617E-1,-3.651885986E-1
3.535159948E0,1.147674561E0,-6.539154053E-1,-3.705139160E-1
3.539188269E0,1.115722656E0,-6.698913574E-1,-3.683776855E-1
3.543216589E0,1.077362061E0,-6.762847900E-1,-3.556060791E-1
3.547214392E0,1.026229858E0,-6.847991943E-1,-3.278961182E-1
3.551242712E0,9.612579346E-1,-7.263488770E-1,-2.991333008E-1
3.555271032E0,9.005279541E-1,-7.359313965E-1,-2.661132812E-1
3.559268835E0,8.430023193E-1,-7.082366943E-1,-2.288360596E-1
3.563297156E0,7.844238281E-1,-6.805419922E-1,-1.904754639E-1
3.567325476E0,7.194366455E-1,-6.645660400E-1,-1.478729248E-1
3.571323279E0,6.544647217E-1,-6.485900879E-1,-1.042022705E-1
3.575351599E0,5.916137695E-1,-6.208801270E-1,-5.839538574E-2
3.579379919E0,5.308837891E-1,-5.846710205E-1,-1.577758789E-2
3.583377722E0,4.680328369E-1,-5.409851074E-1,1.084899902E-2
3.587406042E0,4.009246826E-1,-4.994506836E-1,2.044677734E-2
3.591403845E0,3.178405762E-1,-4.632263184E-1,1.724243164E-2
3.595432165E0,2.240905762E-1,-4.302062988E-1,6.591796875E-3
3.599460486E0,1.122436523E-1,-3.897247314E-1,1.983642578E-4
3.603458288E0,-2.198791504E-2,-3.290100098E-1,-5.126953125E-3
3.607486609E0,-1.838989258E-1,-2.533721924E-1,-1.470947266E-2
3.611514929E0,-3.692626953E-1,-1.766662598E-1,-3.282165527E-2
3.615512732E0,-5.684661865E-1,-1.138153076E-1,-6.158447266E-2
3.619541052E0,-7.783203125E-1,-7.014465332E-2,-1.042022705E-1
3.623569372E0,-9.807281494E-1,-4.991149902E-2,-1.595916748E-1
3.627567175E0,-1.171401978E0,-4.991149902E-2,-2.277679443E-1
3.631595495E0,-1.338653564E0,-6.695556641E-2,-3.012695312E-1
3.635623816E0,-1.476074219E0,-8.718872070E-2,-3.747711182E-1
3.639621618E0,-1.577270508E0,-1.106262207E-1,-4.355010986E-1
3.643649939E0,-1.643310547E0,-1.308593750E-1,-4.823608398E-1
3.647678259E0,-1.666748047E0,-1.479034424E-1,-5.281677246E-1
3.651676062E0,-1.661422729E0,-1.521759033E-1,-5.686492920E-1
3.655704382E0,-1.645446777E0,-1.383209229E-1,-6.027374268E-1
3.659732702E0,-1.626266479E0,-1.127624512E-1,-6.283111572E-1
3.663730505E0,-1.611358643E0,-8.932495117E-2,-6.485443115E-1
3.667758825E0,-1.606033325E0,-5.628967285E-2,-6.602630615E-1
3.671787146E0,-1.613494873E0,-1.261901855E-2,-6.581268311E-1
3.675784948E0,-1.629470825E0,3.105163574E-2,-6.432189941E-1
3.679813269E0,-1.660354614E0,5.981445312E-2,-6.133880615E-1
3.683841589E0,-1.708297729E0,9.178161621E-2,-5.729064941E-1
3.687839392E0,-1.746643066E0,1.780548096E-1,-5.260467529E-1
3.691867712E0,-1.758361816E0,3.527679443E-1,-4.791717529E-1
3.695865515E0,-1.742385864E0,5.998992920E-1,-4.493408203E-1
3.699893835E0,-1.718948364E0,8.598327637E-1,-4.546661377E-1
3.703922156E0,-1.696578979E0,1.075012207E0,-5.015411377E-1
3.707919958E0,-1.671020508E0,1.207107544E0,-5.814361572E-1
3.711948279E0,-1.627334595E0,1.252914429E0,-6.847686768E-1
3.715976599E0,-1.561294556E0,1.207107544E0,-7.955474854E-1
3.719974402E0,-1.473937988E0,1.063293457E0,-8.914337158E-1
3.724002722E0,-1.368484497E0,8.459777832E-1,-9.468231201E-1
3.728031042E0,-1.258758545E0,5.690155029E-1,-9.382934570E-1
3.732028845E0,-1.166076660E0,2.568969727E-1,-8.647918701E-1
3.736057165E0,-1.119201660E0,-6.481933594E-2,-7.295074463E-1
3.740085486E0,-1.134124756E0,-3.439178467E-1,-5.420227051E-1
3.744083288E0,-1.208694458E0,-5.612335205E-1,-3.183135986E-1
3.748111609E0,-1.310958862E0,-6.986541748E-1,-1.073913574E-1
3.752139929E0,-1.396179199E0,-7.391357422E-1,2.149963379E-2
3.756137732E0,-1.447311401E0,-6.794738770E-1,5.026245117E-2
3.760166052E0,-1.463287354E0,-5.218200684E-1,1.724243164E-2
3.764194372E0,-1.438781738E0,-2.821350098E-1,-3.282165527E-2
3.768192175E0,-1.398300171E0,5.493164062E-3,-7.862854004E-2
3.772220495E0,-1.340789795E0,2.952423096E-1,-1.127166748E-1
3.776248816E0,-1.253433228E0,5.690155029E-1,-1.393432617E-1
3.780246618E0,-1.135192871E0,8.097686768E-1,-1.542663574E-1
3.784274939E0,-9.998931885E-1,1.008972168E0,-1.883544922E-1
3.788272741E0,-8.550262451E-1,1.199645996E0,-2.299041748E-1
3.792301062E0,-7.037506104E-1,1.392456055E0,-2.362823486E-1
3.796329382E0,-5.503540039E-1,1.574615479E0,-2.405548096E-1
3.800327185E0,-4.214630127E-1,1.705642700E0,-2.842254639E-1
3.804355505E0,-3.245239258E-1,1.737609863E0,-3.854217529E-1
3.808383825E0,-2.723236084E-1,1.648132324E0,-5.153961182E-1
3.812381628E0,-2.680664062E-1,1.462768555E0,-6.240386963E-1
3.816409948E0,-2.989501953E-1,1.232666016E0,-7.050018311E-1
3.820438269E0,-3.660583496E-1,1.041992188E0,-7.561340332E-1
3.824436072E0,-4.715270996E-1,9.802093506E-1,-7.944946289E-1
3.828464392E0,-5.695343018E-1,9.993743896E-1,-8.221893311E-1
3.832492712E0,-6.451721191E-1,1.057968140E0,-8.296356201E-1
3.836490515E0,-7.122802734E-1,1.127212524E0,-8.264465332E-1
3.840518835E0,-7.708587646E-1,1.158111572E0,-8.211212158E-1
3.844547156E0,-8.294525146E-1,1.126144409E0,-8.157958984E-1
3.848544958E0,-8.795166016E-1,1.028137207E0,-8.040771484E-1
3.852573279E0,-9.050903320E-1,8.789978027E-1,-7.870330811E-1
3.856601599E0,-9.082794189E-1,6.915130615E-1,-7.753143311E-1
3.860599402E0,-8.965606689E-1,4.923095703E-1,-7.646636963E-1
3.864627722E0,-8.816528320E-1,3.442382812E-1,-7.401580811E-1
3.868656042E0,-8.677978516E-1,2.515716553E-1,-7.082061768E-1
3.872653845E0,-8.539581299E-1,1.972351074E-1,-6.730499268E-1
3.876682165E0,-8.358459473E-1,1.706085205E-1,-6.357574463E-1
3.880679968E0,-8.198699951E-1,1.908416748E-1,-5.931549072E-1
3.884708288E0,-7.953643799E-1,2.323913574E-1,-5.473480225E-1
3.888736609E0,-7.484893799E-1,2.728729248E-1,-5.047302246E-1
3.892734411E0,-6.888427734E-1,3.335876465E-1,-4.568023682E-1
3.896762732E0,-6.217346191E-1,4.230651855E-1,-3.928833008E-1
3.900791052E0,-5.418395996E-1,5.146789551E-1,-3.257751465E-1
3.904788855E0,-4.512939453E-1,6.009674072E-1,-2.618560791E-1
3.908817175E0,-3.681945801E-1,6.957855225E-1,-1.926116943E-1
3.912845495E0,-2.851104736E-1,7.831268311E-1,-1.201782227E-1
3.916843298E0,-2.009429932E-1,8.417205811E-1,-5.412292480E-2
3.920871618E0,-1.221160889E-1,8.768768311E-1,8.728027344E-3
3.924899939E0,-4.649353027E-2,8.885955811E-1,6.411743164E-2
3.928897741E0,2.275085449E-2,8.939208984E-1,1.173858643E-1
3.932926062E0,8.987426758E-2,8.715515137E-1,1.557312012E-1
3.936954382E0,1.495208740E-1,8.438568115E-1,1.930084229E-1
3.940952185E0,1.900024414E-1,8.321380615E-1,2.196502686E-1
3.944980505E0,2.283477783E-1,7.916564941E-1,2.313690186E-1
3.949008825E0,2.656402588E-1,7.245483398E-1,2.334899902E-1
3.953006628E0,2.933349609E-1,6.520996094E-1,2.303009033E-1
3.957034948E0,3.082427979E-1,5.818023682E-1,2.270965576E-1
3.961063269E0,3.135681152E-1,5.061645508E-1,2.185821533E-1
3.965061072E0,3.029174805E-1,4.294586182E-1,2.026062012E-1
3.969089392E0,2.794799805E-1,3.506317139E-1,1.823577881E-1
3.973117712E0,2.400665283E-1,2.632751465E-1,1.599884033E-1
3.977115515E0,1.889343262E-1,1.684722900E-1,1.322937012E-1
3.981143835E0,1.260833740E-1,6.939697266E-2,9.820556641E-2
3.985141638E0,5.790710449E-2,-2.859497070E-2,6.411743164E-2
3.989169958E0,-1.345825195E-2,-1.255340576E-1,2.896118164E-2
3.993198279E0,-7.630920410E-2,-2.107543945E-1,-1.937866211E-3
3.997196081E0,-1.253204346E-1,-2.821350098E-1,-3.070068359E-2
4.001224402E0,-1.583404541E-1,-3.385925293E-1,-5.732727051E-2
4.005252722E0,-1.775207520E-1,-3.801422119E-1,-8.395385742E-2
4.009250525E0,-1.860351562E-1,-4.014434814E-1,-1.073913574E-1
4.013278845E0,-1.828460693E-1,-4.035797119E-1,-1.255035400E-1
4.017307165E0,-1.700592041E-1,-3.875885010E-1,-1.393432617E-1
4.021304968E0,-1.423645020E-1,-3.577728271E-1,-1.542663574E-1
4.025333288E0,-1.008148193E-1,-3.162231445E-1,-1.659851074E-1
4.029361609E0,-4.435729980E-2,-2.693481445E-1,-1.713104248E-1
4.033359411E0,2.702331543E-2,-2.192840576E-1,-1.723785400E-1
4.037387732E0,1.101074219E-1,-1.713409424E-1,-1.627807617E-1
4.041416052E0,1.953277588E-1,-1.308593750E-1,-1.457366943E-1
4.045413855E0,2.826843262E-1,-9.997558594E-2,-1.191101074E-1
4.049442175E0,3.647003174E-1,-8.186340332E-2,-8.609008789E-2
4.053470495E0,4.392700195E-1,-7.334899902E-2,-4.560852051E-2
4.057468298E0,5.074462891E-1,-7.334899902E-2,1.266479492E-3
4.061496618E0,5.671081543E-1,-8.186340332E-2,5.558776855E-2
4.065524939E0,6.193084717E-1,-9.039306641E-2,1.120452881E-1
4.069522741E0,6.640472412E-1,-9.997558594E-2,1.706390381E-1
4.073551062E0,6.970672607E-1,-1.138153076E-1,2.356262207E-1
4.077548864E0,7.247619629E-1,-1.319274902E-1,3.005981445E-1
4.081577185E0,7.481994629E-1,-1.553649902E-1,3.602600098E-1
4.085605505E0,7.684478760E-1,-1.766662598E-1,4.092559814E-1
4.089603308E0,7.801513672E-1,-1.915893555E-1,4.476165771E-1
4.093631628E0,7.844238281E-1,-1.990356445E-1,4.678497314E-1
4.097659948E0,7.822875977E-1,-1.979827881E-1,4.699859619E-1
4.101657751E0,7.705688477E-1,-1.841278076E-1,4.497375488E-1
4.105686072E0,7.535247803E-1,-1.649475098E-1,4.103240967E-1
4.109714392E0,7.300872803E-1,-1.340637207E-1,3.496093750E-1
4.113712195E0,7.077178955E-1,-8.825683594E-2,2.697143555E-1
4.117740515E0,6.874847412E-1,-2.540588379E-2,1.738433838E-1
4.121768835E0,6.661682129E-1,3.851318359E-2,6.837463379E-2
4.125766638E0,6.533966064E-1,9.390258789E-2,-3.070068359E-2
4.129794958E0,6.512603760E-1,1.311950684E-1,-1.105957031E-1
4.133823279E0,6.608428955E-1,1.258697510E-1,-1.521301270E-1
4.137821081E0,6.757659912E-1,7.260131836E-2,-1.478729248E-1
4.141849402E0,7.013244629E-1,-9.429931641E-3,-9.780883789E-2
4.145877722E0,7.311553955E-1,-1.170196533E-1,-1.791381836E-2
4.149875525E0,7.535247803E-1,-2.448425293E-1,7.263183594E-2
4.153903845E0,7.673797607E-1,-3.748168945E-1,1.514739990E-1
4.157932165E0,7.727050781E-1,-4.973144531E-1,2.100524902E-1
4.161929968E0,7.663116455E-1,-5.963897705E-1,2.526702881E-1
4.165958288E0,7.492675781E-1,-6.698913574E-1,2.846221924E-1
4.169956091E0,7.236938477E-1,-7.199554443E-1,3.059234619E-1
4.173984411E0,6.938781738E-1,-7.529754639E-1,3.123168945E-1
4.178012732E0,6.587219238E-1,-7.902679443E-1,2.995452881E-1
4.182010534E0,6.033325195E-1,-8.573760986E-1,2.782287598E-1
4.186038855E0,5.223693848E-1,-9.394073486E-1,2.601165771E-1
4.190067175E0,4.254302979E-1,-1.007583618E0,2.441406250E-1
4.194064978E0,3.263549805E-1,-1.043792725E0,2.270965576E-1
4.198093298E0,2.304840088E-1,-1.029953003E0,2.089843750E-1
4.202121618E0,1.484527588E-1,-9.638977051E-1,1.940765381E-1
4.206119421E0,8.880615234E-2,-8.403320312E-1,1.823577881E-1
4.210147741E0,4.832458496E-2,-6.709594727E-1,1.738433838E-1
4.214176062E0,2.062988281E-2,-5.047760010E-1,1.717071533E-1
4.218173864E0,1.103210449E-2,-3.556365967E-1,1.770324707E-1
4.222202185E0,2.914428711E-2,-2.235412598E-1,1.759643555E-1
4.226230505E0,6.962585449E-2,-1.809387207E-1,1.621246338E-1
4.230228308E0,1.165008545E-1,-2.682800293E-1,1.418762207E-1
4.234256628E0,1.676330566E-1,-4.120941162E-1,1.237640381E-1
4.238284948E0,2.070465088E-1,-5.644226074E-1,1.088562012E-1
4.242282751E0,2.379455566E-1,-6.741485596E-1,9.074401855E-2
4.246311072E0,2.624359131E-1,-7.263488770E-1,7.690429688E-2
4.250339392E0,2.890777588E-1,-7.402038574E-1,6.304931641E-2
4.254337195E0,3.338165283E-1,-7.061157227E-1,4.493713379E-2
4.258365515E0,4.105072021E-1,-6.145019531E-1,2.682495117E-2
4.262393835E0,5.127716064E-1,-4.802703857E-1,7.659912109E-3
4.266391638E0,6.235656738E-1,-3.247375488E-1,1.983642578E-4
4.270419958E0,7.481994629E-1,-1.596221924E-1,-4.058837891E-3
4.274417761E0,8.600463867E-1,-7.334899902E-2,-2.990722656E-3
4.278446081E0,9.228973389E-1,-1.298065186E-1,2.256774902E-2
4.282474402E0,9.356842041E-1,-3.034362793E-1,6.091308594E-2
4.286472204E0,9.069213867E-1,-5.250091553E-1,1.013946533E-1
4.290500525E0,8.536682129E-1,-7.114410400E-1,1.344299316E-1
4.294528845E0,7.950744629E-1,-8.488464355E-1,1.535949707E-1
4.298526648E0,7.386169434E-1,-9.628448486E-1,1.642456055E-1
4.302554968E0,6.959991455E-1,-1.061904907E0,1.727752686E-1
4.306583288E0,6.672363281E-1,-1.131149292E0,1.834259033E-1
4.310581091E0,6.480712891E-1,-1.197189331E0,1.791687012E-1
4.314609411E0,6.352844238E-1,-1.248321533E0,1.674499512E-1
4.318637732E0,6.267547607E-1,-1.247268677E0,1.621246338E-1
4.322635534E0,6.224975586E-1,-1.219558716E0,1.589202881E-1
4.326663855E0,6.214294434E-1,-1.197189331E0,1.493377686E-1
4.330692175E0,6.118469238E-1,-1.207855225E0,1.354827881E-1
4.334689978E0,5.969390869E-1,-1.232345581E0,1.259002686E-1
4.338718298E0,5.830841064E-1,-1.205718994E0,1.290893555E-1
4.342746618E0,5.735015869E-1,-1.153518677E0,1.418762207E-1
4.346744421E0,5.628509521E-1,-1.115173340E0,1.642456055E-1
4.350772741E0,5.468597412E-1,-1.097061157E0,1.866149902E-1
4.354801062E0,5.330200195E-1,-1.049118042E0,2.207031250E-1
4.358798864E0,5.319519043E-1,-9.617767334E-1,2.633209229E-1
4.362827185E0,5.394134521E-1,-8.872070312E-1,3.016662598E-1
4.366855505E0,5.553894043E-1,-8.286132812E-1,3.314971924E-1
4.370853308E0,5.830841064E-1,-7.668304443E-1,3.666534424E-1
4.374881628E0,6.118469238E-1,-7.274169922E-1,4.039306641E-1
4.378879431E0,6.342163086E-1,-7.039794922E-1,4.348297119E-1
4.382907751E0,6.501922607E-1,-6.730804443E-1,4.667816162E-1
4.386936072E0,6.491241455E-1,-6.656341553E-1,4.998016357E-1
4.390933874E0,6.427459717E-1,-6.986541748E-1,5.296325684E-1
4.394962195E0,6.374206543E-1,-7.274169922E-1,5.669250488E-1
4.398990515E0,6.342163086E-1,-7.561798096E-1,5.988769531E-1
4.402988318E0,6.363525391E-1,-7.902679443E-1,6.265716553E-1
4.407016638E0,6.437988281E-1,-7.891998291E-1,6.542663574E-1
4.411044958E0,6.597900391E-1,-7.583007812E-1,6.787719727E-1
4.415042761E0,6.832122803E-1,-7.274169922E-1,6.968841553E-1
4.419071081E0,7.045288086E-1,-7.050476074E-1,7.107238770E-1
4.423099402E0,7.375488281E-1,-6.880035400E-1,7.117919922E-1
4.427097204E0,7.833557129E-1,-6.730804443E-1,6.936798096E-1
4.431125525E0,8.366241455E-1,-6.571044922E-1,6.691894531E-1
4.435153845E0,8.920135498E-1,-6.379241943E-1,6.521453857E-1
4.439151648E0,9.452819824E-1,-6.549682617E-1,6.318969727E-1
4.443179968E0,1.002792358E0,-6.858673096E-1,6.105957031E-1
4.447208288E0,1.064590454E0,-6.954498291E-1,5.892944336E-1
4.451206091E0,1.131698608E0,-7.007751465E-1,5.690460205E-1
4.455234411E0,1.197738647E0,-7.156982422E-1,5.520019531E-1
4.459262732E0,1.258468628E0,-7.380676270E-1,5.338897705E-1
4.463260534E0,1.306396484E0,-7.636260986E-1,5.179138184E-1
4.467288855E0,1.346878052E0,-7.785491943E-1,4.998016357E-1
4.471286657E0,1.371383667E0,-7.987823486E-1,4.785003662E-1
4.475314978E0,1.386291504E0,-7.838745117E-1,4.571990967E-1
4.479343298E0,1.390548706E0,-7.561798096E-1,4.305725098E-1
4.483341101E0,1.375640869E0,-7.380676270E-1,4.039306641E-1
4.487369421E0,1.337295532E0,-7.646942139E-1,3.698425293E-1
4.491397741E0,1.287231445E0,-8.009185791E-1,3.314971924E-1
4.495395544E0,1.235031128E0,-7.955932617E-1,2.931518555E-1
4.499423864E0,1.191345215E0,-7.913360596E-1,2.547912598E-1
4.503452185E0,1.151931763E0,-8.073120117E-1,2.164459229E-1
4.507449988E0,1.113586426E0,-8.381958008E-1,1.759643555E-1
4.511478308E0,1.074172974E0,-8.957214355E-1,1.312255859E-1
4.515506628E0,1.034759521E0,-8.680267334E-1,1.035308838E-1
4.519504431E0,9.985351562E-1,-7.902679443E-1,8.009338379E-2
4.523532751E0,9.633789062E-1,-7.284851074E-1,5.239868164E-2
4.527561072E0,9.186401367E-1,-6.890716553E-1,2.149963379E-2
4.531558874E0,8.685760498E-1,-6.443176270E-1,-9.384155273E-3
4.535587195E0,8.131866455E-1,-6.070404053E-1,-3.707885742E-2
4.539615515E0,7.503356934E-1,-5.772094727E-1,-5.732727051E-2
4.543613318E0,6.864166260E-1,-5.537719727E-1,-6.478881836E-2
4.547641638E0,6.278228760E-1,-5.654907227E-1,-7.223510742E-2
4.551669958E0,5.713653564E-1,-5.974578857E-1,-7.649230957E-2
4.555667761E0,5.298156738E-1,-5.601654053E-1,-6.904602051E-2
4.559696081E0,4.989318848E-1,-5.122375488E-1,-6.051635742E-2
4.563693884E0,4.722900391E-1,-4.941253662E-1,-6.158447266E-2
4.567722204E0,4.509887695E-1,-4.951934814E-1,-6.797790527E-2
4.571750525E0,4.318237305E-1,-4.962463379E-1,-7.437133789E-2
4.575748327E0,4.083862305E-1,-4.898529053E-1,-7.756042480E-2
4.579776648E0,3.806915283E-1,-4.728088379E-1,-7.969665527E-2
4.583804968E0,3.487243652E-1,-4.547119141E-1,-9.887695312E-2
4.587802771E0,3.210296631E-1,-4.376678467E-1,-1.265716553E-1
4.591831091E0,2.890777588E-1,-4.003753662E-1,-1.574554443E-1
4.595859411E0,2.485961914E-1,-3.535003662E-1,-1.883544922E-1
4.599857214E0,2.006530762E-1,-3.013153076E-1,-2.213745117E-1
4.603885534E0,1.441955566E-1,-2.352600098E-1,-2.512054443E-1
4.607913855E0,7.815551758E-2,-1.489715576E-1,-2.735748291E-1
4.611911657E0,-6.011962891E-3,-3.073120117E-2,-2.778320312E-1
4.615939978E0,-1.125335693E-1,9.922790527E-2,-2.650451660E-1
4.619968298E0,-2.382354736E-1,2.302551270E-1,-2.469482422E-1
4.623966101E0,-3.777770996E-1,3.431701660E-1,-2.299041748E-1
4.627994421E0,-5.247955322E-1,4.337310791E-1,-2.160491943E-1
4.632022741E0,-6.707305908E-1,4.976348877E-1,-2.053985596E-1
4.636020544E0,-8.081512451E-1,5.402526855E-1,-1.968688965E-1
4.640048864E0,-9.295959473E-1,5.583648682E-1,-1.904754639E-1
4.644077185E0,-1.036117554E0,5.604858398E-1,-1.851501465E-1
4.648074988E0,-1.123474121E0,5.466461182E-1,-1.862182617E-1
4.652103308E0,-1.194839478E0,5.232086182E-1,-1.936798096E-1
4.656131628E0,-1.251296997E0,4.912414551E-1,-2.075347900E-1
4.660129431E0,-1.302429199E0,4.571533203E-1,-2.309570312E-1
4.664157751E0,-1.349304199E0,4.326629639E-1,-2.597198486E-1
4.668155554E0,-1.387649536E0,4.156188965E-1,-2.938079834E-1
4.672183874E0,-1.414291382E0,3.975067139E-1,-3.300323486E-1
4.676212195E0,-1.426010132E0,3.815307617E-1,-3.651885986E-1
4.680209997E0,-1.424942017E0,3.751373291E-1,-3.939514160E-1
4.684238318E0,-1.419616699E0,3.815307617E-1,-4.205780029E-1
4.688266638E0,-1.416412354E0,4.039001465E-1,-4.418792725E-1
4.692264441E0,-1.418548584E0,4.326629639E-1,-4.642486572E-1
4.696292761E0,-1.423873901E0,4.518280029E-1,-4.855651855E-1
4.700321081E0,-1.437728882E0,4.507751465E-1,-5.047302246E-1
4.704318884E0,-1.452636719E0,4.262695312E-1,-5.196533203E-1
4.708347204E0,-1.452636719E0,4.294586182E-1,-5.388183594E-1
4.712375525E0,-1.429199219E0,4.784698486E-1,-5.558624268E-1
4.716373327E0,-1.386596680E0,5.903167725E-1,-5.643920898E-1
4.720401648E0,-1.333328247E0,7.756805420E-1,-5.579986572E-1
4.724429968E0,-1.267272949E0,1.024948120E0,-5.409545898E-1
4.728427771E0,-1.199096680E0,1.293395996E0,-5.303039551E-1
4.732456091E0,-1.139450073E0,1.542663574E0,-5.441436768E-1
4.736484411E0,-1.088317871E0,1.739746094E0,-5.995483398E-1
4.740482214E0,-1.047836304E0,1.865432739E0,-6.911621094E-1
4.744510534E0,-1.006286621E0,1.918701172E0,-8.104705811E-1
4.748538855E0,-9.636840820E-1,1.886749268E0,-9.244537354E-1
4.752536657E0,-9.210662842E-1,1.763168335E0,-1.008605957E0
4.756564978E0,-8.816528320E-1,1.540527344E0,-1.044830322E0
4.760562781E0,-8.497009277E-1,1.218826294E0,-1.025650024E0
4.764591101E0,-8.454284668E-1,8.385314941E-1,-9.521484375E-1
4.768619421E0,-8.859100342E-1,4.656829834E-1,-8.285827637E-1
4.772617224E0,-9.871215820E-1,1.354522705E-1,-6.549377441E-1
4.776645544E0,-1.166076660E0,-9.571838379E-2,-4.472045898E-1
4.780673864E0,-1.424942017E0,-2.171478271E-1,-2.192382812E-1
4.784671667E0,-1.731735229E0,-2.501678467E-1,-2.217102051E-2
4.788699988E0,-2.026809692E0,-2.256774902E-1,1.056671143E-1
4.792728308E0,-2.251586914E0,-1.979827881E-1,1.493377686E-1
4.796726111E0,-2.367691040E0,-2.001037598E-1,1.280364990E-1
4.800754431E0,-2.381546021E0,-1.937103271E-1,8.755493164E-2
4.804782751E0,-2.318695068E0,-8.612060547E-2,7.369995117E-2
4.808780554E0,-2.181274414E0,1.524963379E-1,8.648681641E-2
4.812808874E0,-1.975677490E0,4.955139160E-1,1.088562012E-1
4.816837195E0,-1.729598999E0,8.928527832E-1,1.248321533E-1
4.820834997E0,-1.444107056E0,1.283798218E0,1.045989990E-1
4.824863318E0,-1.147964478E0,1.644927979E0,6.518554688E-2
4.828891638E0,-8.710021973E-1,1.991134644E0,2.682495117E-2
4.832889441E0,-6.227874756E-1,2.317108154E0,-7.263183594E-3
4.836917761E0,-3.980255127E-1,2.608993530E0,-4.560852051E-2
4.840946081E0,-2.126617432E-1,2.865722656E0,-9.460449219E-2
4.844943884E0,-1.040039062E-1,3.067062378E0,-1.340179443E-1
4.848972204E0,-9.655761719E-2,3.218322754E0,-1.787719727E-1
4.852970007E0,-1.625976562E-1,3.218322754E0,-2.639923096E-1
4.856998327E0,-2.680664062E-1,3.061737061E0,-3.651885986E-1
4.861026648E0,-4.022827148E-1,2.792221069E0,-4.397583008E-1
4.865024450E0,-5.460968018E-1,2.465179443E0,-4.940795898E-1
4.869052771E0,-6.899108887E-1,2.111511230E0,-5.420227051E-1
4.873081091E0,-8.433074951E-1,1.716308594E0,-5.814361572E-1
4.877078894E0,-1.002029419E0,1.354110718E0,-5.910186768E-1
4.881107214E0,-1.155426025E0,1.080337524E0,-5.718536377E-1
4.885135534E0,-1.280059814E0,8.704833984E-1,-5.324401855E-1
4.889133337E0,-1.370605469E0,7.170867920E-1,-4.791717529E-1
4.893161657E0,-1.420684814E0,6.031036377E-1,-4.248352051E-1
4.897189978E0,-1.432388306E0,5.306701660E-1,-3.758392334E-1
4.901187781E0,-1.424942017E0,5.296020508E-1,-3.236389160E-1
4.905216101E0,-1.382324219E0,5.466461182E-1,-2.778320312E-1
4.909244421E0,-1.312026978E0,5.849914551E-1,-2.458801270E-1
4.913242224E0,-1.225738525E0,6.510314941E-1,-2.213745117E-1
4.917270544E0,-1.127731323E0,7.405242920E-1,-1.990051270E-1
4.921298864E0,-1.035049438E0,8.672943115E-1,-1.691741943E-1
4.925296667E0,-9.423675537E-1,1.007904053E0,-1.382904053E-1
4.929324988E0,-8.475646973E-1,1.143188477E0,-1.095275879E-1
4.933353308E0,-7.516937256E-1,1.265701294E0,-7.543945312E-2
4.937351111E0,-6.590118408E-1,1.376480103E0,-3.921508789E-2
4.941379431E0,-5.727233887E-1,1.473419189E0,3.402709961E-3
4.945407751E0,-4.949645996E-1,1.543731689E0,4.814147949E-2
4.949405554E0,-4.278564453E-1,1.595932007E0,9.927368164E-2
4.953433874E0,-3.671264648E-1,1.603378296E0,1.429443359E-1
4.957431677E0,-3.149261475E-1,1.565032959E0,1.770324707E-1
4.961459997E0,-2.744598389E-1,1.528823853E0,2.089843750E-1
4.965488318E0,-2.446289062E-1,1.500061035E0,2.324218750E-1
4.969486120E0,-2.201232910E-1,1.470230103E0,2.473449707E-1
4.973514441E0,-1.998901367E-1,1.434005737E0,2.569274902E-1
4.977542761E0,-1.817779541E-1,1.394592285E0,2.601165771E-1
4.981540564E0,-1.700592041E-1,1.371154785E0,2.665100098E-1
4.985568884E0,-1.668548584E-1,1.374359131E0,2.771606445E-1
4.989597204E0,-1.476898193E-1,1.310440063E0,2.643890381E-1
4.993595007E0,-1.199951172E-1,1.207107544E0,2.494659424E-1
4.997623327E0,-9.442138672E-2,1.122955322E0,2.420196533E-1
5.001651648E0,-6.672668457E-2,1.053710938E0,2.324218750E-1
5.005649450E0,-3.689575195E-2,9.844665527E-1,2.196502686E-1
5.009677771E0,-1.739501953E-3,9.194793701E-1,2.047271729E-1
5.013706091E0,3.660583496E-2,8.555755615E-1,1.812896729E-1
5.017703894E0,7.495117188E-2,7.948455811E-1,1.504058838E-1
5.021732214E0,1.165008545E-1,7.373199463E-1,1.099243164E-1
5.025760534E0,1.516571045E-1,6.861877441E-1,6.518554688E-2
5.029758337E0,1.793518066E-1,6.371917725E-1,1.510620117E-2
5.033786657E0,1.953277588E-1,5.913848877E-1,-3.921508789E-2
5.037814978E0,2.038574219E-1,5.498352051E-1,-9.674072266E-2
5.041812781E0,2.027893066E-1,5.114898682E-1,-1.510620117E-1
5.045841101E0,1.900024414E-1,4.731445312E-1,-2.000732422E-1
5.049838904E0,1.644287109E-1,4.390563965E-1,-2.362823486E-1
5.053867224E0,1.218261719E-1,4.049682617E-1,-2.565307617E-1
5.057895544E0,6.855773926E-2,3.719329834E-1,-2.607879639E-1
5.061893347E0,4.653930664E-3,3.399810791E-1,-2.554626465E-1
5.065921667E0,-6.140136719E-2,3.080291748E-1,-2.416229248E-1
5.069949988E0,-1.444854736E-1,3.250732422E-1,-2.032623291E-1
5.073947790E0,-2.105407715E-1,2.973632812E-1,-1.691741943E-1
5.077976111E0,-2.520751953E-1,2.345275879E-1,-1.169738770E-1
5.082004431E0,-2.829742432E-1,2.014923096E-1,-5.412292480E-2
5.086002234E0,-3.117370605E-1,1.950988770E-1,9.780883789E-3
5.090030554E0,-3.277130127E-1,1.983032227E-1,7.476806641E-2
5.094058874E0,-3.266448975E-1,1.983032227E-1,1.408081055E-1
5.098056677E0,-3.053436279E-1,1.940460205E-1,2.026062012E-1
5.102084997E0,-2.616729736E-1,1.940460205E-1,2.654571533E-1
5.106113318E0,-1.998901367E-1,2.004241943E-1,3.251037598E-1
5.110111120E0,-1.199951172E-1,2.142791748E-1,3.879547119E-1
5.114139441E0,-2.517700195E-2,2.355804443E-1,4.508056641E-1
5.118167761E0,8.027648926E-2,2.590179443E-1,5.147247314E-1
5.122165564E0,1.942596436E-1,2.813873291E-1,5.754394531E-1
5.126193884E0,3.103790283E-1,2.931060791E-1,6.340332031E-1
5.130222204E0,4.275512695E-1,2.899169922E-1,6.830291748E-1
5.134220007E0,5.415344238E-1,2.728729248E-1,7.267150879E-1
5.138248327E0,6.512603760E-1,2.387847900E-1,7.597351074E-1
5.142276648E0,7.524566650E-1,1.897735596E-1,7.842407227E-1
5.146274450E0,8.440704346E-1,1.237335205E-1,7.991485596E-1
5.150302771E0,9.239654541E-1,4.490661621E-2,8.012847900E-1
5.154300573E0,9.921417236E-1,-4.670715332E-2,7.927551270E-1
5.158328894E0,1.047546387E0,-1.425781250E-1,7.682495117E-1
5.162357214E0,1.084823608E0,-2.352600098E-1,7.299041748E-1
5.166355017E0,1.108261108E0,-3.140869141E-1,6.777038574E-1
5.170383337E0,1.116775513E0,-3.769378662E-1,6.127319336E-1
5.174411657E0,1.112518311E0,-4.099578857E-1,5.296325684E-1
5.178409460E0,1.096542358E0,-4.152984619E-1,4.284362793E-1
5.182437781E0,1.062454224E0,-3.993072510E-1,3.133850098E-1
5.186466101E0,1.019836426E0,-3.609619141E-1,1.930084229E-1
5.190463904E0,9.772338867E-1,-3.045043945E-1,8.648681641E-2
5.194492224E0,9.431457520E-1,-2.373962402E-1,1.983642578E-4
5.198520544E0,9.186401367E-1,-1.756134033E-1,-5.200195312E-2
5.202518347E0,8.984069824E-1,-1.298065186E-1,-6.372070312E-2
5.206546667E0,8.770904541E-1,-1.266021729E-1,-3.814697266E-2
5.210574988E0,8.366241455E-1,-1.915893555E-1,2.577209473E-2
5.214572790E0,7.727050781E-1,-3.140869141E-1,1.216430664E-1
5.218601111E0,6.949310303E-1,-4.685516357E-1,2.345581055E-1
5.222629431E0,6.161041260E-1,-6.134338379E-1,3.357543945E-1
5.226627234E0,5.383453369E-1,-7.252807617E-1,4.177856445E-1
5.230655554E0,4.605865479E-1,-7.796173096E-1,4.880828857E-1
5.234683874E0,3.998565674E-1,-7.785491943E-1,5.338897705E-1
5.238681677E0,3.679046631E-1,-7.231597900E-1,5.562744141E-1
5.242709997E0,3.583068848E-1,-6.155548096E-1,5.743713379E-1
5.246707800E0,3.466033936E-1,-5.207519531E-1,5.754394531E-1
5.250736120E0,2.933349609E-1,-5.505828857E-1,5.381622314E-1
5.254764441E0,2.251586914E-1,-6.187591553E-1,4.998016357E-1
5.258762243E0,1.601715088E-1,-6.581726074E-1,4.603881836E-1
5.262790564E0,1.101074219E-1,-6.581726074E-1,4.156494141E-1
5.266818884E0,7.388305664E-2,-6.123657227E-1,3.634490967E-1
5.270816687E0,5.044555664E-2,-5.218200684E-1,3.080596924E-1
5.274845007E0,3.767395020E-2,-3.982543945E-1,2.473449707E-1
5.278873327E0,3.234863281E-2,-2.778778076E-1,1.791687012E-1
5.282871130E0,4.299926758E-2,-1.969146729E-1,1.045989990E-1
5.286899450E0,6.748962402E-2,-1.756134033E-1,2.256774902E-2
5.290927771E0,9.732055664E-2,-2.214202881E-1,-6.051635742E-2
5.294925573E0,1.324768066E-1,-3.236846924E-1,-1.372222900E-1
5.298953894E0,1.687011719E-1,-4.568328857E-1,-1.968688965E-1
5.302982214E0,2.070465088E-1,-5.846710205E-1,-2.309570312E-1
5.306980017E0,2.475280762E-1,-6.837310791E-1,-2.352294922E-1
5.311008337E0,2.784118652E-1,-7.433929443E-1,-2.107238770E-1
5.315036657E0,2.816162109E-1,-7.604370117E-1,-1.542663574E-1
5.319034460E0,2.613677979E-1,-7.561798096E-1,-7.011413574E-2
5.323062781E0,2.443237305E-1,-7.391357422E-1,1.617431641E-2
5.327091101E0,2.389984131E-1,-7.369995117E-1,1.045989990E-1
5.331088904E0,2.528533936E-1,-7.678985596E-1,1.930084229E-1
5.335117224E0,2.826843262E-1,-8.062438965E-1,2.803649902E-1
5.339145544E0,3.188934326E-1,-8.445892334E-1,3.634490967E-1
5.343143347E0,3.572540283E-1,-8.659057617E-1,4.422912598E-1
5.347171667E0,4.030609131E-1,-8.669586182E-1,5.083312988E-1
5.351169470E0,4.722900391E-1,-8.477935791E-1,5.434875488E-1
5.355197790E0,5.127716064E-1,-8.818817139E-1,5.765075684E-1
5.359226111E0,5.042572021E-1,-1.027816772E0,6.137847900E-1
5.363223913E0,4.722900391E-1,-1.165237427E0,6.510772705E-1
5.367252234E0,4.339447021E-1,-1.272827148E0,6.691894531E-1
5.371280554E0,4.030609131E-1,-1.380416870E0,6.649169922E-1
5.375278357E0,4.009246826E-1,-1.410247803E0,6.553344727E-1
5.379306677E0,4.190368652E-1,-1.407058716E0,6.329650879E-1
5.383334997E0,4.488677979E-1,-1.430480957E0,5.999450684E-1
5.387332800E0,4.967956543E-1,-1.407058716E0,5.701141357E-1
5.391361120E0,5.479278564E-1,-1.396392822E0,5.328369141E-1
5.395389441E0,5.862731934E-1,-1.401733398E0,4.902191162E-1
5.399387243E0,6.235656738E-1,-1.380416870E0,4.614562988E-1
5.403415564E0,6.565856934E-1,-1.386810303E0,4.263000488E-1
5.407443884E0,6.864166260E-1,-1.382553101E0,3.964843750E-1
5.411441687E0,7.151794434E-1,-1.374023438E0,3.666534424E-1
5.415470007E0,7.492675781E-1,-1.350601196E0,3.432159424E-1
5.419498327E0,7.876129150E-1,-1.316497803E0,3.272399902E-1
5.423496130E0,8.238372803E-1,-1.274963379E0,3.133850098E-1
5.427524450E0,8.557891846E-1,-1.232345581E0,3.048706055E-1
5.431552771E0,8.824310303E-1,-1.202514648E0,3.048706055E-1
5.435550573E0,9.122467041E-1,-1.171630859E0,3.187103271E-1
5.439578894E0,9.410095215E-1,-1.129013062E0,3.400115967E-1
5.443607214E0,9.687042236E-1,-1.107711792E0,3.602600098E-1
5.447605017E0,9.942779541E-1,-1.132217407E0,3.740997314E-1
5.451633337E0,1.008132935E0,-1.220626831E0,3.751678467E-1
5.455631140E0,1.024108887E0,-1.253662109E0,3.836975098E-1
5.459659460E0,1.045410156E0,-1.229156494E0,3.890228271E-1
5.463687781E0,1.061386108E0,-1.232345581E0,3.815612793E-1
5.467685583E0,1.079498291E0,-1.191864014E0,3.751678467E-1
5.471713904E0,1.101867676E0,-1.121566772E0,3.613281250E-1
5.475742224E0,1.126373291E0,-1.064041138E0,3.357543945E-1
5.479740027E0,1.149810791E0,-1.018234253E0,3.038024902E-1
5.483768347E0,1.173248291E0,-9.884033203E-1,2.750396729E-1
5.487796667E0,1.196670532E0,-9.713592529E-1,2.377471924E-1
5.491794470E0,1.217987061E0,-9.585723877E-1,1.962127686E-1
5.495822790E0,1.237152100E0,-9.394073486E-1,1.557312012E-1
5.499851111E0,1.255264282E0,-9.095764160E-1,1.195068359E-1
5.503848913E0,1.272308350E0,-8.701629639E-1,8.648681641E-2
5.507877234E0,1.289352417E0,-8.371429443E-1,4.493713379E-2
5.511905554E0,1.302139282E0,-7.987823486E-1,2.334594727E-3
5.515903357E0,1.302139282E0,-7.476501465E-1,-3.175354004E-2
5.519931677E0,1.286163330E0,-6.922607422E-1,-6.158447266E-2
5.523959997E0,1.253143311E0,-6.347351074E-1,-8.821105957E-2
5.527957800E0,1.206268311E0,-5.846710205E-1,-1.095275879E-1
5.531986120E0,1.155136108E0,-5.399322510E-1,-1.361541748E-1
5.535983923E0,1.104003906E0,-5.037078857E-1,-1.681060791E-1
5.540012243E0,1.059265137E0,-4.728088379E-1,-1.968688965E-1
5.544040564E0,1.019836426E0,-4.568328857E-1,-2.192382812E-1
5.548038366E0,9.836273193E-1,-4.483184814E-1,-2.341613770E-1
5.552066687E0,9.474029541E-1,-4.429931641E-1,-2.426757812E-1
5.556095007E0,9.143829346E-1,-4.461822510E-1,-2.490692139E-1
5.560092810E0,8.845520020E-1,-4.504394531E-1,-2.586669922E-1
5.564121130E0,8.568572998E-1,-4.749450684E-1,-2.661132812E-1
5.568149450E0,8.302307129E-1,-4.994506836E-1,-2.714385986E-1
5.572147253E0,8.046569824E-1,-4.973144531E-1,-2.767639160E-1
5.576175573E0,7.801513672E-1,-4.834747314E-1,-2.884826660E-1
5.580203894E0,7.545928955E-1,-4.888000488E-1,-2.948760986E-1
5.584201697E0,7.258300781E-1,-4.206237793E-1,-2.778320312E-1
5.588230017E0,6.938781738E-1,-3.343353271E-1,-2.586669922E-1
5.592258337E0,6.640472412E-1,-2.799987793E-1,-2.480010986E-1
5.596256140E0,6.342163086E-1,-2.704162598E-1,-2.405548096E-1
5.600284460E0,5.990600586E-1,-3.417816162E-1,-2.416229248E-1
5.604312781E0,5.660400391E-1,-3.769378662E-1,-2.213745117E-1
5.608310583E0,5.394134521E-1,-3.513793945E-1,-1.947479248E-1
5.612338904E0,5.138397217E-1,-2.288665771E-1,-1.574554443E-1
5.616367224E0,4.957275391E-1,-8.505249023E-2,-1.191101074E-1
5.620365027E0,4.797515869E-1,-1.968383789E-3,-9.248352051E-2
5.624393347E0,4.605865479E-1,2.679443359E-2,-7.330322266E-2
5.628421667E0,4.414062500E-1,2.893066406E-2,-5.412292480E-2
5.632419470E0,4.222259521E-1,2.893066406E-2,-3.602600098E-2
5.636447790E0,3.998565674E-1,1.721191406E-2,-2.323913574E-2
5.640445593E0,3.710937500E-1,-2.966308594E-2,-1.258850098E-2
5.644473913E0,3.466033936E-1,2.786254883E-2,6.591796875E-3
5.648502234E0,3.284912109E-1,1.077575684E-1,2.149963379E-2
5.652500036E0,3.029174805E-1,1.343841553E-1,3.109741211E-2
5.656528357E0,2.645721436E-1,1.279907227E-1,3.428649902E-2
5.660556677E0,2.134399414E-1,1.311950684E-1,3.109741211E-2
5.664554480E0,1.495208740E-1,1.599578857E-1,2.577209473E-2
5.668582800E0,6.748962402E-2,2.089538574E-1,2.470397949E-2
5.672611120E0,-3.582763672E-2,2.654113770E-1,3.321838379E-2
5.676608923E0,-1.615295410E-1,3.250732422E-1,4.707336426E-2
5.680637243E0,-3.074798584E-1,3.762054443E-1,6.304931641E-2
5.684665564E0,-4.715270996E-1,4.102935791E-1,6.623840332E-2
5.688663366E0,-6.504974365E-1,4.273376465E-1,5.986022949E-2
5.692691687E0,-8.358459473E-1,4.347839355E-1,4.067993164E-2
5.696720007E0,-1.012680054E0,4.305267334E-1,1.298522949E-2
5.700717810E0,-1.174606323E0,4.102935791E-1,-1.898193359E-2
5.704746130E0,-1.310958862E0,3.825988770E-1,-5.944824219E-2
5.708774450E0,-1.424942017E0,3.591613770E-1,-9.887695312E-2
5.712772253E0,-1.510162354E0,3.229370117E-1,-1.382904053E-1
5.716800573E0,-1.568756104E0,2.632751465E-1,-1.883544922E-1
5.720828894E0,-1.601776123E0,1.812591553E-1,-2.480010986E-1
5.724826697E0,-1.624145508E0,9.283447266E-2,-3.129882812E-1
5.728855017E0,-1.640121460E0,2.465820312E-2,-3.854217529E-1
5.732852820E0,-1.656097412E0,-6.225585938E-3,-4.493408203E-1
5.736881140E0,-1.673141479E0,-1.049804688E-2,-5.047302246E-1
5.740909460E0,-1.689117432E0,-8.361816406E-3,-5.548095703E-1
5.744907263E0,-1.705108643E0,-8.361816406E-3,-5.963439941E-1
5.748935583E0,-1.716827393E0,-9.429931641E-3,-6.325683594E-1
5.752963904E0,-1.730667114E0,-1.368713379E-2,-6.581268311E-1
5.756961706E0,-1.750915527E0,-1.794433594E-2,-6.773071289E-1
5.760990027E0,-1.775405884E0,-1.475524902E-2,-6.868896484E-1
5.765018347E0,-1.809494019E0,8.682250977E-3,-6.837005615E-1
5.769016150E0,-1.848907471E0,7.792663574E-2,-6.709136963E-1
5.773044470E0,-1.887268066E0,1.940460205E-1,-6.549377441E-1
5.777072790E0,-1.912826538E0,3.548889160E-1,-6.432189941E-1
5.781070593E0,-1.920288086E0,5.594329834E-1,-6.389617920E-1
5.785098913E0,-1.916030884E0,7.810058594E-1,-6.357574463E-1
5.789127234E0,-1.905380249E0,9.887237549E-1,-6.315002441E-1
5.793125036E0,-1.880874634E0,1.174087524E0,-6.421508789E-1
5.797153357E0,-1.833999634E0,1.329605103E0,-6.613311768E-1
5.801181677E0,-1.766891479E0,1.424423218E0,-6.826324463E-1
5.805179480E0,-1.676345825E0,1.443588257E0,-6.964874268E-1
5.809207800E0,-1.565551758E0,1.380737305E0,-6.783752441E-1
5.813236120E0,-1.439849854E0,1.220962524E0,-6.197814941E-1
5.817233923E0,-1.313079834E0,9.791412354E-1,-5.185852051E-1
5.821262243E0,-1.223602295E0,6.691436768E-1,-3.715820312E-1
5.825260046E0,-1.214019775E0,3.282623291E-1,-1.723785400E-1
5.829288366E0,-1.310958862E0,2.040100098E-2,6.730651855E-2
5.833316687E0,-1.509094238E0,-1.894531250E-1,3.069915771E-1
5.837314489E0,-1.774337769E0,-2.810668945E-1,4.891510010E-1
5.841342810E0,-2.044921875E0,-2.586975098E-1,6.052703857E-1
5.845371130E0,-2.241989136E0,-1.542968750E-1,6.595916748E-1
5.849368933E0,-2.313369751E0,2.288818359E-3,6.457519531E-1
5.853397253E0,-2.253707886E0,1.727294922E-1,5.370941162E-1
5.857425573E0,-2.109909058E0,4.006958008E-1,3.527984619E-1
5.861423376E0,-1.913894653E0,6.851196289E-1,1.397552490E-1
5.865451697E0,-1.663558960E0,9.716796875E-1,-3.388977051E-2
5.869480017E0,-1.381256104E0,1.232666016E0,-1.222991943E-1
5.873477820E0,-1.091506958E0,1.489395142E0,-1.446838379E-1
5.877506140E0,-8.230590820E-1,1.715240479E0,-1.500091553E-1
5.881534460E0,-5.897674561E-1,1.880355835E0,-1.649169922E-1
5.885532263E0,-4.022827148E-1,1.968765259E0,-1.990051270E-1
5.889560583E0,-2.531433105E-1,2.002853394E0,-2.490692139E-1
5.893588904E0,-1.295776367E-1,2.022033691E0,-3.129882812E-1
5.897586706E0,-3.477478027E-2,2.052932739E0,-3.864898682E-1
5.901615027E0,3.340148926E-2,2.088073730E0,-4.759674072E-1
5.905643347E0,7.815551758E-2,2.115783691E0,-5.761108398E-1
5.909641150E0,8.241271973E-2,2.122161865E0,-6.698455811E-1
5.913669470E0,4.512023926E-2,2.098739624E0,-7.444152832E-1
5.917667273E0,-2.517700195E-2,2.036941528E0,-7.827758789E-1
5.921695593E0,-1.231842041E-1,1.929351807E0,-7.934265137E-1
5.925723913E0,-2.456970215E-1,1.789810181E0,-7.870330811E-1
5.929721716E0,-3.841705322E-1,1.616165161E0,-7.763824463E-1
5.933750036E0,-5.311889648E-1,1.406311035E0,-7.667846680E-1
5.937778357E0,-6.813812256E-1,1.151718140E0,-7.604064941E-1
5.941776159E0,-8.305206299E-1,8.545074463E-1,-7.465515137E-1
5.945804480E0,-9.647369385E-1,5.551605225E-1,-7.135314941E-1
5.949832800E0,-1.078720093E0,3.325195312E-1,-6.528015137E-1
5.953830603E0,-1.161819458E0,1.972351074E-1,-5.814361572E-1
5.957858923E0,-1.207626343E0,1.290588379E-1,-5.121917725E-1
5.961887243E0,-1.214019775E0,1.194763184E-1,-4.557342529E-1
5.965885046E0,-1.193771362E0,1.716766357E-1,-4.067382812E-1
5.969913366E0,-1.139450073E0,2.483673096E-1,-3.651885986E-1
5.973941687E0,-1.049972534E0,3.516998291E-1,-3.332214355E-1
5.977939489E0,-9.519653320E-1,4.901885986E-1,-2.948760986E-1
5.981967810E0,-8.464965820E-1,6.499786377E-1,-2.437438965E-1
5.985996130E0,-7.303924561E-1,8.087005615E-1,-1.936798096E-1
5.989993933E0,-5.993652344E-1,9.503784180E-1,-1.510620117E-1
5.994022253E0,-4.747161865E-1,1.085662842E0,-1.052551270E-1
5.998050573E0,-3.511505127E-1,1.203903198E0,-5.093383789E-2
6.002048376E0,-2.254486084E-1,1.290191650E0,1.983642578E-4
6.006076697E0,-1.136016846E-1,1.358367920E0,5.239868164E-2
6.010105017E0,-1.026916504E-2,1.390335083E0,9.820556641E-2
6.014102820E0,7.920837402E-2,1.394592285E0,1.386871338E-1
6.018131140E0,1.591033936E-1,1.380737305E0,1.727752686E-1
6.022128943E0,2.304840088E-1,1.354110718E0,1.983337402E-1
6.026157263E0,2.848052979E-1,1.311508179E0,2.164459229E-1
6.030185583E0,3.284912109E-1,1.260375977E0,2.356262207E-1
6.034183386E0,3.551177979E-1,1.209243774E0,2.558593750E-1
6.038211706E0,3.647003174E-1,1.154907227E0,2.739715576E-1
6.042240027E0,3.657684326E-1,1.101638794E0,2.920837402E-1
6.046237829E0,3.593750000E-1,1.052642822E0,3.112640381E-1
6.050266150E0,3.466033936E-1,1.011093140E0,3.293609619E-1
6.054294470E0,3.316802979E-1,9.727478027E-1,3.442840576E-1
6.058292273E0,3.146362305E-1,9.354705811E-1,3.506774902E-1
6.062320593E0,2.954711914E-1,8.928527832E-1,3.517303467E-1
6.066348913E0,2.741546631E-1,8.417205811E-1,3.432159424E-1
6.070346716E0,2.485961914E-1,7.820587158E-1,3.314971924E-1
6.074375036E0,2.166290283E-1,7.117614746E-1,3.123168945E-1
6.078403357E0,1.793518066E-1,6.307983398E-1,2.825012207E-1
6.082401159E0,1.388702393E-1,5.423889160E-1,2.430725098E-1
6.086429480E0,9.838867188E-2,4.507751465E-1,1.962127686E-1
6.090457800E0,5.364990234E-2,3.602142334E-1,1.408081055E-1
6.094455603E0,1.103210449E-2,2.718048096E-1,8.541870117E-2
6.098483923E0,-3.050231934E-2,1.940460205E-1,2.682495117E-2
6.102512243E0,-7.205200195E-2,1.365203857E-1,-3.282165527E-2
6.106510046E0,-1.167907715E-1,9.710693359E-2,-8.715820312E-2
6.110538366E0,-1.594085693E-1,7.366943359E-2,-1.340179443E-1
6.114566687E0,-2.052154541E-1,6.513977051E-2,-1.744995117E-1
6.118564489E0,-2.510223389E-1,7.473754883E-2,-2.075347900E-1
6.122592810E0,-2.946929932E-1,9.283447266E-2,-2.341613770E-1
6.126590613E0,-3.373107910E-1,1.162719727E-1,-2.512054443E-1
6.130618933E0,-3.745880127E-1,1.418457031E-1,-2.543945312E-1
6.134647253E0,-4.065399170E-1,1.578216553E-1,-2.405548096E-1
6.138645056E0,-4.321136475E-1,1.663360596E-1,-2.160491943E-1
6.142673376E0,-4.491577148E-1,1.578216553E-1,-1.872863770E-1
6.146701697E0,-4.576721191E-1,1.343841553E-1,-1.500091553E-1
6.150699499E0,-4.534149170E-1,9.710693359E-2,-1.020660400E-1
6.154727820E0,-4.353027344E-1,5.235290527E-2,-4.347229004E-2
6.158756140E0,-3.980255127E-1,4.425048828E-3,2.470397949E-2
6.162753943E0,-3.458251953E-1,-3.605651855E-2,9.606933594E-2
6.166782263E0,-2.755126953E-1,-5.310058594E-2,1.631774902E-1
6.170810583E0,-1.871032715E-1,-4.777526855E-2,2.228393555E-1
6.174808386E0,-7.951354980E-2,-2.008056641E-2,2.867584229E-1
6.178836706E0,4.512023926E-2,2.893066406E-2,3.506774902E-1
6.182865027E0,1.825408936E-1,9.178161621E-2,4.113922119E-1
6.186862829E0,3.220977783E-1,1.642150879E-1,4.678497314E-1
6.190891150E0,4.637756348E-1,2.366485596E-1,5.179138184E-1
6.194919470E0,5.948028564E-1,2.994995117E-1,5.583953857E-1
6.198917273E0,7.130432129E-1,3.495635986E-1,5.871582031E-1
6.202945593E0,8.153076172E-1,3.879241943E-1,5.988769531E-1
6.206973913E0,9.015960693E-1,4.166870117E-1,5.946197510E-1
6.210971716E0,9.719085693E-1,4.390563965E-1,5.711822510E-1
6.215000036E0,1.025177002E0,4.528961182E-1,5.275115967E-1
6.218997839E0,1.054992676E0,4.539642334E-1,4.710388184E-1
6.223026159E0,1.072036743E0,4.390563965E-1,4.177856445E-1
6.227054480E0,1.086959839E0,4.060211182E-1,3.815612793E-1
6.231052282E0,1.099731445E0,3.602142334E-1,3.645172119E-1
6.235080603E0,1.112518311E0,3.027038574E-1,3.560028076E-1
6.239108923E0,1.115722656E0,2.334594727E-1,3.400115967E-1
6.243106726E0,1.104003906E0,1.535644531E-1,3.123168945E-1
6.247135046E0,1.083755493E0,6.513977051E-2,2.856903076E-1
6.251163366E0,1.065643311E0,1.678466797E-4,2.761077881E-1
6.255161169E0,1.048599243E0,-3.392028809E-2,2.846221924E-1
6.259189489E0,1.040084839E0,-4.563903809E-2,3.069915771E-1
6.263217810E0,1.035827637E0,-3.179931641E-2,3.368225098E-1
6.267215613E0,1.030502319E0,2.288818359E-3,3.677215576E-1
6.271243933E0,1.026229858E0,4.809570312E-2,3.922119141E-1
6.275272253E0,1.018783569E0,9.603881836E-2,4.156494141E-1
6.279270056E0,1.001739502E0,1.269226074E-1,4.358978271E-1
6.283298376E0,9.761657715E-1,1.333160400E-1,4.454803467E-1
6.287326697E0,9.420776367E-1,1.162719727E-1,4.401550293E-1
6.291324499E0,8.941497803E-1,7.046508789E-2,4.241790771E-1
6.295352820E0,8.291625977E-1,-9.002685547E-4,3.943481445E-1
6.299381140E0,7.876129150E-1,-7.546997070E-2,3.655853271E-1
6.303378943E0,7.801513672E-1,-1.713409424E-1,3.410797119E-1
6.307407263E0,7.663116455E-1,-2.895965576E-1,3.187103271E-1
6.311435583E0,7.226409912E-1,-3.929138184E-1,3.016662598E-1
6.315433386E0,6.512603760E-1,-4.674835205E-1,2.942199707E-1
6.319461706E0,5.585784912E-1,-5.175628662E-1,2.995452881E-1
6.323459509E0,4.435424805E-1,-5.441894531E-1,3.144531250E-1
6.327487829E0,3.188934326E-1,-5.527038574E-1,3.304290771E-1
6.331516150E0,1.910705566E-1,-5.452575684E-1,3.389587402E-1
6.335513952E0,7.495117188E-2,-5.101013184E-1,3.336334229E-1
6.339542273E0,-1.666259766E-2,-4.557647705E-1,3.144531250E-1
6.343570593E0,-7.630920410E-2,-3.961181641E-1,2.888793945E-1
6.347568396E0,-1.008148193E-1,-3.375244141E-1,2.622528076E-1
6.351596716E0,-9.335327148E-2,-2.970428467E-1,2.356262207E-1
6.355625036E0,-5.393981934E-2,-2.810668945E-1,2.143249512E-1
6.359622839E0,1.423645020E-2,-2.874603271E-1,1.898193359E-1
6.363651159E0,1.047821045E-1,-3.247375488E-1,1.695709229E-1
6.367679480E0,1.995849609E-1,-3.748168945E-1,1.674499512E-1
6.371677282E0,2.890777588E-1,-4.238128662E-1,1.759643555E-1
6.375705603E0,3.721618652E-1,-4.845275879E-1,1.930084229E-1
6.379733923E0,4.435424805E-1,-5.899963379E-1,2.036590576E-1
6.383731726E0,5.010528564E-1,-6.784057617E-1,2.260284424E-1
6.387760046E0,5.351409912E-1,-7.029113770E-1,2.729034424E-1
6.391788366E0,5.564575195E-1,-6.911926270E-1,3.283081055E-1
6.395786169E0,5.692291260E-1,-7.050476074E-1,3.730468750E-1
6.399814489E0,5.713653564E-1,-7.338104248E-1,4.220428467E-1
6.403842810E0,5.511322021E-1,-8.073120117E-1,4.753112793E-1
6.407840613E0,5.180969238E-1,-9.053192139E-1,5.115203857E-1
6.411868933E0,4.829559326E-1,-1.031021118E0,5.338897705E-1
6.415866736E0,4.382019043E-1,-1.211044312E0,5.562744141E-1
6.419895056E0,3.892059326E-1,-1.374023438E0,5.914154053E-1
6.423923376E0,3.316802979E-1,-1.528488159E0,6.265716553E-1
6.427921179E0,2.773590088E-1,-1.641403198E0,6.638641357E-1
6.431949499E0,2.326202393E-1,-1.708526611E0,6.968841553E-1
6.435977820E0,2.017211914E-1,-1.717041016E0,7.245788574E-1
6.439975622E0,1.868133545E-1,-1.684020996E0,7.565307617E-1
6.444003943E0,1.963958740E-1,-1.613708496E0,7.938232422E-1
6.448032263E0,2.251586914E-1,-1.506118774E0,8.364257812E-1
6.452030066E0,2.709655762E-1,-1.407058716E0,8.747863770E-1
6.456058386E0,3.284912109E-1,-1.311172485E0,9.120635986E-1
6.460086706E0,3.934631348E-1,-1.229156494E0,9.440307617E-1
6.464084509E0,4.595184326E-1,-1.178024292E0,9.727783203E-1
6.468112829E0,5.202331543E-1,-1.156723022E0,1.003677368E0
6.472141150E0,5.745697021E-1,-1.141799927E0,1.042022705E0
6.476138952E0,6.182403564E-1,-1.157775879E0,1.076110840E0
6.480167273E0,6.597900391E-1,-1.178024292E0,1.105941772E0
6.484195593E0,6.896057129E-1,-1.211044312E0,1.127243042E0
6.488193396E0,7.130432129E-1,-1.233413696E0,1.134704590E0
6.492221716E0,7.258300781E-1,-1.221694946E0,1.122985840E0
6.496250036E0,7.311553955E-1,-1.183349609E0,1.085708618E0
6.500247839E0,7.354125977E-1,-1.146057129E0,1.023925781E0
6.504276159E0,7.354125977E-1,-1.094924927E0,9.504089355E-1
6.508304480E0,7.364807129E-1,-1.038467407E0,8.641357422E-1
6.512302282E0,7.343597412E-1,-9.862670898E-1,7.682495117E-1
6.516330603E0,7.396850586E-1,-9.404602051E-1,6.627960205E-1
6.520328406E0,7.567291260E-1,-8.999938965E-1,5.488128662E-1
6.524356726E0,7.886810303E-1,-8.627014160E-1,4.433441162E-1
6.528385046E0,8.366241455E-1,-8.211517334E-1,3.485412598E-1
6.532382849E0,8.962707520E-1,-7.721557617E-1,2.686462402E-1
6.536411169E0,9.633789062E-1,-7.412567139E-1,1.919403076E-1
6.540439489E0,1.047546387E0,-7.433929443E-1,1.056671143E-1
6.544437292E0,1.135955811E0,-7.551116943E-1,2.682495117E-2
6.548465613E0,1.221176147E0,-7.710876465E-1,-4.560852051E-2
6.552493933E0,1.296813965E0,-7.817382812E-1,-1.073913574E-1
6.556491736E0,1.359664917E0,-7.945251465E-1,-1.649169922E-1
6.560520056E0,1.406539917E0,-8.051757812E-1,-2.096557617E-1
6.564548376E0,1.442749023E0,-8.137054443E-1,-2.501373291E-1
6.568546179E0,1.459793091E0,-8.232879639E-1,-2.820892334E-1
6.572574499E0,1.460861206E0,-8.243560791E-1,-3.044738770E-1
6.576602820E0,1.443817139E0,-8.179626465E-1,-3.172454834E-1
6.580600622E0,1.410797119E0,-8.190307617E-1,-3.215179443E-1
6.584628943E0,1.367126465E0,-8.200988770E-1,-3.183135986E-1
6.588657263E0,1.323440552E0,-8.179626465E-1,-3.012695312E-1
6.592655066E0,1.275512695E0,-8.179626465E-1,-2.799682617E-1
6.596683386E0,1.225433350E0,-8.115692139E-1,-2.458801270E-1
6.600681189E0,1.176437378E0,-7.955932617E-1,-2.064666748E-1
6.604709509E0,1.127441406E0,-7.721557617E-1,-1.702423096E-1
6.608737829E0,1.081634521E0,-7.455291748E-1,-1.329650879E-1
6.612735632E0,1.037948608E0,-7.252807617E-1,-9.887695312E-2
6.616763952E0,9.921417236E-1,-7.135620117E-1,-6.904602051E-2
6.620792273E0,9.410095215E-1,-7.199554443E-1,-4.347229004E-2
6.624790075E0,8.834838867E-1,-7.444610596E-1,-2.323913574E-2
6.628818396E0,8.217010498E-1,-7.274169922E-1,-1.937866211E-3
6.632846716E0,7.641754150E-1,-7.146301270E-1,9.780883789E-3
6.636844519E0,7.098541260E-1,-7.082366943E-1,1.405334473E-2
6.640872839E0,6.629791260E-1,-6.624298096E-1,2.044677734E-2
6.644901159E0,6.278228760E-1,-6.347351074E-1,1.831054688E-2
6.648898962E0,6.001281738E-1,-6.432647705E-1,1.084899902E-2
6.652927282E0,5.735015869E-1,-6.986541748E-1,-1.937866211E-3
6.656955603E0,5.585784912E-1,-7.103729248E-1,-9.384155273E-3
6.660953406E0,5.553894043E-1,-6.549682617E-1,-1.684570312E-2
6.664981726E0,5.521850586E-1,-6.059722900E-1,-2.963256836E-2
6.669010046E0,5.415344238E-1,-5.836029053E-1,-4.774475098E-2
6.673007849E0,5.191650391E-1,-5.676269531E-1,-6.584167480E-2
6.677036169E0,4.925384521E-1,-5.420532227E-1,-7.862854004E-2
6.681064489E0,4.605865479E-1,-5.047760010E-1,-9.034729004E-2
6.685062292E0,4.243621826E-1,-4.664306641E-1,-1.009979248E-1
6.689090613E0,3.828125000E-1,-4.259490967E-1,-1.105957031E-1
6.693118933E0,3.370056152E-1,-3.748168945E-1,-1.201782227E-1
6.697116736E0,2.880096436E-1,-3.076934814E-1,-1.265716553E-1
6.701145056E0,2.294158936E-1,-2.299346924E-1,-1.255035400E-1
6.705142859E0,1.591033936E-1,-1.276702881E-1,-1.073913574E-1
6.709171179E0,6.962585449E-2,1.678466797E-4,-6.797790527E-2
6.713199499E0,-3.477478027E-2,1.333160400E-1,-1.791381836E-2
6.717197302E0,-1.551361084E-1,2.462310791E-1,3.854370117E-2
6.721225622E0,-2.925567627E-1,3.208007812E-1,9.074401855E-2
6.725253943E0,-4.438323975E-1,3.516998291E-1,1.365509033E-1
6.729251745E0,-6.046905518E-1,3.495635986E-1,1.663818359E-1
6.733280066E0,-7.559509277E-1,3.282623291E-1,1.812896729E-1
6.737308386E0,-8.859100342E-1,2.952423096E-1,1.855621338E-1
6.741306189E0,-9.913787842E-1,2.505035400E-1,1.770324707E-1
6.745334509E0,-1.075531006E0,2.014923096E-1,1.557312012E-1
6.749362829E0,-1.140518188E0,1.492919922E-1,1.216430664E-1
6.753360632E0,-1.199096680E0,8.857727051E-2,7.795715332E-2
6.757388952E0,-1.254501343E0,2.572631836E-2,3.215026855E-2
6.761417273E0,-1.315216064E0,-2.220153809E-2,-2.003479004E-2
6.765415075E0,-1.378067017E0,-4.670715332E-2,-6.904602051E-2
6.769443396E0,-1.438781738E0,-4.991149902E-2,-1.137847900E-1
6.773471716E0,-1.495239258E0,-3.498840332E-2,-1.574554443E-1
6.777469519E0,-1.545318604E0,-9.002685547E-4,-1.958160400E-1
6.781497839E0,-1.584732056E0,5.555725098E-2,-2.299041748E-1
6.785526159E0,-1.608169556E0,1.301269531E-1,-2.618560791E-1
6.789523962E0,-1.615615845E0,2.110900879E-1,-2.884826660E-1
6.793552282E0,-1.606033325E0,2.845916748E-1,-3.161773682E-1
6.797550085E0,-1.587921143E0,3.442382812E-1,-3.385620117E-1
6.801578406E0,-1.566619873E0,3.879241943E-1,-3.609313965E-1
6.805606726E0,-1.541046143E0,4.305267334E-1,-3.864898682E-1
6.809604529E0,-1.510162354E0,4.848632812E-1,-4.173889160E-1
6.813632849E0,-1.477142334E0,5.732727051E-1,-4.504089355E-1
6.817661169E0,-1.451568604E0,7.053680420E-1,-4.749145508E-1
6.821658972E0,-1.440917969E0,8.736724854E-1,-4.908905029E-1
6.825687292E0,-1.445175171E0,1.072875977E0,-4.972839355E-1
6.829715613E0,-1.454772949E0,1.273147583E0,-5.004730225E-1
6.833713415E0,-1.470748901E0,1.436141968E0,-5.057983398E-1
6.837741736E0,-1.478195190E0,1.535202026E0,-5.153961182E-1
6.841770056E0,-1.469680786E0,1.546920776E0,-5.217742920E-1
6.845767859E0,-1.431335449E0,1.453186035E0,-5.100555420E-1
6.849796179E0,-1.366348267E0,1.238006592E0,-4.717102051E-1
6.853824499E0,-1.278991699E0,9.056396484E-1,-4.163208008E-1
6.857822302E0,-1.173538208E0,4.944458008E-1,-3.406829834E-1
6.861850622E0,-1.084060669E0,7.792663574E-2,-2.384185791E-1
6.865878943E0,-1.059555054E0,-2.650909424E-1,-1.148529053E-1
6.869876745E0,-1.140518188E0,-4.547119141E-1,3.749084473E-2
6.873905066E0,-1.336517334E0,-4.728088379E-1,2.079315186E-1
6.877933386E0,-1.620941162E0,-3.620300293E-1,3.591918945E-1
6.881931189E0,-1.946914673E0,-2.086334229E-1,4.497375488E-1
6.885959509E0,-2.239868164E0,-1.191406250E-1,4.721069336E-1
6.889987829E0,-2.436935425E0,-1.883850098E-1,4.177856445E-1
6.893985632E0,-2.521102905E0,-3.598937988E-1,3.069915771E-1
6.898013952E0,-2.509384155E0,-4.419250488E-1,1.898193359E-1
6.902011755E0,-2.416702271E0,-3.087615967E-1,1.163177490E-1
6.906040075E0,-2.221755981E0,-2.966308594E-2,7.157897949E-2
6.910068396E0,-1.934127808E0,3.293304443E-1,2.577209473E-2
6.914066198E0,-1.607101440E0,7.256011963E-1,-1.577758789E-2
6.918094519E0,-1.285385132E0,1.158111572E0,-4.774475098E-2
6.922122839E0,-9.945678711E-1,1.604446411E0,-1.095275879E-1
6.926120642E0,-7.431640625E-1,1.989013672E0,-2.000732422E-1
6.930148962E0,-5.460968018E-1,2.257461548E0,-2.820892334E-1
6.934177282E0,-3.927001953E-1,2.422576904E0,-3.556060791E-1
6.938175085E0,-2.723236084E-1,2.504592896E0,-4.504089355E-1
6.942203406E0,-1.817779541E-1,2.516311646E0,-5.569305420E-1
6.946231726E0,-1.221160889E-1,2.473709106E0,-6.602630615E-1
6.950229529E0,-9.867858887E-2,2.395935059E0,-7.284393311E-1
6.954257849E0,-1.093444824E-1,2.298995972E0,-7.529449463E-1
6.958286169E0,-1.530151367E-1,2.212722778E0,-7.444152832E-1
6.962283972E0,-2.243804932E-1,2.133880615E0,-7.305755615E-1
6.966312292E0,-3.319702148E-1,2.023101807E0,-7.316436768E-1
6.970340613E0,-4.566192627E-1,1.842010498E0,-7.572021484E-1
6.974338415E0,-5.812530518E-1,1.562911987E0,-7.944946289E-1
6.978366736E0,-6.973571777E-1,1.192199707E0,-8.307037354E-1
6.982395056E0,-7.911071777E-1,7.810058594E-1,-8.466796875E-1
6.986392859E0,-8.784637451E-1,4.369201660E-1,-8.232574463E-1
6.990421179E0,-9.700775146E-1,2.110900879E-1,-7.550659180E-1
6.994418982E0,-1.045700073E0,4.809570312E-2,-6.741180420E-1
6.998447302E0,-1.094711304E0,-7.228088379E-2,-6.038055420E-1
7.002475622E0,-1.123474121E0,-1.234130859E-1,-5.366973877E-1
7.006473425E0,-1.112823486E0,-1.521759033E-1,-4.727783203E-1
7.010501745E0,-1.073394775E0,-1.319274902E-1,-4.035339355E-1
7.014530066E0,-1.015884399E0,-3.498840332E-2,-3.300323486E-1
7.018527868E0,-9.466400146E-1,1.226654053E-1,-2.565307617E-1
7.022556189E0,-8.592834473E-1,3.016357422E-1,-1.904754639E-1
7.026584509E0,-7.591552734E-1,4.816589355E-1,-1.308288574E-1
7.030582312E0,-6.494293213E-1,6.659545898E-1,-7.330322266E-2
7.034610632E0,-5.311889648E-1,8.300018311E-1,-1.470947266E-2
7.038638952E0,-4.108123779E-1,9.525146484E-1,4.707336426E-2
7.042636755E0,-2.851104736E-1,1.026016235E0,1.024627686E-1
7.046665075E0,-1.647338867E-1,1.061172485E0,1.493377686E-1
7.050693396E0,-5.287170410E-2,1.080337524E0,1.951446533E-1
7.054691198E0,3.553771973E-2,1.158111572E0,2.558593750E-1
7.058719519E0,1.260833740E-1,1.185806274E0,2.803649902E-1
7.062747839E0,2.219543457E-1,1.112304688E0,2.931518555E-1
7.066745642E0,3.178405762E-1,9.887237549E-1,3.048706055E-1
7.070773962E0,3.924102783E-1,8.939208984E-1,3.240356445E-1
7.074802282E0,4.488677979E-1,8.300018311E-1,3.368225098E-1
7.078800085E0,4.946746826E-1,7.778015137E-1,3.442840576E-1
7.082828406E0,5.340881348E-1,7.298736572E-1,3.496093750E-1
7.086826208E0,5.660400391E-1,6.936492920E-1,3.549346924E-1
7.090854529E0,5.894775391E-1,6.638183594E-1,3.538665771E-1
7.094882849E0,5.990600586E-1,6.457061768E-1,3.474731445E-1
7.098880652E0,5.969390869E-1,6.297302246E-1,3.368225098E-1
7.102908972E0,5.809478760E-1,6.148223877E-1,3.208465576E-1
7.106937292E0,5.532531738E-1,6.020355225E-1,2.995452881E-1
7.110935095E0,5.117187500E-1,5.796661377E-1,2.718353271E-1
7.114963415E0,4.595184326E-1,5.519714355E-1,2.388153076E-1
7.118991736E0,3.934631348E-1,5.168151855E-1,1.994018555E-1
7.122989538E0,3.210296631E-1,4.667510986E-1,1.525268555E-1
7.127017859E0,2.400665283E-1,4.049682617E-1,1.003417969E-1
7.131046179E0,1.569824219E-1,3.431701660E-1,4.600524902E-2
7.135043982E0,7.920837402E-2,2.877807617E-1,-4.058837891E-3
7.139072302E0,9.979248047E-3,2.441101074E-1,-4.560852051E-2
7.143100622E0,-4.649353027E-2,2.185363770E-1,-8.076477051E-2
7.147098425E0,-8.590698242E-2,2.036285400E-1,-1.095275879E-1
7.151126745E0,-1.125335693E-1,1.940460205E-1,-1.308288574E-1
7.155155066E0,-1.263885498E-1,1.844482422E-1,-1.414794922E-1
7.159152868E0,-1.295776367E-1,1.716766357E-1,-1.414794922E-1
7.163181189E0,-1.242523193E-1,1.556854248E-1,-1.286926270E-1
7.167209509E0,-1.114654541E-1,1.365203857E-1,-1.031341553E-1
7.171207312E0,-9.335327148E-2,1.173400879E-1,-6.690979004E-2
7.175235632E0,-6.565856934E-2,1.066894531E-1,-2.536010742E-2
7.179263952E0,-2.624511719E-2,1.002960205E-1,1.831054688E-2
7.183261755E0,2.275085449E-2,9.922790527E-2,6.198120117E-2
7.187290075E0,7.815551758E-2,1.045532227E-1,1.035308838E-1
7.191287878E0,1.388702393E-1,1.109466553E-1,1.440124512E-1
7.195316198E0,2.081146240E-1,1.056213379E-1,1.866149902E-1
7.199344519E0,2.773590088E-1,9.283447266E-2,2.313690186E-1
7.203342322E0,3.444671631E-1,7.685852051E-2,2.707824707E-1
7.207370642E0,4.126434326E-1,6.195068359E-2,3.059234619E-1
7.211398962E0,4.797515869E-1,5.130004883E-2,3.389587402E-1
7.215396765E0,5.383453369E-1,4.597473145E-2,3.677215576E-1
7.219425085E0,5.916137695E-1,4.490661621E-2,3.986053467E-1
7.223453406E0,6.427459717E-1,4.702758789E-2,4.316253662E-1
7.227451208E0,6.949310303E-1,4.597473145E-2,4.710388184E-1
7.231479529E0,7.492675781E-1,3.318786621E-2,5.275115967E-1
7.235507849E0,7.950744629E-1,-6.225585938E-3,6.042022705E-1
7.239505652E0,8.249053955E-1,-6.800842285E-2,6.947479248E-1
7.243533972E0,8.462066650E-1,-1.074371338E-1,7.927551270E-1
7.247562292E0,8.739013672E-1,-9.251403809E-2,8.683929443E-1
7.251560095E0,8.962707520E-1,-5.203247070E-2,9.099426270E-1
7.255588415E0,8.994750977E-1,7.614135742E-3,9.269866943E-1
7.259616736E0,8.845520020E-1,9.603881836E-2,9.248504639E-1
7.263614538E0,8.462066650E-1,1.823272705E-1,9.184570312E-1
7.267642859E0,7.972106934E-1,2.632751465E-1,9.131317139E-1
7.271671179E0,7.481994629E-1,3.218688965E-1,9.003448486E-1
7.275668982E0,7.183685303E-1,3.591613770E-1,8.907623291E-1
7.279697302E0,7.279663086E-1,4.273376465E-1,9.024810791E-1
7.283695105E0,7.300872803E-1,4.454498291E-1,8.907623291E-1
7.287723425E0,6.864166260E-1,3.261260986E-1,8.662567139E-1
7.291751745E0,6.203765869E-1,1.397094727E-1,8.417510986E-1
7.295749548E0,5.436706543E-1,-6.907653809E-2,8.097991943E-1
7.299777868E0,4.627075195E-1,-2.874603271E-1,7.639923096E-1
7.303806189E0,3.902740479E-1,-4.813385010E-1,6.936798096E-1
7.307803991E0,3.295593262E-1,-6.166229248E-1,5.956878662E-1
7.311832312E0,2.901306152E-1,-6.869354248E-1,4.817047119E-1
7.315860632E0,2.730865479E-1,-6.965179443E-1,3.613281250E-1
7.319858435E0,2.794799805E-1,-6.475219727E-1,2.388153076E-1
7.323886755E0,3.007965088E-1,-5.740203857E-1,1.173858643E-1
7.327915075E0,3.242187500E-1,-4.983825684E-1,4.455566406E-3
7.331912878E0,3.466033936E-1,-4.078369141E-1,-1.031341553E-1
7.335941198E0,3.625793457E-1,-2.885284424E-1,-1.894226074E-1
7.339969519E0,3.732299805E-1,-1.681518555E-1,-2.575988770E-1
7.343967322E0,3.817443848E-1,-9.251403809E-2,-3.087310791E-1
7.347995642E0,3.913421631E-1,-8.718872070E-2,-3.385620117E-1
7.352023962E0,4.115753174E-1,-1.479034424E-1,-3.481445312E-1
7.356021765E0,4.499206543E-1,-2.384643555E-1,-3.278961182E-1
7.360050085E0,4.957275391E-1,-3.332672119E-1,-2.799682617E-1
7.364078406E0,5.372772217E-1,-4.216766357E-1,-2.128601074E-1
7.368076208E0,5.649719238E-1,-4.919891357E-1,-1.404113770E-1
7.372104529E0,5.713653564E-1,-5.335388184E-1,-6.584167480E-2
7.376132849E0,5.543212891E-1,-5.740203857E-1,1.084899902E-2
7.380130652E0,5.213012695E-1,-6.155548096E-1,8.862304688E-2
7.384158972E0,4.797515869E-1,-6.517791748E-1,1.685180664E-1
7.388156775E0,4.403381348E-1,-6.709594727E-1,2.494659424E-1
7.392185095E0,4.083862305E-1,-6.762847900E-1,3.314971924E-1
7.396213415E0,3.828125000E-1,-6.826782227E-1,4.060668945E-1
7.400211218E0,3.657684326E-1,-6.826782227E-1,4.742431641E-1
7.404239538E0,3.593750000E-1,-6.411285400E-1,5.434875488E-1
7.408267859E0,3.636474609E-1,-5.953216553E-1,5.988769531E-1
7.412265661E0,3.710937500E-1,-5.836029053E-1,6.393585205E-1
7.416293982E0,3.870697021E-1,-5.644226074E-1,6.787719727E-1
7.420322302E0,4.062500000E-1,-5.399322510E-1,7.096710205E-1
7.424320105E0,4.232940674E-1,-5.186157227E-1,7.384338379E-1
7.428348425E0,4.392700195E-1,-5.079650879E-1,7.629241943E-1
7.432376745E0,4.520568848E-1,-5.058441162E-1,7.757110596E-1
7.436374548E0,4.659118652E-1,-5.122375488E-1,7.767791748E-1
7.440402868E0,4.776306152E-1,-5.282135010E-1,7.725219727E-1
7.444431189E0,4.861450195E-1,-5.537719727E-1,7.618560791E-1
7.448428991E0,4.978637695E-1,-5.750885010E-1,7.480163574E-1
7.452457312E0,5.149078369E-1,-5.814666748E-1,7.309722900E-1
7.456485632E0,5.404815674E-1,-5.782775879E-1,7.043457031E-1
7.460483435E0,5.777587891E-1,-5.367279053E-1,6.809082031E-1
7.464511755E0,6.235656738E-1,-4.600372314E-1,6.585388184E-1
7.468540075E0,6.746978760E-1,-4.216766357E-1,6.351013184E-1
7.472537878E0,7.151794434E-1,-4.855957031E-1,6.052703857E-1
7.476566198E0,7.460632324E-1,-5.772094727E-1,5.796966553E-1
7.480564001E0,7.780303955E-1,-5.931854248E-1,5.711822510E-1
7.484592322E0,8.217010498E-1,-5.527038574E-1,5.690460205E-1
7.488620642E0,8.802947998E-1,-5.175628662E-1,5.637207031E-1
7.492618445E0,9.324951172E-1,-5.463256836E-1,5.573272705E-1
7.496646765E0,9.687042236E-1,-6.240844727E-1,5.424194336E-1
7.500675085E0,1.002792358E0,-6.421966553E-1,5.370941162E-1
7.504672888E0,1.032623291E0,-6.880035400E-1,5.232391357E-1
7.508701208E0,1.056060791E0,-7.391357422E-1,5.115203857E-1
7.512729529E0,1.084823608E0,-7.369995117E-1,4.976806641E-1
7.516727331E0,1.116775513E0,-7.497863770E-1,4.763793945E-1
7.520755652E0,1.135955811E0,-7.870635986E-1,4.518737793E-1
7.524783972E0,1.151931763E0,-7.583007812E-1,4.305725098E-1
7.528781775E0,1.161529541E0,-7.263488770E-1,4.018096924E-1
7.532810095E0,1.161529541E0,-7.306060791E-1,3.677215576E-1
7.536838415E0,1.155136108E0,-6.943969727E-1,3.410797119E-1
7.540836218E0,1.154067993E0,-6.400604248E-1,3.133850098E-1
7.544864538E0,1.156204224E0,-6.038360596E-1,2.878265381E-1
7.548892859E0,1.156204224E0,-5.910644531E-1,2.590637207E-1
7.552890661E0,1.148742676E0,-5.963897705E-1,2.260284424E-1
7.556918982E0,1.140213013E0,-5.750885010E-1,1.908874512E-1
7.560947302E0,1.131698608E0,-5.292816162E-1,1.525268555E-1
7.564945105E0,1.116775513E0,-4.973144531E-1,1.109924316E-1
7.568973425E0,1.093353271E0,-4.717559814E-1,6.623840332E-2
7.572971228E0,1.062454224E0,-4.472503662E-1,1.617431641E-2
7.576999548E0,1.020904541E0,-4.429931641E-1,-3.602600098E-2
7.581027868E0,9.687042236E-1,-4.355316162E-1,-9.353637695E-2
7.585025671E0,9.101257324E-1,-3.961181641E-1,-1.521301270E-1
7.589053991E0,8.462066650E-1,-3.620300293E-1,-2.064666748E-1
7.593082312E0,7.695007324E-1,-3.843994141E-1,-2.618560791E-1
7.597080114E0,6.917419434E-1,-3.833312988E-1,-2.980804443E-1
7.601108435E0,6.203765869E-1,-3.471069336E-1,-3.204498291E-1
7.605136755E0,5.596466064E-1,-3.343353271E-1,-3.364257812E-1
7.609134558E0,5.053253174E-1,-3.449859619E-1,-3.428192139E-1
7.613162878E0,4.531250000E-1,-3.886566162E-1,-3.428192139E-1
7.617191198E0,3.977355957E-1,-4.621582031E-1,-3.342895508E-1
7.621189001E0,3.508605957E-1,-4.270019531E-1,-3.012695312E-1
7.625217322E0,3.157043457E-1,-3.609619141E-1,-2.714385986E-1
7.629245642E0,2.784118652E-1,-3.471069336E-1,-2.490692139E-1
7.633243445E0,2.283477783E-1,-3.790740967E-1,-2.203063965E-1
7.637271765E0,1.804199219E-1,-3.226165771E-1,-1.819610596E-1
7.641300085E0,1.324768066E-1,-2.523040771E-1,-1.436157227E-1
7.645297888E0,7.495117188E-2,-2.214202881E-1,-1.042022705E-1
7.649326208E0,2.517700195E-3,-2.597656250E-1,-7.116699219E-2
7.653354529E0,-6.779479980E-2,-2.203521729E-1,-2.963256836E-2
7.657352331E0,-1.231842041E-1,-1.393890381E-1,6.591796875E-3
7.661380652E0,-1.764526367E-1,-7.972717285E-2,3.109741211E-2
7.665408972E0,-2.360992432E-1,-4.777526855E-2,5.133056641E-2
7.669406775E0,-2.893676758E-1,-2.114868164E-2,6.091308594E-2
7.673435095E0,-3.436889648E-1,1.678466797E-4,6.198120117E-2
7.677432898E0,-4.012145996E-1,7.792663574E-2,6.837463379E-2
7.681461218E0,-4.608764648E-1,1.727294922E-1,7.157897949E-2
7.685489538E0,-5.365142822E-1,2.345275879E-1,6.518554688E-2
7.689487341E0,-6.291809082E-1,2.696685791E-1,4.919433594E-2
7.693515661E0,-7.367706299E-1,2.931060791E-1,2.363586426E-2
7.697543982E0,-8.475646973E-1,3.080291748E-1,-1.258850098E-2
7.701541784E0,-9.530334473E-1,3.133544922E-1,-6.478881836E-2
7.705570105E0,-1.046768188E0,3.154754639E-1,-1.329650879E-1
7.709598425E0,-1.122406006E0,3.122863770E-1,-2.064666748E-1
7.713596228E0,-1.173538208E0,3.080291748E-1,-2.906188965E-1
7.717624548E0,-1.200164795E0,2.994995117E-1,-3.800964355E-1
7.721652868E0,-1.215087891E0,2.739410400E-1,-4.685211182E-1
7.725650671E0,-1.222534180E0,2.462310791E-1,-5.505371094E-1
7.729678991E0,-1.229995728E0,2.238616943E-1,-6.229858398E-1
7.733707312E0,-1.238510132E0,2.046966553E-1,-6.815643311E-1
7.737705114E0,-1.244903564E0,2.121429443E-1,-7.326965332E-1
7.741733435E0,-1.250228882E0,2.366485596E-1,-7.763824463E-1
7.745761755E0,-1.259826660E0,2.664794922E-1,-8.147277832E-1
7.749759558E0,-1.274734497E0,2.984313965E-1,-8.456268311E-1
7.753787878E0,-1.298171997E0,3.250732422E-1,-8.626708984E-1
7.757816198E0,-1.325866699E0,3.538360596E-1,-8.637237549E-1
7.761814001E0,-1.349304199E0,3.879241943E-1,-8.637237549E-1
7.765842322E0,-1.364212036E0,4.369201660E-1,-8.690490723E-1
7.769870642E0,-1.368484497E0,5.189514160E-1,-8.797149658E-1
7.773868445E0,-1.363159180E0,6.403808594E-1,-8.903656006E-1
7.777896765E0,-1.343978882E0,7.980499268E-1,-8.967590332E-1
7.781894568E0,-1.315216064E0,9.908599854E-1,-8.903656006E-1
7.785922888E0,-1.285385132E0,1.182601929E0,-8.829040527E-1
7.789951208E0,-1.259826660E0,1.337066650E0,-8.871612549E-1
7.793949011E0,-1.236389160E0,1.424423218E0,-9.095306396E-1
7.797977331E0,-1.224670410E0,1.429748535E0,-9.489440918E-1
7.802005652E0,-1.217208862E0,1.381805420E0,-9.968872070E-1
7.806003454E0,-1.204421997E0,1.315765381E0,-1.046951294E0
7.810031775E0,-1.172470093E0,1.180480957E0,-1.075714111E0
7.814060095E0,-1.110687256E0,9.652862549E-1,-1.058670044E0
7.818057898E0,-1.026535034E0,7.021636963E-1,-9.777069092E-1
7.822086218E0,-9.359893799E-1,4.294586182E-1,-8.328399658E-1
7.826114538E0,-8.731384277E-1,1.684722900E-1,-6.315002441E-1
7.830112341E0,-8.784637451E-1,-4.777526855E-2,-3.918151855E-1
7.834140661E0,-9.721984863E-1,-1.819915771E-1,-1.382904053E-1
7.838168982E0,-1.139450073E0,-1.937103271E-1,8.541870117E-2
7.842166784E0,-1.329071045E0,-1.063690186E-1,2.356262207E-1
7.846195105E0,-1.494186401E0,2.253723145E-2,3.038024902E-1
7.850223425E0,-1.602844238E0,1.663360596E-1,3.240356445E-1
7.854221228E0,-1.659301758E0,3.261260986E-1,3.101959229E-1
7.858249548E0,-1.667816162E0,4.880523682E-1,2.590637207E-1
7.862277868E0,-1.623077393E0,6.457061768E-1,1.834259033E-1
7.866275671E0,-1.532531738E0,8.129577637E-1,1.152496338E-1
7.870303991E0,-1.407897949E0,9.844665527E-1,7.263183594E-2
7.874301794E0,-1.266220093E0,1.148513794E0,3.642272949E-2
7.878330114E0,-1.123474121E0,1.332809448E0,-1.937866211E-3
7.882358435E0,-9.839172363E-1,1.552246094E0,-6.372070312E-2
7.886356238E0,-8.411712646E-1,1.788742065E0,-1.500091553E-1
7.890384558E0,-7.005615234E-1,2.011383057E0,-2.266998291E-1
7.894412878E0,-5.652770996E-1,2.202056885E0,-2.831573486E-1
7.898410681E0,-4.427642822E-1,2.327758789E0,-3.417510986E-1
7.902439001E0,-3.543548584E-1,2.366119385E0,-4.088592529E-1
7.906467322E0,-3.021545410E-1,2.338424683E0,-4.727783203E-1
7.910465124E0,-2.936248779E-1,2.255325317E0,-5.292358398E-1
7.914493445E0,-3.447570801E-1,2.114715576E0,-5.729064941E-1
7.918521765E0,-4.449005127E-1,1.944274902E0,-5.963439941E-1
7.922519568E0,-5.833740234E-1,1.780212402E0,-5.995483398E-1
7.926547888E0,-7.303924561E-1,1.615097046E0,-5.931549072E-1
7.930576208E0,-8.624725342E-1,1.463836670E0,-5.803680420E-1
7.934574011E0,-9.785919189E-1,1.332809448E0,-5.633239746E-1
7.938602331E0,-1.071273804E0,1.176208496E0,-5.558624268E-1
7.942630652E0,-1.135192871E0,9.993743896E-1,-5.537414551E-1
7.946628454E0,-1.172470093E0,8.449096680E-1,-5.473480225E-1
7.950656775E0,-1.179931641E0,7.309265137E-1,-5.207214355E-1
7.954685095E0,-1.157562256E0,6.467742920E-1,-4.749145508E-1
7.958682898E0,-1.105361938E0,5.924530029E-1,-4.312286377E-1
7.962711218E0,-1.031860352E0,5.764770508E-1,-3.864898682E-1
7.966709021E0,-9.562225342E-1,6.244049072E-1,-3.385620117E-1
7.970737341E0,-8.763275146E-1,7.042999268E-1,-2.863616943E-1
7.974765661E0,-7.815246582E-1,7.927246094E-1,-2.266998291E-1
7.978763464E0,-6.813812256E-1,8.885955811E-1,-1.606597900E-1
7.982791784E0,-5.791168213E-1,9.897918701E-1,-8.821105957E-2
7.986820105E0,-4.736633301E-1,1.084594727E0,-1.365661621E-2
7.990817907E0,-3.735198975E-1,1.165557861E0,6.623840332E-2
7.994846228E0,-2.840423584E-1,1.228408813E0,1.535949707E-1
7.998874548E0,-2.020111084E-1,1.269958496E0,2.366943359E-1
8.002872351E0,-1.370391846E-1,1.297653198E0,3.144531250E-1
8.006900671E0,-8.802795410E-2,1.334945679E0,3.868865967E-1
8.010928991E0,-3.370666504E-2,1.328552246E0,4.433441162E-1
8.014926794E0,3.128051758E-2,1.287002563E0,4.902191162E-1
8.018955114E0,1.037139893E-1,1.234802246E0,5.232391357E-1
8.022983435E0,1.814727783E-1,1.185806274E0,5.434875488E-1
8.026981238E0,2.549896240E-1,1.144256592E0,5.520019531E-1
8.031009558E0,3.220977783E-1,1.103775024E0,5.488128662E-1
8.035037878E0,3.796234131E-1,1.061172485E0,5.338897705E-1
8.039035681E0,4.254302979E-1,1.017486572E0,5.104675293E-1
8.043064001E0,4.605865479E-1,9.759368896E-1,4.785003662E-1
8.047092322E0,4.840087891E-1,9.386596680E-1,4.401550293E-1
8.051090124E0,4.978637695E-1,9.045715332E-1,3.986053467E-1
8.055118445E0,5.042572021E-1,8.704833984E-1,3.581237793E-1
8.059146765E0,5.010528564E-1,8.353271484E-1,3.165893555E-1
8.063144568E0,4.861450195E-1,8.023071289E-1,2.739715576E-1
8.067172888E0,4.659118652E-1,7.692871094E-1,2.313690186E-1
8.071170691E0,4.392700195E-1,7.394561768E-1,1.908874512E-1
8.075199011E0,4.062500000E-1,7.117614746E-1,1.557312012E-1
8.079227331E0,3.689727783E-1,6.915130615E-1,1.237640381E-1
8.083225134E0,3.263549805E-1,6.734161377E-1,9.606933594E-2
8.087253454E0,2.826843262E-1,6.648864746E-1,7.263183594E-2
8.091281775E0,2.379455566E-1,6.595611572E-1,5.346679688E-2
8.095279577E0,1.910705566E-1,6.563720703E-1,3.961181641E-2
8.099307898E0,1.431274414E-1,6.574249268E-1,3.215026855E-2
8.103336218E0,9.413146973E-2,6.584930420E-1,3.321838379E-2
8.107334021E0,3.660583496E-2,6.595611572E-1,3.854370117E-2
8.111362341E0,-2.198791504E-2,6.553039551E-1,4.386901855E-2
8.115390661E0,-8.377075195E-2,6.425170898E-1,5.133056641E-2
