"Time (s)","Gyroscope x (rad/s)","Gyroscope y (rad/s)","Gyroscope z (rad/s)"
0.000000000E0,7.476990670E-2,9.296321869E-1,4.702615142E-1
3.970313000E-3,5.822418258E-2,9.423207045E-1,4.690048695E-1
7.940625000E-3,4.501204193E-2,9.505935907E-1,4.727224410E-1
1.191250000E-2,3.104940802E-2,8.897863030E-1,4.977678955E-1
1.588281300E-2,2.443460980E-3,8.188211918E-1,5.275257826E-1
1.985312500E-2,-4.518657550E-2,7.992735505E-1,5.394987464E-1
2.382343800E-2,-1.049117446E-1,8.113511801E-1,5.423086882E-1
2.779375000E-2,-1.566258520E-1,8.558920026E-1,5.523617864E-1
3.176406300E-2,-1.853190660E-1,9.182351828E-1,5.727472305E-1
3.573437500E-2,-1.916022450E-1,9.953263402E-1,6.034824848E-1
3.970468800E-2,-1.820901930E-1,1.080463529E0,6.414783001E-1
4.367500000E-2,-1.662077010E-1,1.171133399E0,6.832963824E-1
4.764687500E-2,-1.480562836E-1,1.264333963E0,7.232469916E-1
5.161718800E-2,-1.314232945E-1,1.355492473E0,7.622725368E-1
5.558750000E-2,-1.188045591E-1,1.438256025E0,8.013504744E-1
5.955781300E-2,-1.063429117E-1,1.511472583E0,8.323300481E-1
6.352812500E-2,-9.196139872E-2,1.582926393E0,8.569391966E-1
6.749843800E-2,-7.480481267E-2,1.658324599E0,8.848819137E-1
7.147031300E-2,-5.229006335E-2,1.744316936E0,9.218130708E-1
7.544062500E-2,-2.111848444E-2,1.854220390E0,9.677152634E-1
7.941093800E-2,2.190388180E-2,1.974421144E0,1.019743562E0
8.338125000E-2,7.588691264E-2,2.110347509E0,1.078316808E0
8.735156300E-2,1.363102198E-1,2.251911163E0,1.134533882E0
9.132187500E-2,1.969604045E-1,2.403423071E0,1.186980963E0
9.529218800E-2,2.588148713E-1,2.556104422E0,1.235274196E0
9.926406300E-2,3.131993413E-1,2.696324348E0,1.275416851E0
1.032343750E-1,3.602010608E-1,2.829248428E0,1.310428143E0
1.072046880E-1,3.936764598E-1,2.955697536E0,1.339418054E0
1.111750000E-1,4.135383070E-1,3.066962481E0,1.360972881E0
1.151453130E-1,4.220380783E-1,3.172153473E0,1.373975515E0
1.191156250E-1,4.230329096E-1,3.245352507E0,1.375860453E0
1.230859380E-1,4.145855010E-1,3.299038887E0,1.365528107E0
1.270562500E-1,3.970100582E-1,3.329459906E0,1.345805883E0
1.310281250E-1,3.751236200E-1,3.342200756E0,1.324704885E0
1.349968750E-1,3.451737761E-1,3.344155550E0,1.299781561E0
1.389687500E-1,3.120823205E-1,3.340891838E0,1.274317265E0
1.429390630E-1,2.716779411E-1,3.345900774E0,1.251261473E0
1.469093750E-1,2.191609889E-1,3.371138334E0,1.233057618E0
1.508812500E-1,1.588075012E-1,3.413532495E0,1.213876486E0
1.548500000E-1,9.367182106E-2,3.473519325E0,1.194573164E0
1.588203130E-1,3.649483621E-2,3.532249689E0,1.167869568E0
1.627921880E-1,-7.906341925E-3,3.563683033E0,1.132753611E0
1.667625000E-1,-3.858922794E-2,3.559092760E0,1.095002174E0
1.707328130E-1,-5.880014226E-2,3.519508839E0,1.059083223E0
1.747031250E-1,-6.707300246E-2,3.444302559E0,1.030913591E0
1.786734380E-1,-6.366961449E-2,3.359514475E0,1.012273550E0
1.826437500E-1,-4.276056588E-2,3.264358997E0,1.012954235E0
1.866156250E-1,1.291543618E-2,3.152727842E0,1.053620338E0
1.905859380E-1,9.023351967E-2,3.057328224E0,1.130921006E0
1.945562500E-1,1.632930040E-1,3.007289648E0,1.199599743E0
1.985265630E-1,2.169444263E-1,2.995770454E0,1.242220640E0
2.024968750E-1,2.583261728E-1,3.013537884E0,1.258731484E0
2.064671880E-1,2.936342061E-1,3.044098616E0,1.259865880E0
2.104390630E-1,3.358013332E-1,3.068184137E0,1.252326131E0
2.144078130E-1,3.896971047E-1,3.101380348E0,1.243582010E0
2.183796880E-1,4.526686072E-1,3.143896580E0,1.238729954E0
2.223500000E-1,5.231449604E-1,3.204965591E0,1.238520503E0
2.263203130E-1,5.976530910E-1,3.289072990E0,1.239078999E0
2.302906250E-1,6.690195799E-1,3.384926558E0,1.240580082E0
2.342609380E-1,7.428819537E-1,3.483816862E0,1.243669271E0
2.382312500E-1,8.190306425E-1,3.586861134E0,1.245990515E0
2.422031250E-1,9.025446773E-1,3.686711311E0,1.252745032E0
2.461734380E-1,9.842609763E-1,3.766821861E0,1.269866705E0
2.501437500E-1,1.079905033E0,3.837228537E0,1.293899894E0
2.541140630E-1,1.193491101E0,3.882554770E0,1.328178048E0
2.580843750E-1,1.305174708E0,3.893009186E0,1.363154531E0
2.620546880E-1,1.402965426E0,3.878418207E0,1.393819928E0
2.660250000E-1,1.467315793E0,3.853058577E0,1.415496945E0
2.699968750E-1,1.489376664E0,3.810943842E0,1.431850672E0
2.739656250E-1,1.471783757E0,3.753016472E0,1.443631649E0
2.779375000E-1,1.411360502E0,3.674214840E0,1.451363444E0
2.819078130E-1,1.325280905E0,3.563543558E0,1.458205104E0
2.858781250E-1,1.233284593E0,3.430200338E0,1.456390023E0
2.898484380E-1,1.132509232E0,3.283243656E0,1.446267128E0
2.938187500E-1,1.015327811E0,3.117018461E0,1.427225590E0
2.977890630E-1,8.940100074E-1,2.940164089E0,1.398479939E0
3.017609380E-1,7.732332349E-1,2.743762255E0,1.358319998E0
3.057312500E-1,6.472378969E-1,2.557239056E0,1.309450746E0
3.097296880E-1,5.198463202E-1,2.387872219E0,1.255921483E0
3.136718750E-1,3.759613633E-1,2.205886841E0,1.197697282E0
3.176421880E-1,2.292140871E-1,2.001124620E0,1.143993497E0
3.216125000E-1,5.546656251E-2,1.773237109E0,1.081074357E0
3.255843750E-1,-1.218239814E-1,1.579208851E0,1.010336161E0
3.295546880E-1,-2.972819209E-1,1.440804243E0,9.346587062E-1
3.335234380E-1,-4.503473043E-1,1.382283330E0,8.617911935E-1
3.374953130E-1,-5.638809800E-1,1.395024180E0,8.019962311E-1
3.414656250E-1,-6.392617226E-1,1.447942615E0,7.559893727E-1
3.454359380E-1,-6.816208959E-1,1.513392448E0,7.289367318E-1
3.494062500E-1,-6.992835999E-1,1.567043900E0,7.205242515E-1
3.533765630E-1,-7.010114789E-1,1.597604632E0,7.255682945E-1
3.573468750E-1,-6.975382566E-1,1.607832193E0,7.363718748E-1
3.613187500E-1,-6.973811984E-1,1.611829042E0,7.506312132E-1
3.652890630E-1,-7.012558579E-1,1.610310555E0,7.668452859E-1
3.692593750E-1,-7.055842280E-1,1.613207817E0,7.795163989E-1
3.732296880E-1,-7.076088190E-1,1.633087158E0,7.912450433E-1
3.772000000E-1,-7.060380578E-1,1.659336925E0,8.027293086E-1
3.811703130E-1,-7.008194923E-1,1.689234376E0,8.186641335E-1
3.851421880E-1,-6.810972691E-1,1.731034994E0,8.354716301E-1
3.891125000E-1,-6.524738669E-1,1.780480146E0,8.616690636E-1
3.930828130E-1,-6.153507233E-1,1.820779800E0,8.961916566E-1
3.970531250E-1,-5.749463439E-1,1.849211216E0,9.353044629E-1
4.010234380E-1,-5.305626392E-1,1.863383293E0,9.750107527E-1
4.049937500E-1,-4.830198586E-1,1.862737536E0,1.008556008E0
4.089640630E-1,-4.288972020E-1,1.844795585E0,1.030861259E0
4.129343750E-1,-3.719122112E-1,1.814967871E0,1.035922766E0
4.169062500E-1,-3.205995262E-1,1.791964412E0,1.026864409E0
4.208765630E-1,-2.784672678E-1,1.782958508E0,1.004925728E0
4.248468750E-1,-2.446078956E-1,1.782277822E0,9.805085063E-1
4.288171880E-1,-2.169618756E-1,1.771282315E0,9.532464743E-1
4.327875000E-1,-1.900489032E-1,1.735031843E0,9.158964157E-1
4.367578130E-1,-1.575857848E-1,1.659930229E0,8.620355725E-1
4.407296880E-1,-1.058018580E-1,1.513950944E0,8.076336384E-1
4.447000000E-1,-3.960151970E-2,1.398951173E0,7.531270385E-1
4.486703130E-1,2.975786291E-2,1.342961073E0,6.866823435E-1
4.526406250E-1,9.630727023E-2,1.312574863E0,6.181607246E-1
4.566109380E-1,1.556659192E-1,1.295208812E0,5.689598918E-1
4.605812500E-1,2.071182281E-1,1.275312066E0,5.445252657E-1
4.645515630E-1,2.422167957E-1,1.261087656E0,5.440540314E-1
4.685234380E-1,2.688156068E-1,1.271193147E0,5.670923591E-1
4.724921880E-1,2.920110226E-1,1.310724854E0,6.135879755E-1
4.764640630E-1,3.137229383E-1,1.360536456E0,6.898413897E-1
4.804343750E-1,3.085741997E-1,1.358424664E0,8.192575574E-1
4.844031250E-1,2.955889702E-1,1.418725729E0,9.581857324E-1
4.883750000E-1,3.091850877E-1,1.570883632E0,1.071771741E0
4.923453130E-1,3.458893597E-1,1.752607226E0,1.180226564E0
4.963156250E-1,3.753330410E-1,1.884414554E0,1.300165534E0
5.002875000E-1,3.747920096E-1,1.970511675E0,1.463510990E0
5.042578130E-1,3.039316237E-1,1.922131062E0,1.710143447E0
5.082281250E-1,1.866629571E-1,1.768507242E0,2.020689726E0
5.121984380E-1,3.382448107E-2,1.637241006E0,2.360610247E0
5.161687500E-1,-1.017876044E-1,1.584636807E0,2.672867060E0
5.201390630E-1,-2.134886682E-1,1.519326568E0,2.931926250E0
5.241109380E-1,-2.894105017E-1,1.370607018E0,3.115674496E0
5.280796880E-1,-3.469889164E-1,1.170644641E0,3.239173889E0
5.320500000E-1,-3.889466226E-1,9.556375742E-1,3.309580564E0
5.360218750E-1,-4.149345756E-1,7.506835461E-1,3.330192804E0
5.399921880E-1,-4.242720902E-1,5.526410341E-1,3.311482906E0
5.439625000E-1,-4.218809903E-1,3.421194255E-1,3.267134190E0
5.479328130E-1,-4.141840935E-1,1.368687153E-1,3.208299160E0
5.519031250E-1,-4.073424041E-1,-4.110250250E-2,3.146427155E0
5.558750000E-1,-4.057017863E-1,-2.018124163E-1,3.086475134E0
5.598453130E-1,-4.099429250E-1,-3.353824615E-1,3.030816555E0
5.638156250E-1,-4.187219441E-1,-4.221602380E-1,2.984233856E0
5.677859380E-1,-4.315501153E-1,-4.583409131E-1,2.942293406E0
5.717562500E-1,-4.498062432E-1,-4.441339374E-1,2.896600723E0
5.757265630E-1,-4.655491114E-1,-3.957184851E-1,2.844485283E0
5.796968750E-1,-4.770508409E-1,-3.186447620E-1,2.785615206E0
5.836687500E-1,-4.810999930E-1,-2.330363542E-1,2.711979866E0
5.876375000E-1,-4.773475528E-1,-1.466076523E-1,2.619791508E0
5.916093750E-1,-4.649208188E-1,-7.901105285E-2,2.508038044E0
5.955796880E-1,-4.439244866E-1,-1.689478755E-2,2.371518373E0
5.995500000E-1,-4.194724262E-1,5.066690966E-2,2.214630842E0
6.035203130E-1,-3.972893059E-1,7.824310660E-2,2.060762644E0
6.074906250E-1,-3.680375814E-1,6.887069345E-2,1.919198990E0
6.114609380E-1,-3.212802112E-1,3.253293782E-2,1.764458060E0
6.154328130E-1,-2.630211115E-1,-1.635373570E-2,1.601706147E0
6.194031250E-1,-1.936268210E-1,-7.143632323E-2,1.448640704E0
6.233734380E-1,-1.169719696E-1,-1.187696531E-1,1.297146201E0
6.273437500E-1,-4.024729133E-2,-1.514422148E-1,1.154116392E0
6.313140630E-1,3.364994749E-2,-1.694540232E-1,1.031454682E0
6.352843750E-1,9.733701497E-2,-1.739744246E-1,9.293005466E-1
6.392562500E-1,1.487195045E-1,-1.710771769E-1,8.483347297E-1
6.432265630E-1,1.849874407E-1,-1.641656756E-1,7.918558717E-1
6.471968750E-1,2.140122652E-1,-1.507789940E-1,7.527430654E-1
6.511671880E-1,2.358812541E-1,-1.224522963E-1,7.354642749E-1
6.551375000E-1,2.476098537E-1,-8.134979755E-2,7.341203690E-1
6.591078130E-1,2.541199327E-1,-2.441715635E-2,7.446272969E-1
6.630781250E-1,2.579247653E-1,3.995058686E-2,7.604748607E-1
6.670484380E-1,2.610139847E-1,1.071632132E-1,7.797956467E-1
6.710187500E-1,2.637890577E-1,1.659459025E-1,7.958352566E-1
6.749906250E-1,2.693217695E-1,2.156005204E-1,8.066388369E-1
6.789609380E-1,2.740690410E-1,2.533694506E-1,8.063071966E-1
6.829312500E-1,2.798286378E-1,2.817310393E-1,7.943342328E-1
6.869015630E-1,2.864434421E-1,3.038792610E-1,7.689222693E-1
6.908718750E-1,2.934422195E-1,3.195872307E-1,7.299490571E-1
6.948421880E-1,2.984338403E-1,3.262543976E-1,6.768735647E-1
6.988140630E-1,2.979277074E-1,3.221179545E-1,6.171309948E-1
7.027843750E-1,2.898293734E-1,3.064274490E-1,5.529028773E-1
7.067531250E-1,2.776295245E-1,2.848900855E-1,4.878544211E-1
7.107250000E-1,2.610488832E-1,2.642079294E-1,4.278325438E-1
7.146953130E-1,2.440668344E-1,2.460216135E-1,3.816162348E-1
7.186656250E-1,2.224945724E-1,2.259328663E-1,3.444232643E-1
7.226359380E-1,2.024058253E-1,2.062281072E-1,3.184702396E-1
7.266062500E-1,1.825788915E-1,1.892111450E-1,3.043330610E-1
7.305765630E-1,1.616000384E-1,1.751263440E-1,2.983814776E-1
7.345484380E-1,1.388234943E-1,1.691922098E-1,2.981894910E-1
7.385187500E-1,1.152615398E-1,1.712691635E-1,2.807711065E-1
7.424890630E-1,9.016370773E-2,1.749692559E-1,2.111150324E-1
7.464593750E-1,6.462953985E-2,1.760862619E-1,1.570970863E-1
7.504296880E-1,4.564036056E-2,1.787740737E-1,1.303586364E-1
7.544000000E-1,2.850122750E-2,1.853539646E-1,1.301666498E-1
7.583718750E-1,5.078908056E-3,1.851270795E-1,1.515120268E-1
7.623406250E-1,-2.405063622E-2,1.839926094E-1,1.762084365E-1
7.663125000E-1,-5.920156837E-2,2.008350343E-1,1.968033314E-1
7.702828130E-1,-1.002691686E-1,2.482730895E-1,2.087937444E-1
7.742531250E-1,-1.437976807E-1,3.199363053E-1,2.122320384E-1
7.782234380E-1,-1.899267286E-1,4.187393785E-1,2.117608041E-1
7.821953130E-1,-2.400351316E-1,5.249077678E-1,2.129825205E-1
7.861640630E-1,-2.923949957E-1,6.319139004E-1,2.184279561E-1
7.901343750E-1,-3.429223001E-1,7.245559692E-1,2.252696455E-1
7.941062500E-1,-3.922278285E-1,8.000589013E-1,2.321636975E-1
7.980765630E-1,-4.406083822E-1,8.554033041E-1,2.311165035E-1
8.020468750E-1,-4.845383167E-1,8.961741924E-1,2.252696455E-1
8.060171880E-1,-5.211378336E-1,9.298416376E-1,2.115513533E-1
8.099875000E-1,-5.488886237E-1,9.593725801E-1,1.932253987E-1
8.139593750E-1,-5.726774335E-1,9.821316600E-1,1.724908948E-1
8.179296880E-1,-5.942322612E-1,9.998118877E-1,1.517214775E-1
8.219000000E-1,-6.198711395E-1,1.009987116E0,1.317025423E-1
8.258703130E-1,-6.479185820E-1,1.011889577E0,1.136907488E-1
8.298406250E-1,-6.781302094E-1,1.006670952E0,9.770353138E-2
8.338109380E-1,-7.060380578E-1,1.001976013E0,8.374089748E-2
8.377828130E-1,-7.334746122E-1,1.004506826E0,7.274532318E-2
8.417531250E-1,-7.546454668E-1,1.019324660E0,6.323327869E-2
8.457218750E-1,-7.723430991E-1,1.042450309E0,5.459389836E-2
8.496937500E-1,-7.870387435E-1,1.076484203E0,4.782202095E-2
8.536640630E-1,-7.988546491E-1,1.116661668E0,4.139921069E-2
8.576343750E-1,-8.117177486E-1,1.167188883E0,3.686135262E-2
8.616046880E-1,-8.244062662E-1,1.221608281E0,3.235840425E-2
8.655750000E-1,-8.382467031E-1,1.285469890E0,2.757620253E-2
8.695453130E-1,-8.478809595E-1,1.355998635E0,2.422516979E-2
8.735171880E-1,-8.498008251E-1,1.425602436E0,2.499311417E-2
8.774875000E-1,-8.442681432E-1,1.492797613E0,4.415683076E-2
8.814578130E-1,-8.413184881E-1,1.564198971E0,7.503170520E-2
8.854281250E-1,-8.431162238E-1,1.634797573E0,1.187696531E-1
8.893984380E-1,-8.360650539E-1,1.683911085E0,1.640783995E-1
8.933687500E-1,-8.137597442E-1,1.711155653E0,2.037148327E-1
8.973390630E-1,-7.776663303E-1,1.743653774E0,2.363350391E-1
9.013093750E-1,-7.380124927E-1,1.797898531E0,2.639636099E-1
9.052796880E-1,-7.047639489E-1,1.868357539E0,2.845584750E-1
9.092515630E-1,-6.757915020E-1,1.933720112E0,2.961125672E-1
9.132218750E-1,-6.528753042E-1,1.974857450E0,2.985211015E-1
9.171921880E-1,-6.288421154E-1,1.999571323E0,2.964267135E-1
9.211625000E-1,-6.049660444E-1,2.009327650E0,2.924299240E-1
9.251328130E-1,-5.805314183E-1,2.009903669E0,2.910685539E-1
9.291031250E-1,-5.541245937E-1,2.006133795E0,2.943323255E-1
9.330750000E-1,-5.266356468E-1,2.001683235E0,3.036000133E-1
9.370453130E-1,-4.992863238E-1,2.002625704E0,3.170216084E-1
9.410156250E-1,-4.715355933E-1,2.006046534E0,3.330088258E-1
9.449859380E-1,-4.472929835E-1,2.011736393E0,3.529753983E-1
9.489562500E-1,-4.295255244E-1,2.020602465E0,3.763976991E-1
9.529265630E-1,-4.147949517E-1,2.034652472E0,4.044800401E-1
9.568968750E-1,-4.011813700E-1,2.051861525E0,4.423536956E-1
9.608671880E-1,-3.911632001E-1,2.071566105E0,4.835609198E-1
9.648390630E-1,-3.862762749E-1,2.094761610E0,5.275606513E-1
9.688093750E-1,-3.857701123E-1,2.122791529E0,5.771279931E-1
9.727796880E-1,-3.908839524E-1,2.149512529E0,6.338337660E-1
9.767500000E-1,-4.041309953E-1,2.172289133E0,6.928782463E-1
9.807203130E-1,-4.209734201E-1,2.190266132E0,7.548025250E-1
9.846906250E-1,-4.429820180E-1,2.210459471E0,8.167093396E-1
9.886625000E-1,-4.658807218E-1,2.232869625E0,8.692786694E-1
9.926328130E-1,-4.882733226E-1,2.259957075E0,9.125105143E-1
9.966031250E-1,-5.090078115E-1,2.290500402E0,9.457415342E-1
1.000573438E0,-5.268974304E-1,2.323591709E0,9.667727947E-1
1.004543750E0,-5.413662195E-1,2.358882189E0,9.752550721E-1
1.008514063E0,-5.525014400E-1,2.397122383E0,9.715898633E-1
1.012485938E0,-5.605299473E-1,2.437195301E0,9.564927816E-1
1.016456250E0,-5.678952336E-1,2.475801945E0,9.301382899E-1
1.020425000E0,-5.732708573E-1,2.515385866E0,8.929976821E-1
1.024396875E0,-5.802347064E-1,2.550240278E0,8.434303403E-1
1.028367188E0,-5.894325972E-1,2.575128555E0,7.853457928E-1
1.032337500E0,-6.022083759E-1,2.592163086E0,7.194595933E-1
1.036307813E0,-6.172880530E-1,2.598865032E0,6.461383104E-1
1.040278125E0,-6.343050003E-1,2.596543789E0,5.713335276E-1
1.044248438E0,-6.533640027E-1,2.585705280E0,4.897917509E-1
1.048218750E0,-6.709743738E-1,2.564517021E0,4.089131951E-1
1.052190625E0,-6.874502897E-1,2.530099154E0,3.307747841E-1
1.056160938E0,-7.010812759E-1,2.481840849E0,2.580294609E-1
1.060131250E0,-7.111169696E-1,2.412952662E0,1.889144331E-1
1.064101563E0,-7.186916471E-1,2.320188284E0,1.209338605E-1
1.068071875E0,-7.211176753E-1,2.221175909E0,5.550146848E-2
1.072043750E0,-7.160387635E-1,2.125915766E0,-8.988445625E-3
1.076012500E0,-6.987600327E-1,2.041651249E0,-6.944665313E-2
1.079984375E0,-6.749886274E-1,1.985765815E0,-1.153313592E-1
1.083954688E0,-6.481629014E-1,1.974647999E0,-1.411447823E-1
1.087925000E0,-6.103067398E-1,2.012696266E0,-1.432217211E-1
1.091895313E0,-5.691344142E-1,2.084062815E0,-1.178795397E-1
1.095865625E0,-5.261818767E-1,2.157017469E0,-6.852162629E-2
1.099835938E0,-4.878718853E-1,2.222135782E0,1.256637042E-3
1.103806250E0,-4.550073445E-1,2.274478197E0,8.672541380E-2
1.107776563E0,-4.232597947E-1,2.317029238E0,1.778315902E-1
1.111748438E0,-3.918089569E-1,2.347834349E0,2.554987371E-1
1.115718750E0,-3.544065654E-1,2.376038790E0,3.224146664E-1
1.119689063E0,-3.134960532E-1,2.403108835E0,3.627492189E-1
1.123659375E0,-2.662325203E-1,2.431086540E0,3.758392036E-1
1.127629688E0,-2.149372995E-1,2.456463575E0,3.551570475E-1
1.131601563E0,-1.634675413E-1,2.466848373E0,2.993414104E-1
1.135570313E0,-1.155757010E-1,2.455730677E0,2.173632979E-1
1.139542188E0,-7.131415606E-2,2.419986248E0,1.084896624E-1
1.143512500E0,-3.223622963E-2,2.360714912E0,-2.808234841E-2
1.147482813E0,-1.727875904E-3,2.290744543E0,-1.753881425E-1
1.151453125E0,2.593559213E-2,2.216184139E0,-3.372674286E-1
1.155423438E0,4.670501128E-2,2.144817591E0,-5.158146024E-1
1.159393750E0,6.220353395E-2,2.085563660E0,-6.921975613E-1
1.163365625E0,7.166321576E-2,2.041040421E0,-8.502895236E-1
1.167335938E0,7.532840967E-2,2.009572029E0,-9.952740073E-1
1.171306250E0,7.162830979E-2,1.986167192E0,-1.119471669E0
1.175276563E0,5.967280641E-2,1.967876196E0,-1.212672234E0
1.179246875E0,4.073598608E-2,1.963233590E0,-1.274928093E0
1.183217188E0,1.864011586E-2,1.984596491E0,-1.303499103E0
1.187187500E0,-2.460914198E-3,2.028247118E0,-1.298751831E0
1.191159375E0,-2.377138473E-2,2.095355034E0,-1.266183972E0
1.195128125E0,-4.693190381E-2,2.174401045E0,-1.203230023E0
1.199100000E0,-7.164576650E-2,2.244737864E0,-1.122037292E0
1.203070313E0,-9.676105529E-2,2.301425934E0,-1.035556197E0
1.207040625E0,-1.242150813E-1,2.355060101E0,-9.447816014E-1
1.211010938E0,-1.488416791E-1,2.409374714E0,-8.514414430E-1
1.214981250E0,-1.706233919E-1,2.463427544E0,-7.655363083E-1
1.218953125E0,-1.901536286E-1,2.518632174E0,-6.839596033E-1
1.222923438E0,-2.083399594E-1,2.566436768E0,-6.112142801E-1
1.226893750E0,-2.275211215E-1,2.595479012E0,-5.531122684E-1
1.230864063E0,-2.490933836E-1,2.600331068E0,-5.096361637E-1
1.234834375E0,-2.681174874E-1,2.586996794E0,-4.825137258E-1
1.238804688E0,-2.831622064E-1,2.567553759E0,-4.715181589E-1
1.242775000E0,-2.943148613E-1,2.541565895E0,-4.760211110E-1
1.246746875E0,-3.042981625E-1,2.510848045E0,-4.942248762E-1
1.250717188E0,-3.127630055E-1,2.477093458E0,-5.231973529E-1
1.254687500E0,-3.202330172E-1,2.444054365E0,-5.551543236E-1
1.258657813E0,-3.240029216E-1,2.419480085E0,-5.844234824E-1
1.262628125E0,-3.225717545E-1,2.406599522E0,-6.099576354E-1
1.266598438E0,-3.163234591E-1,2.403388262E0,-6.265557408E-1
1.270568750E0,-3.076142669E-1,2.401660204E0,-6.366088390E-1
1.274539063E0,-2.982767820E-1,2.391432762E0,-6.455449462E-1
1.278510938E0,-2.886250913E-1,2.369511366E0,-6.552314758E-1
1.282481250E0,-2.731614709E-1,2.335774183E0,-6.672568321E-1
1.286451563E0,-2.500184178E-1,2.297935486E0,-6.854431629E-1
1.290421875E0,-2.144835144E-1,2.254040480E0,-7.104886174E-1
1.294392188E0,-1.623156220E-1,2.210843563E0,-7.390072942E-1
1.298362500E0,-1.014385372E-1,2.165691853E0,-7.684335709E-1
1.302362500E0,-3.152064607E-2,2.119911909E0,-7.968649864E-1
1.306303125E0,4.794419557E-2,2.076802254E0,-8.197985888E-1
1.310273438E0,1.233424172E-1,2.044042349E0,-8.333074450E-1
1.314245313E0,2.061757445E-1,2.015034914E0,-8.329234719E-1
1.318215625E0,2.848900855E-1,1.991350889E0,-8.198683858E-1
1.322185938E0,3.494847417E-1,1.975241423E0,-7.972140312E-1
1.326156250E0,4.154058099E-1,1.968783736E0,-7.637386322E-1
1.330126563E0,4.774522781E-1,1.972972512E0,-7.204021215E-1
1.334096875E0,5.308069587E-1,1.984003067E0,-6.681643724E-1
1.338068750E0,5.727297664E-1,1.991106510E0,-6.077061892E-1
1.342039063E0,6.051928997E-1,1.986638427E0,-5.376137495E-1
1.346007813E0,6.299067736E-1,1.978086352E0,-4.658981860E-1
1.349979688E0,6.440265179E-1,1.961278796E0,-3.959977627E-1
1.353950000E0,6.478661895E-1,1.924242973E0,-3.311238587E-1
1.357920313E0,6.398376822E-1,1.872563720E0,-2.794097662E-1
1.361892188E0,6.247755289E-1,1.816346645E0,-2.441017479E-1
1.365860938E0,6.040061116E-1,1.755312562E0,-2.216568142E-1
1.369832813E0,5.818753242E-1,1.692882061E0,-2.121796757E-1
1.373803125E0,5.628512502E-1,1.636403203E0,-2.094220519E-1
1.377773438E0,5.425356030E-1,1.582088590E0,-2.102074474E-1
1.381743750E0,5.220454335E-1,1.531194806E0,-2.110277563E-1
1.385714063E0,4.995306730E-1,1.483023763E0,-2.098758370E-1
1.389684375E0,4.738045335E-1,1.432513833E0,-2.077814490E-1
1.393656250E0,4.491779208E-1,1.378408670E0,-2.097711265E-1
1.397626563E0,4.273962379E-1,1.326362967E0,-2.226341963E-1
1.401596875E0,4.105712473E-1,1.284475088E0,-2.445031703E-1
1.405567188E0,3.979176283E-1,1.260913134E0,-2.737025321E-1
1.409537500E0,3.905348778E-1,1.256410122E0,-3.063052893E-1
1.413507813E0,3.859272003E-1,1.269692063E0,-3.363249600E-1
1.417479688E0,3.783873916E-1,1.291700721E0,-3.613355160E-1
1.421450000E0,3.654544950E-1,1.310236096E0,-3.810926378E-1
1.425418750E0,3.483677208E-1,1.308612943E0,-3.981270492E-1
1.429390625E0,3.282615244E-1,1.291020036E0,-4.125085771E-1
1.433360938E0,3.088709116E-1,1.262798071E0,-4.294906259E-1
1.437331250E0,2.904053330E-1,1.234349251E0,-4.528954923E-1
1.441301563E0,2.741563320E-1,1.208431005E0,-4.797561169E-1
1.445271875E0,2.533694506E-1,1.179231763E0,-5.126730204E-1
1.449242188E0,2.313783020E-1,1.143033624E0,-5.495518446E-1
1.453214063E0,2.124065757E-1,1.094618201E0,-5.826432705E-1
1.457184375E0,1.931555867E-1,1.038907290E0,-6.107081771E-1
1.461154688E0,1.742885858E-1,9.759357572E-1,-6.365215778E-1
1.465125000E0,1.580744684E-1,9.095434546E-1,-6.622302532E-1
1.469095313E0,1.416509151E-1,8.410217762E-1,-6.848846674E-1
1.473065625E0,1.293987036E-1,7.763573527E-1,-6.975906491E-1
1.477037500E0,1.218414381E-1,7.203497291E-1,-6.992312670E-1
1.481007813E0,1.124864668E-1,6.678153276E-1,-6.891257763E-1
1.484976563E0,1.037249193E-1,6.196442246E-1,-6.684262156E-1
1.488948438E0,9.046041220E-2,5.801299810E-1,-6.372895241E-1
1.492918750E0,7.496189326E-2,5.556779504E-1,-5.996776819E-1
1.496889063E0,5.705481395E-2,5.423785448E-1,-5.538802147E-1
1.500860938E0,3.721041977E-2,5.330584645E-1,-5.016075969E-1
1.504829688E0,1.576032303E-2,5.136329532E-1,-4.405560195E-1
1.508800000E0,-7.574729156E-3,4.853760600E-1,-3.787190020E-1
1.512771875E0,-3.698352724E-2,4.510628879E-1,-3.183306158E-1
1.516742188E0,-6.888814270E-2,4.195247889E-1,-2.622357309E-1
1.520712500E0,-1.056796834E-1,3.881263137E-1,-2.147976756E-1
1.524682813E0,-1.420523524E-1,3.582462668E-1,-1.744282097E-1
1.528653125E0,-1.726305187E-1,3.307573497E-1,-1.351583004E-1
1.532623438E0,-1.949009150E-1,3.065670729E-1,-9.211847931E-2
1.536595313E0,-2.100329250E-1,2.898642719E-1,-4.310963303E-2
1.540565625E0,-2.186373919E-1,2.879095078E-1,1.075122785E-2
1.544534375E0,-2.220931500E-1,2.981022298E-1,6.529276818E-2
1.548506250E0,-2.198242247E-1,3.185225725E-1,1.195550561E-1
1.552476563E0,-2.078163475E-1,3.450690508E-1,1.663822383E-1
1.556446875E0,-1.810429990E-1,3.769911230E-1,2.053903490E-1
1.560418750E0,-1.399055868E-1,4.144982398E-1,2.345198840E-1
1.564387500E0,-7.499679923E-2,4.583060145E-1,2.561096251E-1
1.568359375E0,5.305801053E-3,5.010491014E-1,2.680825591E-1
1.572329688E0,8.525933325E-2,5.332853794E-1,2.665292323E-1
1.576300000E0,1.613731384E-1,5.546307564E-1,2.501755059E-1
1.580270313E0,2.322335094E-1,5.642649531E-1,2.195624262E-1
1.584240625E0,2.939134538E-1,5.578944683E-1,1.802750528E-1
1.588210938E0,3.504970074E-1,5.362175107E-1,1.335874945E-1
1.592182813E0,4.049862027E-1,4.950451851E-1,8.663814515E-2
1.596153125E0,4.434357882E-1,4.277103841E-1,4.021238536E-2
1.600123438E0,4.649208188E-1,3.508286178E-1,-1.745329246E-5
1.604093750E0,4.668930173E-1,2.770186663E-1,-3.415609151E-2
1.608064063E0,4.564210474E-1,2.147278637E-1,-5.344198272E-2
1.612034375E0,4.351629317E-1,1.539554894E-1,-5.951572582E-2
1.616004688E0,3.999771178E-1,7.925540209E-2,-5.853834376E-2
1.619976563E0,3.417529166E-1,-1.502728462E-2,-4.956734926E-2
1.623945313E0,2.575058639E-1,-8.843583614E-2,-4.310963303E-2
1.627917188E0,1.194677874E-1,-9.288642555E-2,-9.988519549E-2
1.631887500E0,-8.901178837E-2,-3.794345632E-2,-2.534043491E-1
1.635857813E0,-2.634574473E-1,-4.925319180E-2,-4.118453562E-1
1.639828125E0,-3.728023171E-1,-9.238027781E-2,-5.003160834E-1
1.643798438E0,-4.195073247E-1,-8.964011073E-2,-5.203524828E-1
1.647768750E0,-4.179714620E-1,-8.660323918E-2,-5.034053326E-1
1.651740625E0,-3.776718080E-1,-8.644615859E-2,-4.723384678E-1
1.655710938E0,-3.150493801E-1,-7.768460363E-2,-4.380252659E-1
1.659681250E0,-2.425658554E-1,-6.349507719E-2,-4.078485370E-1
1.663651563E0,-1.739918739E-1,-5.239478499E-2,-3.823841810E-1
1.667621875E0,-1.130449772E-1,-4.831071198E-2,-3.569198251E-1
1.671592188E0,-6.192428246E-2,-5.311036855E-2,-3.280171752E-1
1.675564063E0,-2.509783395E-2,-6.654940546E-2,-2.942799628E-1
1.679534375E0,-3.316125600E-3,-8.796459436E-2,-2.613979578E-1
1.683503125E0,7.906341925E-3,-1.239532828E-1,-2.284286916E-1
1.687475000E0,1.024508290E-2,-1.814967841E-1,-1.947089285E-1
1.691445313E0,6.021386012E-3,-2.552020550E-1,-1.588249654E-1
1.695415625E0,1.448623254E-3,-3.409849703E-1,-1.146855876E-1
1.699385938E0,5.515240598E-3,-4.396484494E-1,-5.789257213E-2
1.703356250E0,2.508038096E-2,-5.436700583E-1,1.862266287E-2
1.707326563E0,6.089453772E-2,-6.233792305E-1,1.103571653E-1
1.711298438E0,1.126959100E-1,-6.622302532E-1,2.226691097E-1
1.715268750E0,1.662426144E-1,-6.407627463E-1,3.585080802E-1
1.719239063E0,2.169618756E-1,-5.774945617E-1,5.018694401E-1
1.723209375E0,2.545737326E-1,-4.983264208E-1,6.452656984E-1
1.727179688E0,2.824291885E-1,-4.249876738E-1,7.702487111E-1
1.731151563E0,3.048915565E-1,-3.805515766E-1,8.617213964E-1
1.735121875E0,3.307573497E-1,-3.731688559E-1,9.137322307E-1
1.739092188E0,3.659431934E-1,-4.006228745E-1,9.226159453E-1
1.743062500E0,4.094367921E-1,-4.476594925E-1,8.954411745E-1
1.747032813E0,4.633849263E-1,-5.121843219E-1,8.314399719E-1
1.751003125E0,5.404935479E-1,-5.791351795E-1,7.369303703E-1
1.754973438E0,6.226636767E-1,-6.465746760E-1,6.261368394E-1
1.758945313E0,7.106108069E-1,-7.147297859E-1,5.146452188E-1
1.762914063E0,7.909308672E-1,-7.897091508E-1,4.043927789E-1
1.766885938E0,8.613723516E-1,-8.723329902E-1,3.003886044E-1
1.770856250E0,9.178337455E-1,-9.551139474E-1,2.145707756E-1
1.774826563E0,9.628108740E-1,-1.044178128E0,1.393470913E-1
1.778796875E0,9.936683178E-1,-1.147135139E0,7.607889920E-2
1.782767188E0,1.016148090E0,-1.250319004E0,2.932153083E-2
1.786737500E0,1.032536745E0,-1.354776978E0,-3.909537569E-3
1.790707813E0,1.040443182E0,-1.469863892E0,-2.839650773E-2
1.794679688E0,1.040827155E0,-1.579278588E0,-3.960151970E-2
1.798650000E0,1.033269763E0,-1.658062816E0,-3.483677283E-2
1.802620313E0,1.015484929E0,-1.726322651E0,-2.335250564E-2
1.806590625E0,9.848194718E-1,-1.796327710E0,-1.099557383E-3
1.810560938E0,9.495638013E-1,-1.866507411E0,3.658210114E-2
1.814531250E0,9.162629247E-1,-1.926860929E0,9.264207631E-2
1.818501563E0,8.940449357E-1,-1.929094911E0,1.775348932E-1
1.822471875E0,8.768184781E-1,-1.841235042E0,2.934422195E-1
1.826443750E0,8.478111625E-1,-1.651779652E0,4.252669215E-1
1.830414063E0,7.884873748E-1,-1.421640515E0,5.665687919E-1
1.834384375E0,6.988123655E-1,-1.182373285E0,7.071201205E-1
1.838354688E0,5.829748511E-1,-9.638929963E-1,8.355763555E-1
1.842325000E0,4.613603354E-1,-7.676132321E-1,9.561088085E-1
1.846295313E0,3.473205268E-1,-6.076189280E-1,1.070899129E0
1.850267188E0,2.542071939E-1,-4.797037542E-1,1.176700950E0
1.854235938E0,1.761909872E-1,-3.531499207E-1,1.280181527E0
1.858206250E0,1.024333760E-1,-2.317797244E-1,1.372038245E0
1.862178125E0,2.495820820E-2,-1.444259882E-1,1.453021526E0
1.866148438E0,-6.101670861E-2,-9.679596126E-2,1.522311091E0
1.870118750E0,-1.558404416E-1,-9.325294197E-2,1.577725291E0
1.874089063E0,-2.434908897E-1,-1.350710243E-1,1.614900827E0
1.878059375E0,-3.194999695E-1,-2.159844935E-1,1.636769772E0
1.882031250E0,-3.763628006E-1,-3.313333094E-1,1.652861714E0
1.886001563E0,-4.148124158E-1,-4.926540852E-1,1.656614184E0
1.889971875E0,-4.325274825E-1,-6.677978635E-1,1.650069118E0
1.893942188E0,-4.275009334E-1,-8.420864344E-1,1.634361267E0
1.897912500E0,-4.067664444E-1,-9.996547699E-1,1.610991240E0
1.901882813E0,-3.745650947E-1,-1.105526447E0,1.588179827E0
1.905854688E0,-3.369532526E-1,-1.130589366E0,1.571686387E0
1.909825000E0,-2.983989418E-1,-1.089225054E0,1.553866625E0
1.913793750E0,-2.782229483E-1,-1.024787545E0,1.523323417E0
1.917765625E0,-2.833541930E-1,-9.731956124E-1,1.477595687E0
1.921735938E0,-3.003711700E-1,-9.268047214E-1,1.416282296E0
1.925706250E0,-3.150493801E-1,-8.638507128E-1,1.345195055E0
1.929676563E0,-3.268652558E-1,-7.882779241E-1,1.276376724E0
1.933648438E0,-3.431666493E-1,-7.047116160E-1,1.212357998E0
1.937617188E0,-3.669903874E-1,-6.299242377E-1,1.144656777E0
1.941587500E0,-3.953345418E-1,-5.831668377E-1,1.070707083E0
1.945559375E0,-4.295255244E-1,-5.687155128E-1,1.000544906E0
1.949529688E0,-4.586201608E-1,-5.661848187E-1,9.355663061E-1
1.953500000E0,-4.848699272E-1,-5.650852323E-1,8.896990418E-1
1.957470313E0,-5.114163756E-1,-5.652248859E-1,8.751779199E-1
1.961440625E0,-5.434780717E-1,-5.646837950E-1,8.954761028E-1
1.965412500E0,-5.802870393E-1,-5.448394418E-1,9.591456652E-1
1.969382813E0,-6.202900410E-1,-5.012934804E-1,1.066518307E0
1.973353125E0,-6.683563590E-1,-4.442910254E-1,1.208064556E0
1.977323438E0,-7.304028273E-1,-3.839724362E-1,1.376960039E0
1.981293750E0,-7.974758148E-1,-3.242996335E-1,1.560847998E0
1.985264063E0,-8.651073575E-1,-2.500533164E-1,1.751490235E0
1.989235938E0,-9.347983599E-1,-1.567654759E-1,1.961104274E0
1.993204688E0,-1.009114504E0,-4.228932783E-2,2.197247267E0
1.997175000E0,-1.085088611E0,8.072147518E-2,2.445153952E0
2.001146875E0,-1.163488865E0,2.120400518E-1,2.710531235E0
2.005117188E0,-1.240213513E0,3.480012119E-1,2.985019207E0
2.009087500E0,-1.302364707E0,4.845906794E-1,3.233623743E0
2.013057813E0,-1.344496965E0,6.259448528E-1,3.449800253E0
2.017028125E0,-1.361496449E0,7.630230188E-1,3.623233795E0
2.020998438E0,-1.356295347E0,8.913221955E-1,3.760137320E0
2.024970313E0,-1.339260936E0,1.028923988E0,3.858591318E0
2.028940625E0,-1.314965963E0,1.183298349E0,3.941005707E0
2.032915625E0,-1.288733721E0,1.328055978E0,3.983906031E0
2.036881250E0,-1.263234377E0,1.474995255E0,3.967150927E0
2.040851563E0,-1.239567757E0,1.651064038E0,3.842202663E0
2.044821875E0,-1.223161697E0,1.870399594E0,3.631977797E0
2.048793750E0,-1.201903582E0,2.051704407E0,3.388085604E0
2.052762500E0,-1.177957654E0,2.191068888E0,3.134995222E0
2.056734375E0,-1.173210263E0,2.331690073E0,2.915485144E0
2.060704688E0,-1.181762457E0,2.465574265E0,2.725506067E0
2.064675000E0,-1.213789225E0,2.620733976E0,2.548215628E0
2.068645313E0,-1.272414804E0,2.830487728E0,2.359545469E0
2.072615625E0,-1.385494709E0,3.229731798E0,2.122599602E0
2.076585938E0,-1.533777833E0,3.670863628E0,1.866420150E0
2.080556250E0,-1.694452882E0,3.958040237E0,1.626856327E0
2.084528125E0,-1.791807413E0,4.082726479E0,1.520478487E0
2.088498438E0,-1.782626987E0,4.061032295E0,1.495764613E0
2.092468750E0,-1.641429782E0,3.824732065E0,1.481051445E0
2.096439063E0,-1.357325077E0,3.340071440E0,1.477072120E0
2.100409375E0,-9.367356300E-1,2.609179974E0,1.488346934E0
2.104379688E0,-4.494397342E-1,1.675516129E0,1.576992273E0
2.108351563E0,1.380380839E-1,5.900085568E-1,1.725589514E0
2.112320313E0,7.516086102E-1,-4.763003588E-1,1.954210281E0
2.116292188E0,1.307391286E0,-1.421954632E0,2.253185034E0
2.120262500E0,1.773568630E0,-2.239449501E0,2.563155651E0
2.124232813E0,2.099316835E0,-2.861502171E0,2.807135105E0
2.128203125E0,2.285264254E0,-3.254794598E0,2.987811565E0
2.132173438E0,2.359475613E0,-3.403339624E0,3.153670311E0
2.136143750E0,2.351080656E0,-3.274516821E0,3.301115751E0
2.140115625E0,2.269119978E0,-2.958594799E0,3.445472002E0
2.144085938E0,2.123524666E0,-2.525386810E0,3.595849514E0
2.148056250E0,1.898394585E0,-2.052856207E0,3.767223358E0
2.152026563E0,1.618897557E0,-1.628793597E0,3.943990231E0
2.155996875E0,1.300601959E0,-1.242744207E0,4.105921745E0
2.159967188E0,9.442580342E-1,-9.201375842E-1,4.271780491E0
2.163939063E0,5.694660544E-1,-7.400021553E-1,4.446540356E0
2.167909375E0,1.881988496E-1,-6.692988873E-1,4.606255531E0
2.171879688E0,-6.272887588E-1,-1.438186169E0,4.148001671E0
2.175850000E0,-1.503199697E0,-2.482521296E0,3.288601637E0
2.179820313E0,-1.825300217E0,-2.724406481E0,3.213116169E0
2.183790625E0,-1.862946987E0,-2.765770912E0,3.338273764E0
2.187760938E0,-1.755679011E0,-2.765160084E0,3.380353689E0
2.191731250E0,-1.656875968E0,-2.453933001E0,2.778790951E0
2.195701563E0,-1.422164083E0,-1.726252794E0,1.672322154E0
2.199671875E0,-1.079678178E0,-4.616570473E-1,4.576253295E-1
2.203643750E0,-6.707823873E-1,7.888538837E-1,-3.089931011E-1
2.207614063E0,-3.230255246E-1,1.416997910E0,-5.990319252E-1
2.211584375E0,-9.231046587E-2,1.388950467E0,-4.577474892E-1
2.215554688E0,6.602580845E-2,6.616019607E-1,3.888593614E-2
2.219525000E0,4.167846218E-2,-7.826579809E-1,6.526658535E-1
2.223496875E0,-1.305157244E-1,-2.156354189E0,1.111617684E0
2.227467188E0,-3.436204195E-1,-3.093526363E0,1.401708841E0
2.231437500E0,-5.286602378E-1,-3.482280970E0,1.603870273E0
2.235407813E0,-6.495068073E-1,-3.466311216E0,1.656963229E0
2.239378125E0,-7.329161167E-1,-3.271602154E0,1.586399555E0
2.243348438E0,-8.002334833E-1,-3.016976118E0,1.454923868E0
2.247320313E0,-8.701513410E-1,-2.800991535E0,1.312086225E0
2.251289063E0,-9.454797506E-1,-2.645482779E0,1.167031884E0
2.255260938E0,-1.007264376E0,-2.514530659E0,1.034648657E0
2.259231250E0,-1.035294414E0,-2.361378193E0,9.119519591E-1
2.263201563E0,-1.029046178E0,-2.170631170E0,7.905817628E-1
2.267171875E0,-1.000754356E0,-1.944122195E0,6.325247884E-1
2.271142188E0,-9.602627158E-1,-1.711766601E0,4.254065454E-1
2.275112500E0,-8.923868537E-1,-1.468973756E0,1.795245707E-1
2.279082813E0,-7.911228538E-1,-1.191414118E0,-1.101477295E-1
2.283054688E0,-6.506412625E-1,-8.604996800E-1,-4.153709114E-1
2.287025000E0,-4.824613631E-1,-5.109276772E-1,-6.960896850E-1
2.290995313E0,-2.941752374E-1,-1.487195045E-1,-9.546078444E-1
2.294993750E0,-1.018050537E-1,2.044478655E-1,-1.165827632E0
2.298935938E0,6.911503524E-2,5.194798112E-1,-1.314058423E0
2.302907813E0,1.892635077E-1,7.693411112E-1,-1.387955666E0
2.306876563E0,2.667910159E-1,9.597740173E-1,-1.397415280E0
2.310846875E0,3.070208728E-1,1.069782138E0,-1.339836955E0
2.314818750E0,3.197617829E-1,1.080725312E0,-1.233301997E0
2.318789063E0,3.045774102E-1,1.011592865E0,-1.082784772E0
2.322757813E0,2.706307471E-1,8.850041032E-1,-9.071697593E-1
2.326729688E0,2.345373482E-1,7.473674417E-1,-7.284654975E-1
2.330700000E0,2.002765238E-1,5.839522481E-1,-5.310338736E-1
2.334670313E0,1.640958488E-1,3.824190795E-1,-3.300243020E-1
2.338640625E0,1.283340603E-1,1.779188663E-1,-1.355248094E-1
2.342612500E0,8.859290928E-2,5.284857005E-2,-2.705260413E-3
2.346582813E0,5.293583497E-2,2.117084339E-2,6.003932655E-2
2.350553125E0,3.368485346E-2,3.345796093E-2,9.035569429E-2
2.354523438E0,3.017674200E-2,5.773549154E-2,1.164483652E-1
2.358493750E0,4.070107639E-2,9.026842564E-2,1.402895600E-1
2.362465625E0,6.031857803E-2,1.204451695E-1,1.538682282E-1
2.366435938E0,8.215264976E-2,1.325403005E-1,1.557706296E-1
2.370404688E0,1.030442417E-1,1.204975322E-1,1.470789015E-1
2.374376563E0,1.185951233E-1,9.445721656E-2,1.299048513E-1
2.378346875E0,1.230980754E-1,5.695009232E-2,1.052433550E-1
2.382317188E0,1.158374995E-1,2.338741161E-2,7.850491256E-2
2.386287500E0,9.979792684E-2,-1.078613475E-2,5.599016324E-2
2.390257813E0,8.084364980E-2,-4.935790971E-2,5.208062381E-2
2.394228125E0,6.297148019E-2,-8.319984376E-2,6.251769513E-2
2.398198438E0,4.626867920E-2,-1.028871611E-1,7.489208132E-2
2.402170313E0,2.654645778E-2,-1.095019579E-1,7.721336931E-2
2.406140625E0,1.057669520E-2,-1.091179848E-1,7.555530220E-2
2.410110938E0,-1.867502346E-3,-1.043532342E-1,7.361798733E-2
2.414081250E0,-1.007054932E-2,-9.602801502E-2,7.281513512E-2
2.418051563E0,-1.507964451E-2,-8.408996463E-2,6.928957254E-2
2.422023438E0,-1.487020496E-2,-7.342600077E-2,6.220353395E-2
2.425992188E0,-1.136209350E-2,-6.373942643E-2,5.537929758E-2
2.429964063E0,-6.824237294E-3,-5.653121322E-2,4.923573881E-2
2.433934375E0,6.632251316E-4,-4.970697686E-2,4.401720315E-2
2.437904688E0,7.278022822E-3,-4.174827412E-2,3.754203022E-2
2.441875000E0,1.473057922E-2,-3.258529678E-2,3.239331022E-2
2.445845313E0,2.239257470E-2,-2.343977243E-2,2.893755957E-2
2.449815625E0,2.905973233E-2,-1.111774705E-2,2.473131567E-2
2.453785938E0,3.260274976E-2,1.867502346E-3,2.151990868E-2
2.457756250E0,3.413863853E-2,1.413716655E-2,1.902408898E-2
2.461728125E0,3.227113932E-2,2.621484548E-2,1.687733456E-2
2.465698438E0,2.968805097E-2,3.841469809E-2,1.570796408E-2
2.469668750E0,2.343977243E-2,4.865977913E-2,1.541125681E-2
2.473639063E0,1.684242673E-2,6.005677953E-2,1.532399096E-2
2.477609375E0,1.059414819E-2,6.874851882E-2,1.485275198E-2
2.481581250E0,3.246312495E-3,7.703883201E-2,1.413716655E-2
2.485550000E0,-2.408554312E-3,8.222246170E-2,1.274090353E-2
2.489521875E0,-5.846852902E-3,8.552113175E-2,1.237438433E-2
2.493492188E0,-6.440265104E-3,8.532914519E-2,1.017526910E-2
2.497462500E0,-4.188789986E-3,8.482300490E-2,8.237954229E-3
2.501432813E0,-1.186823938E-3,8.529423922E-2,7.295476273E-3
2.505403125E0,2.426007763E-3,8.511970937E-2,5.986479111E-3
2.509373438E0,4.886921961E-3,8.506734669E-2,3.839724232E-3
2.513345313E0,6.283185445E-3,8.415977657E-2,2.827433404E-3
2.517315625E0,5.288347602E-3,8.421213925E-2,1.815142459E-3
2.521285938E0,5.480333697E-3,8.138470352E-2,-1.134464052E-3
2.525256250E0,4.782202188E-3,7.747516781E-2,-4.031710327E-3
2.529226563E0,4.747295752E-3,7.389724255E-2,-6.283185445E-3
2.533196875E0,5.183627829E-3,6.935938448E-2,-8.831365965E-3
2.537167188E0,7.103490178E-3,6.499606371E-2,-1.069886796E-2
2.541137500E0,7.155850064E-3,6.101670861E-2,-1.404990070E-2
2.545109375E0,8.674286306E-3,5.815437064E-2,-1.703441329E-2
2.549079688E0,1.178097259E-2,5.605997518E-2,-2.080432512E-2
2.553050000E0,1.410226058E-2,5.490805954E-2,-2.391101047E-2
2.557020313E0,1.514945831E-2,5.461135134E-2,-2.757620253E-2
2.560990625E0,1.603957638E-2,5.633922666E-2,-3.033382259E-2
2.564960938E0,1.626646891E-2,5.695009232E-2,-3.211405873E-2
2.568932813E0,1.422443334E-2,5.890486389E-2,-3.481931984E-2
2.572903125E0,1.157153305E-2,5.988224596E-2,-3.598868847E-2
2.576873438E0,8.325220086E-3,6.117378920E-2,-3.810053691E-2
2.580843750E0,5.061454605E-3,6.318091601E-2,-3.925245628E-2
2.584814063E0,1.815142459E-3,6.368706375E-2,-4.000294581E-2
2.588784375E0,-2.268928074E-4,6.532767415E-2,-3.960151970E-2
2.592754688E0,-1.815142459E-3,6.455972791E-2,-3.920009360E-2
2.596725000E0,-2.076941775E-3,6.510078162E-2,-3.712315485E-2
2.600696875E0,-3.804817796E-3,6.269222498E-2,-3.419100121E-2
2.604667188E0,-5.462880712E-3,5.799729005E-2,-3.085742146E-2
2.608637500E0,-7.696901914E-3,5.256931856E-2,-2.998475730E-2
2.612607813E0,-9.791296907E-3,4.647811875E-2,-2.720968239E-2
2.616578125E0,-1.363102160E-2,4.127703607E-2,-2.436479554E-2
2.620548438E0,-1.645845547E-2,3.811798990E-2,-2.138028294E-2
2.624518750E0,-1.717403904E-2,3.307398781E-2,-1.727875881E-2
2.628489063E0,-1.888446324E-2,2.919935808E-2,-1.485275198E-2
2.632460938E0,-2.113593742E-2,2.593559213E-2,-1.347394194E-2
2.636429688E0,-2.321287990E-2,2.146754973E-2,-1.099557430E-2
2.640401563E0,-2.572615258E-2,1.713913307E-2,-8.395033889E-3
2.644371875E0,-2.848377265E-2,1.556833647E-2,-7.417649496E-3
2.648342188E0,-3.056071512E-2,1.785471849E-2,-5.654866807E-3
2.652314063E0,-3.078760765E-2,2.132792398E-2,-3.996803891E-3
2.656282813E0,-3.176499158E-2,2.117084339E-2,-3.403391922E-3
2.660254688E0,-3.321361542E-2,1.827359758E-2,-1.762782573E-3
2.664225000E0,-3.314380348E-2,1.616174914E-2,-1.169370604E-3
2.668195313E0,-3.207915276E-2,1.666789502E-2,-1.466076588E-3
2.672165625E0,-3.059562109E-2,1.544616371E-2,-1.396263367E-3
2.676135938E0,-2.823942713E-2,1.511455141E-2,-3.490658477E-3
2.680106250E0,-2.446951531E-2,1.668534800E-2,-5.689773243E-3
2.684076563E0,-1.837831736E-2,2.040289901E-2,-8.377579972E-3
2.688048438E0,-1.122246683E-2,2.574360557E-2,-1.027998887E-2
2.692018750E0,-3.769911127E-3,3.136356547E-2,-1.272345055E-2
2.695987500E0,2.356194425E-3,3.267256171E-2,-1.577777602E-2
2.699959375E0,7.120943163E-3,3.316125646E-2,-1.837831736E-2
2.703929688E0,1.288053021E-2,3.389429301E-2,-1.876228862E-2
2.707900000E0,1.528908405E-2,3.227113932E-2,-1.794198528E-2
2.711871875E0,1.727875881E-2,2.975786291E-2,-1.593485661E-2
2.715840625E0,1.764527895E-2,2.457423508E-2,-1.345648803E-2
2.719812500E0,1.818633080E-2,1.930334233E-2,-9.651671164E-3
2.723782813E0,1.712168008E-2,1.146681327E-2,-5.183627829E-3
2.727753125E0,1.699950732E-2,7.906341925E-3,-1.762782573E-3
2.731723438E0,1.680752076E-2,3.822271014E-3,2.268928103E-3
2.735693750E0,1.736602560E-2,2.600540640E-3,6.335545331E-3
2.739664063E0,1.766273193E-2,3.647738136E-3,8.447393775E-3
2.743635938E0,1.729621366E-2,5.427973811E-3,1.021017600E-2
2.747606250E0,1.583013684E-2,6.335545331E-3,1.202531811E-2
2.751576563E0,1.305506285E-2,7.033676840E-3,1.263618376E-2
2.755546875E0,1.157153305E-2,1.036725566E-2,1.158898603E-2
2.759517188E0,9.075712413E-3,1.485275198E-2,1.117010694E-2
2.763487500E0,6.475171540E-3,1.993165910E-2,1.031489577E-2
2.767459375E0,4.886921961E-3,2.502802201E-2,9.040805511E-3
2.771429688E0,3.717551241E-3,2.830924094E-2,8.395033889E-3
2.775398438E0,1.902408898E-3,2.811725438E-2,8.237954229E-3
2.779370313E0,8.726646047E-5,2.565634064E-2,5.777040031E-3
2.783340625E0,-8.203047328E-4,2.260201424E-2,4.398229532E-3
2.787310938E0,-6.108652451E-4,1.986184716E-2,1.919862116E-3
2.791281250E0,-2.059488557E-3,1.581268385E-2,9.773843922E-4
2.795251563E0,-1.239183708E-3,1.130973361E-2,2.792526793E-4
2.799223438E0,-2.984513063E-3,9.372417815E-3,-3.490658492E-5
2.803193750E0,-3.141592722E-3,7.661995478E-3,-1.326450263E-3
2.807164063E0,-3.473205259E-3,7.365289610E-3,-9.075712296E-4
2.811134375E0,-2.513274085E-3,1.045452245E-2,-2.007128671E-3
2.815104688E0,-3.159045940E-3,1.275835652E-2,-4.398229532E-3
2.819075000E0,-3.926991019E-3,1.743583940E-2,-5.777040031E-3
2.823045313E0,-5.951572675E-3,2.181661502E-2,-5.846852902E-3
2.827017188E0,-8.412486874E-3,2.445206232E-2,-5.253441166E-3
2.830987500E0,-1.132718660E-2,2.546435408E-2,-3.892084118E-3
2.834956250E0,-1.539380383E-2,2.420771681E-2,-1.134464052E-3
2.838928125E0,-1.886700839E-2,2.237512171E-2,1.675516134E-3
2.842898438E0,-2.127556317E-2,1.872738265E-2,5.724680144E-3
2.846868750E0,-2.401573025E-2,1.417207345E-2,7.539822254E-3
2.850840625E0,-2.563888580E-2,9.075712413E-3,1.101302728E-2
2.854809375E0,-2.740166895E-2,4.886921961E-3,1.268854365E-2
2.858779688E0,-2.921681106E-2,1.675516134E-3,1.476548519E-2
2.862751563E0,-3.059562109E-2,-2.600540640E-3,1.576032303E-2
2.866721875E0,-3.125884756E-2,-5.986479111E-3,1.631882787E-2
2.870692188E0,-3.188716620E-2,-8.813912980E-3,1.708677411E-2
2.874662500E0,-3.460988030E-2,-1.151917316E-2,1.516691130E-2
2.878654688E0,-3.576179594E-2,-1.312487572E-2,1.452113967E-2
2.882604688E0,-3.757693991E-2,-1.022762898E-2,1.373574138E-2
2.886575000E0,-3.820525855E-2,-8.412486874E-3,1.413716655E-2
2.890543750E0,-3.790855035E-2,-6.143558770E-3,1.394518092E-2
2.894520313E0,-3.738495335E-2,-2.844886621E-3,1.359611470E-2
2.898485938E0,-3.844960406E-2,1.047197584E-4,1.244419720E-2
2.902456250E0,-3.691371530E-2,4.345869645E-3,1.335176919E-2
2.906426563E0,-3.682644665E-2,4.258603323E-3,1.359611470E-2
2.910396875E0,-3.588397056E-2,3.769911127E-3,1.185078546E-2
2.914367188E0,-3.609341010E-2,1.396263367E-3,1.108284108E-2
2.918339063E0,-3.420845419E-2,1.745329209E-4,9.093165398E-3
2.922309375E0,-3.234095126E-2,-1.937315450E-3,5.846852902E-3
2.926279688E0,-3.050835431E-2,-1.448623254E-3,2.303834539E-3
2.930250000E0,-2.642428502E-2,4.712388909E-4,-7.155850180E-4
2.934220313E0,-2.370157093E-2,2.495820867E-3,-4.363323096E-3
2.938190625E0,-1.982693933E-2,4.066617228E-3,-8.325220086E-3
2.942162500E0,-1.595230959E-2,4.328416660E-3,-1.221730467E-2
2.946131250E0,-1.389282104E-2,4.101523664E-3,-1.384046115E-2
2.950103125E0,-1.185078546E-2,6.440265104E-3,-1.516691130E-2
2.954073438E0,-8.901178837E-3,9.913469665E-3,-1.717403904E-2
2.958043750E0,-7.679448463E-3,1.293289009E-2,-1.722639985E-2
2.962014063E0,-6.928957067E-3,1.642354764E-2,-1.785471849E-2
2.965985938E0,-7.016223390E-3,1.898918301E-2,-1.832595654E-2
2.969956250E0,-6.894050632E-3,2.117084339E-2,-1.783726551E-2
2.973925000E0,-5.515240598E-3,2.654645778E-2,-1.651081443E-2
2.977896875E0,-3.193952609E-3,3.246312216E-2,-1.616174914E-2
2.981867188E0,-1.082104165E-3,3.942698613E-2,-1.455604564E-2
2.985837500E0,1.413716702E-3,4.651302472E-2,-1.324704941E-2
2.989807813E0,3.420845373E-3,5.347688869E-2,-1.078613475E-2
2.993778125E0,3.944444004E-3,5.801474303E-2,-8.360126987E-3
2.997748438E0,3.019419499E-3,5.963790044E-2,-5.148721393E-3
3.001720313E0,1.570796361E-3,5.976007506E-2,-2.809980186E-3
3.005690625E0,-1.396263397E-4,5.829399824E-2,-9.948377265E-4
3.009660938E0,-2.391101094E-3,5.625196174E-2,5.061454722E-4
3.013631250E0,-6.143558770E-3,5.225515738E-2,2.565633971E-3
3.017601563E0,-8.325220086E-3,4.865977913E-2,3.403391922E-3
3.021571875E0,-1.130973361E-2,4.619886354E-2,5.427973811E-3
3.025543750E0,-1.267109066E-2,4.361577705E-2,6.405358203E-3
3.029514063E0,-1.364847459E-2,4.052654654E-2,8.621926419E-3
3.033482813E0,-1.418952644E-2,3.822271153E-2,8.744099177E-3
3.037454688E0,-1.314232964E-2,4.092797264E-2,8.325220086E-3
3.041425000E0,-1.359611470E-2,4.691445082E-2,7.766715251E-3
3.045395313E0,-1.750565320E-2,4.921828583E-2,8.970992640E-3
3.049365625E0,-2.015855350E-2,4.621632025E-2,9.128072299E-3
3.053335938E0,-2.310816012E-2,3.970624134E-2,6.178465672E-3
3.057307813E0,-2.675589733E-2,3.515093029E-2,4.485496320E-3
3.061278125E0,-2.860594541E-2,3.364994749E-2,1.640609466E-3
3.065248438E0,-2.848377265E-2,3.612831607E-2,-2.391101094E-3
3.069218750E0,-2.679080330E-2,4.068362340E-2,-6.911503617E-3
3.073189063E0,-2.364921197E-2,4.639085010E-2,-8.691739291E-3
3.077159375E0,-1.965240762E-2,5.059709400E-2,-9.913469665E-3
3.081131250E0,-1.530653704E-2,5.288347602E-2,-9.773843922E-3
3.085101563E0,-1.101302728E-2,5.167919770E-2,-8.831365965E-3
3.089071875E0,-6.126105785E-3,4.850269854E-2,-8.587019518E-3
3.093045313E0,-4.852015525E-3,4.075343907E-2,-7.923794910E-3
3.097012500E0,-3.926991019E-3,3.377212211E-2,-6.387905218E-3
3.100982813E0,-4.729842301E-3,2.366666496E-2,-7.208209950E-3
3.104953125E0,-5.096361507E-3,1.439896598E-2,-6.352998316E-3
3.108923438E0,-5.934119225E-3,7.923794910E-3,-6.597344764E-3
3.112893750E0,-7.208209950E-3,3.071779385E-3,-8.447393775E-3
3.116865625E0,-8.150687441E-3,-2.391101094E-3,-9.704031050E-3
3.120835938E0,-8.691739291E-3,-6.230825558E-3,-1.258382387E-2
3.124806250E0,-9.896016680E-3,-9.180432186E-3,-1.453859266E-2
3.128776563E0,-1.021017600E-2,-1.069886796E-2,-1.413716655E-2
3.132746875E0,-9.232792072E-3,-1.214749180E-2,-1.403244678E-2
3.136717188E0,-1.094321441E-2,-1.494001877E-2,-1.417207345E-2
3.140689063E0,-1.303760987E-2,-1.596976258E-2,-1.268854365E-2
3.144657813E0,-1.539380383E-2,-1.624901593E-2,-1.125737373E-2
3.148629688E0,-1.570796408E-2,-1.254891697E-2,-9.983283468E-3
3.152600000E0,-1.382300723E-2,-6.161012221E-3,-7.679448463E-3
3.156570313E0,-1.363102160E-2,1.047197497E-3,-7.086036727E-3
3.160540625E0,-1.132718660E-2,8.953538723E-3,-5.427973811E-3
3.164512500E0,-1.057669520E-2,1.553343050E-2,-4.991641734E-3
3.168481250E0,-1.022762898E-2,1.876228862E-2,-4.276056774E-3
3.172451563E0,-1.075122785E-2,2.364921197E-2,-5.899212789E-3
3.176423438E0,-9.232792072E-3,3.066543490E-2,-6.928957067E-3
3.180393750E0,-7.173303049E-3,3.806563094E-2,-7.347836159E-3
3.184364063E0,-3.630284918E-3,4.796164855E-2,-8.953538723E-3
3.188334375E0,-1.954768784E-3,5.581562966E-2,-7.557275705E-3
3.192304688E0,5.934119690E-4,6.344271451E-2,-7.801621687E-3
3.196275000E0,1.396263367E-3,6.768386811E-2,-8.482299745E-3
3.200246875E0,-7.853981806E-4,6.953391433E-2,-6.248278543E-3
3.204217188E0,-2.111848444E-3,7.061602175E-2,-7.452555932E-3
3.208185938E0,-2.303834539E-3,7.271041721E-2,-7.033676840E-3
3.212157813E0,-3.263765713E-3,7.311183959E-2,-8.569566533E-3
3.216128125E0,-7.714355364E-3,5.969025940E-2,-8.377579972E-3
3.220098438E0,-1.911135577E-2,3.043854237E-2,-9.372417815E-3
3.224068750E0,-3.459242731E-2,-4.293509759E-3,-1.370083448E-2
3.228039063E0,-4.719370231E-2,-3.562216833E-2,-1.768018492E-2
3.232010938E0,-5.441936478E-2,-5.059709400E-2,-2.473131567E-2
3.235981250E0,-4.426154867E-2,-3.387684003E-2,-3.200933710E-2
3.239951563E0,-2.129301615E-2,-2.094394993E-3,-2.954842336E-2
3.243921875E0,3.071779385E-3,2.619739249E-2,-2.542944625E-2
3.247892188E0,1.951278187E-2,4.473278672E-2,-2.270673402E-2
3.251862500E0,2.139773592E-2,5.122541264E-2,-1.928588748E-2
3.255834375E0,1.165879890E-2,4.614650458E-2,-1.687733456E-2
3.259804688E0,-3.839724232E-3,3.666936606E-2,-1.535889693E-2
3.263775000E0,-1.766273193E-2,3.073524870E-2,-1.495747175E-2
3.267745313E0,-2.773328125E-2,2.513274178E-2,-1.185078546E-2
3.271715625E0,-3.218387067E-2,2.155481651E-2,-8.325220086E-3
3.275685938E0,-3.183480725E-2,2.017600648E-2,-7.103490178E-3
3.279656250E0,-2.720968239E-2,1.680752076E-2,-3.473205259E-3
3.283628125E0,-2.359685116E-2,9.320057929E-3,1.675516134E-3
3.287632813E0,-2.069960535E-2,-7.679448463E-4,5.585053470E-3
3.291568750E0,-2.340486459E-2,-1.302015595E-2,9.459684603E-3
3.295539063E0,-2.953097038E-2,-3.036872856E-2,1.213003788E-2
3.299509375E0,-3.804817796E-2,-4.963716492E-2,1.417207345E-2
3.303479688E0,-4.630358517E-2,-6.822492182E-2,1.380555425E-2
3.307450000E0,-5.146975815E-2,-8.496262878E-2,1.190314535E-2
3.311420313E0,-5.311036855E-2,-9.850638360E-2,1.216494478E-2
3.315392188E0,-5.143485218E-2,-1.041437984E-1,1.101302728E-2
3.319362500E0,-4.918337986E-2,-1.027649865E-1,8.761553094E-3
3.323332813E0,-4.363323003E-2,-9.622000158E-2,8.028514683E-3
3.327303125E0,-3.495894372E-2,-8.443903178E-2,7.225662936E-3
3.331273438E0,-2.471386269E-2,-7.201228291E-2,5.375613924E-3
3.335243750E0,-1.558579039E-2,-6.080726907E-2,4.590216093E-3
3.339215625E0,-8.220500313E-3,-5.246459693E-2,5.427973811E-3
3.343187500E0,-4.642575979E-3,-4.546582699E-2,5.358160939E-3
3.347154688E0,-2.356194425E-3,-3.958406672E-2,5.637413356E-3
3.351126563E0,-8.726646192E-4,-3.759439290E-2,7.208209950E-3
3.355096875E0,-1.972222002E-3,-3.722787276E-2,7.173303049E-3
3.359067188E0,-3.926991019E-3,-3.848451003E-2,8.220500313E-3
3.363037500E0,-3.525565146E-3,-4.077089205E-2,1.043706853E-2
3.367009375E0,-2.984513063E-3,-4.272565991E-2,1.162389293E-2
3.370978125E0,-1.780235791E-3,-4.443608224E-2,1.284562331E-2
3.374950000E0,-1.919862116E-3,-4.548327997E-2,1.404990070E-2
3.378920313E0,-2.548180753E-3,-4.665265232E-2,1.647590846E-2
3.382890625E0,-4.974188283E-3,-4.923573881E-2,1.726130582E-2
3.386860938E0,-7.417649496E-3,-5.396557972E-2,1.808161102E-2
3.390831250E0,-1.167625282E-2,-6.000442058E-2,1.993165910E-2
3.394801563E0,-1.668534800E-2,-6.370452046E-2,2.042035200E-2
3.398773438E0,-2.010619268E-2,-6.241297349E-2,2.265437320E-2
3.402742188E0,-2.385865152E-2,-5.815437064E-2,2.384119667E-2
3.406714063E0,-2.558652684E-2,-5.012585595E-2,2.474876866E-2
3.410684375E0,-2.694788389E-2,-3.703588620E-2,2.619739249E-2
3.414654688E0,-2.654645778E-2,-2.804744057E-2,2.717477642E-2
3.418625000E0,-2.778564207E-2,-1.848303713E-2,2.802998759E-2
3.422595313E0,-3.052580915E-2,-1.132718660E-2,3.005456924E-2
3.426565625E0,-3.349286690E-2,-7.051130291E-3,3.014183603E-2
3.430535938E0,-3.668681905E-2,-5.934119225E-3,3.045599535E-2
3.434507813E0,-3.991568089E-2,-5.934119225E-3,3.129375353E-2
3.438478125E0,-4.106759652E-2,-7.592182141E-3,3.316125646E-2
3.442448438E0,-4.031710699E-2,-1.193805225E-2,3.230604529E-2
3.446418750E0,-3.890338913E-2,-1.398008689E-2,3.087487444E-2
3.450389063E0,-3.583160788E-2,-1.572541706E-2,2.794272080E-2
3.454359375E0,-3.186971322E-2,-1.797689125E-2,2.567379363E-2
3.458331250E0,-2.918190509E-2,-2.263692021E-2,2.192133479E-2
3.462307813E0,-2.591813914E-2,-2.474876866E-2,1.747074537E-2
3.466271875E0,-2.326523885E-2,-2.380629070E-2,1.150172018E-2
3.470242188E0,-1.865756884E-2,-2.279400080E-2,7.696901914E-3
3.474212500E0,-1.595230959E-2,-2.328269184E-2,4.293509759E-3
3.478182813E0,-1.207767799E-2,-2.176425606E-2,-9.424777818E-4
3.482153125E0,-5.969026126E-3,-1.354375482E-2,-5.480333697E-3
3.486123438E0,4.642575979E-3,2.443460980E-3,-7.417649496E-3
3.490095313E0,1.720894687E-2,2.227040194E-2,-8.063420653E-3
3.494065625E0,2.860594541E-2,4.068362340E-2,-7.487462368E-3
3.498035938E0,3.625048697E-2,5.963790044E-2,-4.171337001E-3
3.502006250E0,4.005530477E-2,7.723081857E-2,-6.108652451E-4
3.505976563E0,4.073598608E-2,8.799950033E-2,4.066617228E-3
3.509946875E0,3.640756756E-2,8.792968839E-2,8.604473434E-3
3.513918750E0,2.713987045E-2,8.114035428E-2,1.326450240E-2
3.517889063E0,1.705186628E-2,7.154104859E-2,1.551597659E-2
3.521859375E0,6.894050632E-3,5.850343779E-2,1.506219152E-2
3.525829688E0,-3.717551241E-3,3.598868847E-2,1.418952644E-2
3.529800000E0,-1.310742274E-2,7.696901914E-3,1.260127686E-2
3.533770313E0,-1.722639985E-2,-1.308996975E-2,8.272860199E-3
3.537740625E0,-1.619665511E-2,-2.813470736E-2,6.544984877E-3
3.541710938E0,-1.244419720E-2,-3.717551380E-2,4.433136433E-3
3.545682813E0,-8.604473434E-3,-4.389503226E-2,2.391101094E-3
3.549653125E0,-6.998770405E-3,-4.729842395E-2,1.692969352E-3
3.553623438E0,-9.756390937E-3,-5.075417459E-2,-2.792526793E-4
3.557593750E0,-1.738347858E-2,-5.345943570E-2,-2.286381321E-3
3.561564063E0,-2.466150187E-2,-5.222025141E-2,-5.829399452E-3
3.565534375E0,-3.047344834E-2,-4.782202095E-2,-1.052433532E-2
3.569504688E0,-3.258529678E-2,-3.237585723E-2,-1.565560326E-2
3.573476563E0,-3.117158078E-2,-1.434660610E-2,-1.804670505E-2
3.577446875E0,-2.989749052E-2,-3.159045940E-3,-1.685987972E-2
3.581417188E0,-3.167772666E-2,5.445427261E-3,-1.399754081E-2
3.585387500E0,-3.214896470E-2,2.213077433E-2,-1.384046115E-2
3.589357813E0,-2.836159989E-2,4.125958309E-2,-1.185078546E-2
3.593328125E0,-2.043780498E-2,5.768313259E-2,-8.779006079E-3
3.597300000E0,-1.279326342E-2,6.904522330E-2,-7.225662936E-3
3.601268750E0,-6.894050632E-3,7.440338284E-2,-6.352998316E-3
3.605240625E0,-4.450589418E-3,7.370525599E-2,-7.051130291E-3
3.609210938E0,-3.368485486E-3,6.735225767E-2,-5.113814492E-3
3.613181250E0,-3.385938704E-3,5.831145123E-2,-5.201081280E-3
3.617151563E0,-4.450589418E-3,5.023057386E-2,-5.532693584E-3
3.621121875E0,-7.731808349E-3,4.225442186E-2,-4.415682983E-3
3.625092188E0,-1.158898603E-2,3.160791099E-2,-2.617993858E-3
3.629062500E0,-1.500983164E-2,1.738347858E-2,-2.460914198E-3
3.633034375E0,-1.621410809E-2,3.735004691E-3,-1.500983140E-3
3.637004688E0,-1.848303713E-2,-6.579891313E-3,-1.710422686E-3
3.640975000E0,-1.862266287E-2,-1.274090353E-2,-2.059488557E-3
3.644945313E0,-1.925098151E-2,-1.750565320E-2,-2.757620299E-3
3.648915625E0,-2.031563222E-2,-2.131047100E-2,-3.089232836E-3
3.652885938E0,-2.134537697E-2,-2.471386269E-2,-3.630284918E-3
3.656856250E0,-2.117084339E-2,-2.633701824E-2,-3.612831468E-3
3.660826563E0,-2.097885683E-2,-2.961823717E-2,-4.363323096E-3
3.664798438E0,-2.272418700E-2,-3.153809905E-2,-4.869468510E-3
3.668768750E0,-2.349213138E-2,-3.054326214E-2,-5.148721393E-3
3.672739063E0,-2.398082428E-2,-2.905973233E-2,-4.921828397E-3
3.676709375E0,-2.487094142E-2,-2.792526782E-2,-5.009094719E-3
3.680679688E0,-2.420771681E-2,-3.108431399E-2,-5.480333697E-3
3.684650000E0,-2.417281084E-2,-3.778637946E-2,-6.963863503E-3
3.688621875E0,-2.492330223E-2,-4.209734127E-2,-8.395033889E-3
3.692592188E0,-2.225294709E-2,-4.487241432E-2,-9.843656793E-3
3.696560938E0,-1.884955540E-2,-4.455825686E-2,-1.096066739E-2
3.700535938E0,-1.539380383E-2,-4.206243530E-2,-1.169370580E-2
3.704503125E0,-1.193805225E-2,-4.005530477E-2,-1.474803220E-2
3.708473438E0,-9.983283468E-3,-3.576179594E-2,-1.616174914E-2
3.712445313E0,-8.569566533E-3,-3.193952516E-2,-1.893682219E-2
3.716414063E0,-7.749261800E-3,-2.687807009E-2,-2.010619268E-2
3.720385938E0,-8.290314116E-3,-1.984439418E-2,-2.117084339E-2
3.724356250E0,-1.038470864E-2,-1.438151300E-2,-1.963495463E-2
3.728326563E0,-1.319468953E-2,-1.024508290E-2,-1.953023486E-2
3.732296875E0,-1.858775690E-2,-1.022762898E-2,-1.860520989E-2
3.736267188E0,-2.195624262E-2,-9.023352526E-3,-1.881464943E-2
3.740237500E0,-2.525491454E-2,-5.550147034E-3,-2.007128671E-2
3.744209375E0,-2.731440216E-2,-7.330382941E-4,-1.994911395E-2
3.748178125E0,-2.844886668E-2,3.525565146E-3,-1.961750165E-2
3.752150000E0,-2.858849242E-2,6.457718089E-3,-1.877974346E-2
3.756120313E0,-3.028146178E-2,3.595378250E-3,-2.021091245E-2
3.760090625E0,-3.253293782E-2,-2.094394993E-3,-2.148500271E-2
3.764060938E0,-3.326597437E-2,-5.550147034E-3,-2.347467840E-2
3.768031250E0,-3.136356547E-2,-5.689773243E-3,-2.431243658E-2
3.772001563E0,-2.799508162E-2,-1.972222002E-3,-2.586578019E-2
3.775971875E0,-2.515019476E-2,1.396263367E-3,-2.626720443E-2
3.779943750E0,-2.291617356E-2,3.333578818E-3,-2.713987045E-2
3.783914063E0,-2.352703735E-2,2.338741207E-3,-2.586578019E-2
3.787884375E0,-2.670353837E-2,-2.722713631E-3,-2.476622164E-2
3.791854688E0,-2.843141370E-2,-8.115780540E-3,-2.298598550E-2
3.795825000E0,-3.220132366E-2,-1.689478755E-2,-2.010619268E-2
3.799795313E0,-3.529055789E-2,-2.460914291E-2,-1.755801216E-2
3.803767188E0,-3.684389964E-2,-3.338814899E-2,-1.417207345E-2
3.807737500E0,-3.815289587E-2,-4.426154867E-2,-1.089085452E-2
3.811707813E0,-3.745476529E-2,-5.206317082E-2,-7.923794910E-3
3.815678125E0,-3.515093029E-2,-5.726425350E-2,-6.091198884E-3
3.819653125E0,-3.094468825E-2,-5.831145123E-2,-3.804817796E-3
3.823618750E0,-3.028146178E-2,-6.595598906E-2,1.588249579E-3
3.827589063E0,-3.148574010E-2,-7.323401421E-2,5.253441166E-3
3.831560938E0,-3.103195317E-2,-8.114035428E-2,3.961897455E-3
3.835529688E0,-3.001966327E-2,-8.562584966E-2,1.954768784E-3
3.839501563E0,-2.598795295E-2,-8.332201838E-2,2.495820867E-3
3.843471875E0,-2.028072625E-2,-7.459536940E-2,9.773843922E-4
3.847442188E0,-1.382300723E-2,-5.953317881E-2,-1.954768784E-3
3.851412500E0,-7.470009383E-3,-4.386012256E-2,-5.602506921E-3
3.855382813E0,-2.443460980E-4,-2.741912194E-2,-8.045967668E-3
3.859353125E0,5.393067375E-3,-7.941247895E-3,-1.244419720E-2
3.863325000E0,8.377579972E-3,1.624901593E-2,-1.584758982E-2
3.867295313E0,9.302604944E-3,4.031710699E-2,-1.960004680E-2
3.871265625E0,1.029744279E-2,6.496115774E-2,-2.103121765E-2
3.875235938E0,7.539822254E-3,8.388052136E-2,-2.291617356E-2
3.879206250E0,3.508111695E-3,9.484118968E-2,-2.370157093E-2
3.883176563E0,-8.726646047E-5,9.890780598E-2,-2.600540593E-2
3.887148438E0,-1.623156248E-3,1.016130671E-1,-2.707005665E-2
3.891118750E0,-6.806784077E-4,1.027649865E-1,-2.809980139E-2
3.895089063E0,1.518436475E-3,1.041263416E-1,-2.626720443E-2
3.899059375E0,5.253441166E-3,1.041787043E-1,-2.457423508E-2
3.903029688E0,9.389871731E-3,1.011767387E-1,-2.218313515E-2
3.907000000E0,1.047197543E-2,9.663888067E-2,-1.855284907E-2
3.910970313E0,1.014036313E-2,8.702211827E-2,-1.502728462E-2
3.914940625E0,7.347836159E-3,7.248352468E-2,-1.261873078E-2
3.918912500E0,7.365289610E-3,5.543165654E-2,-1.169370580E-2
3.922882813E0,7.382742595E-3,3.909537569E-2,-1.129228063E-2
3.926851563E0,9.040805511E-3,2.654645778E-2,-1.027998887E-2
3.930823438E0,1.293289009E-2,1.937315427E-2,-1.001818944E-2
3.934793750E0,1.621410809E-2,1.614429615E-2,-9.948376566E-3
3.938764063E0,1.736602560E-2,1.485275198E-2,-1.308996975E-2
3.942734375E0,1.932079531E-2,1.736602560E-2,-1.541125681E-2
3.946704688E0,2.028072625E-2,2.555162087E-2,-1.829105057E-2
3.950676563E0,1.933824830E-2,3.492403775E-2,-1.918116771E-2
3.954646875E0,1.682497375E-2,4.263839498E-2,-1.701696031E-2
3.958617188E0,1.179842558E-2,4.209734127E-2,-1.612684131E-2
3.962587500E0,5.515240598E-3,3.803072497E-2,-1.771509275E-2
3.966557813E0,1.780235791E-3,3.590142354E-2,-1.933824830E-2
3.970528125E0,5.061454722E-4,3.895574808E-2,-2.321287990E-2
3.974498438E0,2.111848444E-3,5.030038953E-2,-2.769837528E-2
3.978470313E0,2.548180753E-3,6.394886225E-2,-3.398156166E-2
3.982440625E0,2.513274085E-3,7.700392604E-2,-3.982841223E-2
3.986410938E0,2.042035107E-3,8.641125262E-2,-4.633849114E-2
3.990381250E0,1.623156248E-3,9.339256585E-2,-5.087634921E-2
3.994351563E0,1.221730490E-3,9.791296721E-2,-5.658357590E-2
3.998321875E0,1.413716702E-3,1.015083492E-1,-5.927138031E-2
4.002293750E0,2.809980186E-3,1.016828790E-1,-6.192428246E-2
4.006262500E0,4.380776547E-3,1.002342552E-1,-6.639232486E-2
4.010232813E0,8.552113548E-3,1.003040746E-1,-6.876597553E-2
4.014204688E0,1.356120780E-2,1.019795910E-1,-7.087782025E-2
4.018175000E0,2.237512171E-2,1.076693609E-1,-7.593927532E-2
4.022145313E0,4.483750835E-2,1.395216137E-1,-9.274679422E-2
4.026115625E0,8.440412581E-2,1.994736791E-1,-1.213876456E-1
4.030085938E0,1.307426095E-1,2.634923458E-1,-1.309869587E-1
4.034056250E0,1.690176874E-1,3.069685102E-1,-1.303237379E-1
4.038028125E0,1.872912794E-1,3.363598585E-1,-1.308647841E-1
4.041998438E0,1.834690124E-1,3.616322279E-1,-1.361531317E-1
4.045968750E0,1.621410847E-1,3.751585186E-1,-1.381253600E-1
4.049939063E0,1.296430528E-1,3.734132051E-1,-1.314232945E-1
4.053909375E0,8.428195119E-2,3.604454100E-1,-1.229060888E-1
4.057887500E0,4.396484420E-2,3.444232643E-1,-1.125388294E-1
4.061851563E0,1.089085452E-2,3.158696890E-1,-1.023112014E-1
4.065820313E0,-1.141445339E-2,2.784672678E-1,-9.182177484E-2
4.069792188E0,-2.401573025E-2,2.358812541E-1,-8.035495877E-2
4.073762500E0,-2.474876866E-2,1.940806061E-1,-6.908012927E-2
4.077732813E0,-1.603957638E-2,1.596976221E-1,-6.117378920E-2
4.081703125E0,-6.981316983E-5,1.310044080E-1,-5.490805954E-2
4.085673438E0,1.628392190E-2,1.048593819E-1,-5.190609023E-2
4.089643750E0,2.611012571E-2,7.712610066E-2,-4.841543362E-2
4.093615625E0,2.762856148E-2,5.122541264E-2,-4.660028964E-2
4.097585938E0,1.884955540E-2,2.851868048E-2,-4.658283666E-2
4.101556250E0,4.049163777E-3,1.008800324E-2,-4.673991725E-2
4.105526563E0,-1.108284108E-2,1.745329209E-4,-4.902629927E-2
4.109496875E0,-2.045525797E-2,-4.660028964E-3,-5.248204991E-2
4.113467188E0,-2.275909297E-2,-5.235987919E-5,-5.684537441E-2
4.117437500E0,-1.928588748E-2,1.272345055E-2,-6.099925563E-2
4.121409375E0,-9.494591504E-3,3.818780556E-2,-6.644468755E-2
4.125378125E0,3.874630900E-3,7.417649031E-2,-7.133160532E-2
4.129350000E0,1.534144394E-2,1.154709831E-1,-7.562511414E-2
4.133320313E0,2.090904489E-2,1.532050073E-1,-7.778932154E-2
4.137290625E0,1.844812930E-2,1.856332123E-1,-8.000589162E-2
4.141262500E0,1.387536712E-2,2.067342550E-1,-7.953465730E-2
4.145231250E0,7.278022822E-3,2.152339965E-1,-7.745771110E-2
4.149201563E0,7.155850180E-4,2.150420099E-1,-7.314674556E-2
4.153173438E0,-2.460914198E-3,2.101725489E-1,-6.435029209E-2
4.157143750E0,2.792526793E-4,2.013760954E-1,-5.483824387E-2
4.161114063E0,7.173303049E-3,1.947089285E-1,-4.195771366E-2
4.165084375E0,1.996656694E-2,1.890540570E-1,-2.911209129E-2
4.169054688E0,3.670427576E-2,1.910437346E-1,-1.823868975E-2
4.173025000E0,5.536184460E-2,1.993864179E-1,-1.059414819E-2
4.177001563E0,7.454301417E-2,2.152689099E-1,-3.019419499E-3
4.180967188E0,9.232791513E-2,2.371553332E-1,3.141592722E-3
4.184935938E0,1.091528907E-1,2.623055279E-1,4.607669078E-3
4.188907813E0,1.236391217E-1,2.821150124E-1,3.193952609E-3
4.192878125E0,1.365894675E-1,2.948035598E-1,-6.283185212E-4
4.196848438E0,1.494525373E-1,2.978229821E-1,-7.347836159E-3
4.200820313E0,1.639387757E-1,2.916619778E-1,-1.377064735E-2
4.204789063E0,1.797689050E-1,2.771233916E-1,-2.117084339E-2
4.208760938E0,1.987929940E-1,2.548180819E-1,-2.520255372E-2
4.212731250E0,2.197020501E-1,2.324254960E-1,-2.820452116E-2
4.216701563E0,2.436828762E-1,2.116909772E-1,-3.096214123E-2
4.220671875E0,2.687458098E-1,1.909215599E-1,-3.647737950E-2
4.224642188E0,2.913827300E-1,1.676039696E-1,-4.258603230E-2
4.228612500E0,3.123615682E-1,1.398532391E-1,-4.614650458E-2
4.232584375E0,3.270048797E-1,1.079311594E-1,-4.736823589E-2
4.236553125E0,3.363947570E-1,7.656759769E-2,-4.694935679E-2
4.240525000E0,3.406533599E-1,5.227261037E-2,-4.380776361E-2
4.244495313E0,3.378433883E-1,3.495894372E-2,-3.743731230E-2
4.248465625E0,3.313856721E-1,2.412045002E-2,-2.898991853E-2
4.252435938E0,3.215769231E-1,2.174680308E-2,-1.940806210E-2
4.256406250E0,3.092199862E-1,2.413790300E-2,-1.059414819E-2
4.260378125E0,2.938261926E-1,2.883283980E-2,-3.473205259E-3
4.264346875E0,2.807711065E-1,3.787364438E-2,3.333578818E-3
4.268318750E0,2.689203322E-1,5.077162758E-2,7.958701812E-3
4.272289063E0,2.620786428E-1,6.918485463E-2,1.308996975E-2
4.276259375E0,2.583436370E-1,9.039060026E-2,1.473057922E-2
4.280264063E0,2.584134340E-1,1.156455129E-1,1.771509275E-2
4.284200000E0,2.614503205E-1,1.437627673E-1,2.000147291E-2
4.288170313E0,2.649584413E-1,1.726130694E-1,2.059488557E-2
4.292140625E0,2.693217695E-1,1.999972761E-1,1.909390278E-2
4.296115625E0,2.749766111E-1,2.255139947E-1,1.569050923E-2
4.300082813E0,2.811201811E-1,2.487268746E-1,9.686577134E-3
4.304053125E0,2.882934809E-1,2.662325203E-1,1.954768784E-3
4.308023438E0,2.966361642E-1,2.766521275E-1,-6.981316954E-3
4.311993750E0,3.079808056E-1,2.793748379E-1,-1.684242673E-2
4.315965625E0,3.207391500E-1,2.791828513E-1,-2.438225038E-2
4.319934375E0,3.360980451E-1,2.762681544E-1,-3.221877664E-2
4.323904688E0,3.548603356E-1,2.684316337E-1,-3.680899367E-2
4.327876563E0,3.719471097E-1,2.579596639E-1,-4.042182490E-2
4.331846875E0,3.908490241E-1,2.443984598E-1,-4.347615317E-2
4.335817188E0,4.099429250E-1,2.304707319E-1,-4.487241432E-2
4.339787500E0,4.278500080E-1,2.199114859E-1,-4.101523757E-2
4.343757813E0,4.444131851E-1,2.103819847E-1,-3.625048697E-2
4.347728125E0,4.610810876E-1,1.979727000E-1,-2.764601447E-2
4.351700000E0,4.765621424E-1,1.816364080E-1,-1.589994878E-2
4.355670313E0,4.872260988E-1,1.618792862E-1,-8.028514567E-4
4.359640625E0,4.942248762E-1,1.389456540E-1,1.305506285E-2
4.363610938E0,4.940852523E-1,1.146157682E-1,2.691297606E-2
4.367581250E0,4.908913076E-1,8.719664812E-2,4.045673087E-2
4.371551563E0,4.838925302E-1,6.033603102E-2,5.677555874E-2
4.375521875E0,4.737870693E-1,3.403392062E-2,7.489208132E-2
4.379492188E0,4.634721875E-1,1.319468953E-2,9.314822406E-2
4.383464063E0,4.534016252E-1,-6.370451767E-3,1.110203937E-1
4.387434375E0,4.465599358E-1,-2.216568217E-2,1.244070679E-1
4.391404688E0,4.371002614E-1,-3.021164984E-2,1.411447823E-1
4.395375000E0,4.238008559E-1,-1.125737373E-2,1.522974372E-1
4.399345313E0,4.093495309E-1,3.597123548E-2,1.532399058E-1
4.403315625E0,3.978827000E-1,9.679596126E-2,1.506219208E-1
4.407287500E0,3.896447420E-1,1.558579057E-1,1.464680284E-1
4.411257813E0,3.822096586E-1,2.046747655E-1,1.396787018E-1
4.415226563E0,3.769736588E-1,2.413441241E-1,1.326275766E-1
4.419198438E0,3.732037544E-1,2.740865052E-1,1.205673441E-1
4.423168750E0,3.717551231E-1,3.092374504E-1,1.059763953E-1
4.427139063E0,3.701843321E-1,3.510904312E-1,8.831366152E-2
4.431109375E0,3.709697425E-1,3.973591030E-1,7.016223669E-2
4.435079688E0,3.725405335E-1,4.389503002E-1,5.202826485E-2
4.439050000E0,3.738495111E-1,4.786914587E-1,3.452261165E-2
4.443021875E0,3.740414977E-1,5.149419308E-1,1.745329238E-2
4.446992188E0,3.764849603E-1,5.421690941E-1,3.368485486E-3
4.450962500E0,3.798534572E-1,5.579991937E-1,-5.707226694E-3
4.454932813E0,3.838851750E-1,5.654343367E-1,-1.410226058E-2
4.458903125E0,3.885451853E-1,5.640729666E-1,-2.125811018E-2
4.462873438E0,3.914249837E-1,5.504593849E-1,-2.567379363E-2
4.466845313E0,3.942873180E-1,5.281017423E-1,-2.878047898E-2
4.470815625E0,3.935193717E-1,4.980297089E-1,-3.096214123E-2
4.474785938E0,3.909188509E-1,4.650604427E-1,-3.227113932E-2
4.478756250E0,3.849672675E-1,4.290368259E-1,-3.291691095E-2
4.482726563E0,3.776892424E-1,3.978303373E-1,-3.384193406E-2
4.486696875E0,3.681248426E-1,3.704112172E-1,-3.392919898E-2
4.490668750E0,3.555410206E-1,3.486644328E-1,-3.410373256E-2
4.494639063E0,3.408104479E-1,3.290120065E-1,-3.384193406E-2
4.498609375E0,3.243345320E-1,3.133389652E-1,-3.406882659E-2
4.502579688E0,3.061830997E-1,3.024830222E-1,-3.534291685E-2
4.506550000E0,2.859547436E-1,2.970899343E-1,-3.703588620E-2
4.510520313E0,2.648711801E-1,2.944894135E-1,-3.806563094E-2
4.514490625E0,2.447649688E-1,2.927440703E-1,-3.953170776E-2
4.518460938E0,2.247809470E-1,2.922903001E-1,-4.113740847E-2
4.522431250E0,2.049540132E-1,2.933723927E-1,-4.426154867E-2
4.526403125E0,1.856506765E-1,2.978753448E-1,-4.808381945E-2
4.530373438E0,1.676737815E-1,2.992017865E-1,-5.314527452E-2
4.534343750E0,1.519832760E-1,2.986432910E-1,-5.672319978E-2
4.538314063E0,1.394692659E-1,2.964092791E-1,-6.037093699E-2
4.542284375E0,1.256637126E-1,2.891836166E-1,-6.115633622E-2
4.546254688E0,1.142318025E-1,2.793225050E-1,-6.092944369E-2
4.550226563E0,1.052433550E-1,2.672797143E-1,-6.145304441E-2
4.554196875E0,9.882054478E-2,2.558478117E-1,-6.070255116E-2
4.558167188E0,9.625490755E-2,2.451838553E-1,-5.869542435E-2
4.562137500E0,9.468410909E-2,2.363873869E-1,-5.651376024E-2
4.566107813E0,9.546951205E-2,2.292838991E-1,-5.518731102E-2
4.570078125E0,9.717993438E-2,2.199114859E-1,-5.845107511E-2
4.574048438E0,9.958848357E-2,2.087239176E-1,-6.366961449E-2
4.578018750E0,1.006705910E-1,2.026501745E-1,-7.166321576E-2
4.581989063E0,9.974556416E-2,2.013586313E-1,-8.157669008E-2
4.585960938E0,9.770353138E-2,2.052332610E-1,-9.272934496E-2
4.589931250E0,9.506808221E-2,2.143787891E-1,-1.066221669E-1
4.593901563E0,9.105382860E-2,2.310641408E-1,-1.222952232E-1
4.597871875E0,8.443903178E-2,2.536312342E-1,-1.378286481E-1
4.601842188E0,7.714354992E-2,2.778738737E-1,-1.530130208E-1
4.605812500E0,6.862634420E-2,3.048217595E-1,-1.676563323E-1
4.609784375E0,5.902703479E-2,3.284186125E-1,-1.833642870E-1
4.613754688E0,4.989896342E-2,3.512649536E-1,-1.983043104E-1
4.617725000E0,3.879866749E-2,3.716853261E-1,-2.136457562E-1
4.621695313E0,2.776818909E-2,3.899589181E-1,-2.278701812E-1
4.625665625E0,1.466076542E-2,4.040437341E-1,-2.412219495E-1
4.629637500E0,3.106686054E-3,4.123863876E-1,-2.547831535E-1
4.633606250E0,-8.168140426E-3,4.145680666E-1,-2.655518353E-1
4.637576563E0,-1.743583940E-2,4.106236100E-1,-2.752733231E-1
4.641548438E0,-2.466150187E-2,4.014606476E-1,-2.817310393E-1
4.645518750E0,-2.731440216E-2,3.873409331E-1,-2.835636437E-1
4.649489063E0,-2.994984947E-2,3.681423068E-1,-2.852391601E-1
4.653464063E0,-2.898991853E-2,3.488389552E-1,-2.846283019E-1
4.657429688E0,-2.663372457E-2,3.290469348E-1,-2.838777900E-1
4.661400000E0,-2.359685116E-2,3.104940653E-1,-2.818532288E-1
4.665371875E0,-2.296853252E-2,2.927091718E-1,-2.808932960E-1
4.669342188E0,-2.338741161E-2,2.773851752E-1,-2.791305184E-1
4.673312500E0,-2.289872058E-2,2.675065994E-1,-2.815216184E-1
4.677282813E0,-2.473131567E-2,2.616248429E-1,-2.853089571E-1
4.681253125E0,-2.701769583E-2,2.609965205E-1,-2.917143404E-1
4.685223438E0,-2.958333120E-2,2.659532726E-1,-2.995683253E-1
4.689195313E0,-3.309144080E-2,2.738596201E-1,-3.091327250E-1
4.693165625E0,-4.003785178E-2,2.849599123E-1,-3.190112710E-1
4.697134375E0,-4.801400751E-2,2.992890477E-1,-3.278950155E-1
4.701106250E0,-5.763076991E-2,3.134262264E-1,-3.359409869E-1
4.705076563E0,-6.812020391E-2,3.255388141E-1,-3.442138433E-1
4.709046875E0,-7.747516781E-2,3.360631466E-1,-3.483328223E-1
4.713017188E0,-8.503244072E-2,3.430444598E-1,-3.519631028E-1
4.716987500E0,-8.957029879E-2,3.465176821E-1,-3.515616655E-1
4.720957813E0,-8.848819137E-2,3.459067941E-1,-3.472332656E-1
4.724929688E0,-8.443903178E-2,3.406358957E-1,-3.412816823E-1
4.728900000E0,-7.962191850E-2,3.318743706E-1,-3.322059810E-1
4.732870313E0,-7.370525599E-2,3.214721978E-1,-3.203551769E-1
4.736840625E0,-6.749188155E-2,3.122743070E-1,-3.077888191E-1
4.740810938E0,-6.225589290E-2,3.041585386E-1,-2.944195867E-1
4.744781250E0,-5.923647434E-2,2.979800701E-1,-2.801078856E-1
4.748751563E0,-5.663593486E-2,2.962172925E-1,-2.679255009E-1
4.752721875E0,-5.220279843E-2,2.983116806E-1,-2.573837042E-1
4.756693750E0,-4.382521659E-2,3.054849803E-1,-2.475575060E-1
4.760664063E0,-3.035127558E-2,3.148748577E-1,-2.400351316E-1
4.764634375E0,-1.223475765E-2,3.263591230E-1,-2.326523811E-1
4.768604688E0,1.068141498E-2,3.377910256E-1,-2.253045589E-1
4.772576563E0,3.504621238E-2,3.443883657E-1,-2.182708681E-1
4.776545313E0,6.260495633E-2,3.458020687E-1,-2.089159042E-1
4.780515625E0,8.772024512E-2,3.412118554E-1,-2.001543641E-1
4.784487500E0,1.087165624E-1,3.357838988E-1,-1.915498823E-1
4.788457813E0,1.263792962E-1,3.270048797E-1,-1.826661527E-1
4.792428125E0,1.394169033E-1,3.204948008E-1,-1.734333634E-1
4.796398438E0,1.462934911E-1,3.156428039E-1,-1.633453667E-1
4.800368750E0,1.519832760E-1,3.161664009E-1,-1.554564834E-1
4.804340625E0,1.555786431E-1,3.208438754E-1,-1.464680284E-1
4.808309375E0,1.533620805E-1,3.158871531E-1,-1.363102198E-1
4.812279688E0,1.472010612E-1,2.998475730E-1,-1.279326379E-1
4.816251563E0,1.389805675E-1,2.760936320E-1,-1.216669008E-1
4.820221875E0,1.297477782E-1,2.495820820E-1,-1.165879965E-1
4.824192188E0,1.214749143E-1,2.241351753E-1,-1.110378429E-1
4.828164063E0,1.092401594E-1,1.970476657E-1,-1.067443341E-1
4.832132813E0,9.911724925E-2,1.705361158E-1,-9.944885969E-2
4.836103125E0,8.730136603E-2,1.479864717E-1,-9.183922410E-2
4.840075000E0,7.323401421E-2,1.249481216E-1,-8.351400495E-2
4.844045313E0,5.857324973E-2,1.053829789E-1,-7.744026184E-2
4.848015625E0,4.255112633E-2,8.794713765E-2,-7.178539038E-2
4.851985938E0,2.633701824E-2,7.450810820E-2,-6.684610993E-2
4.855956250E0,7.661995478E-3,6.319837272E-2,-6.541494280E-2
4.859926563E0,-1.073377486E-2,5.496041849E-2,-6.789331138E-2
4.863898438E0,-2.743657492E-2,4.769985005E-2,-7.367035002E-2
4.867867188E0,-4.263839498E-2,4.324925691E-2,-8.344419301E-2
4.871837500E0,-5.426228791E-2,4.283038154E-2,-9.833184630E-2
4.875809375E0,-6.136577576E-2,4.590215907E-2,-1.177224591E-1
4.879779688E0,-6.517059356E-2,5.361651629E-2,-1.420523524E-1
4.883750000E0,-6.571164727E-2,7.052875310E-2,-1.672025472E-1
4.887720313E0,-6.661921740E-2,9.180431813E-2,-1.907819360E-1
4.891696875E0,-6.548475474E-2,1.085071191E-1,-2.133315951E-1
4.895662500E0,-5.993460491E-2,1.091005281E-1,-2.384817898E-1
4.899632813E0,-5.064945295E-2,9.765116870E-2,-2.619041204E-1
4.903603125E0,-4.129448906E-2,8.696975559E-2,-2.904227972E-1
4.907573438E0,-3.630284965E-2,8.930850029E-2,-3.204424381E-1
4.911543750E0,-3.515093029E-2,9.909979254E-2,-3.558202684E-1
4.915514063E0,-3.769911081E-2,1.088910922E-1,-3.936415613E-1
4.919484375E0,-4.260348529E-2,1.179144457E-1,-4.358785152E-1
4.923456250E0,-4.628613219E-2,1.268854290E-1,-4.795466661E-1
4.927425000E0,-5.190609023E-2,1.361531317E-1,-5.243492723E-1
4.931396875E0,-5.998696759E-2,1.433962435E-1,-5.700594187E-1
4.935367188E0,-7.007496804E-2,1.502379477E-1,-6.126803756E-1
4.939337500E0,-8.250171691E-2,1.521927118E-1,-6.486341357E-1
4.943307813E0,-9.416051209E-2,1.478817463E-1,-6.790901423E-1
4.947278125E0,-1.050339118E-1,1.315629184E-1,-6.960722208E-1
4.951248438E0,-1.152440906E-1,9.974556416E-2,-7.020063400E-1
4.955220313E0,-1.251401007E-1,6.359979510E-2,-6.981316805E-1
4.959190625E0,-1.340412796E-1,2.991494350E-2,-6.813067198E-1
4.963160938E0,-1.419301778E-1,5.044001620E-3,-6.477440596E-1
4.967131250E0,-1.488067657E-1,-9.861109778E-3,-5.980370641E-1
4.971101563E0,-1.548106968E-1,-2.277654596E-2,-5.371949077E-1
4.975071875E0,-1.614953130E-1,-3.666936606E-2,-4.654967487E-1
4.979043750E0,-1.699950695E-1,-5.775294453E-2,-3.843215108E-1
4.983014063E0,-1.820029318E-1,-8.236208558E-2,-3.008424044E-1
4.986984375E0,-2.022836655E-1,-1.166229025E-1,-2.110103071E-1
4.990954688E0,-2.313608378E-1,-1.654572189E-1,-1.221206859E-1
4.994925000E0,-2.694962919E-1,-2.186723053E-1,-4.639085010E-2
4.998895313E0,-3.118205369E-1,-2.745752037E-1,1.083849464E-2
5.002865625E0,-3.537084162E-1,-3.216641843E-1,5.178391933E-2
5.006835938E0,-3.878296018E-1,-3.521725237E-1,8.321730047E-2
5.010814063E0,-4.104316235E-1,-3.626794219E-1,1.042310596E-1
5.014778125E0,-4.227885604E-1,-3.632902801E-1,1.119628698E-1
5.018748438E0,-4.254065454E-1,-3.691546023E-1,1.034456640E-1
5.022718750E0,-4.214097559E-1,-3.965562582E-1,8.030259609E-2
5.026689063E0,-4.096985757E-1,-4.502251446E-1,3.979350626E-2
5.030659375E0,-3.956312239E-1,-5.214345455E-1,-1.425934024E-2
5.034629688E0,-3.850370944E-1,-5.962917209E-1,-7.801621407E-2
5.038601563E0,-3.794171214E-1,-6.631203890E-1,-1.521752626E-1
5.042571875E0,-3.827681541E-1,-7.148519754E-1,-2.314132005E-1
5.046542188E0,-3.934146762E-1,-7.560242414E-1,-3.052057326E-1
5.050512500E0,-4.106585085E-1,-8.003207445E-1,-3.771482110E-1
5.054482813E0,-4.309566915E-1,-8.549146056E-1,-4.493350089E-1
5.058453125E0,-4.510105252E-1,-9.092118144E-1,-5.298644900E-1
5.062423438E0,-4.712912440E-1,-9.518327713E-1,-6.062575579E-1
5.066393750E0,-4.893728793E-1,-9.740856886E-1,-6.797882915E-1
5.070365625E0,-5.026722550E-1,-9.782221317E-1,-7.472627163E-1
5.074335938E0,-5.148721337E-1,-9.678723216E-1,-8.019089699E-1
5.078306250E0,-5.294805169E-1,-9.424428940E-1,-8.459610939E-1
5.082276563E0,-5.551019907E-1,-8.953189850E-1,-8.885820508E-1
5.086246875E0,-5.884377360E-1,-8.233067393E-1,-9.291958213E-1
5.090217188E0,-6.296449900E-1,-7.211002111E-1,-9.652543664E-1
5.094189063E0,-6.772750020E-1,-5.883504748E-1,-9.984155893E-1
5.098157813E0,-7.229677439E-1,-4.376762211E-1,-1.023042202E0
5.102129688E0,-7.677004933E-1,-2.623229921E-1,-1.032624006E0
5.106100000E0,-8.052600026E-1,-8.208283782E-2,-1.027440429E0
5.110070313E0,-8.203570843E-1,4.576253146E-2,-1.012989044E0
5.114040625E0,-8.074241877E-1,1.027300805E-1,-9.986773729E-1
5.118010938E0,-7.689571381E-1,1.110727564E-1,-9.815557003E-1
5.121982813E0,-7.137698531E-1,9.683086723E-2,-9.632297754E-1
5.125951563E0,-6.479011178E-1,6.979571283E-2,-9.458113909E-1
5.129923438E0,-5.811597109E-1,2.417281084E-2,-9.278693795E-1
5.133893750E0,-5.234416723E-1,-1.932079531E-2,-9.146049023E-1
5.137864063E0,-4.725478888E-1,-6.421066076E-2,-9.024224877E-1
5.141834375E0,-4.339935780E-1,-1.173210293E-1,-8.912698030E-1
5.145804688E0,-4.121944010E-1,-1.686686128E-1,-8.854928017E-1
5.149775000E0,-4.182157815E-1,-2.208714187E-1,-8.836951256E-1
5.153746875E0,-4.545710087E-1,-2.704736590E-1,-8.832238913E-1
5.157717188E0,-5.143485069E-1,-3.075095713E-1,-8.811469078E-1
5.161687500E0,-5.951049328E-1,-3.278426528E-1,-8.779006004E-1
5.165657813E0,-6.810449362E-1,-3.600439727E-1,-8.740434051E-1
5.169628125E0,-7.766191363E-1,-4.029616117E-1,-8.697150350E-1
5.173598438E0,-8.790699840E-1,-4.246909618E-1,-8.643917441E-1
5.177568750E0,-9.648180008E-1,-4.522846341E-1,-8.464497924E-1
5.181539063E0,-1.013390541E0,-5.019217730E-1,-8.182801604E-1
5.185509375E0,-1.018085480E0,-5.731486678E-1,-7.871434689E-1
5.189481250E0,-9.780650735E-1,-6.537305117E-1,-7.571936250E-1
5.193451563E0,-8.932769895E-1,-7.447494268E-1,-7.145028710E-1
5.197421875E0,-7.956606746E-1,-7.994306087E-1,-6.610260010E-1
5.201392188E0,-7.125830054E-1,-7.867246270E-1,-6.139544845E-1
5.205362500E0,-6.507111192E-1,-7.249923348E-1,-5.915793180E-1
5.209334375E0,-6.071825624E-1,-6.432061791E-1,-6.014055610E-1
5.213304688E0,-5.843886137E-1,-5.561142564E-1,-6.397853494E-1
5.217275000E0,-5.841616988E-1,-4.789008796E-1,-6.909235120E-1
5.221245313E0,-6.006724834E-1,-4.157025218E-1,-7.339109182E-1
5.225215625E0,-6.265208125E-1,-3.731688559E-1,-7.677179575E-1
5.229185938E0,-6.513394117E-1,-3.547032773E-1,-7.842113376E-1
5.233156250E0,-6.665238142E-1,-3.559249938E-1,-7.860962749E-1
5.237126563E0,-6.760707498E-1,-3.864682615E-1,-7.828150988E-1
5.241096875E0,-6.740461588E-1,-4.820075631E-1,-7.858694196E-1
5.245068750E0,-6.713932753E-1,-5.939878821E-1,-7.819947600E-1
5.249039063E0,-6.664888859E-1,-6.929480433E-1,-7.862533927E-1
5.253009375E0,-6.549871564E-1,-7.861312032E-1,-7.902327180E-1
5.256979688E0,-6.421939135E-1,-8.814610839E-1,-7.983310223E-1
5.260950000E0,-6.256132722E-1,-9.930225015E-1,-8.215090036E-1
5.264920313E0,-6.081774235E-1,-1.111704946E0,-8.591732383E-1
5.268892188E0,-5.952096581E-1,-1.243023515E0,-9.081296921E-1
5.272896875E0,-5.859593749E-1,-1.383976221E0,-9.528275728E-1
5.276831250E0,-5.830795765E-1,-1.524824381E0,-9.882752299E-1
5.280803125E0,-5.900085568E-1,-1.650627732E0,-1.014367938E0
5.284773438E0,-6.074618697E-1,-1.750879407E0,-1.030198097E0
5.288743750E0,-6.385112405E-1,-1.823711991E0,-1.040809631E0
5.292715625E0,-6.849893928E-1,-1.861812472E0,-1.045225382E0
5.296684375E0,-7.365638614E-1,-1.862266302E0,-1.045330048E0
5.300654688E0,-7.879463434E-1,-1.833468318E0,-1.038418531E0
5.304626563E0,-8.308640122E-1,-1.788456321E0,-1.026689887E0
5.308596875E0,-8.661370873E-1,-1.727212787E0,-1.011278629E0
5.312567188E0,-8.894721270E-1,-1.653455138E0,-9.974731207E-1
5.316537500E0,-9.056513309E-1,-1.556973338E0,-9.857444763E-1
5.320507813E0,-9.112189412E-1,-1.438360691E0,-9.741031528E-1
5.324478125E0,-9.081646204E-1,-1.323256254E0,-9.617462158E-1
5.328450000E0,-8.959124088E-1,-1.218257308E0,-9.461778998E-1
5.332420313E0,-8.764694333E-1,-1.127814293E0,-9.279741049E-1
5.336389063E0,-8.536405563E-1,-1.047494292E0,-9.069603682E-1
5.340360938E0,-8.294502497E-1,-9.841039181E-1,-8.829795122E-1
5.344331250E0,-8.073543906E-1,-9.290212989E-1,-8.556476831E-1
5.348301563E0,-7.878765464E-1,-8.738863468E-1,-8.266926408E-1
5.352273438E0,-7.782772183E-1,-8.212821484E-1,-7.967078686E-1
5.356242188E0,-7.759384513E-1,-7.825357914E-1,-7.642098665E-1
5.360212500E0,-7.816457152E-1,-7.589040399E-1,-7.328463197E-1
5.364184375E0,-7.996749282E-1,-7.440338731E-1,-7.072073817E-1
5.368154688E0,-8.230798244E-1,-7.368256450E-1,-6.892305017E-1
5.372125000E0,-8.526456952E-1,-7.430739403E-1,-6.800326109E-1
5.376096875E0,-8.835380077E-1,-7.591658831E-1,-6.749188304E-1
5.380065625E0,-9.134355187E-1,-7.821692824E-1,-6.704333425E-1
5.384037500E0,-9.442405701E-1,-8.110545278E-1,-6.633996367E-1
5.388007813E0,-9.688497186E-1,-8.450709581E-1,-6.481629014E-1
5.391978125E0,-9.807004929E-1,-8.827002645E-1,-6.283883452E-1
5.395948438E0,-9.789726138E-1,-9.238201976E-1,-6.035174131E-1
5.399918750E0,-9.625490904E-1,-9.760753512E-1,-5.751907229E-1
5.403889063E0,-9.340478778E-1,-1.031105638E0,-5.434431434E-1
5.407860938E0,-8.961916566E-1,-1.092279434E0,-5.079082847E-1
5.411831250E0,-8.485441804E-1,-1.161045432E0,-4.691270590E-1
5.415800000E0,-7.980343699E-1,-1.237246394E0,-4.271169603E-1
5.419771875E0,-7.419568896E-1,-1.312801719E0,-3.854559660E-1
5.423742188E0,-6.779906154E-1,-1.389264584E0,-3.422241509E-1
5.427712500E0,-6.128025651E-1,-1.463249087E0,-2.997777462E-1
5.431682813E0,-5.515763760E-1,-1.526639462E0,-2.580120265E-1
5.435653125E0,-4.911705554E-1,-1.572105289E0,-2.155132592E-1
5.439623438E0,-4.334350526E-1,-1.588912845E0,-1.714785993E-1
5.443595313E0,-3.812148273E-1,-1.582908869E0,-1.273217648E-1
5.447565625E0,-3.341607451E-1,-1.558753490E0,-8.239699155E-2
5.451535938E0,-2.981022298E-1,-1.527006030E0,-3.694862127E-2
5.455506250E0,-2.711019814E-1,-1.495677352E0,1.160643995E-2
5.459476563E0,-2.521651685E-1,-1.475169778E0,5.784020945E-2
5.463446875E0,-2.466150224E-1,-1.471015811E0,9.520771354E-2
5.467418750E0,-2.475924045E-1,-1.486636519E0,1.163785532E-1
5.471389063E0,-2.489013970E-1,-1.517965198E0,1.229584441E-1
5.475357813E0,-2.477494925E-1,-1.551597714E0,1.139874533E-1
5.479329688E0,-2.405238301E-1,-1.560551286E0,9.327039123E-2
5.483300000E0,-2.246587873E-1,-1.533690572E0,6.546729803E-2
5.487270313E0,-2.019869536E-1,-1.484350204E0,3.122393973E-2
5.491242188E0,-1.740965992E-1,-1.420314074E0,-4.904375412E-3
5.495210938E0,-1.525068730E-1,-1.345195055E0,-5.300565064E-2
5.499181250E0,-1.387536824E-1,-1.264962316E0,-1.064999923E-1
5.503153125E0,-1.336573064E-1,-1.178236842E0,-1.648637950E-1
5.507123438E0,-1.269377917E-1,-1.088649154E0,-2.192308009E-1
5.511093750E0,-1.101477295E-1,-1.003424644E0,-2.650108039E-1
5.515064063E0,-7.052875310E-2,-9.166120291E-1,-3.011914790E-1
5.519034375E0,-3.176499158E-3,-8.076161742E-1,-3.298846781E-1
5.523004688E0,8.902924508E-2,-6.744475961E-1,-3.546683490E-1
5.526975000E0,2.136457562E-1,-5.235987902E-1,-3.796614707E-1
5.530946875E0,3.781255782E-1,-3.765024245E-1,-3.971671164E-1
5.534915625E0,5.662720799E-1,-2.290221006E-1,-3.958755732E-1
5.538887500E0,7.822914720E-1,-8.504989743E-2,-3.674092591E-1
5.542857813E0,9.982410669E-1,6.147049740E-2,-3.047344983E-1
5.546828125E0,1.212096214E0,2.328443676E-1,-2.083050460E-1
5.550800000E0,1.413419962E0,4.190535545E-1,-1.042834222E-1
5.554768750E0,1.608826995E0,5.995380282E-1,5.044001620E-3
5.558740625E0,1.792051673E0,7.535982728E-1,1.211433038E-1
5.562710938E0,1.952272892E0,8.702560663E-1,2.358637899E-1
5.566681250E0,2.091183662E0,9.512742758E-1,3.518932760E-1
5.570651563E0,2.201139450E0,9.987123013E-1,4.584805369E-1
5.574623438E0,2.276048899E0,1.019045353E0,5.643696785E-1
5.578592188E0,2.308232784E0,1.024194121E0,6.721960902E-1
5.582564063E0,2.302909613E0,1.027772069E0,7.932172418E-1
5.586534375E0,2.266885996E0,1.033985376E0,9.310109615E-1
5.590504688E0,2.208574533E0,1.034107566E0,1.074424624E0
5.594475000E0,2.133891821E0,1.020912886E0,1.226861715E0
5.598445313E0,2.054043055E0,9.676803350E-1,1.382335663E0
5.602415625E0,1.984317183E0,8.704131246E-1,1.536081672E0
5.606385938E0,1.929199696E0,7.659028172E-1,1.656910896E0
5.610357813E0,1.897242665E0,6.920055747E-1,1.752973795E0
5.614326563E0,1.881691813E0,6.513568759E-1,1.834445715E0
5.618298438E0,1.873872757E0,6.367135644E-1,1.907749534E0
5.622268750E0,1.866280556E0,6.297497153E-1,1.981978416E0
5.626239063E0,1.853766561E0,6.092944145E-1,2.048300982E0
5.630209375E0,1.837412834E0,5.637937188E-1,2.102179289E0
5.634179688E0,1.815369368E0,4.918337762E-1,2.141222239E0
5.638150000E0,1.783761382E0,4.053352773E-1,2.159391165E0
5.642121875E0,1.743287206E0,3.266209066E-1,2.150716782E0
5.646092188E0,1.695552468E0,2.652551532E-1,2.125130415E0
5.650062500E0,1.647276640E0,2.385690510E-1,2.081706524E0
5.654032813E0,1.596923947E0,2.510307133E-1,2.033203840E0
5.658003125E0,1.536971807E0,2.938610911E-1,1.981734037E0
5.661973438E0,1.486374736E0,3.652799726E-1,1.925551891E0
5.665953125E0,1.444015622E0,4.472580850E-1,1.865285754E0
5.669914063E0,1.404675841E0,5.664116740E-1,1.814199924E0
5.673884375E0,1.365650296E0,7.515213490E-1,1.762782574E0
5.677856250E0,1.327183247E0,9.979966879E-1,1.710719347E0
5.681826563E0,1.302225113E0,1.262815475E0,1.640696764E0
5.685796875E0,1.300828815E0,1.524004102E0,1.551562786E0
5.689767188E0,1.324565291E0,1.736951709E0,1.437680006E0
5.693737500E0,1.370467424E0,1.904154181E0,1.299170732E0
5.697707813E0,1.436493278E0,2.017740250E0,1.153016806E0
5.701679688E0,1.509151340E0,2.094011068E0,9.994104505E-1
5.705650000E0,1.579837084E0,2.153020620E0,8.324871659E-1
5.709620313E0,1.647363901E0,2.193686962E0,6.644817591E-1
5.713590625E0,1.713284969E0,2.208242893E0,5.081700683E-1
5.717560938E0,1.778054118E0,2.166896105E0,3.783001006E-1
5.721531250E0,1.833171725E0,2.073800325E0,2.842268646E-1
5.725503125E0,1.876316190E0,1.942987800E0,2.268753499E-1
5.729471875E0,1.906807065E0,1.819959521E0,1.940282583E-1
5.733443750E0,1.930718064E0,1.714960575E0,1.693667471E-1
5.737414063E0,1.942987800E0,1.645740747E0,1.611287892E-1
5.741384375E0,1.939409852E0,1.606488347E0,1.716182232E-1
5.745354688E0,1.917104602E0,1.570551991E0,2.006954104E-1
5.749325000E0,1.883297563E0,1.518139720E0,2.421469837E-1
5.753295313E0,1.824828982E0,1.461207151E0,3.072652221E-1
5.757267188E0,1.712045789E0,1.435987115E0,4.336619675E-1
5.761237500E0,1.573484182E0,1.427784085E0,5.977752805E-1
5.765207813E0,1.427417517E0,1.405635834E0,7.637037039E-1
5.769178125E0,1.284126043E0,1.373364687E0,9.133307934E-1
5.773150000E0,1.160940647E0,1.323727489E0,1.009987116E0
5.777118750E0,1.066954732E0,1.254036546E0,1.050984859E0
5.781089063E0,9.905267358E-1,1.164937496E0,1.054877043E0
5.785060938E0,9.221447110E-1,1.053672671E0,1.047127724E0
5.789029688E0,8.660672903E-1,9.445547462E-1,1.053515673E0
5.793001563E0,8.288394213E-1,8.435176015E-1,1.082732439E0
5.796971875E0,8.120842576E-1,7.428470254E-1,1.127988815E0
5.800942188E0,8.092219234E-1,6.450911164E-1,1.169632435E0
5.804912500E0,8.090822697E-1,5.545434356E-1,1.189825892E0
5.808882813E0,8.063421249E-1,4.976282716E-1,1.190873027E0
5.812853125E0,7.960097790E-1,4.834038317E-1,1.178201914E0
5.816825000E0,7.755544782E-1,5.122017860E-1,1.159230232E0
5.820795313E0,7.447668910E-1,5.700245500E-1,1.135773063E0
5.824764063E0,7.081324458E-1,6.411117911E-1,1.107359052E0
5.828735938E0,6.697002649E-1,7.163878679E-1,1.077548862E0
5.832706250E0,6.269921064E-1,7.890284657E-1,1.037999630E0
5.836676563E0,5.866575241E-1,8.528202176E-1,9.872105718E-1
5.840648438E0,5.543165803E-1,9.057211876E-1,9.137845635E-1
5.844617188E0,5.356240869E-1,9.526530504E-1,8.208632469E-1
5.848587500E0,5.366189480E-1,9.885195494E-1,7.008718848E-1
5.852559375E0,5.543514490E-1,9.957975745E-1,5.615247488E-1
5.856529688E0,5.832017660E-1,9.683435559E-1,4.184601307E-1
5.860500000E0,6.202376485E-1,8.997696042E-1,2.767917514E-1
5.864470313E0,6.619684696E-1,7.705279589E-1,1.481959075E-1
5.868440625E0,6.976953745E-1,5.972865820E-1,4.270820692E-2
5.872412500E0,7.189185619E-1,3.721390963E-1,-4.260348529E-2
5.876382813E0,7.133160830E-1,1.463982165E-1,-1.068141535E-1
5.880353125E0,6.750060916E-1,-6.047565863E-2,-1.637467891E-1
5.884323438E0,6.043202281E-1,-2.282541543E-1,-2.154783458E-1
5.888293750E0,4.960400164E-1,-3.447199762E-1,-2.547133565E-1
5.892264063E0,3.648261726E-1,-4.158596098E-1,-2.774375379E-1
5.896235938E0,2.335250527E-1,-4.473453462E-1,-2.890788913E-1
5.900206250E0,1.051560864E-1,-4.478689432E-1,-2.960253060E-1
5.904175000E0,-9.424777701E-3,-4.189488292E-1,-3.035476506E-1
5.908146875E0,-9.815731645E-2,-3.727150559E-1,-3.112271130E-1
5.912117188E0,-1.630137563E-1,-3.145781457E-1,-3.207566142E-1
5.916087500E0,-2.021789402E-1,-2.377312928E-1,-3.283662498E-1
5.920057813E0,-2.277305573E-1,-1.401848495E-1,-3.335149586E-1
5.924028125E0,-2.453932911E-1,-2.785545401E-2,-3.318394423E-1
5.927998438E0,-2.564586699E-1,7.579965144E-2,-3.223797679E-1
5.931970313E0,-2.586054206E-1,1.792802215E-1,-3.053104579E-1
5.935940625E0,-2.546435297E-1,2.819579542E-1,-2.822022736E-1
5.939910938E0,-2.445729822E-1,3.928910792E-1,-2.489188612E-1
5.943881250E0,-2.273465842E-1,5.110847354E-1,-2.018647790E-1
5.947851563E0,-2.061582953E-1,6.225764155E-1,-1.522625238E-1
5.951821875E0,-1.768367589E-1,7.257428169E-1,-1.015258059E-1
5.955793750E0,-1.410575062E-1,8.080350757E-1,-5.878268927E-2
5.959764063E0,-9.560913593E-2,8.576548100E-1,-2.237512171E-2
5.963732813E0,-4.173082113E-2,8.731533289E-1,2.635447076E-3
5.967704688E0,2.134537697E-2,8.543212414E-1,1.382300723E-2
5.971676563E0,9.154251963E-2,7.976329327E-1,1.401499379E-2
5.975645313E0,1.631359309E-1,7.156897187E-1,1.181587856E-2
5.979617188E0,2.343628109E-1,6.352649331E-1,1.333431527E-2
5.983585938E0,3.033556640E-1,5.903401375E-1,2.455678210E-2
5.987556250E0,3.628888428E-1,5.831494331E-1,3.368485346E-2
5.991528125E0,4.131892323E-1,5.978800058E-1,3.741985932E-2
5.995498438E0,4.564035833E-1,6.038315296E-1,3.056071512E-2
5.999468750E0,4.920606613E-1,5.814738870E-1,9.808750823E-3
6.003439063E0,5.200208426E-1,5.378581285E-1,-1.860520989E-2
6.007409375E0,5.342452526E-1,4.930205941E-1,-5.523966998E-2
6.011379688E0,5.319414735E-1,4.686732590E-1,-9.925687313E-2
6.015351563E0,5.116258264E-1,4.657934606E-1,-1.421919763E-1
6.019321875E0,4.727573395E-1,4.808556736E-1,-1.839576960E-1
6.023290625E0,4.212177694E-1,5.076639056E-1,-2.233148813E-1
6.027262500E0,3.581066430E-1,5.491154790E-1,-2.579421997E-1
6.031232813E0,2.862339914E-1,6.049485803E-1,-2.880665958E-1
6.035203125E0,2.057917714E-1,6.766990423E-1,-3.120125234E-1
6.039175000E0,1.250528395E-1,7.664439082E-1,-3.334625959E-1
6.043143750E0,4.108504951E-2,8.595572114E-1,-3.492927551E-1
6.047115625E0,-3.680899367E-2,9.511520863E-1,-3.615449667E-1
6.051085938E0,-1.075471863E-1,1.034631133E0,-3.736226261E-1
6.055056250E0,-1.637817025E-1,1.105770826E0,-3.853512406E-1
6.059026563E0,-2.077988982E-1,1.170539975E0,-3.971322179E-1
6.062996875E0,-2.364397496E-1,1.235867620E0,-4.122467637E-1
6.066967188E0,-2.455678284E-1,1.305890203E0,-4.247782230E-1
6.070937500E0,-2.414662987E-1,1.385599494E0,-4.312185049E-1
6.074909375E0,-2.203827202E-1,1.455133319E0,-4.261221290E-1
6.078879688E0,-1.936617345E-1,1.501436949E0,-4.094367921E-1
6.082850000E0,-1.639387757E-1,1.519239306E0,-3.856654167E-1
6.086820313E0,-1.285085976E-1,1.518296838E0,-3.564136922E-1
6.090790625E0,-9.065239877E-2,1.494438171E0,-3.190112710E-1
6.094760938E0,-5.759586394E-2,1.431955338E0,-2.752384245E-1
6.098732813E0,-2.775073424E-2,1.320341587E0,-2.290221006E-1
6.102703125E0,-1.047197584E-4,1.154290915E0,-1.934871972E-1
6.106673438E0,1.687733456E-2,9.509950280E-1,-1.787915230E-1
6.110643750E0,1.364847459E-2,7.216238379E-1,-1.849001795E-1
6.114614063E0,-1.802925020E-2,4.863185287E-1,-2.026152760E-1
6.118584375E0,-7.609635592E-2,2.625149786E-1,-2.200336605E-1
6.122554688E0,-1.654572189E-1,9.094911069E-2,-2.396162450E-1
6.126525000E0,-2.809107304E-1,-3.314380348E-2,-2.704562247E-1
6.130496875E0,-4.214795530E-1,-1.062730998E-1,-3.192730844E-1
6.134467188E0,-5.707401037E-1,-1.364672929E-1,-3.828903437E-1
6.138437500E0,-7.253239155E-1,-1.313883811E-1,-4.573111832E-1
6.142407813E0,-8.666083217E-1,-8.265879005E-2,-5.319588780E-1
6.146378125E0,-9.838420749E-1,-1.092576142E-2,-5.964313745E-1
6.150348438E0,-1.081859827E0,7.808603346E-2,-6.540446877E-1
6.154320313E0,-1.165042162E0,1.726479679E-1,-7.011336684E-1
6.158290625E0,-1.228746653E0,2.600889504E-1,-7.453079224E-1
6.162260938E0,-1.279518366E0,3.202504516E-1,-7.938281298E-1
6.166231250E0,-1.316100478E0,3.617892861E-1,-8.492597342E-1
6.170201563E0,-1.339034081E0,3.953694403E-1,-9.106604457E-1
6.174171875E0,-1.345456839E0,4.167497158E-1,-9.779952168E-1
6.178142188E0,-1.338109016E0,4.261046946E-1,-1.048419237E0
6.182112500E0,-1.318858027E0,4.240277410E-1,-1.105177402E0
6.186082813E0,-1.292939901E0,4.090353549E-1,-1.137745261E0
6.190054688E0,-1.254106283E0,3.840422332E-1,-1.147431850E0
6.194025000E0,-1.206807852E0,3.472681642E-1,-1.139874578E0
6.197995313E0,-1.154884338E0,3.072826564E-1,-1.119977832E0
6.201965625E0,-1.106242061E0,2.586228848E-1,-1.095368624E0
6.205935938E0,-1.061195135E0,1.921782047E-1,-1.061404586E0
6.209906250E0,-1.016950965E0,1.181238815E-1,-1.021837950E0
6.213878125E0,-9.754645228E-1,4.565781355E-2,-9.781174064E-1
6.217848438E0,-9.339256883E-1,-2.485348843E-2,-9.253212214E-1
6.221818750E0,-8.977973461E-1,-7.173303515E-2,-8.647233844E-1
6.225789063E0,-8.689819574E-1,-8.695230633E-2,-7.923445702E-1
6.229759375E0,-8.241619468E-1,-1.143365204E-1,-7.245211005E-1
6.233729688E0,-7.582582831E-1,-1.864884347E-1,-6.797184944E-1
6.237700000E0,-6.945537925E-1,-2.679952979E-1,-6.549522281E-1
6.241670313E0,-6.399948001E-1,-3.130597174E-1,-6.379876733E-1
6.245642188E0,-5.950700045E-1,-3.090105355E-1,-6.168516874E-1
6.249612500E0,-5.529552102E-1,-2.590243220E-1,-5.952270627E-1
6.253582813E0,-5.099328160E-1,-1.967335194E-1,-5.825036168E-1
6.257553125E0,-4.661599994E-1,-1.357691586E-1,-5.818927884E-1
6.261523438E0,-4.276754856E-1,-7.246606797E-2,-5.886646509E-1
6.265528125E0,-3.995582163E-1,-7.504915819E-3,-5.945115089E-1
6.269464063E0,-3.815464377E-1,6.679374725E-2,-5.937784910E-1
6.273435938E0,-3.654195964E-1,1.229235381E-1,-5.896769166E-1
6.277406250E0,-3.464653194E-1,1.529082954E-1,-5.845282078E-1
6.281376563E0,-3.282615244E-1,1.506568193E-1,-5.786813498E-1
6.285346875E0,-3.197443187E-1,1.225046590E-1,-5.661673546E-1
6.289317188E0,-3.210009634E-1,7.918559015E-2,-5.454502702E-1
6.293287500E0,-3.183306158E-1,2.228785492E-2,-5.212251544E-1
6.297257813E0,-3.062005639E-1,-3.923500329E-2,-4.989372790E-1
6.301228125E0,-2.800031602E-1,-1.035678387E-1,-4.792848527E-1
6.305200000E0,-2.405238301E-1,-1.801005304E-1,-4.691794217E-1
6.309168750E0,-1.934697479E-1,-2.633178234E-1,-4.688128829E-1
6.313140625E0,-1.491383910E-1,-3.303384781E-1,-4.748866260E-1
6.317110938E0,-1.173908487E-1,-3.786491752E-1,-4.888143539E-1
6.321082813E0,-1.077391729E-1,-4.079706967E-1,-5.001415610E-1
6.325051563E0,-1.229933500E-1,-4.246385992E-1,-5.072973967E-1
6.329021875E0,-1.533446312E-1,-4.557229280E-1,-5.126380920E-1
6.332993750E0,-1.806590259E-1,-5.204397440E-1,-5.074021220E-1
6.336964063E0,-2.215171903E-1,-5.940926075E-1,-4.982042313E-1
6.340934375E0,-2.705434859E-1,-6.820572019E-1,-4.846779406E-1
6.344904688E0,-3.241076469E-1,-7.775616050E-1,-4.653396904E-1
6.348875000E0,-3.852290809E-1,-8.754920363E-1,-4.500331581E-1
6.352845313E0,-4.473627806E-1,-9.725323915E-1,-4.498062432E-1
6.356815625E0,-4.998448491E-1,-1.074878454E0,-4.772777259E-1
6.360785938E0,-5.437922478E-1,-1.173681617E0,-5.256931782E-1
6.364757813E0,-5.754350424E-1,-1.267650127E0,-5.893802047E-1
6.368729688E0,-6.027843356E-1,-1.360763431E0,-6.406230927E-1
6.372698438E0,-6.326295137E-1,-1.480580211E0,-6.720564961E-1
6.376668750E0,-6.747268438E-1,-1.629142642E0,-6.866998076E-1
6.380639063E0,-7.293556333E-1,-1.790393591E0,-6.987949014E-1
6.384610938E0,-7.890633345E-1,-1.943843007E0,-7.106806040E-1
6.388581250E0,-8.389972448E-1,-2.094970942E0,-7.224965096E-1
6.392551563E0,-8.643568754E-1,-2.214054823E0,-7.442433238E-1
6.396521875E0,-8.677951694E-1,-2.275665045E0,-7.774569392E-1
6.400492188E0,-8.619133830E-1,-2.267828465E0,-8.124682307E-1
6.404462500E0,-8.555604219E-1,-2.187037230E0,-8.435874581E-1
6.408432813E0,-8.459261656E-1,-2.039661646E0,-8.738165498E-1
6.412403125E0,-8.330281973E-1,-1.875042081E0,-8.997696042E-1
6.416373438E0,-8.228703737E-1,-1.723530054E0,-9.254957438E-1
6.420343750E0,-8.257851005E-1,-1.631603599E0,-9.496685266E-1
6.424315625E0,-8.459610939E-1,-1.596679568E0,-9.707346559E-1
6.428285938E0,-8.826828003E-1,-1.579034328E0,-9.882577658E-1
6.432256250E0,-9.398248792E-1,-1.556676626E0,-1.000370383E0
6.436226563E0,-1.020790696E0,-1.513270259E0,-1.003215194E0
6.440196875E0,-1.104566574E0,-1.444277406E0,-9.997594953E-1
6.444167188E0,-1.188290000E0,-1.350692868E0,-9.896540642E-1
6.448137500E0,-1.263094783E0,-1.250284076E0,-9.794962406E-1
6.452109375E0,-1.323692560E0,-1.164309144E0,-9.777334332E-1
6.456079688E0,-1.365405917E0,-1.102873564E0,-9.861633778E-1
6.460050000E0,-1.393278837E0,-1.080393672E0,-1.006112456E0
6.464020313E0,-1.410173655E0,-1.094845057E0,-1.030599475E0
6.467990625E0,-1.423909426E0,-1.147396922E0,-1.058053493E0
6.471960938E0,-1.439966440E0,-1.217262387E0,-1.081772566E0
6.475931250E0,-1.458466887E0,-1.303219914E0,-1.105718493E0
6.479903125E0,-1.479690194E0,-1.387362242E0,-1.124166608E0
6.483873438E0,-1.503740788E0,-1.458257437E0,-1.136052251E0
6.487842188E0,-1.530339599E0,-1.509098887E0,-1.140659928E0
6.491814063E0,-1.549922228E0,-1.540113449E0,-1.135842800E0
6.495784375E0,-1.565263629E0,-1.560394168E0,-1.116068244E0
6.499754688E0,-1.577847481E0,-1.563273907E0,-1.083378196E0
6.503726563E0,-1.586382151E0,-1.546867847E0,-1.037353873E0
6.507695313E0,-1.589820385E0,-1.520146847E0,-9.860761166E-1
6.511667188E0,-1.585771203E0,-1.498400092E0,-9.320407510E-1
6.515637500E0,-1.570551991E0,-1.489568710E0,-8.753699064E-1
6.519607813E0,-1.545977712E0,-1.494787216E0,-8.229576349E-1
6.523578125E0,-1.510338068E0,-1.513165593E0,-7.719416618E-1
6.527548438E0,-1.463737845E0,-1.539345503E0,-7.243291140E-1
6.531518750E0,-1.409894466E0,-1.567253351E0,-6.819699407E-1
6.535490625E0,-1.350361228E0,-1.596347928E0,-6.372022629E-1
6.539460938E0,-1.286831260E0,-1.629683733E0,-5.925567150E-1
6.543431250E0,-1.229025960E0,-1.666056395E0,-5.494645238E-1
6.547401563E0,-1.171639562E0,-1.704610705E0,-5.076639056E-1
6.551371875E0,-1.118756056E0,-1.739360213E0,-4.675562382E-1
6.555342188E0,-1.064476252E0,-1.761072159E0,-4.251971245E-1
6.559312500E0,-1.014036298E0,-1.773481369E0,-3.831346631E-1
6.563284375E0,-9.564927816E-1,-1.784110427E0,-3.404090106E-1
6.567254688E0,-8.862432837E-1,-1.792592764E0,-2.920983136E-1
6.571225000E0,-8.105832338E-1,-1.788211942E0,-2.499835044E-1
6.575195313E0,-7.265630960E-1,-1.765522718E0,-2.113070190E-1
6.579165625E0,-6.333101988E-1,-1.731611013E0,-1.798387319E-1
6.583135938E0,-5.402143002E-1,-1.684085608E0,-1.561371535E-1
6.587106250E0,-4.413937628E-1,-1.626838803E0,-1.356644481E-1
6.591078125E0,-3.438473046E-1,-1.564321160E0,-1.185776666E-1
6.595048438E0,-2.479589283E-1,-1.497911334E0,-1.040390730E-1
6.599018750E0,-1.550899595E-1,-1.432409167E0,-9.121090919E-2
6.602989063E0,-6.009168550E-2,-1.364603162E0,-7.764969766E-2
6.606959375E0,4.665265232E-2,-1.291246891E0,-5.920156837E-2
6.610929688E0,1.613382399E-1,-1.212061405E0,-3.392919898E-2
6.614900000E0,2.963219881E-1,-1.126068950E0,-4.014257283E-4
6.618870313E0,4.442910254E-1,-1.033793449E0,4.056145251E-2
6.622842188E0,5.975309014E-1,-9.319360256E-1,8.871508390E-2
6.626810938E0,7.636862397E-1,-8.206363320E-1,1.390503794E-1
6.630782813E0,9.427570701E-1,-6.880437136E-1,1.944820434E-1
6.634753125E0,1.135301709E0,-5.177344680E-1,2.564935982E-1
6.638723438E0,1.323081732E0,-3.172310293E-1,3.209834993E-1
6.642695313E0,1.519623280E0,-8.531169593E-2,3.942524195E-1
6.646664063E0,1.727823615E0,1.748645306E-1,4.752182364E-1
6.650634375E0,1.933981895E0,4.296826124E-1,5.626941323E-1
6.654606250E0,2.143438816E0,6.715677977E-1,6.722135544E-1
6.658576563E0,2.346001863E0,8.893325329E-1,7.963762879E-1
6.662546875E0,2.516852140E0,1.078910232E0,9.456717372E-1
6.666517188E0,2.658258677E0,1.225430608E0,1.111216187E0
6.670487500E0,2.736938000E0,1.320568442E0,1.267300963E0
6.674457813E0,2.754338980E0,1.353816986E0,1.428848743E0
6.678428125E0,2.720427275E0,1.325734615E0,1.569190621E0
6.682400000E0,2.635290146E0,1.224959373E0,1.673648596E0
6.686368750E0,2.517183542E0,1.076239824E0,1.753427625E0
6.690340625E0,2.399356365E0,9.392663836E-1,1.797706604E0
6.694310938E0,2.297533989E0,8.547226191E-1,1.816032529E0
6.698281250E0,2.226882935E0,8.432034850E-1,1.812664032E0
6.702251563E0,2.183336973E0,9.141162038E-1,1.792959332E0
6.706221875E0,2.155289650E0,1.035887837E0,1.771404505E0
6.710193750E0,2.141344547E0,1.181971908E0,1.761997104E0
6.714164063E0,2.128254414E0,1.314005971E0,1.762276411E0
6.718134375E0,2.106036425E0,1.405653238E0,1.762503266E0
6.722104688E0,2.063223600E0,1.466565251E0,1.747982144E0
6.726075000E0,1.985695958E0,1.506376266E0,1.709288239E0
6.730045313E0,1.881185651E0,1.547251821E0,1.645321846E0
6.734017188E0,1.757389426E0,1.626105785E0,1.544790864E0
6.737987500E0,1.638253331E0,1.727073073E0,1.426108479E0
6.741957813E0,1.557165265E0,1.824305415E0,1.286220431E0
6.745928125E0,1.535086870E0,1.899214983E0,1.135947585E0
6.749898438E0,1.580081463E0,1.951714396E0,9.665109515E-1
6.753868750E0,1.681834221E0,1.998471856E0,7.823612690E-1
6.757839063E0,1.807148814E0,2.062263489E0,6.172007918E-1
6.761810938E0,1.936058879E0,2.144870043E0,4.789707065E-1
6.765781250E0,2.049452782E0,2.222589493E0,3.776194453E-1
6.769751563E0,2.130209208E0,2.265454769E0,3.126582801E-1
6.773721875E0,2.175814629E0,2.276904106E0,2.719397545E-1
6.777692188E0,2.188747644E0,2.253115416E0,2.470338941E-1
6.781662500E0,2.170456648E0,2.191068888E0,2.346769720E-1
6.785632813E0,2.121726990E0,2.110137939E0,2.371553332E-1
6.789603125E0,2.047271252E0,2.021283150E0,2.569299042E-1
6.793575000E0,1.952779055E0,1.918064475E0,2.905274928E-1
6.797545313E0,1.858094931E0,1.831321597E0,3.312285841E-1
6.801515625E0,1.746725559E0,1.756499410E0,3.608119190E-1
6.805485938E0,1.635774970E0,1.675742984E0,3.780208528E-1
6.809456250E0,1.545715928E0,1.600920677E0,3.835535645E-1
6.813426563E0,1.474506497E0,1.554739237E0,3.782303035E-1
6.817396875E0,1.429599166E0,1.546012640E0,3.622256219E-1
6.821368750E0,1.407206655E0,1.577149272E0,3.435855210E-1
6.825337500E0,1.389072657E0,1.652058840E0,3.481757343E-1
6.829309375E0,1.370903730E0,1.752537489E0,3.939382732E-1
6.833279688E0,1.356243014E0,1.814304709E0,4.611508846E-1
6.837250000E0,1.347149849E0,1.827062964E0,5.083620548E-1
6.841220313E0,1.342821360E0,1.822245955E0,5.203873515E-1
6.845190625E0,1.340796828E0,1.795716882E0,5.079780817E-1
6.849160938E0,1.333361745E0,1.762119293E0,4.920781255E-1
6.853132813E0,1.320271730E0,1.728975534E0,4.924272001E-1
6.857103125E0,1.308124304E0,1.651325822E0,5.167570710E-1
6.861071875E0,1.302102923E0,1.498609543E0,5.481206775E-1
6.865043750E0,1.279937148E0,1.325036526E0,5.835334063E-1
6.869014063E0,1.233965278E0,1.185200691E0,6.183527112E-1
6.872985938E0,1.149735689E0,1.082976818E0,6.633996367E-1
6.876956250E0,1.038977027E0,1.016444802E0,7.117277980E-1
6.880926563E0,9.102240801E-1,9.638755322E-1,7.598814368E-1
6.884896875E0,7.791324258E-1,9.184271693E-1,8.032878041E-1
6.888867188E0,6.537130475E-1,8.829097152E-1,8.373391628E-1
6.892837500E0,5.505466461E-1,8.713905215E-1,8.599237204E-1
6.896807813E0,4.630009532E-1,8.861560225E-1,8.748288155E-1
6.900778125E0,3.981619477E-1,9.246230721E-1,8.884947300E-1
6.904748438E0,3.489087820E-1,9.731956124E-1,8.970293999E-1
6.908720313E0,3.127281070E-1,1.020528913E0,9.016720057E-1
6.912690625E0,2.891486883E-1,1.061003089E0,8.980765939E-1
6.916660938E0,2.739643455E-1,1.084512711E0,8.822290301E-1
6.920631250E0,2.657961845E-1,1.093658209E0,8.600284457E-1
6.924601563E0,2.644173801E-1,1.085647106E0,8.239873648E-1
6.928571875E0,2.691821158E-1,1.058297873E0,7.751705050E-1
6.932542188E0,2.778040469E-1,9.956230521E-1,7.150090337E-1
6.936514063E0,2.880316973E-1,9.087929130E-1,6.422637105E-1
6.940482813E0,2.998824716E-1,8.199033141E-1,5.488013029E-1
6.944454688E0,3.097435832E-1,7.434579134E-1,4.490208626E-1
6.948425000E0,3.166899979E-1,6.649704576E-1,3.467969298E-1
6.952395313E0,3.248057663E-1,5.677555799E-1,2.418851852E-1
6.956367188E0,3.373023272E-1,4.642750323E-1,1.436231434E-1
6.960335938E0,3.542669415E-1,3.534291685E-1,5.324999616E-2
6.964309375E0,3.723834455E-1,2.399304062E-1,-2.446951531E-2
6.968278125E0,3.912678957E-1,1.392772794E-1,-8.899433911E-2
6.972248438E0,4.059810340E-1,5.386086181E-2,-1.392423660E-1
6.976218750E0,4.134335816E-1,-7.539822254E-3,-1.839402467E-1
6.980189063E0,4.105712473E-1,-6.445501000E-2,-2.265961021E-1
6.984159375E0,3.931179643E-1,-1.268505305E-1,-2.633178234E-1
6.988129688E0,3.619114757E-1,-1.973269284E-1,-2.956238687E-1
6.992101563E0,3.167597950E-1,-2.741039693E-1,-3.254166245E-1
6.996071875E0,2.593733668E-1,-3.441091180E-1,-3.486993313E-1
7.000042188E0,1.882512122E-1,-4.027347267E-1,-3.665191531E-1
7.004012500E0,1.039343551E-1,-4.461585283E-1,-3.767293096E-1
7.007982813E0,1.527163107E-2,-4.717799425E-1,-3.765373230E-1
7.011953125E0,-8.147197217E-2,-4.720242918E-1,-3.665540516E-1
7.015923438E0,-1.652826816E-1,-4.339935780E-1,-3.490309417E-1
7.019893750E0,-2.239955515E-1,-3.504795730E-1,-3.253642917E-1
7.023864063E0,-2.611361742E-1,-2.287603021E-1,-2.970550358E-1
7.027835938E0,-2.787989080E-1,-8.134979755E-2,-2.646791935E-1
7.031806250E0,-2.823418975E-1,7.939502597E-2,-2.228436321E-1
7.035776563E0,-2.781531215E-1,2.342929989E-1,-1.732239276E-1
7.039746875E0,-2.671051919E-1,3.666413128E-1,-1.148426607E-1
7.043717188E0,-2.524967790E-1,4.916068912E-1,-4.482005537E-2
7.047689063E0,-2.360383272E-1,5.887868404E-1,2.551671304E-2
7.051659375E0,-2.144311517E-1,6.553885937E-1,8.330456167E-2
7.055629688E0,-1.878846884E-1,6.825284362E-1,1.328370124E-1
7.059600000E0,-1.565734893E-1,6.730512977E-1,1.755626649E-1
7.063570313E0,-1.167974323E-1,6.215117574E-1,2.104867101E-1
7.067540625E0,-7.000515610E-2,5.451361537E-1,2.342057377E-1
7.071510938E0,-1.024508290E-2,4.454254806E-1,2.512052357E-1
7.075482813E0,5.574581772E-2,3.492578268E-1,2.676811516E-1
7.079453125E0,1.255240738E-1,2.801777124E-1,2.864259779E-1
7.083423438E0,1.923352778E-1,2.567553818E-1,3.048741221E-1
7.087393750E0,2.499486059E-1,2.705260217E-1,3.101450205E-1
7.091364063E0,2.931280434E-1,3.039490879E-1,3.009820282E-1
7.095334375E0,3.272492290E-1,3.445978165E-1,2.770535648E-1
7.099304688E0,3.507762849E-1,3.855955899E-1,2.438748628E-1
7.103275000E0,3.615624011E-1,4.176747501E-1,2.091777027E-1
7.107246875E0,3.624176085E-1,4.394389987E-1,1.710771769E-1
7.111217188E0,3.525564969E-1,4.610461593E-1,1.275835633E-1
7.115185938E0,3.356791735E-1,4.857949317E-1,8.461356163E-2
7.119157813E0,3.160616755E-1,5.164952874E-1,4.434881732E-2
7.123128125E0,2.981545925E-1,5.551892519E-1,3.909537569E-3
7.127098438E0,2.842966914E-1,6.000441909E-1,-3.265510872E-2
7.131070313E0,2.764601409E-1,6.534512639E-1,-6.553710997E-2
7.135040625E0,2.759365439E-1,7.050257325E-1,-9.382890165E-2
7.139010938E0,2.800031602E-1,7.458838820E-1,-1.144586951E-1
7.142981250E0,2.866528630E-1,7.709817290E-1,-1.239009202E-1
7.146951563E0,2.927440703E-1,7.803890705E-1,-1.243896186E-1
7.150921875E0,2.947860956E-1,7.663042545E-1,-1.240754575E-1
7.154892188E0,2.905100584E-1,7.255856991E-1,-1.218763441E-1
7.158862500E0,2.746450007E-1,6.655987501E-1,-1.190489084E-1
7.162832813E0,2.456725389E-1,5.828177929E-1,-1.178620830E-1
7.166804688E0,2.090729922E-1,4.985882044E-1,-1.170941368E-1
7.170775000E0,1.653350443E-1,4.254240096E-1,-1.159945801E-1
7.174745313E0,1.196248680E-1,3.904999793E-1,-1.193281636E-1
7.178715625E0,7.232644409E-2,4.090877175E-1,-1.207942367E-1
7.182685938E0,2.958333120E-2,4.666312337E-1,-1.157676876E-1
7.186656250E0,-5.340707488E-3,5.572312474E-1,-1.007578596E-1
7.190628125E0,-3.476695716E-2,6.768735647E-1,-7.667231560E-2
7.194598438E0,-5.553637818E-2,8.128522038E-1,-4.722860828E-2
7.198568750E0,-6.862634420E-2,9.496685266E-1,-2.617993741E-4
7.202539063E0,-7.414158434E-2,1.076693654E0,6.195918843E-2
7.206509375E0,-7.093018293E-2,1.177591085E0,1.340238303E-1
7.210479688E0,-5.382595211E-2,1.235518575E0,1.980075985E-1
7.214450000E0,-3.504621238E-2,1.241470098E0,2.434559762E-1
7.218420313E0,-3.869394958E-2,1.167328596E0,2.545737326E-1
7.222392188E0,-8.178612590E-2,1.012849450E0,2.395289838E-1
7.226362500E0,-1.613906026E-1,7.841590047E-1,2.185675800E-1
7.230332813E0,-2.671924531E-1,4.998273849E-1,1.941504180E-1
7.234303125E0,-3.786317408E-1,2.094918638E-1,1.563465893E-1
7.238273438E0,-4.914149046E-1,-6.859143823E-2,9.110618383E-2
7.242243750E0,-5.998347402E-1,-3.104242682E-1,-2.216568217E-3
7.246214063E0,-6.967354417E-1,-5.046270490E-1,-1.282991469E-1
7.250185938E0,-7.953290939E-1,-6.218259335E-1,-2.594955564E-1
7.254156250E0,-8.902750015E-1,-6.525437236E-1,-3.792600334E-1
7.258160938E0,-9.775239825E-1,-6.021211147E-1,-4.669279456E-1
7.262096875E0,-1.048436761E0,-5.092870593E-1,-5.248554349E-1
7.266067188E0,-1.101250410E0,-4.276929200E-1,-5.665862560E-1
7.270037500E0,-1.145861030E0,-3.602010608E-1,-6.095038652E-1
7.274007813E0,-1.172564507E0,-3.167074323E-1,-6.572909951E-1
7.277978125E0,-1.181186438E0,-2.930233181E-1,-7.060205936E-1
7.281950000E0,-1.175147653E0,-2.814517915E-1,-7.586247921E-1
7.285920313E0,-1.157764196E0,-2.676113248E-1,-8.204967380E-1
7.289890625E0,-1.136052251E0,-2.603507638E-1,-8.817927241E-1
7.293860938E0,-1.104671240E0,-2.675065994E-1,-9.360375404E-1
7.297831250E0,-1.064563632E0,-2.916445136E-1,-9.774192572E-1
7.301801563E0,-1.016950965E0,-3.179815412E-1,-1.008067250E0
7.305773438E0,-9.637184739E-1,-3.323805034E-1,-1.030512214E0
7.309743750E0,-9.109920263E-1,-3.247185051E-1,-1.046010733E0
7.313712500E0,-8.701513410E-1,-2.869146764E-1,-1.052608013E0
7.317684375E0,-8.411265016E-1,-2.099107504E-1,-1.043200731E0
7.321654688E0,-8.243713379E-1,-9.320057929E-2,-1.019656301E0
7.325625000E0,-8.161159754E-1,5.014330894E-2,-9.876294732E-1
7.329596875E0,-8.149989247E-1,1.930508614E-1,-9.509775639E-1
7.333565625E0,-8.199905753E-1,3.312111199E-1,-9.150586724E-1
7.337535938E0,-8.277572989E-1,4.591786861E-1,-8.783195019E-1
7.341507813E0,-8.348956704E-1,5.750336051E-1,-8.437445164E-1
7.345478125E0,-8.418944478E-1,6.740810871E-1,-8.103214502E-1
7.349448438E0,-8.330281973E-1,7.239974737E-1,-7.790451646E-1
7.353418750E0,-8.231845498E-1,7.339807749E-1,-7.466692924E-1
7.357389063E0,-8.064817190E-1,7.174699306E-1,-7.096159458E-1
7.361359375E0,-7.688698769E-1,6.426127553E-1,-6.770481467E-1
7.365331250E0,-7.166147232E-1,4.843288660E-1,-6.584778428E-1
7.369301563E0,-6.493846774E-1,2.649758756E-1,-6.557376385E-1
7.373271875E0,-5.758539438E-1,-4.241149873E-3,-6.637661457E-1
7.377242188E0,-5.029340982E-1,-2.823418975E-1,-6.809052825E-1
7.381212500E0,-4.540823102E-1,-4.861789048E-1,-6.993883252E-1
7.385182813E0,-4.293160737E-1,-6.019815207E-1,-7.192676067E-1
7.389154688E0,-4.224220514E-1,-6.492799520E-1,-7.470009327E-1
7.393123438E0,-4.266457260E-1,-6.587221622E-1,-7.795513272E-1
7.397095313E0,-4.399451315E-1,-6.527357101E-1,-8.119620681E-1
7.401065625E0,-4.592135847E-1,-6.443930268E-1,-8.470606208E-1
7.405035938E0,-4.795990288E-1,-6.438694000E-1,-8.876569867E-1
7.409006250E0,-5.017647147E-1,-6.476393342E-1,-9.238551259E-1
7.412976563E0,-5.233718753E-1,-6.439915895E-1,-9.528625011E-1
7.416946875E0,-5.407379270E-1,-6.278298497E-1,-9.811891913E-1
7.420917188E0,-5.529552102E-1,-6.035872102E-1,-1.004384637E0
7.424889063E0,-5.574930906E-1,-5.754175782E-1,-1.027143717E0
7.428859375E0,-5.508433580E-1,-5.569345355E-1,-1.046621561E0
7.432829688E0,-5.372123122E-1,-5.522570610E-1,-1.060741305E0
7.436800000E0,-5.199685097E-1,-5.572138429E-1,-1.075541735E0
7.440770313E0,-4.933522046E-1,-5.887344480E-1,-1.084250927E0
7.444740625E0,-4.627566040E-1,-6.660525203E-1,-1.071614742E0
7.448710938E0,-4.418126345E-1,-7.574380040E-1,-1.048157454E0
7.452681250E0,-4.423885942E-1,-8.536579609E-1,-1.011906981E0
7.456653125E0,-4.469264746E-1,-9.971764088E-1,-9.834755659E-1
7.460623438E0,-4.575555027E-1,-1.161254764E0,-9.423905015E-1
7.464593750E0,-4.854633212E-1,-1.292433739E0,-8.815483451E-1
7.468564063E0,-5.353448391E-1,-1.402633905E0,-8.032005429E-1
7.472534375E0,-5.942671299E-1,-1.499377489E0,-7.390771508E-1
7.476504688E0,-6.620208621E-1,-1.611008763E0,-7.080451846E-1
7.480476563E0,-7.465122342E-1,-1.732099652E0,-7.053922415E-1
7.484446875E0,-8.459087014E-1,-1.846924901E0,-7.227582932E-1
7.488417188E0,-9.473996162E-1,-1.941591501E0,-7.515387535E-1
7.492387500E0,-1.046761274E0,-2.020340681E0,-7.838971615E-1
7.496357813E0,-1.125964284E0,-2.066766500E0,-8.210726976E-1
7.500328125E0,-1.172512174E0,-2.081741571E0,-8.605694771E-1
7.504300000E0,-1.187661648E0,-2.067115545E0,-9.053372145E-1
7.508270313E0,-1.185863972E0,-2.015314341E0,-9.535781145E-1
7.512239063E0,-1.173349977E0,-1.937769294E0,-9.973509312E-1
7.516210938E0,-1.153976798E0,-1.864116311E0,-1.035538793E0
7.520181250E0,-1.123642921E0,-1.805892229E0,-1.071841598E0
7.524151563E0,-1.089993000E0,-1.759274483E0,-1.102699041E0
7.528121875E0,-1.061177611E0,-1.726619363E0,-1.129385114E0
7.532092188E0,-1.038313866E0,-1.720824838E0,-1.150817752E0
7.536064063E0,-1.026916862E0,-1.730022669E0,-1.163471341E0
7.540032813E0,-1.031018376E0,-1.740861177E0,-1.169178605E0
7.544004688E0,-1.051665545E0,-1.736934185E0,-1.165408731E0
7.547975000E0,-1.089870811E0,-1.707315922E0,-1.150730491E0
7.551945313E0,-1.136244297E0,-1.659685969E0,-1.125213742E0
7.555915625E0,-1.188097954E0,-1.596679568E0,-1.094932318E0
7.559885938E0,-1.245571613E0,-1.537320852E0,-1.064441442E0
7.563856250E0,-1.298943877E0,-1.493390918E0,-1.030616879E0
7.567826563E0,-1.355754256E0,-1.475448966E0,-9.979966879E-1
7.571798438E0,-1.409580231E0,-1.480126500E0,-9.691638947E-1
7.575768750E0,-1.465134144E0,-1.504212022E0,-9.461429715E-1
7.579739063E0,-1.517563820E0,-1.544075370E0,-9.332100749E-1
7.583709375E0,-1.569016099E0,-1.590466142E0,-9.313426018E-1
7.587679688E0,-1.615249872E0,-1.648288965E0,-9.361422658E-1
7.591650000E0,-1.654240489E0,-1.715327024E0,-9.458113909E-1
7.595621875E0,-1.693021774E0,-1.773010135E0,-9.608386755E-1
7.599592188E0,-1.731279373E0,-1.809452653E0,-9.789028168E-1
7.603562500E0,-1.762765050E0,-1.825858712E0,-9.988170266E-1
7.607532813E0,-1.791772485E0,-1.836138725E0,-1.014559865E0
7.611503125E0,-1.815892935E0,-1.846488476E0,-1.025730014E0
7.615473438E0,-1.834218860E0,-1.865599871E0,-1.035870314E0
7.619445313E0,-1.845458746E0,-1.886980176E0,-1.045888543E0
7.623415625E0,-1.856384516E0,-1.910629392E0,-1.055278420E0
7.627384375E0,-1.863889456E0,-1.930212021E0,-1.064039946E0
7.631356250E0,-1.867048502E0,-1.936669707E0,-1.071003795E0
7.635326563E0,-1.864570141E0,-1.929182172E0,-1.071754336E0
7.639296875E0,-1.855337381E0,-1.903892398E0,-1.066099405E0
7.643267188E0,-1.836243391E0,-1.870329738E0,-1.052573204E0
7.647237500E0,-1.799347162E0,-1.835388184E0,-1.033845782E0
7.651207813E0,-1.745608449E0,-1.803239226E0,-1.008329034E0
7.655179688E0,-1.672915578E0,-1.767180800E0,-9.785013795E-1
7.659150000E0,-1.580936670E0,-1.722395658E0,-9.443802238E-1
7.663120313E0,-1.484088421E0,-1.676249146E0,-9.106429815E-1
7.667090625E0,-1.367343307E0,-1.633488536E0,-8.690343499E-1
7.671060938E0,-1.246269822E0,-1.600676417E0,-8.185943365E-1
7.675031250E0,-1.122543454E0,-1.576014876E0,-7.693237066E-1
7.679001563E0,-9.995325804E-1,-1.552575111E0,-7.159689665E-1
7.682973438E0,-8.762425184E-1,-1.532608509E0,-6.567499638E-1
7.686942188E0,-7.594974637E-1,-1.513270259E0,-5.985606909E-1
7.690914063E0,-6.408325434E-1,-1.478590608E0,-5.406332016E-1
7.694884375E0,-5.164428949E-1,-1.421082020E0,-4.839797914E-1
7.698854688E0,-3.917216957E-1,-1.338510394E0,-4.359483421E-1
7.702825000E0,-2.610314488E-1,-1.219583750E0,-3.957184851E-1
7.706795313E0,-1.249306649E-1,-1.057198286E0,-3.588920534E-1
7.710765625E0,1.094321441E-2,-8.711810708E-1,-3.265511096E-1
7.714737500E0,1.484751552E-1,-6.806260347E-1,-2.973691821E-1
7.718706250E0,2.868099511E-1,-4.846953750E-1,-2.656565607E-1
7.722678125E0,4.259999692E-1,-2.969677746E-1,-2.236988544E-1
7.726648438E0,5.545608997E-1,-1.376541108E-1,-1.710597128E-1
7.730618750E0,6.788981557E-1,4.590216093E-3,-1.011767387E-1
7.734590625E0,7.961843014E-1,1.229584441E-1,-1.687733456E-2
7.738559375E0,9.029111862E-1,2.090555429E-1,6.965608895E-2
7.742531250E0,1.008747935E0,2.648013532E-1,1.592438370E-1
7.746501563E0,1.134725809E0,2.885029316E-1,2.501755059E-1
7.750479688E0,1.272397399E0,3.083298504E-1,3.253991902E-1
7.754442188E0,1.406875014E0,3.434458971E-1,3.812671602E-1
7.758412500E0,1.565350890E0,3.889117241E-1,4.269948006E-1
7.762382813E0,1.743967891E0,4.505567551E-1,4.781852961E-1
7.766353125E0,1.921642423E0,5.190434456E-1,5.441936851E-1
7.770325000E0,2.094779015E0,5.739689469E-1,6.231523752E-1
7.774295313E0,2.250252962E0,6.072349548E-1,7.291985750E-1
7.778264063E0,2.365601778E0,6.390697360E-1,8.584576249E-1
7.782235938E0,2.449883699E0,6.639407277E-1,1.009306431E0
7.786206250E0,2.504512548E0,7.017096281E-1,1.147135139E0
7.790176563E0,2.534096003E0,7.385360599E-1,1.273653984E0
7.794148438E0,2.548878908E0,7.777710557E-1,1.380101681E0
7.798117188E0,2.558600426E0,8.175296783E-1,1.478171706E0
7.802089063E0,2.563696623E0,8.546702862E-1,1.570866108E0
7.806059375E0,2.562771559E0,8.851436973E-1,1.660331726E0
7.810029688E0,2.553346872E0,9.105557203E-1,1.755801201E0
7.814000000E0,2.530727386E0,9.304175973E-1,1.869753718E0
7.817970313E0,2.497286797E0,9.438740611E-1,1.999414325E0
7.821940625E0,2.454072475E0,9.509950280E-1,2.153212786E0
7.825910938E0,2.404278278E0,9.617287517E-1,2.307621956E0
7.829882813E0,2.357573271E0,9.743126035E-1,2.461804390E0
7.833853125E0,2.311357021E0,9.851336479E-1,2.597887754E0
7.837823438E0,2.266048193E0,9.712757468E-1,2.718612194E0
7.841815625E0,2.220372915E0,9.220399857E-1,2.822912931E0
7.845764063E0,2.181504488E0,8.560490608E-1,2.904472113E0
7.849734375E0,2.148639917E0,7.942469716E-1,2.968490839E0
7.853704688E0,2.117503166E0,7.683113813E-1,3.015579939E0
7.857675000E0,2.086209536E0,8.078954816E-1,3.044273138E0
7.861645313E0,2.051547289E0,9.086882472E-1,3.044395208E0
7.865617188E0,2.003411055E0,1.095962048E0,3.006661177E0
7.869587500E0,1.942813277E0,1.335351348E0,2.931158304E0
7.873557813E0,1.872232080E0,1.575229406E0,2.829597473E0
7.877528125E0,1.782173157E0,1.786309600E0,2.712154388E0
7.881498438E0,1.688972592E0,1.945326567E0,2.582214594E0
7.885470313E0,1.624011397E0,2.037549734E0,2.442815065E0
7.889440625E0,1.588842988E0,2.051215649E0,2.276851892E0
7.893410938E0,1.579086661E0,1.977405667E0,2.074952126E0
7.897381250E0,1.585125446E0,1.838652015E0,1.854028344E0
7.901351563E0,1.602962732E0,1.637118816E0,1.599803686E0
7.905321875E0,1.645828009E0,1.386088133E0,1.319922686E0
7.909292188E0,1.723966360E0,1.120606065E0,1.024543166E0
7.913264063E0,1.839053392E0,8.622450233E-1,7.392516732E-1
7.917232813E0,1.981961012E0,6.183352470E-1,4.860392809E-1
7.921204688E0,2.136946201E0,4.466471970E-1,3.190287352E-1
7.925175000E0,2.285142183E0,3.633426428E-1,2.380280048E-1
7.929145313E0,2.415064335E0,3.578797579E-1,2.054950595E-1
7.933115625E0,2.515141726E0,4.177445471E-1,1.833817512E-1
7.937085938E0,2.591970921E0,5.173504949E-1,1.469043642E-1
7.941056250E0,2.638222218E0,6.538527012E-1,9.358455241E-2
7.945028125E0,2.642602921E0,8.223468065E-1,3.961897269E-2
