"Time (s)","Gyroscope x (rad/s)","Gyroscope y (rad/s)","Gyroscope z (rad/s)"
2.380371000E-3,-5.065332651E-1,-4.649879336E-1,3.941478580E-2
4.028320000E-3,-5.065332651E-1,-4.649879336E-1,3.941478580E-2
6.011962000E-3,-5.065332651E-1,-4.649879336E-1,3.941478580E-2
7.995605000E-3,-5.065332651E-1,-4.649879336E-1,3.941478580E-2
9.979248000E-3,-5.065332651E-1,-4.649879336E-1,3.941478580E-2
1.199340800E-2,-5.065332651E-1,-4.649879336E-1,3.941478580E-2
1.397705000E-2,-5.065332651E-1,-4.649879336E-1,3.941478580E-2
1.599121000E-2,-5.065332651E-1,-4.649879336E-1,3.941478580E-2
1.797485300E-2,-5.065332651E-1,-4.649879336E-1,3.941478580E-2
1.998901300E-2,-5.065332651E-1,-4.649879336E-1,3.941478580E-2
2.200317300E-2,-5.065332651E-1,-4.649879336E-1,3.941478580E-2
2.398681600E-2,-5.065332651E-1,-4.649879336E-1,3.941478580E-2
2.600097600E-2,-5.065332651E-1,-4.649879336E-1,3.941478580E-2
2.798461900E-2,-5.065332651E-1,-4.649879336E-1,3.941478580E-2
2.999877900E-2,-5.065332651E-1,-4.649879336E-1,3.941478580E-2
3.198242100E-2,-5.065332651E-1,-4.649879336E-1,3.941478580E-2
3.399658200E-2,-3.941478580E-2,-6.178534031E-2,6.263754964E-1
3.598022400E-2,-1.384843793E-2,-1.006674916E-1,6.322344542E-1
3.799438400E-2,1.438106969E-2,-1.315601617E-1,6.343649626E-1
4.000854400E-2,4.048004746E-2,-1.661812514E-1,6.338323355E-1
4.196166900E-2,6.391586363E-2,-1.992044598E-1,6.412891746E-1
4.397583000E-2,7.989483327E-2,-2.375539690E-1,6.242449880E-1
4.595947200E-2,9.321063757E-2,-2.721750736E-1,6.114618182E-1
4.797363200E-2,1.054611802E-1,-3.089267015E-1,5.954828262E-1
4.995727500E-2,1.118527651E-1,-3.424825370E-1,5.779059529E-1
5.197143500E-2,1.091896072E-1,-3.808320463E-1,5.603290796E-1
5.395507800E-2,1.049285457E-1,-4.122573435E-1,5.379585624E-1
5.596923800E-2,9.693906456E-2,-4.367584288E-1,5.123922229E-1
5.795288000E-2,8.042746782E-2,-4.665858448E-1,4.916195571E-1
5.996704100E-2,6.391586363E-2,-4.921521842E-1,4.665858448E-1
6.192016600E-2,4.261057824E-2,-5.086637735E-1,4.415521026E-1
6.393432600E-2,1.651159860E-2,-5.241101384E-1,4.197141826E-1
6.591796800E-2,-6.924218964E-3,-5.379585624E-1,3.994741738E-1
6.793212800E-2,-3.621899337E-2,-5.448827744E-1,3.744404614E-1
6.991577100E-2,-6.125270575E-2,-5.475459099E-1,3.568635881E-1
7.192993100E-2,-8.575379103E-2,-5.475459099E-1,3.392867148E-1
7.391357400E-2,-1.081243455E-1,-5.459480286E-1,3.233077526E-1
7.592773400E-2,-1.294296384E-1,-5.379585624E-1,3.089267015E-1
7.791137600E-2,-1.512675583E-1,-5.267732739E-1,2.972087860E-1
7.992553700E-2,-1.683117896E-1,-5.182511806E-1,2.902845740E-1
8.193969700E-2,-1.848233789E-1,-5.049353242E-1,2.844256163E-1
8.392333900E-2,-1.960086524E-1,-4.905542731E-1,2.769687474E-1
8.593750000E-2,-2.167813182E-1,-4.937500656E-1,2.737729549E-1
8.792114200E-2,-2.258360684E-1,-4.820321798E-1,2.721750736E-1
8.990478500E-2,-2.332929224E-1,-4.538026452E-1,2.695119083E-1
9.188842700E-2,-2.391518652E-1,-4.213120937E-1,2.780340314E-1
9.387207000E-2,-2.375539690E-1,-3.962783813E-1,2.881540358E-1
9.588623000E-2,-2.354234457E-1,-3.781688809E-1,2.988066673E-1
9.786987300E-2,-2.290318608E-1,-3.637878001E-1,3.142530024E-1
9.991455000E-2,-2.242381722E-1,-3.478088379E-1,3.265035450E-1
1.018676750E-1,-2.082591951E-1,-3.211772442E-1,3.366235793E-1
1.038818350E-1,-1.890844405E-1,-2.881540358E-1,3.510046303E-1
1.058654780E-1,-1.635181010E-1,-2.604571581E-1,3.595267534E-1
1.078796380E-1,-1.347559541E-1,-2.380866110E-1,3.648530841E-1
1.098632810E-1,-9.906959534E-2,-2.119876295E-1,3.701793849E-1
1.118774410E-1,-6.551376730E-2,-1.906823367E-1,3.675162494E-1
1.138610840E-1,-2.982740477E-2,-1.667138934E-1,3.659183383E-1
1.158447260E-1,6.391586736E-3,-1.432780623E-1,3.605920076E-1
1.178283690E-1,4.101268202E-2,-1.182443574E-1,3.531351686E-1
1.198425290E-1,7.510114461E-2,-1.012001261E-1,3.435477912E-1
1.218261710E-1,1.038632840E-1,-8.575379103E-2,3.265035450E-1
1.238098140E-1,1.358212233E-1,-7.243798673E-2,3.099919558E-1
1.258239740E-1,1.565938741E-1,-6.018744037E-2,2.918824553E-1
1.278076170E-1,1.810949594E-1,-5.166532472E-2,2.737729549E-1
1.298217770E-1,1.976065636E-1,-4.687163606E-2,2.519350350E-1
1.318054190E-1,2.109223604E-1,-4.633900523E-2,2.290318608E-1
1.338195800E-1,2.194444835E-1,-4.314320907E-2,2.002697140E-1
1.358032220E-1,2.237055302E-1,-4.314320907E-2,1.784317940E-1
1.378173820E-1,2.231729031E-1,-4.527373984E-2,1.518001854E-1
1.398620600E-1,2.205097377E-1,-4.953479767E-2,1.262338310E-1
1.418151850E-1,2.066612989E-1,-5.432848632E-2,9.960222989E-2
1.438293450E-1,1.938781291E-1,-6.231797114E-2,7.350324839E-2
1.458129880E-1,1.736381054E-1,-6.817692518E-2,5.166532472E-2
1.478271480E-1,1.528654546E-1,-7.882957160E-2,2.929477207E-2
1.498107910E-1,1.267664731E-1,-8.894958347E-2,7.989482954E-3
1.518249510E-1,1.012001261E-1,-9.640643001E-2,-1.384843793E-2
1.538085930E-1,7.776430249E-2,-1.081243455E-1,-2.396845073E-2
1.557922360E-1,4.846953228E-2,-1.187769845E-1,-3.675162420E-2
1.577758780E-1,2.183792181E-2,-1.299622655E-1,-4.740426689E-2
1.597900390E-1,-2.663161140E-3,-1.400822699E-1,-5.645901710E-2
1.617736810E-1,-1.225054078E-2,-1.443433315E-1,-6.125270575E-2
1.637573240E-1,-3.408846259E-2,-1.565938741E-1,-6.657902896E-2
1.657714840E-1,-5.486112088E-2,-1.661812514E-1,-6.870955974E-2
1.677551260E-1,-6.817692518E-2,-1.757686287E-1,-6.977482140E-2
1.697692870E-1,-8.096009493E-2,-1.864212751E-1,-6.764429063E-2
1.717529290E-1,-9.214537591E-2,-1.960086524E-1,-5.965480953E-2
1.737365720E-1,-1.001348570E-1,-2.034655064E-1,-5.379585549E-2
1.757202140E-1,-1.054611802E-1,-2.119876295E-1,-4.367584363E-2
1.777038570E-1,-1.043959185E-1,-2.135855258E-1,-3.568635881E-2
1.797485350E-1,-1.033306494E-1,-2.178465873E-1,-1.917476021E-2
1.817016600E-1,-1.001348570E-1,-2.135855258E-1,-4.793690052E-3
1.837158200E-1,-9.480853379E-2,-2.093244642E-1,1.331580617E-2
1.856994620E-1,-8.628641814E-2,-2.034655064E-1,3.142530099E-2
1.877136230E-1,-7.510114461E-2,-1.885518134E-1,4.793690145E-2
1.896972650E-1,-6.444849819E-2,-1.747033745E-1,6.977482140E-2
1.916809080E-1,-4.900216311E-2,-1.565938741E-1,9.321063757E-2
1.936645500E-1,-3.675162420E-2,-1.368864775E-1,1.086569726E-1
1.956481930E-1,-1.917476021E-2,-1.129180342E-1,1.278317273E-1
1.976623530E-1,-3.728425596E-3,-8.628641814E-2,1.491370201E-1
1.996765130E-1,1.864212751E-2,-5.805691332E-2,1.624528319E-1
2.016601560E-1,4.207794741E-2,-2.663161233E-2,1.773665249E-1
2.036437980E-1,6.444849819E-2,5.858954508E-3,1.880191714E-1
2.056579590E-1,8.735168725E-2,3.675162420E-2,1.944107562E-1
2.076416010E-1,1.123853996E-1,7.030745596E-2,1.960086524E-1
2.096557610E-1,1.390170157E-1,1.075917110E-1,1.960086524E-1
2.116394040E-1,1.619201899E-1,1.406149119E-1,1.901497096E-1
2.136535640E-1,1.858886480E-1,1.731054783E-1,1.821602285E-1
2.156372070E-1,2.045307755E-1,2.008023560E-1,1.709749401E-1
2.176208490E-1,2.258360684E-1,2.247707993E-1,1.560612470E-1
2.196655270E-1,2.396845073E-1,2.476739883E-1,1.374191195E-1
2.216186520E-1,2.492718846E-1,2.647182047E-1,1.219727769E-1
2.236022940E-1,2.583266199E-1,2.817624509E-1,1.006674916E-1
2.255859370E-1,2.625876963E-1,2.908172011E-1,8.628641814E-2
2.275695800E-1,2.604571581E-1,3.020024598E-1,6.604639441E-2
2.295837400E-1,2.567287385E-1,3.073287904E-1,4.793690145E-2
2.315673820E-1,2.492718846E-1,3.078614175E-1,3.036003746E-2
2.335815430E-1,2.375539690E-1,3.078614175E-1,1.065264456E-2
2.355651850E-1,2.215750068E-1,3.030677438E-1,-3.728425596E-3
2.375793450E-1,2.045307755E-1,2.929477394E-1,-1.544633508E-2
2.395935050E-1,1.816275865E-1,2.844256163E-1,-2.876213938E-2
2.415771480E-1,1.603222936E-1,2.721750736E-1,-3.994741663E-2
2.435607910E-1,1.384843737E-1,2.556634545E-1,-4.740426689E-2
2.456054680E-1,1.177117229E-1,2.359560728E-1,-5.273059011E-2
2.475585930E-1,9.800432622E-2,2.098570913E-1,-5.273059011E-2
2.495727530E-1,7.882957160E-2,1.869539171E-1,-5.486112088E-2
2.515563960E-1,6.125270575E-2,1.581917703E-1,-5.326322466E-2
2.535705560E-1,4.420847446E-2,1.272991002E-1,-4.527373984E-2
2.555541990E-1,2.982740477E-2,9.960222989E-2,-3.941478580E-2
2.575683590E-1,1.757686399E-2,6.551376730E-2,-3.036003746E-2
2.595825190E-1,7.456851192E-3,3.195793182E-2,-1.651159860E-2
2.615356440E-1,0.000000000E0,1.597896684E-3,-4.793690052E-3
2.635498040E-1,-3.728425596E-3,-3.249056637E-2,1.012001187E-2
2.655334470E-1,-1.118527725E-2,-6.338323653E-2,2.822950855E-2
2.675476070E-1,-1.438106969E-2,-9.747169912E-2,4.420847446E-2
2.695312500E-1,-1.491370238E-2,-1.235706806E-1,6.178534031E-2
2.715454100E-1,-1.491370238E-2,-1.544633508E-1,7.616640627E-2
2.735290520E-1,-1.544633508E-2,-1.810949594E-1,9.214537591E-2
2.755432120E-1,-1.917476021E-2,-2.125202566E-1,1.065264493E-1
2.775268550E-1,-1.864212751E-2,-2.370213419E-1,1.187769845E-1
2.795715330E-1,-2.237055451E-2,-2.663161159E-1,1.310275346E-1
2.815246580E-1,-2.290318534E-2,-2.881540358E-1,1.384843737E-1
2.835083000E-1,-2.556634694E-2,-3.105245829E-1,1.475391239E-1
2.854919430E-1,-2.609897964E-2,-3.291667104E-1,1.565938741E-1
2.874755850E-1,-2.450108156E-2,-3.478088379E-1,1.613875628E-1
2.894897460E-1,-2.450108156E-2,-3.691141307E-1,1.651159972E-1
2.914733880E-1,-2.503371425E-2,-3.872236311E-1,1.672465205E-1
2.934875480E-1,-2.290318534E-2,-4.021373391E-1,1.672465205E-1
2.954711910E-1,-1.970739290E-2,-4.181163013E-1,1.699096859E-1
2.974853510E-1,-1.597896591E-2,-4.255731404E-1,1.645833552E-1
2.994995110E-1,-1.225054078E-2,-4.351605177E-1,1.576591432E-1
3.014526360E-1,-1.065264456E-2,-4.367584288E-1,1.507349163E-1
3.034667960E-1,-8.522115648E-3,-4.394215941E-1,1.406149119E-1
3.054504390E-1,-6.391586736E-3,-4.415521026E-1,1.304948926E-1
3.074645990E-1,-1.810949668E-2,-4.580637217E-1,1.129180342E-1
3.094482420E-1,-2.077265643E-2,-4.372910559E-1,1.049285457E-1
3.114624020E-1,-1.917476021E-2,-4.085289240E-1,9.108011425E-2
3.134460440E-1,-1.970739290E-2,-3.904194236E-1,7.882957160E-2
3.154602050E-1,-2.503371425E-2,-3.733751774E-1,7.669904083E-2
3.174438470E-1,-3.089267015E-2,-3.573962152E-1,6.657902896E-2
3.194885250E-1,-3.994741663E-2,-3.344930410E-1,6.551376730E-2
3.214416500E-1,-4.474110901E-2,-2.998719513E-1,5.858954415E-2
3.234252930E-1,-5.113269389E-2,-2.663161159E-1,4.900216311E-2
3.254089350E-1,-5.965480953E-2,-2.359560728E-1,4.580637068E-2
3.273925780E-1,-6.817692518E-2,-2.018676102E-1,4.261057824E-2
3.294067380E-1,-7.137271762E-2,-1.731054783E-1,3.994741663E-2
3.313903800E-1,-7.882957160E-2,-1.422128081E-1,3.675162420E-2
3.334045410E-1,-8.468852192E-2,-1.171790883E-1,3.408846259E-2
3.353881830E-1,-9.108011425E-2,-9.747169912E-2,3.089267015E-2
3.374023430E-1,-1.001348570E-1,-7.829693705E-2,3.462109342E-2
3.394165030E-1,-1.054611802E-1,-6.391586363E-2,3.675162420E-2
3.414001460E-1,-1.123853996E-1,-5.965480953E-2,3.728425503E-2
3.433837890E-1,-1.166464612E-1,-5.219795927E-2,4.101268202E-2
3.453979490E-1,-1.251685768E-1,-4.793690145E-2,4.687163606E-2
3.473815910E-1,-1.320927888E-1,-5.486112088E-2,5.592638254E-2
3.493652340E-1,-1.384843737E-1,-6.072007492E-2,6.444849819E-2
3.513488760E-1,-1.480717659E-1,-7.456851006E-2,8.202536404E-2
3.533325190E-1,-1.539307088E-1,-9.693906456E-2,9.693906456E-2
3.553466790E-1,-1.624528319E-1,-1.203748807E-1,1.097222418E-1
3.573303220E-1,-1.752360016E-1,-1.496696621E-1,1.257012039E-1
3.593750000E-1,-1.842907518E-1,-1.794970632E-1,1.422128081E-1
3.613281250E-1,-1.997370869E-1,-2.082591951E-1,1.608549356E-1
3.633422850E-1,-2.098570913E-1,-2.434129268E-1,1.747033745E-1
3.653259270E-1,-2.242381722E-1,-2.822950780E-1,1.938781291E-1
3.673095700E-1,-2.359560728E-1,-3.265035450E-1,2.077265680E-1
3.692932120E-1,-2.487392575E-1,-3.712446690E-1,2.199771106E-1
3.712768550E-1,-2.657834888E-1,-4.239752591E-1,2.348908186E-1
3.732910150E-1,-2.796319127E-1,-4.724447727E-1,2.444781959E-1
3.752746580E-1,-2.950782478E-1,-5.166532397E-1,2.471413612E-1
3.772888180E-1,-3.121224940E-1,-5.651227832E-1,2.487392575E-1
3.793029780E-1,-3.270362020E-1,-6.050702333E-1,2.450108230E-1
3.812561030E-1,-3.483414650E-1,-6.450176239E-1,2.380866110E-1
3.832702630E-1,-3.675162494E-1,-6.828345060E-1,2.279665917E-1
3.852539060E-1,-3.909520507E-1,-7.211840153E-1,2.125202566E-1
3.872680660E-1,-4.223773479E-1,-7.536746264E-1,1.960086524E-1
3.892517090E-1,-4.511395097E-1,-7.803062201E-1,1.784317940E-1
3.912658690E-1,-4.878911078E-1,-8.058725595E-1,1.603222936E-1
3.932495110E-1,-5.326322317E-1,-8.298410177E-1,1.395496428E-1
3.952636710E-1,-5.837649107E-1,-8.570052385E-1,1.107875034E-1
3.972473140E-1,-6.412891746E-1,-8.831042051E-1,8.309062570E-2
3.992919920E-1,-6.988134980E-1,-8.948221207E-1,4.900216311E-2
4.012451170E-1,-7.526093125E-1,-8.857674003E-1,1.864212751E-2
4.032287590E-1,-8.069378138E-1,-8.889631629E-1,-1.012001187E-2
4.052429190E-1,-8.612663150E-1,-8.847021461E-1,-3.621899337E-2
4.072265620E-1,-9.230516553E-1,-8.740494847E-1,-6.285060197E-2
4.092407220E-1,-9.853696227E-1,-8.596684337E-1,-8.628641814E-2
4.112243650E-1,-1.047154903E0,-8.575378656E-1,-1.097222418E-1
4.132385250E-1,-1.110538244E0,-8.655273914E-1,-1.406149119E-1
4.152221680E-1,-1.171258211E0,-8.735168576E-1,-1.699096859E-1
4.172363280E-1,-1.228249907E0,-8.900284767E-1,-1.976065636E-1
4.192504880E-1,-1.283111095E0,-9.086706042E-1,-2.300971150E-1
4.212341300E-1,-1.334776402E0,-9.310411215E-1,-2.588592768E-1
4.232177730E-1,-1.386441708E0,-9.614011645E-1,-2.854908705E-1
4.252319330E-1,-1.432248116E0,-1.006674886E0,-3.083940744E-1
4.272155760E-1,-1.477521777E0,-1.057274938E0,-3.302319944E-1
4.291992180E-1,-1.517469168E0,-1.122256160E0,-3.494067490E-1
4.311828610E-1,-1.556351423E0,-1.197889924E0,-3.616572917E-1
4.331665030E-1,-1.589374542E0,-1.284176350E0,-3.691141307E-1
4.351806640E-1,-1.617071390E0,-1.376321673E0,-3.733751774E-1
4.371643060E-1,-1.642637849E0,-1.476989150E0,-3.669835925E-1
4.392089840E-1,-1.667138815E0,-1.577124000E0,-3.616572917E-1
4.411621090E-1,-1.688976765E0,-1.684715748E0,-3.515372574E-1
4.431762690E-1,-1.711879969E0,-1.791242242E0,-3.376888335E-1
4.451599120E-1,-1.733185291E0,-1.901497006E0,-3.227751255E-1
4.471435540E-1,-1.753425241E0,-2.020806789E0,-3.046656251E-1
4.491271970E-1,-1.775263190E0,-2.155562639E0,-2.854908705E-1
4.511108390E-1,-1.792307496E0,-2.300438643E0,-2.593919039E-1
4.531250000E-1,-1.817341208E0,-2.452771425E0,-2.327602804E-1
4.551086420E-1,-1.844505429E0,-2.616822243E0,-2.034655064E-1
4.571228020E-1,-1.878593922E0,-2.790992975E0,-1.741707325E-1
4.591369620E-1,-1.914812803E0,-2.964631081E0,-1.448759735E-1
4.610900870E-1,-1.955292940E0,-3.139334440E0,-1.177117229E-1
4.631042480E-1,-2.005892992E0,-3.322559834E0,-8.841694891E-2
4.650878900E-1,-2.065015078E0,-3.489806414E0,-6.604639441E-2
4.671020500E-1,-2.129463673E0,-3.646932840E0,-4.527373984E-2
4.690856930E-1,-2.198705912E0,-3.771568775E0,-2.343581803E-2
4.710998530E-1,-2.282329082E0,-3.876497269E0,-4.261057824E-3
4.730834960E-1,-2.370213509E0,-3.967577457E0,1.278317347E-2
4.750671380E-1,-2.467152596E0,-4.038949966E0,2.822950855E-2
4.770812980E-1,-2.566222191E0,-4.097007275E0,4.420847446E-2
4.790954590E-1,-2.675411701E0,-4.139617443E0,6.657902896E-2
4.810791010E-1,-2.783535957E0,-4.173173428E0,8.894958347E-2
4.830627440E-1,-2.898584604E0,-4.207262039E0,1.113201380E-1
4.850769040E-1,-3.009904623E0,-4.231762886E0,1.358212233E-1
4.870605460E-1,-3.119626999E0,-4.243481159E0,1.672465205E-1
4.890747070E-1,-3.232012272E0,-4.241883278E0,1.960086524E-1
4.910583490E-1,-3.334810495E0,-4.218447208E0,2.263686955E-1
4.930725090E-1,-3.434412718E0,-4.174771309E0,2.577939928E-1
4.950561520E-1,-3.533482313E0,-4.098605156E0,2.801645398E-1
4.970703120E-1,-3.628290653E0,-3.990480661E0,3.004045784E-1
4.990844720E-1,-3.720968723E0,-3.850930929E0,3.169161677E-1
5.010375970E-1,-3.812048912E0,-3.686347723E0,3.291667104E-1
5.030517570E-1,-3.904194117E0,-3.512176991E0,3.403519988E-1
5.050354000E-1,-3.998470068E0,-3.341202021E0,3.451456726E-1
5.070495600E-1,-4.090615273E0,-3.162770271E0,3.382214606E-1
5.090332030E-1,-4.177967072E0,-2.984870911E0,3.307646215E-1
5.110473630E-1,-4.237621784E0,-2.783003330E0,3.211772442E-1
5.130310050E-1,-4.267982006E0,-2.552906275E0,3.169161677E-1
5.150451660E-1,-4.287156582E0,-2.300438643E0,3.169161677E-1
5.170288080E-1,-4.308462143E0,-2.026133060E0,3.206445873E-1
5.190734860E-1,-4.341485500E0,-1.755023241E0,3.169161677E-1
5.210266110E-1,-4.383030415E0,-1.510012388E0,3.137203753E-1
5.230407710E-1,-4.438957214E0,-1.315068960E0,3.078614175E-1
5.250244140E-1,-4.477306366E0,-1.097222447E0,3.121224940E-1
5.270080560E-1,-4.479436874E0,-8.831042051E-1,3.265035450E-1
5.289916990E-1,-4.450142384E0,-6.849650741E-1,3.488741219E-1
5.309753410E-1,-4.390487671E0,-5.219795704E-1,3.744404614E-1
5.329895010E-1,-4.308462143E0,-3.861583769E-1,4.032025933E-1
5.349731440E-1,-4.207262039E0,-2.743056118E-1,4.324973822E-1
5.369873040E-1,-4.087952137E0,-1.736381054E-1,4.617921412E-1
5.390014640E-1,-3.957457542E0,-8.042746782E-2,4.932174385E-1
5.409545890E-1,-3.809918404E0,9.587380104E-3,5.209143162E-1
5.429687500E-1,-3.651193857E0,1.049285457E-1,5.470132828E-1
5.449523920E-1,-3.489273787E0,2.077265680E-1,5.688512325E-1
5.469665520E-1,-3.319364071E0,3.206445873E-1,5.826996565E-1
5.489501950E-1,-3.143062830E0,4.314320982E-1,5.944175720E-1
5.509643550E-1,-2.968892097E0,5.315669775E-1,5.986786485E-1
5.529479980E-1,-2.792590857E0,6.226470470E-1,5.944175720E-1
5.549621580E-1,-2.621083260E0,6.982808709E-1,5.837649107E-1
5.569458000E-1,-2.447977781E0,7.590008974E-1,5.693838596E-1
5.589599600E-1,-2.280731201E0,8.106662631E-1,5.454154015E-1
5.609741210E-1,-2.120941639E0,8.506136537E-1,5.182511806E-1
5.629577630E-1,-1.965945601E0,8.916263580E-1,4.814995229E-1
5.649719230E-1,-1.822667480E0,9.310411215E-1,4.404868484E-1
5.669555660E-1,-1.686846256E0,9.741843343E-1,3.941478431E-1
5.689697260E-1,-1.560079813E0,1.020523310E0,3.462109566E-1
5.709533690E-1,-1.446629167E0,1.078580260E0,2.972087860E-1
5.729675290E-1,-1.342765808E0,1.143561363E0,2.466087192E-1
5.749511710E-1,-1.244228840E0,1.212803602E0,2.039981484E-1
5.769653320E-1,-1.155811906E0,1.293763638E0,1.741707325E-1
5.789794920E-1,-1.080178142E0,1.393365860E0,1.656486243E-1
5.809326170E-1,-9.890980721E-1,1.571797729E0,1.986718178E-1
5.829162590E-1,-9.827064872E-1,1.696433663E0,2.396845073E-1
5.848999020E-1,-9.070726633E-1,1.887648582E0,3.296993375E-1
5.869140620E-1,-8.250473142E-1,2.004295111E0,4.255731404E-1
5.888977050E-1,-7.467503548E-1,2.047971010E0,5.182511806E-1
5.909118650E-1,-6.673882008E-1,2.011751890E0,6.018744111E-1
5.928955070E-1,-5.864281058E-1,1.918008685E0,6.716492176E-1
5.949096680E-1,-5.017395616E-1,1.777393699E0,7.297061682E-1
5.968933100E-1,-4.165183902E-1,1.612277746E0,7.707188129E-1
5.989379880E-1,-3.344930410E-1,1.438639641E0,7.978830934E-1
6.008911130E-1,-2.524676621E-1,1.273523688E0,8.165252209E-1
6.028747550E-1,-1.741707325E-1,1.134506702E0,8.266451955E-1
6.048583980E-1,-9.587380290E-2,1.042361259E0,8.287757635E-1
6.068420410E-1,1.065264456E-3,1.015729666E0,8.277105093E-1
6.088562010E-1,1.006674916E-1,1.000815988E0,8.261125684E-1
6.108398430E-1,1.986718178E-1,9.928264618E-1,8.229168057E-1
6.128540030E-1,3.030677438E-1,9.970875382E-1,8.181231022E-1
6.148376460E-1,3.994741738E-1,1.007207513E0,8.186557293E-1
6.168518060E-1,5.038700700E-1,1.032241225E0,8.127967715E-1
6.188659660E-1,6.013417840E-1,1.065797091E0,8.074704409E-1
6.208190910E-1,6.876282096E-1,1.104146600E0,7.946872711E-1
6.228332510E-1,7.675230503E-1,1.146757245E0,7.792409658E-1
6.248168940E-1,8.362326026E-1,1.187769890E0,7.515440583E-1
6.268310540E-1,8.926916122E-1,1.217597246E0,7.163903713E-1
6.288146970E-1,9.363674521E-1,1.243163586E0,6.753776670E-1
6.307983390E-1,9.709885716E-1,1.265001535E0,6.274407506E-1
6.327819820E-1,9.890980721E-1,1.287372112E0,5.789712071E-1
6.347656250E-1,9.981527925E-1,1.320927978E0,5.235774517E-1
6.367797850E-1,9.917612076E-1,1.355016351E0,4.660531878E-1
6.387939450E-1,9.704559445E-1,1.394963861E0,4.106594622E-1
6.407775870E-1,9.406285286E-1,1.438639641E0,3.595267534E-1
6.427612300E-1,8.996158242E-1,1.480717540E0,3.206445873E-1
6.448059080E-1,8.548747301E-1,1.516403913E0,2.929477394E-1
6.467590330E-1,8.037420511E-1,1.532915592E0,2.673813701E-1
6.487731930E-1,7.547398806E-1,1.538241863E0,2.514024079E-1
6.507568350E-1,7.020092607E-1,1.524926066E0,2.450108230E-1
6.527709960E-1,6.503439546E-1,1.486576557E0,2.359560728E-1
6.547546380E-1,5.928196907E-1,1.439172268E0,2.364887148E-1
6.567687980E-1,5.299690962E-1,1.367266893E0,2.386192381E-1
6.587829590E-1,4.569984376E-1,1.267132044E0,2.332929224E-1
6.607360840E-1,4.026699662E-1,1.101483464E0,1.997370869E-1
6.627502440E-1,3.392867148E-1,9.331716895E-1,1.885518134E-1
6.647338860E-1,2.583266199E-1,8.309062719E-1,1.896170676E-1
6.667480460E-1,1.752360016E-1,7.909588814E-1,2.151834220E-1
6.687316890E-1,9.640643001E-2,7.760451436E-1,2.471413612E-1
6.707458490E-1,3.089267015E-2,7.691209316E-1,2.993393242E-1
6.727294920E-1,-2.450108156E-2,7.611314654E-1,3.456783295E-1
6.747436520E-1,-7.616640627E-2,7.568703890E-1,3.914846778E-1
6.767272940E-1,-1.230380461E-1,7.579356432E-1,4.527373910E-1
6.787719720E-1,-1.624528319E-1,7.707188129E-1,5.198490620E-1
6.807250970E-1,-1.837581247E-1,7.866978049E-1,5.992112756E-1
6.827087400E-1,-1.997370869E-1,7.914915085E-1,6.689860821E-1
6.847229000E-1,-2.082591951E-1,7.904262543E-1,7.440872192E-1
6.867065430E-1,-2.013349831E-1,7.829693556E-1,8.058725595E-1
6.887207030E-1,-1.922802329E-1,7.653924823E-1,8.697884083E-1
6.907043450E-1,-1.794970632E-1,7.414240837E-1,9.294432402E-1
6.927185050E-1,-1.661812514E-1,7.313040495E-1,9.821738005E-1
6.947021480E-1,-1.629854590E-1,7.515440583E-1,1.024784446E0
6.967163080E-1,-1.587243974E-1,7.882956862E-1,1.063133955E0
6.987304680E-1,-1.470064968E-1,8.032094240E-1,1.090298176E0
7.006835930E-1,-1.416801661E-1,8.117315173E-1,1.115864515E0
7.026977530E-1,-1.374191195E-1,8.117315173E-1,1.140898228E0
7.046813960E-1,-1.320927888E-1,7.941546440E-1,1.157409787E0
7.066955560E-1,-1.288969964E-1,7.659251690E-1,1.170725584E0
7.086791990E-1,-1.272991002E-1,7.291735411E-1,1.172323585E0
7.106933590E-1,-1.203748807E-1,6.775081754E-1,1.168062449E0
7.126770010E-1,-1.129180342E-1,6.178534031E-1,1.166464567E0
7.146911620E-1,-1.017327532E-1,5.581985712E-1,1.171790957E0
7.166748040E-1,-9.321063757E-2,5.012069345E-1,1.177649856E0
7.186889640E-1,-7.882957160E-2,4.474110603E-1,1.183508754E0
7.206726070E-1,-5.326322466E-2,3.840278387E-1,1.171258211E0
7.226562500E-1,-2.716424316E-2,3.334277868E-1,1.157409787E0
7.246704100E-1,-1.491370238E-2,3.163835406E-1,1.165931940E0
7.266540520E-1,-6.924218964E-3,3.222424984E-1,1.176584601E0
7.286682120E-1,-1.065264456E-3,3.446130455E-1,1.185106754E0
7.306518550E-1,7.989482954E-3,3.829625845E-1,1.190965652E0
7.326660150E-1,1.810949668E-2,4.282363057E-1,1.203216195E0
7.346496580E-1,2.237055451E-2,4.916195571E-1,1.215999365E0
7.366638180E-1,2.237055451E-2,5.704491138E-1,1.227184653E0
7.386779780E-1,2.450108156E-2,6.412891746E-1,1.224521518E0
7.406311030E-1,2.929477207E-2,7.147924304E-1,1.233576298E0
7.426147460E-1,3.515372798E-2,7.850999236E-1,1.230913043E0
7.445983880E-1,3.834952042E-2,8.570052385E-1,1.214934111E0
7.465820310E-1,4.154531285E-2,9.246495366E-1,1.211205721E0
7.485656730E-1,5.432848632E-2,9.725864530E-1,1.186172009E0
7.505798340E-1,7.510114461E-2,1.006142259E0,1.159007788E0
7.525634760E-1,9.267801046E-2,1.041828632E0,1.141430855E0
7.545776360E-1,1.118527651E-1,1.068992853E0,1.105744481E0
7.565612790E-1,1.331580579E-1,1.090830803E0,1.073786616E0
7.586059570E-1,1.587243974E-1,1.113201380E0,1.039165497E0
7.605590820E-1,1.816275865E-1,1.142496109E0,9.938917160E-1
7.625427240E-1,2.109223604E-1,1.172323585E0,9.629990458E-1
7.645263670E-1,2.508697808E-1,1.192563534E0,9.134642482E-1
7.665100090E-1,2.748382390E-1,1.235706806E0,8.884305358E-1
7.685241690E-1,2.998719513E-1,1.281513095E0,8.660600185E-1
7.705078120E-1,3.328951299E-1,1.321460605E0,8.325041533E-1
7.725219720E-1,3.659183383E-1,1.361940622E0,8.170578480E-1
7.745056150E-1,3.957457542E-1,1.407214403E0,7.968178391E-1
7.765197750E-1,4.314320982E-1,1.445031285E0,7.888283134E-1
7.785339350E-1,4.639226794E-1,1.482315540E0,7.488809228E-1
7.804870600E-1,4.932174385E-1,1.521197677E0,7.547398806E-1
7.825012200E-1,5.171858668E-1,1.565406084E0,7.360977530E-1
7.844848630E-1,5.560680628E-1,1.598961949E0,7.366303802E-1
7.864990230E-1,5.853627920E-1,1.630387306E0,7.339671850E-1
7.884826660E-1,6.125270724E-1,1.661812544E0,7.451524734E-1
7.904968260E-1,6.471481323E-1,1.695901036E0,7.552725077E-1
7.924804680E-1,6.732471585E-1,1.733717918E0,7.797735929E-1
7.944946280E-1,7.036072016E-1,1.768871665E0,8.143946528E-1
7.964782710E-1,7.302387953E-1,1.792840123E0,8.554073572E-1
7.984924310E-1,7.451524734E-1,1.812547445E0,9.054747820E-1
8.005065910E-1,7.579356432E-1,1.827461123E0,9.523464441E-1
8.024902340E-1,7.632619739E-1,1.843972802E0,1.004011750E0
8.045043940E-1,7.632619739E-1,1.869006515E0,1.039698124E0
8.064880370E-1,7.472830415E-1,1.946238160E0,1.041828632E0
8.085021970E-1,7.291735411E-1,2.144910097E0,1.023719192E0
8.104858390E-1,7.313040495E-1,2.463423967E0,9.827064872E-1
8.125000000E-1,7.462177277E-1,2.732935905E0,9.299758673E-1
8.144836420E-1,7.701861858E-1,2.824548721E0,8.623315692E-1
8.164978020E-1,7.829693556E-1,2.745186567E0,7.813714743E-1
8.185119620E-1,7.856325507E-1,2.537992477E0,6.934871674E-1
8.204956050E-1,7.866978049E-1,2.325472355E0,5.917543769E-1
8.224792480E-1,7.893609405E-1,2.121474266E0,4.910869002E-1
8.244628900E-1,7.957525253E-1,1.921737075E0,3.893541694E-1
8.264465330E-1,8.133293986E-1,1.761414766E0,3.014698327E-1
8.284301750E-1,8.303736448E-1,1.614940882E0,2.125202566E-1
8.304443350E-1,8.522115946E-1,1.470597625E0,1.390170157E-1
8.324279780E-1,8.740494847E-1,1.316666842E0,5.006742850E-2
8.344421380E-1,8.921589851E-1,1.169660330E0,-5.592638254E-2
8.364257810E-1,9.139968753E-1,1.005077004E0,-1.486043930E-1
8.384704590E-1,9.454222322E-1,8.138620257E-1,-2.300971150E-1
8.404235840E-1,9.976201653E-1,6.109291911E-1,-3.131877482E-1
8.424072260E-1,1.052481294E0,4.181163013E-1,-3.818973005E-1
8.443908690E-1,1.092428684E0,2.423476577E-1,-4.266384244E-1
8.463745110E-1,1.114799261E0,9.374327213E-2,-4.623247683E-1
8.483886710E-1,1.121723413E0,-1.491370238E-2,-4.809668958E-1
8.503723140E-1,1.093493938E0,-7.563377917E-2,-4.783037305E-1
8.523864740E-1,1.051948667E0,-1.022653878E-1,-4.527373910E-1
8.543701170E-1,9.949570298E-1,-1.049285457E-1,-4.026699662E-1
8.563842770E-1,9.518138170E-1,-7.669904083E-2,-3.355582952E-1
8.583984370E-1,9.134642482E-1,-4.793690145E-2,-2.524676621E-1
8.603515620E-1,8.740494847E-1,-3.941478580E-2,-1.502022892E-1
8.623657220E-1,8.388957381E-1,-3.834952042E-2,-4.154531285E-2
8.643493650E-1,8.106662631E-1,-2.609897964E-2,4.953479767E-2
8.663635250E-1,7.872304320E-1,-1.491370238E-2,1.379517466E-1
8.683471680E-1,7.643272281E-1,-2.929477207E-2,2.274339646E-1
8.703613280E-1,7.419567108E-1,-8.309062570E-2,3.014698327E-1
8.723449700E-1,7.201187611E-1,-1.917476058E-1,3.749730885E-1
8.743591300E-1,6.881608367E-1,-3.627225459E-1,4.356931746E-1
8.763427730E-1,6.588660479E-1,-5.603290796E-1,4.846953154E-1
8.783569330E-1,6.317018270E-1,-7.621967196E-1,5.198490620E-1
8.803710930E-1,6.024070382E-1,-9.571400881E-1,5.523396134E-1
8.823547360E-1,5.571333170E-1,-1.169660330E0,5.853627920E-1
8.843688960E-1,5.145227313E-1,-1.369930148E0,6.109291911E-1
8.863525390E-1,4.745753109E-1,-1.538774490E0,6.242449880E-1
8.883666990E-1,4.420847595E-1,-1.689509392E0,6.370281577E-1
8.903503410E-1,4.101268053E-1,-1.829591751E0,6.418218613E-1
8.923645010E-1,3.808320463E-1,-1.949966550E0,6.535397172E-1
8.943481440E-1,3.451456726E-1,-2.050101519E0,6.631271243E-1
8.963623040E-1,3.158509135E-1,-2.111354113E0,6.785734296E-1
8.983764640E-1,2.961435318E-1,-2.124670029E0,6.876282096E-1
9.003295890E-1,2.806971967E-1,-2.096973181E0,7.057377100E-1
9.023437500E-1,2.508697808E-1,-2.046373129E0,7.227819562E-1
9.043273920E-1,2.284992188E-1,-1.954227686E0,7.414240837E-1
9.063415520E-1,2.119876295E-1,-1.833320141E0,7.515440583E-1
9.083251950E-1,1.890844405E-1,-1.699096799E0,7.472830415E-1
9.103393550E-1,1.629854590E-1,-1.554220796E0,7.344998717E-1
9.123229980E-1,1.395496428E-1,-1.393898487E0,7.014766335E-1
9.143371580E-1,1.043959185E-1,-1.244761467E0,6.508765817E-1
9.163208000E-1,5.912217870E-2,-1.101483464E0,5.880259871E-1
9.183654780E-1,1.491370238E-2,-9.512811303E-1,5.086637735E-1
9.203186030E-1,-3.781688958E-2,-8.159925938E-1,4.127899706E-1
9.223022460E-1,-8.149272949E-2,-6.727145314E-1,2.982740402E-1
9.242858880E-1,-1.406149119E-1,-5.629922748E-1,1.789644361E-1
9.262695310E-1,-2.002697140E-1,-4.612595141E-1,4.580637068E-2
9.282836910E-1,-2.641855776E-1,-3.824299276E-1,-8.841694891E-2
9.302673340E-1,-3.291667104E-1,-3.137203753E-1,-2.322276533E-1
9.322814940E-1,-3.909520507E-1,-2.673813701E-1,-3.739078343E-1
9.342651360E-1,-4.628573954E-1,-2.466087192E-1,-5.123922229E-1
9.362792960E-1,-5.278385282E-1,-2.428802997E-1,-6.444849968E-1
9.382934570E-1,-5.917543769E-1,-2.450108230E-1,-7.696535587E-1
9.402465820E-1,-6.514092088E-1,-2.828277051E-1,-8.831042051E-1
9.422607420E-1,-7.046724558E-1,-3.499393761E-1,-9.827064872E-1
9.442443840E-1,-7.526093125E-1,-4.442152679E-1,-1.064199209E0
9.462585440E-1,-7.968178391E-1,-5.677859783E-1,-1.131310821E0
9.482421870E-1,-8.271778226E-1,-7.137271762E-1,-1.183508754E0
9.502563470E-1,-8.479505181E-1,-8.687231541E-1,-1.218129873E0
9.522399900E-1,-8.617989421E-1,-1.041296005E0,-1.235174179E0
9.542541500E-1,-8.660600185E-1,-1.217064619E0,-1.241565704E0
9.562377930E-1,-8.564726114E-1,-1.397626996E0,-1.238369942E0
9.582824700E-1,-8.388957381E-1,-1.585113525E0,-1.225586772E0
9.602355950E-1,-8.154599667E-1,-1.766208410E0,-1.209075212E0
9.622192380E-1,-7.845672965E-1,-1.954760313E0,-1.195226669E0
9.642028800E-1,-7.494135499E-1,-2.149703741E0,-1.176051974E0
9.661865230E-1,-7.158577442E-1,-2.338788033E0,-1.158475041E0
9.682006830E-1,-6.769755483E-1,-2.516154528E0,-1.147289872E0
9.701843260E-1,-6.375607848E-1,-2.684466362E0,-1.138235092E0
9.721984860E-1,-5.986786485E-1,-2.834136009E0,-1.134506702E0
9.741821280E-1,-5.640575290E-1,-2.963565826E0,-1.135571957E0
9.761962890E-1,-5.379585624E-1,-3.067429066E0,-1.133973956E0
9.782104490E-1,-5.155879855E-1,-3.135073185E0,-1.139300346E0
9.801635740E-1,-5.006743073E-1,-3.167563915E0,-1.139300346E0
9.821472160E-1,-4.921521842E-1,-3.167563915E0,-1.136637211E0
9.841308590E-1,-4.900216460E-1,-3.145725965E0,-1.126517177E0
9.861450190E-1,-4.958806038E-1,-3.109506845E0,-1.117462397E0
9.881286620E-1,-5.017395616E-1,-3.077016354E0,-1.100418210E0
9.901428220E-1,-5.512743592E-1,-3.017361641E0,-1.086569786E0
9.921264640E-1,-5.629922748E-1,-3.000849962E0,-1.065797091E0
9.941406250E-1,-5.864281058E-1,-2.996588945E0,-1.035437107E0
9.961242670E-1,-5.960154533E-1,-3.012567997E0,-1.010403395E0
9.981689450E-1,-6.045376062E-1,-3.045591116E0,-9.837717414E-1
1.000122070E0,-6.040049195E-1,-3.087669134E0,-9.598032832E-1
1.002136230E0,-5.960154533E-1,-3.145193338E0,-9.347695708E-1
1.004119873E0,-5.826996565E-1,-3.212837696E0,-9.123989940E-1
1.006103515E0,-5.709817410E-1,-3.275155544E0,-8.905611038E-1
1.008087158E0,-5.550028086E-1,-3.335875750E0,-8.660600185E-1
1.010070800E0,-5.363606811E-1,-3.403519869E0,-8.474178910E-1
1.012084960E0,-5.150553584E-1,-3.478621006E0,-8.207862377E-1
1.014068603E0,-4.974785149E-1,-3.567570686E0,-7.989483476E-1
1.016082763E0,-4.623247683E-1,-3.725229740E0,-7.675230503E-1
1.018096923E0,-4.000068009E-1,-4.086886883E0,-7.227819562E-1
1.020050048E0,-3.568635881E-1,-4.249872684E0,-7.036072016E-1
1.022064209E0,-2.753708661E-1,-4.531102180E0,-6.695187092E-1
1.024047851E0,-2.114549875E-1,-4.779841423E0,-6.471481323E-1
1.026062011E0,-1.470064968E-1,-5.006210327E0,-6.322344542E-1
1.028045654E0,-6.604639441E-2,-5.207545280E0,-6.343649626E-1
1.030059814E0,-3.462109342E-2,-5.325256824E0,-6.546050310E-1
1.032043457E0,-2.237055451E-2,-5.399825573E0,-6.807039976E-1
1.034057617E0,-5.858954508E-3,-5.447762489E0,-7.137271762E-1
1.036041259E0,4.261057824E-3,-5.470665455E0,-7.424893379E-1
1.038055419E0,-1.384843793E-2,-5.448827744E0,-7.691209316E-1
1.040069580E0,-1.704423130E-2,-5.449360371E0,-8.021441102E-1
1.042053222E0,-2.024002373E-2,-5.447229862E0,-8.309062719E-1
1.044097900E0,-3.462109342E-2,-5.447229862E0,-8.697884083E-1
1.046051025E0,-3.834952042E-2,-5.447762489E0,-8.841695189E-1
1.048034668E0,-6.551376730E-2,-5.443501472E0,-9.028116465E-1
1.050018310E0,-9.800432622E-2,-5.428587437E0,-9.326390028E-1
1.052032470E0,-1.390170157E-1,-5.413141251E0,-9.592706561E-1
1.054016113E0,-1.906823367E-1,-5.402488708E0,-9.789780378E-1
1.056030273E0,-2.625876963E-1,-5.345497131E0,-1.000815988E0
1.058044433E0,-3.648530841E-1,-5.215534687E0,-1.017327547E0
1.060028076E0,-4.942827225E-1,-5.030711174E0,-1.027980208E0
1.062011718E0,-6.364955306E-1,-4.829908848E0,-1.031708598E0
1.063995361E0,-7.771103978E-1,-4.654140472E0,-1.019990683E0
1.065979003E0,-9.028116465E-1,-4.514058113E0,-9.986854196E-1
1.067962646E0,-1.005077004E0,-4.422445297E0,-9.587380290E-1
1.069976806E0,-1.089765549E0,-4.378236771E0,-8.926916122E-1
1.071960449E0,-1.153681397E0,-4.373975754E0,-8.090683818E-1
1.073974609E0,-1.204281449E0,-4.388357162E0,-7.115966678E-1
1.075958251E0,-1.242098331E0,-4.424043179E0,-5.858954787E-1
1.078002929E0,-1.263403654E0,-4.472512722E0,-4.601942301E-1
1.079956054E0,-1.272458434E0,-4.539092064E0,-3.227751255E-1
1.081970214E0,-1.267664671E0,-4.622714996E0,-1.885518134E-1
1.083953857E0,-1.246359468E0,-4.727110863E0,-5.645901710E-2
1.085968017E0,-1.217064619E0,-4.836833477E0,6.498113275E-2
1.087951660E0,-1.178182483E0,-4.956142902E0,1.709749401E-1
1.089935302E0,-1.136637211E0,-5.075984955E0,2.540655732E-1
1.091918945E0,-1.099352956E0,-5.192631721E0,3.211772442E-1
1.093902587E0,-1.063133955E0,-5.305549622E0,3.760383427E-1
1.095916748E0,-1.036502361E0,-5.422195911E0,4.170510471E-1
1.097930908E0,-1.012001276E0,-5.535646915E0,4.442152679E-1
1.099884033E0,-9.912285805E-1,-5.650695324E0,4.665858448E-1
1.101898193E0,-9.773801565E-1,-5.764145851E0,4.873584807E-1
1.103881835E0,-9.635316730E-1,-5.866411209E0,5.006743073E-1
1.105895996E0,-9.544769526E-1,-5.945773602E0,5.134574771E-1
1.107879638E0,-9.464874864E-1,-6.004895687E0,5.241101384E-1
1.109893798E0,-9.379653335E-1,-6.044310570E0,5.315669775E-1
1.111877441E0,-9.315737486E-1,-6.068811417E0,5.368933082E-1
1.113891601E0,-9.209211469E-1,-6.068278790E0,5.374259353E-1
1.115875244E0,-9.171926975E-1,-6.060822010E0,5.427522659E-1
1.117889404E0,-9.113337398E-1,-6.041114807E0,5.491438508E-1
1.119873046E0,-9.086706042E-1,-6.010221958E0,5.566006899E-1
1.121856689E0,-9.049421549E-1,-5.971872330E0,5.635249019E-1
1.123870849E0,-9.033442736E-1,-5.931392670E0,5.720469952E-1
1.125854492E0,-9.049421549E-1,-5.898901939E0,5.795038939E-1
1.127868652E0,-8.985505700E-1,-5.874400616E0,5.874933600E-1
1.129852294E0,-8.985505700E-1,-5.863215446E0,5.928196907E-1
1.131866455E0,-8.969526887E-1,-5.868009090E0,5.992112756E-1
1.133850097E0,-8.889631629E-1,-5.883988380E0,5.970807076E-1
1.135864257E0,-8.815063238E-1,-5.922337532E0,6.034722924E-1
1.137878418E0,-8.703210354E-1,-5.975601196E0,5.981460214E-1
1.139831543E0,-8.543421030E-1,-6.046441078E0,6.008091569E-1
1.141845703E0,-8.314388990E-1,-6.134858131E0,5.970807076E-1
1.143829345E0,-8.101336360E-1,-6.246178150E0,5.986786485E-1
1.145843505E0,-7.739146352E-1,-6.366552830E0,5.965480804E-1
1.147827148E0,-7.323693037E-1,-6.512494087E0,5.896238685E-1
1.149841308E0,-6.817692518E-1,-6.682404041E0,5.880259871E-1
1.151824951E0,-6.162554622E-1,-6.887467384E0,5.773733258E-1
1.153839111E0,-5.454154015E-1,-7.111172676E0,5.640575290E-1
1.155822753E0,-4.692489803E-1,-7.345530987E0,5.496764779E-1
1.157867431E0,-3.904194236E-1,-7.590009212E0,5.368933082E-1
1.159820556E0,-3.030677438E-1,-7.841944218E0,5.241101384E-1
1.161804199E0,-2.087918371E-1,-8.096010208E0,5.139901042E-1
1.163787841E0,-1.033306494E-1,-8.358064651E0,5.155879855E-1
1.165771484E0,1.331580617E-2,-8.625446320E0,5.257080197E-1
1.167785644E0,1.363538504E-1,-8.786833763E0,5.475459099E-1
1.169769287E0,2.679139972E-1,-9.184710503E0,5.789712071E-1
1.171783447E0,4.111920893E-1,-9.456352234E0,6.173207760E-1
1.173767089E0,5.613943934E-1,-9.712548256E0,6.668555737E-1
1.175781250E0,7.233145833E-1,-9.938917160E0,7.169229984E-1
1.177795410E0,8.948221207E-1,-1.013173008E1,7.728493810E-1
1.179748535E0,1.070590734E0,-1.029631329E1,8.298410177E-1
1.181762695E0,1.252218366E0,-1.043000412E1,8.836368918E-1
1.183746337E0,1.429584861E0,-1.053120422E1,9.432916641E-1
1.185760498E0,1.602157712E0,-1.058233738E1,1.002946496E0
1.187744140E0,1.759284258E0,-1.062228489E1,1.065264463E0
1.189758300E0,1.908421278E0,-1.062548065E1,1.125451922E0
1.191741943E0,2.042111874E0,-1.060470772E1,1.192563534E0
1.193756103E0,2.153964758E0,-1.055250931E1,1.262338400E0
1.195739746E0,2.243446827E0,-1.049178982E1,1.343298435E0
1.197753906E0,2.313754320E0,-1.038952446E1,1.419997573E0
1.199737548E0,2.361691236E0,-1.027607346E1,1.507881880E0
1.201721191E0,2.389388084E0,-1.014504623E1,1.593635678E0
1.203735351E0,2.404834509E0,-1.000016975E1,1.680454731E0
1.205718994E0,2.400040865E0,-9.856359482E0,1.765675783E0
1.207733154E0,2.381398678E0,-9.706689835E0,1.849299073E0
1.209716796E0,2.349973440E0,-9.552226067E0,1.928128719E0
1.211730957E0,2.309493303E0,-9.407882690E0,2.011751890E0
1.213714599E0,2.261556387E0,-9.252886772E0,2.085255146E0
1.215728759E0,2.212554216E0,-9.101086617E0,2.157160521E0
1.217742919E0,2.161421537E0,-8.967395782E0,2.225870132E0
1.219696044E0,2.111886740E0,-8.841162682E0,2.278600693E0
1.221679687E0,2.059156179E0,-8.733037949E0,2.321211338E0
1.223663330E0,2.016545534E0,-8.629707336E0,2.351571321E0
1.225677490E0,1.979794025E0,-8.541290283E0,2.371811390E0
1.227661132E0,1.943575025E0,-8.476841927E0,2.381931305E0
1.229675293E0,1.911084414E0,-8.445949554E0,2.376605034E0
1.231658935E0,1.889779091E0,-8.416654587E0,2.356897593E0
1.233673095E0,1.884452820E0,-8.396414757E0,2.330798626E0
1.235656738E0,1.882854939E0,-8.399077415E0,2.293514490E0
1.237701416E0,1.886050701E0,-8.426774025E0,2.251969099E0
1.239654541E0,1.908421278E0,-8.462993622E0,2.201901674E0
1.241638183E0,1.928128719E0,-8.527974129E0,2.139583588E0
1.243621826E0,1.959553957E0,-8.590292931E0,2.078863621E0
1.245605468E0,2.005360365E0,-8.623315811E0,2.004827738E0
1.247619628E0,2.063417196E0,-8.652077675E0,1.935052872E0
1.249603271E0,2.126800537E0,-8.668056488E0,1.853027463E0
1.251617431E0,2.194977522E0,-8.659002304E0,1.777926326E0
1.253601074E0,2.271143913E0,-8.619586945E0,1.706021070E0
1.255615234E0,2.341983795E0,-8.571650505E0,1.636246204E0
1.257629394E0,2.412291288E0,-8.490158081E0,1.566471338E0
1.259582519E0,2.468217850E0,-8.384163857E0,1.505218625E0
1.261596679E0,2.516687393E0,-8.262723923E0,1.443433285E0
1.263580322E0,2.551841021E0,-8.118380547E0,1.388572216E0
1.265594482E0,2.572081089E0,-7.967645645E0,1.335841656E0
1.267578125E0,2.574744225E0,-7.799333572E0,1.300687909E0
1.269592285E0,2.562493563E0,-7.610781670E0,1.274056315E0
1.271575927E0,2.540655613E0,-7.398261547E0,1.258610010E0
1.273559570E0,2.508697748E0,-7.140467644E0,1.257544637E0
1.275543212E0,2.471413612E0,-6.866161823E0,1.268729925E0
1.277557373E0,2.433063984E0,-6.550311089E0,1.292165756E0
1.279541015E0,2.389920712E0,-6.366552830E0,1.328917384E0
1.281524658E0,2.352103949E0,-5.850965023E0,1.372593284E0
1.283538818E0,2.312156439E0,-5.473861217E0,1.432248116E0
1.285522460E0,2.273274422E0,-5.092496872E0,1.498294473E0
1.287536621E0,2.225337505E0,-4.720186710E0,1.576591372E0
1.289520263E0,2.175270081E0,-4.364921093E0,1.662345171E0
1.291503906E0,2.121474266E0,-4.043211460E0,1.756621122E0
1.293487548E0,2.057558298E0,-3.755589724E0,1.846103311E0
1.295471191E0,1.993642449E0,-3.510579109E0,1.936650753E0
1.297515869E0,1.915878177E0,-3.298591375E0,2.027198315E0
1.299468994E0,1.841309667E0,-3.126018524E0,2.116680384E0
1.301483154E0,1.766741157E0,-2.981142521E0,2.200303793E0
1.303466796E0,1.693237901E0,-2.860234976E0,2.285524845E0
1.305480957E0,1.627191424E0,-2.760100126E0,2.363289118E0
1.307464599E0,1.563808203E0,-2.688727379E0,2.436259747E0
1.309478759E0,1.505751252E0,-2.651443243E0,2.507099867E0
1.311462402E0,1.449824929E0,-2.644519091E0,2.569417953E0
1.313476562E0,1.400822759E0,-2.668487549E0,2.622148514E0
1.315460205E0,1.356081605E0,-2.714293718E0,2.655171633E0
1.317474365E0,1.316134214E0,-2.768622398E0,2.667422295E0
1.319458007E0,1.280447841E0,-2.838929892E0,2.646116972E0
1.321441650E0,1.253816247E0,-2.909769773E0,2.592853785E0
1.323455810E0,1.224521518E0,-2.980077267E0,2.515089273E0
1.325439453E0,1.201618314E0,-3.039199591E0,2.408562899E0
1.327453613E0,1.182976127E0,-3.081809998E0,2.279133320E0
1.329437255E0,1.168062449E0,-3.105245829E0,2.138518333E0
1.331451416E0,1.160073042E0,-3.107908964E0,1.986718178E0
1.333435058E0,1.152616143E0,-3.091397524E0,1.832254887E0
1.335449218E0,1.152616143E0,-3.055178404E0,1.681519985E0
1.337493896E0,1.152616143E0,-3.008306742E0,1.531850338E0
1.339447021E0,1.163268805E0,-2.946521521E0,1.383245945E0
1.341461181E0,1.172856212E0,-2.877279282E0,1.240500450E0
1.343444824E0,1.182976127E0,-2.803776026E0,1.107874990E0
1.345458984E0,1.195226669E0,-2.727077007E0,9.821738005E-1
1.347442626E0,1.210673094E0,-2.647714853E0,8.697884083E-1
1.349456787E0,1.214401484E0,-2.558765173E0,7.621967196E-1
1.351440429E0,1.214934111E0,-2.451706171E0,6.764429212E-1
1.353424072E0,1.211738348E0,-2.321211338E0,5.997439027E-1
1.355407714E0,1.206944585E0,-2.172606945E0,5.438175201E-1
1.357421875E0,1.196292043E0,-1.992044568E0,5.001416802E-1
1.359405517E0,1.188302517E0,-1.794970632E0,4.708468914E-1
1.361389160E0,1.181378245E0,-1.587244034E0,4.511395097E-1
1.363403320E0,1.172856212E0,-1.365136385E0,4.426173866E-1
1.365386962E0,1.161138296E0,-1.132908702E0,4.500742257E-1
1.367401123E0,1.146757245E0,-9.006810784E-1,4.649879336E-1
1.369384765E0,1.129712939E0,-6.684534550E-1,4.878911078E-1
1.371398925E0,1.111070871E0,-4.474110603E-1,5.251753926E-1
1.373382568E0,1.083373904E0,-2.407497615E-1,5.768406987E-1
1.375366210E0,1.057807565E0,-4.580637068E-2,6.359629035E-1
1.377380371E0,1.023719192E0,1.294296384E-1,7.009440064E-1
1.379333496E0,9.885654449E-1,2.870887816E-1,7.659251690E-1
1.381347656E0,9.454222322E-1,4.356931746E-1,8.309062719E-1
1.383331298E0,8.985505700E-1,5.757754445E-1,8.884305358E-1
1.385345459E0,8.479505181E-1,7.041398287E-1,9.369000793E-1
1.387329101E0,7.819041014E-1,8.170578480E-1,9.805759192E-1
1.389343261E0,7.147924304E-1,9.060074091E-1,1.005077004E0
1.391326904E0,6.439523697E-1,9.619337916E-1,1.016794920E0
1.393310546E0,5.667206645E-1,9.800432920E-1,1.018925428E0
1.395294189E0,4.820321798E-1,9.582054019E-1,1.013066530E0
1.397308349E0,4.000068009E-1,8.958874345E-1,9.986854196E-1
1.399291992E0,3.201119602E-1,8.106662631E-1,9.821738005E-1
1.401275634E0,2.444781959E-1,7.142598033E-1,9.619337916E-1
1.403289794E0,1.715075821E-1,5.864281058E-1,9.374327064E-1
1.405273437E0,9.800432622E-2,4.394215941E-1,9.076052904E-1
1.407287597E0,2.130528912E-2,2.806971967E-1,8.735168576E-1
1.409271240E0,-5.326322466E-2,1.123853996E-1,8.325041533E-1
1.411285400E0,-1.251685768E-1,-6.285060197E-2,7.856325507E-1
1.413269043E0,-1.960086524E-1,-2.444781959E-1,7.371630073E-1
1.415283203E0,-2.609897852E-1,-4.330300093E-1,6.817692518E-1
1.417266845E0,-3.222424984E-1,-6.231797338E-1,6.295713186E-1
1.419250488E0,-3.744404614E-1,-7.989483476E-1,5.757754445E-1
1.421234130E0,-4.154531360E-1,-9.629990458E-1,5.326322317E-1
1.423248291E0,-4.458131790E-1,-1.105211854E0,4.894890189E-1
1.425231933E0,-4.665858448E-1,-1.229315162E0,4.543353021E-1
1.427246093E0,-4.676510990E-1,-1.332113147E0,4.170510471E-1
1.429229736E0,-4.511395097E-1,-1.400290132E0,3.824299276E-1
1.431243896E0,-4.143878818E-1,-1.420530200E0,3.456783295E-1
1.433227539E0,-3.605920076E-1,-1.390702724E0,3.131877482E-1
1.435241699E0,-2.902845740E-1,-1.292698383E0,2.748382390E-1
1.437255859E0,-2.077265680E-1,-1.141963482E0,2.455434501E-1
1.439208984E0,-1.619201899E-1,-1.052481294E0,2.258360684E-1
1.441192626E0,-6.285060197E-2,-8.495483994E-1,1.858886480E-1
1.443206787E0,3.941478580E-2,-6.332997084E-1,1.374191195E-1
1.445159912E0,1.432780623E-1,-4.122573435E-1,8.575379103E-2
1.447143554E0,2.503371537E-1,-1.981391907E-1,3.089267015E-2
1.449157714E0,3.451456726E-1,1.384843793E-2,-2.237055451E-2
1.451141357E0,4.378236830E-1,2.242381722E-1,-7.030745596E-2
1.453155517E0,5.246427655E-1,4.314320982E-1,-1.081243455E-1
1.455139160E0,5.992112756E-1,6.386260390E-1,-1.358212233E-1
1.457183837E0,6.604639888E-1,8.314388990E-1,-1.608549356E-1
1.459136962E0,7.014766335E-1,9.981527925E-1,-1.826928556E-1
1.461151123E0,7.153250575E-1,1.132376075E0,-2.029328793E-1
1.463134765E0,7.036072016E-1,1.231445670E0,-2.258360684E-1
1.465148925E0,6.641923785E-1,1.307612062E0,-2.535329461E-1
1.467132568E0,6.056028605E-1,1.369397402E0,-2.822950780E-1
1.469116210E0,5.267732739E-1,1.415736437E0,-3.057309091E-1
1.471099853E0,4.351605177E-1,1.462075472E0,-3.243730366E-1
1.473083496E0,3.291667104E-1,1.504153371E0,-3.403519988E-1
1.475097656E0,2.146507949E-1,1.551025033E0,-3.563309610E-1
1.477111816E0,9.161274135E-2,1.600027204E0,-3.696467578E-1
1.479095459E0,-3.355583176E-2,1.655421019E0,-3.888215125E-1
1.481079101E0,-1.677791476E-1,1.720402122E0,-4.133225977E-1
1.483093261E0,-3.041329980E-1,1.791242242E0,-4.463458061E-1
1.485076904E0,-4.415521026E-1,1.872202277E0,-4.969458580E-1
1.487091064E0,-5.725796223E-1,1.945172906E0,-6.045376062E-1
1.489074707E0,-6.977482438E-1,2.024535179E0,-7.238472104E-1
1.491088867E0,-8.138620257E-1,2.134789944E0,-8.282431364E-1
1.493072509E0,-9.347695708E-1,2.256762743E0,-9.171926975E-1
1.495056152E0,-1.060470819E0,2.388322830E0,-9.779127836E-1
1.497070312E0,-1.187237263E0,2.547047377E0,-9.965549111E-1
1.499053955E0,-1.310807943E0,2.727609634E0,-9.773801565E-1
1.501037597E0,-1.439704895E0,2.913498402E0,-9.358348250E-1
1.503051757E0,-1.583515644E0,3.083407879E0,-8.900284767E-1
1.505035400E0,-1.737978935E0,3.235208035E0,-8.399610519E-1
1.507049560E0,-1.891377091E0,3.379551411E0,-7.952198982E-1
1.509033203E0,-2.029328823E0,3.499926329E0,-7.536746264E-1
1.511047363E0,-2.153964758E0,3.596332788E0,-7.057377100E-1
1.513031005E0,-2.250903845E0,3.687945604E0,-6.530070901E-1
1.515045166E0,-2.331331253E0,3.778492928E0,-5.869607329E-1
1.517059326E0,-2.392051220E0,3.872236252E0,-5.086637735E-1
1.519042968E0,-2.434661865E0,3.969175339E0,-4.202468395E-1
1.521026611E0,-2.458630323E0,4.057059765E0,-3.206445873E-1
1.523010253E0,-2.471946239E0,4.115116596E0,-2.114549875E-1
1.524993896E0,-2.471413612E0,4.135889053E0,-9.480853379E-2
1.526977539E0,-2.459162951E0,4.115649223E0,2.556634694E-2
1.528991699E0,-2.437325001E0,4.053331375E0,1.448759735E-1
1.530975341E0,-2.402171373E0,3.945206881E0,2.583266199E-1
1.532989501E0,-2.369148254E0,3.804059267E0,3.637878001E-1
1.534973144E0,-2.340385914E0,3.635747671E0,4.585963488E-1
1.537017822E0,-2.316950083E0,3.455185175E0,5.448827744E-1
1.538970947E0,-2.303101778E0,3.279416561E0,6.167881489E-1
1.540985107E0,-2.300438643E0,3.112702847E0,6.705839634E-1
1.542968750E0,-2.300438643E0,2.963565826E0,7.115966678E-1
1.544952392E0,-2.308960676E0,2.820287704E0,7.366303802E-1
1.546936035E0,-2.318015575E0,2.692988634E0,7.371630073E-1
1.548919677E0,-2.324407101E0,2.582733631E0,7.137271762E-1
1.550933837E0,-2.335592270E0,2.487925053E0,6.705839634E-1
1.552917480E0,-2.340385914E0,2.411226034E0,5.965480804E-1
1.554931640E0,-2.343581915E0,2.350506067E0,4.985437691E-1
1.556945800E0,-2.347310305E0,2.307895422E0,3.802994192E-1
1.558929443E0,-2.342516422E0,2.287655354E0,2.476739883E-1
1.560913085E0,-2.336124897E0,2.275937557E0,1.075917110E-1
1.562927246E0,-2.321743965E0,2.293514490E0,-3.355583176E-2
1.564910888E0,-2.294047117E0,2.331331253E0,-1.725728363E-1
1.566925048E0,-2.258893251E0,2.381398678E0,-3.004045784E-1
1.568908691E0,-2.207227945E0,2.454901934E0,-4.165183902E-1
1.570892334E0,-2.146507978E0,2.544916868E0,-5.209143162E-1
1.572875976E0,-2.068743467E0,2.648247480E0,-6.183860302E-1
1.574859619E0,-1.982457161E0,2.765426636E0,-7.078682184E-1
1.576873779E0,-1.887115955E0,2.885801315E0,-7.920241356E-1
1.578887939E0,-1.782720089E0,3.005643606E0,-8.703210354E-1
1.580871582E0,-1.674595714E0,3.128149033E0,-9.427590370E-1
1.582885742E0,-1.561145067E0,3.236806154E0,-1.010936022E0
1.584869384E0,-1.450357556E0,3.327353477E0,-1.072188616E0
1.586883544E0,-1.337972164E0,3.407248259E0,-1.139832973E0
1.588867187E0,-1.230913043E0,3.476490498E0,-1.200553060E0
1.590881347E0,-1.125984550E0,3.532949686E0,-1.271393180E0
1.592864990E0,-1.026914954E0,3.565972805E0,-1.340635300E0
1.594879150E0,-9.289106131E-1,3.580886364E0,-1.419464946E0
1.596893310E0,-8.378304839E-1,3.568103313E0,-1.498294473E0
1.598846435E0,-7.440872192E-1,3.540939093E0,-1.568601966E0
1.600860595E0,-6.572681665E-1,3.482349396E0,-1.631985188E0
1.602844238E0,-5.731122494E-1,3.394997835E0,-1.682585239E0
1.604858398E0,-4.878911078E-1,3.281014442E0,-1.707618952E0
1.606842041E0,-4.053331316E-1,3.133475304E0,-1.711879969E0
1.608856201E0,-3.195793331E-1,2.967826843E0,-1.694835782E0
1.610839843E0,-2.386192381E-1,2.781938076E0,-1.663943052E0
1.612854003E0,-1.635181010E-1,2.599245310E0,-1.626126170E0
1.614837646E0,-9.108011425E-2,2.425074577E0,-1.585646152E0
1.616882324E0,-3.249056637E-2,2.249838591E0,-1.544633508E0
1.618835449E0,7.989482954E-3,2.062351942E0,-1.497761846E0
1.620819091E0,3.675162420E-2,1.883920193E0,-1.447161794E0
1.622802734E0,5.326322466E-2,1.705488443E0,-1.386974335E0
1.624786376E0,5.539375171E-2,1.535578728E0,-1.328384757E0
1.626800537E0,4.580637068E-2,1.365669012E0,-1.265534163E0
1.628784179E0,3.728425503E-2,1.191498280E0,-1.200553060E0
1.630798339E0,2.609897964E-2,1.012533903E0,-1.147289872E0
1.632781982E0,1.704423130E-2,8.404936790E-1,-1.105211854E0
1.634796142E0,9.054748341E-3,6.604639888E-1,-1.071123362E0
1.636810302E0,-5.326322280E-4,4.793690145E-1,-1.042361259E0
1.638793945E0,-7.989482954E-3,3.094593287E-1,-1.025317073E0
1.640777587E0,-1.225054078E-2,1.592570394E-1,-1.015729666E0
1.642761230E0,-9.587380104E-3,3.408846259E-2,-1.010403395E0
1.644775390E0,-6.391586736E-3,-6.870955974E-2,-1.008272767E0
1.646759033E0,5.858954508E-3,-1.320927888E-1,-1.005609632E0
1.648742675E0,2.024002373E-2,-1.549959779E-1,-1.008805394E0
1.650726318E0,4.207794741E-2,-1.288969964E-1,-1.008805394E0
1.652740478E0,6.231797114E-2,-7.350324839E-2,-9.976201653E-1
1.654724121E0,9.427590668E-2,2.769687586E-2,-9.853696227E-1
1.656768798E0,1.336906850E-1,1.645833552E-1,-9.571400881E-1
1.658721923E0,1.858886480E-1,3.371562064E-1,-9.262474179E-1
1.660705566E0,2.466087192E-1,5.251753926E-1,-8.815063238E-1
1.662719726E0,3.089267015E-1,7.105314136E-1,-8.271778226E-1
1.664703369E0,3.749730885E-1,8.809736967E-1,-7.605988383E-1
1.666717529E0,4.362258017E-1,1.025317073E0,-6.918892860E-1
1.668701171E0,4.937500656E-1,1.137169838E0,-6.114618182E-1
1.670715332E0,5.528722405E-1,1.228249907E0,-5.267732739E-1
1.672698974E0,6.130596995E-1,1.304416299E0,-4.362258017E-1
1.674713134E0,6.705839634E-1,1.377919555E0,-3.488741219E-1
1.676727294E0,7.265103459E-1,1.442368031E0,-2.705771625E-1
1.678710937E0,7.787083387E-1,1.502555490E0,-1.922802329E-1
1.680694580E0,8.218515515E-1,1.551557660E0,-1.193096191E-1
1.682708740E0,8.500810266E-1,1.600559831E0,-5.219795927E-2
1.684692382E0,8.729842305E-1,1.660214663E0,7.456851192E-3
1.686676025E0,8.852347732E-1,1.733717918E0,6.870955974E-2
1.688659668E0,8.873652816E-1,1.831189632E0,1.336906850E-1
1.690643310E0,8.783105612E-1,1.967543483E0,1.986718178E-1
1.692657470E0,8.607336879E-1,2.127333164E0,2.732403278E-1
1.694641113E0,8.271778226E-1,2.306297541E0,3.510046303E-1
1.696685791E0,7.925567627E-1,2.534264088E0,4.159857631E-1
1.698638916E0,7.531419992E-1,2.805373907E0,4.580637217E-1
1.700653076E0,7.137271762E-1,3.125485897E0,4.468784332E-1
1.702636718E0,6.546050310E-1,3.399791479E0,4.452805519E-1
1.704650878E0,5.267732739E-1,3.414172649E0,5.704491138E-1
1.706634521E0,3.866910040E-1,3.415770531E0,7.435545921E-1
1.708618164E0,2.806971967E-1,3.590473890E0,8.745821118E-1
1.710601806E0,2.231729031E-1,3.924966812E0,9.139968753E-1
1.712585449E0,1.912149638E-1,4.291950703E0,9.155948162E-1
1.714599609E0,1.129180342E-1,4.386758804E0,1.027980208E0
1.716613769E0,2.343581803E-2,4.479969501E0,1.149953008E0
1.718597412E0,-5.645901710E-2,4.670119286E0,1.247424722E0
1.720581054E0,-1.336906850E-1,4.892227173E0,1.306014180E0
1.722595214E0,-2.061286718E-1,5.044027328E0,1.348092198E0
1.724578857E0,-2.806971967E-1,5.098355770E0,1.362473249E0
1.726593017E0,-3.579288721E-1,5.022189140E0,1.363538504E0
1.728576660E0,-4.463458061E-1,4.803810120E0,1.371528029E0
1.730590820E0,-5.294364095E-1,4.581702232E0,1.336906910E0
1.732574462E0,-5.976133347E-1,4.372377872E0,1.253816247E0
1.734588623E0,-6.514092088E-1,4.127367020E0,1.140365601E0
1.736633300E0,-6.950850487E-1,3.823234081E0,1.011468649E0
1.738586425E0,-7.190535069E-1,3.477023125E0,8.644620776E-1
1.740570068E0,-7.259777188E-1,3.102050066E0,7.062703371E-1
1.742553710E0,-7.291735411E-1,2.723348618E0,5.512743592E-1
1.744537353E0,-7.318366766E-1,2.351571321E0,4.026699662E-1
1.746551513E0,-7.360977530E-1,1.998436093E0,2.631203234E-1
1.748535156E0,-7.478156686E-1,1.662877798E0,1.448759735E-1
1.750549316E0,-7.675230503E-1,1.351820588E0,4.846953228E-2
1.752532959E0,-7.941546440E-1,1.086037159E0,-3.728425503E-2
1.754547119E0,-8.255799413E-1,8.623315692E-1,-1.113201380E-1
1.756561279E0,-8.596684337E-1,6.711165905E-1,-1.763012707E-1
1.758544921E0,-8.990831971E-1,4.958806038E-1,-2.258360684E-1
1.760528564E0,-9.411611557E-1,3.424825370E-1,-2.609897852E-1
1.762512207E0,-9.859022498E-1,2.407497615E-1,-2.796319127E-1
1.764526367E0,-1.023719192E0,2.066612989E-1,-2.817624509E-1
1.766510009E0,-1.061003447E0,2.237055302E-1,-2.615224123E-1
1.768524169E0,-1.091896057E0,3.083940744E-1,-2.263686955E-1
1.770507812E0,-1.113201380E0,4.665858448E-1,-1.763012707E-1
1.772521972E0,-1.117462397E0,6.743124127E-1,-1.182443574E-1
1.774505615E0,-1.109472990E0,9.438242912E-1,-5.912217870E-2
1.776550293E0,-1.080710769E0,1.266599417E0,-5.858954508E-3
1.778503418E0,-1.042893887E0,1.581917763E0,4.580637068E-2
1.780517578E0,-9.875001311E-1,1.890844464E0,8.841694891E-2
1.782501220E0,-9.283779860E-1,2.176867962E0,1.246359423E-1
1.784515380E0,-8.548747301E-1,2.454901934E0,1.619201899E-1
1.786499023E0,-7.755125165E-1,2.715359211E0,1.992044598E-1
1.788482666E0,-6.876282096E-1,2.941727877E0,2.444781959E-1
1.790466308E0,-6.002765298E-1,3.108974218E0,2.881540358E-1
1.792449951E0,-5.150553584E-1,3.206445932E0,3.328951299E-1
1.794464111E0,-4.372910559E-1,3.229349136E0,3.936152160E-1
1.796478271E0,-3.632551730E-1,3.228816509E0,4.532700181E-1
1.798461914E0,-2.972087860E-1,3.230947018E0,5.097290277E-1
1.800445556E0,-2.231729031E-1,3.247458696E0,5.512743592E-1
1.802459716E0,-1.502022892E-1,3.228283882E0,5.816344023E-1
1.804443359E0,-8.735168725E-2,3.160106897E0,5.997439027E-1
1.806427001E0,-2.290318534E-2,3.054645777E0,6.024070382E-1
1.808410644E0,4.207794741E-2,2.939597368E0,5.848301649E-1
1.810394287E0,9.534116834E-2,2.823483467E0,5.597964525E-1
1.812408447E0,1.438107044E-1,2.727609634E0,5.257080197E-1
1.814392089E0,1.826928556E-1,2.645584345E0,4.905542731E-1
1.816406250E0,2.114549875E-1,2.596049547E0,4.511395097E-1
1.818389892E0,2.359560728E-1,2.586994648E0,4.074636400E-1
1.820373535E0,2.519350350E-1,2.613093615E0,3.589941263E-1
1.822387695E0,2.684466541E-1,2.677009583E0,3.110572100E-1
1.824371337E0,2.801645398E-1,2.767024517E0,2.561961114E-1
1.826385498E0,2.860234976E-1,2.875681400E0,1.954760253E-1
1.828369140E0,2.801645398E-1,2.976348877E0,1.288969964E-1
1.830383300E0,2.620550692E-1,3.029612064E0,5.219795927E-2
1.832366943E0,2.274339646E-1,3.021622658E0,-1.225054078E-2
1.834350585E0,1.896170676E-1,3.031209946E0,-6.072007492E-2
1.836364746E0,1.816275865E-1,3.065298557E0,-1.033306494E-1
1.838317871E0,1.688444167E-1,3.167031288E0,-2.354234457E-1
1.840332031E0,1.374191195E-1,3.183542728E0,-3.701793849E-1
1.842346191E0,1.001348570E-1,3.068494320E0,-4.942827225E-1
1.844329834E0,4.314320907E-2,2.855973959E0,-5.933523178E-1
1.846313476E0,-3.515372798E-2,2.540655613E0,-6.572681665E-1
1.848327636E0,-1.123853996E-1,2.234392166E0,-7.185208797E-1
1.850311279E0,-1.821602285E-1,1.963814974E0,-7.819041014E-1
1.852325439E0,-2.237055302E-1,1.715608358E0,-8.436894417E-1
1.854309082E0,-2.354234457E-1,1.474858642E0,-9.033442736E-1
1.856323242E0,-2.125202566E-1,1.235174179E0,-9.598032832E-1
1.858306884E0,-1.656486243E-1,9.938917160E-1,-1.013066530E0
1.860290527E0,-9.534116834E-2,7.462177277E-1,-1.063666582E0
1.862304687E0,0.000000000E0,5.033374429E-1,-1.111603498E0
1.864288330E0,1.171790883E-1,2.684466541E-1,-1.164334059E0
1.866302490E0,2.530003190E-1,6.764429063E-2,-1.210140467E0
1.868286132E0,4.133225977E-1,-8.948221803E-2,-1.268197298E0
1.870300293E0,5.848301649E-1,-2.151834220E-1,-1.323058486E0
1.872283935E0,7.659251690E-1,-3.041329980E-1,-1.377386928E0
1.874298095E0,9.416937828E-1,-3.733751774E-1,-1.430650115E0
1.876312255E0,1.108940244E0,-4.218447208E-1,-1.481250167E0
1.878265380E0,1.254881501E0,-4.596616030E-1,-1.519067168E0
1.880279541E0,1.383245945E0,-5.054680109E-1,-1.540904999E0
1.882263183E0,1.489239693E0,-5.603290796E-1,-1.538241863E0
1.884277343E0,1.571797729E0,-6.237123609E-1,-1.508947134E0
1.886260986E0,1.643703103E0,-6.716492176E-1,-1.465271235E0
1.888275146E0,1.708684206E0,-6.705839634E-1,-1.406149030E0
1.890258789E0,1.767806411E0,-6.285060048E-1,-1.340102673E0
1.892272949E0,1.815210581E0,-5.539374948E-1,-1.263403654E0
1.894256591E0,1.847701192E0,-4.554005563E-1,-1.187769890E0
1.896270751E0,1.861016989E0,-3.456783295E-1,-1.115864515E0
1.898284912E0,1.851962209E0,-2.375539690E-1,-1.042893887E0
1.900268554E0,1.824265361E0,-1.246359423E-1,-9.720538259E-1
1.902282714E0,1.782720089E0,-5.858954508E-3,-9.086706042E-1
1.904266357E0,1.723597884E0,1.166464612E-1,-8.543421030E-1
1.906280517E0,1.654355645E0,2.332929224E-1,-8.053399324E-1
1.908264160E0,1.578189254E0,3.296993375E-1,-7.600662112E-1
1.910278320E0,1.497229218E0,4.095941782E-1,-7.169229984E-1
1.912261962E0,1.414671183E0,4.628573954E-1,-6.732471585E-1
1.914276123E0,1.336906910E0,4.852279723E-1,-6.311691999E-1
1.916290283E0,1.259675264E0,4.799016416E-1,-5.890912414E-1
1.918243408E0,1.185639381E0,4.420847595E-1,-5.486112237E-1
1.920227050E0,1.118527651E0,3.792341352E-1,-5.166532397E-1
1.922210693E0,1.063133955E0,2.897519469E-1,-4.900216460E-1
1.924224853E0,1.009870648E0,1.709749401E-1,-4.719121456E-1
1.926208496E0,9.672601223E-1,3.355583176E-2,-4.623247683E-1
1.928222656E0,9.411611557E-1,-1.182443574E-1,-4.623247683E-1
1.930206298E0,9.310411215E-1,-2.593919039E-1,-4.788363874E-1
1.932220459E0,9.390306473E-1,-3.904194236E-1,-5.060006380E-1
1.934204101E0,9.603359103E-1,-5.097290277E-1,-5.411543250E-1
1.936248779E0,9.944243431E-1,-6.061354876E-1,-5.800365210E-1
1.938201904E0,1.037567616E0,-6.881608367E-1,-6.215817928E-1
1.940185546E0,1.079112887E0,-7.568703890E-1,-6.599313021E-1
1.942169189E0,1.127582431E0,-8.106662631E-1,-6.972155571E-1
1.944152832E0,1.177649856E0,-8.490157723E-1,-7.291735411E-1
1.946166992E0,1.226119399E0,-8.719189763E-1,-7.637946010E-1
1.948150634E0,1.275121570E0,-8.548747301E-1,-7.893609405E-1
1.950164794E0,1.324656367E0,-7.973504663E-1,-8.090683818E-1
1.952148437E0,1.358212233E0,-7.014766335E-1,-8.122641444E-1
1.954162597E0,1.384311199E0,-5.704491138E-1,-8.000136018E-1
1.956176757E0,1.389637470E0,-4.420847595E-1,-7.659251690E-1
1.958160400E0,1.407747030E0,-2.237055302E-1,-7.382282615E-1
1.960144043E0,1.442900658E0,1.171790883E-1,-7.217166424E-1
1.962158203E0,1.435443878E0,2.732403278E-1,-6.535397172E-1
1.964141845E0,1.416269064E0,3.936152160E-1,-5.709817410E-1
1.966125488E0,1.380050063E0,4.639226794E-1,-4.777711034E-1
1.968109130E0,1.354483724E0,5.448827744E-1,-3.813646734E-1
1.970092773E0,1.327319503E0,6.753776670E-1,-2.844256163E-1
1.972106933E0,1.280447841E0,7.478156686E-1,-1.874865443E-1
1.974090576E0,1.242098331E0,8.069378138E-1,-1.065264493E-1
1.976104736E0,1.203748822E0,8.442220688E-1,-3.408846259E-2
1.978088378E0,1.178715110E0,8.149272799E-1,2.450108156E-2
1.980072021E0,1.160073042E0,7.691209316E-1,6.604639441E-2
1.982086181E0,1.158475041E0,7.041398287E-1,8.255799860E-2
1.984069824E0,1.173921466E0,6.210491657E-1,8.788431436E-2
1.986083984E0,1.206944585E0,5.283711553E-1,7.563377917E-2
1.988067626E0,1.247957349E0,4.665858448E-1,5.219795927E-2
1.990081787E0,1.290567875E0,4.271710515E-1,1.438106969E-2
1.992065429E0,1.315068960E0,3.834952116E-1,-1.810949668E-2
1.994079589E0,1.309210062E0,2.817624509E-1,-5.273059011E-2
1.996093750E0,1.246359468E0,1.352885813E-1,-7.669904083E-2
1.998046875E0,1.175519347E0,-4.793690052E-3,-1.001348570E-1
2.000061035E0,1.094026566E0,-1.230380461E-1,-1.123853996E-1
2.002044677E0,1.030110717E0,-2.215750068E-1,-1.251685768E-1
2.004058837E0,9.651296139E-1,-3.632551730E-1,-1.251685768E-1
2.006042480E0,9.278453588E-1,-4.948153496E-1,-1.150485575E-1
2.008056640E0,8.863000274E-1,-5.406216979E-1,-1.027980223E-1
2.010040283E0,8.181231022E-1,-6.157228351E-1,-8.948221803E-2
2.012054443E0,7.542072535E-1,-7.914915085E-1,-7.936219871E-2
2.014038085E0,7.472830415E-1,-9.800432920E-1,-9.853696078E-2
2.016082763E0,7.691209316E-1,-1.043426514E0,-1.395496428E-1
2.018035888E0,8.287757635E-1,-1.011468649E0,-1.576591432E-1
2.020019531E0,8.809736967E-1,-1.065797091E0,-1.741707325E-1
2.022003173E0,9.139968753E-1,-1.064199209E0,-2.423476577E-1
2.023986816E0,9.938917160E-1,-8.463526368E-1,-3.249056637E-1
2.026000976E0,1.062068701E0,-7.446198463E-1,-4.079962969E-1
2.027984619E0,1.059938192E0,-7.920241356E-1,-5.001416802E-1
2.029998779E0,1.077515006E0,-8.261125684E-1,-6.279733777E-1
2.031982421E0,1.142496109E0,-7.691209316E-1,-7.547398806E-1
2.033996582E0,1.180845618E0,-8.857674003E-1,-8.410263062E-1
2.036010742E0,1.108407617E0,-1.127582431E0,-8.372978568E-1
2.037994384E0,1.094026566E0,-1.195759296E0,-7.984157205E-1
2.039978027E0,1.066329718E0,-1.223456264E0,-7.957525253E-1
2.041992187E0,1.128115058E0,-1.180312991E0,-8.064051867E-1
2.043975830E0,1.168595076E0,-1.130245566E0,-8.138620257E-1
2.045959472E0,1.257012010E0,-1.098820329E0,-7.845672965E-1
2.047943115E0,1.301220536E0,-1.169660330E0,-7.147924304E-1
2.049926757E0,1.300155282E0,-1.260740519E0,-6.215817928E-1
2.051940918E0,1.350755334E0,-1.142496109E0,-5.411543250E-1
2.053924560E0,1.352353215E0,-1.041828632E0,-5.001416802E-1
2.055938720E0,1.347559571E0,-9.145295620E-1,-4.426173866E-1
2.057922363E0,1.328917384E0,-7.930893898E-1,-3.877562582E-1
2.059906005E0,1.387506962E0,-6.013417840E-1,-3.302319944E-1
2.061920166E0,1.391767979E0,-4.649879336E-1,-2.577939928E-1
2.063903808E0,1.337439537E0,-5.022721887E-1,-1.544633508E-1
2.065917968E0,1.262338400E0,-5.576659441E-1,-4.207794741E-2
2.067901611E0,1.202683568E0,-5.704491138E-1,6.018744037E-2
2.069915771E0,1.172323585E0,-5.874933600E-1,1.491370201E-1
2.071899414E0,1.186172009E0,-5.949501991E-1,2.300971150E-1
2.073913574E0,1.194694042E0,-5.970807076E-1,2.998719513E-1
2.075927734E0,1.237837315E0,-6.593986750E-1,3.771036267E-1
2.077880859E0,1.239435196E0,-7.776430249E-1,4.655205607E-1
2.079895019E0,1.236239433E0,-8.719189763E-1,5.331648588E-1
2.081878662E0,1.286306858E0,-9.076052904E-1,5.709817410E-1
2.083892822E0,1.370995402E0,-8.910937309E-1,5.779059529E-1
2.085876464E0,1.472728133E0,-8.767126203E-1,5.858954787E-1
2.087890625E0,1.586178780E0,-9.044095278E-1,6.109291911E-1
2.089874267E0,1.687911510E0,-9.496832490E-1,6.487460732E-1
2.091888427E0,1.752892613E0,-1.026382327E0,6.876282096E-1
2.093872070E0,1.770469546E0,-1.157409787E0,7.105314136E-1
2.095916748E0,1.752359986E0,-1.319862604E0,7.254450917E-1
2.097869873E0,1.739044189E0,-1.464205980E0,7.201187611E-1
2.099853515E0,1.736381054E0,-1.592570305E0,7.115966678E-1
2.101837158E0,1.749164224E0,-1.697498918E0,7.062703371E-1
2.103820800E0,1.790176868E0,-1.796035886E0,6.828345060E-1
2.105834960E0,1.839179039E0,-1.896703362E0,6.487460732E-1
2.107818603E0,1.895105481E0,-1.971271873E0,6.098638773E-1
2.109832763E0,1.937716007E0,-2.014947653E0,5.763080716E-1
2.111816406E0,1.975000262E0,-2.031991959E0,5.518069863E-1
2.113830566E0,1.994175076E0,-2.035720348E0,5.267732739E-1
2.115844726E0,1.998968720E0,-2.010686636E0,5.081311464E-1
2.117828369E0,1.990979314E0,-1.943042397E0,4.980111420E-1
2.119812011E0,1.975000262E0,-1.817341208E0,4.916195571E-1
2.121826171E0,1.933454990E0,-1.675128341E0,4.862932265E-1
2.123809814E0,1.889779091E0,-1.512675524E0,4.894890189E-1
2.125793457E0,1.842907548E0,-1.356081605E0,4.884237647E-1
2.127777099E0,1.783785343E0,-1.195759296E0,4.942827225E-1
2.129760742E0,1.719869494E0,-1.039698124E0,5.065332651E-1
2.131774902E0,1.660747290E0,-8.985505700E-1,5.177185535E-1
2.133758544E0,1.601625085E0,-7.568703890E-1,5.273059011E-1
2.135772705E0,1.551557660E0,-6.279733777E-1,5.294364095E-1
2.137786865E0,1.503088117E0,-5.134574771E-1,5.336974859E-1
2.139770507E0,1.455151200E0,-4.340952635E-1,5.422195792E-1
2.141784668E0,1.418399572E0,-3.771036267E-1,5.432848930E-1
2.143768310E0,1.385909081E0,-3.360909224E-1,5.374259353E-1
2.145782470E0,1.366201639E0,-2.790992856E-1,5.411543250E-1
2.147766113E0,1.356081605E0,-2.306297570E-1,5.677859783E-1
2.149780273E0,1.352885842E0,-2.034655064E-1,6.024070382E-1
2.151763916E0,1.345429063E0,-1.826928556E-1,6.407565475E-1
2.153778076E0,1.340102673E0,-1.539307088E-1,6.860303283E-1
2.155792236E0,1.334776402E0,-1.331580579E-1,7.318366766E-1
2.157745361E0,1.333178520E0,-1.230380461E-1,7.760451436E-1
2.159729003E0,1.343298435E0,-1.166464612E-1,8.181231022E-1
2.161712646E0,1.366734266E0,-1.246359423E-1,8.591358066E-1
2.163726806E0,1.399224877E0,-1.336906850E-1,9.012137055E-1
2.165710449E0,1.437574387E0,-1.523328125E-1,9.464874864E-1
2.167724609E0,1.488174438E0,-1.976065636E-1,9.805759192E-1
2.169708251E0,1.543035507E0,-2.663161159E-1,1.007207513E0
2.171722412E0,1.605353594E0,-3.573962152E-1,1.018925428E0
2.173706054E0,1.690574646E0,-4.708468914E-1,1.013066530E0
2.175750732E0,1.785915852E0,-6.093312502E-1,9.949570298E-1
2.177703857E0,1.897235990E0,-7.728493810E-1,9.592706561E-1
2.179718017E0,2.010686636E0,-9.917612076E-1,9.108011127E-1
2.181701660E0,2.125202656E0,-1.277784705E0,8.378304839E-1
2.183685302E0,2.238120556E0,-1.598429322E0,7.691209316E-1
2.185668945E0,2.375539780E0,-1.944640279E0,6.796387434E-1
2.187652587E0,2.520948410E0,-2.304699659E0,5.917543769E-1
2.189666748E0,2.673813820E0,-2.661563158E0,5.006743073E-1
2.191650390E0,2.827211857E0,-3.006176233E0,4.149205089E-1
2.193664550E0,2.981142521E0,-3.335343122E0,3.254382908E-1
2.195678710E0,3.116431236E0,-3.642671824E0,2.375539690E-1
2.197662353E0,3.248523951E0,-3.900998354E0,1.512675583E-1
2.199645996E0,3.360376835E0,-4.104996681E0,6.125270575E-2
2.201660156E0,3.451456785E0,-4.261057854E0,-1.331580617E-2
2.203643798E0,3.517503262E0,-4.367584229E0,-6.711166352E-2
2.205657959E0,3.570233822E0,-4.386226177E0,-1.368864775E-1
2.207641601E0,3.601659060E0,-4.323375702E0,-2.013349831E-1
2.209655761E0,3.611779213E0,-4.241883278E0,-2.604571581E-1
2.211608886E0,3.603256941E0,-4.099137783E0,-3.302319944E-1
2.213592529E0,3.547863245E0,-3.816842556E0,-4.111920893E-1
2.215606689E0,3.439206362E0,-3.471164227E0,-4.506068528E-1
2.217590332E0,3.304982901E0,-3.112702847E0,-4.681837261E-1
2.219573974E0,3.157976389E0,-2.742523432E0,-4.772384763E-1
2.221588134E0,2.987534285E0,-2.368615627E0,-4.671184719E-1
2.223571777E0,2.815494061E0,-2.011219263E0,-4.388889670E-1
2.225585937E0,2.625876904E0,-1.677791476E0,-4.037352204E-1
2.227569580E0,2.411226034E0,-1.373658538E0,-3.957457542E-1
2.229583740E0,2.221609116E0,-1.115864515E0,-4.340952635E-1
2.231567382E0,2.074069977E0,-7.952198982E-1,-4.511395097E-1
2.233581543E0,1.973935008E0,-5.044026971E-1,-4.069310129E-1
2.235595703E0,1.902562261E0,-2.961435318E-1,-3.227751255E-1
2.237548828E0,1.838646412E0,-1.731054783E-1,-2.029328793E-1
2.239562988E0,1.781122208E0,-8.628641814E-2,-7.456851006E-2
2.241577148E0,1.716673613E0,-7.456851192E-3,4.687163606E-2
2.243530273E0,1.645833611E0,6.338323653E-2,1.533980817E-1
2.245513916E0,1.580319762E0,1.230380461E-1,2.370213419E-1
2.247528076E0,1.531850338E0,1.581917703E-1,3.025351167E-1
2.249511718E0,1.507881880E0,1.832254827E-1,3.494067490E-1
2.251525878E0,1.503088117E0,2.125202566E-1,3.802994192E-1
2.253509521E0,1.516403913E0,2.418150306E-1,4.037352204E-1
2.255554199E0,1.548361897E0,2.609897852E-1,4.122573435E-1
2.257507324E0,1.564873457E0,2.684466541E-1,4.181163013E-1
2.259521484E0,1.608016729E0,2.700445354E-1,4.234426320E-1
2.261505126E0,1.658084154E0,2.743056118E-1,4.250405133E-1
2.263488769E0,1.720402122E0,2.727077007E-1,4.261057973E-1
2.265472412E0,1.788578987E0,2.636529505E-1,4.250405133E-1
2.267456054E0,1.861549616E0,2.466087192E-1,4.149205089E-1
2.269470214E0,1.935585499E0,1.970739216E-1,3.978762627E-1
2.271453857E0,2.015480280E0,9.587380290E-2,3.701793849E-1
2.273468017E0,2.100701571E0,-6.924218684E-2,3.376888335E-1
2.275482177E0,2.192846775E0,-2.966761589E-1,2.972087860E-1
2.277465820E0,2.300971270E0,-5.869607329E-1,2.572613657E-1
2.279449462E0,2.423476696E0,-9.044095278E-1,2.274339646E-1
2.281463623E0,2.560895681E0,-1.233576298E0,2.151834220E-1
2.283447265E0,2.701510668E0,-1.564873457E0,2.071939409E-1
2.285430908E0,2.848517179E0,-1.881789684E0,2.008023560E-1
2.287414550E0,2.984870911E0,-2.180596352E0,2.135855258E-1
2.289398193E0,3.102582693E0,-2.458097696E0,2.258360684E-1
2.291412353E0,3.207511187E0,-2.704173803E0,2.482066154E-1
2.293395996E0,3.290069342E0,-2.924683571E0,2.657834888E-1
2.295410156E0,3.353985071E0,-3.091930151E0,2.918824553E-1
2.297393798E0,3.404052496E0,-3.237338781E0,3.270362020E-1
2.299377441E0,3.420564175E0,-3.330549240E0,3.808320463E-1
2.301391601E0,3.424825191E0,-3.356115580E0,4.420847595E-1
2.303375244E0,3.393932581E0,-3.318298817E0,5.081311464E-1
2.305389404E0,3.352919817E0,-3.242665052E0,5.949501991E-1
2.307373046E0,3.295395613E0,-3.120692253E0,7.046724558E-1
2.309387207E0,3.221359730E0,-2.997121572E0,8.223841786E-1
2.311370849E0,3.131344795E0,-2.891660452E0,9.331716895E-1
2.313385009E0,3.039199591E0,-2.823483467E0,1.042361259E0
2.315399169E0,2.931607723E0,-2.766491890E0,1.139832973E0
2.317352294E0,2.825613976E0,-2.713761091E0,1.225586772E0
2.319366455E0,2.720152855E0,-2.633866310E0,1.319862604E0
2.321350097E0,2.591255903E0,-2.577407360E0,1.413605928E0
2.330688476E0,1.832254887E0,-1.952097058E0,2.006958246E0
2.332672119E0,1.824265361E0,-1.084439158E0,1.953695059E0
2.334686279E0,1.783252716E0,-2.599245310E-1,1.812547445E0
2.336669921E0,1.696966290E0,2.716424465E-1,1.590972424E0
2.338684082E0,1.552090287E0,4.713795185E-1,1.323591113E0
2.340667724E0,1.366734266E0,4.048005044E-1,1.056742311E0
2.342681884E0,1.189900398E0,2.450108230E-1,8.255799413E-1
2.344665527E0,1.045557022E0,1.091896072E-1,6.205165386E-1
2.346649169E0,9.571400881E-1,5.326322466E-2,4.628573954E-1
2.348663330E0,9.171926975E-1,6.498113275E-2,3.462109566E-1
2.350646972E0,9.012137055E-1,1.059938148E-1,2.535329461E-1
2.352661132E0,9.017463326E-1,1.390170157E-1,1.954760253E-1
2.354644775E0,9.017463326E-1,1.352885813E-1,1.645833552E-1
2.356658935E0,9.076052904E-1,9.747169912E-2,1.454086006E-1
2.358642578E0,9.038769007E-1,3.515372798E-2,1.384843737E-1
2.360656738E0,8.985505700E-1,-3.888215125E-2,1.358212233E-1
2.362670898E0,8.921589851E-1,-1.043959185E-1,1.331580579E-1
2.364624023E0,8.788431883E-1,-1.502022892E-1,1.486043930E-1
2.366607666E0,8.660600185E-1,-1.683117896E-1,1.661812514E-1
2.368591308E0,8.495483994E-1,-1.651159972E-1,1.944107562E-1
2.370605468E0,8.362326026E-1,-1.310275346E-1,2.274339646E-1
2.372589111E0,8.202536106E-1,-7.137271762E-2,2.545982003E-1
2.374603271E0,7.978830934E-1,1.171790902E-2,2.844256163E-1
2.376586914E0,7.675230503E-1,1.139832959E-1,2.945456207E-1
2.378601074E0,7.249124646E-1,2.396845073E-1,2.929477394E-1
2.380584716E0,6.796387434E-1,3.760383427E-1,2.838929892E-1
2.382598876E0,6.285060048E-1,5.225121975E-1,2.673813701E-1
2.384582519E0,5.720469952E-1,6.631271243E-1,2.583266199E-1
2.386566162E0,5.278385282E-1,7.973504663E-1,2.455434501E-1
2.388580322E0,4.729774296E-1,9.262474179E-1,2.450108230E-1
2.390563964E0,4.250405133E-1,1.059938192E0,2.487392575E-1
2.392578125E0,3.765709996E-1,1.195226669E0,2.567287385E-1
2.394561767E0,3.371562064E-1,1.342765808E0,2.641855776E-1
2.396575927E0,2.902845740E-1,1.502022862E0,2.689792812E-1
2.398559570E0,2.641855776E-1,1.588841915E0,2.764361203E-1
2.400573730E0,2.157160491E-1,1.776328444E0,2.854908705E-1
2.402587890E0,1.198422536E-1,2.044242382E0,3.067961633E-1
2.404541015E0,8.841694891E-2,2.129996300E0,3.105245829E-1
2.406555175E0,6.924218964E-3,2.284459591E0,3.105245829E-1
2.408538818E0,-7.936219871E-2,2.397910357E0,2.993393242E-1
2.410552978E0,-1.720402092E-1,2.455967188E0,2.764361203E-1
2.412536621E0,-2.716424465E-1,2.451173544E0,2.279665917E-1
2.414550781E0,-3.707120419E-1,2.388855457E0,1.560612470E-1
2.416534423E0,-4.591289759E-1,2.274872303E0,7.243798673E-2
2.418548584E0,-5.331648588E-1,2.125202656E0,-2.556634694E-2
2.420532226E0,-5.912217498E-1,1.952629805E0,-1.310275346E-1
2.422576904E0,-6.375607848E-1,1.767806411E0,-2.300971150E-1
2.424530029E0,-6.833671331E-1,1.578189254E0,-3.254382908E-1
2.426513671E0,-7.297061682E-1,1.393365860E0,-4.197141826E-1
2.428497314E0,-7.739146352E-1,1.227184653E0,-4.958806038E-1
2.430480957E0,-8.325041533E-1,1.097222447E0,-5.624596477E-1
2.432495117E0,-8.958874345E-1,1.021588564E0,-6.093312502E-1
2.434478759E0,-9.651296139E-1,1.002946496E0,-6.418218613E-1
2.436492919E0,-1.040763378E0,1.025317073E0,-6.620618701E-1
2.438476562E0,-1.113201380E0,1.081243396E0,-6.769755483E-1
2.440490722E0,-1.186704636E0,1.152616143E0,-6.908239722E-1
2.442504882E0,-1.256479383E0,1.243696213E0,-6.972155571E-1
2.444458007E0,-1.319329977E0,1.342765808E0,-6.993461251E-1
2.446441650E0,-1.382180691E0,1.438639641E0,-6.892260909E-1
2.448425293E0,-1.444498658E0,1.545166135E0,-6.663229465E-1
2.450439453E0,-1.512675524E0,1.663943052E0,-6.402239203E-1
2.452423095E0,-1.582450390E0,1.807221174E0,-6.045376062E-1
2.454437255E0,-1.657018900E0,1.986185551E0,-5.704491138E-1
2.456420898E0,-1.727858901E0,2.196575403E0,-5.331648588E-1
2.458435058E0,-1.800829530E0,2.411758661E0,-4.932174385E-1
2.460418701E0,-1.869539142E0,2.649312735E0,-4.559331834E-1
2.462432861E0,-1.938248634E0,2.894323587E0,-4.223773479E-1
2.464447021E0,-2.002697229E0,3.138269186E0,-3.850930929E-1
2.466430664E0,-2.061819315E0,3.369431496E0,-3.510046303E-1
2.468444824E0,-2.126800537E0,3.576625347E0,-3.222424984E-1
2.470428466E0,-2.193379402E0,3.758253098E0,-2.966761589E-1
2.472442626E0,-2.250371218E0,3.916444778E0,-2.790992856E-1
2.474426269E0,-2.304699659E0,4.063451290E0,-2.663161159E-1
2.476440429E0,-2.355299711E0,4.203533649E0,-2.732403278E-1
2.478424072E0,-2.401106119E0,4.342550755E0,-2.844256163E-1
2.480438232E0,-2.446912527E0,4.475175858E0,-3.067961633E-1
2.482452392E0,-2.490055561E0,4.606203556E0,-3.312972486E-1
2.484405517E0,-2.548645258E0,4.724447727E0,-3.717772961E-1
2.486419677E0,-2.623213768E0,4.832039356E0,-4.085289240E-1
2.488403320E0,-2.702043295E0,4.935370445E0,-4.538026452E-1
2.490417480E0,-2.798449755E0,5.033907413E0,-5.049353242E-1
2.492401123E0,-2.907639265E0,5.136172771E0,-5.624596477E-1
2.494415283E0,-3.024818420E0,5.227785110E0,-6.237123609E-1
2.496398925E0,-3.138269186E0,5.285842419E0,-7.078682184E-1
2.498413085E0,-3.242665052E0,5.294897079E0,-8.064051867E-1
2.500396728E0,-3.317766190E0,5.249090672E0,-9.166600704E-1
2.502441406E0,-3.367300987E0,5.163869381E0,-1.035437107E0
2.504394531E0,-3.376355648E0,5.048820972E0,-1.160605669E0
2.506378173E0,-3.365703106E0,4.906608105E0,-1.273523688E0
2.508361816E0,-3.316168308E0,4.736166000E0,-1.373658538E0
2.510345459E0,-3.245328188E0,4.542287827E0,-1.463140726E0
2.512359619E0,-3.161172390E0,4.340952873E0,-1.523328185E0
2.514343261E0,-3.059972048E0,4.134291172E0,-1.570199847E0
2.516357421E0,-2.944923639E0,3.925499439E0,-1.600559831E0
2.518341064E0,-2.842125654E0,3.730023384E0,-1.624528289E0
2.520355224E0,-2.738262177E0,3.542536974E0,-1.628256679E0
2.522369384E0,-2.632268429E0,3.381681919E0,-1.618669391E0
2.524353027E0,-2.530003071E0,3.263970375E0,-1.595766187E0
2.526336669E0,-2.449575663E0,3.172357559E0,-1.569667220E0
2.528350830E0,-2.374474525E0,3.114833355E0,-1.537176609E0
2.530334472E0,-2.298840761E0,3.085005760E0,-1.496696591E0
2.532318115E0,-2.261556387E0,3.073820591E0,-1.445031285E0
2.534301757E0,-2.208825827E0,3.067961693E0,-1.391235352E0
2.536285400E0,-2.174737453E0,3.072222710E0,-1.331047893E0
2.538299560E0,-2.151834249E0,3.091397524E0,-1.254348874E0
2.540283203E0,-2.134257317E0,3.118029118E0,-1.170192957E0
2.542297363E0,-2.121474266E0,3.143595457E0,-1.096157074E0
2.544281005E0,-2.102832079E0,3.184075356E0,-1.024784446E0
2.546264648E0,-2.099636316E0,3.231479645E0,-9.619337916E-1
2.548278808E0,-2.101766825E0,3.269829273E0,-9.076052904E-1
2.550262451E0,-2.120409012E0,3.318831444E0,-8.617989421E-1
2.552276611E0,-2.149171114E0,3.380616665E0,-8.245146871E-1
2.554260253E0,-2.185922623E0,3.446663141E0,-7.914915085E-1
2.556274414E0,-2.229065895E0,3.535612822E0,-7.637946010E-1
2.558258056E0,-2.289253235E0,3.634682417E0,-7.520766854E-1
2.560272216E0,-2.357430220E0,3.732154131E0,-7.542072535E-1
2.562286376E0,-2.422411442E0,3.815244675E0,-7.621967196E-1
2.564239501E0,-2.489522934E0,3.891411066E0,-7.755125165E-1
2.566253662E0,-2.558232546E0,3.943608999E0,-7.946872711E-1
2.568237304E0,-2.630670547E0,3.991013288E0,-8.133293986E-1
2.570220947E0,-2.702575922E0,4.021905899E0,-8.341020942E-1
2.572204589E0,-2.765959263E0,4.054396629E0,-8.580704927E-1
2.574218750E0,-2.821352959E0,4.082625866E0,-8.894958496E-1
2.576202392E0,-2.882605553E0,4.086354256E0,-9.454222322E-1
2.578216552E0,-2.936401367E0,4.037884712E0,-1.022121191E0
2.580200195E0,-2.982207775E0,3.948402643E0,-1.110538244E0
2.582244873E0,-3.009371996E0,3.813114166E0,-1.212803602E0
2.584197998E0,-3.009904623E0,3.632551908E0,-1.318264723E0
2.586212158E0,-2.988599539E0,3.424292564E0,-1.424791217E0
2.588195800E0,-2.942793131E0,3.188336611E0,-1.518534541E0
2.590179443E0,-2.884203434E0,2.929477215E0,-1.598429322E0
2.592163085E0,-2.811765432E0,2.659432650E0,-1.662877798E0
2.594146728E0,-2.727609634E0,2.390453339E0,-1.709216833E0
2.596160888E0,-2.624279022E0,2.128931046E0,-1.735848427E0
2.598144531E0,-2.522546291E0,1.892974973E0,-1.751294732E0
2.600158691E0,-2.413889170E0,1.679922104E0,-1.761947393E0
2.602172851E0,-2.308428049E0,1.502555490E0,-1.763545275E0
2.604156494E0,-2.200836420E0,1.346494317E0,-1.756088495E0
2.606140136E0,-2.103364706E0,1.207477212E0,-1.738511562E0
2.608154296E0,-2.020273924E0,1.091896057E0,-1.720402122E0
2.610137939E0,-1.947303414E0,1.000283360E0,-1.696966290E0
2.612121582E0,-1.880724430E0,9.358348250E-1,-1.677258849E0
2.614105224E0,-1.817873836E0,8.793758154E-1,-1.652757764E0
2.616088867E0,-1.770469546E0,8.314388990E-1,-1.623463035E0
2.618103027E0,-1.728924155E0,7.866978049E-1,-1.597896695E0
2.620086669E0,-1.700694680E0,7.456851006E-1,-1.565406084E0
2.622100830E0,-1.669802070E0,7.259777188E-1,-1.541437626E0
2.624084472E0,-1.639974594E0,7.147924304E-1,-1.513208151E0
2.626068115E0,-1.615473509E0,7.020092607E-1,-1.483913422E0
2.628082275E0,-1.582983017E0,6.956176758E-1,-1.446096539E0
2.630065918E0,-1.551557660E0,6.854977012E-1,-1.406149030E0
2.632080078E0,-1.519067168E0,6.689860821E-1,-1.363005877E0
2.634063720E0,-1.483913422E0,6.588660479E-1,-1.314003706E0
2.636077880E0,-1.440770149E0,6.535397172E-1,-1.267132044E0
2.638061523E0,-1.394431114E0,6.503439546E-1,-1.221858382E0
2.640075683E0,-1.345429063E0,6.407565475E-1,-1.179780364E0
2.642089843E0,-1.299090028E0,6.466155052E-1,-1.141963482E0
2.644042968E0,-1.247957349E0,6.423544884E-1,-1.107874990E0
2.646057128E0,-1.194694042E0,6.418218613E-1,-1.086037159E0
2.648101806E0,-1.145691872E0,6.332997084E-1,-1.066862345E0
2.650024414E0,-1.096157074E0,6.269081235E-1,-1.055144429E0
2.652008056E0,-1.047687650E0,6.189186573E-1,-1.046089649E0
2.653991699E0,-1.001348615E0,6.114618182E-1,-1.034904361E0
2.655975341E0,-9.592706561E-1,6.024070382E-1,-1.031175971E0
2.657989501E0,-9.251821637E-1,5.912217498E-1,-1.031175971E0
2.659973144E0,-9.006810784E-1,5.720469952E-1,-1.038632870E0
2.662017822E0,-8.921589851E-1,5.523396134E-1,-1.055677056E0
2.663970947E0,-8.932242393E-1,5.251753926E-1,-1.084439158E0
2.665985107E0,-9.060074091E-1,4.996090233E-1,-1.120125532E0
2.667968750E0,-9.262474179E-1,4.772384763E-1,-1.161670923E0
2.669952392E0,-9.560748339E-1,4.617921412E-1,-1.202683568E0
2.671936035E0,-9.890980721E-1,4.506068528E-1,-1.241565704E0
2.673919677E0,-1.029578090E0,4.516721368E-1,-1.276186824E0
2.675933837E0,-1.071123362E0,4.601942301E-1,-1.313471079E0
2.677917480E0,-1.113734007E0,4.756405652E-1,-1.333178520E0
2.679931640E0,-1.154746652E0,4.990763962E-1,-1.349157453E0
2.681945800E0,-1.204814076E0,5.187838078E-1,-1.356614232E0
2.683929443E0,-1.252218366E0,5.459480286E-1,-1.363538504E0
2.685913085E0,-1.304416299E0,5.672533512E-1,-1.367266893E0
2.687927246E0,-1.352885842E0,5.864281058E-1,-1.365136385E0
2.689910888E0,-1.399757504E0,6.135923266E-1,-1.356081605E0
2.691894531E0,-1.440770149E0,6.338323355E-1,-1.344363689E0
2.693878173E0,-1.473260760E0,6.492787004E-1,-1.317199469E0
2.695861816E0,-1.500957608E0,6.652576327E-1,-1.280447841E0
2.697875976E0,-1.523328185E0,6.940197945E-1,-1.238369942E0
2.699859619E0,-1.538241863E0,7.323693037E-1,-1.188302517E0
2.701904296E0,-1.536111355E0,7.717841268E-1,-1.137169838E0
2.703857421E0,-1.524926066E0,8.202536106E-1,-1.087102413E0
2.705841064E0,-1.506283998E0,8.596684337E-1,-1.022653818E0
2.707824707E0,-1.473793387E0,8.958874345E-1,-9.661948681E-1
2.709808349E0,-1.432780743E0,9.262474179E-1,-9.060074091E-1
2.711822509E0,-1.383778572E0,9.480853677E-1,-8.452873230E-1
2.713806152E0,-1.318264723E0,9.661948681E-1,-7.845672965E-1
2.715820312E0,-1.243163586E0,9.709885716E-1,-7.233145833E-1
2.717803955E0,-1.159007788E0,9.640643597E-1,-6.620618701E-1
2.719818115E0,-1.067394972E0,9.496832490E-1,-5.960154533E-1
2.721832275E0,-9.587380290E-1,9.342369437E-1,-5.299690962E-1
2.723815918E0,-8.452873230E-1,9.139968753E-1,-4.665858448E-1
2.725799560E0,-7.329019308E-1,8.857674003E-1,-4.069310129E-1
2.727783203E0,-6.237123609E-1,8.479505181E-1,-3.472762108E-1
2.729766845E0,-5.123922229E-1,8.021441102E-1,-2.988066673E-1
2.731750488E0,-4.016047120E-1,7.158577442E-1,-2.327602804E-1
2.733764648E0,-3.020024598E-1,6.002765298E-1,-1.390170157E-1
2.735748291E0,-2.045307755E-1,5.235774517E-1,-7.669904083E-2
2.737762451E0,-1.102548689E-1,4.740426838E-1,-5.113269389E-2
2.739746093E0,-2.556634694E-2,4.495415986E-1,-7.190535218E-2
2.741790771E0,3.195793182E-2,4.266384244E-1,-1.262338310E-1
2.743743896E0,5.379585549E-2,4.037352204E-1,-2.050634027E-1
2.745758056E0,4.953479767E-2,3.888215125E-1,-2.998719513E-1
2.747741699E0,1.278317347E-2,3.781688809E-1,-3.984089196E-1
2.749725341E0,-3.941478580E-2,3.856257200E-1,-4.974785149E-1
2.751708984E0,-1.086569726E-1,4.095941782E-1,-5.858954787E-1
2.753692626E0,-1.949433982E-1,4.575310946E-1,-6.679208279E-1
2.755706787E0,-2.849582434E-1,5.283711553E-1,-7.446198463E-1
2.757690429E0,-3.808320463E-1,6.226470470E-1,-8.143946528E-1
2.759704589E0,-4.830974340E-1,7.270429730E-1,-8.713863492E-1
2.761718750E0,-5.928196907E-1,8.367652297E-1,-9.171926975E-1
2.763702392E0,-6.412891746E-1,8.905611038E-1,-9.326390028E-1
2.765686035E0,-7.499461770E-1,9.938917160E-1,-9.619337916E-1
2.767700195E0,-8.596684337E-1,1.093493938E0,-9.752495885E-1
2.769683837E0,-9.672601223E-1,1.192563534E0,-9.805759192E-1
2.771667480E0,-1.070058107E0,1.291633129E0,-9.768475294E-1
2.773651123E0,-1.176051974E0,1.386441708E0,-9.603359103E-1
2.775634765E0,-1.271393180E0,1.480717540E0,-9.326390028E-1
2.777648925E0,-1.368332148E0,1.568601966E0,-8.958874345E-1
2.779632568E0,-1.451955438E0,1.659682035E0,-8.506136537E-1
2.781646728E0,-1.519067168E0,1.735315800E0,-8.127967715E-1
2.783630371E0,-1.569134593E0,1.749164224E0,-7.685883045E-1
2.785614013E0,-1.610147238E0,1.686313629E0,-7.089334726E-1
2.787628173E0,-1.634648323E0,1.612277746E0,-6.332997084E-1
2.789611816E0,-1.639974594E0,1.559547186E0,-5.459480286E-1
2.791625976E0,-1.629321933E0,1.510012388E0,-4.580637217E-1
2.793609619E0,-1.610147238E0,1.475391269E0,-3.733751774E-1
2.795623779E0,-1.572330356E0,1.474858642E0,-2.982740402E-1
2.797607421E0,-1.507881880E0,1.511610270E0,-2.269013226E-1
2.799621582E0,-1.440770149E0,1.530784965E0,-1.533980817E-1
2.801635742E0,-1.357679605E0,1.544100881E0,-9.267801046E-2
2.803588867E0,-1.267664671E0,1.528121829E0,-4.207794741E-2
2.805603027E0,-1.173921466E0,1.503088117E0,6.391586736E-3
2.807586669E0,-1.121723413E0,1.442900658E0,6.018744037E-2
2.809600830E0,-1.018392801E0,1.342765808E0,9.906959534E-2
2.811584472E0,-9.518138170E-1,1.213336229E0,1.486043930E-1
2.813598632E0,-8.820389509E-1,1.094559193E0,1.896170676E-1
2.815582275E0,-8.261125684E-1,9.592706561E-1,2.327602804E-1
2.817596435E0,-7.776430249E-1,8.394283652E-1,2.679139972E-1
2.819580078E0,-7.456851006E-1,7.398261428E-1,2.940129936E-1
2.821624755E0,-7.099987864E-1,6.775081754E-1,3.073287904E-1
2.823577880E0,-6.844323874E-1,6.290386319E-1,3.105245829E-1
2.825561523E0,-6.860303283E-1,5.965480804E-1,3.099919558E-1
2.827575683E0,-6.743124127E-1,5.933523178E-1,2.918824553E-1
2.829559326E0,-6.759102941E-1,6.125270724E-1,2.652508616E-1
2.831573486E0,-6.966829300E-1,6.396912932E-1,2.237055302E-1
2.833557128E0,-7.179882526E-1,6.897587180E-1,1.608549356E-1
2.835571289E0,-7.499461770E-1,7.712514400E-1,6.924218684E-2
2.837554931E0,-7.781757116E-1,8.207862377E-1,-5.166532472E-2
2.839569091E0,-8.106662631E-1,8.676578999E-1,-1.789644361E-1
2.841583251E0,-8.431568146E-1,9.134642482E-1,-2.998719513E-1
2.843536376E0,-8.948221207E-1,1.004544377E0,-4.394215941E-1
2.845520019E0,-9.507485032E-1,1.105211854E0,-5.811017752E-1
2.847503662E0,-9.922938347E-1,1.222391009E0,-7.153250575E-1
2.849517822E0,-1.053546548E0,1.346494317E0,-8.341020942E-1
2.851501464E0,-1.120125532E0,1.480717540E0,-9.464874864E-1
2.853515625E0,-1.224521518E0,1.643703103E0,-1.079645514E0
2.855499267E0,-1.282578349E0,1.711879969E0,-1.161138296E0
2.857513427E0,-1.352885842E0,1.814677954E0,-1.219195127E0
2.859497070E0,-1.427986979E0,1.936650753E0,-1.268197298E0
2.861511230E0,-1.507881880E0,2.052232027E0,-1.314003706E0
2.863494873E0,-1.568069220E0,2.117213011E0,-1.338504791E0
2.865478515E0,-1.626126170E0,2.182726860E0,-1.343298435E0
2.867492675E0,-1.680987358E0,2.223739624E0,-1.325721622E0
2.869476318E0,-1.732120037E0,2.261556387E0,-1.286839485E0
2.871490478E0,-1.774197936E0,2.295112371E0,-1.225586772E0
2.873474121E0,-1.822667480E0,2.318015575E0,-1.152083516E0
2.875488281E0,-1.876995921E0,2.337722778E0,-1.064731836E0
2.877471923E0,-1.938248634E0,2.349973440E0,-9.800432920E-1
2.879455566E0,-2.004295111E0,2.346777678E0,-8.990831971E-1
2.881500244E0,-2.056493044E0,2.329733372E0,-8.218515515E-1
2.883453369E0,-2.090048790E0,2.303634405E0,-7.499461770E-1
2.885467529E0,-2.099636316E0,2.243446827E0,-6.892260909E-1
2.887451171E0,-2.089516163E0,2.154497385E0,-6.237123609E-1
2.889465332E0,-2.053297281E0,2.045307636E0,-5.651227832E-1
2.891448974E0,-2.000034094E0,1.904160261E0,-5.102616549E-1
2.893463134E0,-1.935052872E0,1.769936919E0,-4.585963488E-1
2.895446777E0,-1.845570683E0,1.615473509E0,-4.186489284E-1
2.897460937E0,-1.749696851E0,1.454085946E0,-3.744404614E-1
2.899444580E0,-1.624528289E0,1.316666842E0,-3.494067490E-1
2.901458740E0,-1.492968082E0,1.208542466E0,-3.382214606E-1
2.903442382E0,-1.356081605E0,1.087102413E0,-3.238403797E-1
2.905426025E0,-1.220793009E0,9.587380290E-1,-3.121224940E-1
2.907440185E0,-1.089765549E0,8.218515515E-1,-3.020024598E-1
2.909423828E0,-9.688580036E-1,6.844323874E-1,-2.780340314E-1
2.911437988E0,-8.586031795E-1,5.512743592E-1,-2.599245310E-1
2.913421630E0,-7.584682703E-1,4.277036786E-1,-2.380866110E-1
2.915435791E0,-6.732471585E-1,3.169161677E-1,-2.098570913E-1
2.917419433E0,-5.992112756E-1,2.380866110E-1,-1.853560209E-1
2.919433593E0,-5.411543250E-1,1.794970632E-1,-1.672465205E-1
2.921447753E0,-4.926848114E-1,1.432780623E-1,-1.592570394E-1
2.923400878E0,-4.580637217E-1,1.225054115E-1,-1.475391239E-1
2.925384521E0,-4.410194755E-1,1.379517466E-1,-1.422128081E-1
2.927368164E0,-4.420847595E-1,1.800296903E-1,-1.560612470E-1
2.929382324E0,-4.452805519E-1,2.354234457E-1,-1.747033745E-1
2.931365966E0,-4.628573954E-1,3.067961633E-1,-2.082591951E-1
2.933380126E0,-4.932174385E-1,3.765709996E-1,-2.498045117E-1
2.935363769E0,-5.251753926E-1,4.575310946E-1,-2.950782478E-1
2.937377929E0,-5.576659441E-1,5.715143681E-1,-3.446130455E-1
2.939361572E0,-5.896238685E-1,7.201187611E-1,-3.941478431E-1
2.941375732E0,-6.301039457E-1,8.649947643E-1,-4.388889670E-1
2.943359375E0,-6.689860821E-1,1.008272767E0,-4.745753109E-1
2.945343017E0,-7.185208797E-1,1.128115058E0,-4.980111420E-1
2.947357177E0,-7.669904232E-1,1.228249907E0,-5.038700700E-1
2.949340820E0,-8.175904751E-1,1.378984809E0,-5.155879855E-1
2.951354980E0,-8.713863492E-1,1.540904999E0,-5.145227313E-1
2.953338623E0,-9.305084944E-1,1.724130511E0,-4.905542731E-1
2.955322265E0,-9.986854196E-1,1.918008685E0,-4.660531878E-1
2.957305908E0,-1.075917125E0,2.104429960E0,-4.266384244E-1
2.959289550E0,-1.162736177E0,2.302036524E0,-3.728425503E-1
2.961334228E0,-1.258077264E0,2.522546291E0,-3.323625028E-1
2.963287353E0,-1.363005877E0,2.721750736E0,-2.961435318E-1
2.965301513E0,-1.473260760E0,2.885801315E0,-2.631203234E-1
2.967285156E0,-1.585113525E0,3.022155285E0,-2.332929224E-1
2.969299316E0,-1.700162053E0,3.110039473E0,-2.178465873E-1
2.971282959E0,-1.812014818E0,3.165433407E0,-2.103897333E-1
2.973297119E0,-1.921204448E0,3.219229221E0,-1.821602285E-1
2.975280761E0,-2.029328823E0,3.298591375E0,-1.379517466E-1
2.977264404E0,-2.127333164E0,3.328951359E0,-1.065264493E-1
2.979248046E0,-2.196575403E0,3.291667223E0,-1.118527651E-1
2.981262207E0,-2.246110201E0,3.248523951E0,-1.422128081E-1
2.983245849E0,-2.272209167E0,3.196858644E0,-1.853560209E-1
2.985229492E0,-2.284992218E0,3.108441591E0,-2.306297570E-1
2.987243652E0,-2.279133320E0,2.985936165E0,-2.663161159E-1
2.989227294E0,-2.264219522E0,2.845854044E0,-2.908172011E-1
2.991241455E0,-2.240783691E0,2.686596870E0,-3.062635362E-1
2.993225097E0,-2.207760572E0,2.525742054E0,-3.147856593E-1
2.995239257E0,-2.181128979E0,2.360093355E0,-3.110572100E-1
2.997222900E0,-2.159291029E0,2.198705912E0,-3.078614175E-1
2.999206543E0,-2.141181469E0,2.051166773E0,-3.057309091E-1
3.001220703E0,-2.128931046E0,1.929193974E0,-3.057309091E-1
3.003173828E0,-2.115615129E0,1.834385395E0,-3.238403797E-1
3.005187988E0,-2.110288858E0,1.767806411E0,-3.456783295E-1
3.007171630E0,-2.107625723E0,1.711347342E0,-3.621899188E-1
3.009185791E0,-2.125202656E0,1.652757764E0,-3.765709996E-1
3.011169433E0,-2.139583588E0,1.617071390E0,-3.829625845E-1
3.013183593E0,-2.157160521E0,1.578721881E0,-3.472762108E-1
3.015167236E0,-2.176867962E0,1.586711407E0,-3.360909224E-1
3.017181396E0,-2.212021589E0,1.670867324E0,-3.691141307E-1
3.019134521E0,-2.245577574E0,1.724663138E0,-4.372910559E-1
3.021148681E0,-2.283394337E0,1.775263190E0,-5.273059011E-1
3.023132324E0,-2.327602863E0,1.796568513E0,-6.210491657E-1
3.025115966E0,-2.379800797E0,1.816808581E0,-7.307714224E-1
3.027099609E0,-2.421878815E0,1.816275954E0,-8.415589333E-1
3.029113769E0,-2.452238798E0,1.814145327E0,-9.496832490E-1
3.031097412E0,-2.474076748E0,1.834385395E0,-1.064199209E0
3.033081054E0,-2.477272511E0,1.855690718E0,-1.185106754E0
3.035064697E0,-2.461826086E0,1.850896955E0,-1.286839485E0
3.037078857E0,-2.442651510E0,1.866876006E0,-1.357679605E0
3.039062500E0,-2.418683052E0,1.908953905E0,-1.400290132E0
3.041107177E0,-2.380866051E0,1.925465465E0,-1.441835403E0
3.043060302E0,-2.332929134E0,1.963282347E0,-1.488174438E0
3.045074462E0,-2.271143913E0,2.016545534E0,-1.531850338E0
3.047088623E0,-2.207760572E0,2.063949823E0,-1.561145067E0
3.049072265E0,-2.143311977E0,2.090048790E0,-1.573928237E0
3.051055908E0,-2.081526756E0,2.108158350E0,-1.578721881E0
3.053070068E0,-2.016012907E0,2.123604774E0,-1.571265101E0
3.055053710E0,-1.956358194E0,2.134257317E0,-1.562742949E0
3.057067871E0,-1.900431752E0,2.142779350E0,-1.533980846E0
3.059051513E0,-1.845570683E0,2.145442724E0,-1.504685998E0
3.061065673E0,-1.815743208E0,2.233859539E0,-1.433313370E0
3.063049316E0,-1.802427411E0,2.368083000E0,-1.337439537E0
3.065032959E0,-1.789111614E0,2.446379900E0,-1.261805773E0
3.067047119E0,-1.769404292E0,2.450640917E0,-1.216531992E0
3.069030761E0,-1.746501088E0,2.413889170E0,-1.184041500E0
3.071044921E0,-1.728924155E0,2.363289118E0,-1.161670923E0
3.073028564E0,-1.717738986E0,2.307362795E0,-1.132908702E0
3.075042724E0,-1.707618952E0,2.237587929E0,-1.097755075E0
3.077026367E0,-1.696433663E0,2.155030012E0,-1.066862345E0
3.079040527E0,-1.683117867E0,2.059156179E0,-1.033306479E0
3.081054687E0,-1.661279917E0,1.959021330E0,-9.970875382E-1
3.083038330E0,-1.639441967E0,1.856755972E0,-9.539443254E-1
3.085021972E0,-1.614408255E0,1.755023241E0,-9.118663669E-1
3.087005615E0,-1.593103051E0,1.656486273E0,-8.681905270E-1
3.088989257E0,-1.571265101E0,1.555818796E0,-8.218515515E-1
3.090972900E0,-1.558481932E0,1.458347082E0,-7.829693556E-1
3.092987060E0,-1.546764016E0,1.365136385E0,-7.467503548E-1
3.094970703E0,-1.541437626E0,1.272991061E0,-7.163903713E-1
3.096984863E0,-1.545698762E0,1.168595076E0,-6.854977012E-1
3.098968505E0,-1.551025033E0,1.061536074E0,-6.535397172E-1
3.100982666E0,-1.558481932E0,9.576727748E-1,-6.189186573E-1
3.102966308E0,-1.571797729E0,8.607336879E-1,-5.954828262E-1
3.104949951E0,-1.576058745E0,7.627293468E-1,-5.725796223E-1
3.106964111E0,-1.580319762E0,6.732471585E-1,-5.560680628E-1
3.108947753E0,-1.581385136E0,5.811017752E-1,-5.416869521E-1
3.110931396E0,-1.574993491E0,4.878911078E-1,-5.246427655E-1
3.112915039E0,-1.575526118E0,3.930825889E-1,-5.060006380E-1
3.114898681E0,-1.568069220E0,2.977414131E-1,-4.841626883E-1
3.116912841E0,-1.556351423E0,2.066612989E-1,-4.591289759E-1
3.118896484E0,-1.542502880E0,1.113201380E-1,-4.356931746E-1
3.120941162E0,-1.521730304E0,2.396845073E-2,-4.127899706E-1
3.122894287E0,-1.496163964E0,-8.415589482E-2,-3.824299276E-1
3.124908447E0,-1.461542845E0,-1.928128600E-1,-3.605920076E-1
3.126892089E0,-1.416269064E0,-3.286340833E-1,-3.360909224E-1
3.128906250E0,-1.366734266E0,-4.846953154E-1,-3.094593287E-1
3.130889892E0,-1.314536333E0,-6.663229465E-1,-2.812298238E-1
3.132873535E0,-1.255414128E0,-8.655273914E-1,-2.514024079E-1
3.134857177E0,-1.185639381E0,-1.090830803E0,-2.194444835E-1
3.136840820E0,-1.113734007E0,-1.331047893E0,-1.885518134E-1
3.138854980E0,-1.029045463E0,-1.578189254E0,-1.613875628E-1
3.140869140E0,-9.379653335E-1,-1.832254887E0,-1.331580579E-1
3.142852783E0,-8.383631110E-1,-2.098038435E0,-1.054611802E-1
3.144836425E0,-7.350324988E-1,-2.368615627E0,-7.456851006E-2
3.146850585E0,-6.269081235E-1,-2.648780107E0,-3.195793182E-2
3.148834228E0,-5.203816891E-1,-2.917226791E0,1.225054078E-2
3.150817871E0,-4.079962969E-1,-3.181944847E0,5.805691332E-2
3.152801513E0,-3.531351686E-1,-3.312972546E0,8.149272949E-2
3.154785156E0,-2.471413612E-1,-3.552656889E0,1.251685768E-1
3.156799316E0,-1.368864775E-1,-3.779025555E0,1.693770438E-1
3.158782959E0,-3.621899337E-2,-3.988350153E0,2.114549875E-1
3.160827636E0,6.711166352E-2,-4.177967072E0,2.482066154E-1
3.162780761E0,1.619201899E-1,-4.356931686E0,2.822950780E-1
3.164794921E0,2.524676621E-1,-4.521514893E0,3.062635362E-1
3.166778564E0,3.382214606E-1,-4.672249794E0,3.270362020E-1
3.168792724E0,4.154531360E-1,-4.803810120E0,3.360909224E-1
3.170776367E0,4.873584807E-1,-4.921521664E0,3.366235793E-1
3.172790527E0,5.518069863E-1,-5.022721767E0,3.270362020E-1
3.174774169E0,6.103965044E-1,-5.105812550E0,3.121224940E-1
3.176757812E0,6.535397172E-1,-5.177185059E0,2.881540358E-1
3.178741455E0,6.924219131E-1,-5.231513977E0,2.583266199E-1
3.180755615E0,7.179882526E-1,-5.281048775E0,2.247707993E-1
3.182708740E0,7.307714224E-1,-5.320995808E0,1.821602285E-1
3.184722900E0,7.392935157E-1,-5.355617046E0,1.310275346E-1
3.186706543E0,7.382282615E-1,-5.391303539E0,8.149272949E-2
3.188720703E0,7.334345579E-1,-5.430718422E0,2.822950855E-2
3.190704345E0,7.286409140E-1,-5.470132828E0,-2.183792181E-2
3.192718505E0,7.163903713E-1,-5.510080338E0,-7.084008306E-2
3.194702148E0,7.121292949E-1,-5.543103695E0,-1.091896072E-1
3.196716308E0,7.057377100E-1,-5.579855442E0,-1.400822699E-1
3.198699951E0,7.105314136E-1,-5.613410950E0,-1.683117896E-1
3.200744628E0,7.254450917E-1,-5.651227951E0,-1.805623323E-1
3.202697753E0,7.408914566E-1,-5.701295376E0,-1.736381054E-1
3.204681396E0,7.723167539E-1,-5.758286953E0,-1.592570394E-1
3.206665039E0,8.096010089E-1,-5.828594685E0,-1.326254308E-1
3.208648681E0,8.532768488E-1,-5.910087109E0,-9.906959534E-2
3.210662841E0,9.060074091E-1,-6.002232552E0,-6.285060197E-2
3.212646484E0,9.645969868E-1,-6.106628418E0,-2.450108156E-2
3.214660644E0,1.032241225E0,-6.234992981E0,1.651159860E-2
3.216644287E0,1.100418210E0,-6.383064747E0,5.805691332E-2
3.218658447E0,1.180312991E0,-6.542321682E0,1.017327532E-1
3.220672607E0,1.258610010E0,-6.723416805E0,1.416801661E-1
3.222656250E0,1.348624825E0,-6.909837723E0,1.688444167E-1
3.224639892E0,1.440237522E0,-7.103183270E0,1.890844405E-1
3.226623535E0,1.540372372E0,-7.305050850E0,1.928128600E-1
3.228607177E0,1.636246204E0,-7.515440941E0,1.858886480E-1
3.230590820E0,1.744903207E0,-7.749798775E0,1.672465205E-1
3.232604980E0,1.855690718E0,-7.999603271E0,1.379517466E-1
3.234588623E0,1.975000262E0,-8.266451836E0,9.427590668E-2
3.236602783E0,2.100701571E0,-8.548214912E0,4.900216311E-2
3.238586425E0,2.228533268E0,-8.720254898E0,1.065264456E-3
3.240631103E0,2.362756491E0,-9.105880737E0,-3.994741663E-2
3.242584228E0,2.501773596E0,-9.370065689E0,-7.829693705E-2
3.244598388E0,2.638659954E0,-9.607620239E0,-1.129180342E-1
3.246582031E0,2.776079178E0,-9.813748360E0,-1.464738697E-1
3.248596191E0,2.911900282E0,-9.995376587E0,-1.709749401E-1
3.250579834E0,3.047721624E0,-1.015942669E1,-1.928128600E-1
3.252593994E0,3.180879593E0,-1.030110741E1,-2.199771106E-1
3.254547119E0,3.311907291E0,-1.044704819E1,-2.476739883E-1
3.256530761E0,3.448261023E0,-1.058872890E1,-2.790992856E-1
3.258544921E0,3.584082365E0,-1.072881126E1,-3.206445873E-1
3.260559082E0,3.723099232E0,-1.086463261E1,-3.744404614E-1
3.262512207E0,3.858920574E0,-1.099139881E1,-4.367584288E-1
3.264526367E0,3.993676424E0,-1.110911083E1,-5.060006380E-1
3.266510009E0,4.127899647E0,-1.121084309E1,-5.805691481E-1
3.268524169E0,4.266916752E0,-1.130192280E1,-6.684534550E-1
3.270507812E0,4.408596992E0,-1.137915516E1,-7.595335841E-1
3.272521972E0,4.551342487E0,-1.145532131E1,-8.564726114E-1
3.274505615E0,4.697283745E0,-1.152456379E1,-9.603359103E-1
3.276519775E0,4.846420765E0,-1.160339355E1,-1.071655989E0
3.278503418E0,4.998753548E0,-1.168435287E1,-1.181910872E0
3.280517578E0,5.145760059E0,-1.175838947E1,-1.298024774E0
3.282531738E0,5.305549622E0,-1.182656574E1,-1.418932199E0
3.284515380E0,5.462676048E0,-1.188409042E1,-1.535578728E0
3.286529541E0,5.621400356E0,-1.192510319E1,-1.645833611E0
3.288513183E0,5.781723022E0,-1.195066929E1,-1.755555868E0
3.290527343E0,5.942045212E0,-1.194907093E1,-1.862082243E0
3.292510986E0,6.103432655E0,-1.192670059E1,-1.960619211E0
3.294525146E0,6.256298065E0,-1.188994884E1,-2.046905756E0
3.296508789E0,6.406500340E0,-1.183295727E1,-2.124137402E0
3.298522949E0,6.549245834E0,-1.175572586E1,-2.187520504E0
3.300537109E0,6.672816753E0,-1.166677666E1,-2.237055302E0
3.302490234E0,6.785734653E0,-1.156131554E1,-2.270611286E0
3.304473876E0,6.878412724E0,-1.144946194E1,-2.300438643E0
3.306457519E0,6.951915741E0,-1.130831528E1,-2.315352201E0
3.308471679E0,7.008374691E0,-1.114000320E1,-2.323874474E0
3.310455322E0,7.037137032E0,-1.096423435E1,-2.321743965E0
3.312469482E0,7.043528557E0,-1.077461720E1,-2.311091185E0
3.314453125E0,7.024886608E0,-1.055517292E1,-2.296710253E0
3.316467285E0,6.983873844E0,-1.034531593E1,-2.275404930E0
3.318450927E0,6.915163994E0,-1.011841488E1,-2.256762743E0
3.320495605E0,6.817692757E0,-9.887251854E0,-2.240251064E0
3.322448730E0,6.693589211E0,-9.652360916E0,-2.229065895E0
3.324462890E0,6.546582699E0,-9.408947945E0,-2.215217352E0
3.326446533E0,6.376140594E0,-9.145828247E0,-2.209891081E0
3.328430175E0,6.185458183E0,-8.866728783E0,-2.206162691E0
3.330413818E0,5.977199078E0,-8.573247910E0,-2.206695318E0
3.332397460E0,5.755091190E0,-8.266984940E0,-2.214684725E0
3.334411621E0,5.511678219E0,-7.962319374E0,-2.226935387E0
3.336395263E0,5.248558044E0,-7.649131298E0,-2.243979692E0
3.338409423E0,4.976382732E0,-7.357248783E0,-2.274339676E0
3.340423584E0,4.690359592E0,-7.080280304E0,-2.308428049E0
3.342376709E0,4.409662247E0,-6.820888519E0,-2.359028101E0
3.344390869E0,4.140683174E0,-6.572681904E0,-2.421878815E0
3.346374511E0,3.877029896E0,-6.402239323E0,-2.496447325E0
3.348388671E0,3.630421162E0,-6.221144199E0,-2.585396767E0
3.350372314E0,3.397660971E0,-6.142314911E0,-2.683401108E0
3.352386474E0,3.185673237E0,-6.113019943E0,-2.788862228E0
3.354370117E0,2.996588945E0,-6.130597115E0,-2.903910875E0
3.356384277E0,2.831472874E0,-6.185458183E0,-3.018959522E0
3.358367919E0,2.695119143E0,-6.252569675E0,-3.139867067E0
3.360382080E0,2.596582174E0,-6.318083286E0,-3.258643866E0
3.362365722E0,2.539057732E0,-6.372944832E0,-3.371029377E0
3.364349365E0,2.469815731E0,-6.361226559E0,-3.449858904E0
3.366363525E0,2.361158609E0,-6.277070999E0,-3.463174820E0
3.368347168E0,2.218413115E0,-6.179066658E0,-3.420564175E0
3.370361328E0,2.045307636E0,-6.068278790E0,-3.331614494E0
3.372344970E0,1.857821226E0,-5.934588432E0,-3.208576441E0
3.374359130E0,1.658616781E0,-5.827529430E0,-3.032807827E0
3.376342773E0,1.513208151E0,-5.624596119E0,-2.869289875E0
3.378356933E0,1.382713318E0,-5.415271759E0,-2.690858126E0
3.380371093E0,1.293231010E0,-5.172924042E0,-2.485794544E0
3.382324218E0,1.193628788E0,-4.968925953E0,-2.288187981E0
3.384338378E0,1.095091820E0,-4.773449898E0,-2.108158350E0
3.386322021E0,1.002413869E0,-4.589159489E0,-1.939313889E0
3.388336181E0,9.086706042E-1,-4.422445297E0,-1.768339038E0
3.390319824E0,8.234494328E-1,-4.280232430E0,-1.573395610E0
3.392333984E0,7.488809228E-1,-4.171575546E0,-1.353418469E0
3.394317626E0,6.705839634E-1,-4.085289001E0,-1.114266634E0
3.396331787E0,6.050702333E-1,-3.977697372E0,-8.767126203E-1
3.398315429E0,5.512743592E-1,-3.841343641E0,-6.535397172E-1
3.400360107E0,5.081311464E-1,-3.681021214E0,-4.554005563E-1
3.402313232E0,4.825648069E-1,-3.482882023E0,-3.009372056E-1
3.404296875E0,4.676510990E-1,-3.268764019E0,-1.725728363E-1
3.406311035E0,4.719121456E-1,-3.039199591E0,-8.948221803E-2
3.408294677E0,4.969458580E-1,-2.834668636E0,-2.450108156E-2
3.410308837E0,5.390238166E-1,-2.664758921E0,1.118527725E-2
3.412292480E0,5.912217498E-1,-2.512426138E0,1.917476021E-2
3.414306640E0,6.471481323E-1,-2.382463932E0,-4.261057824E-3
3.416290283E0,7.025418878E-1,-2.287655354E0,-4.314320907E-2
3.418304443E0,7.643272281E-1,-2.231196404E0,-8.149272949E-2
3.420318603E0,8.261125684E-1,-2.221609116E0,-1.225054115E-1
3.422271728E0,8.969526887E-1,-2.241848946E0,-1.597896665E-1
3.424285888E0,9.624664187E-1,-2.307895422E0,-1.992044598E-1
3.426269531E0,1.024784446E0,-2.400573492E0,-2.386192381E-1
3.428283691E0,1.089765549E0,-2.520948410E0,-2.684466541E-1
3.430267334E0,1.151018262E0,-2.667954922E0,-2.801645398E-1
3.432281494E0,1.211738348E0,-2.839995146E0,-2.711097896E-1
3.434265136E0,1.270327806E0,-3.049319506E0,-2.359560728E-1
3.436279296E0,1.332113147E0,-3.289536715E0,-1.922802329E-1
3.438262939E0,1.397094369E0,-3.536145449E0,-1.502022892E-1
3.440277099E0,1.456216455E0,-3.764644623E0,-1.150485575E-1
3.442260742E0,1.508947134E0,-3.957457542E0,-1.017327532E-1
3.444244384E0,1.549959779E0,-4.112453461E0,-1.155811921E-1
3.446289062E0,1.590439796E0,-4.220577717E0,-1.603222936E-1
3.448242187E0,1.609614611E0,-4.297276974E0,-2.418150306E-1
3.450256347E0,1.618136764E0,-4.339354992E0,-3.632551730E-1
3.452239990E0,1.600559831E0,-4.350540161E0,-5.273059011E-1
3.454254150E0,1.559014559E0,-4.332430363E0,-7.371630073E-1
3.456237793E0,1.507881880E0,-4.294081211E0,-9.843043685E-1
3.458251953E0,1.457814455E0,-4.241350651E0,-1.220260382E0
3.460266113E0,1.412008047E0,-4.147074699E0,-1.441835403E0
3.462249755E0,1.365669012E0,-4.031493187E0,-1.640507221E0
3.464233398E0,1.331580520E0,-3.899933100E0,-1.809351683E0
3.466247558E0,1.293763638E0,-3.777960300E0,-1.947303414E0
3.468231201E0,1.257012010E0,-3.670901299E0,-2.057558298E0
3.470245361E0,1.211738348E0,-3.574494839E0,-2.167280436E0
3.472229003E0,1.167529821E0,-3.496197939E0,-2.276470184E0
3.474212646E0,1.125984550E0,-3.431749344E0,-2.386724949E0
3.476196289E0,1.096689701E0,-3.370496750E0,-2.498577833E0
3.478179931E0,1.087102413E0,-3.290601969E0,-2.617887497E0
3.480224609E0,1.101483464E0,-3.200587034E0,-2.730272770E0
3.482177734E0,1.143028736E0,-3.086603880E0,-2.834668636E0
3.484191894E0,1.220793009E0,-2.963565826E0,-2.927879333E0
3.486175537E0,1.326254249E0,-2.829342365E0,-3.008839369E0
3.488189697E0,1.451955438E0,-2.685531616E0,-3.086603880E0
3.490173339E0,1.594168305E0,-2.545982122E0,-3.154780626E0
3.492156982E0,1.744903207E0,-2.422411442E0,-3.212305069E0
3.494140625E0,1.900964379E0,-2.319613457E0,-3.269829273E0
3.496124267E0,2.066612959E0,-2.256762743E0,-3.316700935E0
3.498138427E0,2.232261658E0,-2.234392166E0,-3.342267275E0
3.500152587E0,2.405367136E0,-2.241848946E0,-3.360909462E0
3.502105712E0,2.583266258E0,-2.283394337E0,-3.363039970E0
3.504089355E0,2.769155025E0,-2.363821745E0,-3.349191427E0
3.506072998E0,2.959837198E0,-2.490588188E0,-3.311907291E0
3.508087158E0,3.114833355E0,-2.555036783E0,-3.054113150E0
3.510070800E0,3.205913305E0,-2.611495733E0,-2.566222191E0
3.512084960E0,3.266633511E0,-2.777677059E0,-2.219478607E0
3.514068603E0,3.300721884E0,-3.032807827E0,-2.026133060E0
3.516082763E0,3.328951359E0,-3.275688171E0,-1.894040227E0
3.518066406E0,3.345995665E0,-3.452522039E0,-1.766741157E0
3.520111084E0,3.371562004E0,-3.559581280E0,-1.643170476E0
3.522064209E0,3.403519869E0,-3.614442348E0,-1.535578728E0
3.524047851E0,3.438673735E0,-3.628290653E0,-1.438639641E0
3.526031494E0,3.452522039E0,-3.612844467E0,-1.334776402E0
3.528015136E0,3.450391531E0,-3.563842297E0,-1.234108925E0
3.530029296E0,3.423759937E0,-3.506850481E0,-1.151550889E0
3.532012939E0,3.358246088E0,-3.442402124E0,-1.063666582E0
3.534027099E0,3.268231392E0,-3.363039970E0,-9.928264618E-1
3.536010742E0,3.154247999E0,-3.268764019E0,-9.331716895E-1
3.538024902E0,3.021090031E0,-3.145725965E0,-8.793758154E-1
3.540039062E0,2.869822502E0,-3.004578352E0,-8.319715261E-1
3.541992187E0,2.713761091E0,-2.828277111E0,-8.010788560E-1
3.543975830E0,2.550243139E0,-2.623746395E0,-7.946872711E-1
3.545959472E0,2.467152596E0,-2.520415783E0,-7.957525253E-1
3.547973632E0,2.305764914E0,-2.315352201E0,-8.138620257E-1
3.549957275E0,2.156095266E0,-2.125202656E0,-8.484831452E-1
3.551971435E0,2.001631975E0,-1.949433923E0,-9.049421549E-1
3.553955078E0,1.848766446E0,-1.766741157E0,-9.619337916E-1
3.555969238E0,1.697498918E0,-1.592037678E0,-1.009870648E0
3.557952880E0,1.554220796E0,-1.447161794E0,-1.074319243E0
3.559997558E0,1.367799520E0,-1.269795179E0,-1.179247737E0
3.561950683E0,1.306014180E0,-1.228782535E0,-1.220260382E0
3.563964843E0,1.202683568E0,-1.139300346E0,-1.298024774E0
3.565948486E0,1.104679227E0,-1.067927599E0,-1.359810114E0
3.567962646E0,1.013599157E0,-1.013599157E0,-1.412540674E0
3.569946289E0,9.342369437E-1,-9.784454107E-1,-1.466336489E0
3.571929931E0,8.607336879E-1,-9.571400881E-1,-1.513208151E0
3.573913574E0,7.989483476E-1,-9.337043166E-1,-1.560079813E0
3.575897216E0,7.462177277E-1,-9.182579517E-1,-1.619734645E0
3.577911376E0,7.147924304E-1,-8.974853158E-1,-1.696433663E0
3.579925537E0,6.865629554E-1,-8.687231541E-1,-1.781654835E0
3.581878662E0,6.764429212E-1,-8.239820600E-1,-1.884452820E0
3.583892822E0,6.769755483E-1,-7.696535587E-1,-1.987250805E0
3.585876464E0,6.769755483E-1,-7.009440064E-1,-2.094309807E0
3.587890625E0,6.897587180E-1,-6.242449880E-1,-2.200303793E0
3.589874267E0,7.190535069E-1,-5.374259353E-1,-2.316950083E0
3.591888427E0,7.605988383E-1,-4.671184719E-1,-2.431998730E0
3.593872070E0,8.213189244E-1,-4.122573435E-1,-2.548645258E0
3.595886230E0,9.022790194E-1,-3.680488765E-1,-2.670085430E0
3.597869873E0,1.003479123E0,-3.376888335E-1,-2.794721365E0
3.599914550E0,1.120658159E0,-3.169161677E-1,-2.918824673E0
3.601867675E0,1.238902569E0,-3.051982522E-1,-3.030144691E0
3.603851318E0,1.364603758E0,-3.030677438E-1,-3.122822762E0
3.605834960E0,1.492435455E0,-3.163835406E-1,-3.187271357E0
3.607818603E0,1.625593543E0,-3.499393761E-1,-3.218163967E0
3.609832763E0,1.755555868E0,-4.234426320E-1,-3.221359730E0
3.611816406E0,1.898833871E0,-5.161206126E-1,-3.201652288E0
3.613830566E0,2.031459332E0,-6.343649626E-1,-3.157976389E0
3.615814209E0,2.171009064E0,-7.707188129E-1,-3.092462778E0
3.617828369E0,2.313221693E0,-9.060074091E-1,-3.018959522E0
3.619842529E0,2.437857628E0,-1.053013921E0,-2.920955181E0
3.621826171E0,2.560895681E0,-1.210140467E0,-2.788329601E0
3.623809814E0,2.664226294E0,-1.364603758E0,-2.643453836E0
3.625823974E0,2.760100126E0,-1.516403913E0,-2.495382071E0
3.627807617E0,2.836799145E0,-1.657018900E0,-2.355832338E0
3.629821777E0,2.901247740E0,-1.784850597E0,-2.217880487E0
3.631805419E0,2.939597368E0,-1.887115955E0,-2.085787773E0
3.633819580E0,2.950249910E0,-1.970739245E0,-1.959021330E0
3.635803222E0,2.936401367E0,-2.036252975E0,-1.838646412E0
3.637786865E0,2.887931824E0,-2.084189892E0,-1.719869494E0
3.639801025E0,2.815494061E0,-2.104429960E0,-1.604288220E0
3.641754150E0,2.721218109E0,-2.104429960E0,-1.493500710E0
3.643768310E0,2.602973700E0,-2.063417196E0,-1.382713318E0
3.645751953E0,2.466619730E0,-1.995772958E0,-1.280447841E0
3.647766113E0,2.308428049E0,-1.897235990E0,-1.186172009E0
3.649749755E0,2.134789944E0,-1.777393699E0,-1.090830803E0
3.651763916E0,1.944640279E0,-1.633583069E0,-9.965549111E-1
3.653747558E0,1.745968461E0,-1.484446049E0,-9.022790194E-1
3.655731201E0,1.548361897E0,-1.317732096E0,-8.080030680E-1
3.657714843E0,1.343831062E0,-1.153148770E0,-7.190535069E-1
3.659729003E0,1.138235092E0,-9.885654449E-1,-6.285060048E-1
3.661682128E0,9.406285286E-1,-8.266451955E-1,-5.427522659E-1
3.663696289E0,7.568703890E-1,-6.817692518E-1,-4.617921412E-1
3.665679931E0,6.029396653E-1,-5.491438508E-1,-3.941478431E-1
3.667694091E0,4.942827225E-1,-4.271710515E-1,-3.371562064E-1
3.669677734E0,4.319647253E-1,-3.281014562E-1,-3.147856593E-1
3.671691894E0,4.165183902E-1,-2.556634545E-1,-3.238403797E-1
3.673675537E0,4.335626364E-1,-2.050634027E-1,-3.621899188E-1
3.675689697E0,4.788363874E-1,-1.725728363E-1,-4.127899706E-1
3.677673339E0,5.390238166E-1,-1.699096859E-1,-4.756405652E-1
3.679687500E0,6.130596995E-1,-1.933455020E-1,-5.438175201E-1
3.681701660E0,6.982808709E-1,-2.508697808E-1,-6.109291911E-1
3.683685302E0,7.877630591E-1,-3.291667104E-1,-6.828345060E-1
3.685699462E0,8.777779341E-1,-4.202468395E-1,-7.600662112E-1
3.687683105E0,9.736517072E-1,-5.257080197E-1,-8.335694075E-1
3.689697265E0,1.072721362E0,-6.306365728E-1,-9.108011127E-1
3.691680908E0,1.178182483E0,-7.504788041E-1,-9.827064872E-1
3.693695068E0,1.287904739E0,-8.554073572E-1,-1.050883412E0
3.695678710E0,1.399757504E0,-9.741843343E-1,-1.110005617E0
3.697692871E0,1.510545015E0,-1.096157074E0,-1.153148770E0
3.699707031E0,1.620799899E0,-1.218129873E0,-1.182976127E0
3.701660156E0,1.720402122E0,-1.334243774E0,-1.195759296E0
3.703643798E0,1.815743208E0,-1.440770149E0,-1.202150941E0
3.705627441E0,1.897768617E0,-1.536643982E0,-1.193096161E0
3.707641601E0,1.972869754E0,-1.616538763E0,-1.168062449E0
3.709625244E0,2.045840502E0,-1.676193595E0,-1.134506702E0
3.711639404E0,2.112951994E0,-1.712412596E0,-1.092961311E0
3.713623046E0,2.168878317E0,-1.735848427E0,-1.046622276E0
3.715637207E0,2.219478607E0,-1.745435834E0,-9.960222840E-1
3.717620849E0,2.254099607E0,-1.747033715E0,-9.475527406E-1
3.719665527E0,2.289785862E0,-1.744370580E0,-9.139968753E-1
3.721618652E0,2.314286947E0,-1.724663138E0,-8.809736967E-1
3.723632812E0,2.332396507E0,-1.719869494E0,-8.463526368E-1
3.725616455E0,2.346777678E0,-1.701227307E0,-8.234494328E-1
3.727600097E0,2.355832338E0,-1.649029374E0,-7.968178391E-1
3.729583740E0,2.362756491E0,-1.570732474E0,-7.584682703E-1
3.731567382E0,2.382463932E0,-1.491370201E0,-7.201187611E-1
3.733581543E0,2.388855457E0,-1.399224877E0,-6.812366247E-1
3.735565185E0,2.394181967E0,-1.301753163E0,-6.450176239E-1
3.737579345E0,2.398442984E0,-1.212270975E0,-6.189186573E-1
3.739593505E0,2.393116713E0,-1.135571957E0,-6.072007418E-1
3.741546630E0,2.375007153E0,-1.074851871E0,-5.981460214E-1
3.743560791E0,2.359028101E0,-1.037567616E0,-5.890912414E-1
3.745544433E0,2.321743965E0,-1.002946496E0,-5.789712071E-1
3.747558593E0,2.270611286E0,-9.672601223E-1,-5.704491138E-1
3.749542236E0,2.205097437E0,-9.331716895E-1,-5.571333170E-1
3.751556396E0,2.145442724E0,-8.969526887E-1,-5.438175201E-1
3.753540039E0,2.080461502E0,-8.831042051E-1,-5.384911895E-1
3.755554199E0,2.019208670E0,-8.969526887E-1,-5.315669775E-1
3.757537841E0,1.953162432E0,-9.225190282E-1,-5.310343504E-1
3.759582519E0,1.893507600E0,-9.587380290E-1,-5.368933082E-1
3.761535644E0,1.832254887E0,-1.006674886E0,-5.379585624E-1
3.763519287E0,1.750762105E0,-1.056209683E0,-5.432848930E-1
3.765502929E0,1.685248375E0,-1.119592905E0,-5.496764779E-1
3.767486572E0,1.628789306E0,-1.182443500E0,-5.502091050E-1
3.769500732E0,1.585646152E0,-1.225586772E0,-5.528722405E-1
3.771484375E0,1.511610270E0,-1.276186824E0,-5.491438508E-1
3.773498535E0,1.434911251E0,-1.304416299E0,-5.496764779E-1
3.775482177E0,1.365136385E0,-1.313471079E0,-5.480785370E-1
3.777496337E0,1.275654197E0,-1.312938452E0,-5.518069863E-1
3.779510498E0,1.211205721E0,-1.295361519E0,-5.555354357E-1
3.781494140E0,1.151550889E0,-1.264468908E0,-5.619270205E-1
3.783477783E0,1.101483464E0,-1.228782535E0,-5.736449361E-1
3.785491943E0,1.055677056E0,-1.205346704E0,-5.954828262E-1
3.787475585E0,9.853696227E-1,-1.189367771E0,-6.178534031E-1
3.789459228E0,9.677927494E-1,-1.188302517E0,-6.354302764E-1
3.791442871E0,9.251821637E-1,-1.184041500E0,-6.615292430E-1
3.793426513E0,8.761799932E-1,-1.188835144E0,-6.807039976E-1
3.795440673E0,8.266451955E-1,-1.189367771E0,-6.961503029E-1
3.797424316E0,8.096010089E-1,-1.202683568E0,-7.153250575E-1
3.799468994E0,7.781757116E-1,-1.192563534E0,-7.366303802E-1
3.801422119E0,7.568703890E-1,-1.181378245E0,-7.792409658E-1
3.803436279E0,7.472830415E-1,-1.194694042E0,-8.127967715E-1
3.805419921E0,7.424893379E-1,-1.220260382E0,-8.468852639E-1
3.807434082E0,7.153250575E-1,-1.238902569E0,-8.910937309E-1
3.809417724E0,6.817692518E-1,-1.249022603E0,-9.470201135E-1
3.811401367E0,6.098638773E-1,-1.251153111E0,-1.016262293E0
3.813385009E0,5.816344023E-1,-1.275654197E0,-1.084439158E0
3.815368652E0,5.464806557E-1,-1.269262552E0,-1.152616143E0
3.817382812E0,5.044026971E-1,-1.285241604E0,-1.205346704E0
3.819396972E0,4.841626883E-1,-1.277784705E0,-1.247957349E0
3.821350097E0,4.415521026E-1,-1.261273146E0,-1.279915214E0
3.823364257E0,4.117247164E-1,-1.225586772E0,-1.302818418E0
3.825347900E0,3.909520507E-1,-1.217064619E0,-1.329450011E0
3.827362060E0,3.568635881E-1,-1.201085687E0,-1.358212233E0
3.829345703E0,3.446130455E-1,-1.182443500E0,-1.391235352E0
3.831359863E0,3.334277868E-1,-1.138767719E0,-1.428519607E0
3.833343505E0,3.328951299E-1,-1.123321414E0,-1.471662879E0
3.835357666E0,3.147856593E-1,-1.075917125E0,-1.508947134E0
3.837341308E0,2.940129936E-1,-1.031175971E0,-1.537709236E0
3.839355468E0,2.727077007E-1,-1.024784446E0,-1.545698762E0
3.841369628E0,2.332929224E-1,-1.037034988E0,-1.532382965E0
3.843353271E0,2.109223604E-1,-1.025317073E0,-1.496696591E0
3.845397949E0,1.922802329E-1,-1.014131784E0,-1.451955438E0
3.847381591E0,1.896170676E-1,-1.008805394E0,-1.386441708E0
3.849365234E0,1.555286050E-1,-1.039698124E0,-1.320395350E0
3.851348876E0,1.560612470E-1,-1.069525480E0,-1.258077264E0
3.853332519E0,1.246359423E-1,-1.083906531E0,-1.193096161E0
3.855316162E0,9.108011425E-2,-1.077515006E0,-1.132376075E0
3.857330322E0,6.870955974E-2,-1.099352956E0,-1.084971905E0
3.859344482E0,4.580637068E-2,-1.114799261E0,-1.043959141E0
3.861328125E0,1.012001187E-2,-1.103613973E0,-9.976201653E-1
3.863311767E0,-1.118527725E-2,-1.051948667E0,-9.512811303E-1
3.865325927E0,-2.343581803E-2,-1.000283360E0,-8.969526887E-1
3.867309570E0,-2.556634694E-2,-9.480853677E-1,-8.335694075E-1
3.869293212E0,-2.343581803E-2,-9.092032313E-1,-7.723167539E-1
3.871276855E0,-1.597896591E-2,-8.639294505E-1,-7.089334726E-1
3.873260498E0,0.000000000E0,-8.271778226E-1,-6.482134461E-1
3.875274658E0,2.024002373E-2,-8.048073053E-1,-5.896238685E-1
3.877258300E0,4.314320907E-2,-8.042746782E-1,-5.491438508E-1
3.879302978E0,5.645901710E-2,-8.367652297E-1,-5.129248500E-1
3.881256103E0,1.075917110E-1,-8.852347732E-1,-4.974785149E-1
3.883270263E0,1.230380461E-1,-9.315737486E-1,-4.937500656E-1
3.885253906E0,1.890844405E-1,-1.005609632E0,-4.873584807E-1
3.887268066E0,2.423476577E-1,-1.089765549E0,-4.830974340E-1
3.889251709E0,3.078614175E-1,-1.155811906E0,-4.841626883E-1
3.891235351E0,3.616572917E-1,-1.199487805E0,-5.097290277E-1
3.893218994E0,4.021373391E-1,-1.222923636E0,-5.576659441E-1
3.895202636E0,4.149205089E-1,-1.207477212E0,-6.364955306E-1
3.897216796E0,3.968110085E-1,-1.159007788E0,-7.403587699E-1
3.899230957E0,3.872236311E-1,-1.110005617E0,-8.633968234E-1
3.901184082E0,3.707120419E-1,-1.064199209E0,-9.992180467E-1
3.903198242E0,3.408846259E-1,-1.015197039E0,-1.144093990E0
3.905181884E0,2.940129936E-1,-9.843043685E-1,-1.281513095E0
3.907196044E0,2.514024079E-1,-9.699232578E-1,-1.417866945E0
3.909179687E0,1.906823367E-1,-9.566074610E-1,-1.537709236E0
3.911193847E0,1.443433315E-1,-9.651296139E-1,-1.646366239E0
3.913177490E0,1.161138266E-1,-9.656622410E-1,-1.743837953E0
3.915191650E0,7.243798673E-2,-9.534116983E-1,-1.835983276E0
3.917175293E0,5.645901710E-2,-9.294432402E-1,-1.924932837E0
3.919219970E0,6.072007492E-2,-8.964200616E-1,-2.004295111E0
3.921173095E0,7.616640627E-2,-8.660600185E-1,-2.068210840E0
3.923156738E0,9.374327213E-2,-8.255799413E-1,-2.133192062E0
3.925140380E0,1.193096191E-1,-7.882956862E-1,-2.176867962E0
3.927124023E0,1.411475390E-1,-7.510114312E-1,-2.213086843E0
3.929138183E0,1.789644361E-1,-7.020092607E-1,-2.244512320E0
3.931121826E0,2.109223604E-1,-6.647250056E-1,-2.258360624E0
3.933135986E0,2.455434501E-1,-6.327670813E-1,-2.268480778E0
3.935119628E0,2.892192900E-1,-6.146575809E-1,-2.270078659E0
3.937133789E0,3.339604139E-1,-5.901564956E-1,-2.266882658E0
3.939147949E0,3.824299276E-1,-5.800365210E-1,-2.244512320E0
3.941101074E0,4.420847595E-1,-5.704491138E-1,-2.200836420E0
3.943084716E0,4.697816372E-1,-5.693838596E-1,-2.168345690E0
3.945068359E0,5.166532397E-1,-5.752428174E-1,-2.091114044E0
3.947082519E0,5.677859783E-1,-5.800365210E-1,-2.000034094E0
3.949066162E0,6.034722924E-1,-5.811017752E-1,-1.894040227E0
3.951080322E0,6.269081235E-1,-5.715143681E-1,-1.788046360E0
3.953063964E0,6.332997084E-1,-5.683186054E-1,-1.686846256E0
3.955078125E0,6.242449880E-1,-5.592638254E-1,-1.593103051E0
3.957061767E0,6.061354876E-1,-5.331648588E-1,-1.505218625E0
3.959106445E0,5.635249019E-1,-5.044026971E-1,-1.409877539E0
3.961059570E0,5.225121975E-1,-4.628573954E-1,-1.325188994E0
3.963073730E0,4.617921412E-1,-4.042678475E-1,-1.250087857E0
3.965057373E0,3.994741738E-1,-3.424825370E-1,-1.168595076E0
3.967071533E0,3.281014562E-1,-2.748382390E-1,-1.088700294E0
3.969055175E0,2.567287385E-1,-2.151834220E-1,-9.997506738E-1
3.971069335E0,1.773665249E-1,-1.587243974E-1,-8.937568665E-1
3.973022460E0,9.214537591E-2,-1.012001261E-1,-7.968178391E-1
3.975006103E0,1.171790902E-2,-4.101268202E-2,-7.057377100E-1
3.977020263E0,-6.817692518E-2,2.183792181E-2,-6.269081235E-1
3.979034423E0,-1.459412277E-1,8.522115648E-2,-5.571333170E-1
3.980987548E0,-2.061286718E-1,1.486043930E-1,-4.932174385E-1
3.983001709E0,-2.700445354E-1,2.034655064E-1,-4.351605177E-1
3.984985351E0,-3.185140789E-1,2.524676621E-1,-3.829625845E-1
3.986999511E0,-3.478088379E-1,2.993393242E-1,-3.398193717E-1
3.988983154E0,-3.733751774E-1,3.472762108E-1,-3.036003709E-1
3.990997314E0,-3.802994192E-1,3.898867965E-1,-2.743056118E-1
3.992980957E0,-3.627225459E-1,4.351605177E-1,-2.466087192E-1
3.994995117E0,-3.392867148E-1,4.633900523E-1,-2.338255495E-1
3.996978759E0,-2.631203234E-1,4.980111420E-1,-2.205097377E-1
3.999023437E0,-2.013349831E-1,5.161206126E-1,-2.077265680E-1
4.000976562E0,-9.161274135E-2,5.193164349E-1,-1.960086524E-1
4.002990722E0,1.970739290E-2,5.225121975E-1,-1.906823367E-1
4.004974365E0,1.203748807E-1,5.097290277E-1,-1.928128600E-1
4.006988525E0,2.167813182E-1,4.825648069E-1,-2.018676102E-1
4.008941650E0,3.046656251E-1,4.490089715E-1,-2.226402760E-1
4.010925293E0,4.170510471E-1,4.069310129E-1,-2.434129268E-1
4.012908935E0,5.241101384E-1,3.552657068E-1,-2.769687474E-1
4.014892578E0,6.242449880E-1,3.004045784E-1,-3.099919558E-1
4.016906738E0,7.329019308E-1,2.338255495E-1,-3.526025414E-1
4.018920898E0,8.250473142E-1,1.592570394E-1,-3.968110085E-1
4.020904541E0,9.193232059E-1,1.022653878E-1,-4.426173866E-1
4.022888183E0,9.896306992E-1,3.036003746E-2,-4.910869002E-1
4.024902343E0,1.084439158E0,-4.367584363E-2,-5.416869521E-1
4.026885986E0,1.178182483E0,-1.235706806E-1,-5.917543769E-1
4.028869628E0,1.227717280E0,-1.773665249E-1,-6.386260390E-1
4.030853271E0,1.302818418E0,-2.135855258E-1,-6.849650741E-1
