"Time (s)","Gyroscope x (rad/s)","Gyroscope y (rad/s)","Gyroscope z (rad/s)"
4.966721100E-2,-2.012678981E-1,1.349400356E-2,-4.873480648E-2
5.966309600E-2,-1.707246602E-1,5.014591664E-2,-4.690220952E-2
6.963486500E-2,-1.633942723E-1,7.030446827E-2,-4.568048194E-2
7.971417300E-2,-1.786659062E-1,5.503284186E-2,-4.506961629E-2
8.996717300E-2,-2.379198074E-1,-3.610223532E-3,-2.613279223E-2
9.968209600E-2,-3.045041263E-1,-1.153985634E-1,-2.552192844E-2
1.096462500E-1,-3.851383328E-1,-2.003088295E-1,-4.079356045E-2
1.209914420E-1,-4.541661143E-1,-2.894951701E-1,-6.217384338E-2
1.296182110E-1,-4.859310985E-1,-3.450838923E-1,-8.721931279E-2
1.396270960E-1,-4.798224568E-1,-3.475273550E-1,-1.043235511E-1
1.496077880E-1,-4.474465847E-1,-3.053776622E-1,-9.516056627E-2
1.596079420E-1,-4.120164216E-1,-2.406259477E-1,-6.034124643E-2
1.696022500E-1,-3.955230415E-1,-1.190637574E-1,9.297389537E-3
1.796098270E-1,-3.833057582E-1,6.175235659E-2,1.681223512E-1
1.896074800E-1,-4.425596595E-1,-6.053686142E-3,3.617666364E-1
1.996199420E-1,-5.787826180E-1,-1.746524870E-1,4.478986263E-1
2.095964420E-1,-7.186707854E-1,-2.149696052E-1,4.112467170E-1
2.196069800E-1,-8.402329683E-1,-2.937712371E-1,3.354994357E-1
2.296389800E-1,-9.275866747E-1,-3.927313983E-1,2.762455046E-1
2.395982500E-1,-8.713870645E-1,-2.064175010E-1,1.656788886E-1
2.496229030E-1,-7.901419997E-1,1.960265636E-2,1.473529339E-1
2.596054800E-1,-7.003448009E-1,2.358489335E-1,1.901134998E-1
2.697755960E-1,-6.722450256E-1,6.090876460E-1,2.835758924E-1
2.795980960E-1,-6.423125863E-1,9.224615097E-1,4.277400672E-1
2.896379030E-1,-6.252083778E-1,1.207735538E0,5.425827503E-1
2.996026340E-1,-6.001629233E-1,1.241333127E0,6.079453230E-1
3.096446340E-1,-4.938723445E-1,9.304027557E-1,5.596869588E-1
3.196205190E-1,-3.313822150E-1,4.026151597E-1,4.265183508E-1
3.296074800E-1,-1.750006974E-1,1.051237956E-1,2.939606011E-1
3.395957880E-1,-1.322401464E-1,1.167302355E-1,1.919460893E-1
3.496203650E-1,-1.383487880E-1,3.934521675E-1,1.821722537E-1
3.596015190E-1,-1.768333018E-1,8.607641459E-1,3.153408766E-1
3.696189030E-1,-2.440284789E-1,1.469185829E0,6.164974570E-1
3.797574800E-1,-2.336437702E-1,1.653667092E0,8.290785551E-1
3.896637500E-1,-2.696848214E-1,1.519276738E0,1.008672953E0
3.996093260E-1,-4.694377780E-1,1.157033682E0,1.045324922E0
4.095985960E-1,-2.055439651E-1,4.429322481E-1,9.598037004E-1
4.196038650E-1,-4.443922639E-1,-1.288376004E-1,9.585819840E-1
4.296172110E-1,-1.034488201E0,-5.125771463E-2,8.864998817E-1
4.395991730E-1,-1.350916386E0,1.918666661E-1,8.412958384E-1
4.496122110E-1,-1.357635856E0,4.435431361E-1,7.704355121E-1
4.596028650E-1,-1.150552511E0,8.491576910E-1,7.435573936E-1
4.701900570E-1,-8.805500865E-1,1.119770885E0,8.229699135E-1
4.796043260E-1,-5.971086025E-1,1.558372140E0,8.180829883E-1
4.896120190E-1,-3.515407443E-1,1.619458675E0,8.034222126E-1
4.996063650E-1,-1.994353235E-1,1.419705749E0,7.783767581E-1
5.096197110E-1,-4.498900771E-1,6.341331005E-1,6.971316338E-1
5.196041720E-1,-8.872695565E-1,-1.399493404E-2,6.042801142E-1
5.296092880E-1,-1.289829850E0,-3.401969969E-1,5.279219747E-1
5.396040570E-1,-1.412613750E0,-4.336593747E-1,4.821071029E-1
5.496787490E-1,-1.313042760E0,-3.328666091E-1,5.034873486E-1
5.596207110E-1,-1.058311939E0,-2.376877889E-2,5.841215849E-1
5.696272490E-1,-7.498248816E-1,3.665741086E-1,6.653666496E-1
5.796287110E-1,-4.804333448E-1,6.897218227E-1,7.307292223E-1
5.896640570E-1,-2.904542387E-1,8.467141986E-1,7.136250138E-1
5.996737880E-1,-2.507479787E-1,9.010812044E-1,6.623123288E-1
6.102190960E-1,-3.466538489E-1,9.047464132E-1,5.126503706E-1
6.196192490E-1,-5.622892380E-1,6.762828231E-1,3.635992408E-1
6.296652880E-1,-8.225178719E-1,3.189266026E-1,2.402044535E-1
6.396139800E-1,-1.070529222E0,-1.202854887E-1,-7.988893986E-2
6.495993260E-1,-1.096796393E0,-2.534541190E-1,-2.869722545E-1
6.596052880E-1,-1.080303073E0,-2.821647823E-1,-3.828780949E-1
6.696102110E-1,-1.079692245E0,-2.259651721E-1,-4.213626087E-1
6.796027880E-1,-1.061366200E0,-9.768347442E-2,-4.940555692E-1
6.896129420E-1,-9.917275310E-1,9.596080333E-2,-5.319291949E-1
6.996579420E-1,-8.884913325E-1,3.513024747E-1,-4.592362642E-1
7.096611720E-1,-8.090788126E-1,5.614401698E-1,-2.472660094E-1
7.196054420E-1,-7.363858819E-1,7.013282776E-1,1.357344911E-2
7.296287880E-1,-5.274699330E-1,8.992486596E-1,3.000692427E-1
7.396026720E-1,-2.409741580E-1,1.101444960E0,5.438044667E-1
7.496194420E-1,1.539349556E-3,1.130155683E0,5.828998685E-1
7.596028260E-1,2.367224693E-1,1.336017251E0,6.598688960E-1
7.696058650E-1,4.951184690E-1,1.372058272E0,7.734898329E-1
7.796084420E-1,6.172915101E-1,9.707198739E-1,6.885795593E-1
7.896530570E-1,5.928568840E-1,9.285701513E-1,6.274930239E-1
7.996126720E-1,5.391007662E-1,9.242941141E-1,5.419718623E-1
8.096122110E-1,4.401406050E-1,8.949725628E-1,4.637811184E-1
8.196176340E-1,3.081937134E-1,7.868494391E-1,4.607267976E-1
8.302938260E-1,1.066081673E-1,5.724357367E-1,4.460660517E-1
8.396086340E-1,-1.304075420E-1,4.319366813E-1,5.157046914E-1
8.496074410E-1,-3.442103863E-1,3.873435259E-1,7.423356771E-1
8.596001340E-1,-5.439633131E-1,3.024332523E-1,9.372016788E-1
8.696060180E-1,-7.559335232E-1,2.584509552E-1,1.093583226E0
8.796152490E-1,-9.049846530E-1,-1.838154793E-1,1.137565613E0
8.896032880E-1,-7.663182616E-1,-8.539346457E-1,1.299444795E0
8.996108650E-1,-4.608856440E-1,-1.659055114E0,1.336707592E0
9.096117110E-1,1.539349556E-3,-2.146525383E0,1.060596585E0
9.196094030E-1,1.573099792E-1,-1.863694906E0,9.164322615E-1
9.296164410E-1,2.770395875E-1,-1.555818796E0,6.983534098E-1
9.396025570E-1,3.155240715E-1,-1.200906157E0,4.637811184E-1
9.496083640E-1,3.210218847E-1,-1.012148738E0,2.114937901E-1
9.595995180E-1,3.833301365E-1,-8.991386294E-1,-5.850864947E-2
9.696022880E-1,5.470420122E-1,-7.891829014E-1,-2.771984041E-1
9.796600950E-1,7.046452761E-1,-8.111740351E-1,-6.931976676E-1
9.896254410E-1,7.223603725E-1,-8.026219606E-1,-1.278406501E0
9.996149800E-1,6.728802323E-1,-8.032327890E-1,-2.151333094E0
1.009640518E0,6.313413978E-1,-6.847249269E-1,-2.996159792E0
1.019632980E0,6.288979650E-1,-5.460585356E-1,-3.424376249E0
1.029608364E0,5.726983547E-1,-6.572360396E-1,-3.457362890E0
1.039610480E0,3.509542644E-1,-9.400666356E-1,-3.103061199E0
1.049600672E0,4.063472152E-2,-1.395161271E0,-3.075572252E0
1.059601364E0,-4.993701577E-1,-1.372559309E0,-3.275935888E0
1.069612403E0,-1.322205663E0,-7.983458638E-1,-3.449421644E0
1.080042826E0,-2.190855980E0,-1.606025994E-1,-3.669944048E0
1.089607595E0,-2.869527340E0,8.435437083E-2,-3.957661629E0
1.099610480E0,-3.273309231E0,1.362779140E-1,-4.181849003E0
1.109605711E0,-3.322789192E0,3.018223941E-1,-4.193455219E0
1.119605364E0,-2.964211464E0,5.412815809E-1,-4.084721088E0
1.129627595E0,-2.306309462E0,8.473250866E-1,-3.941168308E0
1.139635672E0,-1.567773461E0,1.251717806E0,-3.834266901E0
1.149616057E0,-8.683327436E-1,1.449027300E0,-3.803723574E0
1.159605057E0,-3.545950949E-1,1.607852221E0,-3.779289007E0
1.169674980E0,-2.348654866E-1,1.822876811E0,-3.902683735E0
1.179616864E0,-7.076752186E-1,2.543087006E0,-4.462235928E0
1.189667595E0,-1.214693427E0,3.186328173E0,-4.910000324E0
1.199625287E0,-1.766915560E0,4.156992912E0,-5.351655960E0
1.209601749E0,-2.411989212E0,5.485013962E0,-5.702292442E0
1.219661864E0,-3.064393282E0,6.900388718E0,-5.871501923E0
1.229606326E0,-3.707023382E0,8.179540634E0,-5.872724056E0
1.239609172E0,-4.170670509E0,9.335907936E0,-5.696183681E0
1.249601941E0,-4.413794994E0,1.026014709E1,-5.382199287E0
1.259606710E0,-4.455944538E0,1.071524239E1,-4.902059078E0
1.269624480E0,-4.243363380E0,1.048799992E1,-4.247822285E0
1.279614749E0,-3.762612343E0,9.759238243E0,-3.448810816E0
1.289607672E0,-3.160909891E0,8.747034073E0,-2.663848877E0
1.299610518E0,-2.568370581E0,7.891211987E0,-2.056038141E0
1.310264903E0,-1.896419048E0,7.200323582E0,-1.523363471E0
1.319602710E0,-1.617253661E0,7.029891968E0,-1.257637024E0
1.329621287E0,-1.396731257E0,7.056770325E0,-1.097590327E0
1.339597941E0,-1.171321988E0,7.039054871E0,-9.839695096E-1
1.349615364E0,-8.915456533E-1,6.830749989E0,-8.196467757E-1
1.359609480E0,-6.264300942E-1,6.549751759E0,-6.565457582E-1
1.369608018E0,-4.889854193E-1,6.290134430E0,-4.512950182E-1
1.379613633E0,-5.225830078E-1,6.067779064E0,-2.466551512E-1
1.389614518E0,-7.736486197E-1,5.859474182E0,-1.428080499E-1
1.399629595E0,-1.225688934E0,5.572978497E0,-7.011508942E-2
1.409616095E0,-1.644742489E0,5.199129105E0,3.495373204E-2
1.419604826E0,-1.878093004E0,4.780075550E0,1.980547458E-1
1.429609556E0,-1.854880214E0,4.365908623E0,3.849795163E-1
1.439599710E0,-1.601981997E0,4.047647953E0,5.010439157E-1
1.449600287E0,7.003691792E-1,3.576671124E0,9.231517911E-1
1.459620441E0,2.032055378E0,3.781310797E0,1.130846024E0
1.469608672E0,2.333212137E0,4.229074955E0,1.108244061E0
1.480347133E0,1.980131865E0,4.465479851E0,1.083198547E0
1.489649479E0,1.548250079E0,4.165544987E0,1.245688677E0
1.499608787E0,1.193337440E0,3.559566736E0,1.515080333E0
1.509617287E0,7.907772660E-1,2.933429956E0,1.538293123E0
1.519605787E0,4.786251187E-1,2.682364225E0,1.190710783E0
1.529598249E0,2.978090048E-1,2.719627142E0,8.339654803E-1
1.539632095E0,1.701381505E-1,2.717794418E0,5.920628309E-1
1.549607479E0,3.208260983E-2,2.689694643E0,5.163155198E-1
1.559609903E0,-9.070130438E-2,2.671979666E0,4.814962149E-1
1.569607479E0,-1.847745478E-1,2.685418606E0,4.033054709E-1
1.579636518E0,-2.757934630E-1,2.576073885E0,1.840048432E-1
1.589627749E0,-2.941194177E-1,2.174124479E0,4.778190330E-2
1.599621172E0,-2.562457919E-1,1.406877637E0,-1.434189230E-1
1.609644633E0,-1.597290635E-1,5.217338800E-1,-2.613159120E-1
1.619672095E0,9.805605561E-2,-1.532722116E-1,-3.437827229E-1
1.629608287E0,3.967691660E-1,-4.782525301E-1,-4.873360693E-1
1.639612633E0,6.044633389E-1,-6.382991672E-1,-6.064547896E-1
1.649598749E0,6.857084036E-1,-8.844779134E-1,-5.270422697E-1
1.659606710E0,7.412971854E-1,-1.246110201E0,-3.847106993E-1
1.669675941E0,7.645100355E-1,-1.477628112E0,-2.429899573E-1
1.680477979E0,6.405044198E-1,-1.379278779E0,-5.545432493E-2
1.689621902E0,5.354355574E-1,-1.246721029E0,-4.323701933E-2
1.699612749E0,5.531506538E-1,-1.303531528E0,-1.550253630E-1
1.709622941E0,6.447804570E-1,-1.442808747E0,-3.822672367E-1
1.719612056E0,8.310943842E-1,-1.748852253E0,-4.274712503E-1
1.729610018E0,8.934026361E-1,-1.840481997E0,-3.541674316E-1
1.739617172E0,9.318871498E-1,-1.814214826E0,-4.244169295E-1
1.749616710E0,1.016797304E0,-1.763513088E0,-2.869722545E-1
1.759600518E0,1.021684289E0,-1.420817614E0,-1.544144899E-1
1.769607749E0,9.404392242E-1,-8.569889665E-1,-5.423259735E-2
1.779619787E0,9.123394489E-1,-3.750163019E-1,-2.919914201E-3
1.789760787E0,9.190589786E-1,2.326784655E-2,-2.185673639E-2
1.799627518E0,9.092851281E-1,2.108034790E-1,-9.943662584E-2
1.809610825E0,8.897374272E-1,1.039020643E-1,-1.806817055E-1
1.819621018E0,8.152118325E-1,-1.398331821E-1,-2.313835174E-1
1.829618672E0,6.789889336E-1,-4.244963825E-1,-3.358414769E-1
1.839608325E0,4.743490517E-1,-6.187515259E-1,-4.537384808E-1
1.850425710E0,1.432600915E-1,-4.568722546E-1,-6.473827362E-1
1.859715556E0,-8.234493434E-3,3.915034235E-2,-6.278350353E-1
1.869609672E0,6.426271051E-3,5.571640730E-1,-5.960700512E-1
1.879608172E0,-7.787313312E-2,1.340293288E0,-4.928338528E-1
1.889637018E0,-1.450683177E-1,1.948715091E0,-5.624724627E-1
1.899605672E0,-1.004751548E-1,2.064779520E0,-6.455501318E-1
1.909631556E0,9.284839034E-4,1.493620396E0,-6.675413251E-1
1.919637864E0,1.212689355E-1,5.913725495E-1,-6.345545650E-1
1.929878056E0,1.902967095E-1,-1.399493404E-2,-7.701666951E-1
1.939606018E0,3.173566759E-1,-4.238855243E-1,-1.080486178E0
1.949616171E0,6.014090180E-1,-9.058581591E-1,-1.244198084E0
1.959641671E0,1.052227497E0,-1.335907340E0,-1.271687031E0
1.970447133E0,1.879339099E0,-1.061017990E0,-1.038336396E0
1.979610671E0,2.368642330E0,-8.930299878E-1,-1.028562665E0
1.989601864E0,2.787084818E0,-1.715981662E-1,-1.005960584E0
1.999610402E0,3.121228218E0,1.063455120E-1,-1.002295375E0
2.009616633E0,3.401615381E0,2.498429269E-3,-8.520225883E-1
2.019601979E0,3.581820726E0,-2.699474692E-1,-6.400523782E-1
2.029663633E0,3.652680874E0,-5.454476476E-1,-5.013859272E-1
2.039641287E0,3.482860565E0,-9.675555825E-1,-5.288748741E-1
2.049595748E0,3.258672953E0,-1.313305378E0,-6.797586083E-1
2.059628979E0,2.912923098E0,-1.319414020E0,-7.579493523E-1
2.069599671E0,2.459661245E0,-1.261992693E0,-8.758463264E-1
2.079603325E0,2.016783714E0,-1.194797516E0,-9.546479583E-1
2.089597171E0,1.338112473E0,-1.158145547E0,-8.624073267E-1
2.099600902E0,6.912062168E-1,-1.196019173E0,-5.588073134E-1
2.109616979E0,7.667577267E-2,-1.064683199E0,-1.397537291E-1
2.119604210E0,-4.333966970E-1,-1.138597846E0,4.814962149E-1
2.129625710E0,-5.567914844E-1,-9.626686573E-1,7.918157578E-1
2.139612441E0,-2.702956796E-1,-4.965784848E-1,1.077700734E0
2.149618556E0,5.285202712E-2,-2.076392174E-1,1.140619874E0
2.159632364E0,2.483288944E-1,1.912557781E-1,1.146117687E0
2.170423671E0,2.196182311E-1,4.227737188E-1,1.071592093E0
2.179622633E0,-2.167353034E-2,3.439720869E-1,9.170431495E-1
2.189620441E0,-1.585073471E-1,7.269846201E-1,9.042149782E-1
2.199616710E0,-1.707246602E-1,1.317691207E0,1.050211787E0
2.209636671E0,-2.006570399E-1,1.828374624E0,1.296390533E0
2.219609979E0,-1.450683177E-1,2.674422979E0,1.625646830E0
2.229615671E0,-3.417669237E-1,3.077594042E0,1.672072649E0
2.239848864E0,-5.262482166E-1,3.407461405E0,1.164443612E0
2.249640940E0,-1.071750998E0,4.076969624E0,5.749586225E-1
2.259655864E0,-1.391233444E0,3.437393665E0,-2.588724494E-1
2.269705094E0,-1.452319980E0,1.715364575E0,-1.193496227E0
2.279656325E0,-1.611755848E0,6.707850099E-1,-1.571010947E0
2.289879094E0,-1.903749347E0,8.729814291E-1,-7.909361124E-1
2.299632748E0,-1.943455577E0,1.326854229E0,-9.222720861E-1
2.309700248E0,-1.799902320E0,1.681766987E0,-8.416379094E-1
2.319638825E0,-1.521958590E0,1.469185829E0,-7.555059195E-1
2.329730364E0,-1.160937309E0,1.381221294E0,-7.695558071E-1
2.339633363E0,-6.465886831E-1,1.190631270E0,-6.767042875E-1
2.349632094E0,-6.443410367E-2,6.909435987E-1,-4.549601972E-1
2.359669325E0,3.827192783E-1,-1.399493404E-2,-3.553891778E-1
2.369652979E0,6.814323664E-1,-4.263289869E-1,-2.588724494E-1
2.379630248E0,1.060779691E0,-6.211949587E-1,-7.561287284E-2
2.390735748E0,1.363157868E0,-1.456247807E0,6.427526474E-2
2.399612402E0,1.732731342E0,-2.307793856E0,1.882809103E-1
2.409619671E0,1.908049703E0,-2.765942812E0,4.314052761E-1
2.419607633E0,1.899497628E0,-2.612615585E0,6.879686713E-1
2.429614133E0,1.574517250E0,-1.957768202E0,4.894374609E-1
2.439618056E0,1.015575647E0,-1.009094477E0,2.603630126E-1
2.449661440E0,4.077647328E-1,-7.874664664E-2,1.009271741E-1
2.459635786E0,3.452607244E-2,3.792861104E-2,-6.095211208E-2
2.469643594E0,-1.963809729E-1,1.594907939E-1,-8.049979806E-2
2.479691133E0,-2.428067327E-1,-4.514906183E-2,-2.307846770E-2
2.489623863E0,-1.004751548E-1,-6.456295848E-1,3.067767248E-2
2.499923710E0,1.176037490E-1,-1.215566874E0,1.278052479E-1
2.509697710E0,-2.562457919E-1,3.647415042E-1,1.455203295E-1
2.519610325E0,-7.614313364E-1,1.154590249E0,1.907123625E-2
2.529625325E0,-8.255721927E-1,1.087395072E0,2.823421359E-2
2.539617363E0,-6.899601221E-1,8.784791827E-1,-1.696981490E-2
2.549604709E0,-4.199576676E-1,4.233845770E-1,-1.269375719E-2
2.559664094E0,-1.218554303E-1,1.405539811E-1,-2.918712050E-2
2.569651133E0,7.056712359E-2,9.412821382E-2,-6.585106254E-3
2.579620748E0,1.518121958E-1,9.534994513E-2,7.464796305E-3
2.589627286E0,1.811337322E-1,1.228388771E-1,7.464796305E-3
2.599614748E0,1.915184259E-1,1.857579947E-1,1.784950495E-2
2.609632363E0,1.896858513E-1,2.535640299E-1,3.128853813E-2
2.619620133E0,1.695272923E-1,3.250352740E-1,5.755574629E-2
2.629619286E0,1.218798012E-1,4.020043015E-1,7.527083158E-2
2.640855863E0,2.841741964E-2,4.997427166E-1,9.359678626E-2
2.649664325E0,-1.514978707E-3,5.156252384E-1,9.909458458E-2
2.659628517E0,9.284839034E-4,4.838602245E-1,9.909458458E-2
2.669620286E0,2.780655399E-2,4.337692857E-1,9.542939067E-2
2.679607171E0,6.690192968E-2,3.842892051E-1,8.687727153E-2
2.689623363E0,1.011103839E-1,3.506916165E-1,7.588170469E-2
2.699608248E0,1.273775846E-1,3.341982365E-1,7.404910028E-2
2.709652902E0,1.414274871E-1,3.262569904E-1,7.893602550E-2
2.719629171E0,1.402057558E-1,3.341982365E-1,9.176419675E-2
2.729634863E0,1.347079724E-1,3.506916165E-1,1.131444722E-1
2.739612748E0,1.292101741E-1,3.732936382E-1,1.326921731E-1
2.749619709E0,1.255449951E-1,3.903978467E-1,1.516289860E-1
2.759830786E0,1.200472042E-1,3.965065181E-1,1.559050530E-1
2.769628517E0,1.102733612E-1,3.855109215E-1,1.436877400E-1
2.779678325E0,8.095183223E-2,3.537459373E-1,1.290269792E-1
2.789607479E0,1.436751708E-2,2.865507603E-1,9.604024887E-2
2.799606979E0,-2.656045556E-2,2.389032841E-1,7.649256289E-2
2.809606671E0,-4.794073850E-2,1.741515696E-1,5.877747759E-2
2.819606017E0,-4.732987285E-2,9.534994513E-2,3.984064981E-2
2.829601632E0,-3.144737333E-2,1.227227226E-2,2.945594117E-2
2.839609786E0,-1.739747822E-2,-6.103155762E-2,2.334729210E-2
2.849603325E0,-1.984093338E-2,-1.068464518E-1,2.823421359E-2
2.859640632E0,-3.144737333E-2,-1.172311604E-1,4.045151547E-2
2.869647171E0,-5.038420111E-2,-1.092899144E-1,5.938834324E-2
2.879621902E0,-7.176447660E-2,-9.218568355E-2,7.954689860E-2
2.889628748E0,-1.010860130E-1,-6.408588588E-2,9.787285328E-2
2.899634902E0,-1.310184002E-1,1.288313791E-2,1.180313975E-1
2.909658748E0,-1.615616679E-1,6.358495355E-2,1.278052479E-1
2.919620248E0,-2.024896443E-1,8.496523649E-2,1.320813000E-1
2.929610017E0,-2.244807780E-1,1.002368703E-1,1.271943748E-1
2.939668748E0,-2.434176207E-1,1.503278315E-1,1.125336140E-1
2.949711094E0,-2.507479787E-1,2.144686580E-1,8.870987594E-2
2.959646286E0,-2.397524118E-1,2.547857761E-1,6.305353343E-2
2.969630671E0,-2.055439651E-1,2.486771047E-1,4.533844069E-2
2.979639286E0,-1.432357132E-1,2.303511500E-1,3.617546335E-2
2.989630863E0,-6.382323056E-2,2.126360536E-1,2.823421359E-2
2.999635171E0,7.037132978E-3,1.967535615E-1,1.784950495E-2
3.009629863E0,5.712808669E-2,1.790384948E-1,2.577874810E-3
3.019611209E0,8.461701870E-2,1.515495479E-1,-1.696981490E-2
3.029618863E0,1.078298986E-1,1.130650416E-1,-3.163057938E-2
3.039618709E0,1.377623081E-1,7.274793088E-2,-4.629134759E-2
3.049625325E0,1.628077626E-1,3.426341712E-2,-5.789778382E-2
3.059635055E0,1.829663217E-1,6.658323109E-4,-7.439114898E-2
3.069634248E0,1.805228591E-1,-1.216233894E-2,-8.660845459E-2
3.079625863E0,1.902967095E-1,1.288313791E-2,-8.905191720E-2
3.089712363E0,2.055683434E-1,3.365255147E-2,-8.660845459E-2
3.099634363E0,2.238942981E-1,6.480668485E-2,-7.988893986E-2
3.109628248E0,2.464963198E-1,9.412821382E-2,-7.805633545E-2
3.119619094E0,2.690983117E-1,1.100107059E-1,-7.622374594E-2
3.129800863E0,2.880351543E-1,1.057346538E-1,-7.316941768E-2
3.139622748E0,2.910894752E-1,1.045129225E-1,-6.889335811E-2
3.149602094E0,2.745961249E-1,1.093998477E-1,-6.767162681E-2
3.159605671E0,2.495506406E-1,1.161193624E-1,-6.767162681E-2
3.172296209E0,2.049574852E-1,1.405539811E-1,-6.706076860E-2
3.190074863E0,1.377623081E-1,1.607125401E-1,-7.744547725E-2
3.199621940E0,9.622345865E-2,1.655994356E-1,-8.172152936E-2
3.209603286E0,5.346289277E-2,1.717081070E-1,-8.783018589E-2
3.219609632E0,1.009146124E-2,1.747624278E-1,-8.966277540E-2
3.229601286E0,-2.778218687E-2,1.735406816E-1,-9.088450670E-2
3.239631901E0,-6.137976795E-2,1.692646444E-1,-9.027364850E-2
3.249603440E0,-9.742081910E-2,1.613233984E-1,-8.477585763E-2
3.259619478E0,-1.414031088E-1,1.527712643E-1,-8.111066371E-2
3.269627555E0,-1.853854060E-1,1.423865557E-1,-7.805633545E-2
3.279609094E0,-2.214264572E-1,1.203954145E-1,-7.500201464E-2
3.289666132E0,-2.373089492E-1,9.351735562E-2,-7.439114898E-2
3.299619478E0,-2.409741580E-1,7.152619958E-2,-8.294326067E-2
3.309621863E0,-2.366980910E-1,4.586985707E-2,-9.393883497E-2
3.319659709E0,-2.409741580E-1,2.632217109E-2,-1.079887301E-1
3.329607286E0,-2.397524118E-1,6.774485111E-3,-1.183734387E-1
3.339605170E0,-2.464719415E-1,5.552753806E-3,-1.287581474E-1
3.349598478E0,-2.495262623E-1,9.217943996E-3,-1.305907518E-1
3.359604863E0,-2.599109709E-1,6.163619459E-3,-1.226495057E-1
3.369609324E0,-2.617435753E-1,1.899179071E-2,-1.208169013E-1
3.379601363E0,-2.593001127E-1,3.609601408E-2,-1.269255579E-1
3.389609555E0,-2.544131875E-1,4.831331968E-2,-1.281472892E-1
3.399623517E0,-2.721282840E-1,3.976120800E-2,-1.299798787E-1
3.409663478E0,-3.118345141E-1,9.217943996E-3,-1.214277744E-1
3.419768440E0,-3.515407443E-1,-3.781867772E-2,-1.098213345E-1
3.429617017E0,-3.594819903E-1,-1.013486683E-1,-1.085996032E-1
3.439623670E0,-3.387125731E-1,-2.467345893E-1,-1.110430658E-1
3.449651786E0,-3.985773921E-1,-4.538179040E-1,-8.538672328E-2
3.459670132E0,-6.074932814E-1,-5.875973701E-1,-1.635894924E-2
3.469621863E0,-6.643037796E-1,-3.860118687E-1,3.617546335E-2
3.479632786E0,-6.300953031E-1,-2.125261426E-1,1.180313975E-1
3.489629440E0,-4.969266653E-1,-2.265760303E-1,2.212676406E-1
3.499627517E0,-2.831238508E-1,-3.157623708E-1,2.878519297E-1
3.509613247E0,-6.626669317E-2,-3.408078551E-1,2.939606011E-1
3.519620555E0,3.513693810E-2,-2.717800736E-1,2.786889672E-1
3.529607055E0,7.911923528E-2,-1.905349791E-1,2.212676406E-1
3.539660478E0,1.121059582E-1,-7.874664664E-2,8.137948811E-2
3.549649824E0,1.334862411E-1,-5.186858028E-2,-9.943662584E-2
3.559664170E0,2.135095894E-1,-1.917567253E-1,-2.209988087E-1
3.569637709E0,3.314065933E-1,-3.994508982E-1,-2.826961875E-1
3.579638978E0,4.462492466E-1,-5.026870966E-1,-2.717006207E-1
3.589612401E0,5.336029530E-1,-4.403788745E-1,-2.466551512E-1
3.599616824E0,6.221784353E-1,-2.222999930E-1,-2.319943905E-1
3.609609401E0,6.734911203E-1,-7.874664664E-2,-2.100032419E-1
3.619622555E0,7.046452761E-1,3.304169327E-2,-1.861794889E-1
3.629654709E0,7.131973505E-1,1.234497502E-1,-1.727404594E-1
3.639723978E0,6.985365748E-1,2.065274119E-1,-1.709078550E-1
3.649870709E0,6.698259115E-1,3.030441105E-1,-2.087815106E-1
3.659620939E0,6.368392110E-1,3.928413093E-1,-2.710897624E-1
3.669702632E0,6.221784353E-1,4.398779273E-1,-3.474479020E-1
3.679619478E0,6.050742269E-1,4.789732993E-1,-4.109779000E-1
3.689621324E0,5.751418471E-1,4.679777324E-1,-4.396885633E-1
3.699612978E0,5.329921246E-1,3.671849668E-1,-4.415211678E-1
3.709609132E0,4.920641482E-1,1.729298234E-1,-4.341907799E-1
3.719675863E0,4.700729847E-1,5.496665835E-5,-4.158648252E-1
3.729622401E0,4.328102171E-1,6.908273697E-2,-4.036475122E-1
3.739656093E0,4.383080006E-1,1.442191601E-1,-4.256386757E-1
3.749602747E0,4.651860893E-1,2.028622329E-1,-4.445754886E-1
3.759645901E0,4.578557014E-1,2.834964395E-1,-4.543493390E-1
3.769619401E0,3.485108018E-1,4.911906421E-1,-5.050511360E-1
3.779602055E0,1.420383453E-1,9.016920924E-1,-5.972918272E-1
3.789601362E0,-1.090272591E-1,1.547987461E0,-7.127453089E-1
3.799602209E0,-3.130562603E-1,2.088603258E0,-8.398053050E-1
3.809600901E0,-4.492791891E-1,2.145413876E0,-9.680870175E-1
3.819647862E0,-5.176960826E-1,1.726360083E0,-1.051164627E0
3.829636016E0,-5.482393503E-1,1.251106977E0,-1.098812103E0
3.839658439E0,-4.382836223E-1,9.554482102E-1,-1.102477312E0
3.849698824E0,-1.890506148E-1,9.096333385E-1,-1.100644708E0
3.859691093E0,2.336681485E-1,1.097779751E0,-1.090870857E0
3.869646362E0,3.869953156E-1,1.108164430E0,-1.097590327E0
3.880879939E0,3.955474496E-1,1.097779751E0,-1.108585954E0
3.890761978E0,3.998234868E-1,1.110607982E0,-1.049942851E0
3.907840055E0,6.398935318E-1,1.040358424E0,-8.410270214E-1
3.922743632E0,8.188770413E-1,9.151311517E-1,-7.402342558E-1
3.939626478E0,8.976786733E-1,8.192253113E-1,-6.681521535E-1
3.949601362E0,9.105068445E-1,8.070079684E-1,-6.253916025E-1
3.959615632E0,9.037873149E-1,8.308317065E-1,-5.807984471E-1
3.969613170E0,8.970677853E-1,8.479359746E-1,-5.667485595E-1
3.979600055E0,8.866831064E-1,8.821443915E-1,-5.563638210E-1
3.989607939E0,8.549181223E-1,9.743850827E-1,-5.484225750E-1
3.999663324E0,8.469768763E-1,1.003095627E0,-5.453682542E-1
4.009612324E0,8.604158759E-1,9.200180769E-1,-5.417030454E-1
4.019610247E0,8.469768763E-1,8.406055570E-1,-5.398704410E-1
4.029652516E0,8.200987577E-1,8.057862520E-1,-5.386487246E-1
4.039628132E0,8.103249669E-1,7.862385511E-1,-5.423139334E-1
4.049990632E0,8.219313622E-1,8.021210432E-1,-5.355944037E-1
4.059602824E0,8.408681750E-1,8.375512362E-1,-5.197119117E-1
4.069629131E0,8.518638015E-1,8.552663326E-1,-5.001642108E-1
4.079633631E0,8.585832715E-1,8.723705411E-1,-4.677883685E-1
4.089623016E0,8.695788980E-1,9.187963009E-1,-4.189191461E-1
4.099636862E0,8.958460689E-1,9.701090455E-1,-3.498913646E-1
4.109609016E0,9.056199193E-1,1.050743103E0,-2.454334199E-1
4.119639208E0,8.634701967E-1,1.144816399E0,-1.519710273E-1
4.129605593E0,6.679933667E-1,1.372058272E0,-9.821489453E-2
4.139615324E0,4.957293272E-1,1.540046215E0,-1.220386326E-1
4.149608824E0,3.161349595E-1,1.686653852E0,-2.106141001E-1
4.159609131E0,1.854097843E-1,1.579752445E0,-2.765875459E-1
4.169619862E0,5.163029581E-2,1.386718988E0,-3.908193409E-1
4.179605324E0,-4.366467893E-2,1.168029308E0,-5.099380612E-1
4.189604708E0,-1.389596462E-1,1.208957195E0,-5.691919923E-1
4.199614670E0,-2.195938528E-1,1.533937573E0,-5.820201635E-1
4.209622285E0,-2.635761499E-1,1.888239384E0,-5.630833507E-1
4.219617324E0,-3.008389473E-1,1.981701732E0,-4.354125261E-1
4.229616016E0,-3.851383328E-1,1.860139608E0,-1.483058482E-1
4.239620131E0,-5.500719547E-1,1.584639430E0,1.186422706E-1
4.249623593E0,-7.705942988E-1,1.095947146E0,2.182132900E-1
4.259623093E0,-1.061366200E0,4.893580377E-1,2.310414612E-1
4.269626670E0,-1.554334521E0,-3.450838923E-1,2.285979986E-1
4.279624477E0,-1.808454394E0,-7.891829014E-1,3.434406817E-1
4.289615824E0,-1.969722867E0,-1.065294027E0,5.890085101E-1
4.300738554E0,-2.050967693E0,-1.128823996E0,9.469755292E-1
4.309616208E0,-2.044859171E0,-9.987096786E-1,1.442998171E0
4.319637054E0,-1.929405689E0,-7.720786929E-1,2.044089556E0
4.329627208E0,-1.738204956E0,-5.698822737E-1,2.593257427E0
4.339772247E0,-1.487139344E0,-3.988400400E-1,2.943893909E0
4.349622631E0,-1.239127994E0,-3.744054437E-1,2.973826408E0
4.359645593E0,-1.129783154E0,-6.303579211E-1,2.510179758E0
4.369614131E0,-1.228743315E0,-8.227804899E-1,1.615262151E0
4.379615093E0,-1.378405333E0,-8.197261691E-1,6.714752913E-1
4.389619554E0,-1.480419755E0,-1.177082419E0,1.278052479E-1
4.399670824E0,-1.577547312E0,-1.814214826E0,-1.666318029E-1
4.409609708E0,-1.693611741E0,-2.065280437E0,-2.057271749E-1
4.419625747E0,-1.890921235E0,-2.428134203E0,-9.332796931E-2
4.429651477E0,-2.088841438E0,-2.800762177E0,3.984064981E-2
4.439604670E0,-2.124271631E0,-3.150177002E0,1.430768818E-1
4.449851747E0,-1.955062032E0,-3.258911133E0,2.689151168E-1
4.459605400E0,-1.636190414E0,-2.974247932E0,4.650028646E-1
4.469611093E0,-1.319151402E0,-2.309015512E0,7.136250138E-1
4.479604400E0,-1.121841908E0,-1.557651401E0,8.486262560E-1
4.489603823E0,-9.831754565E-1,-9.144102931E-1,9.396451712E-1
4.499608785E0,-7.595987320E-1,-6.315796971E-1,9.934013486E-1
4.509640093E0,-5.598458052E-1,-4.580939710E-1,9.811839461E-1
4.519645208E0,-4.266771674E-1,-4.208312035E-1,9.518624544E-1
4.529686593E0,-3.765862286E-1,-5.466694236E-1,9.158214331E-1
4.539730323E0,-4.272880554E-1,-6.059233546E-1,8.651195765E-1
4.550249477E0,-4.682160020E-1,-6.450186968E-1,7.673811316E-1
4.559608362E0,-4.535552263E-1,-6.810597777E-1,6.574254036E-1
4.569615323E0,-3.753645122E-1,-7.922372222E-1,5.535783172E-1
4.579621170E0,-2.605218291E-1,-9.926010370E-1,4.314052761E-1
4.589644939E0,-1.230771616E-1,-1.172195435E0,2.854084671E-1
4.599671631E0,1.375665143E-2,-1.257105708E0,9.054246545E-2
4.609670900E0,1.591425836E-1,-1.242444992E0,-1.202060431E-1
4.619737362E0,2.959764004E-1,-1.104389429E0,-3.492805064E-1
4.629626054E0,3.992126286E-1,-9.095233679E-1,-5.588073134E-1
4.639691939E0,4.682404101E-1,-7.769656181E-1,-7.255734801E-1
4.649639554E0,5.134444237E-1,-6.951096654E-1,-8.379727006E-1
4.659625516E0,5.500963330E-1,-6.395209432E-1,-9.173851609E-1
4.669631708E0,6.007981896E-1,-5.827104449E-1,-9.729739428E-1
4.679610670E0,6.405044198E-1,-5.491128564E-1,-9.344894290E-1
4.689605016E0,6.649389863E-1,-4.477092624E-1,-8.263662457E-1
4.701182246E0,6.441695690E-1,-2.369607389E-1,-6.785368919E-1
4.709802323E0,5.775852799E-1,6.774485111E-3,-5.588073134E-1
4.719628208E0,4.712947309E-1,1.869797409E-1,-4.427428842E-1
4.729603708E0,3.271305263E-1,1.717081070E-1,-1.935098767E-1
4.739611708E0,1.487578750E-1,1.252823472E-1,2.078285962E-1
4.749598708E0,-7.787313312E-2,2.358489335E-1,5.120394826E-1
4.759598939E0,-3.710884452E-1,4.105564058E-1,6.458189487E-1
4.769604016E0,-7.235577106E-1,-6.347502023E-2,7.716572285E-1
4.779607862E0,-1.110846281E0,-7.012183070E-1,7.466117144E-1
4.789609285E0,-1.510352135E0,-1.144706488E0,5.126503706E-1
4.799640054E0,-1.829834700E0,-1.491067171E0,2.090382949E-2
4.809646977E0,-1.581823468E0,-1.491677999E0,-2.796418667E-1
4.819760477E0,-1.039985895E0,-1.488623619E0,-5.655267835E-1
4.829643900E0,-4.865419865E-1,-1.371948361E0,-7.964338660E-1
4.839628092E0,-1.627834141E-1,-1.510614872E0,-8.184249997E-1
4.849647131E0,1.634186357E-1,-1.742743611E0,-7.176322341E-1
4.859633246E0,6.356174946E-1,-2.038402319E0,-5.551421046E-1
4.869618862E0,9.245567322E-1,-2.240598679E0,-2.943026423E-1
4.879614516E0,8.787418604E-1,-2.012135029E0,5.327968672E-2
4.889612631E0,6.111828685E-1,-1.438532710E0,3.300016522E-1
4.899651516E0,2.959764004E-1,-1.050022483E0,5.144829154E-1
4.909616862E0,1.585317254E-1,-9.651120901E-1,6.830817461E-1
4.919619131E0,2.019031346E-1,-8.997495174E-1,7.838745117E-1
4.929619477E0,2.959764004E-1,-7.580288053E-1,7.618833780E-1
4.939610362E0,3.527868688E-1,-4.984110892E-1,5.040982366E-1
4.949628400E0,3.747780323E-1,-3.475273550E-1,2.316523492E-1
4.959615977E0,4.719055891E-1,-3.359209299E-1,-1.018800884E-1
4.969617362E0,5.916351676E-1,-3.304231465E-1,-4.079235792E-1
4.979653054E0,6.704367995E-1,-2.595627606E-1,-7.286278009E-1
4.989623131E0,7.211385965E-1,-1.270050108E-1,-1.068879724E0
4.999619208E0,8.481985927E-1,5.381111056E-2,-1.373701453E0
5.009608323E0,9.496021867E-1,3.861217797E-1,-1.658364654E0
5.019623746E0,8.207096457E-1,9.047464132E-1,-1.887439132E0
5.029657362E0,6.967040300E-1,1.014091253E0,-1.878887057E0
5.039611246E0,6.288979650E-1,4.423213899E-1,-1.611328006E0
5.049628015E0,5.696440339E-1,-3.346991837E-1,-1.245419741E0
5.059610708E0,6.172915101E-1,-4.379354119E-1,-8.764572144E-1
5.069637246E0,6.460021734E-1,3.299221992E-1,-6.913650632E-1
5.080678131E0,4.987836778E-1,6.316896677E-1,-7.493972182E-1
5.089610131E0,2.733743787E-1,5.418924689E-1,-8.556877971E-1
5.099665554E0,5.834981427E-2,4.527060986E-1,-9.851912260E-1
5.109607362E0,-5.710371584E-2,7.343150377E-1,-1.108585954E0
5.119611900E0,-7.787313312E-2,1.122825265E0,-1.238089442E0
5.129614938E0,6.384760141E-2,1.461855412E0,-1.312004089E0
5.139612169E0,3.246870637E-1,1.670771360E0,-1.279628277E0
5.149646015E0,5.562049747E-1,1.650612831E0,-1.234424233E0
5.159676708E0,6.502782702E-1,1.596245766E0,-1.195939660E0
5.169613592E0,5.891917348E-1,1.726971030E0,-1.075599194E0
5.179604169E0,4.688512683E-1,1.974371314E0,-8.990592360E-1
5.189614131E0,5.189421773E-1,1.748962164E0,-8.080403209E-1
5.199612131E0,7.993293405E-1,1.146649003E0,-8.086511493E-1
5.209606900E0,1.130418301E0,7.025499940E-1,-7.744427323E-1
5.219650554E0,1.210441589E0,6.347439885E-1,-7.665014863E-1
5.229732861E0,1.272138953E0,5.510554314E-1,-7.579493523E-1
5.239604592E0,1.333225489E0,4.465974569E-1,-7.463428974E-1
5.249603977E0,1.383927345E0,3.812348843E-1,-7.487863898E-1
5.259602323E0,1.420579314E0,3.213700652E-1,-7.121344805E-1
5.269610131E0,1.464561582E0,1.985861659E-1,-6.638761163E-1
5.279604938E0,1.501213431E0,7.152619958E-2,-6.486044526E-1
5.289604554E0,1.512209058E0,-3.415348753E-2,-6.528805494E-1
5.299615054E0,1.478000641E0,-7.691405714E-2,-6.705956459E-1
5.309606323E0,1.394312024E0,-7.019453496E-2,-7.286278009E-1
5.319601784E0,1.254423857E0,3.120909631E-2,-8.092620373E-1
5.329602208E0,1.066277385E0,1.778167486E-1,-8.862310648E-1
5.339647169E0,7.785599232E-1,3.549676538E-1,-9.558696747E-1
5.349603900E0,5.733092427E-1,5.321186185E-1,-9.094439149E-1
5.359644092E0,2.990307212E-1,7.862385511E-1,-8.257554173E-1
5.369600477E0,7.056712359E-2,6.927762032E-1,-7.713884115E-1
5.380135361E0,-3.755602986E-2,5.333403349E-1,-6.736499667E-1
5.389597977E0,-1.065837964E-1,3.940630555E-1,-6.321111321E-1
5.399630977E0,-2.990063429E-1,2.358489335E-1,-6.278350353E-1
5.409632131E0,-4.902071953E-1,-1.044029891E-1,-5.826310515E-1
5.419655631E0,-6.239866614E-1,-1.129551008E-1,-4.476298094E-1
5.429677823E0,-6.722450256E-1,1.863688529E-1,-2.436008304E-1
5.439635592E0,-7.498248816E-1,2.804421186E-1,-9.882575274E-2
5.449624054E0,-9.788994193E-1,1.484952271E-1,1.064249575E-1
5.459622323E0,-1.254399657E0,-1.031812578E-1,3.617666364E-1
5.469623092E0,-1.484695792E0,-4.281615913E-1,7.331727147E-1
5.479641054E0,-1.770580769E0,-1.052465916E0,1.002564311E0
5.489608784E0,-1.868319273E0,-1.531995058E0,1.362974882E0
5.499687323E0,-1.844495416E0,-1.980370164E0,1.791802287E0
5.509648784E0,-1.758363485E0,-2.120258331E0,2.213299036E0
5.519830130E0,-1.611144900E0,-1.982813597E0,2.656787395E0
5.530607823E0,-1.308766603E0,-1.828264713E0,3.036745548E0
5.539619515E0,-9.025412202E-1,-1.886296988E0,3.226113796E0
5.549626861E0,-6.490321159E-1,-1.834373355E0,3.031858444E0
5.559651515E0,-7.614313364E-1,-1.651724696E0,2.107008696E0
5.569618515E0,-1.271503925E0,-1.267490506E0,8.608435392E-1
5.579622130E0,-1.644742489E0,-3.340883255E-1,2.414261699E-1
5.589669784E0,-1.853047609E0,-1.888185553E-2,-4.764534533E-4
5.599732938E0,-1.997211814E0,-7.726895213E-1,-3.523348272E-1
5.609640207E0,-2.212236166E0,-2.891170263E0,-4.995533526E-1
5.619641746E0,-2.346015692E0,-3.969958067E0,-4.641231894E-1
5.629639130E0,-2.360676527E0,-4.277223587E0,-2.478768826E-1
5.639675400E0,-2.278820515E0,-4.119009495E0,-1.513721980E-2
5.649720053E0,-2.126715183E0,-3.681629896E0,2.340958118E-1
5.659640092E0,-1.848160625E0,-3.193548441E0,4.894374609E-1
5.669656169E0,-1.389400840E0,-2.781825304E0,6.531493664E-1
5.679711092E0,-8.585588932E-1,-2.339558840E0,6.574254036E-1
5.689637015E0,-3.900252581E-1,-1.918061972E0,5.737368464E-1
5.699618630E0,-6.015803665E-2,-1.528329968E0,5.059308410E-1
5.709606092E0,1.035538465E-1,-1.172806382E0,4.931026697E-1
5.719653323E0,8.522788435E-2,-8.258348107E-1,4.705006480E-1
5.729628400E0,-2.717132121E-2,-5.686605573E-1,4.167445004E-1
5.739618400E0,-2.092091441E-1,-3.805140853E-1,2.957931757E-1
5.749618400E0,-2.843455672E-1,-2.601736188E-1,1.888917685E-1
5.759605515E0,-3.154996932E-1,-3.585229516E-1,7.465997338E-2
5.769672400E0,-3.130562603E-1,-6.089776754E-1,-5.423259735E-2
5.779631015E0,-2.843455672E-1,-8.973060846E-1,-1.965641975E-1
5.789657861E0,-2.342546284E-1,-1.135543585E0,-3.682173491E-1
5.799739169E0,-1.261314750E-1,-1.302309752E0,-5.746898055E-1
5.809623553E0,3.635866567E-2,-1.376835346E0,-7.475646734E-1
5.819615592E0,2.318355441E-1,-1.368283272E0,-8.715702891E-1
5.829617823E0,4.401406050E-1,-1.350568175E0,-9.754173756E-1
5.839653053E0,6.569977403E-1,-1.340794325E0,-1.061549306E0
5.849653784E0,8.610267639E-1,-1.303531528E0,-1.103088140E0
5.859611861E0,1.045508027E0,-1.169752002E0,-1.079875231E0
5.869609592E0,1.161572337E0,-9.602251649E-1,-9.308242202E-1
5.879655361E0,1.160961509E0,-4.758090675E-1,-5.795767307E-1
5.889632822E0,1.132250905E0,-1.129551008E-1,-3.303436935E-1
5.899680784E0,1.116368413E0,1.918666661E-1,2.640161663E-2
5.909614707E0,1.035734177E0,1.869797409E-1,3.306125104E-1
5.919610630E0,8.072705865E-1,-3.017124832E-1,4.369030595E-1
5.929733707E0,4.034886956E-1,-8.392738700E-1,3.336668313E-1
5.939627899E0,-1.414031088E-1,-1.263825297E0,1.131444722E-1
5.949736284E0,-6.288735867E-1,-1.679824471E0,-9.577143192E-2
5.959611746E0,-8.799391985E-1,-2.021298170E0,-2.674245536E-1
5.969652092E0,-9.642385840E-1,-2.183177233E0,-5.178793073E-1
5.979648169E0,-1.019827366E0,-2.286413670E0,-7.249626517E-1
5.989612630E0,-1.002723217E0,-2.426301718E0,-8.385835886E-1
5.999672630E0,-8.445090055E-1,-2.470283985E0,-9.491502047E-1
6.009760361E0,-3.918578625E-1,-2.107429981E0,-9.967976809E-1
6.019632015E0,-1.304075420E-1,-1.714643836E0,-8.898962736E-1
6.029619669E0,5.163029581E-2,-1.415930748E0,-7.170214057E-1
6.039618015E0,1.860206425E-1,-1.259549260E0,-5.148249865E-1
6.049700130E0,2.636005282E-1,-1.323690057E0,-3.443935812E-1
6.059613515E0,2.385550737E-1,-1.549099326E0,-2.026728541E-1
6.069615207E0,1.713598967E-1,-1.762291312E0,-8.783018589E-2
6.079622822E0,1.408166289E-1,-1.869192719E0,1.540604234E-2
6.089654245E0,1.964053512E-1,-1.855753660E0,1.253617853E-1
6.099701361E0,2.941437960E-1,-1.751295686E0,2.084394544E-1
6.109687130E0,3.955474496E-1,-1.513669133E0,2.212676406E-1
6.119644438E0,5.012271404E-1,-1.155702114E0,1.601811051E-1
6.130728976E0,6.392826438E-1,-7.842959762E-1,-1.220386326E-1
6.139677899E0,6.423370242E-1,-8.142283559E-1,-3.938736618E-1
6.149627938E0,4.969510734E-1,-1.068959236E0,-6.516588330E-1
6.161869553E0,3.393478394E-1,-1.155702114E0,-8.648507595E-1
6.179662245E0,6.445846707E-2,-8.973060846E-1,-1.300397635E0
6.189625399E0,4.063472152E-2,-7.372593880E-1,-1.292456388E0
6.199627515E0,8.278442919E-2,-6.786162853E-1,-1.146459579E0
6.209873938E0,2.300029397E-1,-8.386629820E-1,-9.448741078E-1
6.219625553E0,4.853446186E-1,-1.231449366E0,-7.194648385E-1
6.229616630E0,7.571796775E-1,-1.506338716E0,-5.245988369E-1
6.239617553E0,8.365921378E-1,-1.144706488E0,-5.374270082E-1
6.249625015E0,6.850975752E-1,-3.970074356E-1,-6.516588330E-1
6.259610438E0,4.163168669E-1,3.433612287E-1,-6.864781380E-1
6.269628438E0,1.157711446E-1,8.283882737E-1,-7.652797699E-1
6.279625130E0,-9.619908780E-2,1.182079196E0,-9.986302853E-1
6.289606707E0,-4.610814154E-2,1.096558094E0,-1.179446340E0
6.299655015E0,6.506933272E-2,8.186144233E-1,-1.269243479E0
6.309612091E0,1.023321152E-1,6.817805767E-1,-1.257637024E0
6.319608668E0,2.104552686E-1,3.702392876E-1,-1.318723559E0
6.329654322E0,3.546194732E-1,1.918666661E-1,-1.437842369E0
6.339660399E0,4.456383884E-1,3.323656619E-1,-1.530082941E0
6.349622168E0,4.914532900E-1,5.541097522E-1,-1.542300224E0
6.359611553E0,5.617027879E-1,5.015753508E-1,-1.516033053E0
6.369611130E0,6.136263013E-1,3.232026696E-1,-1.454335690E0
6.379630361E0,6.783780456E-1,1.471573114E-2,-1.374312282E0
6.389615130E0,7.687861323E-1,-3.420295715E-1,-1.304062843E0
6.399614514E0,8.683571219E-1,-6.657881141E-1,-1.234424233E0
6.409960284E0,1.051616669E0,-9.480078816E-1,-1.103088140E0
6.419622361E0,1.166459322E0,-1.007261872E0,-1.034060359E0
6.429615322E0,1.255034804E0,-1.016424775E0,-9.717522264E-1
6.439603168E0,1.315510392E0,-9.877141118E-1,-9.198286533E-1
6.449653899E0,1.360103607E0,-9.345688224E-1,-8.709594607E-1
6.459632091E0,1.399809837E0,-8.905865550E-1,-8.110946417E-1
6.469611745E0,1.422411799E0,-8.954734802E-1,-7.671123147E-1
6.479607976E0,1.402864218E0,-9.638903737E-1,-7.390125394E-1
6.489610245E0,1.343610287E0,-1.064683199E0,-7.335147262E-1
6.499663476E0,1.261754274E0,-1.155091286E0,-7.542841434E-1
6.509680284E0,1.160961509E0,-1.191132307E0,-7.860491872E-1
6.519627591E0,1.008856058E0,-1.131267548E0,-8.214793205E-1
6.529625476E0,7.871120572E-1,-9.901575446E-1,-8.251445293E-1
6.539653860E0,5.128335357E-1,-7.219877243E-1,-7.438994646E-1
6.549625976E0,1.127168238E-1,-1.172311604E-1,-4.714535475E-1
6.559618284E0,-1.984093338E-2,5.136764795E-2,-2.869722545E-1
6.569619168E0,-1.542312801E-1,1.497169435E-1,-7.927806675E-2
6.579633091E0,-3.100019097E-1,1.454409063E-1,9.359678626E-2
6.589623360E0,-4.541661143E-1,-8.729876578E-2,1.540724486E-1
6.599654822E0,-5.677870512E-1,-5.747691989E-1,1.809505224E-1
6.609628822E0,-7.369967103E-1,-8.227804899E-1,3.086213470E-1
6.619658899E0,-9.801210761E-1,-8.783692122E-1,4.967678785E-1
6.629632014E0,-1.267838717E0,-1.004818320E0,6.873577833E-1
6.639677322E0,-1.504243493E0,-1.304753184E0,9.372016788E-1
6.649614668E0,-1.590986371E0,-1.632787824E0,1.301277399E0
6.659625399E0,-1.502410889E0,-1.966320276E0,1.744154692E0
6.669628283E0,-1.270892978E0,-2.334671974E0,2.203525305E0
6.679629014E0,-9.660711884E-1,-2.558859348E0,2.732534647E0
6.689609168E0,-9.147585034E-1,-2.624832869E0,2.984822035E0
6.699617245E0,-9.349170327E-1,-2.549696445E0,3.168081522E0
6.709629437E0,-9.459126592E-1,-2.410419226E0,3.155864239E0
6.719619207E0,-9.972253442E-1,-2.185620785E0,2.535835981E0
6.729638514E0,-1.294105887E0,-1.615683675E0,1.162000179E0
6.739625976E0,-1.809065342E0,-9.651120901E-1,-1.220386326E-1
6.749634668E0,-2.203684092E0,-6.297470927E-1,-6.333328485E-1
6.759632476E0,-2.423595667E0,-8.875322342E-1,-8.037642837E-1
6.769662476E0,-2.506062508E0,-1.864305854E0,-8.929505944E-1
6.779645553E0,-2.495066881E0,-3.047551632E0,-8.477465510E-1
6.789689937E0,-2.369228601E0,-3.985229731E0,-8.532443643E-1
6.799652783E0,-2.233616590E0,-4.602814674E0,-9.515936375E-1
6.809648399E0,-2.102280378E0,-4.911301613E0,-9.344894290E-1
6.819624860E0,-1.770580769E0,-4.764694214E0,-6.620435119E-1
6.829682822E0,-1.471867681E0,-4.239349842E0,-4.262495339E-1
6.839618783E0,-1.192091346E0,-3.438505411E0,-1.385319978E-1
6.849637899E0,-9.245323539E-1,-2.823364019E0,6.794045866E-2
6.859638937E0,-7.241685390E-1,-2.533203125E0,1.333030313E-1
6.869613053E0,-6.129910946E-1,-2.396980286E0,1.974438876E-1
6.879623129E0,-6.514756083E-1,-2.158131838E0,2.212676406E-1
6.889615322E0,-7.773138285E-1,-1.858197093E0,1.681223512E-1
6.899614976E0,-8.683327436E-1,-1.452582598E0,7.893602550E-2
6.909635706E0,-8.164092302E-1,-9.932119250E-1,-2.857625484E-2
6.921451667E0,-2.757934630E-1,-9.852706790E-1,-2.405464947E-1
6.930539225E0,-1.701137722E-1,-1.160588980E0,-2.808635831E-1
6.940083369E0,9.377999604E-2,-1.630344391E0,-4.457972348E-1
6.949861037E0,2.055683434E-1,-1.818490863E0,-5.734680295E-1
6.959740621E0,2.623788118E-1,-1.936998725E0,-7.139670849E-1
6.969686183E0,2.660439909E-1,-1.995030999E0,-8.660725355E-1
6.979647617E0,2.855916917E-1,-1.963266015E0,-1.008404136E0
6.989633354E0,3.472890854E-1,-1.836816907E0,-1.098812103E0
6.999624203E0,4.493035674E-1,-1.687154889E0,-1.136685729E0
7.009633858E0,5.861374140E-1,-1.586362123E0,-1.145237923E0
7.019644532E0,6.973148584E-1,-1.452582598E0,-1.164785504E0
7.029661330E0,7.480166554E-1,-1.224119067E0,-1.131798863E0
7.039676576E0,7.431297898E-1,-9.028038383E-1,-1.011458397E0
7.049657045E0,6.606629491E-1,-4.330484867E-1,-8.214793205E-1
7.059637395E0,5.177204609E-1,7.030446827E-2,-6.400523782E-1
7.069673723E0,3.283522725E-1,4.465974569E-1,-3.077416718E-1
7.079702157E0,2.721526623E-1,5.272316933E-1,2.395815775E-2
7.089668393E0,2.257269025E-1,-3.659694642E-2,3.043453097E-1
7.099643338E0,2.536309138E-2,-7.433680296E-1,3.971968293E-1
7.109647137E0,-3.649798036E-1,-1.257105708E0,3.483276069E-1
7.119637864E0,-8.414546847E-1,-1.744576216E0,2.725802958E-1
7.129622054E0,-1.321594834E0,-1.974261522E0,2.292088866E-1
7.139625899E0,-1.669788003E0,-2.095823526E0,7.649256289E-2
7.149645822E0,-1.779132843E0,-2.280915737E0,-1.519710273E-1
7.159641398E0,-1.656959891E0,-2.381097794E0,-3.535565734E-1
7.169634436E0,-1.438880920E0,-2.271142006E0,-5.472008586E-1
7.179645571E0,-1.172543764E0,-1.948605180E0,-7.157996297E-1
7.189642119E0,-7.773138285E-1,-1.608353257E0,-8.422487378E-1
7.199626758E0,-2.837347090E-1,-1.557040572E0,-8.055968285E-1
7.209633174E0,1.835771799E-1,-1.708535194E0,-5.258205533E-1
7.219622671E0,1.371514350E-1,-1.610796690E0,-2.588724494E-1
7.229617631E0,-3.144737333E-2,-1.367061496E0,-2.491106279E-2
7.239620072E0,-8.947957307E-2,-1.246721029E0,1.351356208E-1
7.249645677E0,6.384760141E-2,-1.155091286E0,2.426479161E-1
7.259659018E0,3.692802191E-1,-9.901575446E-1,2.139372379E-1
7.269637746E0,7.712295651E-1,-8.704279661E-1,1.418431103E-2
7.279620918E0,1.218382835E0,-8.918082714E-1,-3.315654099E-1
7.289613369E0,1.548250079E0,-1.050022483E0,-6.119525433E-1
7.299611980E0,1.595897555E0,-1.333463907E0,-7.182431221E-1
7.309621804E0,1.419357538E0,-1.623624921E0,-8.385835886E-1
7.319613236E0,1.179898381E0,-1.722585082E0,-1.063992739E0
7.329608605E0,9.459370375E-1,-1.513058305E0,-1.333384395E0
7.339623405E0,7.046452761E-1,-1.161199927E0,-1.710288167E0
7.349669748E0,2.568810284E-1,-2.987743169E-2,-1.650423408E0
7.359650938E0,1.530339271E-1,3.745153546E-1,-1.305284619E0
7.369640668E0,2.733743787E-1,2.566183507E-1,-8.019316792E-1
7.379653264E0,5.061140060E-1,4.709158838E-2,-4.818382561E-1
7.389655466E0,7.474058270E-1,1.717081070E-1,-5.123814940E-1
7.399662913E0,7.999402285E-1,6.726176143E-1,-6.675413251E-1
7.411326540E0,3.460673392E-1,1.496674776E0,-7.377908230E-1
7.420478065E0,1.371514350E-1,1.717808008E0,-7.322930098E-1
7.430053712E0,-1.780550480E-1,1.894958973E0,-7.921578288E-1
7.439842132E0,-2.049331069E-1,1.697649479E0,-9.363220334E-1
7.449727034E0,-2.900391817E-2,1.438642621E0,-1.035282135E0
7.459664754E0,2.122878432E-1,1.205902934E0,-1.075599194E0
7.469632345E0,4.236472249E-1,9.511721730E-1,-1.162952900E0
7.479621044E0,5.226073861E-1,1.193685651E0,-1.208156943E0
7.489631894E0,4.859555066E-1,1.571811199E0,-1.166618109E0
7.499628723E0,4.236472249E-1,1.856474400E0,-1.129355311E0
7.509616445E0,5.024488568E-1,1.613350034E0,-1.142794371E0
7.519630479E0,6.124045849E-1,1.176581383E0,-1.194718003E0
7.529625611E0,6.539434195E-1,8.051753640E-1,-1.240532875E0
7.539618331E0,6.411152482E-1,5.473902225E-1,-1.213043928E0
7.549619307E0,6.686041951E-1,3.164831698E-1,-1.104309916E0
7.559636295E0,7.596231103E-1,1.478843689E-1,-9.589240551E-1
7.569628577E0,8.646919727E-1,3.120909631E-2,-8.086511493E-1
7.579621372E0,9.709824920E-1,-2.071445249E-2,-6.767042875E-1
7.589641769E0,1.102318525E0,-2.804483473E-2,-5.600290298E-1
7.599660545E0,1.234265327E0,-2.987743169E-2,-4.775622189E-1
7.609636779E0,1.384538174E0,-3.232089058E-2,-4.176974297E-1
7.619621915E0,1.453565955E0,-1.044029891E-1,-4.121996462E-1
7.629645310E0,1.506711245E0,-1.832046211E-1,-4.225843549E-1
7.639652450E0,1.536643624E0,-2.675040066E-1,-4.824491441E-1
7.649678962E0,1.506711245E0,-2.748343945E-1,-5.392596126E-1
7.659682564E0,1.407140255E0,-2.339064181E-1,-6.003461480E-1
7.669655019E0,1.249536991E0,-1.532722116E-1,-6.394414902E-1
7.679663247E0,1.030236363E0,5.930889398E-2,-6.357763410E-1
7.689646438E0,7.492384315E-1,4.637016952E-1,-6.266133189E-1
7.699630302E0,4.370862842E-1,9.389548898E-1,-6.400523782E-1
7.709625677E0,1.994597018E-1,1.018367290E0,-6.895324588E-1
7.719623441E0,-1.861920208E-2,9.487287402E-1,-6.400523782E-1
7.729628650E0,-2.770152092E-1,6.872783899E-1,-6.278350353E-1
7.739662639E0,-5.506828427E-1,6.541755050E-2,-6.938084960E-1
7.749642480E0,-9.666820168E-1,-7.164899707E-1,-6.174503565E-1
7.759630208E0,-1.165213346E0,-6.627337933E-1,-3.908193409E-1
7.769627168E0,-1.272114754E0,-2.522323728E-1,-7.805633545E-2
7.779636110E0,-1.325870872E0,-1.277320273E-2,3.568797112E-1
7.789630811E0,-1.510963082E0,-5.064684898E-2,8.028113246E-1
7.799625162E0,-1.694833517E0,-2.736126781E-1,1.233471394E0
7.809632818E0,-1.813952208E0,-5.875973701E-1,1.647027135E0
7.819626800E0,-1.867708325E0,-9.687772989E-1,2.075243473E0
7.829625503E0,-1.874427915E0,-1.339572549E0,2.512012243E0
7.839621296E0,-1.895808101E0,-1.542990685E0,2.887694359E0
7.849617770E0,-1.906192899E0,-1.563760042E0,3.187629223E0
7.859615545E0,-1.833499908E0,-1.492899776E0,3.397766829E0
7.869617183E0,-1.615421057E0,-1.495343208E0,3.282313347E0
7.879647694E0,-1.484695792E0,-1.326744437E0,1.569447279E0
7.889629353E0,-1.818228245E0,-6.865575314E-1,3.434286639E-2
7.899622087E0,-2.124882460E0,-3.481382430E-1,-4.500732720E-1
7.909632492E0,-2.375948191E0,-4.868046343E-1,-4.280821383E-1
7.919644464E0,-2.509727716E0,-1.214345217E0,-4.836708605E-1
7.929632104E0,-2.484682083E0,-2.405532360E0,-5.759115219E-1
7.939633174E0,-2.368006945E0,-3.404907942E0,-6.369980574E-1
7.949630805E0,-2.209182024E0,-4.007832050E0,-6.205046773E-1
7.959632428E0,-2.021646261E0,-4.217359066E0,-5.624724627E-1
7.969626509E0,-1.799902320E0,-4.161159039E0,-4.861143231E-1
7.979651530E0,-1.592208147E0,-3.792196512E0,-2.686462998E-1
7.989633214E0,-1.322816610E0,-3.048162460E0,8.748814464E-2
7.999627536E0,-8.658893108E-1,-2.451957941E0,3.446623981E-1
8.009620736E0,-3.851383328E-1,-2.147747040E0,4.051380754E-1
8.019621797E0,4.735424370E-2,-1.615072727E0,3.831469119E-1
8.029623213E0,6.629106402E-2,-1.107443810E0,3.623774946E-1
8.039620536E0,-5.832544714E-2,-6.095885038E-1,3.238929808E-1
8.049623255E0,-1.994353235E-1,-3.163732290E-1,2.786889672E-1
8.059621576E0,-3.057258725E-1,-1.948110461E-1,2.322632074E-1
8.069616602E0,-3.600928783E-1,-1.416657716E-1,1.333030313E-1
8.079616634E0,-3.509298861E-1,-2.174130678E-1,-7.806835696E-3
8.089618035E0,-2.965628803E-1,-4.348810911E-1,-1.764056534E-1
8.099615043E0,-1.927157938E-1,-7.433680296E-1,-3.486696482E-1
8.109609297E0,-4.977333546E-2,-1.042692065E0,-5.117706656E-1
8.119609039E0,1.011103839E-1,-1.210069180E0,-6.553239822E-1
8.129614987E0,2.367224693E-1,-1.173417211E0,-7.756644487E-1
8.139610365E0,3.546194732E-1,-9.980988503E-1,-8.807332516E-1
8.149607804E0,5.818613172E-1,-7.024400234E-1,-1.046888590E0
8.159604043E0,8.072705865E-1,-5.570541024E-1,-1.173337698E0
8.169604759E0,1.063833952E0,-4.758090675E-1,-1.291845560E0
8.179653367E0,1.305736542E0,-4.446549416E-1,-1.400579572E0
8.189642055E0,1.470059395E0,-4.232746661E-1,-1.494652748E0
8.199657880E0,1.531145811E0,-3.518034220E-1,-1.567345738E0
8.209633446E0,1.514652491E0,-3.725728393E-1,-1.604608536E0
8.219628537E0,1.408361912E0,-3.872336149E-1,-1.494652748E0
8.229623659E0,1.055281878E0,-2.259651721E-1,-1.123246670E0
8.239616682E0,3.869953156E-1,-1.850371957E-1,-5.343726873E-1
8.249640501E0,-4.266771674E-1,-2.870517075E-1,1.504072547E-1
8.259644353E0,-1.257453918E0,-7.849068642E-1,9.274278283E-1
8.269634990E0,-2.008207321E0,-1.425093651E0,1.726439595E0
8.279619347E0,-2.539659977E0,-1.237558007E0,2.007437468E0
8.289613353E0,-3.111429930E0,-3.548577428E-1,1.852277875E0
8.299615164E0,-3.073556185E0,1.148976311E-1,1.387409449E0
8.309610281E0,-2.207349300E0,1.720862269E0,5.700716972E-1
8.319612378E0,-1.364966273E0,1.004317403E0,-8.599758893E-2
8.329631715E0,-5.207504034E-1,-8.569889665E-1,-3.584434986E-1
8.339620037E0,5.830830932E-1,-2.266254902E0,-5.337617993E-1
8.349667967E0,1.445624709E0,-2.838635683E0,-4.873360693E-1
8.359641278E0,1.575739026E0,-2.867346525E0,-2.222205400E-1
8.369629357E0,1.314288735E0,-2.272363663E0,7.832516730E-2
8.379628223E0,9.227241278E-1,-1.509393096E0,2.554760873E-1
8.389622906E0,7.162516713E-1,-9.009712338E-1,2.792998254E-1
8.399619575E0,7.217494845E-1,-6.505165100E-1,2.719694376E-1
8.416265486E0,1.083381653E0,-7.586396337E-1,-5.789778382E-2
8.427964768E0,1.236097932E0,-8.985278010E-1,-3.217915893E-1
8.438828083E0,1.357049227E0,-9.877141118E-1,-5.649159551E-1
8.449239836E0,1.358271003E0,-9.333471060E-1,-7.506189942E-1
8.459427059E0,1.301460505E0,-7.042726278E-1,-8.367509842E-1
8.469516401E0,1.187228680E0,-3.346991837E-1,-8.660725355E-1
8.479562457E0,1.014353871E0,9.107389301E-2,-9.094439149E-1
8.489582696E0,8.756875396E-1,4.856928289E-1,-9.375437498E-1
8.499593777E0,4.987836778E-1,1.138707757E0,-9.858021140E-1
8.509602818E0,1.194363385E-1,1.535159349E0,-1.002295375E0
8.519748300E0,-9.456224740E-3,8.925291300E-1,-6.516588330E-1
8.529694964E0,7.911923528E-2,5.406707525E-1,-4.958881736E-1
8.539654969E0,4.132625163E-1,1.405539811E-1,-3.700499237E-1
8.549652452E0,8.549181223E-1,7.514192462E-1,-6.424958110E-1
8.559647963E0,7.565687895E-1,1.401990652E0,-8.019316792E-1
8.569638565E0,3.735562861E-1,2.045842648E0,-8.636290431E-1
8.579627308E0,-9.375562519E-2,2.601730108E0,-8.312531710E-1
8.589625679E0,-3.729210496E-1,2.917547464E0,-7.530624270E-1
8.599632134E0,-2.006570399E-1,2.581571579E0,-9.088330865E-1
8.609626765E0,1.884641051E-1,2.098377228E0,-1.120192409E0
8.619622716E0,4.676295519E-1,1.895569801E0,-1.238089442E0
8.629627922E0,4.975619316E-1,2.133807421E0,-1.247863173E0
8.639618909E0,3.375152349E-1,2.706799030E0,-1.115305424E0
8.649625788E0,2.953655422E-1,2.846076250E0,-1.002906322E0
8.659622266E0,4.822902977E-1,2.483222246E0,-9.656435251E-1
8.669664408E0,6.881518960E-1,2.266975880E0,-9.467067122E-1
8.679650172E0,8.158227205E-1,2.192450523E0,-8.953940272E-1
8.689634669E0,8.982895613E-1,2.117314100E0,-7.109127641E-1
8.699667552E0,9.648738503E-1,1.973760486E0,-5.753006339E-1
8.709637013E0,1.043064594E0,1.741020918E0,-4.525167346E-1
8.719636128E0,1.119422674E0,1.508892059E0,-3.352306187E-1
8.729635359E0,1.211052537E0,1.284093618E0,-2.552072704E-1
8.739627205E0,1.313677788E0,1.095336318E0,-2.240531296E-1
8.749620186E0,1.404696822E0,9.566699862E-1,-2.454334199E-1
8.759649253E0,1.496326566E0,8.534337282E-1,-2.820853293E-1
8.769705729E0,1.549471855E0,8.277773857E-1,-3.095742762E-1
8.779702390E0,1.556191325E0,8.454924822E-1,-3.382849395E-1
8.789662970E0,1.517706871E0,9.334570765E-1,-3.999823332E-1
8.799641549E0,1.483498335E0,9.585025311E-1,-4.745078981E-1
8.809725454E0,1.439516068E0,9.432309270E-1,-4.732861519E-1
8.819671291E0,1.091933727E0,1.191853046E0,-2.888048589E-1
8.829649594E0,6.203458309E-1,1.576087236E0,-2.350487113E-1
8.839633803E0,1.756359339E-1,1.851587534E0,-2.112249732E-1
8.849631792E0,-1.678661257E-2,1.647558451E0,-1.281472892E-1
8.859626094E0,-1.389596462E-1,1.163142323E0,-9.149537981E-2
8.869622515E0,-3.912470043E-1,6.145853996E-1,-2.484877408E-1
8.879655417E0,-7.498248816E-1,1.899179071E-2,-3.987605870E-1
8.889637157E0,-1.134059191E0,-3.792923689E-1,-4.457972348E-1
8.899625796E0,-1.364966273E0,-2.149696052E-1,-3.242350221E-1
8.909620769E0,-1.393066049E0,2.224099040E-1,-1.360885352E-1
8.920150064E0,-1.432161450E0,3.677958250E-1,1.223074645E-1
8.930298500E0,-1.821282625E0,2.987680733E-1,4.607267976E-1
8.939962295E0,-2.001487732E0,6.541755050E-2,5.517457128E-1
8.949788634E0,-2.285540104E0,-3.554686010E-1,7.905940413E-1
8.959718169E0,-2.489568949E0,-9.333471060E-1,1.309218645E0
8.969667552E0,-2.548822880E0,-1.055520177E0,1.778363228E0
8.979644994E0,-2.504229784E0,-1.057352781E0,2.357463360E0
8.989627599E0,-2.295313835E0,-9.217406511E-1,2.878531456E0
8.999618421E0,-1.915966749E0,-7.079378366E-1,3.170525074E0
9.009628101E0,-1.415668130E0,-6.071450710E-1,3.012921810E0
9.019617710E0,-1.093131185E0,-6.211949587E-1,2.191918850E0
9.029622111E0,-1.263562679E0,6.419581920E-2,1.046546578E0
9.039615600E0,-1.551280141E0,6.237484217E-1,1.241400540E-1
9.049618421E0,-1.850604177E0,2.321837544E-1,-5.178913474E-2
9.059640505E0,-2.068682909E0,-7.403137088E-1,-8.660845459E-2
9.069662605E0,-2.141986847E0,-1.800164938E0,-1.922881454E-1
9.079649905E0,-2.121217251E0,-2.717073679E0,-2.161118835E-1
9.089654228E0,-2.023478985E0,-3.343210459E0,-1.220386326E-1
9.099639293E0,-1.937957883E0,-2.873455048E0,3.678632900E-2
9.109657499E0,-1.736372352E0,-2.079941034E0,2.799106836E-1
9.119658563E0,-1.441324472E0,-1.467243433E0,5.456370711E-1
9.129694614E0,-1.129783154E0,-9.302927852E-1,7.808201909E-1
9.139658198E0,-7.467705607E-1,-6.053124666E-1,9.561384916E-1
9.149690547E0,-2.495262623E-1,-5.020762682E-1,1.000731707E0
9.159723029E0,1.707490236E-1,-3.310340047E-1,9.707992673E-1
9.169681309E0,4.059321582E-1,-3.293175623E-2,9.659123421E-1
9.179658487E0,4.651860893E-1,3.293113410E-1,9.219300747E-1
9.189640326E0,4.334210753E-1,5.137926340E-1,8.168612123E-1
9.199634938E0,3.992126286E-1,4.832493961E-1,7.069054842E-1
9.209677725E0,3.796649277E-1,3.983390927E-1,5.987823606E-1
9.219682080E0,3.674476445E-1,2.975463271E-1,3.831469119E-1
9.229655642E0,3.711128235E-1,1.593746245E-2,2.078285962E-1
9.239646481E0,3.705019653E-1,-1.691547036E-1,1.784950495E-2
9.249638150E0,3.705019653E-1,-2.797213197E-1,-1.727404594E-1
9.259653158E0,3.637824357E-1,-2.442911267E-1,-3.608869612E-1
9.269644796E0,3.961583078E-1,-1.202854887E-1,-5.392596126E-1
9.279644904E0,5.122227073E-1,-1.704926044E-2,-7.139670849E-1
9.289635593E0,7.370210886E-1,1.276697963E-3,-8.898962736E-1
9.299703033E0,1.016186476E0,-9.524001181E-2,-1.051775455E0
9.309661042E0,1.265419483E0,-2.210782468E-1,-1.127522826E0
9.319646200E0,1.440737844E0,-3.182058334E-1,-1.117138028E0
9.329639279E0,1.497548223E0,-3.017124832E-1,-1.049942851E0
9.339671742E0,1.335669041E0,-8.180097491E-2,-9.931324720E-1
9.349647031E0,8.976786733E-1,9.351735562E-2,-9.522045255E-1
9.359634579E0,-1.861920208E-2,-3.096537292E-1,-4.671775103E-1
9.369625507E0,-6.105476022E-1,-6.224166751E-1,3.006680682E-2
9.379658817E0,-1.094352961E0,-7.885720134E-1,5.780129433E-1
9.389641087E0,-1.667344570E0,-6.725076437E-1,1.087474585E0
9.399625838E0,-2.547601223E0,-1.734307706E-1,1.421617866E0
9.409619117E0,-2.936111450E0,5.253990889E-1,1.380689979E0
9.419622084E0,-2.652670145E0,9.921001792E-1,9.536950588E-1
9.429619509E0,-1.959338069E0,1.133820772E0,3.642100990E-1
9.440183703E0,-1.001501441E0,4.282715023E-1,-1.140973866E-1
9.449900492E0,1.805228591E-1,-8.802018166E-1,-2.387139052E-1
9.459766098E0,1.130418301E0,-2.212498903E0,-2.906374335E-1
9.469702766E0,1.474335432E0,-2.875287771E0,-2.875831127E-1
9.479652908E0,1.318564773E0,-3.021284342E0,-1.733513176E-1
9.489630268E0,9.972497225E-1,-2.707299709E0,-1.452635415E-2
9.499615121E0,6.899845004E-1,-1.757404327E0,1.882809103E-1
9.509615297E0,6.209567189E-1,-1.205182195E0,4.045271873E-1
9.519619847E0,6.032416224E-1,-6.987748742E-1,5.376958251E-1
9.529641775E0,5.910243392E-1,-2.815539241E-1,5.786237717E-1
9.539630720E0,6.179023981E-1,1.715919375E-2,4.924917817E-1
9.549641231E0,7.089213133E-1,2.725008726E-1,2.878519297E-1
9.559624871E0,7.467949390E-1,5.089057088E-1,1.662777364E-2
9.569675422E0,6.728802323E-1,5.864856243E-1,-2.723114789E-1
9.579649717E0,5.525397658E-1,6.927762032E-1,-5.490334630E-1
9.589631730E0,4.615208805E-1,8.870313168E-1,-7.891035080E-1
9.599624159E0,4.169277251E-1,1.012869477E0,-9.748065472E-1
9.609633566E0,3.509542644E-1,1.249274373E0,-9.552588463E-1
9.619619827E0,4.297558963E-1,1.298754454E0,-6.339437366E-1
9.629609881E0,4.065430164E-1,9.908784032E-1,-2.087815106E-1
9.639610927E0,5.116118193E-1,4.643125236E-1,-1.812925637E-1
9.649620796E0,6.490564942E-1,3.647415042E-1,-3.908193409E-1
9.659612077E0,6.661607623E-1,7.361475825E-1,-6.198937893E-1
9.669622583E0,4.914532900E-1,1.317691207E0,-6.828129292E-1
9.679612951E0,2.214508355E-1,1.750794768E0,-6.889215708E-1
9.689614635E0,-2.961477637E-2,1.953601956E0,-7.475646734E-1
9.699610419E0,-1.640051305E-1,2.070277452E0,-8.843984604E-1
9.709607619E0,-1.126924530E-1,2.175346136E0,-9.943541884E-1
9.719604950E0,8.950394392E-2,2.243763208E0,-1.090870857E0
9.729605635E0,3.460673392E-1,2.117924929E0,-1.162952900E0
9.739612227E0,5.806396008E-1,1.954212904E0,-1.222817779E0
9.749630600E0,7.577905059E-1,1.930389047E0,-1.264967442E0
9.759618383E0,8.451442719E-1,2.188785315E0,-1.158676863E0
9.769611563E0,9.868649840E-1,2.119146585E0,-1.059716702E0
9.779609326E0,1.184785247E0,1.795387864E0,-9.906890392E-1
9.789615034E0,1.293519258E0,1.618847847E0,-9.729739428E-1
9.799608869E0,1.322229981E0,1.535159349E0,-9.619783759E-1
9.809677421E0,1.309401751E0,1.463077188E0,-9.192177653E-1
9.819641735E0,1.299627900E0,1.345791101E0,-8.544660807E-1
9.829626335E0,1.305736542E0,1.243776560E0,-8.043751121E-1
9.839622019E0,1.342999339E0,1.166807532E0,-7.640579939E-1
9.849622496E0,1.391868591E0,1.083119035E0,-7.005280256E-1
9.859614215E0,1.431574821E0,9.939327836E-1,-6.369980574E-1
9.869612017E0,1.456009388E0,8.949725628E-1,-6.168394685E-1
9.879632457E0,1.435850859E0,8.625966907E-1,-6.088982224E-1
9.889628369E0,1.364379644E0,8.570989370E-1,-6.040112972E-1
9.899618113E0,1.185396194E0,8.222796321E-1,-5.746898055E-1
9.909613774E0,1.055281878E0,8.088405728E-1,-5.197119117E-1
9.919611797E0,9.141720533E-1,8.302208781E-1,-3.963171244E-1
9.929608808E0,7.828360200E-1,8.137274981E-1,-2.289400548E-1
9.939638987E0,6.087394357E-1,8.289991021E-1,-7.011508942E-2
9.949629288E0,3.362935185E-1,1.004928231E0,-1.635894924E-2
9.959618361E0,9.194740653E-2,9.957653880E-1,5.999920890E-2
9.969608705E0,-7.176447660E-2,6.689524055E-1,1.094792932E-1
9.979604935E0,-2.281459868E-1,2.309620082E-1,6.244266406E-2
9.989610435E0,-5.726739764E-1,1.295583844E-1,-7.500201464E-2
9.999625781E0,-1.010053515E0,1.588799357E-1,-2.405464947E-1
1.000961776E1,-1.253177881E0,1.344453096E-1,-3.340088725E-1
1.001963087E1,-1.336255550E0,4.789732993E-1,-3.333980143E-1
1.002961813E1,-1.551280141E0,8.913073540E-1,-4.323701933E-2
1.003962024E1,-1.765082955E0,7.361475825E-1,4.008620083E-1
1.004961180E1,-1.939179540E0,6.170288920E-1,1.014170766E0
1.005961941E1,-1.997822642E0,5.162361264E-1,1.650081515E0
1.006965448E1,-1.957505584E0,3.256461322E-1,2.264000893E0
1.007963569E1,-1.882369161E0,7.946744561E-2,2.877920628E0
1.008967025E1,-1.773635149E0,-1.722090244E-1,3.555370092E0
1.009963846E1,-1.636801243E0,-2.296303511E-1,4.254810810E0
1.010962241E1,-1.430328846E0,-9.768347442E-2,4.774046421E0
1.011961238E1,-1.101683378E0,-3.713511229E-1,4.386757851E0
1.012960850E1,-1.047316313E0,-5.882082582E-1,2.644570112E0
1.013963080E1,-1.470035076E0,2.896050811E-1,5.743477345E-1
1.014963823E1,-1.937347054E0,6.017572284E-1,-5.551421046E-1
1.015962143E1,-2.331965923E0,-4.128899574E-1,-6.730390787E-1
1.016961089E1,-2.771788836E0,-2.712797403E0,-6.479936242E-1
1.017962149E1,-2.752241135E0,-3.751268387E0,-5.355944037E-1
1.018962550E1,-2.486514807E0,-4.224078178E0,-3.590543568E-1
1.019961212E1,-2.124882460E0,-4.142833233E0,-1.788491011E-1
1.020962520E1,-1.765693903E0,-3.721946955E0,-5.301086605E-2
1.021963197E1,-1.374129295E0,-3.235087395E0,-9.028567001E-3
1.022962116E1,-8.982651234E-1,-2.748838663E0,2.029296383E-2
1.023962807E1,-3.906361461E-1,-2.312069893E0,1.033706367E-1
1.024961416E1,4.002385587E-2,-1.952270389E0,2.573086619E-1
1.025960564E1,3.246870637E-1,-1.582696915E0,3.996402919E-1
1.026960642E1,4.657969475E-1,-1.170973778E0,5.224242210E-1
1.027961735E1,4.975619316E-1,-7.818525434E-1,5.871759057E-1
1.028961232E1,4.486927092E-1,-5.698822737E-1,6.048910022E-1
1.029961820E1,1.847989261E-1,-3.750163019E-1,5.279219747E-1
1.030961330E1,5.529548973E-2,-4.196094573E-1,3.984185457E-1
1.031961583E1,7.037132978E-3,-5.387281775E-1,2.347066700E-1
1.032961567E1,-2.932474017E-4,-6.694533229E-1,3.984064981E-2
1.033961436E1,-1.251055300E-2,-8.075088859E-1,-1.641883403E-1
1.034961474E1,-3.755602986E-2,-9.498404860E-1,-3.792129159E-1
1.035961313E1,-5.771458149E-2,-1.043302894E0,-6.003461480E-1
1.036961420E1,-4.244294763E-2,-1.068348408E0,-7.982664704E-1
1.037961688E1,3.696953133E-2,-1.006040096E0,-9.833586216E-1
1.038962879E1,1.847989261E-1,-9.254058599E-1,-1.177613735E0
1.039962257E1,3.808866739E-1,-8.973060846E-1,-1.338271260E0
1.040961125E1,5.873591304E-1,-9.009712338E-1,-1.455557466E0
1.041960725E1,8.995112777E-1,-7.268746495E-1,-1.576508760E0
1.042960321E1,1.014964819E0,-6.028690338E-1,-1.582006574E0
1.043960555E1,1.382094741E0,1.320018470E-1,-1.473883390E0
1.044960220E1,1.546417475E0,5.632727742E-1,-1.286347747E0
1.045962447E1,1.507322073E0,5.589966774E-1,-9.198286533E-1
1.046964290E1,1.253202200E0,5.075678229E-2,-3.669956028E-1
1.047962972E1,9.453261495E-1,-4.770307839E-1,3.379428983E-1
1.048963044E1,5.977438092E-1,-7.225986123E-1,1.009894729E0
1.049962178E1,1.371514350E-1,-6.254709959E-1,1.313494802E0
1.050961503E1,-5.476285219E-1,-3.707402349E-1,1.292725325E0
1.051961506E1,-1.421165824E0,1.124541685E-1,1.286005855E0
1.052963904E1,-2.386943579E0,5.834313035E-1,1.147339344E0
1.053966502E1,-3.224439859E0,4.551495612E-1,7.508878112E-1
1.054964961E1,-3.612950325E0,1.078232050E0,3.342776895E-1
1.055963481E1,-2.969098330E0,2.076996803E0,6.488612294E-2
1.056962689E1,-6.441451907E-1,-1.367788464E-1,-4.958881736E-1
1.057962353E1,1.212274194E0,-2.166683912E0,-6.693739295E-1
1.058962296E1,2.368031263E0,-3.318165064E0,-4.476298094E-1
1.059964593E1,2.680794477E0,-3.682851553E0,-1.904555410E-1
1.060963241E1,2.342375040E0,-3.242417574E0,1.290269792E-1
1.061965125E1,1.687527418E0,-2.214942217E0,4.680572152E-1
1.062963965E1,1.252591372E0,-1.185634494E0,7.478334904E-1
1.063966366E1,1.033290744E0,-4.660352170E-1,9.029932618E-1
1.064966564E1,9.037873149E-1,-3.965127468E-2,9.463647008E-1
1.065963971E1,7.669535279E-1,2.731117308E-1,8.889433146E-1
1.066963119E1,5.659788251E-1,5.492228270E-1,7.588290572E-1
1.067962258E1,3.173566759E-1,7.318715453E-1,5.511348844E-1
1.068962878E1,7.362144440E-2,8.680945039E-1,2.438696325E-1
1.069965662E1,-3.228300810E-1,1.376945138E0,-2.869722545E-1
1.070964699E1,-5.757282972E-1,1.593191504E0,-6.632652283E-1
1.071963856E1,-6.337605119E-1,1.529661536E0,-1.041390777E0
1.072963580E1,-5.934433937E-1,1.420927525E0,-1.266189218E0
1.073963862E1,-4.511117935E-1,1.155812025E0,-1.135464072E0
1.074963558E1,-8.398178965E-2,5.773226619E-1,-5.624724627E-1
1.075964178E1,5.543723702E-1,-1.929784417E-1,-3.835009784E-2
1.076964149E1,1.315510392E0,-1.954219043E-1,-1.318124831E-1
1.077963314E1,1.808478713E0,4.215519726E-1,-4.971098900E-1
1.078964173E1,1.829859018E0,8.656510711E-1,-7.121344805E-1
1.079964541E1,1.362547040E0,9.530047774E-1,-7.005280256E-1
1.080966327E1,7.724512815E-1,1.056851745E0,-6.693739295E-1
1.081965783E1,2.165639102E-1,1.618237019E0,-7.817730904E-1
1.082964359E1,-7.420793921E-2,2.453900814E0,-9.937433600E-1
1.083964028E1,1.896858513E-1,2.952977657E0,-1.253971934E0
1.084963078E1,4.242581129E-1,2.968860149E0,-1.259469628E0
1.085965022E1,6.056850553E-1,2.746505260E0,-1.211822152E0
1.086964929E1,7.272472382E-1,2.460620165E0,-1.160509467E0
1.088023611E1,7.742838860E-1,2.390981674E0,-1.125690222E0
1.088993152E1,7.718404531E-1,2.402588129E0,-1.124468446E0
1.089977302E1,7.828360200E-1,2.366547108E0,-1.093925238E0
1.090969598E1,7.901663780E-1,2.401366234E0,-1.039558172E0
1.091966182E1,8.891265392E-1,2.188174248E0,-9.656435251E-1
1.093041630E1,1.083381653E0,1.764844656E0,-8.471356630E-1
1.094002346E1,1.131639957E0,1.640228152E0,-8.104837537E-1
1.094993308E1,1.186617851E0,1.380610347E0,-7.066366673E-1
1.095978187E1,1.209830761E0,1.136875153E0,-6.064547896E-1
1.096970223E1,1.319175601E0,7.673017383E-1,-5.123814940E-1
1.097965729E1,1.435850859E0,5.791552663E-1,-4.647340477E-1
1.098964361E1,1.562910914E0,4.013934135E-1,-4.311364591E-1
1.099962437E1,1.672866583E0,2.266859710E-1,-4.073127210E-1
1.100961906E1,1.734563947E0,6.236322224E-2,-3.895976245E-1
1.101962742E1,1.738840103E0,-7.691405714E-2,-3.902084827E-1
1.102963183E1,1.664314508E0,-1.691547036E-1,-3.969280124E-1
1.103963830E1,1.518928528E0,-2.033631504E-1,-3.724933863E-1
1.104963204E1,1.292908430E0,-1.343353838E-1,-3.193481266E-1
1.105964528E1,9.355522990E-1,2.639487386E-1,-2.729223371E-1
1.106968651E1,4.749599099E-1,9.078007340E-1,-3.242350221E-1
1.107969776E1,1.218798012E-1,1.229726672E0,-3.786020577E-1
1.108967162E1,-2.228439599E-2,8.729814291E-1,-3.700499237E-1
1.109967970E1,-4.199576676E-1,3.555785418E-1,-3.413392603E-1
1.110965916E1,-9.117041826E-1,1.405539811E-1,-4.390777051E-1
1.111965278E1,-1.256843090E0,-4.525961876E-1,-4.824491441E-1
1.112964343E1,-1.417500615E0,-6.376883388E-1,-3.541674316E-1
1.113963388E1,-1.417500615E0,-3.322557211E-1,-1.134865284E-1
1.114964189E1,-1.498745799E0,-3.598608449E-2,1.901134998E-1
1.115963322E1,-1.727820158E0,-1.949272119E-2,5.224242210E-1
1.116963779E1,-2.016759396E0,-1.929784417E-1,8.541240096E-1
1.117962873E1,-2.251942396E0,-4.941350222E-1,1.258516908E0
1.118963841E1,-2.351513624E0,-9.186863303E-1,1.753928542E0
1.119965088E1,-2.319137573E0,-1.260160089E0,2.333639622E0
1.120968143E1,-2.160312653E0,-1.370726705E0,2.958554745E0
1.121966182E1,-1.898862481E0,-1.303531528E0,3.494894505E0
1.122963686E1,-1.601371050E0,-1.227784157E0,3.735575438E0
1.123965636E1,-1.330146909E0,-1.219842911E0,2.554162025E0
1.124963628E1,-1.443767905E0,-6.566251516E-1,9.659123421E-1
1.125963134E1,-1.547614932E0,-3.096537292E-1,-1.073778719E-1
1.126964833E1,-1.703385592E0,-7.085487247E-1,-3.107959926E-1
1.127964046E1,-1.893975616E0,-1.576588273E0,-2.851396501E-1
1.128963641E1,-2.118773937E0,-2.703023672E0,-4.036475122E-1
1.129963732E1,-2.285540104E0,-3.633982182E0,-4.402994215E-1
1.130968184E1,-2.317305088E0,-3.985840559E0,-3.010221720E-1
1.132146466E1,-2.093728304E0,-3.572284937E0,-4.140442610E-2
1.133053958E1,-1.974609733E0,-3.311445475E0,-4.141643643E-3
1.134010464E1,-1.708883405E0,-2.723182201E0,4.961450025E-2
1.134985923E1,-1.347251177E0,-2.263811588E0,1.449094713E-1
1.135973670E1,-9.843971133E-1,-1.852088451E0,2.927388549E-1
1.136967593E1,-6.435343623E-1,-1.502062678E0,5.095960498E-1
1.137966860E1,-4.061035067E-2,-1.323690057E0,5.181481242E-1
1.138964794E1,2.135095894E-1,-1.025587797E0,4.857722521E-1
1.139965032E1,2.739852369E-1,-6.297470927E-1,4.637811184E-1
1.140963205E1,1.915184259E-1,-3.670750558E-1,4.442334473E-1
1.141963761E1,8.889307827E-2,-2.809430361E-1,3.892555833E-1
1.142963419E1,-5.791038275E-3,-2.583410442E-1,3.104539514E-1
1.143966049E1,-7.970572263E-2,-3.145406544E-1,2.029416710E-1
1.144969286E1,-1.212445721E-1,-4.538179040E-1,6.916218996E-2
1.145965588E1,-1.297966838E-1,-6.407426596E-1,-8.905191720E-2
1.147248592E1,-1.181902364E-1,-9.046364427E-1,-3.737151325E-1
1.148960751E1,-1.047512069E-1,-9.687772989E-1,-4.702318311E-1
1.149959832E1,-5.832544714E-2,-1.028031230E0,-6.571565866E-1
1.150964136E1,4.674337804E-2,-9.620577693E-1,-8.141489625E-1
1.151963813E1,3.191892803E-1,-8.020110726E-1,-9.967976809E-1
1.152961151E1,5.665897131E-1,-7.757439017E-1,-1.118970633E0
1.153960405E1,8.115466833E-1,-8.117849231E-1,-1.208156943E0
1.154973786E1,9.923627973E-1,-7.836851478E-1,-1.238700271E0
1.155963609E1,1.110259771E0,-5.888190866E-1,-1.221596003E0
1.157319009E1,1.260532618E0,-2.974364161E-1,-1.090260029E0
1.158961086E1,1.379651308E0,-2.132531628E-2,-7.781079412E-1
1.159962413E1,1.164626718E0,-5.675550178E-2,-4.024257958E-1
1.160962009E1,6.753237247E-1,-1.911458671E-1,5.266882107E-2
1.161963393E1,4.857597128E-2,-3.444730341E-1,4.375139177E-1
1.162961528E1,-6.099367738E-1,-8.178935647E-1,7.117924094E-1
1.163963017E1,-1.320373058E0,-1.346292019E0,8.516805768E-1
1.164964140E1,-2.318526745E0,-1.238779783E0,1.142452478E0
1.165964459E1,-2.600135565E0,-8.130066395E-1,1.012338161E0
1.166970701E1,-2.564705372E0,-4.580939710E-1,6.568145752E-1
1.167967847E1,-2.149928093E0,4.453757107E-1,2.139372379E-1
1.168966263E1,-1.313042760E0,7.392019629E-1,-3.004112840E-1
1.169962266E1,-2.287568450E-1,-2.339064181E-1,-5.856853724E-1
1.170962020E1,8.726332188E-1,-1.572312236E0,-7.182431221E-1
1.171961982E1,1.585512877E0,-2.623000383E0,-8.233119249E-1
1.172966093E1,1.723568439E0,-3.076873302E0,-8.208684921E-1
1.173966543E1,1.457231164E0,-2.930265427E0,-7.292386889E-1
1.174962809E1,9.746477008E-1,-2.340780497E0,-5.844636559E-1
1.175967428E1,4.749599099E-1,-1.624235749E0,-3.450044692E-1
1.176961859E1,1.951836348E-1,-1.071402669E0,6.366439164E-2
1.177970040E1,1.725816131E-1,-8.099523187E-1,7.087380886E-1
1.178962259E1,5.439876914E-1,-6.853358150E-1,7.588290572E-1
1.179963059E1,8.268182874E-1,-5.026870966E-1,6.708644629E-1
1.180964978E1,1.026571155E0,-3.304231465E-1,4.246857464E-1
1.181963866E1,1.096209764E0,-1.862589419E-1,7.832516730E-2
1.182963266E1,9.813672304E-1,-1.581591368E-1,-2.741440833E-1
1.183963574E1,6.637172699E-1,-3.293175623E-2,-6.101199985E-1
1.184964636E1,2.874242961E-1,3.128179610E-1,-9.008918405E-1
1.185967524E1,2.150215209E-3,7.642474174E-1,-1.158066034E0
1.186961751E1,-3.118345141E-1,1.364117026E0,-1.392638326E0
1.187966678E1,-5.189178586E-1,1.756903410E0,-1.487933278E0
1.188962509E1,-4.254554510E-1,1.373280048E0,-1.161120415E0
1.189964032E1,-1.067795604E-2,2.749443054E-1,-5.441465378E-1
1.190962686E1,6.521108150E-1,-7.885720134E-1,-2.509312034E-1
1.191961774E1,1.589788914E0,-3.780706227E-1,-6.052330732E-1
1.192980001E1,1.642323375E0,5.064622760E-1,-7.390125394E-1
1.193962316E1,1.188450456E0,1.068458200E0,-7.017497420E-1
1.194961163E1,4.871772230E-1,1.568756938E0,-7.267952561E-1
1.195962851E1,-1.053620651E-1,2.023240805E0,-8.617964387E-1
1.196961886E1,-1.921049356E-1,1.996973395E0,-1.131187916E0
1.197962105E1,9.500172734E-2,1.639006376E0,-1.409131646E0
1.198962224E1,4.376971424E-1,1.368393064E0,-1.531304717E0
1.199964616E1,5.763635635E-1,1.504005194E0,-1.514811397E0
1.200963324E1,5.305486321E-1,1.955434561E0,-1.429901123E0
1.201962678E1,5.525397658E-1,2.083105564E0,-1.348045111E0
1.202962713E1,6.924279332E-1,1.929778218E0,-1.250306726E0
1.203962366E1,8.182662129E-1,1.735523105E0,-1.144626975E0
1.204961474E1,8.536963463E-1,1.612128258E0,-1.094536066E0
1.205964493E1,8.072705865E-1,1.376945138E0,-9.864129424E-1
1.206962905E1,8.139901161E-1,1.121603489E0,-9.271590114E-1
1.207963943E1,8.744657636E-1,8.693162203E-1,-8.850093484E-1
1.208961132E1,9.373849034E-1,6.463504434E-1,-8.269771338E-1
1.209961016E1,1.001525760E0,4.985210001E-1,-7.646688819E-1
1.210962470E1,1.091322899E0,3.763479590E-1,-7.170214057E-1
1.211961266E1,1.202500343E0,2.908268273E-1,-6.626543999E-1
1.212964401E1,1.296573639E0,2.175229788E-1,-6.143960357E-1
1.213961836E1,1.379651308E0,1.698755026E-1,-5.649159551E-1
1.214971009E1,1.419968367E0,1.704863608E-1,-5.184901953E-1
1.215963286E1,1.434018254E0,1.356670558E-1,-5.050511360E-1
1.216962882E1,1.387592554E0,1.179519519E-1,-5.074945688E-1
1.217968770E1,1.291075826E0,9.351735562E-2,-4.910012484E-1
1.218967963E1,1.043675423E0,2.761660516E-1,-4.067018330E-1
1.219965390E1,7.645100355E-1,6.732285023E-1,-3.468370438E-1
1.220966709E1,4.267015755E-1,1.061127901E0,-3.584434986E-1
1.221967293E1,1.689164340E-1,1.075788617E0,-3.871541619E-1
1.222962466E1,-1.128882170E-2,8.528228998E-1,-3.181263804E-1
1.223961101E1,-2.495262623E-1,7.404236794E-1,-2.497094721E-1
1.224962155E1,-5.629001260E-1,4.533169568E-1,-3.419501185E-1
1.225963482E1,-8.622241020E-1,3.548514843E-2,-4.512950182E-1
1.226961682E1,-1.033266425E0,-1.557156742E-1,-4.433537722E-1
1.227963532E1,-1.049759746E0,1.564364731E-1,-3.004112840E-1
1.228962297E1,-9.953927398E-1,3.800131381E-1,-8.049979806E-2
1.229963493E1,-1.193923950E0,4.099455476E-1,2.237110734E-1
1.230968563E1,-1.562275767E0,1.851471364E-1,6.287147403E-1
1.231962716E1,-1.993546605E0,-1.367788464E-1,1.399626732E0
1.232962220E1,-2.045469999E0,-5.045197010E-1,2.019654751E0
1.233963297E1,-1.928184032E0,-6.230275631E-1,2.700769663E0
1.234962666E1,-1.697887778E0,-8.123958111E-1,3.333626032E0
1.235962905E1,-1.418111563E0,-1.081176519E0,3.892567635E0
1.236961382E1,-1.136502624E0,-1.352400780E0,4.416079521E0
1.237963020E1,-8.805500865E-1,-1.556429744E0,4.714181900E0
1.238961101E1,-6.807971001E-1,-1.677991867E0,4.153407574E0
1.239961205E1,-9.349170327E-1,-1.423261046E0,2.232846737E0
1.240966740E1,-1.509130478E0,-2.870517075E-1,3.183951974E-1
1.241971509E1,-1.903138518E0,1.069563851E-1,-3.004112840E-1
1.242985782E1,-2.169475555E0,-2.125261426E-1,-3.779911697E-1
1.243963197E1,-2.398550034E0,-1.237558007E0,-3.376740813E-1
1.244962213E1,-2.476740837E0,-2.621778488E0,-3.798237741E-1
1.245962866E1,-2.322802782E0,-4.306545258E0,-5.478116870E-1
1.246961016E1,-2.160923481E0,-4.602814674E0,-4.983316362E-1
1.247961024E1,-1.947731614E0,-3.988284111E0,-2.545963824E-1
1.248961512E1,-1.732096314E0,-2.942482948E0,4.289497808E-2
1.249965147E1,-1.452319980E0,-2.181344748E0,2.811324298E-1
1.250973655E1,-1.096796393E0,-1.731137156E0,4.130793214E-1
1.251963101E1,-7.229468226E-1,-1.544823289E0,4.448443055E-1
1.252963482E1,-3.381017148E-1,-1.428148031E0,4.766092896E-1
1.253963378E1,-4.855160415E-2,-1.216177821E0,5.132611990E-1
1.254963840E1,7.647998631E-3,-9.278492928E-1,4.863831401E-1
1.255962636E1,-7.848400623E-2,-7.122138739E-1,4.112467170E-1
1.256963820E1,-2.104308903E-1,-5.607193112E-1,3.275581896E-1
1.257963643E1,-3.093910515E-1,-4.617591798E-1,2.249328196E-1
1.258962586E1,-3.258844018E-1,-4.984110892E-1,1.540604234E-2
1.259965090E1,-2.873999178E-1,-7.861285806E-1,-1.446406543E-1
1.260962228E1,-2.385306954E-1,-1.032918215E0,-3.272893727E-1
1.261961536E1,-2.122634947E-1,-1.233281970E0,-5.093271732E-1
1.262964140E1,-1.933266521E-1,-1.334685683E0,-6.748716831E-1
1.263962290E1,-1.414031088E-1,-1.316970587E0,-8.294205666E-1
1.264960736E1,-5.832544714E-2,-1.216177821E0,-9.625892043E-1
1.265966820E1,9.072567523E-2,-1.119661093E0,-1.073155761E0
1.266965774E1,3.033067882E-1,-1.051244140E0,-1.158066034E0
1.267964097E1,5.519289374E-1,-1.028642058E0,-1.216098189E0
1.268962055E1,8.029945493E-1,-1.043302894E0,-1.243587136E0
1.269967324E1,1.024738669E0,-9.968770742E-1,-1.218541741E0
1.270964863E1,1.185396194E0,-7.940698266E-1,-1.114694595E0
1.271963166E1,1.281912804E0,-4.831394553E-1,-9.851912260E-1
1.272962324E1,1.368655682E0,-3.456947803E-1,-8.471356630E-1
1.273962032E1,1.233043671E0,-4.605374336E-1,-5.777441263E-1
1.274965240E1,8.365921378E-1,-5.332303643E-1,-1.385319978E-1
1.275972020E1,2.269486189E-1,-4.202203155E-1,2.707477212E-1
1.276964643E1,-4.657725692E-1,-5.246782899E-1,5.951171517E-1
1.277962266E1,-1.120620131E0,-1.097059011E0,8.626761436E-1
1.278963859E1,-1.669788003E0,-1.592470765E0,9.738536477E-1
1.279963736E1,-2.121217251E0,-1.670050621E0,1.008062124E0
1.280969455E1,-2.486514807E0,-1.412265539E0,8.907759190E-1
1.281962305E1,-2.666719913E0,-1.031696439E0,4.851614237E-1
1.282962012E1,-2.674050331E0,-4.006726444E-1,2.334729210E-2
1.283966151E1,-2.291037798E0,3.616871834E-1,-2.240531296E-1
1.284963897E1,-1.342975140E0,-1.526613533E-1,-3.486696482E-1
1.285972674E1,5.953003764E-1,-2.457455873E0,-5.636942387E-1
1.286963289E1,1.347886324E0,-3.305336714E0,-4.121996462E-1
1.287963939E1,1.386370778E0,-3.209430933E0,-2.503203452E-1
1.288963097E1,1.069331765E0,-2.705467224E0,-1.159299910E-1
1.289970563E1,8.475877047E-1,-2.185009956E0,-3.712836653E-2
1.290963697E1,7.541253567E-1,-1.933333516E0,6.977304816E-2
1.291966559E1,7.974967957E-1,-1.769621730E0,1.394116879E-1
1.292962370E1,9.135611653E-1,-1.650502920E0,1.259726435E-1
1.293965124E1,1.011299610E0,-1.552764535E0,1.296258345E-2
1.294964543E1,1.018629909E0,-1.297422886E0,-2.820853293E-1
1.295963924E1,9.648738503E-1,-9.645012617E-1,-6.834238172E-1
1.296962182E1,8.995112777E-1,-6.407426596E-1,-1.117748976E0
1.297962797E1,7.761164904E-1,-2.467345893E-1,-1.476326823E0
1.298962609E1,5.494854450E-1,2.688356638E-1,-1.844067693E0
1.299961782E1,2.886460125E-1,1.051354051E0,-2.078639984E0
1.300968439E1,-4.569306970E-3,1.737355709E0,-1.776872516E0
1.301963955E1,-2.073765695E-1,1.628621697E0,-1.147070408E0
1.302962778E1,-1.523987055E-1,4.478191733E-1,-4.244169295E-1
1.303963893E1,2.636005282E-1,-6.993857026E-1,-1.672426760E-1
1.304961370E1,7.419080138E-1,-1.028031230E0,-3.346197605E-1
1.305968201E1,1.007634401E0,-7.818525434E-1,-5.948483348E-1
1.306961478E1,8.714114428E-1,-1.935893297E-1,-7.811622620E-1
1.307961843E1,4.187603295E-1,6.775045395E-1,-8.776789308E-1
1.308965639E1,-2.228439599E-2,1.439864278E0,-1.012069225E0
1.309962843E1,-2.641870379E-1,1.847922325E0,-1.167839885E0
1.310968105E1,-2.568566501E-1,1.946882486E0,-1.289402008E0
1.311961693E1,5.407375842E-2,1.499118209E0,-1.437231421E0
1.312960809E1,5.812504888E-1,7.923471928E-1,-1.604608536E0
1.313968766E1,6.814323664E-1,8.931399584E-1,-1.586893439E0
1.314961862E1,4.981727898E-1,1.542489648E0,-1.456168294E0
1.315963586E1,3.283522725E-1,2.036068916E0,-1.332773447E0
1.316963209E1,3.869953156E-1,1.992086530E0,-1.210600495E0
1.317963159E1,5.946894884E-1,1.547987461E0,-1.136685729E0
1.318962982E1,6.863192916E-1,1.225450635E0,-1.066436291E0
1.319961505E1,6.673824787E-1,1.070290804E0,-9.754173756E-1
1.320962009E1,6.618846655E-1,8.540446162E-1,-9.082221985E-1
1.321964289E1,7.186951637E-1,6.005355120E-1,-8.379727006E-1
1.322963416E1,8.103249669E-1,4.594256282E-1,-7.530624270E-1
1.323963905E1,9.141720533E-1,4.551495612E-1,-6.626543999E-1
1.324966516E1,1.056503654E0,4.893580377E-1,-5.691919923E-1
1.325966020E1,1.328949451E0,5.706031322E-1,-4.293038547E-1
1.326963989E1,1.416914105E0,8.503794074E-1,-3.627195358E-1
1.327964139E1,1.432185650E0,1.006760836E0,-3.321762979E-1
1.328965436E1,1.384538174E0,1.095336318E0,-3.211807013E-1
1.329961870E1,1.353384137E0,1.002484798E0,-3.535565734E-1
1.330964782E1,1.402253270E0,7.501975298E-1,-4.702318311E-1
1.331961986E1,1.443181276E0,7.080478072E-1,-5.765224099E-1
1.332964866E1,1.423022747E0,8.247230649E-1,-6.834238172E-1
1.333965424E1,1.309401751E0,9.670546651E-1,-8.294205666E-1
1.334974016E1,1.030847311E0,1.038525820E0,-9.595348835E-1
1.335961947E1,5.647571087E-1,9.939327836E-1,-9.173851609E-1
1.336987836E1,9.622345865E-2,7.727995515E-1,-6.693739295E-1
1.337960228E1,-2.434176207E-1,5.669379234E-1,-3.553891778E-1
1.338963332E1,-4.401162267E-1,4.325475395E-1,-9.027364850E-2
1.339962286E1,-5.653436184E-1,4.056694806E-1,1.381899565E-1
1.340960216E1,-5.366329551E-1,2.963246107E-1,2.359283864E-1
1.341960312E1,-5.036461949E-1,1.943101287E-1,3.556579947E-1
1.342971424E1,-5.653436184E-1,7.335879654E-2,4.570616186E-1
1.343962693E1,-7.809790373E-1,-1.764850914E-1,4.998221993E-1
1.344960947E1,-1.076027036E0,-5.387281775E-1,5.040982366E-1
1.345960482E1,-1.344196796E0,-9.174646139E-1,5.358632207E-1
1.346964170E1,-1.578769088E0,-1.236947179E0,6.018366814E-1
1.347959755E1,-1.778522015E0,-1.585751295E0,7.435573936E-1
1.348964339E1,-1.886645198E0,-1.996863604E0,1.038605332E0
1.349963201E1,-1.862821460E0,-2.326119900E0,1.529741049E0
1.350963724E1,-1.746757030E0,-2.483112097E0,2.114338875E0
1.351963839E1,-1.568384409E0,-2.506325006E0,2.694660902E0
1.352986397E1,-1.256232262E0,-2.357273817E0,3.344621658E0
1.353962816E1,-9.911167026E-1,-2.158742666E0,3.406929731E0
1.354961239E1,-7.803681493E-1,-1.908898950E0,2.827218771E0
1.355962955E1,-7.742595077E-1,-1.651113868E0,1.619538188E0
1.356960955E1,-1.007610083E0,-1.083620071E0,5.267002583E-1
1.357964713E1,-1.277612567E0,-8.924191594E-1,1.656788886E-1
1.358972543E1,-1.565940976E0,-1.003596663E0,9.481851757E-2
1.359962774E1,-1.859767079E0,-1.353622437E0,-5.423259735E-2
1.360970143E1,-2.022867918E0,-2.045732737E0,-2.252748609E-1
1.361970213E1,-1.980718493E0,-2.948591471E0,-3.437827229E-1
1.362963978E1,-1.858545423E0,-3.836178780E0,-4.549601972E-1
1.363962113E1,-1.794404507E0,-4.513017654E0,-5.160467029E-1
1.364960805E1,-1.741259217E0,-4.476976395E0,-4.036475122E-1
1.365965786E1,-1.663068533E0,-3.602828264E0,-1.776273847E-1
1.366962459E1,-1.596484184E0,-2.035347939E0,8.626641333E-2
1.367968693E1,-1.476143718E0,-1.417763352E0,1.931678206E-1
1.368973105E1,-1.268449545E0,-1.190521479E0,2.493674159E-1
1.369962559E1,-9.434692264E-1,-1.088506937E0,3.092322350E-1
1.370963443E1,-5.928325057E-1,-1.010926962E0,3.165625930E-1
1.372005586E1,-2.971737385E-1,-1.030474663E0,2.860193551E-1
1.372961528E1,-1.322401464E-1,-1.100724220E0,2.444805205E-1
1.373961836E1,-8.276005834E-2,-1.116606712E0,2.218784988E-1
1.374960551E1,-1.114707217E-1,-1.108665466E0,1.852265745E-1
1.375962120E1,-1.713355184E-1,-1.108054638E0,8.993160725E-2
1.376964378E1,-2.336437702E-1,-1.130656600E0,-5.362173170E-2
1.377961374E1,-2.831238508E-1,-1.205182195E0,-2.124466896E-1
1.378965224E1,-2.983954847E-1,-1.324911833E0,-3.779911697E-1
1.379961759E1,-2.501371205E-1,-1.525886416E0,-6.253916025E-1
1.380961047E1,-1.792767644E-1,-1.587583899E0,-7.548950315E-1
1.381961424E1,-6.076890975E-2,-1.560094953E0,-8.514117599E-1
1.382960512E1,7.667577267E-2,-1.500841022E0,-9.112765193E-1
1.383976605E1,2.122878432E-1,-1.458691239E0,-9.320459366E-1
1.384960270E1,3.387369812E-1,-1.407989502E0,-9.008918405E-1
1.385960220E1,4.627426267E-1,-1.304142356E0,-7.970447540E-1
1.386963182E1,6.026307344E-1,-1.083009124E0,-6.296676397E-1
1.387962209E1,7.040343881E-1,-7.287072539E-1,-4.213626087E-1
1.388963528E1,7.883337736E-1,-3.499708176E-1,-2.228314131E-1
1.389966259E1,8.665245175E-1,-1.105116457E-1,1.192531288E-1
1.390967036E1,8.262074590E-1,-7.263799757E-2,5.877867937E-1
1.391963539E1,6.441695690E-1,-1.502178907E-1,1.010505557E0
1.392965086E1,-4.610814154E-2,-9.890520573E-2,1.212091088E0
1.393963101E1,-7.278337479E-1,-1.227289513E-1,1.014781594E0
1.394962874E1,-1.426052809E0,-2.974364161E-1,7.227879763E-1
1.395963678E1,-2.005763769E0,-4.428223372E-1,4.387356639E-1
1.396965693E1,-2.372893810E0,-6.590685844E-1,1.803396493E-1
1.397963789E1,-2.413821697E0,-1.006040096E0,-2.552192844E-2
1.398963255E1,-2.141375780E0,-1.277875185E0,-1.831251681E-1
1.399961236E1,-1.851825833E0,-1.477017283E0,-2.179444879E-1
1.401007855E1,-1.543949723E0,-1.629733562E0,-1.910664141E-1
1.401963455E1,-1.011275291E0,-1.671883225E0,-3.077416718E-1
1.402961324E1,-4.413379431E-1,-1.663941979E0,-5.300965905E-1
1.403962574E1,-7.909486443E-2,-1.798332334E0,-6.351654530E-1
1.404961586E1,1.255449951E-1,-1.928446651E0,-5.850744843E-1
1.405961147E1,2.196182311E-1,-1.932111859E0,-4.531275928E-1
1.406964670E1,3.576737940E-1,-1.655389905E0,-4.036475122E-1
1.407972174E1,4.541904926E-1,-1.491067171E0,-5.435356498E-1
1.408964016E1,5.500963330E-1,-1.481904149E0,-6.168394685E-1
1.409963370E1,6.374500990E-1,-1.508782268E0,-5.899614096E-1
1.410962220E1,7.431297898E-1,-1.466021657E0,-6.052330732E-1
1.411970366E1,8.872939348E-1,-1.383554816E0,-7.157996297E-1
1.412992474E1,1.025960326E0,-1.299866319E0,-8.556877971E-1
1.413969024E1,1.102318525E0,-1.260770917E0,-9.858021140E-1
1.414963847E1,1.130418301E0,-1.232671142E0,-1.135464072E0
1.415962512E1,1.097431540E0,-1.153258681E0,-1.326664805E0
1.416963051E1,9.679281712E-1,-7.763547301E-1,-1.484878898E0
1.417961605E1,7.235820889E-1,-2.082500756E-1,-1.539245963E0
1.418963016E1,3.863844573E-1,3.060984612E-1,-1.461055160E0
1.419963289E1,1.689164340E-1,5.089057088E-1,-1.106753349E0
1.420963793E1,9.500172734E-2,6.358495355E-2,-8.581312895E-1
1.421964586E1,2.446637154E-1,-4.452657998E-1,-7.420668602E-1
1.422961724E1,5.006162524E-1,-7.787982225E-1,-7.463428974E-1
1.423962489E1,7.009800673E-1,-7.024400234E-1,-8.575204015E-1
1.424960939E1,7.681752443E-1,-3.053776622E-1,-1.018177867E0
1.425961662E1,6.417261362E-1,2.999897897E-1,-1.148903012E0
1.426963074E1,3.833301365E-1,8.357186317E-1,-1.220985174E0
1.427963009E1,1.114950925E-1,1.199794292E0,-1.316890955E0
1.428970420E1,-6.687756628E-2,1.298143625E0,-1.448227048E0
1.429961093E1,-1.456791759E-1,1.334795475E0,-1.597278118E0
1.430962586E1,-5.160593241E-2,1.329297662E0,-1.615604162E0
1.431964870E1,1.762468070E-1,1.451470733E0,-1.457389951E0
1.432961947E1,3.759997487E-1,1.488733530E0,-1.302841067E0
1.433961882E1,4.774033725E-1,1.334184647E0,-1.211822152E0
1.434960989E1,4.883989692E-1,1.223007202E0,-1.142183542E0
1.435961293E1,4.877880812E-1,1.184522629E0,-1.017567039E0
1.436967051E1,4.602991641E-1,1.039747596E0,-9.021135569E-1
1.437961497E1,4.664078057E-1,7.550844550E-1,-8.550769091E-1
1.438962409E1,5.568158627E-1,3.842892051E-1,-8.624073267E-1
1.439960874E1,6.722694039E-1,1.191736832E-1,-8.495791554E-1
1.440967543E1,7.388536930E-1,1.069563851E-1,-7.823839784E-1
1.441962370E1,7.913880944E-1,2.224099040E-1,-6.870889664E-1
1.442963812E1,8.836287856E-1,3.464155495E-1,-5.869070888E-1
1.443962343E1,9.642629623E-1,4.624799788E-1,-5.013859272E-1
1.444962736E1,9.752585292E-1,5.339512229E-1,-4.280821383E-1
1.445962420E1,9.312762618E-1,5.125709176E-1,-3.993714750E-1
1.446964543E1,8.280400038E-1,6.011464000E-1,-4.164756835E-1
1.447961105E1,7.785599232E-1,8.259447813E-1,-4.476298094E-1
1.448962124E1,7.467949390E-1,1.026919365E0,-4.879469275E-1
1.449961447E1,7.064778209E-1,1.114273190E0,-5.392596126E-1
1.450961270E1,6.392826438E-1,1.145427227E0,-5.514768958E-1
1.451963059E1,6.179023981E-1,1.022032499E0,-5.423139334E-1
1.452963732E1,7.394645810E-1,6.341331005E-1,-5.820201635E-1
1.453963316E1,8.286508918E-1,4.349910021E-1,-6.473827362E-1
1.454974293E1,8.427007794E-1,3.995608389E-1,-6.577674747E-1
1.455966674E1,7.785599232E-1,3.903978467E-1,-6.498262286E-1
1.456963928E1,6.930388212E-1,2.590618134E-1,-5.777441263E-1
1.457966328E1,5.525397658E-1,7.091533393E-2,-4.757296145E-1
1.458963866E1,3.289631307E-1,-2.100826800E-1,-3.602760732E-1
1.459962289E1,5.407375842E-2,-5.210130811E-1,-2.490986139E-1
1.460962074E1,-3.778079748E-1,-7.403137088E-1,-3.957182914E-2
1.461962174E1,-6.148236990E-1,-7.048835158E-1,1.302487105E-1
1.462961470E1,-8.255721927E-1,-6.676207185E-1,2.597521245E-1
1.463967658E1,-1.018605709E0,-6.560142636E-1,3.562688529E-1
1.464968370E1,-1.178652406E0,-7.390919328E-1,4.197988212E-1
1.465962259E1,-1.335644722E0,-9.608360529E-1,4.650028646E-1
1.466963270E1,-1.528678179E0,-1.282151222E0,5.065416694E-1
1.467962582E1,-1.711937666E0,-1.638896465E0,6.164974570E-1
1.468962416E1,-1.794404507E0,-1.853921056E0,8.871107697E-1
1.469964220E1,-1.726598501E0,-1.891183853E0,1.325101137E0
1.470962670E1,-1.565940976E0,-1.839871168E0,1.868160367E0
1.471962686E1,-1.396731257E0,-1.760458708E0,2.385563135E0
1.472965682E1,-1.269671321E0,-1.754960895E0,2.847377300E0
1.473962489E1,-1.017383933E0,-2.070167303E0,3.264598131E0
1.474962139E1,-8.927673697E-1,-2.263200760E0,3.193737745E0
1.475961289E1,-8.811609149E-1,-2.302906990E0,2.625633240E0
1.476962962E1,-1.050981522E0,-2.151412249E0,1.625036001E0
1.477962728E1,-1.320984006E0,-1.891183853E0,5.254785419E-1
1.478964301E1,-1.570827842E0,-1.879577398E0,-1.012692153E-1
1.479961728E1,-1.716213822E0,-2.227770567E0,-2.026728541E-1
1.480971036E1,-1.740037560E0,-2.735399485E0,-2.222205400E-1
1.481964905E1,-1.652072906E0,-3.394523144E0,-2.686462998E-1
1.482962243E1,-1.555556178E0,-3.824572325E0,-2.326052487E-1
1.483962643E1,-1.524402142E0,-3.766540051E0,-1.238712370E-1
1.484964482E1,-1.614810109E0,-3.316332340E0,-7.072595507E-2
1.485961832E1,-1.795015335E0,-2.712186575E0,-4.751307517E-2
1.486960609E1,-1.972777247E0,-2.115371227E0,-2.919914201E-3
1.487960551E1,-1.989270568E0,-1.520388722E0,5.938834324E-2
1.488961193E1,-1.787685037E0,-1.283983827E0,1.125336140E-1
1.489961720E1,-1.368631482E0,-1.172195435E0,2.078285962E-1
1.490960351E1,-9.117041826E-1,-1.105000257E0,2.817432880E-1
1.491961366E1,-5.751174092E-1,-1.163032532E0,3.293907642E-1
1.492964670E1,-4.046860337E-1,-1.229616761E0,3.898664415E-1
1.493966978E1,-3.924687207E-1,-1.257105708E0,4.271292090E-1
1.494964174E1,-4.633290768E-1,-1.254051447E0,4.216314256E-1
1.495963228E1,-5.348003507E-1,-1.257716656E0,3.434406817E-1
1.496992678E1,-5.763391852E-1,-1.310250998E0,2.157698423E-1
1.497961543E1,-5.751174092E-1,-1.425704598E0,7.160565257E-2
1.498964139E1,-5.293025374E-1,-1.592470765E0,-8.660845459E-2
1.499962732E1,-4.578313231E-1,-1.687154889E0,-2.301617861E-1
1.500962778E1,-3.985773921E-1,-1.640118241E0,-4.176974297E-1
1.501961170E1,-3.997991085E-1,-1.497175813E0,-5.172684193E-1
1.502961239E1,-3.747536242E-1,-1.315748811E0,-5.826310515E-1
1.503961393E1,-2.776260674E-1,-1.136765242E0,-5.997352600E-1
1.504963385E1,-1.371270716E-1,-9.809945822E-1,-5.801875591E-1
1.505961282E1,-1.128882170E-2,-8.093414903E-1,-5.404813290E-1
1.506961585E1,7.239971310E-2,-6.358557343E-1,-4.659557641E-1
1.507960466E1,1.163820177E-1,-5.094066262E-1,-3.529457152E-1
1.508962393E1,1.450926811E-1,-4.794742465E-1,-1.977859288E-1
1.509963189E1,1.689164340E-1,-5.368955731E-1,-2.857625484E-2
1.510961789E1,1.689164340E-1,-6.077559590E-1,1.100901514E-1
1.511962982E1,9.255826473E-2,-6.694533229E-1,1.986656189E-1
1.512960947E1,-9.009044617E-2,-7.488657832E-1,2.487565577E-1
1.513964235E1,-5.635110140E-1,-9.150211215E-1,2.707477212E-1
1.514963701E1,-9.269758463E-1,-1.065294027E0,2.359283864E-1
1.515967509E1,-1.228132486E0,-1.150204301E0,1.058140993E-1
1.516963278E1,-1.466369867E0,-1.023755193E0,-1.018800884E-1
1.517962051E1,-1.649018645E0,-1.037194252E0,-3.181263804E-1
1.518961501E1,-1.757141709E0,-1.212512612E0,-4.757296145E-1
1.519963270E1,-1.599538565E0,-1.310861945E0,-6.705956459E-1
1.520961897E1,-1.110235453E0,-1.420206785E0,-9.002809525E-1
1.521962335E1,-5.268591046E-1,-1.662109375E0,-1.041390777E0
1.522963001E1,-1.495401561E-2,-1.765956521E0,-1.142794371E0
1.523962082E1,4.242581129E-1,-1.750074029E0,-1.224650383E0
1.524963374E1,7.645100355E-1,-1.690209150E0,-1.274130464E0
1.525961370E1,1.023516893E0,-1.547877550E0,-1.351099491E0
1.526962712E1,1.178676605E0,-1.363396287E0,-1.454335690E0
1.527966870E1,1.022295117E0,-1.188077927E0,-1.603386760E0
1.528961247E1,9.722042084E-1,-1.127602339E0,-1.760379195E0
1.529965235E1,9.685390592E-1,-1.389663458E0,-1.586893439E0
1.530966989E1,7.834468484E-1,-2.040234804E0,-8.953940272E-1
1.531962347E1,5.012271404E-1,-2.349943638E0,5.938834324E-2
1.532960993E1,3.204110265E-1,-1.803219318E0,3.324451149E-1
1.533962489E1,1.982379556E-1,-7.910155058E-1,5.938834324E-2
1.534966185E1,1.206580698E-1,6.725014001E-2,-3.786020577E-1
1.535964170E1,1.347079724E-1,3.317547739E-1,-6.913650632E-1
1.536963978E1,1.689164340E-1,1.839254200E-1,-8.599638343E-1
1.537963008E1,2.678765953E-1,-1.068464518E-1,-9.870238304E-1
1.538961935E1,4.468601048E-1,-3.383643925E-1,-1.080486178E0
1.539965074E1,7.107539177E-1,-4.953567684E-1,-1.031006098E0
1.540964932E1,1.072386026E0,-5.338412523E-1,-7.359582186E-1
1.541966355E1,1.181730986E0,-2.668931484E-1,-6.137851477E-1
1.542967608E1,1.117590070E0,1.698755026E-1,-5.698028803E-1
1.544002305E1,8.622484803E-1,6.756719351E-1,-5.814092755E-1
1.544961509E1,4.682404101E-1,1.034860611E0,-6.553239822E-1
1.545960720E1,5.834981427E-2,1.296311021E0,-8.343074918E-1
1.546961105E1,-3.093910515E-1,1.542489648E0,-1.246030688E0
1.547960739E1,-4.883745909E-1,1.757514238E0,-1.731668472E0
1.548965766E1,-4.437814355E-1,1.981090903E0,-1.932032347E0
1.549965039E1,-2.476936579E-1,2.140526772E0,-1.741442323E0
1.550964685E1,-1.188011095E-1,2.210165501E0,-1.440285802E0
1.551965078E1,-2.116526067E-1,2.364714384E0,-1.302841067E0
1.552993062E1,-2.165395319E-1,2.182676554E0,-1.301008463E0
1.553961724E1,-4.305381328E-2,1.948715091E0,-1.230148077E0
1.554961428E1,2.477180362E-1,1.846089721E0,-1.101866484E0
1.555972609E1,4.780142605E-1,1.416651487E0,-1.060327649E0
1.556961335E1,6.319522858E-1,1.030584574E0,-1.038947344E0
1.557961901E1,6.527217031E-1,8.363295197E-1,-1.029173493E0
1.558962712E1,6.435587406E-1,6.878892779E-1,-1.022454023E0
1.559980778E1,6.447804570E-1,5.883182287E-1,-9.833586216E-1
1.561102605E1,6.881518960E-1,5.693814158E-1,-9.198286533E-1
1.561978466E1,7.498492599E-1,6.463504434E-1,-8.434705138E-1
1.562962566E1,8.048271537E-1,7.569169998E-1,-7.665014863E-1
1.563971051E1,8.323161006E-1,8.454924822E-1,-7.078583837E-1
1.564964166E1,8.506420255E-1,8.680945039E-1,-6.760933995E-1
1.565960566E1,8.628593683E-1,8.974160552E-1,-6.473827362E-1
1.566963962E1,8.836287856E-1,8.717597127E-1,-6.608217955E-1
1.567960655E1,8.781309724E-1,9.517830610E-1,-6.938084960E-1
1.568960305E1,8.402573466E-1,1.156422853E0,-7.164105177E-1
1.569962770E1,8.262074590E-1,1.215676785E0,-7.481755018E-1
1.570963774E1,8.231531382E-1,1.188798666E0,-7.481755018E-1
1.571971801E1,8.262074590E-1,1.192463875E0,-7.408451438E-1
1.572964393E1,8.579724431E-1,1.178413987E0,-7.310712934E-1
1.573969870E1,9.037873149E-1,1.169250965E0,-7.475646734E-1
1.574961455E1,9.777020216E-1,1.075177789E0,-7.634471655E-1
1.575965278E1,1.010688663E0,1.013480425E0,-8.202576041E-1
1.576961766E1,1.019240856E0,9.181854725E-1,-8.758463264E-1
1.577962212E1,9.593760371E-1,8.516011238E-1,-8.648507595E-1
1.578965947E1,8.298726082E-1,7.294281125E-1,-8.178141713E-1
1.579969908E1,6.160697937E-1,5.528880358E-1,-7.726101279E-1
1.580967728E1,3.478999436E-1,2.101926208E-1,-5.679702759E-1
1.581963732E1,-6.321237236E-2,-6.164242327E-2,-3.614978194E-1
1.582964482E1,-2.293677032E-1,-5.431203917E-2,-1.391428709E-1
1.583961566E1,-3.527624905E-1,4.037207365E-2,3.678632900E-2
1.584964747E1,-5.512936711E-1,1.240606084E-1,1.931678206E-1
1.585968959E1,-8.665001392E-1,6.419581920E-2,3.385537565E-1
1.586962916E1,-1.207363009E0,-2.271869183E-1,4.876048565E-1
1.587969393E1,-1.455374360E0,-6.101993918E-1,6.116105318E-1
1.588963997E1,-1.578158259E0,-9.565599561E-1,7.594398856E-1
1.589962570E1,-1.664290190E0,-1.263825297E0,9.622471929E-1
1.590961605E1,-1.717435479E0,-1.571090460E0,1.268290758E0
1.591962232E1,-1.695444345E0,-1.847812414E0,1.742933035E0
1.592961778E1,-1.553112745E0,-1.995641828E0,2.319589615E0
1.593965093E1,-1.337477326E0,-1.990754962E0,2.867535830E0
1.594963082E1,-9.727906585E-1,-1.949216008E0,3.511998653E0
1.595961812E1,-7.767029405E-1,-1.896681666E0,3.774059772E0
1.596978339E1,-6.013846397E-1,-1.776341200E0,3.856526613E0
1.597962101E1,-5.128091574E-1,-1.678602815E0,3.496726990E0
1.598961435E1,-6.007737517E-1,-1.567425251E0,2.573098660E0
1.599963162E1,-7.822007537E-1,-1.351789832E0,1.461324096E0
1.600961258E1,-9.556865096E-1,-1.241834164E0,5.554109216E-1
1.601962958E1,-1.179263234E0,-1.522832155E0,2.176024318E-1
1.602964332E1,-1.336866498E0,-1.979759336E0,9.176419675E-2
1.603962497E1,-1.343585968E0,-2.508768559E0,-4.568048194E-2
1.604972120E1,-1.246458411E0,-3.062212467E0,-1.257038265E-1
1.605963443E1,-1.152385116E0,-3.316332340E0,-3.468490764E-2
1.606963835E1,-1.120620131E0,-3.457442284E0,1.907243580E-1
1.607964185E1,-1.192702293E0,-3.448890209E0,3.800925910E-1
1.608961978E1,-1.394287825E0,-2.987076044E0,3.843686581E-1
1.609967932E1,-1.431550622E0,-2.017022133E0,4.552290142E-1
1.610961435E1,-1.408337712E0,-7.061052322E-1,6.287147403E-1
1.611961093E1,-1.341753364E0,-1.338406838E-2,7.203445435E-1
1.612964447E1,-1.180485010E0,5.747629702E-2,7.398922443E-1
1.613963608E1,-9.569081664E-1,-1.111225113E-1,7.160684466E-1
1.614963847E1,-7.449379563E-1,-3.524142802E-1,6.898012757E-1
1.615962708E1,-6.588059664E-1,-4.703112841E-1,6.494841576E-1
1.616965112E1,-7.205033898E-1,-4.831394553E-1,5.548000336E-1
1.617967055E1,-8.561154604E-1,-4.568722546E-1,4.075815380E-1
1.618967455E1,-9.459126592E-1,-4.648135006E-1,2.273762822E-1
1.619964347E1,-9.153693914E-1,-6.022581458E-1,1.357344911E-2
1.620961289E1,-7.614313364E-1,-8.802018166E-1,-1.959533393E-1
1.621963016E1,-4.541661143E-1,-1.334074736E0,-4.470189512E-1
1.622962685E1,-2.647978961E-1,-1.519777775E0,-5.722463131E-1
1.623961055E1,-9.558822960E-2,-1.512447476E0,-6.705956459E-1
1.624967528E1,5.712808669E-2,-1.364007115E0,-7.206865549E-1
1.625960935E1,2.012922764E-1,-1.179525852E0,-7.286278009E-1
1.626961451E1,3.301848471E-1,-1.002985716E0,-6.901433468E-1
1.627962197E1,4.212037921E-1,-8.062871099E-1,-6.107308269E-1
1.628961470E1,5.024488568E-1,-6.486839056E-1,-5.056620240E-1
1.629972558E1,5.427659750E-1,-4.532070458E-1,-3.712716699E-1
1.630968382E1,5.531506538E-1,-2.791104615E-1,-2.338269800E-1
1.631969470E1,5.726983547E-1,-1.923675835E-1,-4.140442610E-2
1.632964785E1,6.142371893E-1,-1.673220992E-1,1.632354259E-1
1.633979258E1,6.508890986E-1,-2.387933433E-1,2.878519297E-1
1.634963128E1,4.810685813E-1,-4.837503135E-1,2.609738708E-1
1.635961935E1,1.566991210E-1,-1.018868327E0,1.198640019E-1
1.636961616E1,-3.649798036E-1,-1.194186568E0,-2.124587074E-2
1.637963939E1,-9.544647336E-1,-1.248553634E0,-1.550253630E-1
1.638962551E1,-1.478587151E0,-1.263214350E0,-2.796418667E-1
1.639971374E1,-1.865264893E0,-1.402491689E0,-3.547782898E-1
1.640961320E1,-2.039972305E0,-1.601633787E0,-4.219734669E-1
1.641963970E1,-1.777300358E0,-1.745187044E0,-5.264314413E-1
1.643023170E1,-1.226910710E0,-1.734802365E0,-6.351654530E-1
1.643964785E1,-7.705942988E-1,-1.713422060E0,-6.412740946E-1
1.644966016E1,-4.340075552E-1,-1.638896465E0,-4.848926067E-1
1.645961658E1,-1.963809729E-1,-1.568647027E0,-1.837360263E-1
1.646961697E1,3.208260983E-2,-1.499619246E0,9.359678626E-2
1.647967632E1,1.945727766E-1,-1.387830853E0,1.748418659E-1
1.648967147E1,2.403876483E-1,-1.206403971E0,1.760635972E-1
1.649972078E1,1.933510303E-1,-9.229623675E-1,8.932073414E-2
1.650979220E1,1.457035542E-1,-6.975530982E-1,-8.783018589E-2
1.651968082E1,1.738033444E-1,-5.234565139E-1,-3.333980143E-1
1.652982497E1,2.568810284E-1,-4.611482918E-1,-5.740789175E-1
1.653962135E1,3.717236817E-1,-5.588867068E-1,-8.104837537E-1
1.654962435E1,4.993945360E-1,-7.244312167E-1,-1.038947344E0
1.655965989E1,6.087394357E-1,-7.244312167E-1,-1.239921927E0
1.656960870E1,6.826540828E-1,-5.210130811E-1,-1.395081758E0
1.657960435E1,7.449623346E-1,-2.449019849E-1,-1.516033053E0
1.658964074E1,8.097140789E-1,-1.349462569E-1,-1.489765882E0
1.659963224E1,8.646919727E-1,-3.133189082E-1,-1.320556164E0
1.660961274E1,8.879048228E-1,-5.521671772E-1,-1.032838702E0
1.661961924E1,8.378138542E-1,-5.460585356E-1,-6.681521535E-1
1.662968489E1,8.317052126E-1,-2.699474692E-1,-6.205046773E-1
1.663961078E1,8.860722184E-1,4.037207365E-2,-7.359582186E-1
1.664968085E1,9.557108879E-1,1.943101287E-1,-9.027244449E-1
1.665961878E1,9.483804703E-1,2.590618134E-1,-9.974085093E-1
1.666969212E1,8.011619449E-1,4.258280396E-1,-1.027951717E0
1.667968447E1,5.861374140E-1,7.031608820E-1,-1.043834209E0
1.668961551E1,3.320174515E-1,1.108775377E0,-1.144626975E0
1.669962139E1,1.658620983E-1,1.452081561E0,-1.248474121E0
1.670961274E1,1.414274871E-1,1.552263498E0,-1.319945335E0
1.671965612E1,1.676946878E-1,1.624345660E0,-1.376144886E0
1.672966478E1,2.690983117E-1,1.614571810E0,-1.403633833E0
1.673965082E1,4.053212702E-1,1.593802333E0,-1.344379902E0
1.674965593E1,5.391007662E-1,1.465520620E0,-1.282071710E0
1.675964124E1,6.417261362E-1,1.480792284E0,-1.266800046E0
1.676962278E1,6.624955535E-1,1.532715797E0,-1.267410874E0
1.677961882E1,6.850975752E-1,1.455135942E0,-1.253360987E0
1.678963089E1,7.174734473E-1,1.248052597E0,-1.213043928E0
1.679962158E1,7.510710359E-1,1.009204268E0,-1.145237923E0
1.680961789E1,7.913880944E-1,7.599713802E-1,-1.056662440E0
1.681961878E1,8.359813094E-1,5.168470144E-1,-9.442632794E-1
1.682967732E1,8.824070096E-1,3.348091245E-1,-8.147598505E-1
1.683961008E1,9.453261495E-1,1.692646444E-1,-6.883107424E-1
1.684962489E1,1.036955953E0,1.410486549E-2,-5.899614096E-1
1.685979558E1,1.135305166E0,-1.153985634E-1,-5.245988369E-1
1.686960574E1,1.208608985E0,-2.015305758E-1,-4.787839353E-1
1.687961366E1,1.241595745E0,-1.966436505E-1,-4.567928016E-1
1.688962139E1,1.271528125E0,-9.035308659E-2,-4.549601972E-1
1.689962543E1,1.257478237E0,2.143524960E-2,-4.708426893E-1
1.690962704E1,1.216550231E0,1.210062876E-1,-5.019968152E-1
1.691960797E1,1.189061284E0,3.152614236E-1,-5.221553445E-1
1.693096751E1,1.142635584E0,6.524590850E-1,-4.891686440E-1
1.693961635E1,1.029014707E0,1.097168922E0,-4.543493390E-1
1.694962028E1,8.628593683E-1,1.298143625E0,-5.300965905E-1
1.695961754E1,6.802106500E-1,1.131377339E0,-5.838527679E-1
1.696960804E1,4.034886956E-1,8.699271083E-1,-6.131743193E-1
1.697962112E1,-2.106266469E-2,6.090876460E-1,-7.829948068E-1
1.698960451E1,-3.680341244E-1,2.969354689E-1,-9.784716964E-1
1.699960655E1,-5.109766126E-1,1.081781164E-1,-1.100644708E0
1.700960220E1,-5.238047838E-1,3.708501756E-1,-1.004738927E0
1.701960108E1,-4.285097718E-1,7.642474174E-1,-6.577674747E-1
1.702960812E1,-4.712703228E-1,8.076188564E-1,-3.957182914E-2
1.703961285E1,-7.785355449E-1,5.815986991E-1,3.532145321E-1
1.704961232E1,-1.110846281E0,3.109853566E-1,6.843034625E-1
1.705966839E1,-1.430328846E0,1.899179071E-2,9.408668876E-1
1.706961708E1,-1.707050800E0,-3.188166916E-1,1.199873805E0
1.707960504E1,-1.895808101E0,-6.902227402E-1,1.473541498E0
1.708960020E1,-1.950175166E0,-1.085452557E0,1.760648131E0
1.709960958E1,-1.926351428E0,-1.400659084E0,2.063637257E0
1.710961566E1,-1.844495416E0,-1.595525146E0,2.409997702E0
1.711961062E1,-1.692390084E0,-1.689598322E0,2.766742945E0
1.712960089E1,-1.517071724E0,-1.721974254E0,3.133262157E0
1.713959951E1,-1.331979513E0,-1.624846578E0,3.403875589E0
1.714962912E1,-1.046705484E0,-1.525886416E0,3.259100437E0
1.715963058E1,-1.189037085E0,-1.179525852E0,1.724607110E0
1.716962474E1,-1.756530881E0,-2.345172763E-1,5.438044667E-1
1.717962374E1,-2.087008953E0,1.643777192E-1,-1.031018198E-1
1.718961766E1,-2.143208504E0,-1.404440403E-1,-2.057271749E-1
1.719962520E1,-2.162756205E0,-8.075088859E-1,-2.503203452E-1
1.720963554E1,-2.237892628E0,-1.752517462E0,-3.425610065E-1
1.721962097E1,-2.328911543E0,-2.765331984E0,-4.054801166E-1
1.722961704E1,-2.311196327E0,-3.508144140E0,-3.908193409E-1
1.723968139E1,-2.211625338E0,-3.903984785E0,-3.083525300E-1
1.724961943E1,-2.011872530E0,-3.746381521E0,-1.660209447E-1
1.725964270E1,-1.680172682E0,-2.958976269E0,1.259726435E-1
1.726961362E1,-1.242793202E0,-2.162407875E0,4.588941932E-1
1.727967201E1,-7.131729722E-1,-1.866749287E0,6.635340452E-1
1.728962974E1,-1.023077443E-1,-1.570479631E0,7.551638484E-1
1.729964366E1,7.973010093E-2,-9.015821218E-1,7.747115493E-1
1.730964720E1,4.735424370E-2,-4.916915596E-1,8.028113246E-1
1.731964220E1,-9.314476699E-2,-2.894951701E-1,7.704355121E-1
1.732961451E1,-2.586892247E-1,-2.772778571E-1,6.757513881E-1
1.733961401E1,-4.010208547E-1,-3.017124832E-1,5.535783172E-1
1.734961208E1,-5.128091574E-1,-3.695185184E-1,4.204097092E-1
1.735967428E1,-5.622892380E-1,-5.289543271E-1,2.970149219E-1
1.736963362E1,-5.659544468E-1,-7.623048425E-1,1.785070598E-1
1.737961820E1,-5.140309334E-1,-1.010316133E0,4.839276895E-2
1.738960528E1,-4.285097718E-1,-1.213123441E0,-1.024909467E-1
1.739960793E1,-3.161105812E-1,-1.307807565E0,-2.497094721E-1
1.740962404E1,-1.829419434E-1,-1.299866319E0,-3.792129159E-1
1.741964735E1,-4.366467893E-2,-1.146539092E0,-4.763404727E-1
1.742961620E1,1.786902696E-1,-7.476440668E-1,-5.661376715E-1
1.743961266E1,3.008633256E-1,-5.026870966E-1,-5.594181418E-1
1.744962335E1,3.668367863E-1,-3.169841170E-1,-5.129923820E-1
1.745962089E1,3.515651524E-1,-4.759252071E-2,-4.286929965E-1
1.746960731E1,2.672657371E-1,2.932702899E-1,-3.254567683E-1
1.747971847E1,1.628077626E-1,6.616220474E-1,-2.362704426E-1
1.748961954E1,4.491078109E-2,8.540446162E-1,-1.373102665E-1
1.749961397E1,-8.337091655E-2,8.180035353E-1,-7.195970044E-3
1.750961728E1,-2.006570399E-1,6.610111594E-1,1.131444722E-1
1.751960097E1,-2.428067327E-1,4.808059037E-1,2.114937901E-1
1.752960443E1,-2.232590616E-1,1.943101287E-1,2.463130951E-1
1.753959943E1,-2.544131875E-1,-2.607845068E-1,2.108829170E-1
1.754963716E1,-3.600928783E-1,-7.311506867E-1,1.284161061E-1
1.755960889E1,-6.856840253E-1,-1.082398295E0,-3.163057938E-2
1.756963781E1,-8.274047971E-1,-1.368283272E0,-1.922881454E-1
1.757960843E1,-9.037629366E-1,-1.467243433E0,-2.949135005E-1
1.758964185E1,-9.092607498E-1,-1.497786641E0,-3.663847446E-1
1.759960504E1,-7.687616944E-1,-1.450139165E0,-4.665666521E-1
1.760964981E1,-4.731029272E-1,-1.225951672E0,-6.150068641E-1
1.761965470E1,-2.153178155E-1,-1.099502563E0,-6.522696614E-1
1.762967639E1,8.644961566E-2,-1.268101335E0,-5.343726873E-1
1.763961135E1,3.753888905E-1,-1.468465090E0,-3.254567683E-1
1.764962454E1,4.615208805E-1,-1.546655893E0,-7.561287284E-2
1.765969135E1,3.943257034E-1,-1.462356448E0,7.343824208E-2
1.766970047E1,3.020850420E-1,-1.271155596E0,1.119227409E-1
1.767962789E1,2.196182311E-1,-1.009705305E0,7.038392127E-2
1.769367808E1,2.312246859E-1,-7.751330137E-1,-1.232603639E-1
1.770962985E1,5.720874667E-1,-8.386629820E-1,-4.983316362E-1
1.771967374E1,7.394645810E-1,-8.154501319E-1,-7.090801597E-1
1.772962858E1,8.433116674E-1,-6.218058467E-1,-9.515936375E-1
1.773962839E1,8.909591436E-1,-2.730017900E-1,-1.152568221E0
1.774968001E1,9.215024114E-1,3.059823066E-2,-1.278406501E0
1.775963401E1,9.746477008E-1,1.356670558E-1,-1.275963068E0
1.776964185E1,9.660955667E-1,2.627270222E-1,-1.218541741E0
1.777965512E1,8.335378170E-1,4.075020850E-1,-1.146459579E0
1.778963428E1,6.588303447E-1,3.842892051E-1,-9.289916158E-1
1.779961943E1,4.993945360E-1,3.073201776E-1,-6.247807145E-1
1.780964381E1,4.700729847E-1,5.503284186E-2,-4.647340477E-1
1.781968697E1,5.617027879E-1,-9.768347442E-2,-6.382197738E-1
1.782967697E1,7.266364098E-1,-1.216233894E-2,-1.077431798E0
1.783969312E1,7.058669925E-1,1.320018470E-1,-1.187998414E0
1.784963851E1,6.044633389E-1,3.745153546E-1,-1.197772264E0
1.785965378E1,4.871772230E-1,7.935689688E-1,-1.208767891E0
1.786962985E1,3.503434062E-1,1.322578192E0,-1.296121597E0
1.787961658E1,1.530339271E-1,1.824098587E0,-1.436009765E0
1.789138578E1,1.131319255E-2,2.056227446E0,-1.473272562E0
1.789961616E1,1.925443858E-2,2.177789688E0,-1.394470930E0
1.790961658E1,1.670838296E-1,2.222993612E0,-1.233202457E0
1.791964893E1,4.291450381E-1,2.183898211E0,-1.079875231E0
1.792961643E1,6.496673822E-1,2.103264093E0,-9.625892043E-1
1.793961943E1,6.942605376E-1,2.095322847E0,-9.063895941E-1
1.794960620E1,6.160697937E-1,2.160685539E0,-8.709594607E-1
1.795969697E1,7.101430297E-1,1.898013234E0,-9.100548029E-1
1.796962904E1,8.671354055E-1,1.368393064E0,-8.868419528E-1
1.797961704E1,9.856432676E-1,1.318912983E0,-8.501899838E-1
1.798962416E1,1.080327272E0,1.299365282E0,-8.062077165E-1
1.799967785E1,1.173789740E0,1.163142323E0,-7.683340907E-1
1.800974881E1,1.246482611E0,9.560590982E-1,-7.426777482E-1
1.801962397E1,1.283745408E0,7.966232896E-1,-7.090801597E-1
1.802961678E1,1.300849676E0,6.842240691E-1,-6.773151755E-1
1.803963412E1,1.310012698E0,5.925942659E-1,-6.534913778E-1
1.804962801E1,1.318564773E0,5.388381481E-1,-6.357763410E-1
1.805969220E1,1.334447265E0,5.492228270E-1,-5.942374468E-1
1.806960470E1,1.353384137E0,4.881362617E-1,-5.820201635E-1
1.807969408E1,1.364990473E0,4.685886204E-1,-5.643050671E-1
1.808965874E1,1.335058093E0,5.528880358E-1,-5.221553445E-1
1.809962308E1,1.319175601E0,7.416453958E-1,-4.146430790E-1
1.810963074E1,1.316121340E0,9.578917027E-1,-3.352306187E-1
1.811974012E1,1.218993783E0,1.282261133E0,-3.517239690E-1
1.812963224E1,9.746477008E-1,1.587082863E0,-4.274712503E-1
1.813969208E1,6.973148584E-1,1.470407605E0,-4.775622189E-1
1.814964447E1,4.273124337E-1,9.114659429E-1,-5.294857621E-1
1.815964143E1,5.204539746E-3,5.021862388E-1,-6.443284154E-1
1.816967454E1,-4.737138152E-1,1.857579947E-1,-7.426777482E-1
1.817964516E1,-8.628349900E-1,-1.704926044E-2,-7.390125394E-1
1.818963893E1,-1.111457229E0,1.784276068E-1,-5.392596126E-1
1.819961951E1,-1.167656779E0,5.040188432E-1,-2.142792940E-1
1.820964481E1,-1.193313122E0,6.524590850E-1,8.626641333E-2
1.821962970E1,-1.340531707E0,6.506264806E-1,4.094141126E-1
1.822963347E1,-1.720489860E0,4.582038820E-1,7.252314687E-1
1.823964085E1,-1.942844748E0,-7.886281237E-3,9.017714858E-1
1.824966885E1,-2.070515394E0,-2.919386327E-1,1.144285083E0
1.825965970E1,-2.127936840E0,-4.324376285E-1,1.435056925E0
1.826964539E1,-2.161534309E0,-4.996328056E-1,1.829064965E0
1.827969224E1,-2.112054348E0,-5.778235197E-1,2.265833616E0
1.828972962E1,-1.931238294E0,-6.883901358E-1,2.699547768E0
1.829961881E1,-1.639244795E0,-9.064690471E-1,3.056293249E0
1.830972193E1,-1.324038267E0,-1.043913722E0,3.187629223E0
1.831967204E1,-1.109013677E0,-1.177082419E0,2.915183306E0
1.832974074E1,-1.162769914E0,-1.047578931E0,2.064248085E0
1.833961904E1,-1.448654771E0,-5.045197010E-1,9.091019034E-1
1.834961224E1,-1.719268084E0,-1.691547036E-1,7.099477947E-2
1.835967301E1,-1.883590817E0,-5.454476476E-1,-6.400644034E-2
1.836966031E1,-1.980107665E0,-1.523442984E0,-5.240000039E-2
1.837961858E1,-1.975831389E0,-2.195394754E0,-9.943662584E-2
1.838962185E1,-1.964836001E0,-2.673091173E0,-7.866720855E-2
1.839960904E1,-1.941012263E0,-2.852074862E0,4.228411242E-2
1.840962154E1,-1.845106363E0,-2.831305265E0,2.047742605E-1
1.841961839E1,-1.747367859E0,-2.314513445E0,4.405682385E-1
1.842961362E1,-1.450487375E0,-1.394550443E0,7.136250138E-1
1.843961601E1,-1.018605709E0,-6.981639862E-1,9.598037004E-1
1.844966574E1,-5.806152225E-1,-3.298122585E-1,1.075868130E0
1.845965535E1,-2.495262623E-1,-6.775107980E-2,1.114963531E0
1.846962489E1,-6.993188709E-2,1.692646444E-1,1.083198547E0
1.847963639E1,-3.938862681E-2,2.639487386E-1,9.872925878E-1
1.848965547E1,-8.153832704E-2,2.309620082E-1,8.669521809E-1
1.849964012E1,-1.487334967E-1,6.163619459E-3,6.378777027E-1
1.850963058E1,-1.774441600E-1,-1.850371957E-1,4.796636105E-1
1.851962439E1,-2.012678981E-1,-3.970074356E-1,3.269473016E-1
1.852967308E1,-2.104308903E-1,-6.291362047E-1,1.681223512E-1
1.853971416E1,-2.165395319E-1,-8.099523187E-1,-2.979798429E-2
1.854967043E1,-2.079874277E-1,-8.612650037E-1,-2.332161218E-1
1.855969197E1,-1.505661011E-1,-8.050653934E-1,-4.115887582E-1
1.856964089E1,-1.923006773E-2,-6.847249269E-1,-5.441465378E-1
1.857964428E1,1.676946878E-1,-5.118501186E-1,-6.327219605E-1
1.858961031E1,3.790540695E-1,-3.530251384E-1,-7.041932344E-1
1.859964924E1,5.739200711E-1,-2.772778571E-1,-7.536733150E-1
1.860961397E1,7.119756341E-1,-2.546758354E-1,-7.652797699E-1
1.861967304E1,7.877229452E-1,-2.730017900E-1,-7.316821814E-1
1.862961931E1,7.926098704E-1,-3.078211248E-1,-6.455501318E-1
1.863961524E1,6.380609274E-1,-3.237036169E-1,-4.409103096E-1
1.864965235E1,4.077647328E-1,-3.139297664E-1,-2.674245536E-1
1.865962462E1,1.224906668E-1,-2.907168865E-1,-7.439114898E-2
1.866962520E1,-1.780550480E-1,-2.644496858E-1,1.406334192E-1
1.867971447E1,-5.250265002E-1,-1.123442352E-1,3.532145321E-1
1.868961731E1,-8.872695565E-1,1.332235932E-1,5.071525574E-1
1.869967001E1,-1.174987197E0,3.751262128E-1,5.346415043E-1
1.870968701E1,-1.330757856E0,4.191085100E-1,4.637811184E-1
1.871961443E1,-1.435826659E0,1.594907939E-1,3.043453097E-1
1.872966185E1,-1.512184739E0,-2.595627606E-1,2.133263797E-1
1.873963535E1,-1.416889787E0,-6.663990021E-1,6.855131686E-2
1.874963920E1,-9.593517184E-1,-1.134321809E0,-1.165408492E-1
1.875963397E1,-3.802514374E-1,-1.265657902E0,-2.881940007E-1
1.876962770E1,-6.321237236E-2,-1.188077927E0,-3.407284021E-1
1.877967293E1,1.151602864E-1,-1.357898474E0,-1.861794889E-1
1.878963243E1,3.839409947E-1,-1.566203594E0,5.327968672E-2
1.879961581E1,5.812504888E-1,-1.538103700E0,2.744129002E-1
1.880967316E1,5.788069963E-1,-1.197240949E0,3.354994357E-1
1.881963789E1,4.719055891E-1,-7.219877243E-1,3.135082722E-1
1.882963458E1,3.674476445E-1,-2.424585223E-1,2.512000203E-1
1.883969108E1,3.020850420E-1,-4.392733052E-2,1.278052479E-1
1.884961870E1,3.845518529E-1,-1.208963543E-1,-1.000474840E-1
1.885962847E1,5.659788251E-1,-3.493599594E-1,-3.382849395E-1
1.886964951E1,7.559579611E-1,-5.381172895E-1,-5.307074785E-1
1.887963031E1,9.098959565E-1,-6.590685844E-1,-7.133561969E-1
1.888965954E1,1.030847311E0,-6.602903605E-1,-8.581312895E-1
1.889967450E1,1.137137771E0,-5.546106696E-1,-9.680870175E-1
1.890964254E1,1.233043671E0,-7.813578844E-2,-1.019399643E0
1.891963789E1,1.211663365E0,2.254642248E-1,-1.091481686E0
1.892969147E1,1.190893888E0,3.183157444E-1,-1.133631468E0
1.893998100E1,1.002136588E0,7.831842303E-1,-1.018177867E0
1.894976881E1,7.755056024E-1,1.186966062E0,-7.573385239E-1
1.895962197E1,5.830830932E-1,1.268211126E0,-5.081054568E-1
1.896961281E1,4.938967526E-1,1.098390698E0,-4.464080930E-1
1.897965093E1,5.238291025E-1,8.399947286E-1,-6.052330732E-1
1.898969658E1,5.745309591E-1,5.883182287E-1,-8.172032833E-1
1.899962297E1,5.891917348E-1,4.117781222E-1,-9.619783759E-1
1.900961904E1,5.867482424E-1,4.606473446E-1,-9.809151888E-1
1.901962816E1,5.794178843E-1,7.587496042E-1,-9.503719211E-1
1.902971643E1,4.590774179E-1,1.591358900E0,-9.870238304E-1
1.903963628E1,2.324464023E-1,2.153355122E0,-1.042612553E0
1.904961766E1,5.815405399E-3,2.555304289E0,-1.063381910E0
1.905966658E1,-5.038420111E-2,2.786211491E0,-9.974085093E-1
1.906972381E1,1.719707549E-1,2.697025061E0,-8.850093484E-1
1.907970920E1,5.336029530E-1,2.481389761E0,-8.190358877E-1
1.908980597E1,7.431297898E-1,2.236432791E0,-8.184249997E-1
1.909961885E1,7.822251320E-1,1.997584224E0,-8.831767440E-1
1.910961604E1,7.962750196E-1,1.879687309E0,-8.624073267E-1
1.911963347E1,8.390356302E-1,1.841813684E0,-8.129272461E-1
1.912961431E1,9.624303579E-1,1.836315870E0,-7.231300473E-1
1.913965843E1,1.081549048E0,1.786224961E0,-6.235589981E-1
1.914965043E1,1.160350680E0,1.737355709E0,-5.643050671E-1
1.915965197E1,1.209830761E0,1.642060757E0,-5.099380612E-1
1.916965858E1,1.226935029E0,1.411764503E0,-4.244169295E-1
1.917962404E1,1.234265327E0,1.251717806E0,-3.975388706E-1
1.918961916E1,1.245260954E0,1.100223184E0,-3.975388706E-1
1.919960293E1,1.270306468E0,9.566699862E-1,-4.146430790E-1
1.920961316E1,1.299017072E0,8.454924822E-1,-4.427428842E-1
1.921961550E1,1.313677788E0,7.886820436E-1,-4.745078981E-1
1.922965493E1,1.316732168E0,7.752429843E-1,-5.166575909E-1
1.923970927E1,1.344221115E0,8.161709309E-1,-5.777441263E-1
1.924961935E1,1.397366405E0,8.546554446E-1,-6.321111321E-1
1.925963427E1,1.488385320E0,7.727995515E-1,-6.455501318E-1
1.926963889E1,1.567186952E0,7.917363644E-1,-6.217263937E-1
1.927962012E1,1.582458496E0,9.572808146E-1,-6.559348702E-1
1.928962085E1,1.385759950E0,1.360451818E0,-7.261843681E-1
1.929964208E1,1.033901572E0,1.585250258E0,-7.658905983E-1
1.930965981E1,5.824722052E-1,1.078842998E0,-7.414559722E-1
1.931963974E1,2.446637154E-1,7.673017383E-1,-7.762753367E-1
1.932962377E1,-9.864255041E-2,5.467793941E-1,-7.976555824E-1
1.933964962E1,-3.997991085E-1,5.156252384E-1,-7.212974429E-1
1.934966131E1,-5.842804313E-1,7.880711555E-1,-5.478116870E-1
1.935963616E1,-6.429234743E-1,8.900856376E-1,-3.633304238E-1
1.936962704E1,-7.357749939E-1,8.222796321E-1,-1.140973866E-1
1.937970035E1,-9.550755620E-1,8.125057817E-1,1.669006199E-1
1.938965466E1,-1.218969464E0,7.373693585E-1,3.544362485E-1
1.939961124E1,-1.510963082E0,4.856928289E-1,4.191879630E-1
1.940963035E1,-1.863432288E0,8.068917692E-2,4.314052761E-1
1.941964112E1,-2.202462435E0,-4.183877409E-1,5.108177662E-1
1.942962700E1,-2.440088987E0,-8.832561374E-1,8.046439290E-1
1.944101001E1,-2.496288538E0,-1.216177821E0,1.595103621E0
1.944972335E1,-2.366174221E0,-1.211290836E0,2.186421156E0
1.945961620E1,-2.102891445E0,-9.803837538E-1,2.758190870E0
1.946961362E1,-1.779743791E0,-7.494766712E-1,3.257878780E0
1.947964947E1,-1.470035076E0,-6.944987774E-1,3.580415487E0
1.948962808E1,-1.250123620E0,-6.340231299E-1,3.639058590E0
1.949960735E1,-1.154217720E0,-5.906516910E-1,3.361725807E0
1.950966058E1,-1.112678885E0,-5.711039901E-1,2.639683008E0
1.951964508E1,-1.126728773E0,-3.035450578E-1,1.590827584E0
1.952961889E1,-1.219580293E0,-2.143587470E-1,5.340306163E-1
1.953970039E1,-1.375350952E0,-8.826453090E-1,5.144708976E-2
1.954965574E1,-1.710105181E0,-1.713422060E0,4.656017199E-2
1.955965724E1,-2.123049974E0,-2.230824709E0,9.298592806E-2
1.956965770E1,-2.388776302E0,-2.506935835E0,1.351356208E-1
1.957972712E1,-2.382056713E0,-2.677978277E0,3.336668313E-1
1.958964339E1,-2.160923481E0,-2.312680721E0,5.700716972E-1
1.959963608E1,-1.824947834E0,-1.676770210E0,8.846672773E-1
1.960961947E1,-1.429107070E0,-1.191132307E0,1.116185308E0
1.961961893E1,-9.514104724E-1,-9.974879622E-1,1.209647655E0
1.962965039E1,-4.101838171E-1,-7.934589386E-1,1.246299624E0
1.963960427E1,-1.556488127E-2,-2.870517075E-1,1.309829593E0
1.964961420E1,1.194363385E-1,1.246714815E-1,1.341594577E0
1.965972454E1,8.706048131E-2,2.419576049E-1,1.264625549E0
1.966962862E1,-1.067795604E-2,2.395141423E-1,1.120461345E0
1.967963650E1,-1.242988929E-1,2.053056955E-1,9.787405133E-1
1.968964835E1,-2.250916362E-1,1.148976311E-1,8.254133463E-1
1.969963316E1,-2.715173960E-1,-6.042069197E-2,6.458189487E-1
1.970962804E1,-2.678522170E-1,-4.422114789E-1,3.122865558E-1
1.971962939E1,-2.165395319E-1,-6.456295848E-1,8.504468203E-2
1.972967643E1,-1.536204219E-1,-7.305398583E-1,-1.428080499E-1
1.973964124E1,-6.626669317E-2,-7.213768363E-1,-3.462261856E-1
1.974961270E1,5.163029581E-2,-6.499056220E-1,-5.105489492E-1
1.975960470E1,2.049574852E-1,-5.888190866E-1,-6.382197738E-1
1.976963866E1,3.937148452E-1,-5.772126913E-1,-7.090801597E-1
1.977963835E1,5.781961679E-1,-5.955386162E-1,-7.274060845E-1
1.978961716E1,7.333559394E-1,-6.248601675E-1,-6.974737048E-1
1.979961027E1,8.262074590E-1,-6.138646007E-1,-6.156177521E-1
1.980960181E1,8.378138542E-1,-5.539997816E-1,-4.903903902E-1
1.981960639E1,7.535144687E-1,-3.805140853E-1,-3.364523351E-1
1.982963551E1,5.445985198E-1,-1.392223090E-1,-1.391428709E-1
1.983959900E1,2.733743787E-1,6.236322224E-2,1.235291809E-1
1.984963951E1,-1.597290635E-1,4.435431361E-1,5.120394826E-1
1.985966420E1,-4.462248683E-1,2.187447250E-1,6.268821359E-1
1.986969643E1,-7.345532775E-1,-1.661003828E-1,5.774020553E-1
1.987965054E1,-1.069307446E0,-4.006726444E-1,4.155227840E-1
1.988964150E1,-1.463315606E0,-5.405607820E-1,1.241400540E-1
1.989962739E1,-1.642910004E0,-7.268746495E-1,-2.252748609E-1
1.990963908E1,-1.376572728E0,-1.057352781E0,-5.710245967E-1
1.991962939E1,-8.738305569E-1,-1.232060313E0,-8.049860001E-1
1.992962820E1,-2.867890298E-1,-1.287649035E0,-9.296025038E-1
1.993963162E1,2.312246859E-1,-1.349957228E0,-8.581312895E-1
1.994964001E1,5.348247290E-1,-1.322468281E0,-6.455501318E-1
1.995970366E1,7.003691792E-1,-1.313305378E0,-3.822672367E-1
1.996961820E1,7.730621696E-1,-1.522221208E0,-1.880120933E-1
1.997961524E1,6.912062168E-1,-1.654168129E0,-1.635894924E-2
1.998963200E1,5.036705732E-1,-1.467854261E0,2.377609909E-1
1.999969089E1,2.464963198E-1,-1.055520177E0,4.210205674E-1
2.000962385E1,7.117798924E-2,-5.368955731E-1,3.807034492E-1
2.001962920E1,2.108703554E-2,-1.819828749E-1,2.084394544E-1
2.002962285E1,8.156269789E-2,-4.331646487E-2,6.243065000E-3
2.003965289E1,1.988488138E-1,6.053062528E-2,-2.368813008E-1
2.005224920E1,3.356826305E-1,3.976120800E-2,-6.840346456E-1
2.006962177E1,4.871772230E-1,-3.781867772E-2,-1.203270078E0
2.007960901E1,6.258436441E-1,-4.270559922E-2,-1.415240288E0
2.008963289E1,7.932206988E-1,-7.691405714E-2,-1.454946518E0
2.009971885E1,9.105068445E-1,-1.697655618E-1,-1.283293366E0
2.010961250E1,9.392175078E-1,-3.133189082E-1,-7.115235925E-1
2.011971831E1,9.221132994E-1,-3.133189082E-1,-3.651629984E-1
2.012962139E1,1.022295117E0,-2.644496858E-1,-2.735332251E-1
2.013964120E1,1.141413808E0,5.552753806E-3,-5.227662325E-1
2.014964393E1,9.441044331E-1,3.091527820E-1,-9.998520017E-1
2.015962512E1,5.873591304E-1,6.011464000E-1,-1.296121597E0
2.016971758E1,2.220616937E-1,8.821443915E-1,-1.388362288E0
2.017964550E1,-1.861920208E-2,1.251717806E0,-1.386529684E0
2.018962481E1,-8.581437916E-2,1.716586232E0,-1.366981983E0
2.019961797E1,2.780655399E-2,2.177789688E0,-1.304673672E0
2.020987266E1,2.709309161E-1,2.422135830E0,-1.216098189E0
