"Time (s)","Acceleration x (m/s^2)","Acceleration y (m/s^2)","Acceleration z (m/s^2)"
0.000000000E0,-2.739050388E0,8.719948769E0,1.367130876E0
2.000000000E-3,-2.739050388E0,8.719948769E0,1.367130876E0
4.000000000E-3,-2.739050388E0,8.719948769E0,1.367130876E0
6.000000000E-3,-2.739050388E0,8.719948769E0,1.367130876E0
8.000000000E-3,-2.427794695E0,8.669669151E0,4.134912491E0
1.000000000E-2,-2.370332003E0,8.619389534E0,4.240260601E0
1.200000000E-2,-2.370332003E0,8.521224022E0,4.534756660E0
1.400000000E-2,-2.363149166E0,8.425453186E0,4.764606953E0
1.599987500E-2,-2.308080912E0,8.396721840E0,5.162056446E0
1.799976300E-2,-2.320052385E0,8.341653824E0,5.250644684E0
1.999966300E-2,-2.320052385E0,8.375173569E0,5.209941864E0
2.200175300E-2,-2.312869549E0,8.401510239E0,5.171633720E0
2.400166900E-2,-2.305686712E0,8.427846909E0,5.092622280E0
2.600159200E-2,-2.308080912E0,8.432636261E0,5.059102535E0
2.800152000E-2,-2.288926601E0,8.396721840E0,5.044736862E0
3.000145300E-2,-2.257801056E0,8.387145042E0,5.051919937E0
3.200132800E-2,-2.248224020E0,8.389538765E0,5.068679810E0
3.400121000E-2,-2.190761566E0,8.363202095E0,5.111776829E0
3.600109800E-2,-2.097384691E0,8.348835945E0,5.135719299E0
3.800099200E-2,-2.042316437E0,8.324893951E0,5.147690773E0
4.000089200E-2,-1.915419817E0,8.245882034E0,5.207547665E0
4.200103400E-2,-1.886688590E0,8.212362289E0,5.243461609E0
4.400094300E-2,-1.865140080E0,8.183630943E0,5.272192955E0
4.600085600E-2,-1.826831698E0,8.118986130E0,5.320078850E0
4.800073100E-2,-1.817254543E0,8.051946640E0,5.384724140E0
5.000061100E-2,-1.817254543E0,8.016032219E0,5.391906738E0
5.200049500E-2,-1.824437380E0,7.984906673E0,5.399089813E0
5.400038300E-2,-1.848380208E0,8.004060745E0,5.425426483E0
5.600027500E-2,-1.855562925E0,8.023215294E0,5.435003757E0
5.800017100E-2,-1.857957244E0,8.061523438E0,5.437397957E0
6.000007100E-2,-1.891477108E0,8.118986130E0,5.458946705E0
6.199997100E-2,-1.913025618E0,8.164477348E0,5.466129303E0
6.399983700E-2,-1.965699673E0,8.219545364E0,5.497254848E0
6.599970300E-2,-2.018373728E0,8.267431259E0,5.511620522E0
6.799956900E-2,-2.032739401E0,8.279402733E0,5.509226322E0
6.999943500E-2,-2.056682110E0,8.322499275E0,5.518803596E0
7.199930100E-2,-2.054287672E0,8.339259148E0,5.540351868E0
7.399916700E-2,-2.047105074E0,8.344047546E0,5.535563469E0
7.599906700E-2,-2.023162127E0,8.377567291E0,5.547534943E0
7.799896700E-2,-1.972882390E0,8.399115562E0,5.578660488E0
7.999886700E-2,-1.941756845E0,8.430241585E0,5.609786034E0
8.199796700E-2,-1.913025618E0,8.444606781E0,5.619362831E0
8.399786700E-2,-1.841197371E0,8.470944405E0,5.645699978E0
8.599776700E-2,-1.817254543E0,8.487704277E0,5.672037125E0
8.799766700E-2,-1.788523316E0,8.530800819E0,5.712739468E0
8.999756700E-2,-1.769369125E0,8.571503639E0,5.758230686E0
9.199750000E-2,-1.776551962E0,8.571503639E0,5.779779434E0
9.399736600E-2,-1.810071707E0,8.547560692E0,5.810904980E0
9.599723200E-2,-1.881899953E0,8.485309601E0,5.844424725E0
9.799709800E-2,-1.908236980E0,8.435029984E0,5.854001999E0
9.999696400E-2,-1.972882390E0,8.317710876E0,5.865973473E0
1.019966640E-1,-2.008796453E0,8.214756966E0,5.861184597E0
1.039965300E-1,-2.078230619E0,8.169265747E0,5.854001999E0
1.059963960E-1,-2.145270348E0,8.097437859E0,5.854001999E0
1.079962960E-1,-2.176395893E0,8.049551964E0,5.858790398E0
1.099961290E-1,-2.298503876E0,8.035185814E0,5.861184597E0
1.119959620E-1,-2.415823221E0,8.030397415E0,5.873156071E0
1.139957950E-1,-2.490045786E0,8.028003693E0,5.885127544E0
1.159956280E-1,-2.648067951E0,8.071100235E0,5.952167034E0
1.179954610E-1,-2.815667152E0,8.145322800E0,6.028783798E0
1.199952940E-1,-2.966506481E0,8.262641907E0,6.100612164E0
1.219951270E-1,-3.033546209E0,8.320104599E0,6.136526108E0
1.239949930E-1,-3.158048391E0,8.432636261E0,6.213143349E0
1.259947930E-1,-3.203539610E0,8.473338127E0,6.244268894E0
1.279945930E-1,-3.258608103E0,8.526012421E0,6.282577038E0
1.299943930E-1,-3.251425266E0,8.526012421E0,6.318490982E0
1.319941930E-1,-3.239453793E0,8.521224022E0,6.335251331E0
1.339939930E-1,-3.181991339E0,8.492492676E0,6.347222328E0
1.359933590E-1,-3.079037428E0,8.439818382E0,6.385530949E0
1.379931590E-1,-3.021574736E0,8.399115562E0,6.402290821E0
1.399929590E-1,-2.846792698E0,8.183630943E0,6.438204765E0
1.419927250E-1,-2.806090117E0,8.075888634E0,6.445387840E0
1.439924910E-1,-2.774964571E0,7.944203854E0,6.435810566E0
1.459922570E-1,-2.695953369E0,7.620976925E0,6.385530949E0
1.479920230E-1,-2.607365370E0,7.285778046E0,6.306519985E0
1.499917890E-1,-2.557085514E0,7.110996246E0,6.246663094E0
1.519915550E-1,-2.487651587E0,6.816500187E0,6.105400562E0
1.539913880E-1,-2.430188894E0,6.615381241E0,5.944984436E0
1.559912210E-1,-2.420611858E0,6.553130150E0,5.844424725E0
1.579910540E-1,-2.439765930E0,6.507638931E0,5.672037125E0
1.599908870E-1,-2.525959969E0,6.586649895E0,5.494860649E0
1.619907200E-1,-2.588211060E0,6.656084061E0,5.408666611E0
1.639905530E-1,-2.734261751E0,6.876357079E0,5.243461609E0
1.659902860E-1,-2.918621063E0,7.180429935E0,5.056708336E0
1.679901190E-1,-3.009603500E0,7.340846539E0,4.960937500E0
1.699900190E-1,-3.198751211E0,7.680833817E0,4.781366825E0
1.719898850E-1,-3.375927448E0,7.994483471E0,4.577853203E0
1.739897510E-1,-3.466909885E0,8.135746002E0,4.474899769E0
1.759896170E-1,-3.634509087E0,8.387145042E0,4.280963421E0
1.779894830E-1,-3.780560017E0,8.542772293E0,4.096604347E0
1.799893490E-1,-3.876330853E0,8.643332481E0,3.936187744E0
1.819892150E-1,-3.926610708E0,8.662486076E0,3.861965179E0
1.839894480E-1,-3.981678963E0,8.648120880E0,3.747040033E0
1.859893810E-1,-4.003227711E0,8.616994858E0,3.689577579E0
1.879893140E-1,-4.034353256E0,8.547560692E0,3.577046633E0
1.899892470E-1,-3.998438835E0,8.454184532E0,3.493247032E0
1.919891800E-1,-3.969707727E0,8.403904915E0,3.457332850E0
1.939891130E-1,-3.921822071E0,8.339259148E0,3.447755814E0
1.959894790E-1,-3.893090725E0,8.284191132E0,3.445361376E0
1.979894120E-1,-3.838022470E0,8.260248184E0,3.452544212E0
1.999893450E-1,-3.773377180E0,8.260248184E0,3.500429869E0
2.019888780E-1,-3.754222870E0,8.265036583E0,3.529160976E0
2.039887780E-1,-3.703943014E0,8.296162605E0,3.610566378E0
2.059886780E-1,-3.668029070E0,8.312922478E0,3.744645834E0
2.079885780E-1,-3.658451796E0,8.327287674E0,3.826051235E0
2.099884780E-1,-3.646480560E0,8.344047546E0,4.022381783E0
2.119883780E-1,-3.622537851E0,8.334470749E0,4.216318130E0
2.139882780E-1,-3.622537851E0,8.327287674E0,4.331243038E0
2.159881780E-1,-3.629720688E0,8.320104599E0,4.599401951E0
2.179880780E-1,-3.617749214E0,8.322499275E0,4.872349262E0
2.199876780E-1,-3.596200705E0,8.329682350E0,5.150084972E0
2.219877440E-1,-3.569863796E0,8.334470749E0,5.286558628E0
2.239875770E-1,-3.486064196E0,8.358413696E0,5.576265812E0
2.259880100E-1,-3.454938650E0,8.375173569E0,5.700768471E0
2.279878430E-1,-3.383110285E0,8.377567291E0,5.942590237E0
2.299876760E-1,-3.282550812E0,8.353624344E0,6.160469055E0
2.319884420E-1,-3.225088120E0,8.322499275E0,6.258634567E0
2.339883080E-1,-3.110162973E0,8.250671387E0,6.435810566E0
2.359881080E-1,-3.011997700E0,8.147717476E0,6.579467297E0
2.379879080E-1,-2.956929445E0,8.099831581E0,6.632141113E0
2.399877080E-1,-2.784541607E0,7.980117798E0,6.761432171E0
2.419875080E-1,-2.717501879E0,7.941809654E0,6.797346115E0
2.439869410E-1,-2.657644987E0,7.908289909E0,6.818894863E0
2.459867410E-1,-2.540325642E0,7.865192890E0,6.821289062E0
2.479865410E-1,-2.418217659E0,7.805335999E0,6.785374641E0
2.499862740E-1,-2.355966330E0,7.764633179E0,6.756643295E0
2.519860070E-1,-2.214704275E0,7.678439140E0,6.660872459E0
2.539857400E-1,-2.051893473E0,7.551542759E0,6.512427330E0
2.559854730E-1,-1.953728199E0,7.479714394E0,6.426233768E0
2.579852060E-1,-1.740637779E0,7.379155159E0,6.232297421E0
2.599849390E-1,-1.520364523E0,7.324086666E0,6.002447128E0
2.619847720E-1,-1.403045058E0,7.324086666E0,5.875550270E0
2.639845720E-1,-1.201925993E0,7.355212212E0,5.602602959E0
2.659843050E-1,-1.036720991E0,7.427040577E0,5.298530102E0
2.679840380E-1,-9.840469360E-1,7.484503269E0,5.145296574E0
2.699837710E-1,-9.241901040E-1,7.618582249E0,4.867560863E0
2.719835040E-1,-8.978530765E-1,7.769421577E0,4.575459003E0
2.739832370E-1,-9.050358534E-1,7.848433018E0,4.436591148E0
2.759829700E-1,-9.864411950E-1,8.025609016E0,4.166038036E0
2.779827030E-1,-1.060663700E0,8.212362289E0,3.924216509E0
2.799827360E-1,-1.115732074E0,8.389538765E0,3.675211906E0
2.819820360E-1,-1.144463301E0,8.478127480E0,3.553103924E0
2.839817690E-1,-1.180377483E0,8.638543129E0,3.332830429E0
2.859812690E-1,-1.187560320E0,8.705583572E0,3.220299721E0
2.879810020E-1,-1.199531674E0,8.806142807E0,2.980872154E0
2.899807350E-1,-1.206714511E0,8.846845627E0,2.743839025E0
2.919795680E-1,-1.228263021E0,8.846845627E0,2.628913641E0
2.939793010E-1,-1.235445857E0,8.849239349E0,2.415823221E0
2.959791010E-1,-1.235445857E0,8.818114281E0,2.327235222E0
2.979788340E-1,-1.252205729E0,8.796566010E0,2.169213057E0
2.999785670E-1,-1.273754239E0,8.753468513E0,2.027950764E0
3.019783000E-1,-1.273754239E0,8.705583572E0,1.980065227E0
3.039780330E-1,-1.268965602E0,8.648120880E0,1.893871427E0
3.059777660E-1,-1.235445857E0,8.597841263E0,1.817254543E0
3.079774990E-1,-1.216291547E0,8.569109917E0,1.793311834E0
3.099776990E-1,-1.199531674E0,8.490098000E0,1.755003452E0
3.119774990E-1,-1.173194647E0,8.420664787E0,1.719089270E0
3.139772320E-1,-1.177983165E0,8.389538765E0,1.709512234E0
3.159769650E-1,-1.156434774E0,8.353624344E0,1.747820616E0
3.179766980E-1,-1.096577883E0,8.365595818E0,1.819648862E0
3.199764310E-1,-1.003201127E0,8.451789856E0,1.958516836E0
3.219769640E-1,-9.337671995E-1,8.516435623E0,2.039922237E0
3.239766970E-1,-7.733507752E-1,8.662486076E0,2.226675510E0
3.259764970E-1,-6.799740195E-1,8.763046265E0,2.327235222E0
3.279762970E-1,-4.525179267E-1,8.973741531E0,2.521171331E0
3.299760300E-1,-2.059076279E-1,9.153312683E0,2.717501879E0
3.319757630E-1,-8.379961550E-2,9.249083519E0,2.813272953E0
3.339754960E-1,1.843591630E-1,9.438231468E0,2.988054991E0
3.359752290E-1,4.620950520E-1,9.610619545E0,3.170019865E0
3.379749620E-1,6.057515144E-1,9.675264359E0,3.268185139E0
3.399746950E-1,9.720755816E-1,9.814132690E0,3.586623669E0
3.419746950E-1,1.089395046E0,9.842864037E0,3.708731651E0
3.439744280E-1,1.216291547E0,9.852440834E0,3.833234072E0
3.459738940E-1,1.431776285E0,9.833286285E0,4.063084126E0
3.479736270E-1,1.647261024E0,9.797372818E0,4.314483166E0
3.499733600E-1,1.745426297E0,9.792584419E0,4.424619675E0
3.519730930E-1,1.932179809E0,9.747093201E0,4.625739098E0
3.539728260E-1,2.068653345E0,9.670475960E0,4.810098171E0
3.559725590E-1,2.121327400E0,9.634561539E0,4.889109135E0
3.579723590E-1,2.205127001E0,9.522030830E0,5.030371189E0
3.599720920E-1,2.253012657E0,9.423865318E0,5.135719299E0
3.619718250E-1,2.279349566E0,9.356825829E0,5.178816319E0
3.639715580E-1,2.312869549E0,9.217958450E0,5.255433083E0
3.659712910E-1,2.298503876E0,9.110215187E0,5.332049847E0
3.679710240E-1,2.281744003E0,9.050358772E0,5.353598595E0
3.699703570E-1,2.212309837E0,8.933039665E0,5.382329941E0
3.719700900E-1,2.078230619E0,8.815719604E0,5.389512539E0
3.739698900E-1,2.018373728E0,8.758256912E0,5.382329941E0
3.759696230E-1,1.867534399E0,8.676852226E0,5.339232922E0
3.779693560E-1,1.656838179E0,8.628966331E0,5.276981831E0
3.799690890E-1,1.453324795E0,8.628966331E0,5.190787792E0
3.819683550E-1,1.343188167E0,8.626572609E0,5.152479172E0
3.839680880E-1,1.225868702E0,8.633754730E0,5.056708336E0
3.859678210E-1,9.888355136E-1,8.626572609E0,5.011217117E0
3.879675540E-1,7.829278708E-1,8.609811783E0,4.922628880E0
3.899673540E-1,6.823683381E-1,8.535589218E0,4.889109135E0
3.919670870E-1,4.860377908E-1,8.492492676E0,4.834040642E0
3.939668200E-1,3.256213665E-1,8.442213058E0,4.759818554E0
3.959665530E-1,2.609759569E-1,8.415876389E0,4.716721535E0
3.979662860E-1,1.436564922E-1,8.348835945E0,4.616161823E0
3.999660190E-1,4.309694469E-2,8.253065109E0,4.501236439E0
4.019657520E-1,-7.182824425E-3,8.229122162E0,4.431802750E0
4.039655520E-1,-8.379961550E-2,8.202785492E0,4.297723293E0
4.059653520E-1,-1.628106833E-1,8.188420296E0,4.144489765E0
4.079650850E-1,-2.035133541E-1,8.176448822E0,4.060689926E0
4.099648180E-1,-2.705530524E-1,8.176448822E0,3.917033672E0
4.119645510E-1,-3.328042030E-1,8.181237221E0,3.768588543E0
4.139642840E-1,-3.615354896E-1,8.169265747E0,3.696760416E0
4.159640170E-1,-4.357580245E-1,8.200390816E0,3.529160976E0
4.179637500E-1,-5.099805593E-1,8.205180168E0,3.354378939E0
4.199635500E-1,-5.818088055E-1,8.226728439E0,3.196356773E0
4.219632830E-1,-6.177229285E-1,8.224333763E0,3.117345810E0
4.239630160E-1,-6.799740195E-1,8.229122162E0,2.968900681E0
4.259627490E-1,-7.039167881E-1,8.238699913E0,2.901860952E0
4.279624820E-1,-7.565908432E-1,8.248276711E0,2.786935806E0
4.299622150E-1,-7.925049663E-1,8.272219658E0,2.683982134E0
4.319619480E-1,-8.020820618E-1,8.291373253E0,2.633702278E0
4.339616810E-1,-8.427847624E-1,8.312922478E0,2.542719841E0
4.359614810E-1,-7.206767201E-1,8.420664787E0,2.463708878E0
4.379612140E-1,-6.129343510E-1,8.487704277E0,2.444554567E0
4.399609470E-1,-3.806896806E-1,8.715160370E0,2.518777132E0
4.419605800E-1,-1.508393139E-1,8.796566010E0,2.547508478E0
4.439603130E-1,-1.675992459E-2,8.899519920E0,2.590605259E0
4.459600460E-1,3.423812985E-1,9.129369736E0,2.707924843E0
4.479597790E-1,6.967339516E-1,9.402317047E0,2.868341208E0
4.499595120E-1,8.763045669E-1,9.536396980E0,2.968900681E0
4.519593120E-1,1.137280583E0,9.732727051E0,3.184385538E0
4.539590450E-1,1.324033976E0,9.890748978E0,3.397475958E0
4.559587780E-1,1.419804931E0,9.981731415E0,3.526766777E0
4.579585110E-1,1.664021015E0,1.018524456E1,3.835628271E0
4.599582440E-1,1.929785490E0,1.035044956E1,4.120546818E0
4.619579770E-1,2.037527800E0,1.042467213E1,4.235472202E0
4.639577100E-1,2.253012657E0,1.053480911E1,4.410254002E0
4.659574430E-1,2.456526041E0,1.062339687E1,4.561093330E0
4.679572430E-1,2.535537004E0,1.064733982E1,4.635315895E0
4.699569760E-1,2.648067951E0,1.064973450E1,4.750241280E0
4.719567090E-1,2.652856588E0,1.064255142E1,4.807703972E0
4.739564420E-1,2.626519442E0,1.061142635E1,4.824463844E0
4.759561750E-1,2.497228622E0,1.055875206E1,4.824463844E0
4.779559080E-1,2.418217659E0,1.048213482E1,4.790944099E0
4.799556410E-1,2.157241583E0,1.039115238E1,4.767001152E0
4.819554410E-1,2.075836182E0,1.035523891E1,4.762212753E0
4.839552410E-1,2.001613855E0,1.031692982E1,4.762212753E0
4.859549740E-1,1.867534399E0,1.022355366E1,4.728692532E0
4.879547070E-1,1.774157643E0,1.013496494E1,4.692778587E0
4.899544400E-1,1.714300752E0,1.007032013E1,4.673624516E0
4.919541730E-1,1.601769805E0,9.909903526E0,4.606584549E0
4.939539060E-1,1.515576005E0,9.706390381E0,4.529967785E0
4.959536390E-1,1.477267504E0,9.596253395E0,4.491659641E0
4.979534390E-1,1.383890867E0,9.385557175E0,4.410254002E0
4.999532390E-1,1.254600048E0,9.210775375E0,4.328848839E0
5.019526390E-1,1.182771802E0,9.131764412E0,4.300117493E0
5.039523720E-1,1.024749637E0,8.983319283E0,4.280963421E0
5.059521050E-1,8.547561169E-1,8.849239349E0,4.249837875E0
5.079518380E-1,7.637736797E-1,8.786988258E0,4.228289127E0
5.099515710E-1,5.722316504E-1,8.667274475E0,4.187586784E0
5.119513040E-1,3.711125851E-1,8.585869789E0,4.139701366E0
5.139511040E-1,2.657645047E-1,8.561926842E0,4.130124092E0
5.159508370E-1,6.943397224E-2,8.514040947E0,4.180403709E0
5.179505700E-1,-1.197137386E-1,8.478127480E0,4.230683804E0
5.199503030E-1,-4.118152559E-1,8.399115562E0,4.285751820E0
5.219500360E-1,-9.984126091E-1,8.226728439E0,4.271386147E0
5.239497690E-1,-3.296916485E0,7.558725357E0,3.988861799E0
5.259495020E-1,-4.348002911E0,7.261835575E0,4.053507328E0
5.279492350E-1,-5.607391834E0,6.756643295E0,4.872349262E0
5.299486010E-1,-5.253038883E0,6.428627968E0,6.234691620E0
5.319483340E-1,-4.573064804E0,6.431022167E0,6.852414608E0
5.339480670E-1,-2.997632027E0,6.759037971E0,7.434223175E0
5.359478000E-1,-2.018373728E0,7.266623974E0,7.142121792E0
5.379475330E-1,-1.826831698E0,7.484503269E0,6.763826370E0
5.399472660E-1,-1.790917516E0,8.013637543E0,5.846818924E0
5.419469990E-1,-1.879505754E0,8.111803055E0,5.061496735E0
5.439467320E-1,-1.879505754E0,8.164477348E0,4.826858044E0
5.459465320E-1,-1.774157643E0,8.176448822E0,4.517996788E0
5.479462980E-1,-1.587404251E0,8.092648506E0,4.328848839E0
5.499460640E-1,-1.498816013E0,8.049551964E0,4.204346657E0
5.519458300E-1,-1.333611012E0,7.956175327E0,4.089421272E0
5.539455960E-1,-1.278542757E0,7.901106834E0,4.364762783E0
5.559453620E-1,-1.288119793E0,7.905895233E0,4.635315895E0
5.579451280E-1,-1.376708031E0,7.972935200E0,5.286558628E0
5.599448940E-1,-1.460507631E0,8.087860107E0,5.880339146E0
5.619451600E-1,-1.501210332E0,8.174054146E0,6.088640690E0
5.639449260E-1,-1.525153041E0,8.399115562E0,6.256239891E0
5.659446920E-1,-1.510787368E0,8.648120880E0,6.153286457E0
5.679444580E-1,-1.517970204E0,8.765439987E0,6.160469055E0
5.699442240E-1,-1.520364523E0,8.966559410E0,6.177228928E0
5.719439900E-1,-1.494027495E0,9.134158134E0,6.170046329E0
5.739437560E-1,-1.448536277E0,9.194015503E0,6.189200401E0
5.759435890E-1,-1.292908430E0,9.287391663E0,6.062304020E0
5.779434220E-1,-1.194743156E0,9.332882881E0,5.956955910E0
5.799431880E-1,-9.194015265E-1,9.431048393E0,5.729499817E0
5.819429540E-1,-8.356019258E-1,9.454991341E0,5.698374271E0
5.839427200E-1,-7.565908432E-1,9.469356537E0,5.688796997E0
5.859424860E-1,-6.009629965E-1,9.500482559E0,5.695979595E0
5.879422520E-1,-4.118152559E-1,9.510059357E0,5.444581032E0
5.899424520E-1,-3.351984620E-1,9.495694160E0,5.308107376E0
5.919422850E-1,-2.729473412E-1,9.474145889E0,5.197970390E0
5.939420510E-1,-2.992843390E-1,9.454991341E0,5.150084972E0
5.959418170E-1,-3.136500120E-1,9.443019867E0,5.104593754E0
5.979415830E-1,-3.280156553E-1,9.409500122E0,4.810098171E0
5.999413490E-1,-3.184385598E-1,9.352037430E0,4.453351021E0
6.019411150E-1,-3.447755575E-1,9.352037430E0,4.453351021E0
6.039408810E-1,-4.142095447E-1,9.342460632E0,4.561093330E0
6.059406470E-1,-4.046324492E-1,9.347249031E0,4.383917332E0
6.079404470E-1,-3.830839694E-1,9.347249031E0,4.206740856E0
6.099401800E-1,-3.830839694E-1,9.371191978E0,4.194769382E0
6.119399130E-1,-4.022381604E-1,9.426259995E0,4.381523132E0
6.139396460E-1,-3.830839694E-1,9.435836792E0,4.278569221E0
6.159393790E-1,-3.256213665E-1,9.483722687E0,4.118152618E0
6.179391120E-1,-3.567469418E-1,9.526819229E0,4.386311531E0
6.199388450E-1,-3.878725171E-1,9.493299484E0,4.453351021E0
6.219388780E-1,-3.926610649E-1,9.457385063E0,4.403071404E0
6.239386780E-1,-4.094209969E-1,9.390345573E0,4.513207912E0
6.259384110E-1,-4.716721475E-1,9.356825829E0,4.678412914E0
6.279381440E-1,-6.009629965E-1,9.239506721E0,4.958543301E0
6.299378770E-1,-7.110996246E-1,9.158101082E0,5.104593754E0
6.319376100E-1,-7.901107073E-1,9.098244667E0,5.157268047E0
6.339373430E-1,-9.457385540E-1,9.040781975E0,5.358386993E0
6.359370760E-1,-1.096577883E0,9.004867554E0,5.616968632E0
6.379368090E-1,-1.161223292E0,8.973741531E0,5.698374271E0
6.399366090E-1,-1.297696948E0,8.918673515E0,5.739076614E0
6.419361420E-1,-1.448536277E0,8.851634026E0,5.719922543E0
6.439358750E-1,-1.517970204E0,8.832479477E0,5.693585396E0
6.459356080E-1,-1.635289669E0,8.798959732E0,5.633728504E0
6.479353410E-1,-1.711906433E0,8.758256912E0,5.545140266E0
6.499350740E-1,-1.731060743E0,8.743891716E0,5.494860649E0
6.519348070E-1,-1.743032098E0,8.722343445E0,5.382329941E0
6.539346070E-1,-1.728666425E0,8.700794220E0,5.267404556E0
6.559344070E-1,-1.716695070E0,8.679245949E0,5.212336063E0
6.579341400E-1,-1.666415215E0,8.612206459E0,5.109382629E0
6.599338730E-1,-1.568249941E0,8.566715240E0,4.941783428E0
6.619336060E-1,-1.537124395E0,8.549955368E0,4.860377789E0
6.639333390E-1,-1.474873304E0,8.537983894E0,4.697566986E0
6.659330720E-1,-1.419804931E0,8.521224022E0,4.592218876E0
6.679328050E-1,-1.331216812E0,8.511647224E0,4.350397110E0
6.699326050E-1,-1.264177084E0,8.537983894E0,4.166038036E0
6.719323380E-1,-1.237840056E0,8.557138443E0,4.070267200E0
6.739320710E-1,-1.194743156E0,8.612206459E0,3.936187744E0
6.759318040E-1,-1.166011810E0,8.669669151E0,3.857176781E0
6.779315370E-1,-1.180377483E0,8.696005821E0,3.835628271E0
6.799312700E-1,-1.288119793E0,8.751074791E0,3.782954216E0
6.819307030E-1,-1.338399649E0,8.763046265E0,3.775771379E0
6.839305030E-1,-1.410227895E0,8.772623062E0,3.754222870E0
6.859303030E-1,-1.575432777E0,8.765439987E0,3.670423269E0
6.879300360E-1,-1.721483588E0,8.722343445E0,3.538738251E0
6.899297690E-1,-1.764580488E0,8.698400497E0,3.457332850E0
6.919295020E-1,-1.800494671E0,8.638543129E0,3.304099321E0
6.939292350E-1,-1.771763325E0,8.569109917E0,3.237059593E0
6.959289680E-1,-1.733454943E0,8.542772293E0,3.215511084E0
6.979287010E-1,-1.551490068E0,8.494887352E0,3.153259993E0
6.999284340E-1,-1.359948039E0,8.458972931E0,3.186779737E0
7.019284340E-1,-1.252205729E0,8.447001457E0,3.225088120E0
7.039281670E-1,-1.017566800E0,8.403904915E0,3.390293121E0
7.059279000E-1,-7.757450342E-1,8.384750366E0,3.612960577E0
7.079276330E-1,-6.727912426E-1,8.375173569E0,3.744645834E0
7.099273660E-1,-4.860377908E-1,8.351230621E0,4.082238674E0
7.119270990E-1,-3.735068738E-1,8.339259148E0,4.431802750E0
7.139268320E-1,-3.399870098E-1,8.320104599E0,4.599401951E0
7.159265650E-1,-3.375927508E-1,8.260248184E0,4.896292210E0
7.179259310E-1,-4.094209969E-1,8.238699913E0,5.042342663E0
7.199256640E-1,-5.554717779E-1,8.272219658E0,5.061496735E0
7.219253970E-1,-6.656084061E-1,8.288979530E0,5.051919937E0
7.239251300E-1,-9.601042271E-1,8.365595818E0,4.941783428E0
7.259248630E-1,-1.132491946E0,8.418270111E0,4.881926537E0
7.279245960E-1,-1.505998850E0,8.523618698E0,4.755029678E0
7.299243290E-1,-1.841197371E0,8.662486076E0,4.644893169E0
7.319241290E-1,-1.989642382E0,8.731920242E0,4.616161823E0
7.339239290E-1,-2.200338602E0,8.861210823E0,4.608979225E0
7.359236620E-1,-2.310475111E0,8.992896080E0,4.661653042E0
7.379230620E-1,-2.324840784E0,9.059935570E0,4.704750061E0
7.399227950E-1,-2.346389294E0,9.136552811E0,4.814886570E0
7.419220950E-1,-2.365543604E0,9.167677879E0,4.932206154E0
7.439217610E-1,-2.372726440E0,9.160495758E0,4.975303173E0
7.459214940E-1,-2.396669149E0,9.146129608E0,5.042342663E0
7.479212940E-1,-2.394274712E0,9.086273193E0,5.063891411E0
7.499210940E-1,-2.394274712E0,9.057541847E0,5.049525738E0
7.519208270E-1,-2.401457548E0,9.007262230E0,4.980091572E0
7.539205600E-1,-2.396669149E0,8.968953133E0,4.886714935E0
7.559202930E-1,-2.355966330E0,8.945011139E0,4.822069645E0
7.579200260E-1,-2.351177931E0,8.901913643E0,4.628133297E0
7.599197590E-1,-2.334417820E0,8.889942169E0,4.486870766E0
7.619194920E-1,-2.310475111E0,8.882759094E0,4.470110893E0
7.639192920E-1,-2.214704275E0,8.856422424E0,4.482082367E0
7.659190250E-1,-2.121327400E0,8.858817101E0,4.522785187E0
7.679187580E-1,-1.850774407E0,8.868393898E0,4.587430477E0
7.699184910E-1,-1.525153041E0,8.921068192E0,4.606584549E0
7.719182240E-1,-1.345582485E0,8.942616463E0,4.589824677E0
7.739179570E-1,-9.529213905E-1,8.988107681E0,4.517996788E0
7.759176900E-1,-5.770202279E-1,9.055147171E0,4.438985348E0
7.779178560E-1,-3.950553536E-1,9.081484795E0,4.391099930E0
7.799176560E-1,8.140534163E-2,9.057541847E0,4.290540695E0
7.819173890E-1,2.059076279E-1,9.028810501E0,4.276175022E0
7.839171220E-1,2.992843390E-1,9.004867554E0,4.261809349E0
7.859168550E-1,4.166038036E-1,8.949799538E0,4.252232075E0
7.879165880E-1,4.692778587E-1,8.880365372E0,4.247443676E0
7.899163210E-1,4.764606953E-1,8.851634026E0,4.242654800E0
7.919160540E-1,4.118152559E-1,8.758256912E0,4.228289127E0
7.939157870E-1,2.801301479E-1,8.667274475E0,4.230683804E0
7.959155870E-1,2.154847383E-1,8.636149406E0,4.252232075E0
7.979156530E-1,1.388679445E-1,8.578686714E0,4.288146019E0
7.999153860E-1,6.464541703E-2,8.540378571E0,4.264203548E0
8.019157520E-1,3.591412306E-2,8.506858826E0,4.206740856E0
8.039154850E-1,-3.351984918E-2,8.435029984E0,4.031958580E0
8.059152180E-1,-1.436564922E-1,8.372778893E0,3.897879362E0
8.079149510E-1,-1.963305324E-1,8.348835945E0,3.857176781E0
8.099146840E-1,-3.040728867E-1,8.341653824E0,3.806896925E0
8.119144840E-1,-4.692778587E-1,8.384750366E0,3.780560017E0
8.139142170E-1,-5.530774593E-1,8.415876389E0,3.782954216E0
8.159139500E-1,-7.613793612E-1,8.502069473E0,3.823656797E0
8.179136830E-1,-9.840469360E-1,8.571503639E0,3.943370581E0
8.199134160E-1,-1.163617611E0,8.667274475E0,4.106181145E0
8.219131490E-1,-1.240234375E0,8.717555046E0,4.170826912E0
8.239128820E-1,-1.364736676E0,8.810931206E0,4.261809349E0
8.259126820E-1,-1.417410731E0,8.851634026E0,4.273780346E0
8.279124820E-1,-1.508393168E0,8.949799538E0,4.285751820E0
8.299122150E-1,-1.580221415E0,9.031204224E0,4.319271564E0
8.319119480E-1,-1.596981287E0,9.071907043E0,4.321666241E0
8.339116810E-1,-1.659232497E0,9.143735886E0,4.348002911E0
8.359114140E-1,-1.714300752E0,9.189227104E0,4.357580185E0
8.379111470E-1,-1.723877907E0,9.208380699E0,4.355185986E0
8.399108800E-1,-1.731060743E0,9.222746849E0,4.352791786E0
8.419106800E-1,-1.692752242E0,9.234718323E0,4.350397110E0
8.439104130E-1,-1.666415215E0,9.241900444E0,4.340820312E0
8.459101460E-1,-1.589798450E0,9.249083519E0,4.338426113E0
8.479098790E-1,-1.551490068E0,9.239506721E0,4.328848839E0
8.499096120E-1,-1.465296149E0,9.227535248E0,4.324060440E0
8.519093450E-1,-1.379102230E0,9.213169098E0,4.285751820E0
8.539090780E-1,-1.340793848E0,9.158101082E0,4.273780346E0
8.559088110E-1,-1.228263021E0,9.134158134E0,4.237866402E0
8.579086110E-1,-1.130097747E0,9.088666916E0,4.134912491E0
8.599083440E-1,-1.031932473E0,9.071907043E0,4.029564381E0
8.619078770E-1,-9.984126091E-1,9.062330246E0,4.000833035E0
8.639076100E-1,-9.768640995E-1,9.057541847E0,4.029564381E0
8.659073430E-1,-9.720755816E-1,9.069513321E0,4.058295727E0
8.679070760E-1,-9.912297726E-1,9.141341209E0,4.115758419E0
8.699068090E-1,-1.019961119E0,9.222746849E0,4.163643837E0
8.719065420E-1,-1.072635174E0,9.241900444E0,4.197163582E0
8.739063420E-1,-1.211503029E0,9.237112045E0,4.261809349E0
8.759060750E-1,-1.357553840E0,9.189227104E0,4.352791786E0
8.779058080E-1,-1.448536277E0,9.177255630E0,4.395888329E0
8.799055410E-1,-1.707117915E0,9.115004539E0,4.496448040E0
8.819052740E-1,-1.776551962E0,9.095849991E0,4.529967785E0
8.839050070E-1,-1.831620216E0,9.083878517E0,4.561093330E0
8.859047400E-1,-1.939362645E0,9.045570374E0,4.587430477E0
8.879044730E-1,-2.071047783E0,9.007262230E0,4.592218876E0
8.899042730E-1,-2.135693073E0,8.988107681E0,4.563488007E0
8.919040060E-1,-2.217098475E0,8.928250313E0,4.479688168E0
8.939042060E-1,-2.310475111E0,8.868393898E0,4.374340057E0
8.959039390E-1,-2.391880512E0,8.839662552E0,4.314483166E0
8.979036720E-1,-2.566662550E0,8.741497040E0,4.192375183E0
8.999034050E-1,-2.762993097E0,8.633754730E0,4.113364220E0
9.019031380E-1,-2.870735407E0,8.585869789E0,4.137306690E0
9.039029380E-1,-3.047911882E0,8.418270111E0,4.252232075E0
9.059027380E-1,-3.220299721E0,8.236305237E0,4.403071404E0
9.079024710E-1,-3.306493521E0,8.142929077E0,4.486870766E0
9.099022040E-1,-3.411841631E0,7.977723598E0,4.565882206E0
9.119019370E-1,-3.490852594E0,7.786181450E0,4.577853203E0
9.139016700E-1,-3.512401104E0,7.685622215E0,4.573064804E0
9.159014030E-1,-3.550709486E0,7.522811413E0,4.568276405E0
9.179011360E-1,-3.529160976E0,7.395915031E0,4.599401951E0
9.199009360E-1,-3.459727049E0,7.300143719E0,4.661653042E0
9.219006690E-1,-3.404658794E0,7.283383846E0,4.699961662E0
9.239004020E-1,-3.318464994E0,7.264229774E0,4.812492371E0
9.259001350E-1,-3.308887720E0,7.261835575E0,4.874743462E0
9.278998680E-1,-3.323253393E0,7.273807049E0,5.078257084E0
9.298996010E-1,-3.404658794E0,7.266623974E0,5.351204395E0
9.318993340E-1,-3.454938650E0,7.259441376E0,5.492466450E0
9.338990670E-1,-3.526766777E0,7.233104229E0,5.774991035E0
9.358988670E-1,-3.541132450E0,7.190007210E0,5.971321583E0
9.378986000E-1,-3.526766777E0,7.192401409E0,6.000052452E0
9.398983330E-1,-3.452544212E0,7.173247337E0,5.954561234E0
9.418980660E-1,-3.411841631E0,7.178035736E0,5.842030525E0
9.438977990E-1,-3.335224867E0,7.197190285E0,5.786962032E0
9.458975320E-1,-3.311282158E0,7.211555958E0,5.743865490E0
9.478972650E-1,-3.318464994E0,7.237892628E0,5.777385235E0
9.498968980E-1,-3.363956213E0,7.259441376E0,5.947378635E0
9.518966980E-1,-3.486064196E0,7.297749519E0,6.177228928E0
9.538959980E-1,-3.538738251E0,7.336058140E0,6.280182838E0
9.558957640E-1,-3.636903524E0,7.467742920E0,6.409473896E0
9.578955300E-1,-3.708731651E0,7.688016415E0,6.421444893E0
9.598952960E-1,-3.787742853E0,7.879558563E0,6.282577038E0
9.618950620E-1,-3.778165579E0,7.965752125E0,6.186806202E0
9.638948280E-1,-3.691971779E0,8.128562927E0,6.035966873E0
9.658945940E-1,-3.608172178E0,8.200390816E0,5.976109982E0
9.678944270E-1,-3.426207304E0,8.370385170E0,5.918647289E0
9.698941930E-1,-3.280156374E0,8.631361008E0,5.933012962E0
9.718939590E-1,-3.201145411E0,8.782199860E0,5.944984436E0
9.738937250E-1,-2.992843628E0,9.045570374E0,5.997658253E0
9.758934910E-1,-2.762993097E0,9.273026466E0,6.067092419E0
9.778932570E-1,-2.645673752E0,9.342460632E0,6.069486618E0
9.798930230E-1,-2.303292274E0,9.457385063E0,5.954561234E0
9.818924230E-1,-2.214704275E0,9.457385063E0,5.885127544E0
9.838922560E-1,-2.147664547E0,9.447808266E0,5.796539307E0
9.858920220E-1,-2.030344963E0,9.462174416E0,5.566689014E0
9.878917880E-1,-1.941756845E0,9.414288521E0,5.262616158E0
9.898915540E-1,-1.910631299E0,9.383162498E0,5.128536701E0
9.918913200E-1,-1.905842781E0,9.308940887E0,4.975303173E0
9.938910860E-1,-1.881899953E0,9.237112045E0,4.939388752E0
9.958908520E-1,-1.872322917E0,9.205986977E0,4.939388752E0
9.978906850E-1,-1.845985889E0,9.174860954E0,4.920234680E0
9.998905180E-1,-1.893871427E0,9.150918007E0,4.927417755E0
1.001890284E0,-1.920208454E0,9.146129608E0,4.956148624E0
1.003890050E0,-2.006402254E0,9.134158134E0,5.020794392E0
1.005889816E0,-2.178790092E0,9.064723969E0,5.042342663E0
1.007889582E0,-2.296109438E0,9.009655952E0,5.037554264E0
1.009889448E0,-2.523565531E0,8.892336845E0,5.030371189E0
1.011889214E0,-2.674404860E0,8.765439987E0,5.047131062E0
1.013889014E0,-2.724684715E0,8.691217422E0,5.085439682E0
1.015888747E0,-2.777358770E0,8.564320564E0,5.221913338E0
1.017888480E0,-2.818061352E0,8.437424660E0,5.408666611E0
1.019888213E0,-2.865947008E0,8.320104599E0,5.614574432E0
1.021887946E0,-2.894678354E0,8.291373253E0,5.712739468E0
1.023887679E0,-2.971295118E0,8.224333763E0,5.865973473E0
1.025887412E0,-3.011997700E0,8.195602417E0,5.918647289E0
1.027887145E0,-3.184385538E0,8.083071709E0,6.050332546E0
1.029886945E0,-3.423812866E0,7.970541000E0,6.368771076E0
1.031886678E0,-3.419024467E0,7.937020779E0,6.464541912E0
1.033886411E0,-3.234665155E0,7.860404015E0,6.452570438E0
1.035886144E0,-3.141288519E0,7.788576126E0,6.272999763E0
1.037885877E0,-3.028757572E0,7.738296032E0,6.174834728E0
1.039885610E0,-3.028757572E0,7.637736797E0,6.050332546E0
1.041885376E0,-3.043123245E0,7.565908432E0,5.997658253E0
1.043885109E0,-3.083826065E0,7.537177086E0,5.918647289E0
1.045884909E0,-3.098191500E0,7.470137596E0,5.846818924E0
1.047884642E0,-3.098191500E0,7.439012051E0,5.789356709E0
1.049884375E0,-3.100585938E0,7.364789486E0,5.616968632E0
1.051884108E0,-3.148471355E0,7.302538395E0,5.365570068E0
1.053883841E0,-3.184385538E0,7.276201248E0,5.243461609E0
1.055883574E0,-3.208328247E0,7.221132755E0,5.109382629E0
1.057883307E0,-3.155654192E0,7.201978683E0,5.147690773E0
1.059883040E0,-3.114951611E0,7.173247337E0,5.336838722E0
1.061882840E0,-3.134105682E0,7.156487465E0,5.480494976E0
1.063882573E0,-3.189173937E0,7.180429935E0,5.786962032E0
1.065882306E0,-3.222693920E0,7.192401409E0,5.887521744E0
1.067882039E0,-3.253819466E0,7.237892628E0,6.033572674E0
1.069881772E0,-3.217905283E0,7.278595448E0,6.141314983E0
1.071881505E0,-3.184385538E0,7.285778046E0,6.184412003E0
1.073881238E0,-3.064671755E0,7.285778046E0,6.318490982E0
1.075881038E0,-2.964112282E0,7.312115192E0,6.498061657E0
1.077880838E0,-2.930592299E0,7.319298267E0,6.591438770E0
1.079880571E0,-3.141288519E0,7.185218811E0,6.996070862E0
1.081880304E0,-3.366350412E0,6.998465061E0,7.101418972E0
1.083880037E0,-3.426207304E0,6.838048935E0,7.245075703E0
1.085879770E0,-2.964112282E0,6.634535313E0,7.529994488E0
1.087879503E0,-2.355966330E0,6.526793003E0,7.443800449E0
1.089879236E0,-2.109356165E0,6.553130150E0,7.312115192E0
1.091879036E0,-1.723877907E0,6.754249096E0,6.984099388E0
1.093878769E0,-1.494027495E0,7.106207848E0,6.756643295E0
1.095878502E0,-1.388679385E0,7.297749519E0,6.677632332E0
1.097878235E0,-1.139674783E0,7.577879906E0,6.457359314E0
1.099877968E0,-9.289786220E-1,7.719141960E0,6.375953674E0
1.101878101E0,-8.164477348E-1,7.774210453E0,6.435810566E0
1.103877834E0,-5.674431324E-1,7.860404015E0,6.615381241E0
1.105877567E0,-2.513988614E-1,7.886741161E0,6.727912426E0
1.107877367E0,-7.661679387E-2,7.917866707E0,6.720729351E0
1.109877100E0,2.513988614E-1,7.953781128E0,6.543552876E0
1.111876833E0,5.698373914E-1,7.905895233E0,6.014418125E0
1.113876566E0,7.278595567E-1,7.826884270E0,5.660065651E0
1.115876299E0,9.241901040E-1,7.580274105E0,4.989668846E0
1.117876032E0,9.217957854E-1,7.300143719E0,4.508419514E0
1.119875765E0,7.518022656E-1,6.964945316E0,4.383917332E0
1.121875498E0,5.746259689E-1,6.787769318E0,4.453351021E0
1.123875298E0,3.782954216E-1,6.502850533E0,4.745452881E0
1.125875031E0,-1.412622184E-1,6.483695984E0,5.008822918E0
1.127874764E0,-8.763045669E-1,6.569890022E0,5.803721905E0
1.129874497E0,-1.314456820E0,6.732700825E0,6.296942711E0
1.131874230E0,-2.221887112E0,6.797346115E0,7.146910191E0
1.133873963E0,-3.093403101E0,6.833260536E0,7.558725357E0
1.135873696E0,-3.481275558E0,6.826077461E0,7.585062504E0
1.137873429E0,-4.055901527E0,6.804529190E0,7.338452339E0
1.139873229E0,-4.599401951E0,6.732700825E0,6.744672298E0
1.141872962E0,-4.599401951E0,6.732700825E0,6.744672298E0
1.143872695E0,-4.855589390E0,6.711152077E0,6.562707424E0
1.145872428E0,-4.992063046E0,6.706363678E0,6.577073097E0
1.147872161E0,-5.004034519E0,6.703969479E0,6.596227169E0
1.149871894E0,-4.975303173E0,6.742278099E0,6.591438770E0
1.151871627E0,-4.915446281E0,6.775797844E0,6.545947552E0
1.153871427E0,-4.893897533E0,6.809317589E0,6.524398804E0
1.155871227E0,-4.862771988E0,6.835654736E0,6.447782040E0
1.157870960E0,-4.805309772E0,6.775797844E0,6.371165276E0
1.159870693E0,-4.719115734E0,6.639324188E0,6.407079220E0
1.161870093E0,-4.642498970E0,6.545947552E0,6.452570438E0
1.163869826E0,-4.424619675E0,6.337645531E0,6.584255695E0
1.165869559E0,-4.290540695E0,6.227508545E0,6.670449734E0
1.167869292E0,-4.022381783E0,6.004841328E0,6.823683262E0
1.169869092E0,-3.792531252E0,5.820482254E0,6.919454098E0
1.171868825E0,-3.718308687E0,5.727105141E0,6.938608170E0
1.173868558E0,-3.663240433E0,5.578660488E0,6.941002846E0
1.175868291E0,-3.691971779E0,5.456552505E0,6.984099388E0
1.177868024E0,-3.711125851E0,5.403878212E0,7.034379482E0
1.179867757E0,-3.792531252E0,5.293741703E0,7.295355320E0
1.181867490E0,-3.828445435E0,5.284164429E0,7.405491829E0
1.183867223E0,-3.861965179E0,5.269798756E0,7.520417213E0
1.185867023E0,-3.912245035E0,5.272192955E0,7.750267506E0
1.187866756E0,-3.986467600E0,5.269798756E0,7.925049782E0
1.189866489E0,-4.010410309E0,5.269798756E0,7.956175327E0
1.191866222E0,-4.036747456E0,5.236279011E0,7.893924236E0
1.193865955E0,-3.972101927E0,5.159662247E0,7.709564686E0
1.195865688E0,-3.938581944E0,5.116565228E0,7.620976925E0
1.197865421E0,-3.838022470E0,5.027976990E0,7.458166122E0
1.199865154E0,-3.703943014E0,4.896292210E0,7.367183685E0
1.201864954E0,-3.622537851E0,4.838829517E0,7.376760483E0
1.203864720E0,-3.488458395E0,4.692778587E0,7.448588848E0
1.205864486E0,-3.296916485E0,4.561093330E0,7.587456703E0
1.207864252E0,-3.213116884E0,4.508419514E0,7.673650742E0
1.209864018E0,-3.105374336E0,4.431802750E0,7.872375488E0
1.211863784E0,-3.064671755E0,4.424619675E0,8.080677032E0
1.213863550E0,-3.062277555E0,4.443774223E0,8.202785492E0
1.215863316E0,-3.079037428E0,4.537150860E0,8.435029984E0
1.217863149E0,-3.088614464E0,4.673624516E0,8.583475113E0
1.219863015E0,-3.064671755E0,4.838829517E0,8.698400497E0
1.221863215E0,-3.040729046E0,4.908263206E0,8.758256912E0
1.223863081E0,-3.023969173E0,5.059102535E0,8.839662552E0
1.225862947E0,-3.102980137E0,5.169239521E0,9.126976013E0
1.227862813E0,-3.277762175E0,5.458946705E0,9.531607628E0
1.229862679E0,-3.354378939E0,5.614574432E0,9.713572502E0
1.231862612E0,-3.545921087E0,5.933012962E0,9.936240196E0
1.233862545E0,-3.711125851E0,6.201171875E0,9.921875000E0
1.235862478E0,-3.770982742E0,6.301731110E0,9.850046158E0
1.237862411E0,-3.861965179E0,6.411868095E0,9.644139290E0
1.239862344E0,-3.909850836E0,6.498061657E0,9.165284157E0
1.241862277E0,-3.902667999E0,6.517216206E0,8.719948769E0
1.243862210E0,-3.703943014E0,6.450176239E0,7.443800449E0
1.245862143E0,-3.402264595E0,6.311308384E0,6.146103382E0
1.247862143E0,-3.237059593E0,6.201171875E0,5.724710941E0
1.249862143E0,-2.956929445E0,5.964138508E0,5.554717541E0
1.251862109E0,-2.705530643E0,5.657671452E0,6.150891781E0
1.253862075E0,-2.585816860E0,5.482889175E0,6.612987041E0
1.255862041E0,-2.430188894E0,5.145296574E0,7.589851379E0
1.257862007E0,-2.379909277E0,4.846012115E0,8.296162605E0
1.259861973E0,-2.454131603E0,4.570670605E0,8.583475113E0
1.261861939E0,-2.530748367E0,4.460534096E0,8.602629662E0
1.263861939E0,-2.638490915E0,4.223500729E0,8.466156006E0
1.265861905E0,-2.695953369E0,4.108575344E0,8.351230621E0
1.267861871E0,-2.758204460E0,3.883513689E0,8.092648506E0
1.269861837E0,-2.743839025E0,3.687183142E0,7.778998852E0
1.271861803E0,-2.693559170E0,3.584229469E0,7.587456703E0
1.273861769E0,-2.509200096E0,3.383110285E0,7.194795609E0
1.275861735E0,-2.248224020E0,3.263396502E0,6.854808807E0
1.277861701E0,-2.116539001E0,3.234665155E0,6.744672298E0
1.279861634E0,-1.857957244E0,3.210722446E0,6.605803967E0
1.281861567E0,-1.661626697E0,3.234665155E0,6.553130150E0
1.283861500E0,-1.623318315E0,3.275367975E0,6.457359314E0
1.285861433E0,-1.685569525E0,3.361561775E0,6.110189438E0
1.287861366E0,-1.886688590E0,3.466909885E0,5.681613922E0
1.289861299E0,-2.035133600E0,3.517189741E0,5.504437923E0
1.291861232E0,-2.399063349E0,3.627326250E0,5.363175392E0
1.293861165E0,-2.734261751E0,3.696760416E0,5.576265812E0
1.295861098E0,-2.877918243E0,3.682394743E0,5.813299179E0
1.297860964E0,-3.136499882E0,3.629720688E0,6.488484859E0
1.299860830E0,-3.356773376E0,3.545921087E0,7.204372883E0
1.301860696E0,-3.462121487E0,3.481275558E0,7.470137596E0
1.303860562E0,-3.658451796E0,3.347196102E0,7.757450581E0
1.305860428E0,-3.797319889E0,3.225088120E0,7.800547123E0
1.307860294E0,-3.833234072E0,3.162837029E0,7.767027378E0
1.309860160E0,-3.818868399E0,3.079037428E0,7.654496670E0
1.311860060E0,-3.792531252E0,3.031152010E0,7.529994488E0
1.313859893E0,-3.718308687E0,3.000026226E0,7.491685867E0
1.315859726E0,-3.694365978E0,2.985660791E0,7.522811413E0
1.317859559E0,-3.696760416E0,2.956929445E0,7.573091030E0
1.319858492E0,-3.773377180E0,2.973689318E0,7.819701672E0
1.321858692E0,-3.797319889E0,3.000026226E0,7.915472507E0
1.323858525E0,-3.802108288E0,3.031152010E0,8.004060745E0
1.325858391E0,-3.785348415E0,3.143682718E0,8.133351326E0
1.327858257E0,-3.715914488E0,3.351984739E0,8.138139725E0
1.329858057E0,-3.670423269E0,3.476486921E0,8.078283310E0
1.331857857E0,-3.512401104E0,3.785348415E0,7.903501034E0
1.333857657E0,-3.325647593E0,4.144489765E0,7.671256542E0
1.335857457E0,-3.220299721E0,4.324060440E0,7.537177086E0
1.337857257E0,-3.045517445E0,4.630527496E0,7.355212212E0
1.339857057E0,-2.923409462E0,4.824463844E0,7.304932594E0
1.341856857E0,-2.892283916E0,4.891503334E0,7.369577885E0
1.343856590E0,-2.837215662E0,5.018400192E0,7.647313595E0
1.345856323E0,-2.794118643E0,5.135719299E0,8.049551964E0
1.347856056E0,-2.779752970E0,5.183605194E0,8.245882034E0
1.349855789E0,-2.774964571E0,5.281770229E0,8.557138443E0
1.351855522E0,-2.724684715E0,5.372752666E0,8.686429024E0
1.353855255E0,-2.703136206E0,5.415849686E0,8.693612099E0
1.355854988E0,-2.657644987E0,5.494860649E0,8.533195496E0
1.357854788E0,-2.566662550E0,5.600208759E0,8.142929077E0
1.359854521E0,-2.439765930E0,5.681613922E0,7.707170486E0
1.361854254E0,-2.372726440E0,5.717528343E0,7.541965485E0
1.363853987E0,-2.245829821E0,5.741470814E0,7.467742920E0
1.365853720E0,-2.197944164E0,5.739076614E0,7.556331158E0
1.367853453E0,-2.073441982E0,5.786962032E0,7.908289909E0
1.369853186E0,-1.965699673E0,5.834847927E0,8.265036583E0
1.371852919E0,-1.898659945E0,5.837242126E0,8.375173569E0
1.373852719E0,-1.778946161E0,5.844424725E0,8.451789856E0
1.375852452E0,-1.673598051E0,5.810904980E0,8.291373253E0
1.377852185E0,-1.630501151E0,5.782173634E0,8.174054146E0
1.379852818E0,-1.565855742E0,5.614574432E0,7.917866707E0
1.381852184E0,-1.596981287E0,5.535563469E0,7.692804813E0
1.383851917E0,-1.616135478E0,5.432609558E0,7.625765324E0
1.385851650E0,-1.721483588E0,5.255433083E0,7.632947922E0
1.387851383E0,-1.905842781E0,5.037554264E0,7.846038342E0
1.389851183E0,-2.004008055E0,4.925023079E0,7.989695072E0
1.391850916E0,-2.183578730E0,4.714327335E0,8.322499275E0
1.393850649E0,-2.310475111E0,4.541939259E0,8.609811783E0
1.395850382E0,-2.363149166E0,4.467716694E0,8.691217422E0
1.397850115E0,-2.403851986E0,4.348002911E0,8.688823700E0
1.399849848E0,-2.370332003E0,4.288146019E0,8.473338127E0
1.401849581E0,-2.300898075E0,4.264203548E0,8.327287674E0
1.403849381E0,-2.116539001E0,4.245049000E0,8.059128761E0
1.405849181E0,-2.011190891E0,4.240260601E0,7.836461544E0
1.407848914E0,-1.771763325E0,4.245049000E0,7.752661705E0
1.409848647E0,-1.525153041E0,4.302511692E0,7.632947922E0
1.411848380E0,-1.431776285E0,4.383917332E0,7.616188049E0
1.413848113E0,-1.225868702E0,4.417437077E0,7.630553722E0
1.415847846E0,-9.912297726E-1,4.501236439E0,7.661679268E0
1.417847579E0,-8.571503758E-1,4.529967785E0,7.628159523E0
1.419847379E0,-3.543526828E-1,4.647287369E0,7.259441376E0
1.421847112E0,-1.053480953E-1,4.719115734E0,7.067899227E0
1.423846845E0,1.412622184E-1,4.807703972E0,6.924242973E0
1.425846578E0,7.110996246E-1,4.999245644E0,6.969734192E0
1.427846311E0,1.357553840E0,5.174027920E0,7.386337757E0
1.429846044E0,1.697540879E0,5.243461609E0,7.616188049E0
1.431845777E0,2.332023621E0,5.396695614E0,7.846038342E0
1.433845510E0,2.703136206E0,5.549929142E0,7.582668304E0
1.435845310E0,2.731867552E0,5.593026161E0,7.316903591E0
1.437845043E0,2.497228622E0,5.621757030E0,6.691998005E0
1.439844776E0,1.968093872E0,5.590631485E0,6.270605564E0
1.441844509E0,1.625712633E0,5.552323341E0,6.237085819E0
1.443844242E0,9.026415944E-1,5.446975231E0,6.476513386E0
1.445843975E0,2.226675600E-1,5.334444046E0,6.921848297E0
1.447843708E0,-8.619388938E-2,5.288952827E0,7.132544518E0
1.449843441E0,-6.009629965E-1,5.241067410E0,7.472531796E0
1.451843241E0,-1.031932473E0,5.207547665E0,7.726325035E0
1.453842974E0,-1.206714511E0,5.197970390E0,7.822095871E0
1.455842707E0,-1.443747759E0,5.164450645E0,8.068706512E0
1.457842440E0,-1.565855742E0,5.109382629E0,8.406298637E0
1.459842173E0,-1.592192769E0,5.042342663E0,8.722343445E0
1.461841906E0,-1.577827096E0,5.032765865E0,8.837267876E0
1.463841639E0,-1.520364523E0,5.008822918E0,8.968953133E0
1.465841372E0,-1.489238977E0,4.980091572E0,8.952193260E0
1.467841172E0,-1.426987767E0,4.901080608E0,8.822902679E0
1.469840905E0,-1.350371003E0,4.786155224E0,8.609811783E0
1.471840638E0,-1.288119793E0,4.731087208E0,8.511647224E0
1.473840371E0,-1.113337755E0,4.630527496E0,8.320104599E0
1.475840104E0,-8.451790214E-1,4.592218876E0,8.147717476E0
1.477839837E0,-7.015225291E-1,4.594613552E0,8.061523438E0
1.479839570E0,-3.806896806E-1,4.613767624E0,7.879558563E0
1.481839370E0,-4.309694469E-2,4.599401951E0,7.656890869E0
1.483839170E0,1.197137386E-1,4.585036278E0,7.546754360E0
1.485838903E0,3.423812985E-1,4.592218876E0,7.343240738E0
1.487838636E0,4.166038036E-1,4.649681568E0,7.151699066E0
1.489838369E0,4.213923812E-1,4.680807114E0,7.079870701E0
1.491838102E0,3.998439014E-1,4.726298332E0,6.984099388E0
1.493837835E0,2.897072434E-1,4.719115734E0,7.130150318E0
1.495837568E0,2.178790122E-1,4.668835640E0,7.362394810E0
1.497837368E0,0.000000000E0,4.501236439E0,8.138139725E0
1.499837168E0,-1.867534369E-1,4.156461239E0,8.956981659E0
1.501836901E0,-2.537931204E-1,3.957736254E0,9.232323647E0
1.503836634E0,-3.208328187E-1,3.584229469E0,9.313729286E0
1.505836367E0,-3.375927508E-1,3.256213665E0,9.143735886E0
1.507836100E0,-3.615354896E-1,3.124528646E0,8.628966331E0
1.509835833E0,-4.453351200E-1,2.856369734E0,8.207573891E0
1.511835566E0,-5.027977228E-1,2.719896078E0,8.013637543E0
1.513835366E0,-6.416656375E-1,2.480468750E0,7.661679268E0
1.515835099E0,-8.379961848E-1,2.264983892E0,7.290566921E0
1.517834832E0,-9.385557175E-1,2.176395893E0,7.118178844E0
1.519834565E0,-1.240234375E0,1.917814136E0,6.871568680E0
1.521834298E0,-1.324033976E0,1.834014535E0,6.895511627E0
1.523834031E0,-1.388679385E0,1.721483588E0,6.964945316E0
1.525833764E0,-1.556278586E0,1.503604531E0,7.151699066E0
1.527833497E0,-1.752609134E0,1.482056141E0,7.407886028E0
1.529833297E0,-1.879505754E0,1.527547359E0,7.520417213E0
1.531833030E0,-2.150058746E0,1.680780888E0,7.699987888E0
1.533832763E0,-2.382303476E0,1.790917516E0,7.865192890E0
1.535832496E0,-2.487651587E0,1.836408734E0,7.987300873E0
1.537832229E0,-2.724684715E0,1.927391171E0,8.286584854E0
1.539831962E0,-2.952140808E0,2.056682110E0,8.640937805E0
1.541831695E0,-3.047911882E0,2.133298874E0,8.839662552E0
1.543831428E0,-3.148471355E0,2.293715239E0,9.253871918E0
1.545831228E0,-3.170019865E0,2.389486313E0,9.584281921E0
1.547830961E0,-3.167625666E0,2.425400496E0,9.670475960E0
1.549830694E0,-3.170019865E0,2.456526041E0,9.708784103E0
1.551830427E0,-3.143682718E0,2.401457548E0,9.641744614E0
1.553830160E0,-3.122134447E0,2.360754967E0,9.584281921E0
1.555829893E0,-3.112557173E0,2.267378330E0,9.457385063E0
1.557829626E0,-3.129317284E0,2.164424419E0,9.342460632E0
1.559829359E0,-3.186779737E0,2.083019018E0,9.287391663E0
1.561829159E0,-3.217905283E0,2.056682110E0,9.261054993E0
1.563828892E0,-3.265790939E0,2.051893473E0,9.244295120E0
1.565828625E0,-3.277762175E0,2.054287672E0,9.244295120E0
1.567828358E0,-3.210722446E0,2.044710636E0,9.277814865E0
1.569828091E0,-3.088614464E0,2.027950764E0,9.380768776E0
1.571827824E0,-3.021574736E0,2.013585091E0,9.440625191E0
1.573827557E0,-2.844398499E0,1.994430900E0,9.543579102E0
1.575827357E0,-2.652856588E0,1.996825218E0,9.601041794E0
1.577827157E0,-2.588211060E0,1.987248063E0,9.615407944E0
1.579826890E0,-2.545114040E0,1.939362645E0,9.639349937E0
1.581826623E0,-2.573845387E0,1.865140080E0,9.634561539E0
1.583826356E0,-2.592999697E0,1.805283189E0,9.615407944E0
1.585826089E0,-2.616942406E0,1.697540879E0,9.548367500E0
1.587825822E0,-2.561874151E0,1.553884387E0,9.488511086E0
1.589825555E0,-2.470891714E0,1.477267504E0,9.454991341E0
1.591825355E0,-2.219492674E0,1.362342358E0,9.342460632E0
1.593825088E0,-2.032739401E0,1.321639657E0,9.205986977E0
1.595824821E0,-1.553884387E0,1.295302629E0,9.136552811E0
1.597824554E0,-1.067846537E0,1.271359921E0,8.968953133E0
1.599824287E0,-6.632141471E-1,1.304879785E0,8.791776657E0
1.601824020E0,-5.004034638E-1,1.355159521E0,8.703188896E0
1.603823753E0,-4.836435020E-1,1.623318315E0,8.432636261E0
1.605823486E0,-6.823683381E-1,1.877111435E0,8.207573891E0
1.607823286E0,-9.026415944E-1,2.269772530E0,7.905895233E0
1.609823019E0,-6.847625971E-1,2.286532402E0,8.111803055E0
1.611822752E0,-5.243461728E-1,2.140481710E0,8.411087036E0
1.613822485E0,-6.991282701E-1,3.711125851E-1,8.150111198E0
1.615822218E0,-2.825244367E-1,-9.289786220E-1,7.240286827E0
1.617821951E0,1.460507661E-1,-1.005595446E0,7.110996246E0
1.619821684E0,1.369525194E0,-7.110996246E-1,7.192401409E0
1.621822884E0,1.656838179E0,-5.770202279E-1,7.266623974E0
1.623822684E0,1.869928598E0,-4.405465722E-1,7.340846539E0
1.625822417E0,2.193155766E0,-1.508393139E-1,7.415069103E0
1.627822150E0,2.444554567E0,1.771763414E-1,7.424646378E0
1.629821883E0,2.583422422E0,3.375927508E-1,7.410280704E0
1.631821616E0,2.865947008E0,6.895511150E-1,7.336058140E0
1.633821349E0,2.810878515E0,1.072635174E0,7.053533554E0
1.635821082E0,1.778946161E0,1.340793848E0,6.124555111E0
1.637820815E0,-6.296942830E-1,1.845985889E0,3.148471355E0
1.639820615E0,-1.228263021E0,2.154847383E0,1.443747759E0
1.641820348E0,-1.367130876E0,2.205127001E0,9.672870040E-1
1.643820081E0,-1.635289669E0,2.152452946E0,5.147690773E-1
1.645819814E0,-1.867534399E0,2.056682110E0,3.759011328E-1
1.647819547E0,-1.968093872E0,2.015979290E0,3.567469418E-1
1.649819280E0,-2.135693073E0,1.968093872E0,3.615354896E-1
1.651819013E0,-2.293715239E0,1.927391171E0,4.166038036E-1
1.653818813E0,-2.387091875E0,1.917814136E0,4.620950520E-1
1.655818613E0,-2.588211060E0,1.896265626E0,5.937801600E-1
1.657818346E0,-2.794118643E0,1.862745762E0,7.398309112E-1
1.659818079E0,-2.983266354E0,1.857957244E0,8.164477348E-1
1.661817812E0,-3.069460392E0,1.838803053E0,8.499675393E-1
1.663817545E0,-3.277762175E0,1.755003452E0,9.529213905E-1
1.665817278E0,-3.375927448E0,1.702329397E0,1.012778282E0
1.667817011E0,-3.593806505E0,1.546701550E0,1.142069101E0
1.669816811E0,-3.861965179E0,1.362342358E0,1.326428294E0
1.671816611E0,-4.031958580E0,1.295302629E0,1.474873304E0
1.673816377E0,-4.465322495E0,1.192348838E0,2.078230619E0
1.675816143E0,-5.185999393E0,1.180377483E0,3.193962574E0
1.677815909E0,-5.604997158E0,1.149251938E0,3.981678963E0
1.679815675E0,-6.337645531E0,6.009629965E-1,6.725517750E0
1.681813608E0,-6.261028767E0,3.160442710E-1,7.374366283E0
1.683813374E0,-6.088640690E0,8.619388938E-2,7.759844780E0
1.685813207E0,-5.727105141E0,-1.460507661E-1,7.697593689E0
1.687812973E0,-5.614574432E0,-2.011190802E-1,7.058321953E0
1.689812739E0,-5.688796997E0,-2.490045726E-1,6.747066498E0
1.691812505E0,-6.177228928E0,-4.573064744E-1,6.253845692E0
1.693812271E0,-6.471724987E0,-5.913859010E-1,6.205960274E0
1.695812037E0,-6.955368519E0,-8.451790214E-1,6.466936111E0
1.697811803E0,-7.297749519E0,-1.024749637E0,7.046350956E0
1.699811569E0,-7.486897469E0,-1.036720991E0,7.671256542E0
1.701811402E0,-7.561120033E0,-1.007989645E0,8.042368889E0
1.703811168E0,-7.678439140E0,-9.744698405E-1,9.016839027E0
1.705810934E0,-7.757450581E0,-9.720755816E-1,9.562733650E0
1.707810700E0,-8.090254784E0,-1.051086664E0,1.049171257E1
1.709810466E0,-8.394327164E0,-1.058269501E0,1.111661816E1
1.711810232E0,-8.490098000E0,-1.005595446E0,1.130815983E1
1.713809998E0,-8.602629662E0,-8.595446348E-1,1.151646137E1
1.715809764E0,-8.583475113E0,-7.134938836E-1,1.154040432E1
1.717809597E0,-8.588263512E0,-6.703969240E-1,1.149970150E1
1.719809363E0,-8.521224022E0,-5.794144869E-1,1.117168617E1
1.721809129E0,-8.423058510E0,-5.578660369E-1,1.104239559E1
1.723808895E0,-8.296162605E0,-5.458946824E-1,1.091310501E1
1.725808661E0,-8.008849144E0,-5.363175869E-1,1.064494610E1
1.727808427E0,-7.771816254E0,-5.913859010E-1,1.036721039E1
1.729808193E0,-7.635342598E0,-6.368771195E-1,1.020439911E1
1.731807959E0,-7.321692467E0,-7.781392932E-1,9.885960579E0
1.733807759E0,-6.996070862E0,-9.241901040E-1,9.534002304E0
1.735807492E0,-6.797346115E0,-9.936240315E-1,9.352037430E0
1.737807225E0,-6.328068256E0,-1.113337755E0,8.985713005E0
1.739806958E0,-5.880339146E0,-1.146857619E0,8.561926842E0
1.741807024E0,-5.672037125E0,-1.144463301E0,8.351230621E0
1.743806757E0,-5.288952827E0,-1.132491946E0,7.970541000E0
1.745806490E0,-4.939388752E0,-1.134886265E0,7.647313595E0
1.747806290E0,-4.786155224E0,-1.146857619E0,7.520417213E0
1.749806590E0,-4.446168423E0,-1.213897347E0,7.321692467E0
1.751806323E0,-4.130124092E0,-1.271359921E0,7.190007210E0
1.753806056E0,-3.979284763E0,-1.300091267E0,7.142121792E0
1.755805789E0,-3.663240433E0,-1.362342358E0,7.063110828E0
1.757805522E0,-3.368744612E0,-1.393467903E0,7.053533554E0
1.759805255E0,-3.191568375E0,-1.403045058E0,7.134938717E0
1.761804988E0,-3.153259993E0,-1.391073704E0,7.180429935E0
1.763804788E0,-3.035940409E0,-1.343188167E0,7.233104229E0
1.765804521E0,-2.954535007E0,-1.300091267E0,7.266623974E0
1.767804254E0,-2.803695917E0,-1.192348838E0,7.350423813E0
1.769803987E0,-2.667222023E0,-1.055875182E0,7.434223175E0
1.771803720E0,-2.569056988E0,-9.624984860E-1,7.472531796E0
1.773803453E0,-2.346389294E0,-7.518022656E-1,7.491685867E0
1.775803186E0,-2.243435383E0,-5.171633363E-1,7.472531796E0
1.777802919E0,-2.037527800E0,-3.902668059E-1,7.453377247E0
1.779802719E0,-1.834014535E0,-1.436564922E-1,7.376760483E0
1.781802452E0,-1.704723716E0,9.816526622E-2,7.247469902E0
1.783802185E0,-1.345582485E0,1.867534369E-1,7.170853138E0
1.785801918E0,-9.122186899E-1,3.878725171E-1,7.020013809E0
1.787801651E0,-6.751855016E-1,4.668835998E-1,6.955368519E0
1.789801384E0,-1.388679445E-1,5.985686779E-1,6.811711788E0
1.791801117E0,4.381522834E-1,6.967339516E-1,6.658478260E0
1.793800850E0,7.158881426E-1,7.302538157E-1,6.593832970E0
1.795800650E0,1.197137356E0,7.901107073E-1,6.486090660E0
1.797800383E0,1.685569525E0,8.379961848E-1,6.282577038E0
1.799800116E0,2.324840784E0,8.379961848E-1,5.377541065E0
1.801799916E0,2.624125242E0,8.164477348E-1,4.601796150E0
1.803799649E0,2.932986736E0,6.871568561E-1,2.473285913E0
1.805799382E0,2.983266354E0,5.602602959E-1,1.371919513E0
1.807799115E0,3.059883118E0,2.274561077E-1,2.921015322E-1
1.809798348E0,3.239453793E0,-5.746259540E-2,1.173194647E0
1.811798148E0,3.373533249E0,-1.316851079E-1,1.903448462E0
1.813797881E0,3.641691923E0,-9.816526622E-2,3.021574736E0
1.815797614E0,3.809291124E0,2.394274808E-2,3.363956213E0
1.817797347E0,3.826051235E0,6.943397224E-2,3.335224867E0
1.819797080E0,3.684788942E0,1.604164094E-1,2.731867552E0
1.821796813E0,3.603383541E0,1.628106833E-1,2.485257149E0
1.823796546E0,3.488458395E0,1.675992310E-1,2.262589693E0
1.825796346E0,3.213116884E0,1.173194647E-1,1.908236980E0
1.827796146E0,2.853975534E0,-3.112557158E-2,1.826831698E0
1.829795879E0,2.657644987E0,-1.460507661E-1,1.867534399E0
1.831795445E0,2.207521439E0,-4.477293789E-1,2.111750364E0
1.833795178E0,1.745426297E0,-8.236305118E-1,2.396669149E0
1.835794911E0,1.517970204E0,-1.022355318E0,2.554691315E0
1.837794644E0,1.072635174E0,-1.429382086E0,2.913832426E0
1.839794377E0,5.722316504E-1,-1.826831698E0,3.244242430E0
1.841794177E0,2.490045726E-1,-2.030344963E0,3.500429869E0
1.843793910E0,-6.320885420E-1,-2.466103077E0,4.608979225E0
1.845793643E0,-1.750214934E0,-3.031152010E0,6.826077461E0
1.847793376E0,-2.083019018E0,-3.318464994E0,7.877163887E0
1.849793109E0,-2.236252785E0,-3.653663397E0,9.134158134E0
1.851792842E0,-2.176395893E0,-3.569863796E0,9.720755577E0
1.853792575E0,-2.130904675E0,-3.373533249E0,9.917086601E0
1.855792308E0,-2.049499273E0,-2.870735407E0,1.026665020E1
1.857792108E0,-2.054287672E0,-2.353572130E0,1.058987713E1
1.859791841E0,-2.090201855E0,-1.855562925E0,1.099211597E1
1.861791307E0,-2.138087511E0,-1.637683988E0,1.121957207E1
1.863791040E0,-2.250618219E0,-1.280937076E0,1.172476387E1
1.865790773E0,-2.296109438E0,-1.125309110E0,1.210305882E1
1.867790506E0,-2.408640385E0,-8.332076073E-1,1.314217472E1
1.869790239E0,-2.454131603E0,-6.033572555E-1,1.396101665E1
1.871789972E0,-2.590605259E0,-5.099805593E-1,1.435846615E1
1.873789772E0,-2.885101080E0,-3.112557232E-1,1.534969616E1
1.875789505E0,-3.122134447E0,-5.746259540E-2,1.588840771E1
1.877789238E0,-3.663240433E0,6.464541703E-2,1.692033958E1
1.879788971E0,-4.158855438E0,2.681587934E-1,1.787804985E1
1.881788704E0,-4.336031914E0,3.495641351E-1,1.831141281E1
1.883788437E0,-4.527573586E0,5.027977228E-1,1.865618896E1
1.885788170E0,-4.625739098E0,6.392713785E-1,1.839760780E1
1.887787903E0,-4.690384388E0,6.608198285E-1,1.810071754E1
1.889787703E0,-4.834040642E0,6.560313106E-1,1.721004677E1
1.891787603E0,-5.020794392E0,5.889915824E-1,1.595544720E1
1.893787336E0,-5.102199554E0,5.530774593E-1,1.519646263E1
1.895787069E0,-5.226701736E0,5.195576549E-1,1.348216152E1
1.897786802E0,-5.267404556E0,4.980091453E-1,1.162899303E1
1.899786535E0,-5.140508175E0,5.578660369E-1,9.816526413E0
1.901786268E0,-4.913052082E0,5.722316504E-1,8.959376335E0
1.903786068E0,-4.276175022E0,5.985686779E-1,7.472531796E0
1.905785868E0,-3.976890564E0,6.727912426E-1,6.830865860E0
1.907785601E0,-3.438178539E0,8.116591573E-1,5.691191196E0
1.909785334E0,-2.990449190E0,9.768640995E-1,4.819674969E0
1.911785067E0,-2.803695917E0,1.051086664E0,4.486870766E0
1.913784800E0,-2.509200096E0,1.223474383E0,3.955342054E0
1.915784533E0,-2.293715239E0,1.386285067E0,3.632114887E0
1.917784266E0,-2.231464148E0,1.462901950E0,3.548315287E0
1.919784066E0,-2.126116037E0,1.711906433E0,3.488458395E0
1.921785199E0,-2.118933201E0,1.793311834E0,3.524372578E0
1.923784932E0,-2.133298874E0,1.869928598E0,3.584229469E0
1.925784665E0,-2.202732801E0,2.027950764E0,3.759011507E0
1.927784398E0,-2.298503876E0,2.190761566E0,3.962524891E0
1.929784131E0,-2.348783493E0,2.245829821E0,4.060689926E0
1.931783864E0,-2.449343204E0,2.346389294E0,4.278569221E0
1.933783597E0,-2.537931204E0,2.492439985E0,4.515602112E0
1.935783397E0,-2.592999697E0,2.559479713E0,4.635315895E0
1.937783130E0,-2.640885115E0,2.719896078E0,4.841223717E0
1.939783596E0,-2.607365370E0,2.887495518E0,4.994457245E0
1.941783329E0,-2.554691315E0,2.978477955E0,5.054314137E0
1.943783062E0,-2.399063349E0,3.184385538E0,5.102199554E0
1.945782795E0,-2.193155766E0,3.385504484E0,5.037554264E0
1.947782528E0,-2.080624819E0,3.481275558E0,4.963331699E0
1.949782261E0,-1.826831698E0,3.670423269E0,4.769395351E0
1.951782061E0,-1.594586968E0,3.816473961E0,4.527573586E0
1.953781794E0,-1.498816013E0,3.864359617E0,4.407859802E0
1.955781527E0,-1.345582485E0,3.938581944E0,4.194769382E0
1.957781260E0,-1.216291547E0,3.974496126E0,4.010410309E0
1.959780993E0,-1.163617611E0,3.950553417E0,3.883513689E0
1.961780726E0,-1.132491946E0,3.952947617E0,3.818868399E0
1.963780459E0,-1.115732074E0,3.986467600E0,3.713520288E0
1.965780192E0,-1.125309110E0,4.003227711E0,3.675211906E0
1.967779992E0,-1.127703428E0,4.031958580E0,3.632114887E0
1.969779725E0,-1.154040456E0,4.077449799E0,3.632114887E0
1.971779458E0,-1.218685865E0,4.110970020E0,3.699154615E0
1.973779191E0,-1.290514112E0,4.175615311E0,3.849993944E0
1.975778924E0,-1.331216812E0,4.209135056E0,3.948159218E0
1.977778657E0,-1.443747759E0,4.249837875E0,4.173221111E0
1.979778390E0,-1.788523316E0,4.386311531E0,4.767001152E0
1.981776156E0,-1.788523316E0,4.386311531E0,4.767001152E0
1.983775056E0,-1.869928598E0,4.407859802E0,4.884320736E0
1.985774389E0,-1.960911036E0,4.434196949E0,5.020794392E0
1.987774122E0,-2.061470509E0,4.470110893E0,5.162056446E0
1.989773855E0,-2.253012657E0,4.553910732E0,5.466129303E0
1.991773588E0,-2.399063349E0,4.625739098E0,5.760625362E0
1.993773321E0,-2.475680113E0,4.680807114E0,5.913858891E0
1.995773054E0,-2.612153769E0,4.800520897E0,6.213143349E0
1.997772854E0,-2.724684715E0,4.903474808E0,6.505244732E0
1.999771920E0,-2.853975534E0,5.066285610E0,6.991282463E0
2.001770920E0,-2.875524044E0,5.138113976E0,7.182824612E0
2.003770653E0,-2.880312681E0,5.212336063E0,7.393520832E0
2.005770386E0,-2.865947008E0,5.286558628E0,7.609005451E0
2.007770119E0,-2.734261751E0,5.468523502E0,8.054340363E0
2.009769852E0,-2.494834423E0,5.695979595E0,8.549955368E0
2.011769585E0,-2.346389294E0,5.803721905E0,8.810931206E0
2.013769385E0,-2.008796453E0,5.983292580E0,9.361614227E0
2.015769118E0,-1.783734679E0,6.158074856E0,9.897932053E0
2.017768451E0,-1.719089270E0,6.222720146E0,1.015890789E1
2.019768184E0,-1.884294271E0,6.229903221E0,1.113816643E1
2.021767017E0,-1.884294271E0,6.229903221E0,1.113816643E1
2.023766750E0,-2.039922237E0,6.165257454E0,1.134407425E1
2.025766483E0,-2.427794695E0,5.961744308E0,1.172955227E1
2.027766216E0,-2.712713242E0,5.719922543E0,1.211263657E1
2.029766016E0,-2.806090117E0,5.616968632E0,1.229220676E1
2.031765749E0,-2.916226625E0,5.425426483E0,1.259867382E1
2.033765482E0,-2.901860952E0,5.341627121E0,1.287162113E1
2.035765215E0,-2.846792698E0,5.336838722E0,1.301527786E1
2.037765848E0,-2.631308079E0,5.432609558E0,1.329780197E1
2.039765581E0,-2.193155766E0,5.729499817E0,1.379341698E1
2.041765247E0,-2.025556564E0,5.832453251E0,1.395383358E1
2.043765880E0,-1.855562925E0,5.916253090E0,1.410227871E1
2.045766080E0,-1.522758722E0,6.002447128E0,1.433691788E1
2.047765813E0,-1.350371003E0,6.014418125E0,1.439438057E1
2.049765546E0,-1.101366401E0,5.995264053E0,1.442311192E1
2.051765279E0,-9.289786220E-1,5.940196037E0,1.431536865E1
2.053765012E0,-8.715160489E-1,5.918647289E0,1.420523262E1
2.055764745E0,-7.925049663E-1,5.875550270E0,1.389397717E1
2.057764478E0,-7.901107073E-1,5.839636326E0,1.351089287E1
2.059764211E0,-9.146129489E-1,5.875550270E0,1.294344997E1
2.061763877E0,-9.672870040E-1,5.918647289E0,1.274711895E1
2.063763610E0,-9.672870040E-1,5.966532707E0,1.274711895E1
2.065762610E0,-1.125309110E0,6.014418125E0,1.239994907E1
2.067762343E0,-1.352765322E0,6.117372036E0,1.215573311E1
2.069762076E0,-1.479661822E0,6.162863255E0,1.208629894E1
2.071761809E0,-1.762186289E0,6.270605564E0,1.204080772E1
2.073761542E0,-2.130904675E0,6.342433929E0,1.212700176E1
2.075761342E0,-2.315263748E0,6.368771076E0,1.220361900E1
2.077761542E0,-2.717501879E0,6.416656494E0,1.243346882E1
2.079761308E0,-3.529160976E0,6.335251331E0,1.304879761E1
2.081761108E0,-3.529160976E0,6.335251331E0,1.304879761E1
2.083760874E0,-3.706337452E0,6.292154312E0,1.332892799E1
2.085760640E0,-4.022381783E0,6.203566074E0,1.390355396E1
2.087760406E0,-4.158855438E0,6.153286457E0,1.419086647E1
2.089760172E0,-4.362368584E0,6.002447128E0,1.472000122E1
2.091760005E0,-4.427014351E0,5.837242126E0,1.525153065E1
2.093759771E0,-4.429408550E0,5.753442287E0,1.551011181E1
2.095759537E0,-4.388705730E0,5.549929142E0,1.591953278E1
2.097758403E0,-4.292934895E0,5.279376030E0,1.623797226E1
2.099758169E0,-4.039141655E0,4.726298332E0,1.646782303E1
2.101758002E0,-4.039141655E0,4.726298332E0,1.646782303E1
2.103757768E0,-3.984073162E0,4.587430477E0,1.644388008E1
2.105757534E0,-3.919427872E0,4.455745220E0,1.640078163E1
2.107757367E0,-3.770982742E0,4.225894928E0,1.629782867E1
2.109757133E0,-3.648874760E0,4.012804508E0,1.621163559E1
2.111756899E0,-3.603383541E0,3.895485163E0,1.615896034E1
2.113756665E0,-3.500429869E0,3.689577579E0,1.606079483E1
2.115756431E0,-3.438178539E0,3.469304085E0,1.605121803E1
2.117756197E0,-3.407052994E0,3.366350412E0,1.609910393E1
2.119755963E0,-3.435784340E0,2.988054991E0,1.671922112E1
2.121755729E0,-3.500429869E0,2.925803900E0,1.694667625E1
2.123755562E0,-3.500429869E0,2.925803900E0,1.694667625E1
2.125756062E0,-3.701548815E0,2.853975534E0,1.743032074E1
2.127755828E0,-4.005621910E0,2.865947008E0,1.790678215E1
2.129755594E0,-4.206740856E0,2.906649590E0,1.812944794E1
2.131755360E0,-4.678412914E0,3.055094719E0,1.851971626E1
2.133755126E0,-5.243461609E0,3.261002302E0,1.879745102E1
2.135754892E0,-5.552323341E0,3.395081758E0,1.889561653E1
2.137754658E0,-6.196382999E0,3.708731651E0,1.901293564E1
2.139754458E0,-7.575485706E0,4.429408550E0,1.910152435E1
2.141754191E0,-7.575485706E0,4.429408550E0,1.910152435E1
2.143753924E0,-7.913078308E0,4.608979225E0,1.909434128E1
2.145753657E0,-8.516435623E0,4.941783428E0,1.910870743E1
2.147753390E0,-8.791776657E0,5.116565228E0,1.912067795E1
2.149753123E0,-9.246688843E0,5.475706577E0,1.915419769E1
2.151752856E0,-9.445414543E0,5.818087578E0,1.915898705E1
2.153752656E0,-9.751881599E0,5.988081455E0,1.912067795E1
2.155752456E0,-9.938634872E0,6.325674057E0,1.896983910E1
2.157752189E0,-9.998491287E0,6.622564316E0,1.890519333E1
2.159751922E0,-1.030495834E1,6.881145954E0,1.912307358E1
2.161751655E0,-1.048931789E1,6.888328552E0,1.932658577E1
2.163751388E0,-1.048931789E1,6.888328552E0,1.932658577E1
2.165751121E0,-1.082451630E1,6.816500187E0,1.964502525E1
2.167750854E0,-1.086521912E1,6.768614769E0,1.958756256E1
2.169750654E0,-1.076226521E1,6.747066498E0,1.944869423E1
2.171750454E0,-1.041749001E1,6.703969479E0,1.902490807E1
2.173750187E0,-9.969759941E0,6.524398804E0,1.850295639E1
2.175749920E0,-9.766246796E0,6.404685020E0,1.826592255E1
2.177749653E0,-9.464568138E0,6.086246490E0,1.796903229E1
2.179749386E0,-9.694418907E0,5.396695614E0,1.759313202E1
2.181749119E0,-9.694418907E0,5.396695614E0,1.759313202E1
2.183749152E0,-9.984126091E0,5.274587631E0,1.747820663E1
2.185748952E0,-1.067846584E1,4.963331699E0,1.726750946E1
2.187748685E0,-1.101845264E1,4.776578426E0,1.715019035E1
2.189748418E0,-1.157871342E1,4.312088966E0,1.704484177E1
2.191748151E0,-1.191630554E1,3.648874760E0,1.712864113E1
2.193747884E0,-1.194743156E1,3.282550812E0,1.722201920E1
2.195747617E0,-1.174391747E1,2.537931204E0,1.731778908E1
2.197747350E0,-1.158110714E1,1.680780888E0,1.754524612E1
2.199747083E0,-1.254599953E1,6.009629965E-1,1.906321526E1
2.201746883E0,-1.254599953E1,6.009629965E-1,1.906321526E1
2.203747249E0,-1.316372299E1,6.105400920E-1,1.942954063E1
2.205746982E0,-1.378623390E1,7.374366522E-1,1.965939140E1
2.207746715E0,-1.471760750E1,1.218685865E0,1.943193436E1
2.209746448E0,-1.479661846E1,1.908236980E0,1.816057396E1
2.211746181E0,-1.453324795E1,2.298503876E0,1.725314522E1
2.213745914E0,-1.366412640E1,3.021574736E0,1.536406136E1
2.215745647E0,-1.280458164E1,3.596200705E0,1.389876556E1
2.217745447E0,-1.238318920E1,3.842811108E0,1.343188190E1
2.219745180E0,-1.086043072E1,4.747847080E0,1.325949383E1
2.221744913E0,-1.071677399E1,4.747847080E0,1.410467243E1
2.223744646E0,-1.071677399E1,4.747847080E0,1.410467243E1
2.225744379E0,-7.388731956E0,5.461340904E0,1.538321590E1
2.227744112E0,-2.298503876E0,5.262616158E0,1.487802410E1
2.229743845E0,-2.777358890E-1,4.829252243E0,1.385806274E1
2.231743578E0,1.608952641E0,3.550709486E0,1.185644913E1
2.233743378E0,1.501210332E0,2.269772530E0,1.081733322E1
2.235743111E0,6.656084061E-1,1.764580488E0,1.055396366E1
2.237742844E0,-2.185972929E0,1.142069101E0,1.026425648E1
2.239742577E0,-9.419076920E0,1.154040456E0,1.054917526E1
2.241742310E0,-9.419076920E0,1.154040456E0,1.054917526E1
2.243742210E0,-1.118844604E1,1.149251938E0,1.092747021E1
2.245741943E0,-1.286683273E1,7.925049663E-1,1.230417824E1
2.247741743E0,-1.595784187E1,5.123748183E-1,1.326188850E1
2.249741543E0,-1.878787422E1,7.422251999E-2,1.544067860E1
2.251741276E0,-1.996585846E1,1.915419847E-2,1.647979355E1
2.253741009E0,-2.111750412E1,2.753416002E-1,1.781579971E1
2.255740742E0,-1.996585846E1,1.007989645E0,1.735849190E1
2.257740475E0,-1.871365166E1,1.577827096E0,1.641514778E1
2.259740208E0,-1.140393066E1,4.089421272E0,1.138717079E1
2.261739941E0,-9.371191978E0,4.678412914E0,1.050847244E1
2.263739107E0,-9.371191978E0,4.678412914E0,1.050847244E1
2.265738840E0,-5.145296574E0,5.612180233E0,9.881172180E0
2.267738573E0,-9.648927450E-1,6.349617004E0,1.036721039E1
2.269738306E0,7.350423932E-1,6.759037971E0,1.077902508E1
2.271738039E0,2.743839025E0,7.692804813E0,1.144942188E1
2.273737772E0,2.911438227E0,8.561926842E0,1.152364445E1
2.275737505E0,2.523565531E0,8.916279793E0,1.131534290E1
2.277737238E0,1.434170604E0,9.452596664E0,1.055875206E1
2.279737038E0,-5.937801600E-1,1.022115898E1,8.937828064E0
2.281736738E0,-5.937801600E-1,1.022115898E1,8.937828064E0
2.283736471E0,-1.031932473E0,1.032171917E1,8.638543129E0
2.285736204E0,-1.939362645E0,1.014454269E1,8.150111198E0
2.287735937E0,-2.492439985E0,9.804554939E0,7.905895233E0
2.289735670E0,-3.797319889E0,8.566715240E0,7.455771923E0
2.291735403E0,-5.229096413E0,6.893116951E0,7.197190285E0
2.293735136E0,-5.925830364E0,6.033572674E0,7.192401409E0
2.295734936E0,-7.055927753E0,4.517996788E0,7.611399651E0
2.297734702E0,-7.053533554E0,3.407052994E0,8.277008057E0
2.299734468E0,-5.662459850E0,1.242628574E0,8.537983894E0
2.301734234E0,-5.662459850E0,1.242628574E0,8.537983894E0
2.303733734E0,-5.310501575E0,1.142069101E0,8.846845627E0
2.305733500E0,-5.051919937E0,1.309668303E0,9.287391663E0
2.307733266E0,-4.956148624E0,2.238646984E0,1.032890129E1
2.309733032E0,-5.363175392E0,3.383110285E0,1.123154354E1
2.311732865E0,-5.537957668E0,3.866753817E0,1.144942188E1
2.313732665E0,-5.583448887E0,4.597007751E0,1.126745701E1
2.315732465E0,-5.324867249E0,5.219519138E0,1.051565456E1
2.317733198E0,-5.147690773E0,5.509226322E0,1.000327969E1
2.319732998E0,-4.980091572E0,6.292154312E0,7.992089272E0
2.321732798E0,-5.008822918E0,6.440599442E0,7.647313595E0
2.323732598E0,-5.008822918E0,6.440599442E0,7.647313595E0
2.325732464E0,-5.104593754E0,6.572284222E0,6.957762718E0
2.327732330E0,-5.317684174E0,6.462147713E0,6.526793003E0
2.329732196E0,-5.420638084E0,6.354405403E0,6.454965115E0
2.331732062E0,-5.602602959E0,6.052726746E0,6.591438770E0
2.333731928E0,-5.942590237E0,5.751048088E0,7.094236374E0
2.335731794E0,-6.246663094E0,5.523591995E0,7.144515991E0
2.337731660E0,-6.847625732E0,4.905869007E0,6.919454098E0
2.339731526E0,-7.175641537E0,3.775771379E0,6.287365437E0
2.341731492E0,-7.175641537E0,3.775771379E0,6.287365437E0
2.343731358E0,-7.185218811E0,3.656057596E0,6.114977837E0
2.345731224E0,-7.225921154E0,3.581835032E0,5.899493217E0
2.347731090E0,-7.292961121E0,3.514795303E0,5.442186832E0
2.349730956E0,-7.300143719E0,3.610566378E0,4.948966026E0
2.351730822E0,-7.304932594E0,3.737462997E0,4.752635479E0
2.353730688E0,-7.223526955E0,4.055901527E0,4.470110893E0
2.355730554E0,-7.091842175E0,4.314483166E0,4.340820312E0
2.357730454E0,-6.929031372E0,4.460534096E0,4.316877365E0
2.359730287E0,-6.579467297E0,5.257827282E0,4.513207912E0
2.361730120E0,-6.646506786E0,5.442186832E0,4.541939259E0
2.363729686E0,-6.646506786E0,5.442186832E0,4.541939259E0
2.365729519E0,-6.948185444E0,5.710345268E0,4.652075768E0
2.367729352E0,-7.137333393E0,5.825270653E0,4.762212753E0
2.369729185E0,-7.156487465E0,5.892310143E0,4.812492371E0
2.371729018E0,-7.063110828E0,5.892310143E0,4.841223717E0
2.373728884E0,-6.857203007E0,5.806116581E0,4.920234680E0
2.375728684E0,-6.718335152E0,5.748653889E0,4.925023079E0
2.377727550E0,-6.512427330E0,5.475706577E0,4.893897533E0
2.379727350E0,-5.806116581E0,5.411061287E0,4.798126698E0
2.381727150E0,-5.806116581E0,5.411061287E0,4.798126698E0
2.383726950E0,-5.707951069E0,5.487678051E0,4.743058205E0
2.385726750E0,-5.583448887E0,5.655277252E0,4.824463844E0
2.387726550E0,-5.542746067E0,5.815693378E0,4.939388752E0
2.389726350E0,-5.269798756E0,6.337645531E0,5.157268047E0
2.391726083E0,-5.154873848E0,7.027196407E0,5.518803596E0
2.393725816E0,-4.977697372E0,7.326480865E0,5.983292580E0
2.395725549E0,-4.379128456E0,7.788576126E0,7.015225410E0
2.397725282E0,-4.197163582E0,7.951386452E0,7.939415455E0
2.399725015E0,-5.092622280E0,6.866780281E0,8.004060745E0
2.401724748E0,-5.092622280E0,6.866780281E0,8.004060745E0
2.403724548E0,-5.516408920E0,6.452570438E0,7.470137596E0
2.405724348E0,-5.921041489E0,6.114977837E0,6.804529190E0
2.407724081E0,-6.526793003E0,5.643305779E0,5.197970390E0
2.409723814E0,-6.603409767E0,5.636122704E0,3.852388144E0
2.411723547E0,-6.244268894E0,5.703162670E0,3.407052994E0
2.413723280E0,-4.846012115E0,5.966532707E0,2.968900681E0
2.415723013E0,-2.559479713E0,6.292154312E0,3.186779737E0
2.417722746E0,-1.347976685E0,6.356799603E0,3.289733648E0
2.419722546E0,6.081457734E-1,6.122160912E0,4.369551659E0
2.421722346E0,2.729473412E-1,6.057515144E0,4.774183750E0
2.423722146E0,2.729473412E-1,6.057515144E0,4.774183750E0
2.425721879E0,-8.739103079E-1,6.081458092E0,5.626545906E0
2.427721612E0,-1.446141958E0,6.253845692E0,6.390319347E0
2.429721345E0,-2.291321039E0,6.423839092E0,6.536370277E0
2.431721078E0,-3.021574736E0,6.749460697E0,6.440599442E0
2.433720811E0,-3.239453793E0,7.060716629E0,6.332856655E0
2.435720611E0,-3.385504484E0,7.144515991E0,6.165257454E0
2.437720344E0,-3.289733648E0,7.290566921E0,6.059909344E0
2.439720077E0,-2.700742006E0,7.314509392E0,6.332856655E0
2.441719810E0,-2.700742006E0,7.314509392E0,6.332856655E0
2.443719276E0,-2.518777132E0,7.273807049E0,6.572284222E0
2.445719009E0,-2.449343204E0,7.228315830E0,6.890722752E0
2.447718742E0,-2.255406857E0,7.259441376E0,7.585062504E0
2.449718475E0,-2.032739401E0,7.376760483E0,8.169265747E0
2.451718308E0,-1.972882390E0,7.518023014E0,8.425453186E0
2.453718041E0,-2.092596292E0,7.790970325E0,8.724737167E0
2.455717774E0,-2.959323645E0,8.056735039E0,8.810931206E0
2.457717507E0,-3.876330853E0,8.238699913E0,8.892336845E0
2.459717240E0,-1.600572777E1,1.044382668E1,1.168166637E1
2.461716973E0,-1.782537651E1,1.134646797E1,1.454043102E1
2.463716706E0,-1.782537651E1,1.134646797E1,1.454043102E1
2.465716439E0,-1.610149765E1,1.235445786E1,1.903687859E1
2.467716239E0,-8.487704277E0,1.182771778E1,2.000416565E1
2.469715972E0,-3.902667999E0,1.097774982E1,1.976473808E1
2.471715705E0,4.987274647E0,8.281796455E0,1.824437332E1
2.473715438E0,1.065212822E1,5.185999393E0,1.561067200E1
2.475715171E0,1.164575291E1,3.826051235E0,1.407594204E1
2.477714904E0,1.023552513E1,1.774157643E0,1.104478931E1
2.479714637E0,1.209108829E0,1.551490068E0,6.239480019E0
2.481714370E0,1.209108829E0,1.551490068E0,6.239480019E0
2.483714170E0,-6.225114465E-1,2.162030220E0,5.363175392E0
2.485713903E0,-2.674404860E0,3.660846233E0,3.804502726E0
2.487713636E0,-2.932986736E0,4.395888329E0,3.071854591E0
2.489713369E0,-2.391880512E0,5.652883053E0,2.018373728E0
2.491713102E0,-1.110943556E0,6.510033131E0,1.546701550E0
2.493712835E0,-4.285751879E-1,6.850020409E0,1.549095750E0
2.495712568E0,6.656084061E-1,7.395915031E0,2.094990492E0
2.497712368E0,1.474873304E0,7.716747761E0,3.627326250E0
2.499712168E0,1.498816013E0,8.025609016E0,7.158881664E0
2.501711901E0,1.304879785E0,8.025609016E0,7.158881664E0
2.503711901E0,1.003201127E0,7.977723598E0,7.989695072E0
2.505711634E0,6.368771195E-1,7.910684109E0,8.794171333E0
2.507711367E0,-6.943397224E-2,7.702382088E0,1.015651417E1
2.509711100E0,-5.243461728E-1,7.549148560E0,1.081254482E1
2.511710800E0,-6.201171875E-1,7.534782887E0,1.085564232E1
2.513710600E0,-6.081457734E-1,7.436617374E0,1.070001411E1
2.515710333E0,-7.589851022E-1,7.197190285E0,1.079339123E1
2.517710066E0,-8.810931444E-1,7.024802208E0,1.102324104E1
2.519709799E0,-2.015979290E0,6.517216206E0,1.224192715E1
2.521709532E0,-2.317657948E0,6.229903221E0,1.240713215E1
2.523709932E0,-2.317657948E0,6.229903221E0,1.240713215E1
2.525709232E0,-2.710319042E0,5.504437923E0,1.230417824E1
2.527708965E0,-2.803695917E0,4.680807114E0,1.210545349E1
2.529708765E0,-2.676799297E0,4.348002911E0,1.132013130E1
2.531708498E0,-2.212309837E0,3.849993944E0,9.991309166E0
2.533708231E0,-1.944151163E0,3.694365978E0,9.208380699E0
2.535707964E0,-1.448536277E0,3.612960577E0,7.680833817E0
2.537707697E0,-9.696813226E-1,3.838022470E0,6.215537548E0
2.539707430E0,7.518022656E-1,4.970514297E0,5.004034519E0
2.541707163E0,7.518022656E-1,4.970514297E0,5.004034519E0
2.543706896E0,1.000806928E0,5.145296574E0,5.181210518E0
2.545706696E0,1.043903828E0,5.221913338E0,5.401484013E0
2.547706429E0,5.961744189E-1,5.265010357E0,5.662459850E0
2.549706162E0,-2.490045726E-1,5.269798756E0,5.068679810E0
2.551705895E0,-5.770202279E-1,5.200365067E0,4.517996788E0
2.553705628E0,-7.374366522E-1,5.111776829E0,3.074248791E0
2.555705361E0,-4.094209969E-1,5.154873848E0,1.680780888E0
2.557705094E0,-1.987248063E-1,5.286558628E0,1.242628574E0
2.559704827E0,2.274561077E-1,6.304125786E0,2.171607256E0
2.561704627E0,9.816526622E-2,6.560312748E0,2.889889717E0
2.563704360E0,9.816526622E-2,6.560312748E0,2.889889717E0
2.565704093E0,-4.644893110E-1,6.893116951E0,4.431802750E0
2.567703826E0,-1.369525194E0,6.905088425E0,6.047938347E0
2.569703559E0,-1.893871427E0,6.883540154E0,6.763826370E0
2.571703292E0,-2.724684715E0,6.749460697E0,7.565908432E0
2.573703025E0,-3.141288519E0,6.402290821E0,7.853221416E0
2.575702825E0,-3.234665155E0,6.280182838E0,7.671256542E0
2.577702625E0,-3.193962574E0,6.119766235E0,6.811711788E0
2.579702358E0,-2.808484316E0,6.067092419E0,4.690384388E0
2.581702091E0,-2.808484316E0,6.074275017E0,4.690384388E0
2.583701157E0,-2.777358770E0,6.074275017E0,4.367157459E0
2.585701323E0,-3.114951611E0,6.316096783E0,4.271386147E0
2.587701056E0,-3.126922846E0,6.378347874E0,4.268991947E0
2.589700789E0,-2.516382933E0,6.172440529E0,4.223500729E0
2.591700589E0,-1.771763325E0,5.918647289E0,4.498842239E0
2.593700389E0,-1.508393168E0,5.748653889E0,4.683201313E0
2.595700122E0,-1.055875182E0,5.399089813E0,4.798126698E0
2.597699855E0,-7.446194887E-1,5.226701736E0,4.649681568E0
2.599699588E0,-2.968900800E-1,5.193181992E0,4.245049000E0
2.601699321E0,-2.513988614E-1,5.312895775E0,4.271386147E0
2.603699054E0,-2.825244367E-1,5.406272411E0,4.465322495E0
2.605698787E0,-3.136500120E-1,5.514014721E0,4.862771988E0
2.607698587E0,-4.549122155E-1,5.856396198E0,6.184412003E0
2.609698320E0,-9.433442950E-1,6.227508545E0,8.020820618E0
2.611698053E0,-1.355159521E0,6.402290821E0,9.047964096E0
2.613697786E0,-1.829225898E0,6.572284222E0,9.615407944E0
2.615697519E0,-1.673598051E0,6.081458092E0,9.605830193E0
2.617697252E0,-1.855562925E0,5.751048088E0,9.830892563E0
2.619696985E0,-2.672010660E0,4.606584549E0,7.508445740E0
2.621696718E0,-2.672010660E0,4.606584549E0,7.508445740E0
2.623696918E0,-2.626519442E0,4.300117493E0,6.478907585E0
2.625696651E0,-2.054287672E0,3.445361376E0,5.229096413E0
2.627696384E0,-1.527547359E0,2.944957972E0,5.006428719E0
2.629696117E0,-4.836435020E-1,2.518777132E0,4.438985348E0
2.631695850E0,1.268965602E-1,3.138894320E0,2.083019018E0
2.633695583E0,4.118152559E-1,3.510006905E0,1.149251938E0
2.635695316E0,8.930644989E-1,3.909850836E0,8.858816624E-1
2.637695049E0,9.672870040E-1,4.051113129E0,1.968093872E0
2.639694849E0,9.313728809E-1,3.897879362E0,5.293741703E0
2.641694549E0,9.313728809E-1,3.897879362E0,5.293741703E0
2.643694182E0,7.757450342E-1,3.960130453E0,6.009629726E0
2.645693915E0,5.626545548E-1,4.000833035E0,6.579467297E0
2.647693648E0,5.985686928E-2,3.948159218E0,7.376760483E0
2.649693381E0,-5.411061049E-1,4.041535854E0,7.510839939E0
2.651693114E0,-8.858816624E-1,4.178009510E0,7.276201248E0
2.653692847E0,-1.426987767E0,4.137306690E0,6.581861496E0
2.655692647E0,-1.891477108E0,4.199557781E0,6.002447128E0
2.657692380E0,-1.984853864E0,4.252232075E0,5.645699978E0
2.659692113E0,-1.649655342E0,4.436591148E0,4.611373425E0
2.661691846E0,-1.537124395E0,4.477293968E0,4.431802750E0
2.663691579E0,-1.537124395E0,4.477293968E0,4.431802750E0
2.665691312E0,-1.436564922E0,4.673624516E0,4.106181145E0
2.667691045E0,-1.527547359E0,4.992063046E0,3.651269197E0
2.669690845E0,-1.479661822E0,5.095016956E0,3.495641232E0
2.671690645E0,-1.235445857E0,5.142902374E0,3.682394743E0
2.673690378E0,-8.978530765E-1,5.068679810E0,4.477293968E0
2.675690111E0,-7.637736797E-1,5.104593754E0,4.927417755E0
2.677689844E0,-3.878725171E-1,5.109382629E0,5.631334305E0
2.679689577E0,1.628106833E-1,5.147690773E0,6.495667458E0
2.681689310E0,1.628106833E-1,5.147690773E0,6.495667458E0
2.683688643E0,2.059076279E-1,5.209941864E0,6.560312748E0
2.685688443E0,2.633702382E-2,5.530774593E0,6.318490982E0
2.687688176E0,-1.292908341E-1,5.703162670E0,6.143709183E0
2.689687909E0,-3.663240373E-1,5.810904980E0,5.944984436E0
2.691687642E0,-3.375927508E-1,5.693585396E0,6.035966873E0
2.693687375E0,-2.801301479E-1,5.727105141E0,5.964138508E0
2.695687108E0,-4.046324492E-1,6.004841328E0,5.676825523E0
2.697686841E0,-4.884320498E-1,6.225114346E0,5.403878212E0
2.699686574E0,-6.344828010E-1,6.450176239E0,5.379935265E0
2.701686407E0,-6.344828010E-1,6.450176239E0,5.379935265E0
2.703686273E0,-5.435003638E-1,6.263422966E0,5.693585396E0
2.705686039E0,-4.166038036E-1,5.976109982E0,6.186806202E0
2.707685805E0,-1.723877788E-1,5.384724140E0,7.230710030E0
2.709685571E0,-1.723877788E-1,5.399089813E0,7.676044941E0
2.711685537E0,-4.836435020E-1,5.564294815E0,7.604216576E0
2.713685303E0,-9.768640995E-1,5.990475655E0,7.067899227E0
2.715685069E0,-1.003201127E0,6.249057293E0,6.804529190E0
2.717684902E0,-1.096577883E0,6.337645531E0,6.567495823E0
2.719684668E0,-1.247417212E0,6.316096783E0,6.229903221E0
2.721684434E0,-1.247417212E0,6.316096783E0,6.229903221E0
2.723684500E0,-1.338399649E0,6.541158676E0,5.992869854E0
2.725684266E0,-1.922602654E0,7.285778046E0,4.989668846E0
2.727684032E0,-2.008796453E0,7.498868465E0,4.565882206E0
2.729683798E0,-2.135693073E0,7.980117798E0,4.359974384E0
2.731683564E0,-2.011190891E0,7.980117798E0,3.950553417E0
2.733683397E0,-1.194743156E0,7.058321953E0,4.812492371E0
2.735683163E0,1.209108829E0,4.781366825E0,9.459779739E0
2.737682929E0,2.597788095E0,3.287339211E0,1.367849159E1
2.739682695E0,1.587404251E0,2.525959969E0,1.345821857E1
2.741682461E0,1.587404251E0,2.525959969E0,1.345821857E1
2.743682227E0,8.667274714E-1,2.695953369E0,1.195700836E1
2.745681993E0,1.316851079E-1,2.842004299E0,1.029298782E1
2.747681826E0,-1.192348838E0,3.313676357E0,7.103813171E0
2.749681659E0,-2.272166729E0,3.979284763E0,4.819674969E0
2.751681425E0,-2.655250788E0,4.201952457E0,4.120546818E0
2.753681191E0,-3.160442829E0,4.525179386E0,3.596200705E0
2.755680957E0,-3.660846233E0,5.039948463E0,3.866753817E0
2.757680723E0,-3.826051235E0,5.260221958E0,4.206740856E0
2.759680489E0,-3.174808502E0,5.827664852E0,6.601015568E0
2.761680255E0,-2.899466753E0,5.918647289E0,7.197190285E0
2.763680055E0,-2.899466753E0,5.918647289E0,7.197190285E0
2.765679788E0,-2.458920240E0,6.100612164E0,8.111803055E0
2.767679521E0,-2.154847383E0,6.234691620E0,8.566715240E0
2.769679254E0,-2.032739401E0,6.237085819E0,8.664880753E0
2.771678787E0,-1.841197371E0,6.136526108E0,8.679245949E0
2.773678520E0,-1.738243461E0,6.052726746E0,8.442213058E0
2.775678253E0,-1.702329397E0,5.995264053E0,8.255459785E0
2.777677986E0,-1.671203852E0,5.868367672E0,7.929838181E0
2.779677786E0,-1.881899953E0,5.837242126E0,7.371972084E0
2.781677519E0,-1.881899953E0,5.837242126E0,7.371972084E0
2.783677519E0,-1.932179809E0,5.863578796E0,7.221132755E0
2.785677252E0,-1.987248063E0,5.954561234E0,7.039167881E0
2.787676985E0,-1.996825218E0,6.016812801E0,6.996070862E0
2.789676718E0,-1.980065227E0,6.179623127E0,6.972128391E0
2.791676451E0,-1.939362645E0,6.337645531E0,6.976916790E0
2.793676184E0,-1.896265626E0,6.419050694E0,6.986494064E0
2.795675984E0,-1.812466025E0,6.560312748E0,7.053533554E0
2.797675717E0,-1.707117915E0,6.653689861E0,7.146910191E0
2.799675450E0,-1.664021015E0,6.730306625E0,7.158881664E0
2.801675150E0,-1.649655342E0,6.730306625E0,7.137333393E0
2.803674883E0,-1.649655342E0,6.737489223E0,7.087053299E0
2.805674416E0,-1.565855742E0,6.737489223E0,7.015225410E0
2.807674149E0,-1.395862222E0,6.696786404E0,6.907482624E0
2.809673882E0,-1.283331275E0,6.682421207E0,6.895511627E0
2.811673682E0,-1.132491946E0,6.627352715E0,6.869174480E0
2.813673415E0,-9.457385540E-1,6.567495823E0,6.859597206E0
2.815673148E0,-8.236305118E-1,6.519610405E0,6.883540154E0
2.817672881E0,-4.477293789E-1,6.478907585E0,6.993676662E0
2.819672614E0,2.849186957E-1,6.890722752E0,7.216344357E0
2.821672347E0,2.849186957E-1,6.890722752E0,7.216344357E0
2.823671647E0,2.370332032E-1,7.046350956E0,7.199584484E0
2.825671447E0,4.788549617E-3,7.283383846E0,7.242681503E0
2.827671247E0,-1.053480953E-1,7.340846539E0,7.357606411E0
2.829670980E0,-4.501236677E-1,7.333663940E0,7.666468143E0
2.831670713E0,-7.637736797E-1,7.168458939E0,7.929838181E0
2.833670446E0,-8.810931444E-1,7.036773682E0,8.035185814E0
2.835670179E0,-1.012778282E0,6.646506786E0,8.209968567E0
2.837669912E0,-1.027143836E0,6.167652130E0,8.329682350E0
2.839669645E0,-1.158828974E0,5.502043724E0,8.176448822E0
2.841669445E0,-1.158828974E0,5.502043724E0,8.176448822E0
2.843668678E0,-1.185166001E0,5.427821159E0,8.085466385E0
2.845668411E0,-1.237840056E0,5.360781193E0,8.028003693E0
2.847668144E0,-1.345582485E0,5.281770229E0,8.016032219E0
2.849667877E0,-1.240234375E0,5.346415520E0,7.913078308E0
2.851667610E0,-1.127703428E0,5.396695614E0,7.977723598E0
2.853667343E0,-1.027143836E0,5.492466450E0,8.197997093E0
2.855667076E0,-1.173194647E0,5.509226322E0,8.336864471E0
2.857666876E0,-1.223474383E0,5.552323341E0,8.389538765E0
2.859666609E0,-1.644866824E0,5.521197796E0,8.499675751E0
2.861666342E0,-1.661626697E0,5.470917702E0,8.482915878E0
2.863666142E0,-1.661626697E0,5.470917702E0,8.482915878E0
2.865666075E0,-1.656838179E0,5.353598595E0,8.403904915E0
2.867665808E0,-1.625712633E0,5.157268047E0,8.193208694E0
2.869665541E0,-1.503604531E0,5.073468208E0,8.059128761E0
2.871665274E0,-1.314456820E0,4.913052082E0,7.992089272E0
2.873665074E0,-1.405439258E0,4.654470444E0,7.891529560E0
2.875664807E0,-1.465296149E0,4.510813713E0,7.843644142E0
2.877664540E0,-1.505998850E0,4.237866402E0,7.798152924E0
2.879664273E0,-1.407833576E0,3.881119490E0,7.460560322E0
2.881664006E0,-1.230657220E0,3.876330853E0,7.407886028E0
2.883664006E0,-1.230657220E0,3.876330853E0,7.407886028E0
2.885663739E0,-9.050358534E-1,3.938581944E0,7.443800449E0
2.887663472E0,-7.733507752E-1,3.967313290E0,7.453377247E0
2.889663272E0,-5.578660369E-1,4.003227711E0,7.357606411E0
2.891663005E0,-5.123748183E-1,4.034353256E0,7.280989647E0
2.893662738E0,-5.913859010E-1,3.998438835E0,7.300143719E0
2.895662471E0,-8.451790214E-1,3.881119490E0,7.316903591E0
2.897662204E0,-9.816526771E-1,3.782954216E0,7.314509392E0
2.899661937E0,-1.498816013E0,3.888302326E0,7.252258301E0
2.901662570E0,-1.498816013E0,3.888302326E0,7.252258301E0
2.903662303E0,-1.539518714E0,3.986467600E0,7.185218811E0
2.905662103E0,-1.561067224E0,4.144489765E0,7.185218811E0
2.907661836E0,-1.446141958E0,4.254626274E0,7.357606411E0
2.909661569E0,-1.340793848E0,4.333637238E0,7.343240738E0
2.911661302E0,-1.103760719E0,4.419831276E0,7.271412373E0
2.913661035E0,-9.864411950E-1,4.386311531E0,7.549148560E0
2.915660768E0,-9.624984860E-1,4.410254002E0,7.620976925E0
2.917660501E0,-1.087000728E0,4.424619675E0,7.599428177E0
2.919660301E0,-1.144463301E0,4.589824677E0,7.977723598E0
2.921660134E0,-1.144463301E0,4.589824677E0,7.977723598E0
2.923659800E0,-1.149251938E0,4.623344421E0,8.075888634E0
2.925659533E0,-1.192348838E0,4.625739098E0,8.526012421E0
2.927659266E0,-1.185166001E0,4.678412914E0,8.801354408E0
2.929658999E0,-1.077423692E0,4.874743462E0,9.055147171E0
2.931658732E0,-9.002473354E-1,5.059102535E0,9.182044029E0
2.933658465E0,-7.781392932E-1,5.221913338E0,9.311334610E0
2.935658265E0,-5.267404318E-1,5.569083214E0,9.488511086E0
2.937657998E0,-3.543526828E-1,5.789356709E0,9.335277557E0
2.939657731E0,-1.915419847E-1,6.155680656E0,9.318517685E0
2.941657464E0,-1.915419847E-1,6.155680656E0,9.318517685E0
2.943657930E0,-2.298503816E-1,6.201171875E0,9.306546211E0
2.945656796E0,-2.513988614E-1,6.220325947E0,9.385557175E0
2.947656529E0,-2.681587934E-1,6.091034889E0,9.225140572E0
2.949656262E0,-2.873129845E-1,5.794145107E0,8.830085754E0
2.951656062E0,-2.801301479E-1,5.695979595E0,8.746285439E0
2.953655795E0,-1.508393139E-1,5.621757030E0,8.918673515E0
2.955655528E0,-9.816526622E-2,5.435003757E0,8.619389534E0
2.957655261E0,-1.077423692E-1,5.387118340E0,8.504464149E0
2.959654994E0,-1.508393139E-1,5.291347504E0,8.205180168E0
2.961653827E0,-1.508393139E-1,5.291347504E0,8.205180168E0
2.963653560E0,-1.915419847E-1,5.279376030E0,8.257853508E0
2.965653293E0,-2.466102988E-1,5.286558628E0,8.391933441E0
2.967653093E0,-3.304099143E-1,5.214730740E0,8.353624344E0
2.969652826E0,-3.830839694E-1,5.190787792E0,8.353624344E0
2.971652559E0,-4.932205975E-1,5.116565228E0,8.348835945E0
2.973652992E0,-6.105400920E-1,5.114171028E0,8.274613380E0
2.975652725E0,-6.680026650E-1,5.085439682E0,8.116591454E0
2.977652458E0,-7.206767201E-1,5.118959427E0,7.963357925E0
2.979652191E0,-8.810931444E-1,5.267404556E0,7.628159523E0
2.981651924E0,-8.810931444E-1,5.267404556E0,7.628159523E0
2.983651724E0,-9.553156495E-1,5.291347504E0,7.606611252E0
2.985651457E0,-9.984126091E-1,5.461340904E0,7.750267506E0
2.987651923E0,-1.106154919E0,5.578660488E0,7.824490070E0
2.989651656E0,-1.297696948E0,5.815693378E0,7.982511997E0
2.991651389E0,-1.419804931E0,5.985687256E0,8.071100235E0
2.993651122E0,-1.589798450E0,6.040755272E0,8.202785492E0
2.995650855E0,-1.711906433E0,6.045543671E0,8.092648506E0
2.997650655E0,-1.877111435E0,6.014418125E0,8.162082672E0
2.999650455E0,-2.547508478E0,6.004841328E0,9.213169098E0
3.001650188E0,-2.672010660E0,5.995264053E0,9.313729286E0
3.003649354E0,-2.672010660E0,5.995264053E0,9.313729286E0
3.005649954E0,-3.079037428E0,5.913858891E0,9.785401344E0
3.007649687E0,-3.519583941E0,5.755836487E0,1.065212822E1
3.009649420E0,-3.557892323E0,5.748653889E0,1.091549873E1
3.011649153E0,-3.198751211E0,5.772596359E0,1.053241444E1
3.013648953E0,-2.717501879E0,5.691191196E0,9.761458397E0
3.015648686E0,-2.614548206E0,5.648094177E0,9.579493523E0
3.017648419E0,-2.162030220E0,5.676825523E0,8.724737167E0
3.019648152E0,-1.549095750E0,5.456552505E0,6.900300026E0
3.021647885E0,-1.549095750E0,5.456552505E0,6.900300026E0
3.023647618E0,-1.482056141E0,5.358386993E0,6.486090660E0
3.025647351E0,-1.395862222E0,5.157268047E0,6.050332546E0
3.027647084E0,-1.266571403E0,5.097411156E0,5.734288216E0
3.029646884E0,-1.027143836E0,5.018400192E0,5.025582790E0
3.031646617E0,-7.494080067E-1,4.939388752E0,4.000833035E0
3.033645650E0,-6.416656375E-1,4.881926537E0,3.586623669E0
3.035645383E0,-6.177229285E-1,4.764606953E0,2.959323645E0
3.037645116E0,-8.116591573E-1,4.719115734E0,2.425400496E0
3.039644516E0,-6.368771195E-1,4.826858044E0,1.194743156E0
3.041644249E0,-6.368771195E-1,4.826858044E0,1.194743156E0
3.043644015E0,-5.051919818E-1,4.893897533E0,9.481328130E-1
3.045643815E0,-3.232271075E-1,4.999245644E0,6.967339516E-1
3.047642815E0,7.661679387E-2,5.298530102E0,2.178790122E-1
3.049642548E0,4.070267081E-1,5.810904980E0,-1.699935049E-1
3.051642281E0,5.650488734E-1,6.119766235E0,-3.854782581E-1
3.053642014E0,7.709565163E-1,6.617775440E0,-6.967339516E-1
3.055641747E0,8.523618579E-1,7.017619610E0,-7.709565163E-1
3.057641480E0,9.170072675E-1,7.225921154E0,-5.722316504E-1
3.059641213E0,-1.484450400E-1,7.518023014E0,5.051919818E-1
3.061641013E0,-1.484450400E-1,7.518023014E0,5.051919818E-1
3.063640746E0,-5.243461728E-1,7.486897469E0,9.241901040E-1
3.065640479E0,-1.410227895E0,7.561120033E0,1.884294271E0
3.067640212E0,-2.071047783E0,7.898712635E0,3.045517445E0
3.069639945E0,-2.281744003E0,8.128562927E0,3.658451796E0
3.071639678E0,-2.585816860E0,8.518829346E0,4.850800991E0
3.073639411E0,-2.954535007E0,8.684034348E0,5.992869854E0
3.075639211E0,-3.208328247E0,8.643332481E0,6.536370277E0
3.077639011E0,-3.804502726E0,8.420664787E0,7.439012051E0
3.079638744E0,-5.365570068E0,7.927443981E0,8.777411461E0
3.081638477E0,-5.365570068E0,7.927443981E0,8.777411461E0
3.083638210E0,-5.791750908E0,7.800547123E0,8.937828064E0
3.085637943E0,-6.246663094E0,7.685622215E0,8.985713005E0
3.087637676E0,-6.960156918E0,7.704776287E0,8.815719604E0
3.089637409E0,-7.350423813E0,7.829278469E0,8.686429024E0
3.091637209E0,-7.391126156E0,7.898712635E0,8.688823700E0
3.093637009E0,-7.211555958E0,7.958569527E0,8.573898315E0
3.095636742E0,-7.144515991E0,7.841249943E0,7.786181450E0
3.097636475E0,-7.094236374E0,7.834067345E0,7.410280704E0
3.099636541E0,-6.565101624E0,8.540378571E0,6.838048935E0
3.101636274E0,-6.390319347E0,8.607418060E0,6.885934353E0
3.103635507E0,-6.390319347E0,8.607418060E0,6.885934353E0
3.105635240E0,-6.057515144E0,8.566715240E0,6.689603806E0
3.107635040E0,-5.906675816E0,8.394327164E0,5.619362831E0
3.109634806E0,-5.753442287E0,8.363202095E0,5.346415520E0
3.111634572E0,-5.425426483E0,8.466156006E0,5.253038883E0
3.113634338E0,-5.284164429E0,8.473338127E0,4.829252243E0
3.115634104E0,-5.166844845E0,8.451789856E0,4.635315895E0
3.117633870E0,-4.743058205E0,8.427846909E0,4.582642078E0
3.119633636E0,-4.549122334E0,8.353624344E0,2.482862949E0
3.121633402E0,-4.549122334E0,8.353624344E0,2.482862949E0
3.123633235E0,-4.367157459E0,8.502069473E0,2.516382933E0
3.125633001E0,-4.089421272E0,8.719948769E0,2.798907280E0
3.127632767E0,-3.996044636E0,8.660092354E0,2.830032825E0
3.129632533E0,-4.134912491E0,8.360807419E0,2.006402254E0
3.131632299E0,-4.137306690E0,8.396721840E0,1.582615614E0
3.133632065E0,-4.089421272E0,8.497281075E0,1.592192769E0
3.135631831E0,-4.036747456E0,8.583475113E0,1.541913033E0
3.137631597E0,-3.972101927E0,8.607418060E0,1.764580488E0
3.139631430E0,-4.357580185E0,8.279402733E0,4.046324492E-1
3.141631196E0,-4.357580185E0,8.279402733E0,4.046324492E-1
3.143630962E0,-4.276175022E0,8.324893951E0,4.285751879E-1
3.145630728E0,-4.166038036E0,8.408693314E0,6.488484740E-1
3.147630494E0,-4.012804508E0,8.487704277E0,1.137280583E0
3.149630260E0,-3.931399345E0,8.530800819E0,1.580221415E0
3.151630026E0,-4.019987583E0,8.447001457E0,1.649655342E0
3.153218908E0,-4.295329094E0,8.499675751E0,1.534730196E0
3.155218674E0,-4.221106529E0,8.736708641E0,2.020767927E0
3.157218440E0,-4.862771988E0,8.779806137E0,3.275367975E0
3.159218206E0,-4.862771988E0,8.779806137E0,3.275367975E0
3.161217772E0,-4.862771988E0,8.779806137E0,3.275367975E0
3.163217538E0,-5.075862408E0,8.870788574E0,3.474092722E0
3.165217304E0,-5.209941864E0,9.143735886E0,3.342407703E0
3.167217104E0,-5.281770229E0,9.265843391E0,3.177202702E0
3.169216904E0,-5.511620522E0,9.450202942E0,2.779752970E0
3.171216637E0,-5.616968632E0,9.603436470E0,2.516382933E0
3.173216370E0,-5.870761871E0,9.620196342E0,2.430188894E0
3.175216103E0,-6.117372036E0,9.526819229E0,2.444554567E0
3.177215836E0,-6.076669693E0,9.555550575E0,2.808484316E0
3.179216469E0,-6.076669693E0,9.555550575E0,2.808484316E0
3.181216202E0,-5.985687256E0,9.694418907E0,3.112557173E0
3.183216002E0,-5.949772835E0,9.732727051E0,3.249030828E0
3.185215735E0,-5.870761871E0,9.830892563E0,3.560286522E0
3.187215468E0,-5.751048088E0,9.869200706E0,3.890696526E0
3.189215201E0,-5.715134144E0,9.871595383E0,3.976890564E0
3.191214934E0,-5.607391834E0,9.854835510E0,4.058295727E0
3.193214667E0,-5.511620522E0,9.739910126E0,4.146883965E0
3.195214400E0,-5.485283375E0,9.670475960E0,4.216318130E0
3.197214133E0,-5.150084972E0,9.577098846E0,4.556304932E0
3.199213933E0,-5.008822918E0,9.514847755E0,4.486870766E0
3.201213666E0,-5.008822918E0,9.514847755E0,4.486870766E0
3.203213399E0,-4.733481407E0,9.383162498E0,4.295329094E0
3.205213132E0,-4.585036278E0,9.349642754E0,4.065478802E0
3.207212432E0,-4.510813713E0,9.366402626E0,3.950553417E0
3.209212165E0,-4.407859802E0,9.435836792E0,3.648874760E0
3.211212831E0,-4.237866402E0,9.555550575E0,3.325647593E0
3.213212564E0,-4.070267200E0,9.663292885E0,3.167625666E0
3.215212364E0,-3.639297724E0,9.905115128E0,2.877918243E0
3.217212097E0,-3.220299721E0,1.017806244E1,2.178790092E0
3.219211830E0,-3.220299721E0,1.017806244E1,2.178790092E0
3.221211996E0,-3.181991339E0,1.016609097E1,2.085413456E0
3.223211729E0,-3.102980137E0,1.008708000E1,1.505998850E0
3.225211462E0,-2.997632027E0,1.003919411E1,1.242628574E0
3.227211195E0,-2.636096478E0,9.945817947E0,1.168406129E0
3.229210928E0,-2.142875910E0,9.830892563E0,1.716695070E0
3.231210728E0,-1.917814136E0,9.735121727E0,1.908236980E0
3.233210461E0,-1.450930476E0,9.613013268E0,2.444554567E0
3.235210194E0,-1.007989645E0,9.550762177E0,2.916226625E0
3.237209927E0,-5.770202279E-1,9.478934288E0,3.282550812E0
3.239208760E0,-5.650488734E-1,9.478934288E0,3.282550812E0
3.241208226E0,-6.536370516E-1,9.440625191E0,3.313676357E0
3.243207959E0,-8.236305118E-1,9.385557175E0,3.330436230E0
3.245207759E0,-1.108549237E0,9.306546211E0,3.579440832E0
3.247207559E0,-1.288119793E0,9.306546211E0,4.036747456E0
3.249207292E0,-1.405439258E0,9.270631790E0,4.199557781E0
3.251207025E0,-1.517970204E0,9.148524284E0,4.561093330E0
3.253206758E0,-1.470084786E0,9.205986977E0,5.023188591E0
3.255206491E0,-1.412622094E0,9.287391663E0,5.145296574E0
3.257206224E0,-1.082212210E0,9.548367500E0,5.413455486E0
3.259205957E0,-1.082212210E0,9.548367500E0,5.413455486E0
3.261206057E0,-1.003201127E0,9.488511086E0,5.458946705E0
3.263205790E0,-9.098244309E-1,9.057541847E0,5.502043724E0
3.265205523E0,-9.433442950E-1,8.485309601E0,5.435003757E0
3.267205689E0,-9.241901040E-1,8.286584854E0,5.241067410E0
3.269205422E0,-5.291347504E-1,8.171659470E0,4.822069645E0
3.271205155E0,-2.274561077E-1,8.377567291E0,4.664047241E0
3.273204888E0,2.944957912E-1,8.547560692E0,4.594613552E0
3.275204621E0,5.099805593E-1,8.911490440E0,4.563488007E0
3.277204421E0,4.668835998E-1,1.002243423E1,4.484476566E0
3.279204154E0,4.668835998E-1,1.002243423E1,4.484476566E0
3.281204120E0,3.447755575E-1,1.028101635E1,4.482082367E0
3.283203853E0,2.490045726E-1,1.045579815E1,4.326454639E0
3.285203586E0,7.182824612E-2,1.063776302E1,3.972101927E0
3.287203319E0,-3.088614643E-1,1.073353386E1,3.759011507E0
3.289203052E0,-5.051919818E-1,1.071198559E1,3.586623669E0
3.291202785E0,-9.337671995E-1,1.062100315E1,3.351984739E0
3.293202585E0,-1.156434774E0,1.038397026E1,2.858764172E0
3.295202318E0,-1.194743156E0,1.022355366E1,2.712713242E0
3.297202051E0,-1.568249941E0,9.720755577E0,2.722290516E0
3.299201784E0,-1.568249941E0,9.720755577E0,2.722290516E0
3.301201784E0,-1.568249941E0,9.720755577E0,2.722290516E0
3.303201517E0,-1.568249941E0,9.701601982E0,2.734261751E0
3.305201250E0,-1.300091267E0,9.603436470E0,2.607365370E0
3.307200983E0,-1.101366401E0,9.574705124E0,2.473285913E0
3.309200783E0,-6.105400920E-1,9.581888199E0,2.284138203E0
3.311200516E0,-6.225114316E-2,9.577098846E0,2.269772530E0
3.313200249E0,2.250618339E-1,9.589070320E0,2.293715239E0
3.315199982E0,7.494080067E-1,9.644139290E0,2.358360767E0
3.317199715E0,1.055875182E0,9.696812630E0,2.463708878E0
3.319199448E0,1.055875182E0,9.696812630E0,2.463708878E0
3.321198881E0,1.039115310E0,9.708784103E0,2.549902678E0
3.323198681E0,9.864411950E-1,9.739910126E0,2.724684715E0
3.325198481E0,9.577099085E-1,9.771035194E0,2.827638626E0
3.327198214E0,8.834874034E-1,9.866806030E0,3.086220264E0
3.329197947E0,8.451790214E-1,9.953000069E0,3.409447432E0
3.331197680E0,8.619389534E-1,9.986519814E0,3.593806505E0
3.333197413E0,1.043903828E0,1.005356026E1,3.936187744E0
3.335197146E0,1.340793848E0,1.009186840E1,4.312088966E0
3.337196879E0,1.683175206E0,1.005116558E1,4.982485771E0
3.339196679E0,1.683175206E0,1.005116558E1,4.982485771E0
3.341196212E0,1.683175206E0,1.000327969E1,5.171633720E0
3.343195978E0,1.675992370E0,9.950606346E0,5.341627121E0
3.345195744E0,1.699935079E0,9.850046158E0,5.667248249E0
3.347195510E0,1.570644259E0,9.759063721E0,5.904281616E0
3.349195276E0,1.436564922E0,9.696812630E0,6.009629726E0
3.351195042E0,1.036720991E0,9.550762177E0,6.234691620E0
3.353194808E0,7.206767201E-1,9.426259995E0,6.433416367E0
3.355194641E0,6.057515144E-1,9.383162498E0,6.522004604E0
3.357194507E0,3.351984918E-2,9.263449669E0,6.713546753E0
3.359194373E0,3.351984918E-2,9.263449669E0,6.713546753E0
3.361193839E0,-9.337671846E-2,9.258660316E0,6.744672298E0
3.363193705E0,-2.035133541E-1,9.246688843E0,6.802134514E0
3.365193571E0,-2.011190802E-1,9.280209541E0,6.859597206E0
3.367193437E0,-1.915419847E-1,9.277814865E0,7.055927753E0
3.369193303E0,-1.580221355E-1,9.220352173E0,7.278595448E0
3.371193236E0,-1.580221355E-1,9.153312683E0,7.383943558E0
3.373192802E0,-1.532335877E-1,8.980924606E0,7.609005451E0
3.375192735E0,-1.292908341E-1,8.834874153E0,7.824490070E0
3.377192668E0,-4.836435020E-1,8.703188896E0,8.152505875E0
3.379192601E0,-4.836435020E-1,8.703188896E0,8.152505875E0
3.381192534E0,-5.961744189E-1,8.707977295E0,8.162082672E0
3.383192467E0,-7.039167881E-1,8.715160370E0,8.150111198E0
3.385192400E0,-9.505270720E-1,8.700794220E0,8.035185814E0
3.387192400E0,-1.125309110E0,8.597841263E0,7.855615616E0
3.389192366E0,-1.151646137E0,8.547560692E0,7.783787251E0
3.391192332E0,-1.103760719E0,8.518829346E0,7.752661705E0
3.393192298E0,-8.475732803E-1,8.442213058E0,7.676044941E0
3.395192264E0,-6.751855016E-1,8.370385170E0,7.625765324E0
3.397192230E0,2.394274808E-3,7.948992252E0,7.455771923E0
3.399192196E0,1.245022863E-1,7.814912796E0,7.326480865E0
3.401192429E0,1.245022863E-1,7.814912796E0,7.326480865E0
3.403192429E0,2.274561077E-1,7.575485706E0,6.998465061E0
3.405192395E0,1.699935049E-1,7.367183685E0,6.665660858E0
3.407192361E0,9.337671846E-2,7.288172722E0,6.495667458E0
3.409192327E0,-1.268965602E-1,7.106207848E0,6.167652130E0
3.411192293E0,-4.166038036E-1,6.895511627E0,5.870761871E0
3.413192259E0,-5.506832004E-1,6.811711788E0,5.741470814E0
3.415192225E0,-6.656084061E-1,6.732700825E0,5.573871613E0
3.417192158E0,-4.357580245E-1,6.955368519E0,5.535563469E0
3.419192091E0,-4.357580245E-1,6.955368519E0,5.535563469E0
3.421192824E0,-3.184385598E-1,7.031985283E0,5.569083214E0
3.423192757E0,-7.661679387E-2,7.178035736E0,5.664854050E0
3.425192690E0,3.112557158E-2,7.235498428E0,5.727105141E0
3.427192623E0,1.268965602E-1,7.352818012E0,5.877944469E0
3.429192556E0,7.661679387E-2,7.431828976E0,5.971321583E0
3.431192489E0,9.577099234E-3,7.446194649E0,5.988081455E0
3.433192789E0,-1.939362586E-1,7.424646378E0,6.007235527E0
3.435192655E0,-4.453351200E-1,7.348029613E0,5.995264053E0
3.437192521E0,-7.805336118E-1,7.328875065E0,6.012023926E0
3.439192387E0,-7.805336118E-1,7.328875065E0,6.012023926E0
3.441192253E0,-8.571503758E-1,7.371972084E0,6.043149471E0
3.443192119E0,-9.337671995E-1,7.429434776E0,6.052726746E0
3.445191985E0,-1.036720991E0,7.462954521E0,6.170046329E0
3.447191851E0,-1.146857619E0,7.587456703E0,6.340039730E0
3.449191751E0,-1.206714511E0,7.688016415E0,6.359193802E0
3.451191584E0,-1.374313712E0,7.913078308E0,6.383136749E0
3.453191417E0,-1.486844659E0,8.028003693E0,6.457359314E0
3.455191250E0,-1.659232497E0,8.023215294E0,6.517216206E0
3.457191083E0,-1.623318315E0,7.886741161E0,6.725517750E0
3.459190916E0,-1.623318315E0,7.886741161E0,6.725517750E0
3.461190749E0,-1.498816013E0,7.889135361E0,6.718335152E0
3.463190582E0,-1.216291547E0,7.984906673E0,6.682421207E0
3.465190448E0,-1.063058019E0,8.044763565E0,6.680026531E0
3.467190248E0,-7.422251701E-1,8.162082672E0,6.651295185E0
3.469190048E0,-3.902668059E-1,8.260248184E0,6.660872459E0
3.471189848E0,-1.795706153E-1,8.332076073E0,6.694392204E0
3.473189648E0,2.490045726E-1,8.552350044E0,6.802134514E0
3.475189448E0,6.823683381E-1,8.806142807E0,6.826077461E0
3.477189248E0,1.252205729E0,9.067118645E0,6.416656494E0
3.479189048E0,1.252205729E0,9.067118645E0,6.416656494E0
3.481189581E0,1.352765322E0,9.100638390E0,6.210748672E0
3.483189314E0,1.470084786E0,9.122186661E0,5.980898380E0
3.485189047E0,1.716695070E0,9.186832428E0,5.540351868E0
3.487189047E0,1.822043180E0,9.253871918E0,5.068679810E0
3.489188780E0,1.814860344E0,9.273026466E0,4.738269806E0
3.491188513E0,1.671203852E0,9.354432106E0,4.015198708E0
3.493188246E0,1.431776285E0,9.488511086E0,3.356773376E0
3.495188046E0,1.252205729E0,9.545973778E0,3.110162973E0
3.497187846E0,2.274561077E-1,9.761458397E0,2.174001455E0
3.499187579E0,-5.746259540E-2,9.828497887E0,1.920208454E0
3.501187312E0,-5.746259540E-2,9.828497887E0,1.920208454E0
3.503187045E0,-4.836435020E-1,9.931451797E0,1.491633177E0
3.505186778E0,-7.685621977E-1,1.003440571E1,1.110943556E0
3.507186544E0,-9.002473354E-1,1.010623360E1,8.810931444E-1
3.509186277E0,-1.192348838E0,1.014214802E1,2.418217510E-1
3.511186077E0,-1.233051538E0,1.014454269E1,-4.453351200E-1
3.513185810E0,-1.175588965E0,1.014214802E1,-7.518022656E-1
3.515185543E0,-1.058269501E0,1.010862827E1,-1.204320192E0
3.517185276E0,-1.194743156E0,9.893143654E0,-1.743032098E0
3.519185009E0,-1.369525194E0,9.785401344E0,-1.845985889E0
3.521183942E0,-1.369525194E0,9.785401344E0,-1.845985889E0
3.523183675E0,-1.838803053E0,9.545973778E0,-1.946545362E0
3.525183408E0,-2.061470509E0,9.447808266E0,-1.960911036E0
3.527183208E0,-2.296109438E0,9.296969414E0,-1.891477108E0
3.529182941E0,-2.375120640E0,9.172467232E0,-1.594586968E0
3.531182674E0,-2.533142805E0,8.942616463E0,-1.350371003E0
3.533182407E0,-3.323253393E0,7.929838181E0,-7.948992252E-1
3.535182140E0,-4.343214512E0,6.589044094E0,-3.160442710E-1
3.537181873E0,-4.709538460E0,6.172440529E0,4.309694469E-2
3.539182473E0,-4.709538460E0,6.172440529E0,4.309694469E-2
3.541181073E0,-4.604190350E0,6.466936111E0,7.661679387E-2
3.543180873E0,-4.307300568E0,6.577073097E0,1.436564922E-1
3.545180606E0,-3.998438835E0,6.893116951E0,4.381522834E-1
3.547180072E0,-3.782954216E0,7.450983047E0,9.170072675E-1
3.549179805E0,-3.340013266E0,7.721536160E0,1.158828974E0
3.551179538E0,-2.626519442E0,8.360807419E0,1.845985889E0
3.553179271E0,-2.238646984E0,8.662486076E0,2.272166729E0
3.555179004E0,-1.403045058E0,9.155706406E0,3.189173937E0
3.557178737E0,7.087053657E-1,9.905115128E0,4.501236439E0
3.559178537E0,7.087053657E-1,9.905115128E0,4.501236439E0
3.561178270E0,1.079817891E0,1.001046276E1,4.510813713E0
3.563178003E0,1.501210332E0,1.019961071E1,4.297723293E0
3.565177736E0,1.575432777E0,1.026904488E1,4.161249638E0
3.567177436E0,1.436564922E0,1.037199879E1,3.881119490E0
3.569177169E0,1.048692346E0,1.043424988E1,3.581835032E0
3.571176902E0,7.948992252E-1,1.049171257E1,3.445361376E0
3.573176702E0,3.016786277E-1,1.060663700E1,3.359167576E0
3.575176502E0,1.245022863E-1,1.074790001E1,3.378321648E0
3.577176235E0,4.525179267E-1,1.092268181E1,3.895485163E0
3.579175968E0,4.525179267E-1,1.092268181E1,3.895485163E0
3.581176501E0,5.458946824E-1,1.095141315E1,4.151672363E0
3.583176234E0,6.296942830E-1,1.098972130E1,4.436591148E0
3.585175967E0,8.906702399E-1,1.107831001E1,4.893897533E0
3.587175700E0,1.079817891E0,1.105915546E1,5.229096413E0
3.589175500E0,1.079817891E0,1.095620155E1,5.399089813E0
3.591175300E0,1.113337755E0,1.076944828E1,5.638517380E0
3.593175033E0,1.043903828E0,1.045100975E1,5.808510780E0
3.595174766E0,9.385557175E-1,1.023313046E1,5.980898380E0
3.597174499E0,-9.768640995E-1,7.951386452E0,6.938608170E0
3.599173332E0,-9.768640995E-1,7.635342598E0,7.132544518E0
3.601173065E0,-1.163617611E0,7.635342598E0,7.132544518E0
3.603172798E0,-1.618529797E0,7.154093266E0,7.321692467E0
3.605172598E0,-1.814860344E0,6.794951916E0,7.245075703E0
3.607172331E0,-1.843591571E0,6.687209606E0,7.187613010E0
3.609172064E0,-1.850774407E0,6.584255695E0,7.173247337E0
3.611171797E0,-1.728666425E0,6.572284222E0,7.288172722E0
3.613171530E0,-1.556278586E0,6.533976078E0,7.537177086E0
3.615171263E0,-1.319245458E0,6.256239891E0,7.915472507E0
3.617170996E0,-2.092596292E0,6.047938347E0,7.271412373E0
3.619170729E0,-2.092596292E0,6.047938347E0,7.271412373E0
3.621170529E0,-2.214704275E0,6.126949310E0,6.914665699E0
3.623170262E0,-2.525959969E0,6.193988800E0,6.282577038E0
3.625169995E0,-2.612153769E0,6.246663094E0,5.930618763E0
3.627169728E0,-2.600182533E0,6.483695984E0,5.243461609E0
3.629169461E0,-2.571451187E0,6.658478260E0,4.755029678E0
3.631169194E0,-2.492439985E0,6.711152077E0,4.532361984E0
3.633168927E0,-2.360754967E0,6.900300026E0,4.048718929E0
3.635168660E0,-2.298503876E0,7.130150318E0,3.457332850E0
3.637168460E0,-1.618529797E0,7.594639778E0,2.494834423E0
3.639168193E0,-1.563461423E0,7.680833817E0,2.188367128E0
3.641168059E0,-1.563461423E0,7.757450581E0,1.822043180E0
3.643167792E0,-1.333611012E0,7.838855743E0,1.477267504E0
3.645167525E0,-1.189954638E0,8.013637543E0,9.672870040E-1
3.647167258E0,-1.144463301E0,8.075888634E0,7.230709791E-1
3.649166991E0,-1.034326673E0,8.245882034E0,1.556278616E-1
3.651166724E0,-9.744698405E-1,8.420664787E0,-3.782954216E-1
3.653166524E0,-9.361614585E-1,8.511647224E0,-6.512427330E-1
3.655166257E0,-6.225114465E-1,8.717555046E0,-1.711906433E0
3.657165990E0,5.530774593E-1,9.495694160E0,-4.541939259E0
3.659165756E0,5.530774593E-1,9.495694160E0,-4.541939259E0
3.661165189E0,5.530774593E-1,9.495694160E0,-4.541939259E0
3.663164922E0,1.242628574E0,9.847652435E0,-5.121353626E0
3.665164655E0,1.489238977E0,1.001285744E1,-5.300924301E0
3.667164455E0,1.771763325E0,1.025946712E1,-5.387118340E0
3.669164255E0,1.989642382E0,1.039354706E1,-5.291347504E0
3.671163988E0,2.080624819E0,1.039115238E1,-5.212336063E0
3.673163721E0,2.205127001E0,1.036002731E1,-4.970514297E0
3.675163454E0,2.286532402E0,1.034326744E1,-4.640104771E0
3.677163187E0,2.288926601E0,1.017327404E1,-3.945764780E0
3.679163820E0,2.288926601E0,1.017327404E1,-3.945764780E0
3.681163553E0,2.355966330E0,9.988914490E0,-3.397475958E0
3.683163353E0,2.420611858E0,9.883566856E0,-3.091008663E0
3.685163086E0,2.537931204E0,9.651321411E0,-2.348783493E0
3.687162819E0,2.851581335E0,9.210775375E0,-1.587404251E0
3.689162552E0,3.126922846E0,8.825297356E0,-1.273754239E0
3.691162285E0,3.404658794E0,8.195602417E0,-5.363175869E-1
3.693162018E0,3.483669758E0,7.759844780E0,3.447755575E-1
3.695161751E0,3.488458395E0,7.613793850E0,7.972934842E-1
3.697161484E0,3.629720688E0,7.460560322E0,2.502017260E0
3.699161284E0,3.629720688E0,7.458166122E0,2.923409462E0
3.701160884E0,3.720703125E0,7.458166122E0,2.923409462E0
3.703160617E0,3.991255999E0,7.450983047E0,3.699154615E0
3.705160350E0,4.419831276E0,7.561120033E0,4.379128456E0
3.707160083E0,4.697566986E0,7.697593689E0,4.692778587E0
3.709159816E0,5.346415520E0,8.085466385E0,5.281770229E0
3.711159549E0,6.059909344E0,8.576292038E0,5.849213123E0
3.713159282E0,6.452570438E0,8.846845627E0,6.143709183E0
3.715159082E0,7.283383846E0,9.409500122E0,6.797346115E0
3.717158815E0,8.854028702E0,1.034087276E1,8.312922478E0
3.719158548E0,8.854028702E0,1.034087276E1,8.312922478E0
3.721158581E0,9.261054993E0,1.056832886E1,8.746285439E0
3.723158314E0,1.002243423E1,1.102324104E1,9.605830193E0
3.725158047E0,1.035044956E1,1.122914886E1,1.002004051E1
3.727157780E0,1.084367085E1,1.156195259E1,1.080057335E1
3.729157513E0,1.101366425E1,1.173673534E1,1.139674854E1
3.731157313E0,1.105676079E1,1.175110054E1,1.159786701E1
3.733157046E0,1.063057995E1,1.161223316E1,1.178462029E1
3.735156779E0,1.023791885E1,1.125788021E1,1.172236919E1
3.737156512E0,6.586649895E0,9.909903526E0,9.917086601E0
3.739155345E0,6.586649895E0,9.909903526E0,9.917086601E0
3.741154911E0,6.586649895E0,9.495694160E0,9.917086601E0
3.743154644E0,4.568276405E0,9.069513321E0,8.854028702E0
3.745154444E0,2.810878515E0,8.221940041E0,7.743084908E0
3.747154244E0,2.116539001E0,7.819701672E0,7.154093266E0
3.749153977E0,9.529213905E-1,7.144515991E0,6.071880817E0
3.751153710E0,1.340793967E-1,6.684815407E0,5.265010357E0
3.753153443E0,-9.337671846E-2,6.505244732E0,4.948966026E0
3.755153176E0,-2.346389294E-1,6.160469055E0,4.458139896E0
3.757152909E0,-3.064671755E-1,5.755836487E0,4.197163582E0
3.759153509E0,-3.064671755E-1,5.755836487E0,4.197163582E0
3.761153309E0,-2.873129845E-1,5.576265812E0,4.498842239E0
3.763153109E0,-1.508393139E-1,5.511620522E0,5.126142502E0
3.765152842E0,-4.309694469E-2,5.540351868E0,5.514014721E0
3.767152575E0,3.471698463E-1,5.739076614E0,6.407079220E0
3.769152308E0,9.122186899E-1,6.016812801E0,7.213950157E0
3.771152041E0,1.228263021E0,6.172440529E0,7.534782887E0
3.773151774E0,1.819648862E0,6.505244732E0,7.960963726E0
3.775151507E0,2.205127001E0,6.797346115E0,8.032792091E0
3.777151307E0,2.087807655E0,7.043956280E0,7.142121792E0
3.779151040E0,2.087807655E0,7.043956280E0,7.142121792E0
3.781150773E0,1.860351562E0,6.969734192E0,6.747066498E0
3.783150506E0,1.582615614E0,6.876357079E0,6.256239891E0
3.785150239E0,1.015172482E0,6.802134514E0,5.118959427E0
3.787149972E0,5.698373914E-1,6.749460697E0,3.775771379E0
3.789149705E0,2.777358890E-1,6.687209606E0,2.985660791E0
3.791149438E0,-2.681587934E-1,6.627352715E0,1.539518714E0
3.793149238E0,-8.260248303E-1,6.569890022E0,2.466102988E-1
3.795148971E0,-1.163617611E0,6.553130150E0,-3.208328187E-1
3.797148704E0,-2.650462151E0,6.950579643E0,-1.788523316E0
3.799148437E0,-2.650462151E0,6.950579643E0,-1.788523316E0
3.801147470E0,-2.650462151E0,6.950579643E0,-1.788523316E0
3.803147203E0,-3.196356773E0,7.108602047E0,-1.719089270E0
3.805146936E0,-3.311282158E0,7.376760483E0,-1.321639657E0
3.807146669E0,-3.170019865E0,7.556331158E0,-1.055875182E0
3.809146469E0,-2.523565531E0,7.982511997E0,-5.267404318E-1
3.811146202E0,-1.683175206E0,8.310527802E0,-5.027977005E-2
3.813145935E0,-1.237840056E0,8.420664787E0,1.221080124E-1
3.815145668E0,-2.537931204E-1,8.672063828E0,3.998439014E-1
3.817145401E0,9.481328130E-1,8.959376335E0,4.644893110E-1
3.819145167E0,9.481328130E-1,8.959376335E0,4.644893110E-1
3.821144900E0,1.458113313E0,9.083878517E0,3.304099143E-1
3.823144633E0,1.642472506E0,9.208380699E0,1.628106833E-1
3.825144433E0,1.764580488E0,9.229928970E0,4.309694469E-2
3.827144199E0,1.630501151E0,9.244295120E0,-3.423812985E-1
3.829143965E0,1.462901950E0,9.220352173E0,-5.794144869E-1
3.831143731E0,1.082212210E0,9.174860954E0,-9.840469360E-1
3.833143497E0,6.273000240E-1,9.050358772E0,-1.266571403E0
3.835143263E0,3.711125851E-1,9.031204224E0,-1.381496549E0
3.837143029E0,-3.232271075E-1,9.234718323E0,-1.795706153E0
3.839142862E0,-3.232271075E-1,9.234718323E0,-1.795706153E0
3.841142695E0,-3.232271075E-1,9.234718323E0,-1.795706153E0
3.843142461E0,-5.219519138E-1,9.234718323E0,-1.877111435E0
3.845142227E0,-7.015225291E-1,9.074301720E0,-1.805283189E0
3.847141993E0,-7.494080067E-1,8.980924606E0,-1.685569525E0
3.849141759E0,-8.356019258E-1,8.763046265E0,-1.321639657E0
3.851141525E0,-7.733507752E-1,8.403904915E0,-9.720755816E-1
3.853141291E0,-6.392713785E-1,8.181237221E0,-8.332076073E-1
3.855141124E0,-1.867534369E-1,7.692804813E0,-6.392713785E-1
3.857140890E0,1.474873304E0,6.936213970E0,-4.285751879E-1
3.859140656E0,1.474873304E0,6.936213970E0,-4.285751879E-1
3.861141456E0,2.018373728E0,6.804529190E0,-4.333637357E-1
3.863141222E0,3.193962574E0,6.584255695E0,-4.261809289E-1
3.865140988E0,3.794925690E0,6.524398804E0,-4.189980924E-1
3.867140754E0,4.908263206E0,6.555524349E0,-2.825244367E-1
3.869140520E0,5.717528343E0,6.730306625E0,-1.221080124E-1
3.871140353E0,5.990475655E0,6.838048935E0,-2.394274808E-2
3.873140119E0,6.323279858E0,7.027196407E0,1.987248063E-1
3.875139885E0,6.100612164E0,7.118178844E0,3.399870098E-1
3.877139651E0,4.367157459E0,7.618582249E0,6.919454336E-1
3.879138517E0,4.367157459E0,7.618582249E0,6.919454336E-1
3.881138283E0,3.828445435E0,7.819701672E0,8.092648983E-1
3.883138049E0,3.335224867E0,8.063917160E0,9.696813226E-1
3.885137815E0,2.446948767E0,8.621783257E0,1.355159521E0
3.887137615E0,1.541913033E0,9.244295120E0,1.608952641E0
3.889137348E0,1.089395046E0,9.577098846E0,1.711906433E0
3.891137081E0,2.226675600E-1,1.033368969E1,1.783734679E0
3.893136814E0,-5.195576549E-1,1.093465328E1,1.927391171E0
3.895136547E0,-7.589851022E-1,1.114534950E1,1.999219418E0
3.897136280E0,-1.443747759E0,1.173434067E1,1.783734679E0
3.899136013E0,-1.606558442E0,1.178701496E1,1.690358043E0
3.901135846E0,-1.606558442E0,1.178701496E1,1.690358043E0
3.903135646E0,-1.834014535E0,1.186842060E1,1.589798450E0
3.905135379E0,-1.977671027E0,1.186123753E1,1.659232497E0
3.907135112E0,-2.049499273E0,1.184208298E1,1.788523316E0
3.909134845E0,-2.085413456E0,1.162659836E1,2.037527800E0
3.911134578E0,-2.011190891E0,1.144463348E1,2.233858347E0
3.913134311E0,-1.915419817E0,1.144702816E1,2.310475111E0
3.915134044E0,-1.608952641E0,1.149012470E1,2.494834423E0
3.917133844E0,-7.278595567E-1,1.142069054E1,2.995237827E0
3.919133644E0,-7.278595567E-1,1.142069054E1,2.995237827E0
3.921132744E0,-5.363175869E-1,1.132731438E1,3.071854591E0
3.923132477E0,-3.351984620E-1,1.115492630E1,3.093403101E0
3.925132210E0,-4.070267081E-2,1.109028053E1,2.988054991E0
3.927131943E0,5.506832153E-2,1.091789341E1,2.887495518E0
3.929131676E0,3.830839694E-2,1.077184200E1,2.820455790E0
3.931131409E0,-1.173194647E-1,1.046537495E1,2.736656189E0
3.933131209E0,-1.915419847E-1,1.025946712E1,2.607365370E0
3.935130942E0,-1.939362586E-1,1.020679379E1,2.578634024E0
3.937130675E0,-3.064671755E-1,1.016369629E1,2.966506481E0
3.939130408E0,-3.447755575E-1,1.013257122E1,3.134105682E0
3.941130141E0,-3.447755575E-1,1.013257122E1,3.134105682E0
3.943129874E0,-4.836435020E-1,1.006313705E1,3.498035431E0
3.945129607E0,-5.530774593E-1,1.010623360E1,3.696760416E0
3.947129340E0,-5.770202279E-1,1.015890789E1,3.720703125E0
3.949129140E0,-6.273000240E-1,1.045579815E1,3.706337452E0
3.951128873E0,-5.650488734E-1,1.090831566E1,3.579440832E0
3.953128606E0,-4.788549542E-1,1.115492630E1,3.495641232E0
3.955128339E0,-2.729473412E-1,1.162420464E1,3.402264595E0
3.957128072E0,-6.775797606E-1,1.218206978E1,3.014391899E0
3.959127805E0,-6.775797606E-1,1.218206978E1,3.014391899E0
3.961127438E0,-7.925049663E-1,1.229220676E1,2.911438227E0
3.963127171E0,-1.022355318E0,1.253642273E1,2.765387297E0
3.965126971E0,-1.151646137E0,1.266331959E1,2.758204460E0
3.967126704E0,-1.426987767E0,1.291711235E1,2.791724443E0
3.969126437E0,-1.704723716E0,1.317808819E1,2.839609861E0
3.971126170E0,-1.824437380E0,1.328583050E1,2.863552570E0
3.973125903E0,-2.090201855E0,1.350610447E1,2.861158371E0
3.975125636E0,-2.241041183E0,1.365933800E1,2.909043789E0
3.977125369E0,-2.085413456E0,1.390594769E1,2.583422422E0
3.979125102E0,-2.085413456E0,1.390594769E1,2.583422422E0
3.981125368E0,-2.032739401E0,1.393946838E1,2.466103077E0
3.983125101E0,-2.020767927E0,1.395862198E1,2.312869549E0
3.985124834E0,-2.171607256E0,1.387003422E1,1.951334000E0
3.987124567E0,-2.588211060E0,1.361624050E1,1.494027495E0
3.989124300E0,-2.762993097E0,1.347019005E1,1.304879785E0
3.991124033E0,-2.784541607E0,1.319245434E1,1.158828974E0
3.993123766E0,-2.679193497E0,1.293866062E1,1.177983165E0
3.995123566E0,-2.588211060E0,1.282852459E1,1.223474383E0
3.997123366E0,-2.047105074E0,1.245741177E1,1.903448462E0
3.999123099E0,-1.817254543E0,1.237121773E1,2.130904675E0
4.001122832E0,-1.817254543E0,1.237121773E1,2.130904675E0
4.003122565E0,-1.204320192E0,1.227784157E1,2.585816860E0
4.005122298E0,-7.996878028E-1,1.210066509E1,2.815667152E0
4.007122031E0,-6.225114465E-1,1.200249958E1,2.856369734E0
4.009121764E0,-3.136500120E-1,1.180616951E1,2.980872154E0
4.011121564E0,-1.652049571E-1,1.161702156E1,3.131711483E0
4.013121364E0,-4.549122229E-2,1.152843285E1,3.191568375E0
4.015121097E0,2.394274808E-3,1.141111374E1,3.375927448E0
4.017120830E0,2.322446555E-1,1.113816643E1,3.514795303E0
4.019120563E0,2.322446555E-1,1.113816643E1,3.514795303E0
4.021120163E0,2.633702159E-1,1.104718399E1,3.531555414E0
4.023119896E0,2.921015322E-1,1.091789341E1,3.512401104E0
4.025119629E0,3.615354896E-1,1.076226521E1,3.263396502E0
4.027119429E0,3.974496126E-1,1.071916866E1,3.045517445E0
4.029119162E0,4.142095447E-1,1.069522572E1,2.925803900E0
4.031118895E0,3.304099143E-1,1.060663700E1,2.597788095E0
4.033118628E0,6.943397224E-2,1.051326084E1,2.320052385E0
4.035118361E0,-6.464541703E-2,1.043664360E1,2.195549965E0
4.037118094E0,-3.495641351E-1,1.013017654E1,1.975276709E0
4.039117827E0,-3.854782581E-1,1.005834866E1,1.968093872E0
4.041117560E0,-3.854782581E-1,1.005834866E1,1.968093872E0
4.043117360E0,-3.759011328E-1,9.969759941E0,1.929785490E0
4.045117093E0,-2.753416002E-1,9.878777504E0,1.838803053E0
4.047116826E0,-2.418217510E-1,9.826104164E0,1.841197371E0
4.049116559E0,-2.849186957E-1,9.680052757E0,1.901054144E0
4.051116292E0,-2.394274771E-1,9.529213905E0,1.869928598E0
4.053116025E0,-1.987248063E-1,9.466962814E0,1.853168726E0
4.055116125E0,-2.346389294E-1,9.361614227E0,1.872322917E0
4.057115858E0,5.985686928E-2,9.275420189E0,2.315263748E0
4.059115658E0,5.985686928E-2,9.275420189E0,2.315263748E0
4.061115391E0,1.484450400E-1,9.270631790E0,2.485257149E0
4.063115124E0,3.567469418E-1,9.273026466E0,2.767781734E0
4.065114857E0,4.932205975E-1,9.289786339E0,2.865947008E0
4.067114590E0,9.624984860E-1,9.347249031E0,3.033546209E0
4.069114323E0,1.319245458E0,9.364008904E0,3.134105682E0
4.071114056E0,1.316851139E0,9.299363136E0,3.160442829E0
4.073113789E0,1.010383964E0,9.012050629E0,3.141288519E0
4.075113589E0,1.336005330E0,8.968953133E0,3.098191500E0
4.077113322E0,1.666415215E0,9.045570374E0,2.988054991E0
4.079113055E0,1.666415215E0,9.045570374E0,2.988054991E0
4.081112921E0,1.680780888E0,9.086273193E0,3.014391899E0
4.083112654E0,1.683175206E0,9.122186661E0,3.059883118E0
4.085112387E0,1.620923996E0,9.191620827E0,3.129317284E0
4.087112120E0,1.484450340E0,9.261054993E0,3.181991339E0
4.089111920E0,1.400650740E0,9.282603264E0,3.179596901E0
4.091111720E0,1.259388566E0,9.337671280E0,3.165231228E0
4.093111453E0,1.072635174E0,9.378374100E0,3.067065954E0
4.095111186E0,9.936240315E-1,9.387951851E0,2.985660791E0
4.097110919E0,7.805336118E-1,9.404711723E0,2.705530643E0
4.099110652E0,7.805336118E-1,9.404711723E0,2.705530643E0
4.101110385E0,7.637736797E-1,9.404711723E0,2.655250788E0
4.103110118E0,7.398309112E-1,9.414288521E0,2.600182533E0
4.105109918E0,7.230709791E-1,9.435836792E0,2.554691315E0
4.107109651E0,7.087053657E-1,9.452596664E0,2.449343204E0
4.109109384E0,6.560313106E-1,9.495694160E0,2.334417820E0
4.111109117E0,6.536370516E-1,9.512454033E0,2.264983892E0
4.113108850E0,6.632141471E-1,9.584281921E0,2.080624819E0
4.115108216E0,6.273000240E-1,9.644139290E0,1.845985889E0
4.117107949E0,4.094209969E-1,9.771035194E0,1.338399649E0
4.119107682E0,4.094209969E-1,9.771035194E0,1.338399649E0
4.121107482E0,3.423812985E-1,9.790189743E0,1.240234375E0
4.123107215E0,2.849186957E-1,9.818921089E0,1.185166001E0
4.125106948E0,2.250618339E-1,9.859623909E0,1.154040456E0
4.127106681E0,2.394274771E-1,9.873989105E0,1.177983165E0
4.129106414E0,2.609759569E-1,9.866806030E0,1.223474383E0
4.131106147E0,2.873129845E-1,9.869200706E0,1.374313712E0
4.133105880E0,3.016786277E-1,9.835680962E0,1.616135478E0
4.135105613E0,2.849186957E-1,9.809344292E0,1.757397652E0
4.137105413E0,2.466102988E-1,9.701601982E0,2.370332003E0
4.139105146E0,2.083019018E-1,9.689630508E0,2.516382933E0
4.141105746E0,2.083019018E-1,9.689630508E0,2.516382933E0
4.143105479E0,1.675992310E-1,9.636956215E0,2.789330244E0
4.145105212E0,1.675992310E-1,9.565128326E0,3.023969173E0
4.147104945E0,1.652049571E-1,9.534002304E0,3.134105682E0
4.149104678E0,9.816526622E-2,9.450202942E0,3.280156374E0
4.151104411E0,5.267404765E-2,9.359220505E0,3.335224867E0
4.153104211E0,2.394274808E-2,9.325700760E0,3.313676357E0
4.155103944E0,3.591412306E-2,9.296969414E0,3.253819466E0
4.157103677E0,1.618529797E0,1.059945488E1,4.228289127E0
4.159103410E0,1.618529797E0,1.059945488E1,4.228289127E0
4.161103276E0,1.941756845E0,1.111422348E1,4.604190350E0
4.163103009E0,2.552296877E0,1.231136131E1,5.559505939E0
4.165102742E0,2.803695917E0,1.290035248E1,6.026389599E0
4.167102542E0,3.191568375E0,1.380060005E1,6.363982677E0
4.169102342E0,3.301704884E0,1.404960442E1,5.772596359E0
4.171102075E0,3.225088120E0,1.390355396E1,5.221913338E0
