"Time (s)","Gyroscope x (rad/s)","Gyroscope y (rad/s)","Gyroscope z (rad/s)"
4.836938000E-3,2.565633971E-3,-1.266236305E-1,9.482374042E-2
6.838500000E-3,-2.216568217E-3,-1.138478294E-1,9.110618383E-2
8.838500000E-3,-5.934119225E-3,-1.005309671E-1,8.791223168E-2
1.083850000E-2,-8.587019518E-3,-8.829620481E-2,8.258897811E-2
1.283850000E-2,-9.669124149E-3,-7.606144994E-2,7.672467083E-2
1.483850000E-2,-8.080874570E-3,-6.541494280E-2,7.087782025E-2
1.683850000E-2,-4.886921961E-3,-5.263913050E-2,6.555456668E-2
1.942287500E-2,2.548180753E-3,-3.986331820E-2,6.129596382E-2
2.117600000E-2,5.201081280E-3,-3.614576906E-2,6.023131311E-2
2.283850000E-2,1.158898603E-2,-2.816961333E-2,5.810201168E-2
2.483850000E-2,2.117084339E-2,-1.750565320E-2,5.597271025E-2
2.683850000E-2,3.342305496E-2,-6.859143730E-3,5.277875811E-2
2.883850000E-2,4.832816496E-2,1.640609466E-3,5.010840297E-2
3.083850000E-2,6.269222498E-2,9.093165398E-3,5.010840297E-2
3.283850000E-2,7.866198570E-2,1.600466855E-2,5.277875811E-2
3.483850000E-2,9.304349869E-2,2.347467840E-2,5.649630725E-2
3.683850000E-2,1.074250117E-1,2.933898382E-2,6.342526525E-2
3.942131300E-2,1.271123290E-1,3.358013555E-2,7.620107383E-2
4.086506300E-2,1.335176826E-1,3.359758854E-2,7.991862297E-2
4.289787500E-2,1.457524449E-1,3.412118554E-2,8.684758097E-2
4.483850000E-2,1.580046564E-1,3.679154068E-2,9.110618383E-2
4.683850000E-2,1.691747606E-1,4.105014354E-2,9.217083454E-2
4.883693800E-2,1.798212677E-1,4.476769641E-2,9.004153311E-2
5.083850000E-2,1.904677749E-1,5.115560070E-2,8.630653471E-2
5.283850000E-2,2.000496387E-1,5.967280641E-2,8.258897811E-2
5.483850000E-2,2.069785893E-1,6.979571283E-2,7.833037525E-2
5.683693800E-2,2.133490443E-1,8.042477071E-2,7.620107383E-2
5.941818800E-2,2.213426530E-1,9.745918214E-2,7.407177240E-2
6.086350000E-2,2.239955515E-1,1.043881401E-1,7.407177240E-2
6.289787500E-2,2.293188125E-1,1.171464995E-1,7.140141726E-2
6.483850000E-2,2.346420586E-1,1.288576573E-1,6.661921740E-2
6.683850000E-2,2.399653196E-1,1.405862719E-1,5.969025940E-2
6.883850000E-2,2.452885658E-1,1.517563760E-1,5.223770440E-2
7.083850000E-2,2.495646328E-1,1.602910310E-1,4.584980011E-2
7.283850000E-2,2.511528730E-1,1.688082516E-1,3.946189582E-2
7.483693800E-2,2.501056790E-1,1.746550947E-1,3.361504152E-2
7.683850000E-2,2.458296269E-1,1.767843962E-1,2.881538495E-2
7.942131300E-2,2.373124212E-1,1.773254573E-1,2.616248466E-2
8.086193800E-2,2.325302213E-1,1.789136976E-1,2.722713538E-2
8.289318800E-2,2.218837142E-1,1.821076572E-1,3.042108938E-2
8.483850000E-2,2.075022012E-1,1.874309033E-1,3.467969224E-2
8.683850000E-2,1.915324330E-1,1.943598688E-1,3.839724511E-2
8.883850000E-2,1.734333634E-1,2.018124163E-1,4.213224724E-2
9.083850000E-2,1.553343087E-1,2.071356773E-1,4.532619938E-2
9.283850000E-2,1.361705810E-1,2.081828713E-1,4.372049868E-2
9.483693800E-2,1.154011711E-1,1.986010075E-1,3.787364438E-2
9.683693800E-2,9.836675972E-2,1.948660165E-1,3.042108938E-2
9.942131300E-2,8.504989743E-2,2.012539208E-1,2.403318323E-2
1.013166250E-1,7.389724255E-2,2.087239176E-1,1.816887781E-2
1.028369380E-1,6.323327869E-2,2.140471786E-1,1.391027402E-2
1.048916250E-1,4.941027239E-2,2.156528831E-1,1.125737373E-2
1.068369380E-1,3.450515866E-2,2.124589235E-1,1.125737373E-2
1.088369380E-1,1.797689125E-2,2.087064683E-1,1.125737373E-2
1.108369380E-1,-1.151917269E-3,2.034006715E-1,1.125737373E-2
1.128369380E-1,-2.083923109E-2,1.991420686E-1,1.284562331E-2
1.148369380E-1,-4.586725309E-2,1.911484599E-1,1.232202444E-2
1.168369380E-1,-7.195992768E-2,1.821076572E-1,1.125737373E-2
1.194650630E-1,-9.642943740E-2,1.789136976E-1,1.178097259E-2
1.208666250E-1,-1.182635128E-1,1.826487035E-1,1.391027402E-2
1.228978750E-1,-1.379508227E-1,1.906248629E-1,1.603957638E-2
1.248385000E-1,-1.592438370E-1,1.970127672E-1,1.870992966E-2
1.268385000E-1,-1.810604632E-1,1.986184716E-1,1.977458037E-2
1.288385000E-1,-2.034355700E-1,1.991420686E-1,2.136282995E-2
1.308369380E-1,-2.252521962E-1,2.002067119E-1,2.455678210E-2
1.328385000E-1,-2.465452105E-1,2.012713701E-1,2.935643867E-2
1.348369380E-1,-2.683792710E-1,2.039242685E-1,3.361504152E-2
1.368385000E-1,-2.896897495E-1,2.076418251E-1,3.680899367E-2
1.394181880E-1,-3.104417026E-1,2.097711265E-1,4.000294581E-2
1.408635000E-1,-3.306700885E-1,2.119004279E-1,4.213224724E-2
1.428900630E-1,-3.509159088E-1,2.145707756E-1,4.584980011E-2
1.448385000E-1,-3.706032038E-1,2.167000771E-1,4.797910154E-2
1.468385000E-1,-3.897669315E-1,2.188293785E-1,5.010840297E-2
1.488385000E-1,-4.083895981E-1,2.241526395E-1,5.223770440E-2
1.508385000E-1,-4.270122647E-1,2.289522886E-1,5.543165654E-2
1.528385000E-1,-4.445877075E-1,2.316051871E-1,5.756095797E-2
1.548385000E-1,-4.616221189E-1,2.331934422E-1,5.916666240E-2
1.568385000E-1,-4.770683050E-1,2.363873869E-1,6.023131311E-2
1.594213130E-1,-4.909087718E-1,2.395987958E-1,6.181956083E-2
1.608635000E-1,-5.036671162E-1,2.438573986E-1,6.288421154E-2
1.628931880E-1,-5.148372054E-1,2.475924045E-1,6.501351297E-2
1.648369380E-1,-5.254837275E-1,2.502453029E-1,6.501351297E-2
1.668385000E-1,-5.356066227E-1,2.523746192E-1,6.394886225E-2
1.688385000E-1,-5.446649194E-1,2.539628446E-1,6.236061454E-2
1.708369380E-1,-5.531821251E-1,2.539628446E-1,6.023131311E-2
1.728385000E-1,-5.616993308E-1,2.523571551E-1,5.810201168E-2
1.748369380E-1,-5.702165365E-1,2.497042567E-1,5.436700583E-2
1.768369380E-1,-5.760633945E-1,2.502453029E-1,5.064945295E-2
1.794213130E-1,-5.814040899E-1,2.534218132E-1,4.745550081E-2
1.813166250E-1,-5.856626630E-1,2.587450743E-1,4.372049868E-2
1.828369380E-1,-5.877919793E-1,2.635447085E-1,3.893829510E-2
1.848838130E-1,-5.899212956E-1,2.667386830E-1,3.413863853E-2
1.868369380E-1,-5.925741792E-1,2.688679695E-1,2.829178795E-2
1.888369380E-1,-5.952445269E-1,2.720619142E-1,2.242748067E-2
1.908385000E-1,-5.978974104E-1,2.747322619E-1,1.445132587E-2
1.928385000E-1,-5.984385014E-1,2.795144916E-1,7.522369269E-3
1.948385000E-1,-5.989795327E-1,2.853613198E-1,1.134464052E-3
1.968385000E-1,-5.984385014E-1,2.922903001E-1,-5.759586580E-3
1.994197500E-1,-5.968328118E-1,2.992192507E-1,-1.481784508E-2
2.008619380E-1,-5.947034955E-1,3.071953952E-1,-2.279400080E-2
2.029056880E-1,-5.904623270E-1,3.162361979E-1,-3.344050795E-2
2.048385000E-1,-5.878094435E-1,3.252770007E-1,-4.515166581E-2
2.068385000E-1,-5.862037539E-1,3.316649199E-1,-5.686282739E-2
2.088385000E-1,-5.840744376E-1,3.375292122E-1,-6.963863969E-2
2.108385000E-1,-5.819276571E-1,3.439171314E-1,-8.082620054E-2
2.128385000E-1,-5.792747736E-1,3.503050208E-1,-9.412560612E-2
2.148385000E-1,-5.755397677E-1,3.556457460E-1,-1.095717698E-1
2.168385000E-1,-5.718222260E-1,3.609515429E-1,-1.250004768E-1
2.194228750E-1,-5.659404397E-1,3.694862127E-1,-1.399055868E-1
2.208385000E-1,-5.606346726E-1,3.780034184E-1,-1.542870998E-1
2.228775630E-1,-5.553113818E-1,3.849149048E-1,-1.681275666E-1
2.248369380E-1,-5.521174669E-1,3.886324763E-1,-1.750390679E-1
2.268369380E-1,-5.468116403E-1,3.955614269E-1,-1.872912794E-1
2.288369380E-1,-5.425356030E-1,3.998200297E-1,-2.000670880E-1
2.308385000E-1,-5.388180614E-1,4.024903774E-1,-2.123018503E-1
2.328385000E-1,-5.361477137E-1,4.035550356E-1,-2.240130156E-1
2.348369380E-1,-5.340183973E-1,4.040786326E-1,-2.352005690E-1
2.368369380E-1,-5.313480496E-1,4.040786326E-1,-2.458470762E-1
2.394228750E-1,-5.297597647E-1,4.056843221E-1,-2.623404264E-1
2.411760000E-1,-5.276305079E-1,4.067315161E-1,-2.740516067E-1
2.428775630E-1,-5.276305079E-1,4.072725773E-1,-2.846980989E-1
2.448369380E-1,-5.276305079E-1,4.078136384E-1,-2.894977629E-1
2.468369380E-1,-5.276305079E-1,4.088608325E-1,-3.001442850E-1
2.488369380E-1,-5.281715393E-1,4.088608325E-1,-3.075968325E-1
2.508369380E-1,-5.287125707E-1,4.072551131E-1,-3.150493801E-1
2.528369380E-1,-5.297772288E-1,4.046022296E-1,-3.214372993E-1
2.548369380E-1,-5.292361975E-1,4.014082849E-1,-3.267605305E-1
2.568369380E-1,-5.297597647E-1,3.955614269E-1,-3.320837915E-1
2.594197500E-1,-5.271068811E-1,3.854385018E-1,-3.379306495E-1
2.613166250E-1,-5.249775648E-1,3.801327050E-1,-3.411245942E-1
2.628369380E-1,-5.228483081E-1,3.774623573E-1,-3.427303135E-1
2.648838130E-1,-5.175250173E-1,3.716154993E-1,-3.443185389E-1
2.668369380E-1,-5.122017860E-1,3.636218905E-1,-3.437949419E-1
2.688385000E-1,-5.068784952E-1,3.534989953E-1,-3.437949419E-1
2.708385000E-1,-4.999670088E-1,3.460464180E-1,-3.421892524E-1
2.728385000E-1,-4.919734001E-1,3.380702734E-1,-3.400599360E-1
2.748556880E-1,-4.829151630E-1,3.311413229E-1,-3.363423944E-1
2.768385000E-1,-4.728097022E-1,3.226241171E-1,-3.310191333E-1
2.794197500E-1,-4.547106326E-1,3.077189922E-1,-3.187669218E-1
2.808619380E-1,-4.483227134E-1,3.029193580E-1,-3.139847219E-1
2.828400630E-1,-4.350233078E-1,2.949431837E-1,-3.049264848E-1
2.848494380E-1,-4.211828411E-1,2.901435196E-1,-2.948210239E-1
2.868385000E-1,-4.062777460E-1,2.869495749E-1,-2.825688124E-1
2.888369380E-1,-3.918962181E-1,2.885552943E-1,-2.697930038E-1
2.908369380E-1,-3.775147200E-1,2.938785255E-1,-2.554289401E-1
2.928416250E-1,-3.642153144E-1,3.018546999E-1,-2.389181256E-1
2.948385000E-1,-3.509159088E-1,3.114365637E-1,-2.229483575E-1
2.968369380E-1,-3.381401002E-1,3.226241171E-1,-2.064549923E-1
2.994603750E-1,-3.205646276E-1,3.439171314E-1,-1.824916303E-1
3.008853750E-1,-3.152413666E-1,3.519107401E-1,-1.739744246E-1
3.028369380E-1,-3.030066192E-1,3.700098097E-1,-1.574810594E-1
3.048369380E-1,-2.918190360E-1,3.891735077E-1,-1.404466480E-1
3.068385000E-1,-2.801078856E-1,4.115311801E-1,-1.239358261E-1
3.088478750E-1,-2.694613934E-1,4.323005974E-1,-1.063778177E-1
3.108369380E-1,-2.604031265E-1,4.519879222E-1,-8.773770183E-2
3.128369380E-1,-2.529505789E-1,4.706280231E-1,-6.911503524E-2
3.148385000E-1,-2.471037209E-1,4.876624346E-1,-5.047492310E-2
3.168385000E-1,-2.412394136E-1,5.030911565E-1,-3.237585723E-2
3.194228750E-1,-2.359161526E-1,5.233195424E-1,-6.824237294E-3
3.208635000E-1,-2.343278974E-1,5.318192840E-1,2.199114766E-3
3.229010000E-1,-2.311339527E-1,5.493947268E-1,2.029817924E-2
3.248385000E-1,-2.279399931E-1,5.690994859E-1,3.946189582E-2
3.268385000E-1,-2.242050022E-1,5.903925300E-1,5.862560868E-2
3.288385000E-1,-2.204874456E-1,6.127501726E-1,7.620107383E-2
3.308385000E-1,-2.151641846E-1,6.350904107E-1,9.323548526E-2
3.328478750E-1,-2.093173414E-1,6.585127115E-1,1.102699041E-1
3.348369380E-1,-2.008001357E-1,6.808704138E-1,1.256986111E-1
3.368369380E-1,-1.896300167E-1,7.042927146E-1,1.406037211E-1
3.394197500E-1,-1.688605994E-1,7.378379107E-1,1.624377966E-1
3.413166250E-1,-1.544965506E-1,7.575252652E-1,1.725432426E-1
3.428431880E-1,-1.470439881E-1,7.660424709E-1,1.768018454E-1
3.448369380E-1,-1.326799244E-1,7.809475660E-1,1.837308109E-1
3.468369380E-1,-1.193630695E-1,7.931823134E-1,1.906423122E-1
3.488478750E-1,-1.060462072E-1,8.011759520E-1,1.975712776E-1
3.508385000E-1,-9.538224339E-2,8.027816415E-1,2.055474222E-1
3.528385000E-1,-8.578293025E-2,7.990815639E-1,2.167349905E-1
3.548385000E-1,-7.515387982E-2,7.894822359E-1,2.289697379E-1
3.568369380E-1,-6.557202339E-2,7.756417990E-1,2.422866076E-1
3.594400630E-1,-5.012585595E-2,7.468962073E-1,2.678382397E-1
3.608416250E-1,-4.482005537E-2,7.351675630E-1,2.774200737E-1
3.626619380E-1,-3.206169978E-2,7.106806040E-1,2.960427403E-1
3.648385000E-1,-1.396263391E-2,6.856700182E-1,3.162711263E-1
3.668385000E-1,8.377579972E-3,6.601009965E-1,3.391698301E-1
3.688463130E-1,3.659955412E-2,6.345667839E-1,3.652450442E-1
3.708369380E-1,7.066838443E-2,6.074094772E-1,3.929259777E-1
3.728416250E-1,1.106015146E-1,5.770756602E-1,4.200832844E-1
3.748369380E-1,1.569225490E-1,5.435478687E-1,4.440292120E-1
3.768369380E-1,2.080257982E-1,5.078733563E-1,4.647986293E-1
3.794197500E-1,2.921157479E-1,4.471882582E-1,4.908738434E-1
3.808619380E-1,3.214023709E-1,4.242895544E-1,4.978027940E-1
3.828431880E-1,3.810228407E-1,3.769212961E-1,5.105786324E-1
3.848369380E-1,4.411668777E-1,3.279473782E-1,5.212251544E-1
3.868369380E-1,4.986580312E-1,2.784323692E-1,5.318716168E-1
3.888385000E-1,5.534962416E-1,2.294758856E-1,5.425181389E-1
3.908588130E-1,6.056641340E-1,1.788962483E-1,5.510353446E-1
3.928385000E-1,6.551616788E-1,1.283166111E-1,5.579468608E-1
3.948369380E-1,7.014827132E-1,7.827802002E-2,5.632700920E-1
3.968369380E-1,7.430040836E-1,2.771582827E-2,5.632700920E-1
3.994572500E-1,7.962366343E-1,-4.785692692E-2,5.584878922E-1
4.008572500E-1,8.116828203E-1,-7.180284709E-2,5.547528863E-1
4.029119380E-1,8.398873210E-1,-1.202531829E-1,5.451710224E-1
4.048369380E-1,8.648979068E-1,-1.665742248E-1,5.313305855E-1
4.068369380E-1,8.867145181E-1,-2.107485086E-1,5.153608322E-1
4.088510000E-1,9.064192772E-1,-2.528109550E-1,4.940677881E-1
4.108369380E-1,9.239773154E-1,-2.927266359E-1,4.695808291E-1
4.128385000E-1,9.378177524E-1,-3.321186900E-1,4.466995597E-1
4.148369380E-1,9.468760490E-1,-3.704461455E-1,4.264712036E-1
4.168416250E-1,9.511346221E-1,-4.103792608E-1,4.105014503E-1
4.194213130E-1,9.505935907E-1,-4.747993648E-1,3.907966614E-1
4.214525630E-1,9.442056417E-1,-5.211029649E-1,3.790855110E-1
4.226744380E-1,9.388824105E-1,-5.450488925E-1,3.748269081E-1
4.248494380E-1,9.239773154E-1,-5.945638418E-1,3.673743606E-1
4.268385000E-1,9.048135877E-1,-6.414085031E-1,3.609864414E-1
4.288385000E-1,8.814087510E-1,-6.823888421E-1,3.577924967E-1
4.308369380E-1,8.590335846E-1,-7.153930068E-1,3.567278385E-1
4.328385000E-1,8.398698568E-1,-7.377681136E-1,3.572688997E-1
4.348385000E-1,8.286997676E-1,-7.468089461E-1,3.593981862E-1
4.368385000E-1,8.255058527E-1,-7.462678552E-1,3.615275025E-1
4.394181880E-1,8.351051211E-1,-7.366685867E-1,3.647214472E-1
4.408900630E-1,8.409519792E-1,-7.345567346E-1,3.652450442E-1
4.428369380E-1,8.547924757E-1,-7.361449599E-1,3.673743606E-1
4.448369380E-1,8.734151125E-1,-7.430739403E-1,3.711093664E-1
4.468369380E-1,8.968374133E-1,-7.558671832E-1,3.737622499E-1
4.488431880E-1,9.261066318E-1,-7.728841305E-1,3.695036471E-1
4.508463130E-1,9.639104605E-1,-7.920478582E-1,3.572688997E-1
4.528385000E-1,1.012343287E0,-8.122762442E-1,3.407580853E-1
4.548369380E-1,1.074093103E0,-8.335866928E-1,3.226590157E-1
4.568369380E-1,1.148636103E0,-8.554033041E-1,2.987130880E-1
4.594181880E-1,1.235396385E0,-8.713730574E-1,2.699675262E-1
4.608635000E-1,1.335491061E0,-8.740260005E-1,2.364223003E-1
4.629010000E-1,1.440350413E0,-8.676380515E-1,1.997005790E-1
4.648369380E-1,1.538298249E0,-8.676380515E-1,1.624377966E-1
4.668369380E-1,1.623993993E0,-8.740260005E-1,1.246339604E-1
4.688369380E-1,1.697472334E0,-8.804138899E-1,8.684758097E-2
4.708369380E-1,1.756551743E0,-8.825432062E-1,5.171410739E-2
4.728385000E-1,1.801267028E0,-8.836078644E-1,2.136282995E-2
4.748416250E-1,1.830012679E0,-8.862782121E-1,-4.171337001E-3
4.768369380E-1,1.841182709E0,-8.926661015E-1,-3.024655581E-2
4.794603750E-1,1.834271193E0,-9.001011848E-1,-6.005677953E-2
4.808635000E-1,1.808719635E0,-9.064890742E-1,-9.147270769E-2
4.828885000E-1,1.766133547E0,-9.075537324E-1,-1.244768798E-1
4.848385000E-1,1.708624959E0,-9.022479653E-1,-1.611986160E-1
4.868385000E-1,1.639946222E0,-8.878839016E-1,-1.995260417E-1
4.888385000E-1,1.562767863E0,-8.644616008E-1,-2.389181256E-1
4.908385000E-1,1.481330752E0,-8.330456614E-1,-2.772455513E-1
4.928385000E-1,1.398288012E0,-7.920478582E-1,-3.139847219E-1
4.948369380E-1,1.316327333E0,-7.420092821E-1,-3.469889164E-1
4.968369380E-1,1.238590360E0,-6.866474152E-1,-3.783873916E-1
4.994213130E-1,1.167782307E0,-6.281090975E-1,-4.076740146E-1
5.011916250E-1,1.102856040E0,-5.690122247E-1,-4.348138869E-1
5.028369380E-1,1.042712092E0,-5.104389787E-1,-4.603655040E-1
5.048385000E-1,9.857444763E-1,-4.540299475E-1,-4.880464077E-1
5.068369380E-1,9.309062362E-1,-3.970623910E-1,-5.199859142E-1
5.088369380E-1,8.803266287E-1,-3.427652121E-1,-5.519254804E-1
5.108369380E-1,8.403934836E-1,-2.927440703E-1,-5.812121034E-1
5.128385000E-1,8.127125502E-1,-2.485697865E-1,-6.025050879E-1
5.148463130E-1,7.951545715E-1,-2.134363204E-1,-6.174102426E-1
5.168369380E-1,7.850490808E-1,-1.889318973E-1,-6.296449900E-1
5.194213130E-1,7.775965333E-1,-1.766796857E-1,-6.424207687E-1
5.208650630E-1,7.680146694E-1,-1.798736304E-1,-6.541319489E-1
5.229260000E-1,7.520449162E-1,-1.974491030E-1,-6.626491547E-1
5.248478750E-1,7.365987301E-1,-2.150071114E-1,-6.679723859E-1
5.268369380E-1,7.280815244E-1,-2.245889604E-1,-6.701017022E-1
5.288369380E-1,7.254461050E-1,-2.288475633E-1,-6.674488187E-1
5.308369380E-1,7.264932990E-1,-2.320415229E-1,-6.610609293E-1
5.328385000E-1,7.307519317E-1,-2.357765287E-1,-6.562612653E-1
5.348494380E-1,7.392691374E-1,-2.427054793E-1,-6.541319489E-1
5.368385000E-1,7.515038848E-1,-2.522873282E-1,-6.568022966E-1
5.394181880E-1,7.664089799E-1,-2.677160501E-1,-6.631901860E-1
5.408885000E-1,7.839670181E-1,-2.906147838E-1,-6.706427336E-1
5.428369380E-1,8.026245832E-1,-3.220132589E-1,-6.786189079E-1
5.448385000E-1,8.191179037E-1,-3.624699712E-1,-6.855478883E-1
5.468369380E-1,8.345640898E-1,-4.109028578E-1,-6.935240030E-1
5.488385000E-1,8.457341790E-1,-4.636118114E-1,-7.009766102E-1
5.508369380E-1,8.537103534E-1,-5.179089904E-1,-7.068408728E-1
5.528385000E-1,8.595746756E-1,-5.700768828E-1,-7.100348473E-1
5.548385000E-1,8.606393337E-1,-6.163804531E-1,-7.110995054E-1
5.568385000E-1,8.585100174E-1,-6.552489400E-1,-7.105584145E-1
5.594478750E-1,8.537278175E-1,-6.871885061E-1,-7.079055309E-1
5.608510000E-1,8.484045267E-1,-7.095461488E-1,-7.041705251E-1
5.628900630E-1,8.414930701E-1,-7.239102125E-1,-6.993883252E-1
5.648385000E-1,8.334994316E-1,-7.313627601E-1,-6.951297522E-1
5.668385000E-1,8.260468841E-1,-7.334920764E-1,-6.919357777E-1
5.688385000E-1,8.175122142E-1,-7.287098765E-1,-6.887418032E-1
5.708385000E-1,8.074067831E-1,-7.180633545E-1,-6.850067973E-1
5.728385000E-1,7.962192297E-1,-7.042229176E-1,-6.791599989E-1
5.748385000E-1,7.834433913E-1,-6.871885061E-1,-6.711663604E-1
5.768385000E-1,7.701439857E-1,-6.669601202E-1,-6.615844965E-1
5.794619380E-1,7.557624578E-1,-6.430141926E-1,-6.498733163E-1
5.811916250E-1,7.435102463E-1,-6.174625754E-1,-6.392268538E-1
5.828447500E-1,7.328637242E-1,-5.935166478E-1,-6.296449900E-1
5.848385000E-1,7.232644558E-1,-5.695707202E-1,-6.189984679E-1
5.868385000E-1,7.190232873E-1,-5.583831668E-1,-6.136752367E-1
5.891760000E-1,7.083767653E-1,-5.264436603E-1,-5.961171985E-1
5.909088130E-1,7.025299072E-1,-5.061978698E-1,-5.806710124E-1
5.928385000E-1,6.993359923E-1,-4.960923791E-1,-5.726948977E-1
5.948385000E-1,6.929480433E-1,-4.763876200E-1,-5.567251444E-1
5.968385000E-1,6.865601540E-1,-4.593532085E-1,-5.402143002E-1
5.994666250E-1,6.748490334E-1,-4.386012256E-1,-5.167919993E-1
6.008635000E-1,6.631378531E-1,-4.295429885E-1,-5.024279356E-1
6.029119380E-1,6.562088728E-1,-4.263490140E-1,-4.954989851E-1
6.048385000E-1,6.413212419E-1,-4.210257828E-1,-4.816585183E-1
6.068478750E-1,6.237457395E-1,-4.183728695E-1,-4.662297964E-1
6.088385000E-1,6.024527550E-1,-4.172907770E-1,-4.502600431E-1
6.108385000E-1,5.800950527E-1,-4.167671800E-1,-4.337492287E-1
6.128385000E-1,5.566727519E-1,-4.183554053E-1,-4.177794755E-1
6.148385000E-1,5.300739408E-1,-4.220904112E-1,-4.012860954E-1
6.168525630E-1,5.029166341E-1,-4.284783304E-1,-3.842516840E-1
6.194213130E-1,4.619188309E-1,-4.391248524E-1,-3.587000668E-1
6.208635000E-1,4.470137358E-1,-4.433834553E-1,-3.501828611E-1
6.228978750E-1,4.182681441E-1,-4.519006610E-1,-3.347367048E-1
6.248431880E-1,3.895225823E-1,-4.604178667E-1,-3.203726411E-1
6.268385000E-1,3.602534235E-1,-4.694586694E-1,-3.059911132E-1
6.288385000E-1,3.304257393E-1,-4.785169065E-1,-2.910860181E-1
6.308385000E-1,3.016976118E-1,-4.875751734E-1,-2.772455513E-1
6.328510000E-1,2.724109888E-1,-4.971570373E-1,-2.628814876E-1
6.348385000E-1,2.431243658E-1,-5.078035593E-1,-2.484999746E-1
6.368385000E-1,2.122494876E-1,-5.200383067E-1,-2.341359109E-1
6.394181880E-1,1.664694995E-1,-5.349608660E-1,-2.112371922E-1
6.409306880E-1,1.515643895E-1,-5.397430658E-1,-2.032610476E-1
6.428385000E-1,1.207069680E-1,-5.471781492E-1,-1.883559376E-1
6.448385000E-1,9.037315100E-2,-5.546307564E-1,-1.739744246E-1
6.468385000E-1,6.215117499E-2,-5.615596771E-1,-1.601339579E-1
6.488385000E-1,3.659955412E-2,-5.684886575E-1,-1.468345523E-1
6.508385000E-1,1.263618376E-2,-5.748765469E-1,-1.340587437E-1
6.528385000E-1,-1.076868176E-2,-5.796587467E-1,-1.212829277E-1
6.548385000E-1,-3.099704720E-2,-5.833937526E-1,-1.085071191E-1
6.568385000E-1,-4.961971194E-2,-5.849819779E-1,-9.625490755E-2
6.594260000E-1,-7.623597980E-2,-5.860291719E-1,-7.815584540E-2
6.611760000E-1,-9.220574051E-2,-5.855056047E-1,-6.698573381E-2
6.628385000E-1,-9.965830296E-2,-5.849819779E-1,-6.166248396E-2
6.648385000E-1,-1.145634130E-1,-5.839173794E-1,-5.153957382E-2
6.668510000E-1,-1.284038723E-1,-5.828527212E-1,-4.089306295E-2
6.688385000E-1,-1.411971301E-1,-5.807234049E-1,-3.078760765E-2
6.708385000E-1,-1.523672491E-1,-5.770058632E-1,-2.120575123E-2
6.728385000E-1,-1.630137563E-1,-5.732708573E-1,-1.108284108E-2
6.748463130E-1,-1.715309620E-1,-5.674239993E-1,-1.500983140E-3
6.768385000E-1,-1.805892140E-1,-5.604950190E-1,8.587019518E-3
6.794213130E-1,-1.938886195E-1,-5.493249297E-1,2.296853252E-2
6.808650630E-1,-1.986882836E-1,-5.455899239E-1,2.829178795E-2
6.828447500E-1,-2.093347907E-1,-5.376137495E-1,3.839724511E-2
6.848385000E-1,-2.205048949E-1,-5.301612020E-1,4.852015153E-2
6.868385000E-1,-2.322335094E-1,-5.221850276E-1,5.810201168E-2
6.888385000E-1,-2.434036136E-1,-5.126032233E-1,6.820746511E-2
6.908385000E-1,-2.561794221E-1,-5.030213594E-1,7.885397226E-2
6.928385000E-1,-2.694788277E-1,-4.928984344E-1,9.056513757E-2
6.948385000E-1,-2.833192945E-1,-4.827755094E-1,1.022762954E-1
6.968385000E-1,-2.982244194E-1,-4.726700783E-1,1.145285070E-1
6.994181880E-1,-3.242996335E-1,-4.540299475E-1,1.342158169E-1
7.008635000E-1,-3.328168392E-1,-4.465774000E-1,1.400801241E-1
7.029135000E-1,-3.509159088E-1,-4.316722751E-1,1.523148865E-1
7.048385000E-1,-3.706206679E-1,-4.167671800E-1,1.661553383E-1
7.068385000E-1,-3.908490241E-1,-4.002563655E-1,1.799958050E-1
7.088385000E-1,-4.110774100E-1,-3.843040466E-1,1.943773180E-1
7.108385000E-1,-4.318468273E-1,-3.667285740E-1,2.092824280E-1
7.128385000E-1,-4.520751834E-1,-3.470412791E-1,2.236464918E-1
7.148385000E-1,-4.723035395E-1,-3.278775513E-1,2.385516018E-1
7.168385000E-1,-4.930555224E-1,-3.081727922E-1,2.534567118E-1
7.194213130E-1,-5.239303708E-1,-2.815565169E-1,2.758143842E-1
7.208635000E-1,-5.351005197E-1,-2.730393112E-1,2.827433348E-1
7.226619380E-1,-5.564109683E-1,-2.565459311E-1,2.976484597E-1
7.248385000E-1,-5.766218901E-1,-2.410997748E-1,3.136182129E-1
7.268385000E-1,-5.968502164E-1,-2.256710678E-1,3.290469348E-1
7.288385000E-1,-6.160314083E-1,-2.112895548E-1,3.450166881E-1
7.308385000E-1,-6.335894465E-1,-1.985137463E-1,3.604628444E-1
7.328385000E-1,-6.500827670E-1,-1.862615347E-1,3.758915663E-1
7.348385000E-1,-6.660525203E-1,-1.745678335E-1,3.918613195E-1
7.368385000E-1,-6.820397377E-1,-1.644623727E-1,4.078310728E-1
7.394197500E-1,-7.054620981E-1,-1.516691148E-1,4.301887453E-1
7.414525630E-1,-7.203671932E-1,-1.452812105E-1,4.450938702E-1
7.426697500E-1,-7.278197408E-1,-1.431519091E-1,4.520228207E-1
7.448822500E-1,-7.437894940E-1,-1.388933063E-1,4.658632874E-1
7.468385000E-1,-7.597592473E-1,-1.367640048E-1,4.802273512E-1
7.488385000E-1,-7.762526274E-1,-1.341111064E-1,4.956735075E-1
7.508385000E-1,-7.932870388E-1,-1.341111064E-1,5.100375414E-1
7.528385000E-1,-8.108625412E-1,-1.356993467E-1,5.249426961E-1
7.548385000E-1,-8.278969526E-1,-1.394343525E-1,5.393241644E-1
7.568385000E-1,-8.449138999E-1,-1.452812105E-1,5.542293191E-1
7.594213130E-1,-8.678300381E-1,-1.548805237E-1,5.760459304E-1
7.608619380E-1,-8.752826452E-1,-1.591391265E-1,5.834984779E-1
7.628963130E-1,-8.885820508E-1,-1.681799293E-1,5.973389149E-1
7.648385000E-1,-8.987049460E-1,-1.798910797E-1,6.117204428E-1
7.668385000E-1,-9.077457190E-1,-1.947962046E-1,6.255608797E-1
7.688385000E-1,-9.141336679E-1,-2.128952593E-1,6.388603449E-1
7.708385000E-1,-9.178512096E-1,-2.341882735E-1,6.516361237E-1
7.728385000E-1,-9.205215573E-1,-2.576105893E-1,6.622826457E-1
7.748385000E-1,-9.199805260E-1,-2.831622064E-1,6.729291677E-1
7.768385000E-1,-9.167865515E-1,-3.103020787E-1,6.841167212E-1
7.794181880E-1,-9.098750353E-1,-3.560820818E-1,6.995454431E-1
7.808619380E-1,-9.061400294E-1,-3.720518351E-1,7.048686743E-1
7.828838130E-1,-8.976228237E-1,-4.071853161E-1,7.139269114E-1
7.848385000E-1,-8.885820508E-1,-4.449891448E-1,7.229677439E-1
7.868385000E-1,-8.779355288E-1,-4.859694839E-1,7.330906391E-1
7.888385000E-1,-8.667654395E-1,-5.275083184E-1,7.448018193E-1
7.908385000E-1,-8.539896011E-1,-5.722236633E-1,7.554482818E-1
7.928385000E-1,-8.417373896E-1,-6.201329231E-1,7.644891143E-1
7.948385000E-1,-8.300262094E-1,-6.712186933E-1,7.730063200E-1
7.968385000E-1,-8.177914619E-1,-7.234040499E-1,7.809999585E-1
7.994603750E-1,-8.012980819E-1,-8.011235595E-1,7.905817628E-1
8.008619380E-1,-7.954338193E-1,-8.271988034E-1,7.921700478E-1
8.029010000E-1,-7.858519554E-1,-8.783195019E-1,7.948403955E-1
8.048416250E-1,-7.768111229E-1,-9.235584140E-1,7.969697118E-1
8.068385000E-1,-7.645589113E-1,-9.602801800E-1,7.937757373E-1
8.088385000E-1,-7.560417056E-1,-9.885021448E-1,7.831292152E-1
8.108385000E-1,-7.485716939E-1,-1.007648349E0,7.687477469E-1
8.128385000E-1,-7.432659268E-1,-1.015118361E0,7.527779341E-1
8.148385000E-1,-7.379426360E-1,-1.012448072E0,7.346788645E-1
8.168385000E-1,-7.288843989E-1,-1.000213265E0,7.133858800E-1
8.194244380E-1,-7.145203352E-1,-9.783791900E-1,6.899635792E-1
8.211760000E-1,-6.932273507E-1,-9.501746893E-1,6.628236771E-1
8.228385000E-1,-6.634171009E-1,-9.150412083E-1,6.335370541E-1
8.248385000E-1,-6.245660782E-1,-8.735198379E-1,6.015975475E-1
8.268385000E-1,-5.761157274E-1,-8.250694871E-1,5.664640665E-1
8.288385000E-1,-5.191481709E-1,-7.713133693E-1,5.318716168E-1
8.308385000E-1,-4.563337862E-1,-7.127575278E-1,4.988674521E-1
8.328385000E-1,-3.887371719E-1,-6.536607146E-1,4.658632874E-1
8.348385000E-1,-3.200584650E-1,-5.951049328E-1,4.333827198E-1
8.368385000E-1,-2.503325641E-1,-5.381548405E-1,4.025078416E-1
8.394213130E-1,-1.832595766E-1,-4.859869182E-1,3.737622499E-1
8.408619380E-1,-1.215098202E-1,-4.412716031E-1,3.455577493E-1
8.428947500E-1,-6.827727705E-2,-4.034852087E-1,3.168121576E-1
8.448385000E-1,-2.195624262E-2,-3.725928962E-1,2.880665958E-1
8.468385000E-1,1.370083448E-2,-3.481059074E-1,2.582563758E-1
8.488385000E-1,4.297000542E-2,-3.289422095E-1,2.273814976E-1
8.508385000E-1,6.639232486E-2,-3.140370846E-1,1.965066195E-1
8.528385000E-1,8.395033330E-2,-3.049962819E-1,1.640260369E-1
8.548385000E-1,9.726719558E-2,-3.023259342E-1,1.310218722E-1
8.568385000E-1,1.089783609E-1,-3.065845370E-1,9.695304185E-2
8.594228750E-1,1.201659217E-1,-3.198839426E-1,6.342526525E-2
8.608619380E-1,1.334653348E-1,-3.401297629E-1,3.094468825E-2
8.628931880E-1,1.462411433E-1,-3.667285740E-1,1.134464052E-3
8.648385000E-1,1.600815952E-1,-4.018620551E-1,-2.492330223E-2
8.668385000E-1,1.728574038E-1,-4.423362315E-1,-4.728097096E-2
8.688385000E-1,1.850921661E-1,-4.886572957E-1,-6.644468755E-2
8.708385000E-1,1.962797344E-1,-5.381548405E-1,-8.134979755E-2
8.728385000E-1,2.037322819E-1,-5.876523852E-1,-9.306095541E-2
8.748791250E-1,2.079908848E-1,-6.334323287E-1,-1.021192148E-1
8.768385000E-1,2.079908848E-1,-6.690894365E-1,-1.106364205E-1
8.794197500E-1,2.042733282E-1,-6.893177629E-1,-1.223475784E-1
8.808619380E-1,1.920211166E-1,-6.951820850E-1,-1.404466480E-1
8.828931880E-1,1.723338068E-1,-6.834709048E-1,-1.628043056E-1
8.848385000E-1,1.478468478E-1,-6.568546891E-1,-1.846209317E-1
8.868385000E-1,1.180366203E-1,-6.201154590E-1,-2.101725489E-1
8.888385000E-1,8.609709144E-2,-5.812644362E-1,-2.367888242E-1
8.908385000E-1,5.309291556E-2,-5.461309552E-1,-2.650108039E-1
8.928385000E-1,2.007128671E-2,-5.168617964E-1,-2.953446209E-1
8.948385000E-1,-1.024508290E-2,-4.939630926E-1,-3.278251886E-1
8.968385000E-1,-3.792600334E-2,-4.774522781E-1,-3.618940115E-1
8.994213130E-1,-6.187192351E-2,-4.609414637E-1,-3.959628344E-1
9.013166250E-1,-8.316493779E-2,-4.433834553E-1,-4.310963154E-1
9.028385000E-1,-1.023286507E-1,-4.226140380E-1,-4.656887352E-1
9.048900630E-1,-1.214923710E-1,-4.002563655E-1,-5.013632774E-1
9.068385000E-1,-1.411971301E-1,-3.741985857E-1,-5.396907330E-1
9.088385000E-1,-1.624901593E-1,-3.422590792E-1,-5.801474452E-1
9.108385000E-1,-1.843067706E-1,-3.012612760E-1,-6.195394993E-1
9.128385000E-1,-2.082701325E-1,-2.533519864E-1,-6.599962711E-1
9.148385000E-1,-2.348689586E-1,-2.022313029E-1,-7.004529834E-1
9.168385000E-1,-2.625673413E-1,-1.490162164E-1,-7.403686643E-1
9.194213130E-1,-2.929011583E-1,-9.845402092E-2,-7.803018093E-1
9.208635000E-1,-3.227288425E-1,-5.480333790E-2,-8.180881739E-1
9.228947500E-1,-3.514569402E-1,-1.858775690E-2,-8.537626863E-1
9.248385000E-1,-3.786142766E-1,1.172861271E-2,-8.872904778E-1
9.268385000E-1,-4.068188071E-1,3.888593614E-2,-9.176417589E-1
9.288385000E-1,-4.350233078E-1,6.443755329E-2,-9.421287179E-1
9.308385000E-1,-4.664566815E-1,8.731882274E-2,-9.596867561E-1
9.328385000E-1,-5.031784177E-1,1.070061326E-1,-9.687449932E-1
9.348385000E-1,-5.430940986E-1,1.283166111E-1,-9.713978767E-1
9.368385000E-1,-5.872858167E-1,1.490685642E-1,-9.655510187E-1
9.394197500E-1,-6.325247884E-1,1.709026396E-1,-9.527752399E-1
9.413166250E-1,-6.751108170E-1,1.985835582E-1,-9.351997972E-1
9.428369380E-1,-7.102442980E-1,2.299820334E-1,-9.123185277E-1
9.448650630E-1,-7.347487211E-1,2.587101460E-1,-8.862258196E-1
9.468385000E-1,-7.480481267E-1,2.821499407E-1,-8.564156294E-1
9.488385000E-1,-7.507010102E-1,2.927964330E-1,-8.404458165E-1
9.508385000E-1,-7.464598417E-1,3.124837577E-1,-8.074416518E-1
9.528385000E-1,-7.336840630E-1,3.337767720E-1,-7.739139199E-1
9.548385000E-1,-7.155849934E-1,3.545287251E-1,-7.414333224E-1
9.568385000E-1,-6.942919493E-1,3.731688559E-1,-7.094938159E-1
9.594197500E-1,-6.591410637E-1,3.928736150E-1,-6.621255279E-1
9.608619380E-1,-6.378480196E-1,4.003261626E-1,-6.323153377E-1
9.628947500E-1,-6.272014976E-1,4.024729133E-1,-6.168691516E-1
9.648385000E-1,-6.048438549E-1,4.045847654E-1,-5.854706764E-1
9.668385000E-1,-5.830272436E-1,4.035201073E-1,-5.561840534E-1
9.688385000E-1,-5.617341995E-1,3.998025656E-1,-5.274385214E-1
9.708385000E-1,-5.409647822E-1,3.944793046E-1,-4.992339909E-1
9.728385000E-1,-5.218011141E-1,3.870267570E-1,-4.742059708E-1
9.748385000E-1,-5.021137595E-1,3.817034960E-1,-4.502600431E-1
9.768385000E-1,-4.829500616E-1,3.779684901E-1,-4.257730842E-1
9.794213130E-1,-4.525987804E-1,3.800978065E-1,-3.895749450E-1
9.813166250E-1,-4.318468273E-1,3.854210675E-1,-3.656115830E-1
9.828385000E-1,-4.212003052E-1,3.896796703E-1,-3.528357744E-1
9.848775630E-1,-4.020365775E-1,3.965911567E-1,-3.299545050E-1
9.868385000E-1,-3.855257630E-1,4.040611684E-1,-3.070557714E-1
9.888385000E-1,-3.695560098E-1,4.125783741E-1,-2.863038182E-1
9.908385000E-1,-3.535862565E-1,4.242895544E-1,-2.660754323E-1
9.928385000E-1,-3.354871869E-1,4.397357106E-1,-2.463706732E-1
9.948385000E-1,-3.157998621E-1,4.556879997E-1,-2.266833633E-1
9.968385000E-1,-2.955715060E-1,4.695284665E-1,-2.075196505E-1
9.994197500E-1,-2.689552307E-1,4.849571884E-1,-1.766447723E-1
1.000861938E0,-2.615201473E-1,4.881511331E-1,-1.665218621E-1
1.002910375E0,-2.471386194E-1,4.918861389E-1,-1.462934911E-1
1.004838500E0,-2.338217646E-1,4.961447418E-1,-1.281944364E-1
1.006838500E0,-2.199812979E-1,5.004033446E-1,-1.117010713E-1
1.008838500E0,-2.072054893E-1,5.009269714E-1,-9.838420898E-2
1.010838500E0,-1.976236254E-1,4.929507971E-1,-8.614945412E-2
1.012838500E0,-1.933650225E-1,4.764399827E-1,-7.443828881E-2
1.014838500E0,-1.891064197E-1,4.562290609E-1,-6.218608096E-2
1.016838500E0,-1.800656170E-1,4.375889599E-1,-4.675737023E-2
1.019422875E0,-1.539904028E-1,4.194724262E-1,-2.120575123E-2
1.020865063E0,-1.422617882E-1,4.157548845E-1,-1.481784508E-2
1.022894750E0,-1.172512174E-1,4.077787101E-1,-2.565633971E-3
1.024838500E0,-9.330530465E-2,3.949854672E-1,6.998770405E-3
1.026838500E0,-7.518878579E-2,3.795567453E-1,1.391027402E-2
1.028838500E0,-6.295402348E-2,3.641280532E-1,2.029817924E-2
1.030838500E0,-5.869542435E-2,3.513347805E-1,2.668608353E-2
1.032838500E0,-6.293657422E-2,3.433760703E-1,3.307398781E-2
1.034838500E0,-7.412413508E-2,3.433760703E-1,3.893829510E-2
1.036838500E0,-9.009389579E-2,3.524168730E-1,4.478514940E-2
1.039421313E0,-1.231155246E-1,3.779510558E-1,5.117305368E-2
1.040861938E0,-1.353677362E-1,3.901858032E-1,5.223770440E-2
1.042896313E0,-1.593136489E-1,4.184077680E-1,5.117305368E-2
1.044838500E0,-1.806066632E-1,4.524766207E-1,4.745550081E-2
1.046838500E0,-1.976236254E-1,4.892157912E-1,4.000294581E-2
1.048838500E0,-2.114640921E-1,5.259549618E-1,2.881538495E-2
1.050838500E0,-2.215870023E-1,5.605474114E-1,1.658062823E-2
1.052838500E0,-2.290395498E-1,5.930105448E-1,2.740166849E-3
1.054838500E0,-2.349038571E-1,6.222971678E-1,-1.055924222E-2
1.056838500E0,-2.386214137E-1,6.494370103E-1,-2.279400080E-2
1.059421313E0,-2.364746630E-1,6.829996705E-1,-4.036946595E-2
1.061316625E0,-2.295631617E-1,6.984283924E-1,-5.047492310E-2
1.062838500E0,-2.247809470E-1,7.042752504E-1,-5.527457595E-2
1.064879125E0,-2.119876891E-1,7.112042308E-1,-6.379178166E-2
1.066838500E0,-1.949532777E-1,7.122688890E-1,-7.124433666E-2
1.068838500E0,-1.742013097E-1,7.048162818E-1,-7.763224840E-2
1.070838500E0,-1.502379477E-1,6.899111867E-1,-8.295550197E-2
1.072838500E0,-1.230980754E-1,6.696828604E-1,-8.773770183E-2
1.074838500E0,-9.222319722E-2,6.467841268E-1,-9.147270769E-2
1.076838500E0,-5.976007506E-2,6.201678514E-1,-9.306095541E-2
1.079418188E0,-9.180432186E-3,5.781228542E-1,-9.412560612E-2
1.080861938E0,7.836528122E-3,5.632177591E-1,-9.412560612E-2
1.082661938E0,4.138175771E-2,5.344721675E-1,-9.360200912E-2
1.084838500E0,7.225663215E-2,5.078558922E-1,-9.199630469E-2
1.086838500E0,9.993755072E-2,4.806985855E-1,-8.986700326E-2
1.088838500E0,1.249481216E-1,4.514293969E-1,-8.721410483E-2
1.090838500E0,1.435707808E-1,4.216191769E-1,-8.402015269E-2
1.092838500E0,1.563640535E-1,3.918089569E-1,-7.976154983E-2
1.094838500E0,1.637991518E-1,3.641280532E-1,-7.550293952E-2
1.096838500E0,1.675341576E-1,3.364471197E-1,-6.857398897E-2
1.099419750E0,1.675341576E-1,2.991843522E-1,-5.366887525E-2
1.100861938E0,1.659284532E-1,2.885378301E-1,-4.782202095E-2
1.102904125E0,1.616524011E-1,2.682920098E-1,-3.450515866E-2
1.104838500E0,1.552644968E-1,2.533869147E-1,-2.014109865E-2
1.106838500E0,1.478119344E-1,2.416757345E-1,-4.694935866E-3
1.108838500E0,1.409004331E-1,2.315702885E-1,1.178097259E-2
1.110838500E0,1.329242736E-1,2.251823843E-1,2.935643867E-2
1.112838500E0,1.244070679E-1,2.204001844E-1,4.639085010E-2
1.114838500E0,1.137605608E-1,2.166651785E-1,6.394886225E-2
1.116838500E0,1.031140536E-1,2.145358771E-1,7.939502597E-2
1.119421313E0,8.607963473E-2,2.214648277E-1,9.855873883E-2
1.120861938E0,7.862707973E-2,2.273116857E-1,1.044055969E-1
1.122893188E0,6.211626902E-2,2.453932911E-1,1.166578084E-1
1.124838500E0,4.508185387E-2,2.677684128E-1,1.310218722E-1
1.126838500E0,2.857103944E-2,2.922379375E-1,1.480562836E-1
1.128838500E0,1.420698036E-2,3.188542128E-1,1.656317413E-1
1.130838500E0,8.901178953E-4,3.475997746E-1,1.837133616E-1
1.132838500E0,-1.291543618E-2,3.774274588E-1,2.007652223E-1
1.134838500E0,-2.727949619E-2,4.045847654E-1,2.172585875E-1
1.136838500E0,-4.059635848E-2,4.285306931E-1,2.310990393E-1
1.139419750E0,-5.867796764E-2,4.684638083E-1,2.502627671E-1
1.141332250E0,-6.400122494E-2,4.817806780E-1,2.561270595E-1
1.142661938E0,-7.412413508E-2,5.089205503E-1,2.667735815E-1
1.144838500E0,-8.265879005E-2,5.344547033E-1,2.747497261E-1
1.146838500E0,-9.117600322E-2,5.573534369E-1,2.811376452E-1
1.148838500E0,-9.808750451E-2,5.786464810E-1,2.859372795E-1
1.150838500E0,-1.033933014E-1,6.015451550E-1,2.901958823E-1
1.152838500E0,-1.044754088E-1,6.254910827E-1,2.949780822E-1
1.154838500E0,-1.055575162E-1,6.473076940E-1,2.976484597E-1
1.156838500E0,-1.066221669E-1,6.627538800E-1,2.992366850E-1
1.159419750E0,-1.097986624E-1,6.782000661E-1,2.976484597E-1
1.160861938E0,-1.113869101E-1,6.851115227E-1,2.976484597E-1
1.162888500E0,-1.135162115E-1,7.021459341E-1,2.981720567E-1
1.164838500E0,-1.183158681E-1,7.165274620E-1,2.981720567E-1
1.166838500E0,-1.220159680E-1,7.293033004E-1,2.960427403E-1
1.168838500E0,-1.241452694E-1,7.452905178E-1,2.944544852E-1
1.170838500E0,-1.273566782E-1,7.639131546E-1,2.928487957E-1
1.172838500E0,-1.305331737E-1,7.804239988E-1,2.907194793E-1
1.174838500E0,-1.326624751E-1,7.931823134E-1,2.896548510E-1
1.176838500E0,-1.369385272E-1,8.011759520E-1,2.875255346E-1
1.179421313E0,-1.411971301E-1,8.064991832E-1,2.848726511E-1
1.180861938E0,-1.444085389E-1,8.133932352E-1,2.827433348E-1
1.182886938E0,-1.470789015E-1,8.213868737E-1,2.816786766E-1
1.184838500E0,-1.497318000E-1,8.304276466E-1,2.806140482E-1
1.186838500E0,-1.534493417E-1,8.368330002E-1,2.779436707E-1
1.188838500E0,-1.592961997E-1,8.357683420E-1,2.726204395E-1
1.190838500E0,-1.640958488E-1,8.320333362E-1,2.651678622E-1
1.192851000E0,-1.688780636E-1,8.304451108E-1,2.577153146E-1
1.194838500E0,-1.710073650E-1,8.325744271E-1,2.502627671E-1
1.196838500E0,-1.720720083E-1,8.368330002E-1,2.417455465E-1
1.199424438E0,-1.731366664E-1,8.410916328E-1,2.305754423E-1
1.200888500E0,-1.736777127E-1,8.432208896E-1,2.183232307E-1
1.202836938E0,-1.747423708E-1,8.426798582E-1,2.060884833E-1
1.204838500E0,-1.784599125E-1,8.400269747E-1,1.933126599E-1
1.206838500E0,-1.832421124E-1,8.373740911E-1,1.805368513E-1
1.208852563E0,-1.896474808E-1,8.336390853E-1,1.688257009E-1
1.210838500E0,-2.002939880E-1,8.229750991E-1,1.571145356E-1
1.212838500E0,-2.088111937E-1,8.118050098E-1,1.475326866E-1
1.214838500E0,-2.168048024E-1,8.080700040E-1,1.406037211E-1
1.216838500E0,-2.237337530E-1,8.080700040E-1,1.363451183E-1
1.219465063E0,-2.301216573E-1,8.101992607E-1,1.310218722E-1
1.221188500E0,-2.370331585E-1,8.107228875E-1,1.267632693E-1
1.222838500E0,-2.455678284E-1,8.096582294E-1,1.235693097E-1
1.224860375E0,-2.535439730E-1,8.064642549E-1,1.214400083E-1
1.226838500E0,-2.636494339E-1,8.011410236E-1,1.198517606E-1
1.228838500E0,-2.742959559E-1,7.958352566E-1,1.182460561E-1
1.230838500E0,-2.860071063E-1,7.899709344E-1,1.150521040E-1
1.232841625E0,-2.961125672E-1,7.835830450E-1,1.118581519E-1
1.234838500E0,-3.056944311E-1,7.804065347E-1,1.092052534E-1
1.236838500E0,-3.147352338E-1,7.782772183E-1,1.054702476E-1
1.239421313E0,-3.259053230E-1,7.761479020E-1,1.017526984E-1
1.240861938E0,-3.397632539E-1,7.686953545E-1,9.749408811E-2
1.242929125E0,-3.509508073E-1,7.596196532E-1,9.482374042E-2
1.244838500E0,-3.578797579E-1,7.580313683E-1,9.269443899E-2
1.246838500E0,-3.621209264E-1,7.617663741E-1,9.162978828E-2
1.248838500E0,-3.658559024E-1,7.660250068E-1,8.843583614E-2
1.250838500E0,-3.695909083E-1,7.708072066E-1,8.470083028E-2
1.252838500E0,-3.722438216E-1,7.750658393E-1,8.045967668E-2
1.254838500E0,-3.738320768E-1,7.798654437E-1,7.513642311E-2
1.256838500E0,-3.759613633E-1,7.857123017E-1,6.874851882E-2
1.259436938E0,-3.796963692E-1,7.867769599E-1,6.288421154E-2
1.260838500E0,-3.818256855E-1,7.883826494E-1,5.862560868E-2
1.262883813E0,-3.802199662E-1,7.963588238E-1,5.384340882E-2
1.264838500E0,-3.764849603E-1,8.054170609E-1,4.852015153E-2
1.266838500E0,-3.727674186E-1,8.149989247E-1,4.159119725E-2
1.268852563E0,-3.706381321E-1,8.240397573E-1,3.574434295E-2
1.270838500E0,-3.679852188E-1,8.288394213E-1,2.988003753E-2
1.272838500E0,-3.653148711E-1,8.309686780E-1,2.509783395E-2
1.274838500E0,-3.599916101E-1,8.368155360E-1,2.029817924E-2
1.276849438E0,-3.530800939E-1,8.458738327E-1,1.445132587E-2
1.279421313E0,-3.466922045E-1,8.559792638E-1,8.063420653E-3
1.280861938E0,-3.413689435E-1,8.655611277E-1,6.108652451E-4
1.282843188E0,-3.360282481E-1,8.719664812E-1,-5.759586580E-3
1.284838500E0,-3.301813900E-1,8.767486811E-1,-1.001818944E-2
1.286838500E0,-3.243170679E-1,8.810073137E-1,-1.534144394E-2
1.289176000E0,-3.184876740E-1,8.857895136E-1,-2.066469751E-2
1.290857250E0,-3.147526681E-1,8.889834285E-1,-2.598795295E-2
1.292838500E0,-3.120823205E-1,8.916537762E-1,-3.078760765E-2
1.294838500E0,-3.110176623E-1,8.969770670E-1,-3.556980938E-2
1.296838500E0,-3.136705756E-1,9.017767310E-1,-3.930481523E-2
1.299421313E0,-3.189938366E-1,9.054942727E-1,-4.356341809E-2
1.301193188E0,-3.269874454E-1,9.065589309E-1,-4.834562168E-2
1.302838500E0,-3.381575346E-1,9.076235890E-1,-5.260422453E-2
1.304838500E0,-3.514744043E-1,9.070999622E-1,-5.686282739E-2
1.306838500E0,-3.674441576E-1,9.076235890E-1,-6.218608096E-2
1.308838500E0,-3.759613633E-1,9.092292786E-1,-6.485643238E-2
1.310838500E0,-3.929957747E-1,9.129468203E-1,-6.963863969E-2
1.312838500E0,-4.095065892E-1,9.177290201E-1,-7.496189326E-2
1.314838500E0,-4.260174036E-1,9.230522513E-1,-8.082620054E-2
1.316849438E0,-4.398578703E-1,9.288991094E-1,-8.773770183E-2
1.319422875E0,-4.600687921E-1,9.406277537E-1,-9.679596126E-2
1.320863500E0,-4.728446007E-1,9.475392699E-1,-1.026428118E-1
1.322902563E0,-4.787088931E-1,9.496685266E-1,-1.053131670E-1
1.324838500E0,-4.882907569E-1,9.517978430E-1,-1.085071191E-1
1.326838500E0,-4.952022731E-1,9.528625011E-1,-1.117010713E-1
1.328838500E0,-4.989372790E-1,9.534035325E-1,-1.159596741E-1
1.330838500E0,-4.978726208E-1,9.560564756E-1,-1.196772233E-1
1.332838500E0,-4.941376150E-1,9.582031965E-1,-1.239358261E-1
1.334854125E0,-4.867025018E-1,9.581857324E-1,-1.281944364E-1
1.336838500E0,-4.776442647E-1,9.571211338E-1,-1.303237379E-1
1.339463500E0,-4.552691281E-1,9.544681907E-1,-1.324530393E-1
1.340858813E0,-4.456872642E-1,9.534035325E-1,-1.313883811E-1
1.342863500E0,-4.238706529E-1,9.523388743E-1,-1.271297783E-1
1.344838500E0,-3.988426328E-1,9.491449594E-1,-1.207418740E-1
1.346838500E0,-3.706381321E-1,9.491449594E-1,-1.143539697E-1
1.348838500E0,-3.408278823E-1,9.544681907E-1,-1.063778177E-1
1.350849438E0,-3.104940653E-1,9.597914815E-1,-9.573131055E-2
1.352838500E0,-2.801427841E-1,9.608560801E-1,-8.402015269E-2
1.354838500E0,-2.492679209E-1,9.603150487E-1,-7.017968595E-2
1.356838500E0,-2.189341038E-1,9.581857324E-1,-5.579817668E-2
1.359440063E0,-1.747598201E-1,9.491274953E-1,-3.185226023E-2
1.360838500E0,-1.598547101E-1,9.422159791E-1,-2.281145379E-2
1.362924438E0,-1.305680871E-1,9.267698526E-1,-3.630284918E-3
1.364838500E0,-1.002168059E-1,9.092118144E-1,1.445132587E-2
1.366838500E0,-6.881833076E-2,8.905891776E-1,3.200933710E-2
1.368838500E0,-3.848451003E-2,8.682140112E-1,4.852015153E-2
1.370838500E0,-8.133234456E-3,8.426623940E-1,6.394886225E-2
1.372838500E0,2.059488557E-2,8.139342666E-1,8.045967668E-2
1.374838500E0,4.827580601E-2,7.830419540E-1,9.642943740E-2
1.376838500E0,7.489208132E-2,7.500552535E-1,1.118581519E-1
1.379421313E0,1.132369637E-1,6.952344775E-1,1.342158169E-1
1.381316625E0,1.382649839E-1,6.574306488E-1,1.496619880E-1
1.382838500E0,1.510407925E-1,6.393489838E-1,1.576381326E-1
1.384911938E0,1.760513633E-1,6.041980982E-1,1.736079007E-1
1.386838500E0,2.021265775E-1,5.727996230E-1,1.906423122E-1
1.388838500E0,2.282192558E-1,5.456597209E-1,2.071531266E-1
1.390838500E0,2.516241074E-1,5.243492723E-1,2.215171903E-1
1.392838500E0,2.729171216E-1,5.067738295E-1,2.332283407E-1
1.394838500E0,2.904925942E-1,4.908040464E-1,2.444159091E-1
1.396838500E0,3.043330610E-1,4.764399827E-1,2.561270595E-1
1.399421313E0,3.203028142E-1,4.530176520E-1,2.800729871E-1
1.400861938E0,3.245614171E-1,4.450415075E-1,2.901958823E-1
1.402905688E0,3.330611885E-1,4.279896319E-1,3.120125234E-1
1.404838500E0,3.405137360E-1,4.088084698E-1,3.370230794E-1
1.406838500E0,3.495545387E-1,3.917915225E-1,3.636393547E-1
1.408838500E0,3.596774638E-1,3.774274588E-1,3.907966614E-1
1.410838500E0,3.719296753E-1,3.651752472E-1,4.163482785E-1
1.412838500E0,3.868347704E-1,3.566580415E-1,4.403116703E-1
1.414838500E0,4.065220952E-1,3.529230356E-1,4.599989653E-1
1.416838500E0,4.299443960E-1,3.507937193E-1,4.770333767E-1
1.419422875E0,4.736125469E-1,3.460115194E-1,4.983264208E-1
1.420863500E0,4.906294942E-1,3.433411717E-1,5.041906834E-1
1.422890063E0,5.273686647E-1,3.353650272E-1,5.148372054E-1
1.424838500E0,5.678254366E-1,3.199363053E-1,5.228133798E-1
1.426838500E0,6.104114652E-1,2.965139747E-1,5.292012691E-1
1.428838500E0,6.556503773E-1,2.677509487E-1,5.350655913E-1
1.430838500E0,7.030360699E-1,2.320938855E-1,5.398477912E-1
1.432838500E0,7.482749820E-1,1.905725002E-1,5.446474552E-1
1.434838500E0,7.919256687E-1,1.442514658E-1,5.494296551E-1
1.436838500E0,8.323824406E-1,9.634217620E-2,5.515589714E-1
1.439418188E0,8.861560225E-1,2.768092230E-2,5.504943132E-1
1.440935375E0,9.021257758E-1,4.258603323E-3,5.499706864E-1
1.442838500E0,9.313949347E-1,-4.204498231E-2,5.483649969E-1
1.444838500E0,9.574876428E-1,-8.782497048E-2,5.462356806E-1
1.446663500E0,9.824981689E-1,-1.373225003E-1,5.425181389E-1
1.448838500E0,1.007508755E0,-1.868374944E-1,5.366538167E-1
1.450838500E0,1.033601403E0,-2.368760854E-1,5.286777020E-1
1.452838500E0,1.059694052E0,-2.890439630E-1,5.164254904E-1
1.454838500E0,1.086310387E0,-3.422765136E-1,4.993910491E-1
1.456840063E0,1.113450289E0,-3.976383507E-1,4.797037542E-1
1.459421313E0,1.155512691E0,-4.817283154E-1,4.493524730E-1
1.461446313E0,1.182128906E0,-5.370901823E-1,4.296651483E-1
1.462665063E0,1.195969462E0,-5.647711158E-1,4.206068814E-1
1.464879125E0,1.222585678E0,-6.185446978E-1,4.025078416E-1
1.466838500E0,1.245484352E0,-6.706951261E-1,3.838851750E-1
1.468838500E0,1.265712738E0,-7.207337022E-1,3.668507636E-1
1.470838500E0,1.282223582E0,-7.686430216E-1,3.508809805E-1
1.472838500E0,1.292329073E0,-8.160287142E-1,3.370405436E-1
1.474838500E0,1.298716903E0,-8.612850904E-1,3.263940215E-1
1.476838500E0,1.301910877E0,-9.012007713E-1,3.210707605E-1
1.479418188E0,1.297128677E0,-9.544333220E-1,3.221354187E-1
1.480861938E0,1.292346478E0,-9.719913006E-1,3.237236738E-1
1.482896313E0,1.277964950E0,-1.008189440E0,3.290469348E-1
1.484838500E0,1.255589843E0,-1.047057867E0,3.391698301E-1
1.486838500E0,1.225256085E0,-1.087514639E0,3.508809805E-1
1.488838500E0,1.187993288E0,-1.127971411E0,3.631157577E-1
1.490855688E0,1.146471858E0,-1.160975575E0,3.774972558E-1
1.492838500E0,1.106015086E0,-1.182268620E0,3.907966614E-1
1.494838500E0,1.068752408E0,-1.189180136E0,4.019842446E-1
1.496838500E0,1.037877440E0,-1.185462475E0,4.078310728E-1
1.499419750E0,1.011261225E0,-1.166839838E0,4.088957310E-1
1.500922875E0,1.008590817E0,-1.157258034E0,4.062428474E-1
1.502838500E0,1.014961362E0,-1.137047052E0,3.971845806E-1
1.504838500E0,1.031995773E0,-1.122665524E0,3.796091080E-1
1.506838500E0,1.057564855E0,-1.121059895E0,3.551395833E-1
1.508849438E0,1.088980675E0,-1.134900331E0,3.247883320E-1
1.510838500E0,1.124637842E0,-1.160975575E0,2.923251987E-1
1.512840063E0,1.164570928E0,-1.191326857E0,2.593210340E-1
1.514838500E0,1.211380720E0,-1.215831280E0,2.262993902E-1
1.516849438E0,1.265695333E0,-1.226460338E0,1.901187152E-1
1.519424438E0,1.356731653E0,-1.206755519E0,1.294336170E-1
1.520865063E0,1.387606621E0,-1.189197540E0,1.070759520E-1
1.522933813E0,1.446703434E0,-1.140206099E0,5.969025940E-2
1.524838500E0,1.498347759E0,-1.078997493E0,1.071632188E-2
1.526838500E0,1.538787007E0,-1.014053702E0,-3.663446009E-2
1.528838500E0,1.565420747E0,-9.475043416E-1,-8.134979755E-2
1.530838500E0,1.580308318E0,-8.783195019E-1,-1.250004768E-1
1.532843188E0,1.579784751E0,-8.043175340E-1,-1.686511636E-1
1.534838500E0,1.563273907E0,-7.228804827E-1,-2.096489519E-1
1.536838500E0,1.530810833E0,-6.361026764E-1,-2.484999746E-1
1.539463500E0,1.461067438E0,-5.014330745E-1,-3.012089133E-1
1.541186938E0,1.433927655E0,-4.567177594E-1,-3.171786964E-1
1.542855688E0,1.378042102E0,-3.699399829E-1,-3.491182029E-1
1.544855688E0,1.321092010E0,-2.852915227E-1,-3.810577393E-1
1.546838500E0,1.266777396E0,-2.065248042E-1,-4.145855010E-1
1.548838500E0,1.216197729E0,-1.336049587E-1,-4.481307268E-1
1.550838500E0,1.171465039E0,-6.494370103E-2,-4.811349213E-1
1.552838500E0,1.134184718E0,1.047197497E-3,-5.125508308E-1
1.554838500E0,1.105997682E0,6.333799660E-2,-5.423610806E-1
1.556838500E0,1.086310387E0,1.229584441E-1,-5.721538067E-1
1.559452563E0,1.074058175E0,1.761909872E-1,-6.019640565E-1
1.560847875E0,1.067146659E0,2.219884247E-1,-6.301860213E-1
1.562885375E0,1.062870622E0,2.602984011E-1,-6.557376385E-1
1.564838500E0,1.062364459E0,2.922553718E-1,-6.791599989E-1
1.566852563E0,1.065558434E0,3.183306158E-1,-6.983236670E-1
1.568838500E0,1.069799542E0,3.380179107E-1,-7.127051950E-1
1.570838500E0,1.069799542E0,3.444058299E-1,-7.228106260E-1
1.572838500E0,1.059153080E0,3.316300213E-1,-7.323924899E-1
1.574841625E0,1.036795378E0,2.959729433E-1,-7.424979806E-1
1.576838500E0,1.008067250E0,2.475400418E-1,-7.542091012E-1
1.579419750E0,9.782570601E-1,1.991071552E-1,-7.664613128E-1
1.580861938E0,9.516407847E-1,1.543918252E-1,-7.792371511E-1
1.582890063E0,9.266127348E-1,1.107236892E-1,-7.920129299E-1
1.584843188E0,9.026668072E-1,6.761405617E-2,-8.058534265E-1
1.586838500E0,8.819148540E-1,2.289872058E-2,-8.207585216E-1
1.588838500E0,8.616690636E-1,-2.392846346E-2,-8.377929330E-1
1.590838500E0,8.414406776E-1,-7.290240377E-2,-8.558920026E-1
1.592838500E0,8.212122917E-1,-1.266759932E-1,-8.734500408E-1
1.594838500E0,7.988546491E-1,-1.847081929E-1,-8.904844522E-1
1.596838500E0,7.754148841E-1,-2.437875867E-1,-9.059305787E-1
1.599418188E0,7.504042983E-1,-2.980847955E-1,-9.181827903E-1
1.600861938E0,7.238054872E-1,-3.475823104E-1,-9.266825914E-1
1.602836938E0,6.982538700E-1,-3.891037107E-1,-9.320058227E-1
1.604838500E0,6.737669110E-1,-4.226489365E-1,-9.346761703E-1
1.606838500E0,6.514092088E-1,-4.513944983E-1,-9.325468540E-1
1.608849438E0,6.306572556E-1,-4.753404260E-1,-9.293529391E-1
1.610836938E0,6.109524965E-1,-4.976980984E-1,-9.224239588E-1
1.612838500E0,5.923298597E-1,-5.141914487E-1,-9.123185277E-1
1.614838500E0,5.731486678E-1,-5.259200335E-1,-9.016720057E-1
1.616846313E0,5.545085669E-1,-5.333726406E-1,-8.910254836E-1
1.619443188E0,5.374741554E-1,-5.371076465E-1,-8.803789616E-1
1.621177563E0,5.199161172E-1,-5.392369032E-1,-8.702560663E-1
1.622838500E0,5.028817058E-1,-5.392194986E-1,-8.590859771E-1
1.624838500E0,4.858472943E-1,-5.376312137E-1,-8.478984237E-1
1.626838500E0,4.693539441E-1,-5.360255241E-1,-8.367282748E-1
1.628838500E0,4.533667266E-1,-5.307022929E-1,-8.239524961E-1
1.630838500E0,4.379380047E-1,-5.237907767E-1,-8.101119995E-1
1.632838500E0,4.240975678E-1,-5.152735710E-1,-7.952069044E-1
1.634838500E0,4.107806981E-1,-5.030213594E-1,-7.792371511E-1
1.636838500E0,3.990520835E-1,-4.897393882E-1,-7.616791129E-1
1.639422875E0,3.873409331E-1,-4.758989215E-1,-7.446447015E-1
1.641316625E0,3.772354722E-1,-4.620410204E-1,-7.270692587E-1
1.642841625E0,3.655242920E-1,-4.492652118E-1,-7.095112205E-1
1.644883813E0,3.527484834E-1,-4.370304346E-1,-6.903475523E-1
1.646838500E0,3.410547972E-1,-4.247782230E-1,-6.711663604E-1
1.648836938E0,3.277379274E-1,-4.151963890E-1,-6.514790654E-1
1.650843188E0,3.149795830E-1,-4.082674086E-1,-6.317743063E-1
1.652854125E0,3.027448058E-1,-4.029441774E-1,-6.104812622E-1
1.654838500E0,2.899515331E-1,-3.970973194E-1,-5.913175344E-1
1.656838500E0,2.771757245E-1,-3.933623135E-1,-5.716302395E-1
1.659419750E0,2.638588846E-1,-3.917740583E-1,-5.529901385E-1
1.660861938E0,2.489537597E-1,-3.907094002E-1,-5.343674421E-1
1.662894750E0,2.329840064E-1,-3.923151195E-1,-5.168094635E-1
1.664838500E0,2.164731920E-1,-3.949854672E-1,-4.981693327E-1
1.666838500E0,1.989151686E-1,-3.997676671E-1,-4.784820080E-1
1.668838500E0,1.797514558E-1,-4.050909281E-1,-4.593183100E-1
1.670838500E0,1.595230997E-1,-4.120198786E-1,-4.385488927E-1
1.672838500E0,1.499237865E-1,-4.157374203E-1,-4.279023707E-1
1.674838500E0,1.297128648E-1,-4.247956872E-1,-4.082150459E-1
1.676847875E0,9.777334332E-2,-4.407480061E-1,-3.783873916E-1
1.679419750E0,7.648032904E-2,-4.524591565E-1,-3.560297191E-1
1.680861938E0,5.520476401E-2,-4.668232203E-1,-3.320837915E-1
1.682880688E0,4.403465614E-2,-4.747993648E-1,-3.198315799E-1
1.684838500E0,2.274163999E-2,-4.912927151E-1,-2.964092791E-1
1.686838500E0,1.972222002E-3,-5.094092488E-1,-2.735280097E-1
1.688838500E0,-1.771509275E-2,-5.291140079E-1,-2.490410358E-1
1.690838500E0,-3.792600334E-2,-5.503895879E-1,-2.245540619E-1
1.692838500E0,-5.710717291E-2,-5.706353784E-1,-2.000670880E-1
1.694838500E0,-7.574728876E-2,-5.892755389E-1,-1.761037260E-1
1.696838500E0,-9.278170019E-2,-6.073745489E-1,-1.526813954E-1
1.699419750E0,-1.183158681E-1,-6.323851347E-1,-1.159596741E-1
1.701183813E0,-1.348092258E-1,-6.467317343E-1,-9.147270769E-2
1.702838500E0,-1.427853853E-1,-6.536607146E-1,-8.028514683E-2
1.704838500E0,-1.593136489E-1,-6.669775844E-1,-5.686282739E-2
1.706838500E0,-1.747423708E-1,-6.771004796E-1,-3.450515866E-2
1.708838500E0,-1.901710778E-1,-6.824063063E-1,-1.427679323E-2
1.710838500E0,-2.040289938E-1,-6.872059107E-1,6.457718089E-3
1.712838500E0,-2.173283994E-1,-6.882705688E-1,2.829178795E-2
1.714838500E0,-2.290395498E-1,-6.861413121E-1,5.064945295E-2
1.716838500E0,-2.386214137E-1,-6.813591123E-1,6.874851882E-2
1.719419750E0,-2.497915179E-1,-6.723008156E-1,9.217083454E-2
1.720861938E0,-2.535090744E-1,-6.690894365E-1,1.006880477E-1
1.722888500E0,-2.588497698E-1,-6.611132622E-1,1.171814054E-1
1.724838500E0,-2.641730309E-1,-6.515488625E-1,1.342158169E-1
1.726838500E0,-2.710845470E-1,-6.403613091E-1,1.496619880E-1
1.728838500E0,-2.774899006E-1,-6.265208125E-1,1.656317413E-1
1.730838500E0,-2.859896421E-1,-6.116157174E-1,1.816015095E-1
1.732838500E0,-2.955715060E-1,-5.945813060E-1,1.975712776E-1
1.734836938E0,-3.062180281E-1,-5.748765469E-1,2.140646279E-1
1.736860375E0,-3.179291785E-1,-5.530599356E-1,2.310990393E-1
1.739477563E0,-3.381575346E-1,-5.179264545E-1,2.577153146E-1
1.741032250E0,-3.520154655E-1,-4.923748374E-1,2.752907872E-1
1.742836938E0,-3.594680130E-1,-4.785343707E-1,2.838079929E-1
1.744838500E0,-3.749141693E-1,-4.524591565E-1,3.003013432E-1
1.746838500E0,-3.924721777E-1,-4.242546260E-1,3.178768158E-1
1.748836938E0,-4.105887115E-1,-3.965737224E-1,3.359584212E-1
1.750838500E0,-4.281467199E-1,-3.688927889E-1,3.530102968E-1
1.752838500E0,-4.473104179E-1,-3.433411717E-1,3.705683053E-1
1.754838500E0,-4.664741457E-1,-3.177720904E-1,3.892084360E-1
1.756836938E0,-4.850968122E-1,-2.943497896E-1,4.083721340E-1
1.759418188E0,-5.127777457E-1,-2.634749115E-1,4.376413226E-1
1.760860375E0,-5.218185186E-1,-2.538930476E-1,4.472231567E-1
1.762894750E0,-5.393765569E-1,-2.373822331E-1,4.669279456E-1
1.764838500E0,-5.558873415E-1,-2.230181694E-1,4.866152406E-1
1.766838500E0,-5.729217529E-1,-2.097013146E-1,5.073846579E-1
1.768836938E0,-5.904972553E-1,-1.990722567E-1,5.276130438E-1
1.770860375E0,-6.080726981E-1,-1.910786480E-1,5.473003387E-1
1.772838500E0,-6.256307364E-1,-1.857553869E-1,5.670050979E-1
1.774838500E0,-6.432061791E-1,-1.836435497E-1,5.866924524E-1
1.776838500E0,-6.596995592E-1,-1.831024885E-1,6.058561206E-1
1.779418188E0,-6.857922077E-1,-1.894903928E-1,6.324723959E-1
1.781316625E0,-7.033502460E-1,-1.980075985E-1,6.495068073E-1
1.782838500E0,-7.118674517E-1,-2.028072625E-1,6.580240130E-1
1.784866625E0,-7.289193273E-1,-2.155830711E-1,6.739937663E-1
1.786838500E0,-7.464773059E-1,-2.320938855E-1,6.888989210E-1
1.788838500E0,-7.635117173E-1,-2.528458536E-1,7.027393579E-1
1.790838500E0,-7.810697556E-1,-2.773328125E-1,7.165798545E-1
1.792838500E0,-7.981216311E-1,-3.060784042E-1,7.293556333E-1
1.794838500E0,-8.130092621E-1,-3.385415077E-1,7.416078448E-1
1.796838500E0,-8.273907900E-1,-3.736749887E-1,7.522369027E-1
1.799418188E0,-8.460134268E-1,-4.370304346E-1,7.671594620E-1
1.800861938E0,-8.524187803E-1,-4.593881071E-1,7.714006305E-1
1.802838500E0,-8.625242710E-1,-5.062327385E-1,7.788706422E-1
1.804838500E0,-8.720886707E-1,-5.551892519E-1,7.847175002E-1
1.806663500E0,-8.806058764E-1,-6.041631699E-1,7.900407314E-1
1.808838500E0,-8.885820508E-1,-6.525960565E-1,7.937757373E-1
1.810838500E0,-8.965756297E-1,-7.005053759E-1,7.969697118E-1
1.812838500E0,-9.045518041E-1,-7.489556670E-1,7.985579371E-1
1.814838500E0,-9.120043516E-1,-7.963238955E-1,7.996225953E-1
1.816838500E0,-9.199979305E-1,-8.421038985E-1,8.006872535E-1
1.819466625E0,-9.279741049E-1,-9.097179770E-1,8.017519116E-1
1.820861938E0,-9.306444526E-1,-9.325992465E-1,8.017519116E-1
1.822885375E0,-9.332973361E-1,-9.762499332E-1,8.006872535E-1
1.824838500E0,-9.349204898E-1,-1.019376993E0,7.996225953E-1
1.826838500E0,-9.343794584E-1,-1.058245540E0,7.996225953E-1
1.828838500E0,-9.322501421E-1,-1.094443560E0,8.001636267E-1
1.830838500E0,-9.295797944E-1,-1.124777436E0,8.017519116E-1
1.832838500E0,-9.258622527E-1,-1.148740768E0,8.022929430E-1
1.834838500E0,-9.210625887E-1,-1.161516666E0,7.985579371E-1
1.836838500E0,-9.125453830E-1,-1.161516666E0,7.911053896E-1
1.839419750E0,-8.939227462E-1,-1.137029648E0,7.714180946E-1
1.840861938E0,-8.854055405E-1,-1.123712778E0,7.629008889E-1
1.842896313E0,-8.630478382E-1,-1.089120388E0,7.410668135E-1
1.844838500E0,-8.353495002E-1,-1.043864012E0,7.144505382E-1
1.846838500E0,-8.007570505E-1,-9.906314015E-1,6.819874048E-1
1.848838500E0,-7.603178024E-1,-9.320930839E-1,6.463128924E-1
1.850838500E0,-7.140141726E-1,-8.692786694E-1,6.079854369E-1
1.852838500E0,-6.607816815E-1,-8.006174564E-1,5.685933828E-1
1.854838500E0,-6.022258401E-1,-7.292858362E-1,5.270719528E-1
1.856838500E0,-5.399350524E-1,-6.558248997E-1,4.850095510E-1
1.859419750E0,-4.430343807E-1,-5.434780717E-1,4.216715395E-1
1.861449438E0,-3.775670826E-1,-4.705582261E-1,3.796265721E-1
1.862669750E0,-3.445628881E-1,-4.349011481E-1,3.583335578E-1
1.864874438E0,-2.828131616E-1,-3.683517277E-1,3.162711263E-1
1.866838500E0,-2.269102484E-1,-3.081902266E-1,2.758143842E-1
1.868838500E0,-1.784773618E-1,-2.576280534E-1,2.358987033E-1
1.870899438E0,-1.380206347E-1,-2.166302651E-1,1.954419762E-1
1.872838500E0,-1.066047102E-1,-1.857553869E-1,1.528559327E-1
1.874838500E0,-8.531169593E-2,-1.671152711E-1,1.102699041E-1
1.876838500E0,-7.094763219E-2,-1.618094742E-1,6.661921740E-2
1.879421313E0,-6.347762793E-2,-1.777617782E-1,6.108652451E-4
1.880863500E0,-6.347762793E-2,-1.889493465E-1,-2.014109865E-2
1.882890063E0,-6.614797562E-2,-2.161066681E-1,-6.112143025E-2
1.884838500E0,-7.468263805E-2,-2.528458536E-1,-9.892526269E-2
1.886838500E0,-8.374089748E-2,-2.981022298E-1,-1.335351467E-1
1.888838500E0,-9.545205534E-2,-3.507937193E-1,-1.638689637E-1
1.890838500E0,-1.071632132E-1,-4.061555564E-1,-1.888969839E-1
1.892838500E0,-1.199215725E-1,-4.604527652E-1,-2.075196505E-1
1.894838500E0,-1.326973885E-1,-5.131442547E-1,-2.197544128E-1
1.896838500E0,-1.465378404E-1,-5.626592636E-1,-2.245540619E-1
1.899419750E0,-1.582490057E-1,-6.105685234E-1,-2.250776589E-1
1.900865063E0,-1.673072577E-1,-6.568720937E-1,-2.213601023E-1
1.902905688E0,-1.731541157E-1,-7.021285295E-1,-2.154957950E-1
1.904838500E0,-1.779363155E-1,-7.462853193E-1,-2.101725489E-1
1.906838500E0,-1.821949184E-1,-7.872831225E-1,-2.059139460E-1
1.908838500E0,-1.848652810E-1,-8.170933127E-1,-2.048492879E-1
1.910838500E0,-1.880592257E-1,-8.282809258E-1,-2.091078907E-1
1.912838500E0,-1.907121241E-1,-8.138993979E-1,-2.213601023E-1
1.914838500E0,-1.965764314E-1,-7.713133693E-1,-2.421120703E-1
1.916838500E0,-2.077639997E-1,-7.090399861E-1,-2.682047486E-1
1.919422875E0,-2.226691097E-1,-6.355791092E-1,-2.980149686E-1
1.920865063E0,-2.375742197E-1,-5.594652891E-1,-3.315601945E-1
1.922886938E0,-2.519382834E-1,-4.902629852E-1,-3.682819307E-1
1.924838500E0,-2.631083727E-1,-4.301014841E-1,-4.098033011E-1
1.926838500E0,-2.705783844E-1,-3.859272003E-1,-4.523893297E-1
1.928838500E0,-2.737723589E-1,-3.614402413E-1,-4.976457357E-1
1.930838500E0,-2.705609500E-1,-3.481233716E-1,-5.460786223E-1
1.932838500E0,-2.625847757E-1,-3.396061659E-1,-5.977054238E-1
1.934838500E0,-2.530029416E-1,-3.316300213E-1,-6.520026326E-1
1.936838500E0,-2.418153733E-1,-3.225717545E-1,-7.084291577E-1
1.939421313E0,-2.338217646E-1,-3.081902266E-1,-7.669849396E-1
1.941316625E0,-2.311688513E-1,-2.831622064E-1,-8.255407214E-1
1.942836938E0,-2.375567704E-1,-2.475051433E-1,-8.830319047E-1
1.944880688E0,-2.567379177E-1,-2.054601610E-1,-9.378701448E-1
1.946838500E0,-2.902657092E-1,-1.564862132E-1,-9.900380373E-1
1.948838500E0,-3.365867436E-1,-1.021890268E-1,-1.038470864E0
1.950838500E0,-3.962071836E-1,-4.417428374E-2,-1.082662582E0
1.952838500E0,-4.664741457E-1,1.703441329E-2,-1.123642921E0
1.954838500E0,-5.441936851E-1,7.398450375E-2,-1.161970377E0
1.956838500E0,-6.256307364E-1,1.229584441E-1,-1.196580291E0
1.959421313E0,-7.081499100E-1,1.644798219E-1,-1.225325823E0
1.960863500E0,-7.869340777E-1,2.012190074E-1,-1.247683525E0
1.962896313E0,-8.582481742E-1,2.358288914E-1,-1.262047529E0
1.964838500E0,-9.178860784E-1,2.752209604E-1,-1.267370820E0
1.966838500E0,-9.615367651E-1,3.220481575E-1,-1.265782595E0
1.968838500E0,-9.918705821E-1,3.731688559E-1,-1.256200671E0
1.970838500E0,-1.011575341E0,4.216017425E-1,-1.239689946E0
1.972838500E0,-1.021680832E0,4.652524292E-1,-1.216267586E0
1.974838500E0,-1.026986599E0,5.035973191E-1,-1.186998367E0
1.976838500E0,-1.026463032E0,5.381897092E-1,-1.152929544E0
1.979419750E0,-1.016357541E0,5.679999590E-1,-1.114602208E0
1.980861938E0,-9.998642206E-1,5.887519121E-1,-1.072557211E0
1.982883813E0,-9.775065780E-1,5.972691178E-1,-1.028889060E0
1.984838500E0,-9.503492117E-1,5.919458866E-1,-9.841737151E-1
1.986838500E0,-9.178860784E-1,5.759761333E-1,-9.383937120E-1
1.989176000E0,-8.795586824E-1,5.525537729E-1,-8.904844522E-1
1.990861938E0,-8.385434151E-1,5.259549618E-1,-8.415104747E-1
1.992838500E0,-7.959573865E-1,4.966683388E-1,-7.920129299E-1
1.994838500E0,-7.539124489E-1,4.642052054E-1,-7.419743538E-1
1.996838500E0,-7.129146457E-1,4.301363826E-1,-6.908711195E-1
1.999461938E0,-6.719168425E-1,3.960675597E-1,-6.397678852E-1
2.000863500E0,-6.330658197E-1,3.593283892E-1,-5.907939672E-1
2.002836938E0,-5.963615775E-1,3.220481575E-1,-5.423436165E-1
2.004838500E0,-5.622926950E-1,2.837381661E-1,-4.923050106E-1
2.006838500E0,-5.298121572E-1,2.454107404E-1,-4.417428374E-1
2.008838500E0,-4.978726208E-1,2.091951668E-1,-3.906396031E-1
2.010838500E0,-4.638037980E-1,1.756673902E-1,-3.416656554E-1
2.012838500E0,-4.286703169E-1,1.458571702E-1,-2.958856523E-1
2.014838500E0,-3.972543776E-1,1.181762442E-1,-2.543642819E-1
2.016838500E0,-3.738146126E-1,8.677776903E-2,-2.176250964E-1
2.019421313E0,-3.583859205E-1,5.431464687E-2,-1.835562736E-1
2.021316625E0,-3.477568626E-1,2.874557301E-2,-1.489638537E-1
2.022838500E0,-3.360456824E-1,1.649336144E-2,-1.143539697E-1
2.024880688E0,-3.190112710E-1,1.809906401E-2,-8.295550197E-2
2.026838500E0,-2.987829149E-1,2.661627159E-2,-5.846852809E-2
2.028838500E0,-2.780309618E-1,3.672172874E-2,-3.982841223E-2
2.030838500E0,-2.588672340E-1,4.365068302E-2,-2.385865152E-2
2.032838500E0,-2.418328226E-1,4.949753731E-2,-1.108284108E-2
2.034838500E0,-2.338392138E-1,5.269148946E-2,-5.759586580E-3
2.036838500E0,-2.184105068E-1,5.962044746E-2,4.328416660E-3
2.039418188E0,-1.917942315E-1,7.026695460E-2,2.029817924E-2
2.040863500E0,-1.731541157E-1,7.665485889E-2,2.988003753E-2
2.042885375E0,-1.635722518E-1,7.878416032E-2,3.413863853E-2
2.044838500E0,-1.438674927E-1,8.091346174E-2,4.159119725E-2
2.046838500E0,-1.247212291E-1,7.932521403E-2,5.010840297E-2
2.048838500E0,-1.076693609E-1,7.506661117E-2,5.862560868E-2
2.050838500E0,-9.274679422E-2,7.028441131E-2,6.768386811E-2
2.052838500E0,-8.105309308E-2,6.709045917E-2,7.726572454E-2
2.054838500E0,-7.253587991E-2,6.496115774E-2,8.843583614E-2
2.056838500E0,-6.934192777E-2,6.281439960E-2,9.801769257E-2
2.059421313E0,-7.627088577E-2,6.174974889E-2,1.113345549E-1
2.060865063E0,-8.159413934E-2,6.229080260E-2,1.145285070E-1
2.062891625E0,-9.704030305E-2,6.600835174E-2,1.198343039E-1
2.064838500E0,-1.167276204E-1,7.665485889E-2,1.235693097E-1
2.066838500E0,-1.380206347E-1,9.529497474E-2,1.262396574E-1
2.068838500E0,-1.614429504E-1,1.208291426E-1,1.294336170E-1
2.070838500E0,-1.869945824E-1,1.548979729E-1,1.310218722E-1
2.072838500E0,-2.146755010E-1,1.964368075E-1,1.310218722E-1
2.074838500E0,-2.423389703E-1,2.427578419E-1,1.288925707E-1
2.076838500E0,-2.689726949E-1,2.922553718E-1,1.241103634E-1
2.079419750E0,-3.046472073E-1,3.726277947E-1,1.166578084E-1
2.080861938E0,-3.131644130E-1,4.003087282E-1,1.145285070E-1
2.082891625E0,-3.243345320E-1,4.599291682E-1,1.092052534E-1
2.084838500E0,-3.280695379E-1,5.190085769E-1,1.054702476E-1
2.086838500E0,-3.238109350E-1,5.749114752E-1,1.022762954E-1
2.088838500E0,-3.110351264E-1,6.228207350E-1,1.001469940E-1
2.090838500E0,-2.918539643E-1,6.648831964E-1,9.908234328E-2
2.092838500E0,-2.652376890E-1,7.000166774E-1,9.908234328E-2
2.094838500E0,-2.327745557E-1,7.292858362E-1,9.908234328E-2
2.096838500E0,-1.955117881E-1,7.516434789E-1,9.962339699E-2
2.099419750E0,-1.316327304E-1,7.729365230E-1,9.908234328E-2
2.101316625E0,-8.691739291E-2,7.788008451E-1,9.855873883E-2
2.102838500E0,-6.401867419E-2,7.793244123E-1,9.695304185E-2
2.104893188E0,-1.610938832E-2,7.793244123E-1,9.269443899E-2
2.106838500E0,3.178244457E-2,7.772125602E-1,8.791223168E-2
2.108838500E0,8.021533489E-2,7.729365230E-1,8.258897811E-2
2.110838500E0,1.286482215E-1,7.676132321E-1,7.833037525E-2
2.112838500E0,1.744282097E-1,7.596196532E-1,7.513642311E-2
2.114838500E0,2.154259831E-1,7.479259372E-1,7.300712168E-2
2.116838500E0,2.532298267E-1,7.324797511E-1,7.140141726E-2
2.119419750E0,2.979451418E-1,7.042752504E-1,6.927211583E-2
2.120861938E0,3.096563220E-1,6.936287284E-1,6.820746511E-2
2.122890063E0,3.288200200E-1,6.717946529E-1,6.555456668E-2
2.124838500E0,3.415783942E-1,6.510426998E-1,6.448991597E-2
2.126838500E0,3.485073447E-1,6.318789721E-1,6.288421154E-2
2.128838500E0,3.500955999E-1,6.121742129E-1,6.181956083E-2
2.130838500E0,3.490134776E-1,5.945813060E-1,6.234316155E-2
2.132838500E0,3.442312777E-1,5.796762109E-1,6.607816368E-2
2.134838500E0,3.378433883E-1,5.685061216E-1,7.246606797E-2
2.136838500E0,3.277379274E-1,5.578770638E-1,8.045967668E-2
2.139419750E0,3.107209802E-1,5.451012254E-1,9.801769257E-2
2.140861938E0,3.053802550E-1,5.424308777E-1,1.049466506E-1
2.142893188E0,2.942101657E-1,5.371250510E-1,1.187871099E-1
2.144838500E0,2.824989855E-1,5.323254466E-1,1.331511736E-1
2.146838500E0,2.697406411E-1,5.291489363E-1,1.507266313E-1
2.148838500E0,2.558827102E-1,5.286078453E-1,1.693492979E-1
2.150838500E0,2.409776151E-1,5.318018198E-1,1.869247556E-1
2.152838500E0,2.250078470E-1,5.397779942E-1,1.997005790E-1
2.154838500E0,2.037148327E-1,5.482951999E-1,2.066120803E-1
2.156838500E0,1.787042618E-1,5.616120696E-1,2.140646279E-1
2.159418188E0,1.371828765E-1,5.892929435E-1,2.295107991E-1
2.160865063E0,1.228013635E-1,5.993984342E-1,2.348340452E-1
2.162886938E0,9.618509561E-2,6.222971678E-1,2.470688075E-1
2.164838500E0,7.063347101E-2,6.425254941E-1,2.587799728E-1
2.166838500E0,4.562290758E-2,6.584952474E-1,2.683618367E-1
2.168663500E0,2.218313515E-2,6.728593111E-1,2.752907872E-1
2.170838500E0,1.954768784E-3,6.840294600E-1,2.795493901E-1
2.172838500E0,-1.558579039E-2,6.904173493E-1,2.806140482E-1
2.174838500E0,-3.103195317E-2,6.920230389E-1,2.795493901E-1
2.176838500E0,-4.379031062E-2,6.872408390E-1,2.747497261E-1
2.179419750E0,-6.084217876E-2,6.670124531E-1,2.657089233E-1
2.181451000E0,-6.934192777E-2,6.478487849E-1,2.577153146E-1
2.182674438E0,-7.305948436E-2,6.388079524E-1,2.529331148E-1
2.184874438E0,-8.159413934E-2,6.212150455E-1,2.428102046E-1
2.186838500E0,-8.852309734E-2,6.047216654E-1,2.332283407E-1
2.188838500E0,-9.649925679E-2,5.908812284E-1,2.225818336E-1
2.190838500E0,-1.050164625E-1,5.775643587E-1,2.129999846E-1
2.192847875E0,-1.145983189E-1,5.632002950E-1,2.018298805E-1
2.194838500E0,-1.241801754E-1,5.482951999E-1,1.895776689E-1
2.196838500E0,-1.353502870E-1,5.360604525E-1,1.762782484E-1
2.199419750E0,-1.539904028E-1,5.163556337E-1,1.560498923E-1
2.200861938E0,-1.598547101E-1,5.089030862E-1,1.491209269E-1
2.202836938E0,-1.736777127E-1,4.966683388E-1,1.352804750E-1
2.204838500E0,-1.853888780E-1,4.865454435E-1,1.203753576E-1
2.206838500E0,-1.971000284E-1,4.796339273E-1,1.075995490E-1
2.208846313E0,-2.093522400E-1,4.758989215E-1,9.375908971E-2
2.210838500E0,-2.216044515E-1,4.700346291E-1,7.991862297E-2
2.212838500E0,-2.338392138E-1,4.636467099E-1,6.768386811E-2
2.214838500E0,-2.466150224E-1,4.588645101E-1,5.649630725E-2
2.216847875E0,-2.593908310E-1,4.535412490E-1,4.797910154E-2
2.219466625E0,-2.774899006E-1,4.412890375E-1,4.000294581E-2
2.220865063E0,-2.844013870E-1,4.349185824E-1,3.893829510E-2
2.222896313E0,-2.982418537E-1,4.216191769E-1,3.733259439E-2
2.224838500E0,-3.126059175E-1,4.072376788E-1,3.787364438E-2
2.226849438E0,-3.291167319E-1,3.907442987E-1,4.052654654E-2
2.228838500E0,-3.461511433E-1,3.752981424E-1,4.478514940E-2
2.230838500E0,-3.637091517E-1,3.603930473E-1,5.064945295E-2
2.232838500E0,-3.828903437E-1,3.465525806E-1,5.810201168E-2
2.234855688E0,-4.025776386E-1,3.348414302E-1,6.714281440E-2
2.236838500E0,-4.243942499E-1,3.204773664E-1,7.778932154E-2
2.239419750E0,-4.600687921E-1,2.986432910E-1,9.375908971E-2
2.240861938E0,-4.728271365E-1,2.917317748E-1,9.908234328E-2
2.242907250E0,-4.994608760E-1,2.784149349E-1,1.081406027E-1
2.244838500E0,-5.255186558E-1,2.683094740E-1,1.177224591E-1
2.246838500E0,-5.521523356E-1,2.608568966E-1,1.278279126E-1
2.248838500E0,-5.782450438E-1,2.539279461E-1,1.374097764E-1
2.250838500E0,-6.032556295E-1,2.480811030E-1,1.475326866E-1
2.252838500E0,-6.261543036E-1,2.443460971E-1,1.576381326E-1
2.254838500E0,-6.479709148E-1,2.416931987E-1,1.682846397E-1
2.256838500E0,-6.687229276E-1,2.400874943E-1,1.784075499E-1
2.259419750E0,-6.884276867E-1,2.363699377E-1,1.869247556E-1
2.261230688E0,-7.070503235E-1,2.321113348E-1,1.949009150E-1
2.262838500E0,-7.235611677E-1,2.273291349E-1,2.012888193E-1
2.264838500E0,-7.374016047E-1,2.225294858E-1,2.076767236E-1
2.266851000E0,-7.475070357E-1,2.177472711E-1,2.129999846E-1
2.268838500E0,-7.555181384E-1,2.166651785E-1,2.151292861E-1
2.270838500E0,-7.597767115E-1,2.171887755E-1,2.161939293E-1
2.272838500E0,-7.608413696E-1,2.187944800E-1,2.177996337E-1
2.274838500E0,-7.597592473E-1,2.193355262E-1,2.183232307E-1
2.276844750E0,-7.565653324E-1,2.214648277E-1,2.167349905E-1
2.279418188E0,-7.512420416E-1,2.235941291E-1,2.146056890E-1
2.280865063E0,-7.437894940E-1,2.273116857E-1,2.135410309E-1
2.282841625E0,-7.352722883E-1,2.326349318E-1,2.140646279E-1
2.284838500E0,-7.267550826E-1,2.374345958E-1,2.135410309E-1
2.286857250E0,-7.177143097E-1,2.395638973E-1,2.129999846E-1
2.288838500E0,-7.075913548E-1,2.422342449E-1,2.114117295E-1
2.290838500E0,-6.969448924E-1,2.438225001E-1,2.108706832E-1
2.292838500E0,-6.847101450E-1,2.459518015E-1,2.098060250E-1
2.294851000E0,-6.713932753E-1,2.470164448E-1,2.103470862E-1
2.296838500E0,-6.554234624E-1,2.480811030E-1,2.114117295E-1
2.299419750E0,-6.383890510E-1,2.518160939E-1,2.135410309E-1
2.300863500E0,-6.187017560E-1,2.571218908E-1,2.151292861E-1
2.302838500E0,-5.979323387E-1,2.645744681E-1,2.151292861E-1
2.304838500E0,-5.771978498E-1,2.736152709E-1,2.151292861E-1
2.306838500E0,-5.559048057E-1,2.842617631E-1,2.135410309E-1
2.308838500E0,-5.335296988E-1,2.991843522E-1,2.124763876E-1
2.310838500E0,-5.111720562E-1,3.140894473E-1,2.092824280E-1
2.312838500E0,-4.882907569E-1,3.284535110E-1,2.071531266E-1
2.314838500E0,-4.664566815E-1,3.422939777E-1,2.050238252E-1
2.316838500E0,-4.457047284E-1,3.540051281E-1,2.023534775E-1
2.319441625E0,-4.265410006E-1,3.630459309E-1,1.986359209E-1
2.320844750E0,-4.068362415E-1,3.726452589E-1,1.938362718E-1
2.322890063E0,-3.892607689E-1,3.806214035E-1,1.890540570E-1
2.324838500E0,-3.748967350E-1,3.886150122E-1,1.826661527E-1
2.326851000E0,-3.621209264E-1,3.955265284E-1,1.741489470E-1
2.328838500E0,-3.514744043E-1,4.003087282E-1,1.645670980E-1
2.330836938E0,-3.429571986E-1,4.056319594E-1,1.528559327E-1
2.332838500E0,-3.376339376E-1,4.093669653E-1,1.390154809E-1
2.334838500E0,-3.355220854E-1,4.082848728E-1,1.246339604E-1
2.336838500E0,-3.365867436E-1,4.018969536E-1,1.097288504E-1
2.339421313E0,-3.408453465E-1,3.912504613E-1,9.642943740E-2
2.341318188E0,-3.451039493E-1,3.800803423E-1,8.417722583E-2
2.343347875E0,-3.498861492E-1,3.656988442E-1,6.981316954E-2
2.344855688E0,-3.557330072E-1,3.497465253E-1,5.490805954E-2
2.346838500E0,-3.632030189E-1,3.327121139E-1,4.265584797E-2
2.348838500E0,-3.711791635E-1,3.135483861E-1,3.200933710E-2
2.350852563E0,-3.802374303E-1,2.917143404E-1,2.242748067E-2
2.352838500E0,-3.903428912E-1,2.661627233E-1,1.445132587E-2
2.354838500E0,-4.025776386E-1,2.374171317E-1,8.063420653E-3
2.356838500E0,-4.169766009E-1,2.038719058E-1,4.852015525E-3
2.359419750E0,-4.345346093E-1,1.666091233E-1,1.675516134E-3
2.360886938E0,-4.531572759E-1,1.261698455E-1,-1.500983140E-3
2.362836938E0,-4.723210037E-1,8.464846760E-2,-3.630284918E-3
2.364838500E0,-4.909436703E-1,4.260348529E-2,-4.694935866E-3
2.366868188E0,-5.085191131E-1,5.410520826E-4,-4.694935866E-3
2.368838500E0,-5.218185186E-1,-3.989822790E-2,-2.042035107E-3
2.370838500E0,-5.335296988E-1,-7.822565734E-2,2.740166849E-3
2.372838500E0,-5.388529301E-1,-1.122944802E-1,9.651671164E-3
2.374838500E0,-5.383293629E-1,-1.394518018E-1,1.923352852E-2
2.376838500E0,-5.298121572E-1,-1.586155146E-1,3.200933710E-2
2.379421313E0,-5.138424039E-1,-1.692620367E-1,4.797910154E-2
2.380861938E0,-4.904200733E-1,-1.719149351E-1,6.448991597E-2
2.382896313E0,-4.595451951E-1,-1.687384248E-1,8.098327368E-2
2.384838500E0,-4.206941724E-1,-1.575508714E-1,9.908234328E-2
2.386838500E0,-3.759788275E-1,-1.399928629E-1,1.161167547E-1
2.388838500E0,-3.275284767E-1,-1.101651788E-1,1.294336170E-1
2.390838500E0,-2.785370946E-1,-7.555530220E-2,1.395390779E-1
2.392840063E0,-2.285159528E-1,-4.628613219E-2,1.491209269E-1
2.394838500E0,-1.779537648E-1,-2.446951531E-2,1.603084952E-1
2.396838500E0,-1.529257447E-1,-1.436406001E-2,1.661553383E-1
2.399463500E0,-7.785914093E-2,1.225221157E-2,1.831897646E-1
2.400863500E0,-2.727949619E-2,2.715732343E-2,1.927716136E-1
2.402908813E0,-2.792526735E-3,3.354522958E-2,1.980948746E-1
2.404838500E0,4.668755829E-2,4.632103816E-2,2.071531266E-1
2.406838500E0,9.459684789E-2,5.909684673E-2,2.156703323E-1
2.408838500E0,1.398357749E-1,7.239625603E-2,2.209935933E-1
2.410838500E0,1.845511198E-1,8.410741389E-2,2.241875380E-1
2.412838500E0,2.271371484E-1,9.794788063E-2,2.247111350E-1
2.414838500E0,2.670702934E-1,1.144586951E-1,2.236464918E-1
2.416838500E0,3.037919998E-1,1.336224079E-1,2.215171903E-1
2.419422875E0,3.565184176E-1,1.655619293E-1,2.177996337E-1
2.421316625E0,3.868347704E-1,1.879196018E-1,2.183232307E-1
2.422838500E0,4.006752372E-1,1.996307522E-1,2.199289352E-1
2.424877563E0,4.251796603E-1,2.219884247E-1,2.231228948E-1
2.426838500E0,4.464726746E-1,2.427578419E-1,2.263168395E-1
2.428838500E0,4.650953412E-1,2.624451518E-1,2.310990393E-1
2.430838500E0,4.832118452E-1,2.789559662E-1,2.390926480E-1
2.432838500E0,5.007873178E-1,2.922728360E-1,2.491981089E-1
2.434838500E0,5.183453560E-1,3.029018939E-1,2.598446310E-1
2.436838500E0,5.353623033E-1,3.130247891E-1,2.704911232E-1
2.439421313E0,5.662546158E-1,3.295356035E-1,2.870019376E-1
2.440863500E0,5.779657960E-1,3.375117779E-1,2.917841375E-1
2.442902563E0,6.034999490E-1,3.571990728E-1,3.008424044E-1
2.444838500E0,6.322455406E-1,3.795567453E-1,3.109478652E-1
2.446838500E0,6.663143635E-1,4.029790759E-1,3.221354187E-1
2.448838500E0,7.046417594E-1,4.253367484E-1,3.364994824E-1
2.450838500E0,7.477688789E-1,4.429121912E-1,3.514045775E-1
2.452838500E0,7.951371074E-1,4.540823102E-1,3.663097024E-1
2.454838500E0,8.451756835E-1,4.572762549E-1,3.801501691E-1
2.456838500E0,8.983907700E-1,4.519355595E-1,3.929259777E-1
2.459418188E0,9.787806273E-1,4.226663709E-1,4.115660787E-1
2.460865063E0,1.005396962E0,4.093669653E-1,4.184775949E-1
2.462902563E0,1.059694052E0,3.784920871E-1,4.349884093E-1
2.464838500E0,1.112403035E0,3.417529166E-1,4.530874789E-1
2.466838500E0,1.162965178E0,3.012961745E-1,4.711865485E-1
2.468838500E0,1.211939216E0,2.544515431E-1,4.882209599E-1
2.470838500E0,1.257178068E0,2.017426044E-1,5.036496520E-1
2.472838500E0,1.298175931E0,1.431868076E-1,5.185547471E-1
2.474838500E0,1.335979700E0,8.091346174E-2,5.340009332E-1
2.476838500E0,1.371113181E0,1.809906401E-2,5.478413701E-1
2.479418188E0,1.417940378E0,-8.143706620E-2,5.611408353E-1
2.480865063E0,1.431257248E0,-1.165705398E-1,5.643347502E-1
2.482894750E0,1.456808925E0,-1.879021525E-1,5.670050979E-1
2.484838500E0,1.478101850E0,-2.613455951E-1,5.664640665E-1
2.486838500E0,1.495677352E0,-3.364122212E-1,5.632700920E-1
2.488838500E0,1.511123538E0,-4.135906696E-1,5.568822026E-1
2.490838500E0,1.524963975E0,-4.918337762E-1,5.515589714E-1
2.492838500E0,1.535610437E0,-5.690296888E-1,5.457121134E-1
2.494838500E0,1.547339082E0,-6.435378194E-1,5.382595658E-1
2.496838500E0,1.558509231E0,-7.159340382E-1,5.334599018E-1
2.499463500E0,1.570220351E0,-8.240048289E-1,5.297423601E-1
2.501193188E0,1.568614602E0,-8.995950818E-1,5.276130438E-1
2.502838500E0,1.564338565E0,-9.390046000E-1,5.265483856E-1
2.504838500E0,1.546780586E0,-1.019918084E0,5.249426961E-1
2.506838500E0,1.518576026E0,-1.101355076E0,5.212251544E-1
2.508838500E0,1.481295824E0,-1.179074645E0,5.169665217E-1
2.510838500E0,1.438168764E0,-1.247229695E0,5.132315159E-1
2.512838500E0,1.394518018E0,-1.302050471E0,5.073846579E-1
2.514838500E0,1.352473140E0,-1.341966152E0,4.999321103E-1
2.516838500E0,1.315751314E0,-1.366453171E0,4.919385016E-1
2.519422875E0,1.274753571E0,-1.375511408E0,4.759687483E-1
2.520838500E0,1.264648080E0,-1.372841120E0,4.690572321E-1
2.522899438E0,1.248678327E0,-1.366994262E0,4.520228207E-1
2.524838500E0,1.234837890E0,-1.363800287E0,4.323180616E-1
2.526838500E0,1.222585678E0,-1.366453171E0,4.094367921E-1
2.528838500E0,1.211939216E0,-1.374970436E0,3.822794557E-1
2.530663500E0,1.204504013E0,-1.385075808E0,3.519456387E-1
2.532838500E0,1.200227976E0,-1.389875531E0,3.168121576E-1
2.534838500E0,1.201833725E0,-1.383487582E0,2.784847319E-1
2.536838500E0,1.210350871E0,-1.364323854E0,2.385516018E-1
2.539421313E0,1.234855294E0,-1.313203216E0,1.741489470E-1
2.541010375E0,1.244960785E0,-1.290862918E0,1.517912894E-1
2.542661938E0,1.269447803E0,-1.238677621E0,1.065348983E-1
2.544838500E0,1.296605110E0,-1.176927924E0,5.916666240E-2
2.546838500E0,1.324809670E0,-1.103466988E0,9.128072299E-3
2.548838500E0,1.351425886E0,-1.017230272E0,-4.249876738E-2
2.550838500E0,1.371654272E0,-9.219527245E-1,-9.412560612E-2
2.552838500E0,1.381759763E0,-8.202872872E-1,-1.436405927E-1
2.554838500E0,1.379630446E0,-7.111518383E-1,-1.894205809E-1
2.556838500E0,1.363137007E0,-5.999045968E-1,-2.298773080E-1
2.559421313E0,1.313621998E0,-4.364719391E-1,-2.836334705E-1
2.560861938E0,1.292329073E0,-3.853687048E-1,-2.996032238E-1
2.562891625E0,1.243355155E0,-2.874208093E-1,-3.304781020E-1
2.564838500E0,1.193333983E0,-1.942725927E-1,-3.608293831E-1
2.566838500E0,1.144360065E0,-1.053655297E-1,-3.922278285E-1
2.568838500E0,1.097515345E0,-2.286381274E-2,-4.241673648E-1
2.570838500E0,1.053847194E0,5.164429173E-2,-4.566479325E-1
2.572838500E0,1.014978766E0,1.208465993E-1,-4.901757240E-1
2.574838500E0,9.814509749E-1,1.841845959E-1,-5.231798887E-1
2.576838500E0,9.553757906E-1,2.374345958E-1,-5.556604862E-1
2.579460375E0,9.308888316E-1,2.943846881E-1,-6.025050879E-1
2.581190063E0,9.276948571E-1,3.077015579E-1,-6.179338098E-1
2.582838500E0,9.276948571E-1,3.295181692E-1,-6.498733163E-1
2.584838500E0,9.346063733E-1,3.460289836E-1,-6.818128824E-1
2.586838500E0,9.484468102E-1,3.619812727E-1,-7.148170471E-1
2.588838500E0,9.665458798E-1,3.774274588E-1,-7.478212118E-1
2.590838500E0,9.894446135E-1,3.944618702E-1,-7.803018093E-1
2.592838500E0,1.018172741E0,4.104316235E-1,-8.106356263E-1
2.594838500E0,1.052800059E0,4.237484932E-1,-8.361872435E-1
2.596838500E0,1.091127515E0,4.312185049E-1,-8.558920026E-1
2.599421313E0,1.143818974E0,4.221427739E-1,-8.755792975E-1
2.600861938E0,1.158724070E0,4.146902263E-1,-8.793143034E-1
2.602897875E0,1.182652593E0,3.902032673E-1,-8.851611614E-1
2.604838500E0,1.193316460E0,3.486818671E-1,-8.904844522E-1
2.606838500E0,1.192251801E0,2.901260853E-1,-8.990016580E-1
2.608838500E0,1.178935051E0,2.214473784E-1,-9.096481204E-1
2.610838500E0,1.156053782E0,1.495921761E-1,-9.219003320E-1
2.612838500E0,1.127308130E0,8.038986474E-2,-9.351997972E-1
2.614838500E0,1.095368624E0,2.076941729E-2,-9.479755759E-1
2.616838500E0,1.062888026E0,-2.818706818E-2,-9.586220980E-1
2.619422875E0,1.029360294E0,-6.651449949E-2,-9.666156769E-1
2.620865063E0,9.979443550E-1,-9.632471949E-2,-9.745918512E-1
2.622888500E0,9.665458798E-1,-1.229409948E-1,-9.831090569E-1
2.624838500E0,9.362120628E-1,-1.479515582E-1,-9.926909208E-1
2.626838500E0,9.090547562E-1,-1.703092307E-1,-1.001208067E0
2.628838500E0,8.829795122E-1,-1.926668882E-1,-1.008137107E0
2.630838500E0,8.568868637E-1,-2.139599174E-1,-1.011331081E0
2.632838500E0,8.329234719E-1,-2.326000333E-1,-1.011331081E0
2.634838500E0,8.095011711E-1,-2.475051433E-1,-1.007596016E0
2.636838500E0,7.866024375E-1,-2.571044564E-1,-1.002272725E0
2.639422875E0,7.653093934E-1,-2.661452591E-1,-9.932319522E-1
2.640865063E0,7.450810671E-1,-2.730567753E-1,-9.820443988E-1
2.642894750E0,7.248526812E-1,-2.799857259E-1,-9.703332186E-1
2.644838500E0,7.057064176E-1,-2.853089571E-1,-9.586220980E-1
2.646838500E0,6.860016584E-1,-2.879618704E-1,-9.463873506E-1
2.648838500E0,6.657732725E-1,-2.879618704E-1,-9.351997972E-1
2.650838500E0,6.439566612E-1,-2.863736153E-1,-9.229649901E-1
2.652838500E0,6.210579872E-1,-2.831796706E-1,-9.096481204E-1
2.654838500E0,5.960474014E-1,-2.778564095E-1,-8.963487148E-1
2.656838500E0,5.715604424E-1,-2.719921172E-1,-8.819672465E-1
2.659419750E0,5.465323925E-1,-2.656041980E-1,-8.665385246E-1
2.661316625E0,5.220454335E-1,-2.586927116E-1,-8.489630222E-1
2.662838500E0,4.996877611E-1,-2.523047924E-1,-8.314050436E-1
2.664874438E0,4.773300886E-1,-2.448522449E-1,-8.133059740E-1
2.666838500E0,4.560545385E-1,-2.368586361E-1,-7.946658731E-1
2.668838500E0,4.358261526E-1,-2.320589721E-1,-7.760431767E-1
2.670838500E0,4.161388576E-1,-2.278003693E-1,-7.579441071E-1
2.672838500E0,3.969751298E-1,-2.246064246E-1,-7.366511226E-1
2.674838500E0,3.772703707E-1,-2.208888680E-1,-7.142934203E-1
2.676838500E0,3.565184176E-1,-2.182185203E-1,-6.919357777E-1
2.679421313E0,3.373546898E-1,-2.144835144E-1,-6.695781350E-1
2.680861938E0,3.155206144E-1,-2.102423608E-1,-6.472204328E-1
2.682886938E0,2.931629419E-1,-2.054427117E-1,-6.237981319E-1
2.684838500E0,2.697231770E-1,-1.985311955E-1,-6.003758311E-1
2.686838500E0,2.447126210E-1,-1.900139898E-1,-5.769534707E-1
2.689176000E0,2.186373919E-1,-1.804146916E-1,-5.535311699E-1
2.690861938E0,1.925447285E-1,-1.681799293E-1,-5.295677781E-1
2.692838500E0,1.664520502E-1,-1.559451669E-1,-5.056219101E-1
2.694838500E0,1.403768361E-1,-1.431693584E-1,-4.816585183E-1
2.696838500E0,1.158898622E-1,-1.303935498E-1,-4.571715295E-1
2.699419750E0,9.140289575E-2,-1.186823919E-1,-4.321609735E-1
2.700863500E0,6.850416958E-2,-1.091005281E-1,-4.087386429E-1
2.702905688E0,4.668755829E-2,-1.005833223E-1,-3.842516840E-1
2.704838500E0,2.593559213E-2,-9.419541806E-2,-3.597647250E-1
2.706838500E0,6.754423957E-3,-9.154251963E-2,-3.347367048E-1
2.708838500E0,-1.024508290E-2,-9.313076735E-2,-3.102497160E-1
2.710838500E0,-2.727949619E-2,-9.632471949E-2,-2.873684466E-1
2.712838500E0,-4.218460619E-2,-1.021715775E-1,-2.655344009E-1
2.714838500E0,-5.708971992E-2,-1.096241325E-1,-2.431767285E-1
2.716838500E0,-6.986553222E-2,-1.176177412E-1,-2.202954590E-1
2.719424438E0,-8.210028708E-2,-1.277231872E-1,-1.973967403E-1
2.720838500E0,-9.543460608E-2,-1.399753988E-1,-1.734508276E-1
2.722876000E0,-1.082104146E-1,-1.500983089E-1,-1.484227926E-1
2.724838500E0,-1.209862232E-1,-1.602037698E-1,-1.239358261E-1
2.726838500E0,-1.348092258E-1,-1.687209755E-1,-9.731955826E-2
2.728838500E0,-1.491732895E-1,-1.745678335E-1,-6.857398897E-2
2.730838500E0,-1.630312055E-1,-1.799085438E-1,-4.089306295E-2
2.732838500E0,-1.752834171E-1,-1.836260855E-1,-1.481784508E-2
2.734838500E0,-1.864535213E-1,-1.878846884E-1,8.587019518E-3
2.736838500E0,-1.960179210E-1,-1.921258420E-1,3.467969224E-2
2.739421313E0,-2.055823356E-1,-1.958433986E-1,6.023131311E-2
2.741316625E0,-2.141169906E-1,-1.985137463E-1,8.684758097E-2
2.742838500E0,-2.226516455E-1,-2.006604970E-1,1.134638563E-1
2.744877563E0,-2.311688513E-1,-2.017251551E-1,1.395390779E-1
2.746838500E0,-2.412743121E-1,-2.022487521E-1,1.661553383E-1
2.748838500E0,-2.519208193E-1,-2.011841089E-1,1.938362718E-1
2.750838500E0,-2.636319697E-1,-1.985311955E-1,2.209935933E-1
2.752838500E0,-2.774550021E-1,-1.958608478E-1,2.481334656E-1
2.754838500E0,-2.923600972E-1,-1.921258420E-1,2.758143842E-1
2.756838500E0,-3.088709116E-1,-1.884082854E-1,3.024306595E-1
2.759418188E0,-3.259053230E-1,-1.841496825E-1,3.295879662E-1
2.760865063E0,-3.456101120E-1,-1.793500334E-1,3.551395833E-1
2.762891625E0,-3.562566042E-1,-1.766971350E-1,3.668507636E-1
2.764838500E0,-3.764849603E-1,-1.713738739E-1,3.907966614E-1
2.766838500E0,-3.983190358E-1,-1.650034338E-1,4.131543338E-1
2.768838500E0,-4.212177694E-1,-1.586155146E-1,4.339237511E-1
2.770838500E0,-4.446400702E-1,-1.516865641E-1,4.536110759E-1
2.772838500E0,-4.696506560E-1,-1.447750628E-1,4.722511768E-1
2.774838500E0,-4.946612120E-1,-1.383697093E-1,4.892855883E-1
2.776838500E0,-5.191481709E-1,-1.325054020E-1,5.057789683E-1
2.779418188E0,-5.606695414E-1,-1.234645918E-1,5.292012691E-1
2.780865063E0,-5.745100379E-1,-1.197470427E-1,5.361302495E-1
2.782891625E0,-6.027320027E-1,-1.133591309E-1,5.494296551E-1
2.784838500E0,-6.325422525E-1,-1.091005281E-1,5.611408353E-1
2.786838500E0,-6.612703204E-1,-1.064301804E-1,5.712637305E-1
2.788838500E0,-6.910980344E-1,-1.053655297E-1,5.813691616E-1
2.790838500E0,-7.214318514E-1,-1.074948311E-1,5.893628001E-1
2.792838500E0,-7.523066998E-1,-1.133591309E-1,5.989446640E-1
2.794838500E0,-7.821169496E-1,-1.223999411E-1,6.063972116E-1
2.796838500E0,-8.114035726E-1,-1.357167959E-1,6.127851009E-1
2.799421313E0,-8.518602848E-1,-1.633977294E-1,6.207612753E-1
2.800865063E0,-8.646186590E-1,-1.750914305E-1,6.228905320E-1
2.802913500E0,-8.912523985E-1,-2.017251551E-1,6.271491647E-1
2.804838500E0,-9.168040156E-1,-2.309943289E-1,6.303431392E-1
2.806838500E0,-9.396852851E-1,-2.639985085E-1,6.335370541E-1
2.808838500E0,-9.604372382E-1,-3.001966178E-1,6.356663704E-1
2.810838500E0,-9.806656241E-1,-3.395887017E-1,6.377956867E-1
2.812838500E0,-1.000370383E0,-3.837804496E-1,6.399249434E-1
2.814838500E0,-1.020075083E0,-4.306250811E-1,6.425953507E-1
2.816838500E0,-1.039238811E0,-4.817283154E-1,6.457892656E-1
2.819424438E0,-1.064266920E0,-5.610535145E-1,6.511125565E-1
2.821199438E0,-1.080219150E0,-6.153332591E-1,6.548300982E-1
2.822838500E0,-1.087671757E0,-6.430141926E-1,6.564357877E-1
2.824838500E0,-1.099923968E0,-6.973114014E-1,6.590886712E-1
2.826838500E0,-1.110029459E0,-7.489382029E-1,6.622826457E-1
2.828838500E0,-1.116417289E0,-7.989768386E-1,6.665412188E-1
2.830838500E0,-1.119628668E0,-8.469035625E-1,6.713408828E-1
2.832838500E0,-1.118546605E0,-8.932071328E-1,6.771877408E-1
2.834838500E0,-1.115893722E0,-9.357931614E-1,6.851813793E-1
2.836838500E0,-1.110029459E0,-9.746616483E-1,6.920928359E-1
2.839419750E0,-1.093518615E0,-1.016165614E0,6.990218163E-1
2.840861938E0,-1.087130666E0,-1.025747418E0,7.006100416E-1
2.842896313E0,-1.073831320E0,-1.037999630E0,7.016746998E-1
2.844838500E0,-1.057337880E0,-1.042258263E0,7.000864744E-1
2.846838500E0,-1.037092090E0,-1.035870314E0,6.963514686E-1
2.848838500E0,-1.014734387E0,-1.020965219E0,6.894399524E-1
2.850838500E0,-9.881181717E-1,-9.980665445E-1,6.771877408E-1
2.852838500E0,-9.577668905E-1,-9.671916366E-1,6.596297622E-1
2.854838500E0,-9.253037572E-1,-9.267523885E-1,6.377956867E-1
2.856838500E0,-8.891230822E-1,-8.751080632E-1,6.111794114E-1
2.859418188E0,-8.310908675E-1,-7.862184644E-1,5.675287247E-1
2.860861938E0,-8.103214502E-1,-7.542789578E-1,5.515589714E-1
2.862896313E0,-7.672118545E-1,-6.893352270E-1,5.190958381E-1
2.864838500E0,-7.203671932E-1,-6.227858067E-1,4.866152406E-1
2.866838500E0,-6.698224545E-1,-5.562713146E-1,4.536110759E-1
2.868879125E0,-6.176370978E-1,-4.923748374E-1,4.200832844E-1
2.870838500E0,-5.638635159E-1,-4.295429885E-1,3.860144615E-1
2.872838500E0,-5.095663071E-1,-3.704635799E-1,3.508809805E-1
2.874838500E0,-4.568748474E-1,-3.129724264E-1,3.136182129E-1
2.876838500E0,-4.073598385E-1,-2.597399056E-1,2.763554454E-1
2.879421313E0,-3.392396569E-1,-1.926843524E-1,2.204525322E-1
2.880860375E0,-3.190112710E-1,-1.740442365E-1,2.012888193E-1
2.882896313E0,-2.828131616E-1,-1.469043642E-1,1.645670980E-1
2.884838500E0,-2.513972223E-1,-1.335874945E-1,1.299572140E-1
2.886838500E0,-2.231752574E-1,-1.325228512E-1,9.642943740E-2
2.888838500E0,-1.976236254E-1,-1.452986598E-1,6.607816368E-2
2.890838500E0,-1.747249067E-1,-1.687035263E-1,3.946189582E-2
2.892663500E0,-1.539729387E-1,-2.027723491E-1,1.816887781E-2
2.894838500E0,-1.348092258E-1,-2.442937344E-1,1.675516134E-3
2.896838500E0,-1.182984188E-1,-2.900737226E-1,-1.108284108E-2
2.899463500E0,-9.754645079E-2,-3.656813800E-1,-2.598795295E-2
2.901196313E0,-9.168214351E-2,-3.912155628E-1,-3.078760765E-2
2.902838500E0,-8.264134079E-2,-4.417952001E-1,-3.982841223E-2
2.904847875E0,-7.518878579E-2,-4.907691181E-1,-4.888667166E-2
2.906838500E0,-6.881833076E-2,-5.349608660E-1,-5.633922666E-2
2.908838500E0,-6.455972791E-2,-5.764822364E-1,-6.218608096E-2
2.910838500E0,-6.188937649E-2,-6.158743501E-1,-6.644468755E-2
2.912838500E0,-5.974261835E-2,-6.541842818E-1,-6.750933826E-2
2.914838500E0,-5.869542435E-2,-6.903998852E-1,-6.644468755E-2
2.916838500E0,-5.869542435E-2,-7.244687080E-1,-6.485643238E-2
2.919424438E0,-6.082472578E-2,-7.729015946E-1,-6.218608096E-2
2.920838500E0,-6.188937649E-2,-7.878066897E-1,-6.166248396E-2
2.922879125E0,-6.667158008E-2,-8.154876232E-1,-6.272713095E-2
2.924838500E0,-7.414158434E-2,-8.362570405E-1,-6.644468755E-2
2.926838500E0,-8.318239450E-2,-8.474445939E-1,-7.337363809E-2
2.928838500E0,-9.595820308E-2,-8.458389044E-1,-8.347909898E-2
2.930838500E0,-1.103222594E-1,-8.282634616E-1,-9.731955826E-2
2.932838500E0,-1.273566782E-1,-7.936535478E-1,-1.148950234E-1
2.934838500E0,-1.470439881E-1,-7.473499775E-1,-1.345823407E-1
2.936838500E0,-1.672723591E-1,-6.930527687E-1,-1.580046564E-1
2.939419750E0,-1.954943240E-1,-6.014928222E-1,-2.011317462E-1
2.940863500E0,-2.039940804E-1,-5.716825724E-1,-2.181661576E-1
2.942841625E0,-2.199812979E-1,-5.125857592E-1,-2.548878789E-1
2.944838500E0,-2.354100049E-1,-4.582885504E-1,-2.980149686E-1
2.946838500E0,-2.503151298E-1,-4.119849801E-1,-3.469889164E-1
2.948838500E0,-2.641555667E-1,-3.763104379E-1,-4.018096924E-1
2.950838500E0,-2.774550021E-1,-3.544938266E-1,-4.603655040E-1
2.952838500E0,-2.875953615E-1,-3.422590792E-1,-5.221152306E-1
2.954838500E0,-2.977182567E-1,-3.406708241E-1,-5.859943032E-1
2.956838500E0,-3.067590594E-1,-3.459940553E-1,-6.482850909E-1
2.959418188E0,-3.179466426E-1,-3.630284965E-1,-7.350454330E-1
2.960861938E0,-3.227288425E-1,-3.678106964E-1,-7.605970502E-1
2.962907250E0,-3.339163959E-1,-3.736749887E-1,-8.058534265E-1
2.964838500E0,-3.498861492E-1,-3.694163859E-1,-8.463101387E-1
2.966838500E0,-3.706555665E-1,-3.534640670E-1,-8.809200525E-1
2.968838500E0,-3.951425552E-1,-3.268303573E-1,-9.123185277E-1
2.970838500E0,-4.233296216E-1,-2.932851315E-1,-9.415876865E-1
2.972838500E0,-4.568748474E-1,-2.554813027E-1,-9.698096514E-1
2.974838500E0,-4.946786761E-1,-2.193006128E-1,-9.969494939E-1
2.976838500E0,-5.383293629E-1,-1.910786480E-1,-1.022501111E0
2.979421313E0,-5.862211585E-1,-1.697856337E-1,-1.047529101E0
2.981176000E0,-6.351951361E-1,-1.548805237E-1,-1.070951462E0
2.982838500E0,-6.820397377E-1,-1.463458538E-1,-1.089050531E0
2.984838500E0,-7.246258259E-1,-1.458222568E-1,-1.102890968E0
2.986838500E0,-7.602828741E-1,-1.500808597E-1,-1.111931801E0
2.988838500E0,-7.885048389E-1,-1.543394625E-1,-1.115125775E0
2.990838500E0,-8.092567921E-1,-1.543394625E-1,-1.113537550E0
2.992838500E0,-8.215090036E-1,-1.506219208E-1,-1.106608510E0
2.994838500E0,-8.278969526E-1,-1.415636539E-1,-1.092768073E0
2.996838500E0,-8.305498362E-1,-1.293288916E-1,-1.071475029E0
2.999419750E0,-8.273558617E-1,-1.170766875E-1,-1.044335246E0
3.000860375E0,-8.183150887E-1,-1.058891267E-1,-1.012919307E0
3.002840063E0,-8.060628772E-1,-1.005658731E-1,-9.809797406E-1
3.004838500E0,-7.900931239E-1,-1.005658731E-1,-9.495812654E-1
3.006838500E0,-7.725350857E-1,-1.096241325E-1,-9.187064171E-1
3.008838500E0,-7.533713579E-1,-1.277231872E-1,-8.904844522E-1
3.010838500E0,-7.326194048E-1,-1.500808597E-1,-8.633445501E-1
3.012838500E0,-7.102617621E-1,-1.729795784E-1,-8.377929330E-1
3.014838500E0,-6.868568659E-1,-1.985486597E-1,-8.101119995E-1
3.016838500E0,-6.618288755E-1,-2.256885320E-1,-7.818900347E-1
3.019421313E0,-6.368008256E-1,-2.496344447E-1,-7.520798445E-1
3.020860375E0,-6.117728353E-1,-2.682571113E-1,-7.212049365E-1
3.022888500E0,-5.899736285E-1,-2.837032676E-1,-6.898064613E-1
3.024838500E0,-5.702688694E-1,-2.986083925E-1,-6.557376385E-1
3.026838500E0,-5.489758849E-1,-3.055373430E-1,-6.184749007E-1
3.028838500E0,-5.207713246E-1,-3.018198013E-1,-5.828003287E-1
3.030838500E0,-4.882907569E-1,-2.964790761E-1,-5.482079387E-1
3.032838500E0,-4.557927251E-1,-2.959380150E-1,-5.152037144E-1
3.034838500E0,-4.259825051E-1,-3.012612760E-1,-4.816585183E-1
3.036838500E0,-3.999072909E-1,-3.129724264E-1,-4.481307268E-1
3.039421313E0,-3.764849603E-1,-3.300068676E-1,-4.140619040E-1
3.041176000E0,-3.541273177E-1,-3.486469686E-1,-3.799930811E-1
3.042879125E0,-3.323106766E-1,-3.651577830E-1,-3.453831971E-1
3.044838500E0,-3.083473146E-1,-3.795218468E-1,-3.102497160E-1
3.046838500E0,-2.817310393E-1,-3.917565942E-1,-2.735280097E-1
3.048838500E0,-2.540501356E-1,-4.024031162E-1,-2.357241660E-1
3.050838500E0,-2.247634977E-1,-4.093146026E-1,-1.979377866E-1
3.052838500E0,-1.970825791E-1,-4.151789248E-1,-1.596103609E-1
3.054836938E0,-1.704837680E-1,-4.199785888E-1,-1.218065247E-1
3.056836938E0,-1.459793448E-1,-4.236961305E-1,-8.667305112E-2
3.059421313E0,-1.252273768E-1,-4.279547334E-1,-5.314527452E-2
3.061176000E0,-1.081929579E-1,-4.311486781E-1,-2.014109865E-2
3.062838500E0,-9.435249865E-2,-4.343426228E-1,1.071632188E-2
3.064838500E0,-8.052948862E-2,-4.375540316E-1,4.000294581E-2
3.066838500E0,-6.719517708E-2,-4.391422868E-1,6.820746511E-2
3.068838500E0,-5.441936478E-2,-4.380601943E-1,9.536478668E-2
3.070838500E0,-4.110250250E-2,-4.348662496E-1,1.214400083E-1
3.072838500E0,-3.047344834E-2,-4.306076169E-1,1.443387270E-1
3.074838500E0,-1.980948634E-2,-4.247607887E-1,1.640260369E-1
3.076838500E0,-8.639379404E-3,-4.157025218E-1,1.794722080E-1
3.079418188E0,9.250245057E-4,-4.039913714E-1,1.927716136E-1
3.080860375E0,1.050688233E-2,-3.885626495E-1,2.055474222E-1
3.082891625E0,1.956514083E-2,-3.688578904E-1,2.167349905E-1
3.084838500E0,2.593559213E-2,-3.465002179E-1,2.268404365E-1
3.086838500E0,2.806489356E-2,-3.214896619E-1,2.348340452E-1
3.088838500E0,2.752384171E-2,-2.954144180E-1,2.406809032E-1
3.090838500E0,2.380629070E-2,-2.645221055E-1,2.454805523E-1
3.092838500E0,1.795943826E-2,-2.293886244E-1,2.486745119E-1
3.094838500E0,1.103048120E-2,-1.921432912E-1,2.486745119E-1
3.096838500E0,4.642575979E-3,-1.538158655E-1,2.481334656E-1
3.099418188E0,-2.268928103E-3,-1.160120368E-1,2.444159091E-1
3.100860375E0,-7.592182141E-3,-7.768460363E-2,2.390926480E-1
3.102838500E0,-1.078613475E-2,-3.830997646E-2,2.321636975E-1
3.104838500E0,-1.239183731E-2,5.410520826E-4,2.231228948E-1
3.106836938E0,-1.078613475E-2,3.460988030E-2,2.129999846E-1
3.108838500E0,-7.051130291E-3,6.602580845E-2,2.034181207E-1
3.110838500E0,1.448623254E-3,9.583602846E-2,1.938362718E-1
3.112838500E0,1.157153305E-2,1.203229949E-1,1.847954541E-1
3.114868188E0,2.167698927E-2,1.410924196E-1,1.762782484E-1
3.116838500E0,3.445279971E-2,1.597150862E-1,1.693492979E-1
3.119422875E0,4.722860828E-2,1.740965992E-1,1.629613936E-1
3.120861938E0,5.946336687E-2,1.836609989E-1,1.555088311E-1
3.122902563E0,6.585127115E-2,1.868549436E-1,1.523148865E-1
3.124838500E0,7.860963047E-2,1.895078421E-1,1.464680284E-1
3.126838500E0,8.981464058E-2,1.884606481E-1,1.416683793E-1
3.128838500E0,1.004786044E-1,1.847431064E-1,1.395390779E-1
3.130838500E0,1.089958102E-1,1.772905439E-1,1.379508227E-1
3.132838500E0,1.153837144E-1,1.639911383E-1,1.374097764E-1
3.134838500E0,1.191012710E-1,1.474803239E-1,1.374097764E-1
3.136838500E0,1.223126724E-1,1.288576573E-1,1.390154809E-1
3.139419750E0,1.239009202E-1,9.744173288E-2,1.411447823E-1
3.141316625E0,1.244245246E-1,7.614871860E-2,1.432740837E-1
3.142838500E0,1.249655709E-1,6.443755329E-2,1.454033852E-1
3.144888500E0,1.260302216E-1,4.153883457E-2,1.517912894E-1
3.146838500E0,1.270774156E-1,1.759291813E-2,1.597674340E-1
3.148838500E0,1.281420738E-1,-5.829399452E-3,1.629613936E-1
3.150838500E0,1.244245246E-1,-2.019345947E-2,1.603084952E-1
3.152838500E0,1.132544130E-1,-2.391101047E-2,1.571145356E-1
3.154838500E0,9.941395372E-2,-2.017600648E-2,1.576381326E-1
3.156838500E0,8.290313929E-2,-9.546951391E-3,1.618967354E-1
3.159421313E0,5.415756628E-2,1.439896598E-2,1.768018454E-1
3.160838500E0,4.403465614E-2,2.237512171E-2,1.842544079E-1
3.162877563E0,2.326523885E-2,3.728023171E-2,1.986359209E-1
3.164838500E0,1.972222002E-3,5.057964101E-2,2.156703323E-1
3.166838500E0,-1.823868975E-2,6.442010403E-2,2.332283407E-1
3.168838500E0,-3.899065405E-2,7.719591260E-2,2.513274252E-1
3.170838500E0,-5.974261835E-2,8.998917788E-2,2.689028680E-1
3.172838500E0,-8.101818711E-2,1.022413895E-1,2.848726511E-1
3.174838500E0,-1.001993492E-1,1.128878966E-1,3.003013432E-1
3.176838500E0,-1.182984188E-1,1.229933500E-1,3.152064681E-1
3.179418188E0,-1.470439881E-1,1.357691586E-1,3.349112272E-1
3.180861938E0,-1.555611938E-1,1.394867152E-1,3.407580853E-1
3.182897875E0,-1.726130694E-1,1.469392627E-1,3.524692357E-1
3.184838500E0,-1.901710778E-1,1.527861208E-1,3.631157577E-1
3.186838500E0,-2.088111937E-1,1.581093818E-1,3.721739948E-1
3.188838500E0,-2.284985036E-1,1.629090309E-1,3.774972558E-1
3.190838500E0,-2.471211702E-1,1.666440368E-1,3.822794557E-1
3.192838500E0,-2.668259442E-1,1.692969352E-1,3.854734302E-1
3.194838500E0,-2.844013870E-1,1.703615934E-1,3.865380585E-1
3.196838500E0,-3.019594252E-1,1.724908948E-1,3.881437778E-1
3.199421313E0,-3.248406649E-1,1.751612425E-1,3.876027167E-1
3.200838500E0,-3.328342736E-1,1.756848395E-1,3.860144615E-1
3.202896313E0,-3.466573060E-1,1.772905439E-1,3.801501691E-1
3.204838500E0,-3.615798652E-1,1.788787991E-1,3.726976216E-1
3.206838500E0,-3.759439290E-1,1.815491468E-1,3.657861054E-1
3.208838500E0,-3.897843659E-1,1.852667034E-1,3.577924967E-1
3.210838500E0,-4.041658938E-1,1.911310107E-1,3.498163521E-1
3.212838500E0,-4.180063605E-1,1.980425119E-1,3.412991464E-1
3.214838500E0,-4.329114556E-1,2.049714625E-1,3.327819407E-1
3.216838500E0,-4.494048357E-1,2.097536623E-1,3.221354187E-1
3.219422875E0,-4.701742530E-1,2.204001844E-1,3.051010072E-1
3.221176000E0,-4.818679392E-1,2.326523811E-1,2.928487957E-1
3.222838500E0,-4.871912003E-1,2.395813465E-1,2.875255346E-1
3.224838500E0,-4.967730641E-1,2.523571551E-1,2.768790424E-1
3.226838500E0,-5.052902699E-1,2.624626160E-1,2.651678622E-1
3.228838500E0,-5.132838488E-1,2.699151635E-1,2.539977729E-1
3.230838500E0,-5.196717978E-1,2.773677111E-1,2.438748628E-1
3.232838500E0,-5.260596871E-1,2.842792273E-1,2.321636975E-1
3.234838500E0,-5.319065452E-1,2.874906361E-1,2.215171903E-1
3.236838500E0,-5.361651182E-1,2.880142331E-1,2.124763876E-1
3.239419750E0,-5.409473181E-1,2.885552943E-1,2.007652223E-1
3.240838500E0,-5.420294404E-1,2.890788913E-1,1.965066195E-1
3.242885375E0,-5.425705314E-1,2.927964330E-1,1.885130107E-1
3.244838500E0,-5.436351299E-1,3.002489805E-1,1.805368513E-1
3.246838500E0,-5.452234149E-1,3.082425892E-1,1.720196456E-1
3.248838500E0,-5.478762984E-1,3.146305084E-1,1.635024399E-1
3.250838500E0,-5.510877371E-1,3.188891113E-1,1.560498923E-1
3.252838500E0,-5.548052788E-1,3.220830560E-1,1.485973299E-1
3.254663500E0,-5.590638518E-1,3.241949081E-1,1.416683793E-1
3.256836938E0,-5.643871427E-1,3.247359693E-1,1.368861794E-1
3.259461938E0,-5.723807216E-1,3.231477141E-1,1.299572140E-1
3.260869750E0,-5.755746961E-1,3.226066530E-1,1.273043156E-1
3.262910375E0,-5.819625854E-1,3.204773664E-1,1.219810620E-1
3.264838500E0,-5.872858167E-1,3.172833920E-1,1.177224591E-1
3.266836938E0,-5.936737657E-1,3.114365637E-1,1.150521040E-1
3.268836938E0,-6.005852222E-1,3.039839864E-1,1.134638563E-1
3.270838500E0,-6.096435189E-1,2.949257493E-1,1.134638563E-1
3.272838500E0,-6.170960665E-1,2.874731719E-1,1.139874533E-1
3.274838500E0,-6.255958080E-1,2.826909721E-1,1.150521040E-1
3.276838500E0,-6.362423301E-1,2.779087722E-1,1.166578084E-1
3.279418188E0,-6.527357101E-1,2.725855112E-1,1.187871099E-1
3.280860375E0,-6.580589414E-1,2.720444798E-1,1.187871099E-1
3.282844750E0,-6.703286171E-1,2.725680768E-1,1.193107069E-1
3.284838500E0,-6.836280227E-1,2.752384245E-1,1.198517606E-1
3.286836938E0,-6.964038014E-1,2.784323692E-1,1.198517606E-1
3.288838500E0,-7.102442980E-1,2.848202884E-1,1.198517606E-1
3.290838500E0,-7.230200768E-1,2.954667807E-1,1.182460561E-1
3.292838500E0,-7.352722883E-1,3.082425892E-1,1.155931577E-1
3.294838500E0,-7.453777790E-1,3.247534037E-1,1.134638563E-1
3.296838500E0,-7.544185519E-1,3.396585286E-1,1.113345549E-1
3.299421313E0,-7.656061053E-1,3.614751399E-1,1.065348983E-1
3.301176000E0,-7.677354217E-1,3.694512844E-1,1.044055969E-1
3.302836938E0,-7.709293962E-1,3.859446645E-1,1.006880477E-1
3.304838500E0,-7.709293962E-1,4.019318819E-1,9.642943740E-2
3.306838500E0,-7.677354217E-1,4.184252322E-1,9.110618383E-2
3.308838500E0,-7.624121904E-1,4.322831333E-1,8.471827954E-2
3.310838500E0,-7.538949847E-1,4.455825686E-1,7.833037525E-2
3.312838500E0,-7.421838045E-1,4.594230056E-1,7.087782025E-2
3.314838500E0,-7.278197408E-1,4.705931246E-1,6.288421154E-2
3.316838500E0,-7.091796398E-1,4.801749885E-1,5.490805954E-2
3.319422875E0,-6.767165065E-1,4.929507971E-1,4.532619938E-2
3.320860375E0,-6.655289531E-1,4.956211448E-1,4.265584797E-2
3.322894750E0,-6.394363046E-1,5.004208088E-1,3.787364438E-2
3.324836938E0,-6.122964025E-1,5.052030087E-1,3.200933710E-2
3.326836938E0,-5.830097795E-1,5.115908980E-1,2.562143281E-2
3.328836938E0,-5.526584983E-1,5.190609097E-1,1.923352852E-2
3.331610375E0,-5.068784952E-1,5.328839421E-1,1.125737373E-2
3.332740063E0,-4.914498031E-1,5.392718315E-1,8.587019518E-3
3.334836938E0,-4.616395831E-1,5.515240431E-1,2.740166849E-3
3.336838500E0,-4.334350526E-1,5.648234487E-1,-1.500983140E-3
3.339421313E0,-4.078834355E-1,5.802521706E-1,-3.630284918E-3
3.340860375E0,-3.844436705E-1,5.957157612E-1,-6.824237294E-3
3.342902563E0,-3.631506562E-1,6.116681099E-1,-7.365289610E-3
3.344838500E0,-3.445279896E-1,6.249849200E-1,-5.759586580E-3
3.346838500E0,-3.290818334E-1,6.345667839E-1,-3.106686054E-3
3.348836938E0,-3.173881173E-1,6.430839896E-1,6.981316983E-5
3.350838500E0,-3.088534772E-1,6.505365968E-1,4.328416660E-3
3.352838500E0,-3.051359057E-1,6.531894803E-1,8.063420653E-3
3.354838500E0,-3.045948744E-1,6.532069445E-1,1.232202444E-2
3.356838500E0,-3.072652221E-1,6.489308476E-1,1.870992966E-2
3.359419750E0,-3.125884533E-1,6.409547329E-1,2.722713538E-2
3.360860375E0,-3.205820620E-1,6.292260885E-1,3.626793995E-2
3.362902563E0,-3.301639259E-1,6.127327681E-1,4.852015153E-2
3.364838500E0,-3.424161375E-1,5.898340344E-1,6.236061454E-2
3.366838500E0,-3.578448594E-1,5.616294742E-1,7.833037525E-2
3.368838500E0,-3.743382096E-1,5.264959931E-1,9.536478668E-2
3.370838500E0,-3.929783404E-1,4.849746227E-1,1.129228026E-1
3.372838500E0,-4.116184413E-1,4.413239658E-1,1.299572140E-1
3.374838500E0,-4.302411079E-1,3.976732790E-1,1.448623240E-1
3.376838500E0,-4.483401775E-1,3.540225923E-1,1.576381326E-1
3.379421313E0,-4.637688994E-1,3.103719056E-1,1.682846397E-1
3.381199438E0,-4.781503975E-1,2.677858770E-1,1.773429066E-1
3.382838500E0,-4.914498031E-1,2.251998335E-1,1.863837093E-1
3.384838500E0,-5.031609535E-1,1.820901930E-1,1.938362718E-1
3.386844750E0,-5.132838488E-1,1.400277615E-1,1.991595179E-1
3.389176000E0,-5.207364559E-1,9.796532989E-2,2.034181207E-1
3.390869750E0,-5.266007185E-1,5.644394830E-2,2.066120803E-1
3.392838500E0,-5.313829184E-1,1.492256485E-2,2.082177848E-1
3.394838500E0,-5.345768929E-1,-2.764601447E-2,2.087413818E-1
3.396838500E0,-5.340533257E-1,-6.810274720E-2,2.098060250E-1
3.399419750E0,-5.303183198E-1,-1.053655297E-1,2.124763876E-1
3.400861938E0,-5.223246813E-1,-1.372876018E-1,2.161939293E-1
3.402836938E0,-5.095663071E-1,-1.644449234E-1,2.209935933E-1
3.404838500E0,-4.909262061E-1,-1.857379377E-1,2.263168395E-1
3.406838500E0,-4.685685337E-1,-2.001020014E-1,2.332283407E-1
3.408838500E0,-4.435405135E-1,-2.080956101E-1,2.406809032E-1
3.410863500E0,-4.142713547E-1,-2.091602534E-1,2.470688075E-1
3.412838500E0,-3.823318183E-1,-2.059663087E-1,2.539977729E-1
3.414838500E0,-3.487865925E-1,-1.969255060E-1,2.598446310E-1
3.416838500E0,-3.141941726E-1,-1.809557378E-1,2.641032338E-1
3.419465063E0,-2.779960334E-1,-1.623156220E-1,2.657089233E-1
3.420872875E0,-2.407332659E-1,-1.399579495E-1,2.672971785E-1
3.422836938E0,-2.029468864E-1,-1.144063324E-1,2.694264650E-1
3.424838500E0,-1.646194607E-1,-8.566076308E-2,2.699675262E-1
3.426841625E0,-1.268156171E-1,-5.532693863E-2,2.704911232E-1
3.428838500E0,-8.955284208E-2,-2.710496262E-2,2.715557814E-1
3.430838500E0,-5.335471407E-2,-2.617993858E-3,2.742261291E-1
3.432838500E0,-1.661553420E-2,1.705186628E-2,2.768790424E-1
3.434838500E0,2.010619268E-2,3.356268257E-2,2.784847319E-1
3.436847875E0,5.522221699E-2,4.475024343E-2,2.822022736E-1
3.439419750E0,8.930850029E-2,5.113814771E-2,2.870019376E-1
3.440860375E0,1.196423173E-1,5.166174471E-2,2.907194793E-1
3.442902563E0,1.462585926E-1,4.794419557E-2,2.955191433E-1
3.444838500E0,1.691573113E-1,4.049163684E-2,3.034952879E-1
3.446838500E0,1.872389168E-1,3.462733328E-2,3.136182129E-1
3.448838500E0,2.016029805E-1,2.982767671E-2,3.258529603E-1
3.450838500E0,2.133315951E-1,2.930407785E-2,3.412991464E-1
3.452849438E0,2.245016992E-1,3.195697814E-2,3.615275025E-1
3.454836938E0,2.351656556E-1,3.836233541E-2,3.860144615E-1
3.456836938E0,2.468768209E-1,4.846779257E-2,4.147600532E-1
3.459421313E0,2.606998384E-1,6.178465486E-2,4.424409568E-1
3.461358813E0,2.787989080E-1,7.773696631E-2,4.663868845E-1
3.462861938E0,3.054326177E-1,9.637708217E-2,4.930031598E-1
3.464838500E0,3.378957510E-1,1.128878966E-1,5.190958381E-1
3.466836938E0,3.773052692E-1,1.245990545E-1,5.419771075E-1
3.468836938E0,4.220031500E-1,1.309869587E-1,5.611408353E-1
3.470847875E0,4.709945619E-1,1.299223155E-1,5.776516199E-1
3.472836938E0,5.247507095E-1,1.192758009E-1,5.898863673E-1
3.474836938E0,5.811597109E-1,9.957103431E-2,5.957506895E-1
3.476854125E0,6.386508942E-1,6.976080686E-2,5.962742567E-1
3.479419750E0,6.961594820E-1,3.249803185E-2,5.941450000E-1
3.480838500E0,7.515213490E-1,-1.111774705E-2,5.909510255E-1
3.482880688E0,7.786611915E-1,-3.508111835E-2,5.888217092E-1
3.484838500E0,8.313526511E-1,-8.724901080E-2,5.840395093E-1
3.486857250E0,8.808676600E-1,-1.436755061E-1,5.760459304E-1
3.488838500E0,9.271712303E-1,-1.995784044E-1,5.670050979E-1
3.490838500E0,9.708219171E-1,-2.544166446E-1,5.584878922E-1
3.492838500E0,1.010755062E0,-3.086963892E-1,5.483649969E-1
3.494838500E0,1.046412110E0,-3.603406847E-1,5.361302495E-1
3.496838500E0,1.081545591E0,-4.077089131E-1,5.233544111E-1
3.499421313E0,1.133189917E0,-4.683940113E-1,5.068436265E-1
3.500860375E0,1.150224328E0,-4.865105152E-1,5.020614266E-1
3.502841625E0,1.182687402E0,-5.205793381E-1,4.940677881E-1
3.504838500E0,1.216197729E0,-5.541245937E-1,4.866152406E-1
3.506838500E0,1.250284076E0,-5.876523852E-1,4.775744379E-1
3.508838500E0,1.283829331E0,-6.222447753E-1,4.663868845E-1
3.510843188E0,1.317357063E0,-6.616368890E-1,4.546757340E-1
3.512838500E0,1.350919724E0,-7.015525699E-1,4.397706091E-1
3.514838500E0,1.382859230E0,-7.425503135E-1,4.232772589E-1
3.516838500E0,1.413716674E0,-7.835306525E-1,4.067664444E-1
3.519466625E0,1.459496617E0,-8.431510925E-1,3.801501691E-1
3.520877563E0,1.473878145E0,-8.628558517E-1,3.705683053E-1
3.522871313E0,1.501018047E0,-9.017068744E-1,3.535338938E-1
3.524838500E0,1.523375750E0,-9.384461045E-1,3.396934271E-1
3.526838500E0,1.539886594E0,-9.730384946E-1,3.295879662E-1
3.528838500E0,1.549450994E0,-1.006060123E0,3.215943575E-1
3.530838500E0,1.549991965E0,-1.037458658E0,3.152064681E-1
3.532838500E0,1.542539477E0,-1.065680623E0,3.104242682E-1
3.534838500E0,1.529763579E0,-1.090167522E0,3.072302938E-1
3.536844750E0,1.513252854E0,-1.107201934E0,3.045599461E-1
3.539421313E0,1.479707599E0,-1.117324829E0,3.029716909E-1
3.541176000E0,1.453108788E0,-1.117307425E0,3.045599461E-1
3.542838500E0,1.438744664E0,-1.115178108E0,3.061656654E-1
3.544916625E0,1.407852411E0,-1.109854817E0,3.104242682E-1
3.546838500E0,1.377518535E0,-1.101337671E0,3.146828711E-1
3.548838500E0,1.348231912E0,-1.089102864E0,3.162711263E-1
3.550838500E0,1.322156668E0,-1.071527481E0,3.152064681E-1
3.552838500E0,1.300340056E0,-1.051299095E0,3.125535548E-1
3.554858813E0,1.282764673E0,-1.031070709E0,3.098832071E-1
3.556838500E0,1.269465208E0,-1.014559865E0,3.056246042E-1
3.559447875E0,1.255624771E0,-1.000195861E0,2.971073985E-1
3.560855688E0,1.253478050E0,-9.975429177E-1,2.933898568E-1
3.562899438E0,1.250825167E0,-9.938079119E-1,2.811376452E-1
3.564838500E0,1.253478050E0,-9.932843447E-1,2.651678622E-1
3.566838500E0,1.261995196E0,-9.906139970E-1,2.481334656E-1
3.568838500E0,1.279064536E0,-9.783617854E-1,2.289697379E-1
3.570838500E0,1.307251573E0,-9.533511996E-1,2.039591819E-1
3.572838500E0,1.347167253E0,-9.128944874E-1,1.736079007E-1
3.574838500E0,1.397746921E0,-8.580736518E-1,1.374097764E-1
3.576838500E0,1.457890987E0,-7.931299806E-1,9.695304185E-2
3.579440063E0,1.556397319E0,-6.887767315E-1,3.413863853E-2
3.580876000E0,1.587272286E0,-6.552314758E-1,1.445132587E-2
3.582913500E0,1.642110467E0,-5.918760300E-1,-2.333505265E-2
3.584838500E0,1.683090806E0,-5.306673646E-1,-5.686282739E-2
3.586838500E0,1.709707022E0,-4.668057561E-1,-8.827875555E-2
3.588838500E0,1.721941829E0,-3.954741657E-1,-1.159596741E-1
3.590836938E0,1.713407159E0,-3.193603456E-1,-1.399055868E-1
3.592838500E0,1.682532310E0,-2.395115346E-1,-1.606750041E-1
3.594838500E0,1.633017302E0,-1.596627235E-1,-1.809033751E-1
3.596838500E0,1.565420747E0,-8.674286306E-2,-2.000670880E-1
3.599461938E0,1.446197271E0,2.164208330E-3,-2.288126647E-1
3.600868188E0,1.406264186E0,2.823942713E-2,-2.383945286E-1
3.602836938E0,1.330150366E0,8.040732145E-2,-2.602111399E-1
3.604838500E0,1.260930538E0,1.357691586E-1,-2.873684466E-1
3.606838500E0,1.197575092E0,1.916546077E-1,-3.177022934E-1
3.608838500E0,1.136366367E0,2.422342449E-1,-3.501828611E-1
3.610838500E0,1.074093103E0,2.816088796E-1,-3.821223974E-1
3.612838500E0,1.012884378E0,3.071779609E-1,-4.108679593E-1
3.614838500E0,9.543285966E-1,3.178244531E-1,-4.364195764E-1
3.616663500E0,9.021607041E-1,3.183655143E-1,-4.603655040E-1
3.619568188E0,8.372344375E-1,3.093247116E-1,-4.971046746E-1
3.621215063E0,8.047538400E-1,3.013311028E-1,-5.215916634E-1
3.622661938E0,7.919780612E-1,2.970725000E-1,-5.338264108E-1
3.624838500E0,7.727968693E-1,2.885552943E-1,-5.583133698E-1
3.626838500E0,7.616267800E-1,2.794970274E-1,-5.833414197E-1
3.628838500E0,7.568271160E-1,2.693741024E-1,-6.099576354E-1
3.630838500E0,7.541567683E-1,2.571393549E-1,-6.365739107E-1
3.633032250E0,7.525510788E-1,2.390228361E-1,-6.610609293E-1
3.634663500E0,7.515038848E-1,2.134886682E-1,-6.834185719E-1
3.636838500E0,7.504392266E-1,1.804845035E-1,-7.020412087E-1
3.639418188E0,7.483099103E-1,1.261873096E-1,-7.281339169E-1
3.640861938E0,7.461805940E-1,1.075646430E-1,-7.366511226E-1
3.642897875E0,7.403337359E-1,7.295475900E-2,-7.499505281E-1
3.644836938E0,7.328811884E-1,4.049163684E-2,-7.600734234E-1
3.646838500E0,7.217110991E-1,1.387536712E-2,-7.680495977E-1
3.648838500E0,7.057413459E-1,-8.988445625E-3,-7.744374871E-1
3.650838500E0,6.871012449E-1,-3.188716620E-2,-7.808253765E-1
3.652838500E0,6.658082008E-1,-5.372123420E-2,-7.866896987E-1
3.654838500E0,6.434330940E-1,-7.555530220E-2,-7.925365567E-1
3.656838500E0,6.210928559E-1,-9.897761792E-2,-7.984008789E-1
3.659418188E0,5.875476599E-1,-1.383697093E-1,-8.047887683E-1
3.660865063E0,5.769011378E-1,-1.522101611E-1,-8.063769937E-1
3.662891625E0,5.561665893E-1,-1.798561811E-1,-8.069180846E-1
3.664838500E0,5.375264883E-1,-2.070135027E-1,-8.069180846E-1
3.666838500E0,5.231449604E-1,-2.309768796E-1,-8.031830788E-1
3.668838500E0,5.114338398E-1,-2.528109550E-1,-7.978597879E-1
3.670838500E0,5.034402013E-1,-2.709099948E-1,-7.904072404E-1
3.672838500E0,4.970523119E-1,-2.868797779E-1,-7.824311256E-1
3.674838500E0,4.927937090E-1,-3.007202148E-1,-7.739139199E-1
3.676838500E0,4.890761673E-1,-3.134960532E-1,-7.659202814E-1
3.679419750E0,4.821646512E-1,-3.257308006E-1,-7.531445026E-1
3.680838500E0,4.800353646E-1,-3.278600872E-1,-7.494269013E-1
3.682872875E0,4.747121036E-1,-3.294483423E-1,-7.419743538E-1
3.684838500E0,4.677831531E-1,-3.284011483E-1,-7.345218062E-1
3.686838500E0,4.598069787E-1,-3.236014843E-1,-7.286574841E-1
3.688838500E0,4.507661760E-1,-3.150842786E-1,-7.222695947E-1
3.690838500E0,4.406432807E-1,-3.038967252E-1,-7.148170471E-1
3.692838500E0,4.299967587E-1,-2.921855748E-1,-7.062998414E-1
3.694838500E0,4.188092053E-1,-2.826211751E-1,-6.961944103E-1
3.696838500E0,4.076390862E-1,-2.724982500E-1,-6.860714555E-1
3.699421313E0,3.964515328E-1,-2.639810443E-1,-6.743603349E-1
3.701176000E0,3.847578466E-1,-2.570520937E-1,-6.610609293E-1
3.702836938E0,3.735528290E-1,-2.512052357E-1,-6.482850909E-1
3.704838500E0,3.613180518E-1,-2.464230359E-1,-6.339035630E-1
3.706838500E0,3.495894372E-1,-2.442937344E-1,-6.174102426E-1
3.708838500E0,3.368310928E-1,-2.448173314E-1,-6.003758311E-1
3.710838500E0,3.229906261E-1,-2.474876940E-1,-5.828003287E-1
3.712838500E0,3.081029654E-1,-2.512052357E-1,-5.641776919E-1
3.714838500E0,2.915921509E-1,-2.554638386E-1,-5.466021895E-1
3.716838500E0,2.756223977E-1,-2.607870996E-1,-5.274385214E-1
3.719422875E0,2.575058639E-1,-2.666513920E-1,-5.077511668E-1
3.720861938E0,2.378185689E-1,-2.724982500E-1,-4.875228107E-1
3.722899438E0,2.170666009E-1,-2.788861692E-1,-4.656887352E-1
3.724838500E0,1.952325255E-1,-2.852740586E-1,-4.433310926E-1
3.726838500E0,1.717927605E-1,-2.938087285E-1,-4.199087620E-1
3.728838500E0,1.462585926E-1,-3.028495312E-1,-3.959628344E-1
3.730838500E0,1.201833710E-1,-3.108256757E-1,-3.714758754E-1
3.732838500E0,9.358455241E-2,-3.171961308E-1,-3.480535448E-1
3.734838500E0,6.536258012E-2,-3.241250813E-1,-3.235665858E-1
3.736838500E0,3.607595712E-2,-3.299894035E-1,-2.985385656E-1
3.739419750E0,6.789330859E-3,-3.374419510E-1,-2.729869485E-1
3.741316625E0,-2.352703735E-2,-3.432888091E-1,-2.484999746E-1
3.742836938E0,-5.279621109E-2,-3.518060148E-1,-2.245540619E-1
3.744879125E0,-8.208283782E-2,-3.597996235E-1,-2.011317462E-1
3.746838500E0,-1.113520041E-1,-3.672521710E-1,-1.761037260E-1
3.748838500E0,-1.395914257E-1,-3.741811514E-1,-1.516167521E-1
3.750838500E0,-1.677959561E-1,-3.800454438E-1,-1.276708394E-1
3.752838500E0,-1.944122314E-1,-3.848276436E-1,-1.037074625E-1
3.754838500E0,-2.215520889E-1,-3.890862465E-1,-8.082620054E-2
3.756838500E0,-2.460565120E-1,-3.917391598E-1,-5.740387738E-2
3.759418188E0,-2.694613934E-1,-3.943920434E-1,-3.504621238E-2
3.760861938E0,-2.928836942E-1,-3.970623910E-1,-1.162389293E-2
3.762890063E0,-3.147003055E-1,-3.986506462E-1,1.125737373E-2
3.764836938E0,-3.354697227E-1,-3.991917074E-1,3.307398781E-2
3.766838500E0,-3.551745117E-1,-3.991917074E-1,5.490805954E-2
3.768838500E0,-3.732735515E-1,-3.991917074E-1,7.620107383E-2
3.770838500E0,-3.903079927E-1,-3.981270492E-1,9.695304185E-2
3.772838500E0,-4.073424041E-1,-3.954741657E-1,1.177224591E-1
3.774838500E0,-4.243768156E-1,-3.912155628E-1,1.390154809E-1
3.776838500E0,-4.392819107E-1,-3.853512406E-1,1.597674340E-1
3.779419750E0,-4.547280669E-1,-3.784397542E-1,1.799958050E-1
3.781316625E0,-4.685510993E-1,-3.693814874E-1,2.012888193E-1
3.782836938E0,-4.813269079E-1,-3.587349653E-1,2.231228948E-1
3.784882250E0,-4.946437478E-1,-3.486120701E-1,2.449395061E-1
3.786836938E0,-5.084842443E-1,-3.358536959E-1,2.667735815E-1
3.788836938E0,-5.233893394E-1,-3.214896619E-1,2.875255346E-1
3.790836938E0,-5.377534032E-1,-3.049788177E-1,3.072302938E-1
3.792836938E0,-5.526584983E-1,-2.879444063E-1,3.279822767E-1
3.794838500E0,-5.675635934E-1,-2.703689635E-1,3.471459746E-1
3.796838500E0,-5.840744376E-1,-2.512052357E-1,3.668507636E-1
3.799418188E0,-6.011088490E-1,-2.325825691E-1,3.870791197E-1
3.800861938E0,-6.202725768E-1,-2.144660652E-1,4.051781893E-1
3.802907250E0,-6.399773359E-1,-1.963844448E-1,4.238008559E-1
3.804836938E0,-6.591235995E-1,-1.782853752E-1,4.424409568E-1
3.806836938E0,-6.793693900E-1,-1.607099175E-1,4.610636234E-1
3.808836938E0,-7.011860013E-1,-1.458048075E-1,4.797037542E-1
3.810838500E0,-7.224790454E-1,-1.319643408E-1,4.978027940E-1
3.812838500E0,-7.432309985E-1,-1.186649352E-1,5.142961740E-1
3.814838500E0,-7.650650740E-1,-1.080184281E-1,5.308069587E-1
3.816838500E0,-7.874053121E-1,-1.000248194E-1,5.478413701E-1
3.819422875E0,-8.097629547E-1,-9.150761366E-2,5.638111830E-1
3.820838500E0,-8.315970302E-1,-8.351400495E-2,5.797809362E-1
3.822882250E0,-8.528900146E-1,-7.552039623E-2,5.936213732E-1
3.824838500E0,-8.741830587E-1,-6.914994121E-2,6.058561206E-1
3.826838500E0,-8.949350119E-1,-6.435029209E-2,6.186319590E-1
3.828838500E0,-9.167690873E-1,-6.115633622E-2,6.308841705E-1
3.830838500E0,-9.386031628E-1,-5.743878707E-2,6.436599493E-1
3.832838500E0,-9.604197741E-1,-5.476843193E-2,6.553711295E-1
3.834838500E0,-9.827774167E-1,-5.372123420E-2,6.660176516E-1
3.836838500E0,-1.003005862E0,-5.318018049E-2,6.766641736E-1
3.839419750E0,-1.023234129E0,-5.372123420E-2,6.862459779E-1
3.840860375E0,-1.042938948E0,-5.583308265E-2,6.958278418E-1
3.842879125E0,-1.052520752E0,-5.743878707E-2,7.000864744E-1
3.844838500E0,-1.070602417E0,-6.115633622E-2,7.091272473E-1
3.846838500E0,-1.087113261E0,-6.862634420E-2,7.176444530E-1
3.848836938E0,-1.102559447E0,-7.820820063E-2,7.240324020E-1
3.850836938E0,-1.115335226E0,-9.257226437E-2,7.293556333E-1
3.852838500E0,-1.125981688E0,-1.101477295E-1,7.346788645E-1
3.854838500E0,-1.136104584E0,-1.330289990E-1,7.378728390E-1
3.856838500E0,-1.145686507E0,-1.612509638E-1,7.416078448E-1
3.859421313E0,-1.156315565E0,-2.139424533E-1,7.437371612E-1
3.861316625E0,-1.161132693E0,-2.549402416E-1,7.442607284E-1
3.862836938E0,-1.163244486E0,-2.767568529E-1,7.448018193E-1
3.864899438E0,-1.164832711E0,-3.236014843E-1,7.453253865E-1
3.866836938E0,-1.164291739E0,-3.741636872E-1,7.448018193E-1
3.868838500E0,-1.160033107E0,-4.295255244E-1,7.448018193E-1
3.870836938E0,-1.153104067E0,-4.896695614E-1,7.458664775E-1
3.872838500E0,-1.141934037E0,-5.540896654E-1,7.463900447E-1
3.874838500E0,-1.126505256E0,-6.195569634E-1,7.474547029E-1
3.876838500E0,-1.109994531E0,-6.845181584E-1,7.495840192E-1
3.879461938E0,-1.081248879E0,-7.771427631E-1,7.533190250E-1
3.880857250E0,-1.071684480E0,-8.053647280E-1,7.543836832E-1
3.882880688E0,-1.051997185E0,-8.570089936E-1,7.543836832E-1
3.884838500E0,-1.032309890E0,-9.033300281E-1,7.543836832E-1
3.886838500E0,-1.014734387E0,-9.427046776E-1,7.522543669E-1
3.888838500E0,-9.993057251E-1,-9.741206169E-1,7.474547029E-1
3.890838500E0,-9.859888554E-1,-9.964782596E-1,7.389374971E-1
3.892838500E0,-9.758833647E-1,-1.008189440E0,7.261616588E-1
3.894838500E0,-9.678897858E-1,-1.009236693E0,7.075390220E-1
3.896838500E0,-9.598787427E-1,-1.001242995E0,6.835756302E-1
3.899418188E0,-9.417971373E-1,-9.709091783E-1,6.415306926E-1
3.900935375E0,-9.332799315E-1,-9.560040832E-1,6.260845065E-1
3.902838500E0,-9.098575711E-1,-9.235409498E-1,5.936213732E-1
3.904838500E0,-8.763123751E-1,-8.873428702E-1,5.600761771E-1
3.906838500E0,-8.326616883E-1,-8.463450670E-1,5.260073543E-1
3.908838500E0,-7.772998214E-1,-7.952418327E-1,4.914149046E-1
3.910838500E0,-7.112914920E-1,-7.340156436E-1,4.541521370E-1
3.912838500E0,-6.367658973E-1,-6.627014875E-1,4.147600532E-1
3.914838500E0,-5.542641878E-1,-5.839173794E-1,3.764325976E-1
3.916836938E0,-4.664392471E-1,-4.976806343E-1,3.396934271E-1
3.919421313E0,-3.322932422E-1,-3.672521710E-1,2.891312540E-1
3.920861938E0,-2.881014943E-1,-3.257482648E-1,2.736850679E-1
3.922880688E0,-2.039940804E-1,-2.480112910E-1,2.433512509E-1
3.924836938E0,-1.267981678E-1,-1.788089871E-1,2.140646279E-1
3.926836938E0,-5.653121322E-2,-1.234471351E-1,1.858601123E-1
3.928836938E0,5.201081280E-3,-8.192575723E-2,1.576381326E-1
3.930838500E0,5.949827284E-2,-5.211552978E-2,1.294336170E-1
3.932838500E0,1.068839654E-1,-3.666936606E-2,1.017526984E-1
3.934838500E0,1.499935985E-1,-3.401646763E-2,7.566002011E-2
3.936838500E0,1.883210242E-1,-4.572762549E-2,5.117305368E-2
3.939418188E0,2.378185689E-1,-8.831366152E-2,2.083923109E-2
3.941183813E0,2.644348443E-1,-1.308996975E-1,4.869468510E-3
3.942838500E0,2.750813365E-1,-1.559102684E-1,-1.500983140E-3
3.944838500E0,2.921332121E-1,-2.107485086E-1,-1.108284108E-2
3.946838500E0,3.027797043E-1,-2.703689635E-1,-1.534144394E-2
3.948838500E0,3.059562147E-1,-3.326597512E-1,-1.640609466E-2
3.950838500E0,3.059562147E-1,-3.960151970E-1,-1.481784508E-2
3.952838500E0,3.011740148E-1,-4.604178667E-1,-1.055924222E-2
3.954838500E0,2.937214673E-1,-5.253615379E-1,-6.300638430E-3
3.956838500E0,2.862514555E-1,-5.881759524E-1,-2.565633971E-3
3.959418188E0,2.772280872E-1,-6.765245199E-1,6.981316983E-5
3.960861938E0,2.761634588E-1,-7.025997639E-1,-4.363323096E-4
