"Time (s)","Acceleration x (m/s^2)","Acceleration y (m/s^2)","Acceleration z (m/s^2)"
0.000000000E0,-1.854640961E0,3.870828390E0,8.739856720E0
2.500000000E-3,-1.861827493E0,3.904365540E0,8.864422798E0
4.999948000E-3,-1.787567019E0,3.868432999E0,8.847654343E0
7.499896000E-3,-1.787567019E0,3.849268913E0,8.866818428E0
9.999844000E-3,-1.761216521E0,3.892388105E0,8.835676193E0
1.249979200E-2,-1.667791963E0,3.875619411E0,8.747042656E0
1.500552100E-2,-1.648627996E0,3.916342974E0,8.694341660E0
1.750552100E-2,-1.598322511E0,3.930716038E0,8.694341660E0
2.000546900E-2,-1.639045954E0,3.921133995E0,8.684760094E0
2.250541700E-2,-1.643836975E0,3.935507059E0,8.634454727E0
2.497177100E-2,-1.658210039E0,3.918738604E0,8.598522186E0
2.747067700E-2,-1.674978495E0,3.957066536E0,8.622476578E0
2.993703100E-2,-1.660605550E0,4.007371902E0,8.588939667E0
3.250802100E-2,-1.698933482E0,4.031326771E0,8.584149361E0
3.497437500E-2,-1.732470512E0,4.060072899E0,8.543425560E0
3.748208400E-2,-1.720492959E0,3.997790098E0,8.596126556E0
3.994843800E-2,-1.706120014E0,4.021745205E0,8.627267838E0
4.248734400E-2,-1.703724504E0,4.014558315E0,8.648827553E0
4.495369800E-2,-1.727679491E0,3.983417034E0,8.660804749E0
4.749781300E-2,-1.734866023E0,3.981021404E0,8.715901375E0
4.996416700E-2,-1.739657044E0,3.971439600E0,8.739856720E0
5.248557300E-2,-1.706120014E0,4.002581120E0,8.794953346E0
5.495192700E-2,-1.694142461E0,4.002581120E0,8.859631538E0
5.747770900E-2,-1.672582984E0,3.995394468E0,8.862027168E0
5.994406300E-2,-1.639045954E0,3.990603447E0,8.830885887E0
6.247109400E-2,-1.627068520E0,3.983417034E0,8.814117432E0
6.493744800E-2,-1.581554055E0,3.959461927E0,8.806930542E0
6.747671900E-2,-1.567180991E0,3.961857557E0,8.747042656E0
6.995994800E-2,-1.540830493E0,4.002581120E0,8.706319809E0
7.247916700E-2,-1.545621514E0,3.997790098E0,8.701528549E0
7.495390600E-2,-1.519271016E0,3.973834991E0,8.778184891E0
7.747171900E-2,-1.495316029E0,4.004976273E0,8.754229546E0
7.996682300E-2,-1.452196956E0,3.959461927E0,8.744647026E0
8.246609400E-2,-1.416264534E0,3.901969910E0,8.718297005E0
8.495281300E-2,-1.421055555E0,3.897178888E0,8.727878571E0
8.747192700E-2,-1.385123014E0,3.913947582E0,8.756625175E0
8.994552100E-2,-1.358772516E0,3.961857557E0,8.691946030E0
9.246765600E-2,-1.332422018E0,3.918738604E0,8.689551353E0
9.494817700E-2,-1.270138979E0,3.897178888E0,8.677573204E0
9.744072900E-2,-1.332422018E0,3.894783497E0,8.672782898E0
9.994942700E-2,-1.377936482E0,3.880410433E0,8.576962471E0
1.024642710E-1,-1.368354559E0,3.873224020E0,8.600917816E0
1.049395310E-1,-1.406682491E0,3.830105066E0,8.677573204E0
1.074401040E-1,-1.404286981E0,3.901969910E0,8.727878571E0
1.099451040E-1,-1.454592466E0,3.930716038E0,8.703924179E0
1.124394790E-1,-1.480942965E0,3.892388105E0,8.675177574E0
1.149398960E-1,-1.509688973E0,3.849268913E0,8.641640663E0
1.174617710E-1,-1.521666527E0,3.863641977E0,8.730274200E0
1.199428650E-1,-1.579158545E0,3.854059935E0,8.689551353E0
1.224322920E-1,-1.571972013E0,3.839687109E0,8.696737289E0
1.249454690E-1,-1.497711539E0,3.880410433E0,8.763811111E0
1.274252610E-1,-1.492920518E0,3.906760931E0,8.691946030E0
1.299284380E-1,-1.476151943E0,3.856455564E0,8.761416435E0
1.324211980E-1,-1.533643961E0,3.834896088E0,8.806930542E0
1.349238540E-1,-1.634255052E0,3.810940981E0,8.816512108E0
1.374536460E-1,-1.689351559E0,3.839687109E0,8.907541275E0
1.399296360E-1,-1.708515525E0,3.808545589E0,8.929100990E0
1.424143230E-1,-1.627068520E0,3.784590483E0,8.924309731E0
1.449325520E-1,-1.586344957E0,3.782195091E0,8.929100990E0
1.474233340E-1,-1.548017025E0,3.794172525E0,8.972220421E0
1.499330730E-1,-1.567180991E0,3.782195091E0,8.996174812E0
1.524302090E-1,-1.533643961E0,3.779799461E0,9.012943268E0
1.549182290E-1,-1.555203557E0,3.791776896E0,9.053667068E0
1.574176560E-1,-1.538434982E0,3.753448963E0,9.080017090E0
1.599140110E-1,-1.519271016E0,3.753448963E0,9.106368065E0
1.624055210E-1,-1.562389970E0,3.743866920E0,9.058458328E0
1.649096360E-1,-1.564785480E0,3.724703074E0,9.041689873E0
1.674190110E-1,-1.559994459E0,3.700747967E0,9.065644264E0
1.699048440E-1,-1.595927000E0,3.707934618E0,9.041689873E0
1.724053130E-1,-1.629464030E0,3.724703074E0,8.919519424E0
1.749038020E-1,-1.670187473E0,3.590554953E0,8.833280563E0
1.774092190E-1,-1.718097448E0,3.523480892E0,8.763811111E0
1.799119270E-1,-1.706120014E0,3.528271914E0,8.790162086E0
1.824067190E-1,-1.631859541E0,3.580972910E0,8.854840279E0
1.849045840E-1,-1.557598948E0,3.636069536E0,8.893168449E0
1.874172920E-1,-1.492920518E0,3.703143597E0,8.929100990E0
1.898964590E-1,-1.454592466E0,3.746262550E0,8.957846642E0
1.924064060E-1,-1.404286981E0,3.681583881E0,8.965033531E0
1.948901560E-1,-4.892059863E-1,3.267162561E0,8.646431923E0
1.973995840E-1,9.050499648E-2,2.843158960E0,8.236801147E0
1.998838540E-1,-4.365049899E-1,2.783271551E0,8.672782898E0
2.023872920E-1,-5.347204804E-1,2.816808462E0,8.852444649E0
2.048811980E-1,-6.113765240E-1,2.859927416E0,8.622476578E0
2.073859380E-1,-8.629040122E-1,3.056358576E0,8.557798386E0
2.098804170E-1,-1.157550454E0,3.415683508E0,8.773393631E0
2.123846880E-1,-1.330026507E0,3.791776896E0,9.262075424E0
2.148750000E-1,-1.358772516E0,4.117565155E0,9.633378029E0
2.173815630E-1,-1.349190474E0,4.345137596E0,9.748361588E0
2.198744790E-1,-1.373145461E0,4.443353176E0,9.904069901E0
2.223904690E-1,-1.452196956E0,4.431375504E0,9.908860207E0
2.248715630E-1,-1.524062037E0,4.357114792E0,9.803458214E0
2.273808340E-1,-1.619881988E0,4.199011803E0,9.575885773E0
2.298624480E-1,-1.710911036E0,4.052886486E0,9.283635139E0
2.323805730E-1,-1.758821011E0,3.875619411E0,9.082412720E0
2.348593750E-1,-1.787567019E0,3.640860558E0,8.747042656E0
2.373703130E-1,-1.852245450E0,3.480361938E0,8.567380905E0
2.398556770E-1,-1.837872505E0,3.432451963E0,8.421255112E0
2.423804170E-1,-1.857036471E0,3.391728401E0,8.318248749E0
2.448539060E-1,-1.885782480E0,3.389333010E0,8.299084663E0
2.473790630E-1,-1.847454548E0,3.427660942E0,8.303875923E0
2.498515110E-1,-1.854640961E0,3.513899088E0,8.306270599E0
2.523817710E-1,-1.854640961E0,3.578577518E0,8.430836678E0
2.548499480E-1,-1.811522007E0,3.655233383E0,8.555402756E0
2.573708860E-1,-1.801939964E0,3.741471529E0,8.615290642E0
2.598464060E-1,-1.768403053E0,3.786986113E0,8.689551353E0
2.623793750E-1,-1.773193955E0,3.818127394E0,8.713505745E0
2.648429170E-1,-1.713306546E0,3.830105066E0,8.749438286E0
2.673421360E-1,-1.653419018E0,3.753448963E0,8.794953346E0
2.698393230E-1,-1.689351559E0,3.676793098E0,8.811721802E0
2.723404170E-1,-1.766007543E0,3.612114429E0,8.854840279E0
2.748388020E-1,-1.775589466E0,3.528271914E0,8.756625175E0
2.773640630E-1,-1.888177991E0,3.485152960E0,8.600917816E0
2.798335940E-1,-1.933692455E0,3.434847593E0,8.541029930E0
2.823417190E-1,-1.993579984E0,3.394124031E0,8.476351738E0
2.848293230E-1,-2.005557537E0,3.451616049E0,8.416463852E0
2.873409380E-1,-1.943274498E0,3.432451963E0,8.500306129E0
2.898275520E-1,-2.079818010E0,3.396519423E0,8.742252350E0
2.923419790E-1,-2.075026989E0,3.372564554E0,8.885981560E0
2.948249480E-1,-2.118145943E0,3.279139996E0,9.091995239E0
2.973612500E-1,-2.182824612E0,3.291117430E0,9.127927780E0
2.998221880E-1,-2.154078484E0,3.293513060E0,9.022525787E0
3.023341150E-1,-2.108563900E0,3.331840992E0,9.039294243E0
3.048196880E-1,-2.010348558E0,3.303095102E0,9.005757332E0
3.073336980E-1,-1.914528489E0,3.243207455E0,8.905145645E0
3.098159380E-1,-1.952856541E0,3.221647978E0,9.058458328E0
3.123258340E-1,-2.005557537E0,3.219252586E0,9.154277802E0
3.148149480E-1,-2.075026989E0,3.149782896E0,9.195001602E0
3.173547400E-1,-2.070235968E0,3.099477530E0,9.211770058E0
3.198158340E-1,-2.079818010E0,3.061149597E0,9.137509346E0
3.223236460E-1,-2.110959530E0,2.979702473E0,9.118345261E0
3.248465630E-1,-2.161264896E0,2.915024042E0,9.058458328E0
3.273343750E-1,-2.161264896E0,2.936583519E0,9.053667068E0
3.298295840E-1,-2.154078484E0,3.001261950E0,9.044084549E0
3.323288020E-1,-2.194802046E0,3.061149597E0,9.084808350E0
3.348285420E-1,-2.288226604E0,3.125828028E0,9.087203979E0
3.373421880E-1,-2.336136580E0,3.192902088E0,9.020130157E0
3.398260420E-1,-2.367278099E0,3.209670544E0,8.996174812E0
3.423245840E-1,-2.376859903E0,3.226438999E0,9.020130157E0
3.448256250E-1,-2.408001423E0,3.267162561E0,9.041689873E0
3.473171880E-1,-2.434351921E0,3.298304081E0,8.979406357E0
3.498205730E-1,-2.436747551E0,3.324654579E0,8.897959709E0
3.523132290E-1,-2.446329594E0,3.336632013E0,8.821303368E0
3.548131770E-1,-2.470284462E0,3.300699472E0,8.720692635E0
3.573273440E-1,-2.496634960E0,3.267162561E0,8.586544037E0
3.598138540E-1,-2.546940565E0,3.279139996E0,8.553007126E0
3.623070310E-1,-2.592454910E0,3.233625412E0,8.411672592E0
3.648103130E-1,-2.630783081E0,3.233625412E0,8.234406471E0
3.673098440E-1,-2.661924601E0,3.156969547E0,8.138586044E0
3.698086980E-1,-2.649946928E0,3.061149597E0,8.131399155E0
3.723070310E-1,-2.642760515E0,3.001261950E0,8.145772934E0
3.748030730E-1,-2.666715384E0,2.922210455E0,8.236801147E0
3.773152090E-1,-2.575686455E0,2.876696110E0,8.375740051E0
3.798026040E-1,-2.475075483E0,2.852741003E0,8.495515823E0
3.823001040E-1,-2.424770117E0,2.788062572E0,8.562589645E0
3.848194270E-1,-2.345718384E0,2.704220057E0,8.730274200E0
3.872982290E-1,-2.269062519E0,2.649123430E0,8.881191254E0
3.897957290E-1,-2.146892071E0,2.632354975E0,9.077622414E0
3.922981250E-1,-1.940878987E0,2.586840391E0,9.331544876E0
3.947932290E-1,-1.852245450E0,2.512579918E0,9.523184776E0
3.973083340E-1,-1.859431982E0,2.447901487E0,9.590258598E0
3.997866670E-1,-1.940878987E0,2.340104103E0,9.729198456E0
4.022861980E-1,-2.067840576E0,2.308962584E0,9.906464577E0
4.047844270E-1,-2.213965893E0,2.337708473E0,1.006935883E1
4.072865630E-1,-2.360091448E0,2.265843391E0,1.020350742E1
4.097813020E-1,-2.484657526E0,2.229911089E0,1.018434334E1
4.122851560E-1,-2.556522608E0,2.265843391E0,1.007894135E1
4.147783860E-1,-2.633178473E0,2.268239021E0,9.983120918E0
4.172955730E-1,-2.743371487E0,2.275425434E0,9.848973274E0
4.197820310E-1,-2.853564501E0,2.273030043E0,9.702847481E0
4.222811980E-1,-2.951780081E0,2.318544388E0,9.650146484E0
4.247781770E-1,-3.042809010E0,2.304171562E0,9.652542114E0
4.272772920E-1,-2.954175472E0,2.294589520E0,9.707638741E0
4.297762500E-1,-2.872728586E0,2.289798498E0,9.686079025E0
4.322674480E-1,-2.808049917E0,2.196373940E0,9.712429047E0
4.347692190E-1,-2.803258896E0,2.174814463E0,9.537557602E0
4.372791150E-1,-2.812840939E0,2.198769569E0,9.226142883E0
4.397654170E-1,-2.997294426E0,2.249074936E0,8.941078186E0
4.422591150E-1,-3.198516607E0,2.313753605E0,8.632059097E0
4.447690110E-1,-3.428484440E0,2.368849993E0,8.267943382E0
4.472577610E-1,-3.545864105E0,2.445506096E0,8.028392792E0
4.497631250E-1,-3.591378450E0,2.531744003E0,8.090676308E0
4.522593230E-1,-3.591378450E0,2.596422434E0,8.133794785E0
4.547598440E-1,-3.505140543E0,2.574862957E0,8.196078300E0
4.572716670E-1,-3.445252895E0,2.582049608E0,8.246383667E0
4.597560420E-1,-3.303918600E0,2.567676544E0,8.373345375E0
4.622521360E-1,-3.186538935E0,2.479043007E0,8.394904137E0
4.647528130E-1,-3.117069483E0,2.421550989E0,8.507493019E0
4.673067190E-1,-3.059577465E0,2.330522060E0,8.634454727E0
4.697527610E-1,-3.040413618E0,2.222724438E0,8.818907738E0
4.723078650E-1,-2.992503405E0,2.153254986E0,8.974615097E0
4.747482810E-1,-2.822422981E0,2.117322445E0,9.161464691E0
4.772630210E-1,-2.750557899E0,2.083785534E0,9.221351624E0
4.797463020E-1,-2.599641562E0,2.028688908E0,9.166255951E0
4.823084380E-1,-2.561313391E0,2.004734039E0,9.044084549E0
4.847426560E-1,-2.587663889E0,2.007129431E0,8.833280563E0
4.873086980E-1,-2.635574102E0,1.947242022E0,8.560194016E0
4.897407290E-1,-2.661924601E0,1.930473447E0,8.397299767E0
4.923090110E-1,-2.635574102E0,1.971197009E0,8.265547752E0
4.947366670E-1,-2.669111013E0,1.896936536E0,8.184100151E0
4.974256250E-1,-2.726603031E0,1.911309481E0,8.133794785E0
4.997391150E-1,-2.772117615E0,1.995151997E0,8.155354500E0
5.023091150E-1,-2.817631960E0,2.057435036E0,8.243988037E0
5.047355210E-1,-2.865541935E0,2.019107103E0,8.346994400E0
5.073082290E-1,-2.939802408E0,1.983174443E0,8.476351738E0
5.097313020E-1,-2.985316992E0,2.009525061E0,8.600917816E0
5.123093750E-1,-3.061973095E0,2.035875559E0,8.792557716E0
5.147283340E-1,-3.184143543E0,2.047852993E0,8.902750969E0
5.174438020E-1,-3.179352522E0,1.983174443E0,9.027316093E0
5.197306770E-1,-3.073950529E0,1.877772450E0,9.118345261E0
5.223150520E-1,-3.059577465E0,1.746019959E0,9.439342499E0
5.247249480E-1,-3.232053518E0,1.640617967E0,9.789085388E0
5.273094790E-1,-3.251217604E0,1.607081056E0,1.008133698E1
5.297160940E-1,-3.366201401E0,1.607081056E0,1.040952015E1
5.323091150E-1,-3.402133942E0,1.645408988E0,1.047659397E1
5.347151560E-1,-3.495558500E0,1.734042525E0,1.051492214E1
5.374382290E-1,-3.624915600E0,1.798720956E0,1.054845905E1
5.397116670E-1,-3.660847902E0,1.882563472E0,1.062032413E1
5.423091150E-1,-3.711153507E0,1.877772450E0,1.061074162E1
5.447096360E-1,-3.701571465E0,1.880167961E0,1.063469696E1
5.473097920E-1,-3.699176073E0,1.908913970E0,1.071853924E1
5.497116670E-1,-3.663243532E0,1.849026442E0,1.080956841E1
5.523098440E-1,-3.591378450E0,1.772370458E0,1.079519558E1
5.547030730E-1,-3.380574465E0,1.736438036E0,1.063948822E1
5.574278130E-1,-3.234448910E0,1.621454000E0,1.067302513E1
5.597008860E-1,-3.119465113E0,1.583125949E0,1.077363586E1
5.623057810E-1,-2.901474476E0,1.571148515E0,1.067062950E1
5.646976560E-1,-2.752953529E0,1.573544025E0,1.068979359E1
5.673016150E-1,-2.664319992E0,1.465746522E0,1.066344261E1
5.696938020E-1,-2.527776480E0,1.422627449E0,1.059876442E1
5.722995310E-1,-2.427165508E0,1.484910488E0,1.044305706E1
5.746956770E-1,-2.295413017E0,1.554380059E0,1.016278362E1
5.774184900E-1,-2.230734587E0,1.652595520E0,9.839390755E0
5.796929170E-1,-2.218756914E0,1.734042525E0,9.511207581E0
5.822959380E-1,-2.235525608E0,1.793930054E0,9.209374428E0
5.846923440E-1,-2.266666889E0,1.791534543E0,9.044084549E0
5.872960420E-1,-2.249898434E0,1.726855993E0,8.914728165E0
5.896917710E-1,-2.283435583E0,1.638222456E0,8.895564079E0
5.922852610E-1,-2.245107412E0,1.559170961E0,8.814117432E0
5.946868230E-1,-2.156474113E0,1.563961983E0,8.744647026E0
5.974126040E-1,-2.101377487E0,1.511260986E0,8.579358101E0
5.996890110E-1,-2.072631598E0,1.415441036E0,8.481142044E0
6.021790110E-1,-1.981602550E0,1.389090538E0,8.471560478E0
6.046860940E-1,-1.895364523E0,1.405858994E0,8.275129318E0
6.071805210E-1,-1.847454548E0,1.434605002E0,8.236801147E0
6.096816670E-1,-1.883386970E0,1.504074454E0,8.301480293E0
6.121706250E-1,-1.914528489E0,1.559170961E0,8.835676193E0
6.146778650E-1,-1.897760034E0,1.556775451E0,9.372268677E0
6.173979170E-1,-1.979207039E0,1.439396024E0,9.666914940E0
6.196780730E-1,-2.079818010E0,1.245360494E0,9.796272278E0
6.221650520E-1,-2.158869505E0,1.029765487E0,1.003821754E1
6.246667190E-1,-2.213965893E0,8.908265233E-1,1.034244633E1
6.273198440E-1,-2.269062519E0,8.596850038E-1,1.037837887E1
6.296570840E-1,-2.266666889E0,7.375144958E-1,1.055325031E1
6.323154690E-1,-2.302599430E0,5.985754728E-1,1.054127216E1
6.346529170E-1,-2.408001423E0,5.602474809E-1,1.059157753E1
6.374498960E-1,-2.477471113E0,5.674340129E-1,1.063709259E1
6.396869790E-1,-2.544544935E0,4.835914969E-1,1.065865231E1
6.421823440E-1,-2.578082085E0,4.428679943E-1,1.072093487E1
6.446851560E-1,-2.592454910E0,4.356814921E-1,1.068260670E1
6.471802610E-1,-2.537358522E0,4.596365094E-1,1.073530769E1
6.496468230E-1,-2.458307028E0,6.081575155E-1,1.054606342E1
6.521723440E-1,-2.252294064E0,6.488810182E-1,1.081915092E1
6.546778650E-1,-1.888177991E0,8.285434842E-1,1.113056564E1
6.574334900E-1,-1.789962530E0,9.123860002E-1,1.133897400E1
6.596760940E-1,-2.089400053E0,6.824179888E-1,1.042868423E1
6.621658340E-1,-2.546940565E0,3.614209890E-1,8.996174812E0
6.646732290E-1,-2.891892433E0,1.913405061E-1,8.986593246E0
6.671628130E-1,-3.164979458E0,2.871604860E-1,9.444133759E0
6.696692190E-1,-3.220076084E0,3.901669979E-1,9.683683395E0
6.721615630E-1,-3.155397415E0,4.979645014E-1,9.820226669E0
6.746666150E-1,-3.014062881E0,6.201350093E-1,9.834600449E0
6.771569790E-1,-2.879914999E0,5.961800218E-1,9.638169289E0
6.796641670E-1,-2.602036953E0,6.105530262E-1,9.472879410E0
6.821604170E-1,-2.360091448E0,6.632540226E-1,9.492043495E0
6.846606250E-1,-2.223547935E0,6.392989755E-1,9.441738129E0
6.871538540E-1,-2.089400053E0,7.015820146E-1,9.221351624E0
6.896557810E-1,-2.118145943E0,7.542830110E-1,9.123136520E0
6.921518230E-1,-2.242712021E0,6.584630013E-1,8.972220421E0
6.946595840E-1,-2.314577103E0,6.392989755E-1,8.701528549E0
6.971501040E-1,-2.309786081E0,6.249259710E-1,8.548216820E0
6.996556250E-1,-2.285830975E0,6.536719799E-1,8.414068222E0
7.021496880E-1,-2.288226604E0,6.752315164E-1,8.346994400E0
7.046501040E-1,-2.158869505E0,6.536719799E-1,8.248779297E0
7.071485420E-1,-2.134914398E0,6.536719799E-1,8.215242386E0
7.096505210E-1,-2.029512405E0,6.896045208E-1,8.045161247E0
7.121437500E-1,-2.017534971E0,6.177394986E-1,7.855916977E0
7.146486980E-1,-2.118145943E0,4.764049947E-1,7.987669468E0
7.171440630E-1,-1.967229486E0,3.446525037E-1,7.616366863E0
7.196279170E-1,-1.581554055E0,4.761049896E-2,7.405562878E0
7.221378650E-1,-7.982255220E-1,-3.787885010E-1,7.458263874E0
7.246390110E-1,-4.843400046E-2,-7.021809816E-1,7.736142159E0
7.271369270E-1,2.366304994E-1,-6.734349728E-1,8.179309845E0
7.296398440E-1,4.234794974E-1,-5.129364729E-1,8.809326172E0
7.321353650E-1,5.576274991E-1,-4.578399956E-1,9.259679794E0
7.346369790E-1,7.420809865E-1,-4.458625019E-1,9.147091866E0
7.371355730E-1,9.624670148E-1,-4.626309872E-1,9.091995239E0
7.396060940E-1,1.257113457E0,-5.416824818E-1,9.312380791E0
7.421369790E-1,1.350538015E0,-6.949945092E-1,9.621400833E0
7.445963540E-1,1.055891514E0,-8.866345286E-1,9.724407196E0
7.471329170E-1,6.606339812E-1,-9.656860232E-1,9.053667068E0
7.495979690E-1,5.169039965E-1,-9.848499894E-1,7.673859119E0
7.521330210E-1,4.713895023E-1,-9.608950019E-1,6.397057533E0
7.545894790E-1,2.725630105E-1,-9.177759886E-1,5.779018402E0
7.571286980E-1,-4.124749824E-2,-8.387244940E-1,5.505931377E0
7.595883860E-1,-4.197365046E-1,-7.141584754E-1,5.553841591E0
7.621237500E-1,-8.437399864E-1,-5.368915200E-1,5.489162922E0
7.645843230E-1,-1.231811047E0,-3.093189895E-1,5.383760929E0
7.671200000E-1,-1.521666527E0,-5.779150128E-2,5.350224018E0
7.696124480E-1,-1.840268016E0,8.593849838E-2,5.532281876E0
7.721181250E-1,-2.005557537E0,1.410350055E-1,5.213680267E0
7.745770840E-1,-2.031908035E0,3.802850097E-2,4.710625648E0
7.771146360E-1,-2.094191074E0,-1.751710027E-1,4.353695869E0
7.795758340E-1,-2.213965893E0,-5.512645245E-1,4.042281151E0
7.821108340E-1,-2.206779480E0,-1.035155535E0,3.723679543E0
7.846099480E-1,-2.063049555E0,-1.502277970E0,3.752425432E0
7.871069790E-1,-1.754029989E0,-1.986168981E0,4.018325806E0
7.896078650E-1,-9.730970263E-1,-2.671282053E0,4.068631649E0
7.921042190E-1,-1.442539990E-1,-3.397118568E0,4.267457962E0
7.946046360E-1,5.001354814E-1,-3.888195992E0,4.705834389E0
7.970936460E-1,1.180457473E0,-4.247520924E0,4.638760567E0
7.995995840E-1,1.839220047E0,-4.563726902E0,3.999161959E0
8.020919790E-1,2.227291107E0,-4.690688610E0,4.238711834E0
8.045990630E-1,2.416535616E0,-4.673920155E0,4.485448360E0
8.070905210E-1,2.493191481E0,-4.513421535E0,4.533358574E0
8.095955210E-1,2.687227011E0,-4.252312183E0,4.404001713E0
8.120873440E-1,2.569847584E0,-4.046298981E0,4.241107464E0
8.145936460E-1,2.426117420E0,-3.988806963E0,4.080608845E0
8.170880730E-1,2.148239613E0,-3.960061073E0,3.884177923E0
8.195604690E-1,1.712258458E0,-4.043903351E0,3.771589518E0
8.220821360E-1,1.209203482E0,-4.252312183E0,3.575158596E0
8.245903650E-1,7.085440159E-1,-4.408019543E0,3.508084536E0
8.270754170E-1,2.486079931E-1,-4.575704575E0,3.527248383E0
8.295830210E-1,-2.855885029E-1,-4.652360439E0,3.314049006E0
8.320755730E-1,-8.149939775E-1,-4.626009941E0,3.127199888E0
8.345798440E-1,-1.227020025E0,-4.621219158E0,3.239788532E0
8.370735420E-1,-1.713306546E0,-4.556540489E0,3.385914087E0
8.395807810E-1,-2.146892071E0,-4.544562817E0,3.438615084E0
8.420725520E-1,-2.652342558E0,-4.604450703E0,3.563180923E0
8.445830730E-1,-3.162584066E0,-4.700270653E0,3.824290514E0
8.470684900E-1,-3.577005386E0,-4.791299343E0,3.956043005E0
8.495783340E-1,-4.111201763E0,-4.875142097E0,4.195592880E0
8.520632810E-1,-4.568742275E0,-5.016476631E0,4.233921051E0
8.545694270E-1,-4.940044880E0,-5.160206318E0,4.200384140E0
8.570612500E-1,-5.249064445E0,-5.406942844E0,4.171638012E0
8.595680730E-1,-5.591620922E0,-5.694403172E0,4.126123428E0
8.620565110E-1,-5.912618160E0,-5.883647442E0,4.135705471E0
8.645680210E-1,-6.053952694E0,-6.187876225E0,3.977602482E0
8.670549480E-1,-6.185705185E0,-6.432217121E0,3.908133030E0
8.695673960E-1,-6.176123142E0,-6.645416737E0,4.142891884E0
8.720513020E-1,-5.874289989E0,-6.793937683E0,4.466284275E0
8.745680210E-1,-5.668276787E0,-6.863407135E0,4.765721798E0
8.770529170E-1,-5.534129143E0,-6.851429462E0,4.873519421E0
8.795612500E-1,-5.627553463E0,-7.016718864E0,5.149002075E0
8.820473960E-1,-5.742537498E0,-7.112538815E0,5.505931377E0
8.845568750E-1,-5.790447712E0,-7.155657768E0,5.613729000E0
8.870410940E-1,-5.903036118E0,-7.265851021E0,5.539468288E0
8.895539590E-1,-5.960527897E0,-7.541333675E0,5.352619648E0
8.920396360E-1,-5.948550701E0,-7.776092529E0,5.275963306E0
8.945527090E-1,-5.955737114E0,-7.893472195E0,5.043600082E0
8.970392190E-1,-5.879080772E0,-7.821607113E0,4.732184887E0
8.995563540E-1,-5.802424908E0,-7.735369205E0,4.540544987E0
9.020399480E-1,-5.926990986E0,-7.665899277E0,4.674693108E0
9.045503650E-1,-5.989274025E0,-7.553310871E0,4.880705833E0
9.070369790E-1,-5.946155071E0,-7.237104893E0,4.957362175E0
9.095439060E-1,-5.653903961E0,-6.717281342E0,4.950175285E0
9.120303130E-1,-5.366444111E0,-6.254950047E0,5.208889484E0
9.145409380E-1,-5.263437271E0,-5.792618275E0,5.575400829E0
9.170292190E-1,-5.186781406E0,-5.462039471E0,5.656847954E0
9.195181770E-1,-5.213131905E0,-5.251235485E0,5.867651939E0
9.220248440E-1,-5.493405342E0,-5.227280617E0,6.339565277E0
9.245514060E-1,-5.891058445E0,-5.217698574E0,6.861784458E0
9.270226560E-1,-6.432441711E0,-5.327891350E0,7.261833191E0
9.295367710E-1,-6.360576630E0,-5.232071400E0,7.194758892E0
9.320228650E-1,-6.216846466E0,-5.174579620E0,7.031865120E0
9.345336980E-1,-6.204868793E0,-5.172183990E0,6.981559277E0
9.370176040E-1,-6.243196964E0,-5.236862659E0,7.043842316E0
9.395310940E-1,-6.262361050E0,-5.332682610E0,7.113311768E0
9.420134380E-1,-6.341412544E0,-5.505158424E0,7.187572479E0
9.445360420E-1,-6.461187363E0,-5.670447826E0,7.082170486E0
9.470112500E-1,-6.703133106E0,-5.890833855E0,7.051029205E0
9.495000000E-1,-6.863631725E0,-6.089660645E0,6.995932579E0
9.520075000E-1,-7.098390579E0,-6.314837456E0,6.828247547E0
9.545267190E-1,-7.405014515E0,-6.563969612E0,6.761173725E0
9.570085940E-1,-7.728406906E0,-6.724468231E0,6.636607647E0
9.595265110E-1,-8.073358536E0,-6.899339676E0,6.516832352E0
9.620026560E-1,-8.499757767E0,-6.997554779E0,6.387475491E0
9.644866670E-1,-8.866269112E0,-7.007136822E0,6.203022003E0
9.670021880E-1,-9.321414948E0,-7.088583946E0,5.848487854E0
9.694924480E-1,-9.783745766E0,-7.067024708E0,5.549050331E0
9.720002090E-1,-1.021493626E1,-6.992763996E0,5.220867157E0
9.744997400E-1,-1.067008114E1,-6.904130459E0,4.921429634E0
9.769956770E-1,-1.107731628E1,-6.793937683E0,4.662715435E0
9.794838020E-1,-1.144861889E1,-6.736445427E0,4.241107464E0
9.819954170E-1,-1.175284672E1,-6.623857021E0,3.886573553E0
9.844822920E-1,-1.196604633E1,-6.563969612E0,3.620672941E0
9.869934380E-1,-1.220320129E1,-6.496895313E0,3.335608482E0
9.894830210E-1,-1.240681839E1,-6.417843819E0,3.084080935E0
9.919838540E-1,-1.258887672E1,-6.357956409E0,2.909209490E0
9.944847400E-1,-1.273021126E1,-6.276509285E0,2.727151394E0
9.969834900E-1,-1.289789581E1,-6.245368004E0,2.700800896E0
9.994772920E-1,-1.296496964E1,-6.257345676E0,2.676846027E0
1.001980156E0,-1.300329781E1,-6.278904915E0,2.619354010E0
1.004482292E0,-1.313744640E1,-6.290882587E0,2.655286551E0
1.006981823E0,-1.320212460E1,-6.441799164E0,2.760688543E0
1.009470417E0,-1.325482559E1,-6.604692936E0,2.921186924E0
1.011975625E0,-1.330752659E1,-6.760400295E0,3.019402504E0
1.014455521E0,-1.336741447E1,-6.906526089E0,3.096058607E0
1.016973125E0,-1.341532421E1,-7.023905277E0,3.172714472E0
1.019462709E0,-1.342730141E1,-7.105352402E0,3.330817461E0
1.021970000E0,-1.346083832E1,-7.311365604E0,3.292489529E0
1.024470417E0,-1.339136887E1,-7.421558380E0,3.333213091E0
1.026965521E0,-1.323087025E1,-7.536542416E0,3.302071571E0
1.029457813E0,-1.308953571E1,-7.582056999E0,3.364354610E0
1.031950052E0,-1.297934341E1,-7.572474957E0,3.450592518E0
1.034442292E0,-1.284040356E1,-7.519773960E0,3.409868956E0
1.036934584E0,-1.266792774E1,-7.455095291E0,3.292489529E0
1.039426823E0,-1.247149658E1,-7.316156387E0,3.043357611E0
1.041919115E0,-1.234214020E1,-7.179613113E0,2.942746401E0
1.044411354E0,-1.230141640E1,-7.110143661E0,2.698405504E0
1.046903594E0,-1.222715569E1,-7.009532452E0,2.410945415E0
1.049395886E0,-1.221278286E1,-7.045464993E0,2.262424469E0
1.051888125E0,-1.222715569E1,-6.997554779E0,2.116298914E0
1.054380417E0,-1.233016205E1,-7.081397533E0,1.986942053E0
1.056954271E0,-1.248347473E1,-7.196381569E0,1.843212008E0
1.059446511E0,-1.261043644E1,-7.388021469E0,1.668340445E0
1.061938802E0,-1.281644917E1,-7.543728828E0,1.493469000E0
1.064431042E0,-1.300808907E1,-7.701831818E0,1.306620002E0
1.066923334E0,-1.321889305E1,-7.903054237E0,1.165285468E0
1.069415573E0,-1.344167423E1,-8.106671333E0,1.045510530E0
1.071907865E0,-1.373632145E1,-8.310289383E0,8.850119710E-1
1.074400104E0,-1.390879726E1,-8.377363205E0,7.508640289E-1
1.076892344E0,-1.414834690E1,-8.446832657E0,5.424554944E-1
1.079384636E0,-1.441664314E1,-8.451623917E0,4.514265060E-1
1.081876875E0,-1.468733406E1,-8.449228287E0,3.939344883E-1
1.084369167E0,-1.497479439E1,-8.377363205E0,3.580020070E-1
1.086935052E0,-1.534849262E1,-8.391736031E0,4.777770042E-1
1.089427292E0,-1.571979523E1,-8.506719589E0,5.304780006E-1
1.091919584E0,-1.610547066E1,-8.614517212E0,5.185005069E-1
1.094411823E0,-1.630429649E1,-8.597748756E0,5.017319918E-1
1.096904115E0,-1.646479607E1,-8.573794365E0,5.328735113E-1
1.099396354E0,-1.657259369E1,-8.521093369E0,5.448510051E-1
1.101888646E0,-1.660613060E1,-8.432459831E0,5.927609801E-1
1.104380886E0,-1.662050247E1,-8.384549141E0,6.262980103E-1
1.106873125E0,-1.659654808E1,-8.348616600E0,7.772145271E-1
1.109365417E0,-1.656540680E1,-8.365385056E0,9.209445119E-1
1.111857656E0,-1.639772224E1,-8.377363205E0,1.033532977E0
1.114349948E0,-1.626596832E1,-8.384549141E0,1.091024995E0
1.116917656E0,-1.609828377E1,-8.353407860E0,1.160494447E0
1.119409948E0,-1.593059921E1,-8.389340401E0,1.270687461E0
1.121902188E0,-1.569344425E1,-8.351012230E0,1.340157032E0
1.124394427E0,-1.538921642E1,-8.360594749E0,1.371298552E0
1.126886719E0,-1.512331581E1,-8.394131660E0,1.529401541E0
1.129378959E0,-1.475440884E1,-8.365385056E0,1.656363010E0
1.131871250E0,-1.431124115E1,-8.343826294E0,1.836025476E0
1.134363490E0,-1.388484192E1,-8.322266579E0,2.034852028E0
1.136855729E0,-1.339855576E1,-8.221655846E0,2.152231455E0
1.139348021E0,-1.296257496E1,-8.034806252E0,2.312730074E0
1.141840261E0,-1.251222038E1,-7.931799889E0,2.379803896E0
1.144332552E0,-1.219122314E1,-7.835979939E0,2.523534060E0
1.146903802E0,-1.192053223E1,-7.685063362E0,2.578630447E0
1.149396042E0,-1.176003361E1,-7.598825455E0,2.578630447E0
1.151888334E0,-1.161151218E1,-7.474259377E0,2.583421469E0
1.154380573E0,-1.155402088E1,-7.392812729E0,2.528325081E0
1.156872865E0,-1.155402088E1,-7.325738430E0,2.281588554E0
1.159365104E0,-1.159713936E1,-7.282619476E0,2.125880957E0
1.161857396E0,-1.168577290E1,-7.332924843E0,1.948614001E0
1.164349636E0,-1.186543560E1,-7.416767597E0,1.871958017E0
1.166841875E0,-1.202593422E1,-7.505401134E0,1.783324480E0
1.169334167E0,-1.214331341E1,-7.615593910E0,1.737810016E0
1.171826406E0,-1.226548386E1,-7.639548779E0,1.843212008E0
1.174318750E0,-1.232297611E1,-7.670690536E0,1.915076971E0
1.176886198E0,-1.237328148E1,-7.764114857E0,1.922263503E0
1.179378490E0,-1.239244556E1,-7.821607113E0,1.855189443E0
1.181870729E0,-1.238765430E1,-7.869516850E0,1.850398540E0
1.184363021E0,-1.230620766E1,-7.900658607E0,1.804883957E0
1.186855261E0,-1.221996975E1,-7.974918842E0,1.800093055E0
1.189347552E0,-1.216487312E1,-7.986896515E0,1.795302033E0
1.191839792E0,-1.205707550E1,-7.960546017E0,1.824048042E0
1.194332084E0,-1.194927788E1,-7.960546017E0,2.056411505E0
1.196824323E0,-1.177440643E1,-7.974918842E0,2.106717110E0
1.199316615E0,-1.162109470E1,-7.938986301E0,2.082762003E0
1.201808854E0,-1.143664074E1,-7.931799889E0,2.013292551E0
1.204301094E0,-1.117553139E1,-8.001269341E0,1.893517494E0
1.206879479E0,-1.086890793E1,-7.989292145E0,1.692295551E0
1.209371719E0,-1.066528988E1,-7.991687298E0,1.548565507E0
1.211864011E0,-1.046885872E1,-7.929404736E0,1.412021995E0
1.214356250E0,-1.027961445E1,-7.876703262E0,1.268291950E0
1.216848542E0,-1.006162357E1,-7.788070202E0,1.081442952E0
1.219340781E0,-9.884357452E0,-7.716205120E0,8.442885280E-1
1.221833073E0,-9.738231659E0,-7.550915718E0,5.688059926E-1
1.224325313E0,-9.620852470E0,-7.438326836E0,2.214584947E-1
1.226817604E0,-9.592105865E0,-7.237104893E0,-9.235200286E-2
1.229309844E0,-9.704694748E0,-7.071815491E0,-2.456640005E-1
1.231802136E0,-9.795723915E0,-6.966413498E0,-3.510659933E-1
1.234294375E0,-9.972990036E0,-6.875384331E0,-4.013715088E-1
1.236856563E0,-1.019337654E1,-6.884966373E0,-3.702299893E-1
1.239348802E0,-1.047844124E1,-6.839451790E0,-3.055514991E-1
1.241841094E0,-1.070122242E1,-6.825078964E0,-1.953584999E-1
1.244333386E0,-1.077308750E1,-6.846638680E0,-7.079250365E-2
1.246825625E0,-1.087848949E1,-6.911316872E0,8.970600367E-2
1.249317917E0,-1.087609386E1,-6.980786324E0,2.022944987E-1
1.251810156E0,-1.086172104E1,-7.057442665E0,3.939344883E-1
1.254302396E0,-1.076829624E1,-7.069419861E0,6.933720112E-1
1.256794636E0,-1.067726707E1,-7.150866985E0,9.568769932E-1
1.259286927E0,-1.055270195E1,-7.289805889E0,1.282665014E0
1.261779167E0,-1.036106110E1,-7.299387932E0,1.562938452E0
1.264271459E0,-1.013827991E1,-7.361670971E0,1.673131466E0
1.266836302E0,-9.963408470E0,-7.531751633E0,2.001315117E0
1.269328542E0,-9.822073936E0,-7.649130821E0,2.401363611E0
1.271820834E0,-9.721463203E0,-7.788070202E0,2.664868593E0
1.274313073E0,-9.565755844E0,-7.912635803E0,2.866090536E0
1.276805365E0,-9.434002876E0,-7.970128059E0,3.036170959E0
1.279297604E0,-9.311832428E0,-7.936591148E0,3.105640411E0
1.281789896E0,-9.235176086E0,-7.929404736E0,3.120013475E0
1.284282136E0,-9.120192528E0,-7.903054237E0,3.146363974E0
1.286774375E0,-9.014790535E0,-7.895867348E0,3.177505493E0
1.289266667E0,-8.947716713E0,-7.838375568E0,3.266139030E0
1.291758906E0,-8.940529823E0,-7.783278942E0,3.256556988E0
1.294251198E0,-8.866269112E0,-7.752137661E0,3.158341408E0
1.296823802E0,-8.823150635E0,-7.783278942E0,3.048148394E0
1.299316042E0,-8.780031204E0,-7.754532814E0,2.933164597E0
1.301808334E0,-8.751285553E0,-7.697041035E0,2.684032440E0
1.304300573E0,-8.792009354E0,-7.613198280E0,2.406154394E0
1.306792865E0,-8.856687546E0,-7.603616714E0,2.243260384E0
1.309285104E0,-8.918970108E0,-7.706623077E0,2.018083572E0
1.311777396E0,-8.964485168E0,-7.838375568E0,1.790511012E0
1.314269636E0,-9.074678421E0,-7.855144024E0,1.541378975E0
1.316761875E0,-9.084259987E0,-7.819211483E0,1.244336963E0
1.319254167E0,-9.017186165E0,-7.766510487E0,9.688544869E-1
1.321746406E0,-9.019581795E0,-7.785674572E0,7.388864756E-1
1.324238698E0,-8.993230820E0,-7.807233810E0,5.352690220E-1
1.326804688E0,-8.878247261E0,-7.754532814E0,3.268604875E-1
1.329296927E0,-8.820755005E0,-7.740159988E0,3.460950032E-2
1.331789219E0,-8.780031204E0,-7.706623077E0,-4.683750123E-2
1.334281459E0,-8.744098663E0,-7.627571583E0,-1.258890033E-1
1.336773750E0,-8.700980186E0,-7.546124458E0,-2.097315043E-1
1.339266042E0,-8.564436913E0,-7.431140423E0,-2.121270001E-1
1.341758281E0,-8.471012115E0,-7.428744793E0,-2.911784947E-1
1.344250573E0,-8.375191689E0,-7.421558380E0,-2.935740054E-1
1.346742761E0,-8.257812500E0,-7.471864223E0,-2.815965116E-1
1.349235052E0,-8.135642052E0,-7.505401134E0,-2.792010009E-1
1.351727292E0,-7.989516735E0,-7.565288544E0,-3.917894959E-1
1.354219636E0,-7.831413269E0,-7.582056999E0,-3.534615040E-1
1.356789896E0,-7.658937454E0,-7.606011868E0,-3.846029937E-1
1.359282188E0,-7.464901924E0,-7.584452629E0,-4.373039901E-1
1.361774427E0,-7.254097939E0,-7.548520088E0,-4.277220070E-1
1.364266719E0,-7.076830864E0,-7.620385170E0,-3.271110058E-1
1.366758959E0,-6.885190964E0,-7.610803127E0,-3.390884995E-1
1.369251250E0,-6.854049683E0,-7.529356003E0,-3.654389977E-1
1.371743490E0,-6.839676380E0,-7.510191917E0,-4.325129986E-1
1.374235781E0,-6.861236095E0,-7.467072964E0,-4.636544883E-1
1.376727969E0,-6.906750679E0,-7.447908878E0,-6.049889922E-1
1.379220313E0,-6.954660416E0,-7.464677334E0,-7.223684788E-1
1.381712500E0,-7.076830864E0,-7.474259377E0,-8.684939742E-1
1.384204844E0,-7.170255661E0,-7.481445789E0,-1.038574457E0
1.386774948E0,-7.297216892E0,-7.443118095E0,-1.112835050E0
1.389267240E0,-7.452924728E0,-7.440722466E0,-1.268542528E0
1.391759479E0,-7.505625725E0,-7.388021469E0,-1.371549010E0
1.394251771E0,-7.553535461E0,-7.342506886E0,-1.438622952E0
1.396744011E0,-7.618214130E0,-7.311365604E0,-1.611099005E0
1.399236302E0,-7.661333084E0,-7.258664608E0,-1.752433538E0
1.401728542E0,-7.709242821E0,-7.208358765E0,-1.812320948E0
1.404220834E0,-7.793085575E0,-7.076606274E0,-1.872208476E0
1.406713021E0,-7.944002151E0,-6.983181953E0,-1.893767953E0
1.409205365E0,-8.039821625E0,-6.901734829E0,-1.948864460E0
1.411697552E0,-8.226671219E0,-6.877779961E0,-1.948864460E0
1.414189896E0,-8.356027603E0,-6.887362003E0,-1.924909472E0
1.416756979E0,-8.480593681E0,-6.904130459E0,-1.929700494E0
1.419249219E0,-8.533294678E0,-6.877779961E0,-1.876999497E0
1.421741511E0,-8.506944656E0,-6.858615875E0,-1.831485033E0
1.424233802E0,-8.506944656E0,-6.796332836E0,-1.714105487E0
1.426726042E0,-8.408728600E0,-6.781960011E0,-1.644636035E0
1.429218281E0,-8.214693069E0,-6.774773598E0,-1.520069957E0
1.431710573E0,-8.058985710E0,-6.772377968E0,-1.464973450E0
1.434202865E0,-7.831413269E0,-6.734049797E0,-1.349989533E0
1.436695052E0,-7.587072372E0,-6.758005142E0,-1.354780555E0
1.439187344E0,-7.266075611E0,-6.750818729E0,-1.395503998E0
1.441679584E0,-6.969033718E0,-6.758005142E0,-1.464973450E0
1.444171875E0,-6.636058807E0,-6.707699299E0,-1.450600505E0
1.446741146E0,-6.307875633E0,-6.676558018E0,-1.484137535E0
1.449233438E0,-6.037183762E0,-6.635834694E0,-1.455391526E0
1.451725677E0,-5.862312317E0,-6.599902153E0,-1.395503998E0
1.454217917E0,-5.658695221E0,-6.506477356E0,-1.369153500E0
1.456710209E0,-5.500592232E0,-6.504082203E0,-1.460182548E0
1.459202500E0,-5.383212566E0,-6.516059399E0,-1.570375443E0
1.461694740E0,-5.275414944E0,-6.573551655E0,-1.699732542E0
1.464186979E0,-5.263437271E0,-6.647811890E0,-1.824298501E0
1.466679219E0,-5.364048481E0,-6.707699299E0,-1.915327549E0
1.469171511E0,-5.541315556E0,-6.858615875E0,-2.118944883E0
1.471663750E0,-5.718582630E0,-6.940063000E0,-2.269861460E0
1.474156094E0,-5.931781769E0,-6.961622715E0,-2.447128534E0
1.476728854E0,-6.173727512E0,-6.911316872E0,-2.653141499E0
1.479221146E0,-6.415672779E0,-6.810706139E0,-2.174041510E0
1.481713386E0,-5.800029278E0,-6.463358402E0,1.979755521E0
1.484205677E0,-5.371234894E0,-6.175898552E0,4.054258347E0
1.486697917E0,-5.349675655E0,-5.967490196E0,4.837586880E0
1.489190209E0,-5.447891235E0,-5.624933720E0,5.826928616E0
1.491682448E0,-5.788052082E0,-5.411734104E0,6.461736202E0
1.494174740E0,-6.075511932E0,-5.303936481E0,6.837829590E0
1.496666927E0,-6.374949455E0,-5.191348076E0,6.852202415E0
1.499159271E0,-6.707923889E0,-5.121878624E0,6.557556152E0
1.501651459E0,-7.007361412E0,-5.124273777E0,6.008986473E0
1.504143802E0,-7.323567390E0,-5.141042709E0,5.254404068E0
1.506713438E0,-7.709242821E0,-5.337473392E0,4.339323044E0
1.509205729E0,-8.145223618E0,-5.605769634E0,3.498502493E0
1.511697969E0,-8.360818863E0,-5.735126495E0,2.803807497E0
1.514190261E0,-8.559645653E0,-5.950721264E0,2.128276587E0
1.516682500E0,-8.617137909E0,-6.101637840E0,1.364112020E0
1.519174792E0,-8.633906364E0,-6.257345676E0,7.604460120E-1
1.521667031E0,-8.681816101E0,-6.480126858E0,1.256384999E-1
1.524159323E0,-8.775240898E0,-6.678953648E0,-6.385260224E-1
1.526651563E0,-8.768054008E0,-6.810706139E0,-1.223027945E0
1.529143854E0,-8.768054008E0,-7.076606274E0,-1.855440021E0
1.531636094E0,-8.677024841E0,-7.275433064E0,-2.485456467E0
1.534128386E0,-8.518921852E0,-7.481445789E0,-3.153800964E0
1.536702084E0,-8.384774208E0,-7.677876949E0,-3.628109932E0
1.539194375E0,-8.200320244E0,-7.826397896E0,-3.999412537E0
1.541686615E0,-8.006284714E0,-7.974918842E0,-4.313222885E0
1.544178906E0,-7.860159397E0,-8.075530052E0,-4.442580223E0
1.546671146E0,-7.843390942E0,-8.154581070E0,-4.507258415E0
1.549163438E0,-7.766735077E0,-8.178536415E0,-4.456953049E0
1.551655677E0,-7.694869995E0,-8.176140785E0,-4.361133099E0
1.554147969E0,-7.670915127E0,-8.197700500E0,-4.301245689E0
1.556640209E0,-7.606236458E0,-8.144999504E0,-4.140747070E0
1.559132500E0,-7.553535461E0,-8.044388771E0,-3.822145462E0
1.561624740E0,-7.505625725E0,-8.018037796E0,-3.515521526E0
1.564117031E0,-7.474483967E0,-7.927009106E0,-3.125055075E0
1.566688073E0,-7.354709148E0,-7.852748394E0,-2.744170427E0
1.569180365E0,-7.227747440E0,-7.785674572E0,-2.334539890E0
1.571672604E0,-7.081622124E0,-7.773696899E0,-1.951259971E0
1.574164896E0,-6.892377377E0,-7.718600273E0,-1.747642517E0
1.576657136E0,-6.698341846E0,-7.699436665E0,-1.579957485E0
1.579149427E0,-6.489933491E0,-7.644340038E0,-1.364362478E0
1.581641667E0,-6.336621284E0,-7.656317711E0,-1.278124452E0
1.584133959E0,-6.200078011E0,-7.663504124E0,-1.275728941E0
1.586626198E0,-6.049161434E0,-7.658712864E0,-1.338011980E0
1.589118490E0,-5.977296352E0,-7.709018707E0,-1.529651999E0
1.591610729E0,-5.915013313E0,-7.675481319E0,-1.699732542E0
1.594103021E0,-5.903036118E0,-7.644340038E0,-1.876999497E0
1.596674063E0,-5.895849705E0,-7.709018707E0,-2.171646118E0
1.599166354E0,-6.020415306E0,-7.709018707E0,-2.564507961E0
1.601658594E0,-6.144981384E0,-7.665899277E0,-2.823221922E0
1.604150886E0,-6.247988224E0,-7.730577946E0,-3.170569420E0
1.606643125E0,-6.315062046E0,-7.606011868E0,-3.448447466E0
1.609135417E0,-6.504306316E0,-7.510191917E0,-3.599364042E0
1.611627656E0,-6.612103939E0,-7.447908878E0,-3.637691975E0
1.614119948E0,-6.755834103E0,-7.474259377E0,-3.699975014E0
1.616612188E0,-6.875608921E0,-7.423954010E0,-3.673624516E0
1.619104479E0,-6.997779369E0,-7.397603512E0,-3.486775398E0
1.621596719E0,-7.031316280E0,-7.371253014E0,-3.369395971E0
1.624089011E0,-7.055271626E0,-7.349693298E0,-3.184942484E0
1.626654896E0,-7.095994949E0,-7.423954010E0,-2.969347477E0
1.629147188E0,-7.074435711E0,-7.411976337E0,-2.705842495E0
1.631639427E0,-7.019339085E0,-7.395207882E0,-2.473479033E0
1.634131719E0,-7.002570629E0,-7.373648643E0,-2.207578421E0
1.636623959E0,-6.921123505E0,-7.320947647E0,-1.903349996E0
1.639116250E0,-6.810930729E0,-7.301783562E0,-1.570375443E0
1.641608490E0,-6.691155434E0,-7.141284943E0,-1.122416973E0
1.644100781E0,-6.604917526E0,-7.016718864E0,-7.798604965E-1
1.646593021E0,-6.530656815E0,-6.896944046E0,-3.917894959E-1
1.649085313E0,-6.537843704E0,-6.789146423E0,-1.737989932E-1
1.651577552E0,-6.566589355E0,-6.734049797E0,-1.833810061E-1
1.654069844E0,-6.693551064E0,-6.731654644E0,-3.941850066E-1
1.656637136E0,-6.808535099E0,-6.738841057E0,-6.193619967E-1
1.659129427E0,-6.844467640E0,-6.734049797E0,-8.493300080E-1
1.661621667E0,-6.949869633E0,-6.765191555E0,-1.081693530E0
1.664113959E0,-7.072040081E0,-6.798728466E0,-1.278124452E0
1.666606198E0,-7.189419270E0,-6.798728466E0,-1.524860978E0
1.669098490E0,-7.175046444E0,-6.786750793E0,-1.735664964E0
1.671590729E0,-7.206188202E0,-6.801124096E0,-1.809925556E0
1.674082969E0,-7.175046444E0,-6.702908516E0,-2.080616951E0
1.676575261E0,-7.084017277E0,-6.719676971E0,-2.408800602E0
1.679067552E0,-6.942683220E0,-6.683744431E0,-2.653141499E0
1.681559792E0,-6.973824501E0,-6.549596310E0,-2.851968050E0
1.684052084E0,-6.961846828E0,-6.551991940E0,-2.926228523E0
1.686589427E0,-6.892377377E0,-6.530432701E0,-2.964556456E0
1.689081667E0,-6.820512295E0,-6.437007904E0,-2.954974413E0
1.691573959E0,-6.746252060E0,-6.317233086E0,-2.883109570E0
1.694066198E0,-6.655222893E0,-6.228599548E0,-2.689074039E0
1.696558490E0,-6.504306316E0,-6.264532089E0,-2.221951485E0
1.699050729E0,-6.518679619E0,-6.214226723E0,-1.807530046E0
1.701543021E0,-6.580962658E0,-6.195062637E0,-1.486533046E0
1.704035261E0,-6.590544701E0,-6.144756794E0,-1.117625952E0
1.706527500E0,-6.667200565E0,-5.943534851E0,-8.181884885E-1
1.709019792E0,-6.631268024E0,-5.869274616E0,-5.211464763E-1
1.711512031E0,-6.614499569E0,-5.948326111E0,-2.384774983E-1
1.714004323E0,-6.803743839E0,-5.929162025E0,-2.527800016E-2
1.716607344E0,-6.849258423E0,-5.957908154E0,1.998990029E-1
1.719099584E0,-6.949869633E0,-6.027377605E0,1.256384999E-1
1.721591875E0,-7.139113903E0,-5.962698936E0,-3.006899916E-2
1.724084167E0,-7.345127106E0,-5.797409534E0,-1.450529993E-1
1.726576406E0,-7.462506294E0,-5.778245449E0,-2.097315043E-1
1.729068698E0,-7.639773369E0,-5.783036709E0,-2.480594963E-1
1.731560938E0,-7.960770607E0,-5.675239086E0,-5.474969745E-1
1.734053229E0,-8.087732315E0,-5.569837093E0,-6.361305118E-1
1.736545469E0,-8.233857155E0,-5.502762794E0,-7.678830028E-1
1.739037761E0,-8.454243660E0,-5.433293343E0,-7.583010197E-1
1.741530000E0,-8.497362137E0,-5.543486595E0,-6.840404868E-1
1.744022292E0,-8.482989311E0,-5.747104168E0,-4.444904923E-1
1.746594063E0,-8.552458763E0,-5.888438702E0,-2.025450021E-1
1.749086354E0,-8.408728600E0,-6.060914516E0,-9.953849763E-2
1.751578594E0,-8.267394066E0,-6.113615513E0,7.533299923E-2
1.754070886E0,-8.233857155E0,-6.185480595E0,1.543844938E-1
1.756563125E0,-8.111686707E0,-6.329210281E0,9.210149944E-2
1.759055417E0,-8.118873596E0,-6.386702538E0,8.731050044E-2
1.761547656E0,-8.039821625E0,-6.322023869E0,-5.162850022E-2
1.764039948E0,-7.941606522E0,-6.341187954E0,-2.408729941E-1
1.766532188E0,-7.912860394E0,-6.391493320E0,-5.954070091E-1
1.769024479E0,-7.963166237E0,-6.448985577E0,-9.715005159E-1
1.771516719E0,-8.013471603E0,-6.477731705E0,-1.354780555E0
1.774009011E0,-8.058985710E0,-6.448985577E0,-1.855440021E0
1.776572865E0,-8.102105141E0,-6.468149662E0,-2.394427538E0
1.779065156E0,-8.018262863E0,-6.494500160E0,-2.990906954E0
1.781557396E0,-7.991911888E0,-6.583133698E0,-3.410119534E0
1.784049688E0,-7.824226856E0,-6.844243050E0,-3.946711540E0
1.786541927E0,-7.663728714E0,-7.071815491E0,-4.461743832E0
1.789034219E0,-7.488856792E0,-7.227522850E0,-4.919284344E0
1.791526459E0,-7.328358650E0,-7.337716103E0,-5.192371368E0
1.794018750E0,-7.081622124E0,-7.459886551E0,-5.477436066E0
1.796510990E0,-6.772602558E0,-7.596429825E0,-5.697822094E0
1.799003281E0,-6.475560665E0,-7.632362366E0,-5.736149788E0
1.801495521E0,-6.370158672E0,-7.512587547E0,-5.369638443E0
1.803987813E0,-5.924595356E0,-7.538938046E0,-5.039059639E0
1.806566302E0,-5.716187000E0,-7.385625839E0,-4.607869625E0
1.809058594E0,-5.090961456E0,-7.399999142E0,-4.119187355E0
1.811550834E0,-5.347280025E0,-6.980786324E0,-3.247225523E0
1.814043125E0,-5.033469677E0,-6.901734829E0,-2.732192993E0
1.816535365E0,-4.858598232E0,-6.638229847E0,-2.221951485E0
1.819027656E0,-4.487295628E0,-6.372329712E0,-1.587144017E0
1.821519896E0,-4.875366688E0,-5.890833855E0,-1.167931557E0
1.824012188E0,-4.817874432E0,-5.656075001E0,-9.762914777E-1
1.826504427E0,-4.908903599E0,-5.433293343E0,-5.211464763E-1
1.828996719E0,-5.301765442E0,-5.279981613E0,-4.924004972E-1
1.831488959E0,-5.385608196E0,-5.220094204E0,-4.924004972E-1
1.833981250E0,-5.376026154E0,-5.315914154E0,-4.900049865E-1
1.836553229E0,-5.483823299E0,-5.533904552E0,-3.989759982E-1
1.839045521E0,-5.639531136E0,-5.730335712E0,-2.768054903E-1
1.841537761E0,-5.718582630E0,-6.068100929E0,-4.636544883E-1
1.844030052E0,-5.658695221E0,-6.408261776E0,-6.457124949E-1
1.846522292E0,-5.455077648E0,-6.623857021E0,-8.373525143E-1
1.849014584E0,-5.364048481E0,-6.923294544E0,-1.539234042E0
1.851506823E0,-5.500592232E0,-7.761719704E0,-3.834122896E0
1.853999115E0,-4.765173435E0,-8.899581909E0,-9.056312561E0
1.856491354E0,-3.291940928E0,-9.817058563E0,-1.529179955E1
1.858983646E0,-3.433275461E0,-1.041114235E1,-1.599847221E1
1.861475886E0,-5.498196602E0,-1.063631916E1,-1.047684479E1
1.863968177E0,-7.210978985E0,-1.059080505E1,-4.329991341E0
1.866541406E0,-6.164145470E0,-9.263697624E0,-7.343459725E-1
1.869033698E0,-4.269305229E0,-7.639548779E0,3.484199941E-1
1.871525938E0,-4.369915962E0,-7.134098530E0,1.680317998E0
1.874018229E0,-4.959208965E0,-6.985577583E0,2.825366974E0
1.876510469E0,-5.428727150E0,-7.007136822E0,2.834949017E0
1.879002709E0,-5.886267662E0,-7.126912117E0,2.238469601E0
1.881495000E0,-6.334226131E0,-7.289805889E0,9.472950101E-1
1.883987292E0,-6.786975384E0,-7.606011868E0,-1.050552011E0
1.886479531E0,-7.131927490E0,-7.867121696E0,-3.079540491E0
1.888971823E0,-7.405014515E0,-8.099485397E0,-4.708480358E0
1.891464063E0,-7.273262024E0,-8.087507248E0,-5.192371368E0
1.893956354E0,-6.935496330E0,-7.948568344E0,-4.775554657E0
1.896494011E0,-6.542634487E0,-7.903054237E0,-4.116792202E0
1.898986198E0,-6.137794971E0,-7.855144024E0,-3.474797964E0
1.901478542E0,-5.948550701E0,-7.912635803E0,-3.096308947E0
1.903970781E0,-6.006042480E0,-8.123439789E0,-3.069958448E0
1.906463073E0,-6.075511932E0,-8.166559219E0,-2.964556456E0
1.908955261E0,-6.173727512E0,-8.236028671E0,-2.559716940E0
1.911447604E0,-6.140190601E0,-8.075530052E0,-1.948864460E0
1.913939792E0,-5.965319157E0,-7.594034672E0,-4.325129986E-1
1.916432084E0,-5.859917164E0,-6.791542053E0,2.485205889E0
1.918924375E0,-6.027602196E0,-7.014323711E0,2.263199911E-2
1.921416615E0,-6.798953056E0,-8.018037796E0,-4.658174992E0
1.923908906E0,-7.740384579E0,-8.619308472E0,-6.006841660E0
1.926482709E0,-8.535690308E0,-9.038520813E0,-4.883351803E0
1.928974896E0,-8.753681183E0,-9.218183517E0,-3.491566420E0
1.931467240E0,-8.542877197E0,-9.060080528E0,-2.813640118E0
1.933959427E0,-8.207507133E0,-8.779807091E0,-2.368077040E0
1.936451771E0,-7.979934692E0,-8.660032272E0,-1.788365960E0
1.938943959E0,-7.898487568E0,-8.703150749E0,-1.393108487E0
1.941436302E0,-8.078149796E0,-8.878022194E0,-9.427545071E-1
1.943928490E0,-8.085336685E0,-8.832508087E0,-7.511144876E-1
1.946420781E0,-7.898487568E0,-8.693569183E0,-9.307770133E-1
1.948913073E0,-7.781107903E0,-8.382154465E0,-1.055343032E0
1.951405313E0,-7.661333084E0,-8.087507248E0,-9.667094946E-1
1.953897552E0,-7.340335846E0,-7.766510487E0,-8.301659822E-1
1.956463750E0,-7.024129868E0,-7.459886551E0,-6.193619967E-1
1.958955938E0,-6.734274387E0,-7.196381569E0,-2.696189880E-1
1.961448281E0,-6.540238857E0,-7.050255775E0,-1.569600031E-2
1.963940469E0,-6.374949455E0,-6.961622715E0,2.502750047E-2
1.966432761E0,-6.231219292E0,-6.875384331E0,-9.953849763E-2
1.968925000E0,-6.147377014E0,-6.758005142E0,-3.438794911E-1
1.971417292E0,-6.046765804E0,-6.602297306E0,-6.600854993E-1
1.973909531E0,-6.049161434E0,-6.458567619E0,-1.120021462E0
1.976401823E0,-6.133004189E0,-6.300464630E0,-1.393108487E0
1.978894063E0,-6.147377014E0,-6.168712139E0,-1.709314466E0
1.981386354E0,-6.046765804E0,-5.981863022E0,-1.929700494E0
1.983878594E0,-6.259965420E0,-5.921975613E0,-2.602835894E0
1.986455938E0,-6.959451675E0,-6.013004303E0,-3.151405573E0
1.988948177E0,-7.589468002E0,-6.154338837E0,-3.453238487E0
1.991440469E0,-7.807458401E0,-6.278904915E0,-3.568222523E0
1.993932709E0,-8.293745041E0,-6.329210281E0,-3.510730505E0
1.996425000E0,-8.602764130E0,-6.266927719E0,-3.290344477E0
1.998917240E0,-8.581205368E0,-6.190271378E0,-3.172965050E0
2.001409531E0,-8.449452400E0,-6.065705299E0,-3.172965050E0
2.003901771E0,-8.339259148E0,-5.960303307E0,-2.897482395E0
2.006394063E0,-8.195529938E0,-5.816573620E0,-2.705842495E0
2.008886302E0,-8.047008514E0,-5.761476994E0,-2.645955086E0
2.011378594E0,-7.941606522E0,-5.876461029E0,-2.978929520E0
2.013870834E0,-7.733198166E0,-5.735126495E0,-2.233928919E0
2.016420052E0,-7.428969383E0,-5.639306545E0,-2.253093004E0
2.018912292E0,-6.909145832E0,-5.543486595E0,-2.219556093E0
2.021404584E0,-6.231219292E0,-5.421316147E0,-2.051871061E0
2.023896823E0,-6.228824139E0,-5.555463791E0,-2.049475431E0
2.026389115E0,-7.534371376E0,-6.161525726E0,-1.788365960E0
2.028881354E0,-9.307041168E0,-6.908921719E0,-2.020729542E0
2.031373646E0,-1.071559525E1,-7.697041035E0,-3.254411936E0
2.033865886E0,-1.172889233E1,-8.307893753E0,-4.507258415E0
2.036358125E0,-1.263918209E1,-8.803762436E0,-5.168416500E0
2.038850417E0,-1.273739719E1,-9.096013069E0,-5.530137062E0
2.041342656E0,-1.232537174E1,-9.146318436E0,-5.805619717E0
2.043834948E0,-1.187501717E1,-9.031334877E0,-5.364847660E0
2.046422865E0,-1.104617405E1,-8.674405098E0,-4.655779362E0
2.048920209E0,-1.008557892E1,-8.214468956E0,-4.183866024E0
2.051417604E0,-9.225594521E0,-7.634757996E0,-3.673624516E0
2.053915000E0,-8.480593681E0,-7.009532452E0,-3.208897591E0
2.056412448E0,-7.498438835E0,-6.508872986E0,-2.818430901E0
2.058909792E0,-6.396509171E0,-6.183084965E0,-2.557321548E0
2.061407188E0,-5.402376652E0,-5.775849819E0,-2.365681410E0
2.063904636E0,-4.997537136E0,-5.471621513E0,-1.884186029E0
2.066401979E0,-4.995141506E0,-5.447666645E0,-1.982401490E0
2.068899375E0,-5.078983784E0,-5.462039471E0,-1.996774554E0
2.071396771E0,-5.222713947E0,-5.433293343E0,-2.159668446E0
2.073894167E0,-5.134080410E0,-5.418920517E0,-2.418382406E0
2.076419688E0,-4.779546738E0,-5.392570019E0,-2.576485395E0
2.078917084E0,-4.741218567E0,-5.497972012E0,-2.751357079E0
2.081414479E0,-4.650189400E0,-5.703985214E0,-2.873527527E0
2.083911875E0,-5.114916325E0,-6.036959648E0,-2.684283018E0
2.086409271E0,-6.288711548E0,-6.501686573E0,-2.487852097E0
2.088906667E0,-7.479275227E0,-6.930480957E0,-2.365681410E0
2.091404011E0,-7.838600159E0,-7.141284943E0,-2.772916555E0
2.093901459E0,-7.948792934E0,-7.268246651E0,-3.089122534E0
2.096398802E0,-7.891301155E0,-7.340111732E0,-3.007675409E0
2.098896198E0,-7.587072372E0,-7.292201519E0,-2.993302584E0
2.101393594E0,-7.081622124E0,-7.232314110E0,-3.132241488E0
2.103890990E0,-6.748647690E0,-7.263455391E0,-2.964556456E0
2.106376094E0,-6.504306316E0,-7.344902515E0,-3.034025908E0
2.108873490E0,-6.243196964E0,-7.253873348E0,-2.928623915E0
2.111370886E0,-5.641926289E0,-7.158053398E0,-2.993302584E0
2.113868281E0,-4.379498005E0,-6.908921719E0,-2.854363441E0
2.116365677E0,-2.810445547E0,-6.563969612E0,-2.370472431E0
2.118863021E0,-8.820679784E-1,-6.185480595E0,-1.764410973E0
2.121360417E0,-3.933860064E-1,-6.024981976E0,-1.309265971E0
2.123857813E0,-2.396023989E0,-6.540014267E0,-7.750694752E-1
2.126355209E0,-4.525623322E0,-7.043069363E0,-3.486705124E-1
2.128852604E0,-4.762777805E0,-7.062233448E0,-1.287706494E0
2.131350000E0,-6.109048843E0,-7.225127697E0,-1.829089522E0
2.133847396E0,-5.378421307E0,-7.033487320E0,-2.554925919E0
2.136377448E0,-1.708515525E0,-6.185480595E0,-4.416229725E0
2.138874844E0,-4.254931927E0,-6.549596310E0,-4.100023270E0
2.141372240E0,-6.403695583E0,-7.062233448E0,-3.232852459E0
2.143869636E0,-7.649355412E0,-7.275433064E0,-4.037740707E0
2.146367031E0,-7.852972984E0,-7.141284943E0,-4.392274380E0
2.148864375E0,-4.985559464E0,-6.348374367E0,-5.417548656E0
2.151361771E0,-4.956813335E0,-6.365142822E0,-5.391198158E0
2.153859167E0,-6.549820900E0,-6.877779961E0,-3.599364042E0
2.156356563E0,-8.085336685E0,-6.980786324E0,-2.832803965E0
2.158853959E0,-8.547668457E0,-6.825078964E0,-2.772916555E0
2.161351354E0,-7.857763767E0,-6.523245811E0,-3.319090605E0
2.163848750E0,-6.063534737E0,-5.622538090E0,-3.884428501E0
2.166335938E0,-4.226185799E0,-4.527794361E0,-4.349155426E0
2.168833334E0,-4.808292389E0,-4.168469429E0,-4.272499561E0
2.171330729E0,-6.312666416E0,-4.142118931E0,-3.402932882E0
2.173828125E0,-6.003646851E0,-4.108582020E0,-3.278367043E0
2.176325469E0,-7.084017277E0,-5.248839855E0,-2.957370043E0
2.178822865E0,-8.545272827E0,-7.323342800E0,-1.603912473E0
2.181320261E0,-6.985802174E0,-8.406108856E0,-1.196677446E0
2.183817656E0,-5.378421307E0,-8.770224571E0,-1.685359478E0
2.186315000E0,-6.073116302E0,-8.830112457E0,-2.164459467E0
2.188812448E0,-6.947474003E0,-8.504324913E0,-2.959765434E0
2.191309792E0,-7.213374615E0,-8.006060600E0,-4.310827732E0
2.193807240E0,-7.680497169E0,-7.661108494E0,-4.734830856E0
2.196320052E0,-5.891058445E0,-6.911316872E0,-5.225908279E0
2.198817500E0,-3.557841539E0,-5.993840694E0,-5.707404137E0
2.201314844E0,-3.933934927E0,-5.773454666E0,-5.041454792E0
2.203812240E0,-5.380816936E0,-5.763872623E0,-4.186261654E0
2.206309636E0,-6.904355049E0,-5.622538090E0,-4.411438465E0
2.208807031E0,-7.560721874E0,-5.332682610E0,-4.306036472E0
2.211304375E0,-7.874532700E0,-4.920656681E0,-4.076068401E0
2.213801823E0,-6.703133106E0,-4.170865059E0,-4.423416138E0
2.216299219E0,-5.277810574E0,-3.193500996E0,-4.727644444E0
2.218796615E0,-4.712472439E0,-2.620976448E0,-4.212612152E0
2.221293959E0,-3.009272099E0,-1.928676963E0,-3.975457430E0
2.223791406E0,-2.518194437E0,-1.595702529E0,-3.587386608E0
2.226299011E0,-4.918485641E0,-2.089175463E0,-2.389636517E0
2.228796406E0,-5.838357449E0,-2.170622587E0,-1.599121451E0
2.231293750E0,-4.166298389E0,-1.511860013E0,-1.728478551E0
2.233791198E0,-3.771040916E0,-1.308242559E0,-1.802739024E0
2.236288542E0,-4.068082809E0,-1.212422490E0,-1.910536528E0
2.238785938E0,-2.906265497E0,-6.111519933E-1,-2.025520563E0
2.241283281E0,-1.823499441E0,-1.919395030E-1,-2.358494997E0
2.243780677E0,-1.718097448E0,8.114749938E-2,-2.782498598E0
2.246278073E0,-1.952856541E0,1.985269934E-1,-2.535762072E0
2.248775469E0,-1.540830493E0,6.321125031E-1,-2.614813566E0
2.251272865E0,-2.003161907E0,7.423055172E-1,-2.993302584E0
2.253770261E0,-3.711153507E0,2.656010091E-1,-2.914251089E0
2.256288438E0,-2.156474113E0,6.081575155E-1,-3.256807566E0
2.258785834E0,4.234794974E-1,1.290874958E0,-4.533608913E0
2.261283229E0,-9.683060050E-1,4.596365094E-1,-4.610264778E0
2.263780625E0,-2.793677092E0,-3.069235086E-1,-4.262917519E0
2.266278021E0,-2.635574102E0,-1.488205045E-1,-4.579123497E0
2.268775365E0,-2.903870106E0,-4.051389992E-1,-4.533608913E0
2.271272761E0,-3.826137543E0,-1.073483467E0,-4.425811291E0
2.273770156E0,-3.804578066E0,-1.461554527E0,-4.521631718E0
2.276267552E0,-3.747086048E0,-1.828065991E0,-4.631824493E0
2.278764948E0,-3.917166471E0,-2.256860495E0,-5.084574223E0
2.281262344E0,-4.583115578E0,-2.707214594E0,-5.082178593E0
2.283759740E0,-4.314819336E0,-2.812616587E0,-5.496600151E0
2.286274584E0,-3.945912600E0,-2.767102003E0,-5.575651646E0
2.288771979E0,-5.332907200E0,-3.900173426E0,-5.374429703E0
2.291269375E0,-6.303084373E0,-4.321781635E0,-5.288191319E0
2.293766771E0,-5.644321918E0,-4.273871422E0,-5.271422863E0
2.296264115E0,-4.837038517E0,-4.360109329E0,-4.571937084E0
2.298761511E0,-5.277810574E0,-4.626009941E0,-4.133560658E0
2.301258906E0,-6.039579391E0,-4.865560055E0,-3.424492598E0
2.303756302E0,-7.086412907E0,-4.968566418E0,-3.201710939E0
2.306253698E0,-7.881719112E0,-5.114692211E0,-2.645955086E0
2.308751094E0,-7.893696308E0,-4.688292980E0,-2.267466068E0
2.311248490E0,-6.573775768E0,-4.075045109E0,-1.728478551E0
2.313745886E0,-6.887586594E0,-4.197215557E0,-1.570375443E0
2.316250834E0,-6.925914288E0,-4.321781635E0,-2.734588385E0
2.318748177E0,-6.312666416E0,-5.153019905E0,-3.055585384E0
2.321245625E0,-6.032392979E0,-6.254950047E0,-3.405328512E0
2.323743021E0,-6.247988224E0,-6.118406296E0,-3.946711540E0
2.326240365E0,-6.518679619E0,-5.198534489E0,-3.168174028E0
2.328737761E0,-5.711396217E0,-4.968566418E0,-1.529651999E0
2.331235156E0,-4.923276424E0,-4.860768795E0,-2.873527527E0
2.333732552E0,-5.220318317E0,-3.873822927E0,-4.955216885E0
2.336229948E0,-4.937649727E0,-3.162359476E0,-1.680568457E0
2.338727344E0,-3.591378450E0,-4.623614311E0,-3.319019973E-1
2.341224740E0,-3.112278461E0,-6.676558018E0,-3.740698576E0
2.343722136E0,-3.224867105E0,-7.737764359E0,-5.089365005E0
2.346327084E0,-3.529095411E0,-8.248005867E0,-7.401022434E0
2.348824531E0,-3.749481440E0,-7.843166351E0,-8.946120262E0
2.351321875E0,-4.053709984E0,-7.510191917E0,-7.175845623E0
2.353819271E0,-4.578324318E0,-8.497138023E0,-5.781664371E0
2.356316667E0,-5.158035278E0,-9.302025795E0,-7.906473160E0
2.358814063E0,-6.015624523E0,-9.630209923E0,-8.213096619E0
2.361311459E0,-6.712715149E0,-1.073453522E1,-8.095717430E0
2.363808854E0,-7.048085213E0,-1.185323334E1,-8.579608917E0
2.366306250E0,-6.873213291E0,-1.303181934E1,-7.669318676E0
2.368803646E0,-6.662409306E0,-1.450026131E1,-6.220040798E0
2.371300990E0,-6.468373775E0,-1.599505329E1,-6.660812855E0
2.373798386E0,-5.641926289E0,-1.679515076E1,-6.967436790E0
2.376327709E0,-4.683726311E0,-1.728862381E1,-7.087212086E0
2.378825104E0,-3.842905998E0,-1.768867111E1,-6.761424065E0
2.381322448E0,-3.986635923E0,-1.790666199E1,-7.348321438E0
2.383819844E0,-4.274096012E0,-1.766950798E1,-3.934734106E0
2.386317240E0,-3.421298027E0,-1.906847954E1,-1.050552011E0
2.388814636E0,-4.254931927E0,-2.198859406E1,-4.303640842E0
2.391312031E0,-1.440227032E1,-3.612443924E1,-5.259445667E0
2.393809427E0,-1.698701477E1,-4.346425247E1,-5.616374969E0
2.396306771E0,-9.580128670E0,-3.675445557E1,-1.529651999E0
2.398804219E0,-3.763854504E0,-3.114659119E1,4.207570553E0
2.401301563E0,3.444280028E-1,-2.632924080E1,6.497668266E0
2.403798959E0,2.680040598E0,-2.318873978E1,4.892683506E0
2.406329115E0,4.119736195E0,-2.122682571E1,2.250447035E0
2.408826563E0,4.320958138E0,-1.950446129E1,-3.247154951E-1
2.411323906E0,3.954446554E0,-1.814142036E1,-1.730873942E0
2.413821302E0,2.883657932E0,-1.734132385E1,-1.728478551E0
2.416318698E0,1.146920443E0,-1.706584167E1,-2.633977413E0
2.418816094E0,-1.009029508E0,-1.692690277E1,-4.258126736E0
2.421313490E0,-3.277568102E0,-1.711854172E1,-5.338497162E0
2.423810886E0,-4.777151108E0,-1.726227188E1,-5.494204521E0
2.426308281E0,-5.368839264E0,-1.720717621E1,-5.443899155E0
2.428805677E0,-5.318533897E0,-1.679275513E1,-5.177998543E0
2.431303021E0,-4.712472439E0,-1.573633862E1,-4.641406536E0
2.433800417E0,-4.036941528E0,-1.449307442E1,-4.461743832E0
2.436330886E0,-3.989031553E0,-1.393492317E1,-4.665361404E0
2.438828281E0,-4.235767841E0,-1.367620945E1,-4.308432102E0
2.441325625E0,-4.024963856E0,-1.338156223E1,-4.183866024E0
2.443823021E0,-3.526700020E0,-1.300786495E1,-4.090441704E0
2.446320417E0,-2.146892071E0,-1.150109482E1,-5.302564621E0
2.448817761E0,1.812869549E0,-8.499533653E0,-8.639495850E0
2.451315156E0,3.259751558E0,-7.922217846E0,-8.481392860E0
2.453812552E0,1.637997985E0,-8.271961212E0,-6.677581310E0
2.456310000E0,1.101405978E0,-8.092298508E0,-5.544509888E0
2.458807344E0,1.216465011E-1,-8.648054123E0,-3.582595587E0
2.461304740E0,-2.070235968E0,-9.714052200E0,-2.253093004E0
2.463802136E0,-4.901717186E0,-1.231556511E1,-3.601759434E0
2.466324740E0,-4.712472439E0,-1.225328159E1,-2.976533890E0
2.468822084E0,-5.143662453E0,-9.685305595E0,-2.811244488E0
2.471319479E0,-4.808292389E0,-7.668294907E0,-3.208897591E0
2.473816875E0,-4.058500767E0,-6.338792324E0,-3.630505562E0
2.476314271E0,-3.941121578E0,-5.215302944E0,-4.143142700E0
2.478811615E0,-4.075269699E0,-4.441556454E0,-5.031873226E0
2.481309063E0,-4.266909599E0,-3.840286016E0,-4.866583347E0
2.483806406E0,-4.698099613E0,-3.435446501E0,-3.910778999E0
2.486303854E0,-5.210736275E0,-3.162359476E0,-2.770520926E0
2.488801198E0,-5.443099976E0,-2.846153498E0,-2.284234524E0
2.491298594E0,-5.759305954E0,-2.848548889E0,-2.478270054E0
2.493795990E0,-6.116235733E0,-3.236619949E0,-2.713028908E0
2.496304584E0,-6.583357811E0,-3.926523924E0,-3.000488997E0
2.498801927E0,-6.952264786E0,-4.870350838E0,-3.807772398E0
2.501299323E0,-7.081622124E0,-5.917184353E0,-5.110924721E0
2.503796719E0,-7.122345448E0,-7.040674210E0,-6.526665211E0
2.506294115E0,-7.060062408E0,-7.989292145E0,-7.475283146E0
2.508791459E0,-6.832489967E0,-8.504324913E0,-7.932823658E0
2.511288906E0,-6.477955818E0,-8.832508087E0,-7.961569309E0
2.513786250E0,-5.850335121E0,-9.134341240E0,-7.870540619E0
2.516283698E0,-5.086170673E0,-9.376286507E0,-7.496842384E0
2.518781042E0,-4.295655727E0,-9.503248215E0,-6.797356606E0
2.521278438E0,-3.445252895E0,-9.670932770E0,-6.071519852E0
2.523775834E0,-2.875123978E0,-9.817058563E0,-5.393593311E0
2.526177865E0,-2.417583466E0,-9.948810577E0,-4.643802166E0
2.528675209E0,-2.053467512E0,-1.015242863E1,-3.973062038E0
2.531172604E0,-1.897760034E0,-1.024824810E1,-3.417305946E0
2.533670000E0,-1.866618514E0,-1.035844135E1,-2.851968050E0
2.536167396E0,-1.933692455E0,-1.049498463E1,-2.550134897E0
2.538664740E0,-2.022325993E0,-1.056445408E1,-2.348912954E0
2.541162188E0,-2.273853540E0,-1.061715508E1,-2.128526926E0
2.543659531E0,-2.539753914E0,-1.062673759E1,-1.975214958E0
2.546156979E0,-2.903870106E0,-1.055247688E1,-1.891372442E0
2.548654323E0,-3.186538935E0,-1.049738026E1,-1.908141017E0
2.551151719E0,-3.423693419E0,-1.052852154E1,-1.991983533E0
2.553649115E0,-3.600960493E0,-1.047103024E1,-2.183623552E0
2.556152656E0,-3.677616596E0,-1.046384335E1,-2.404009581E0
2.558650000E0,-3.684803009E0,-1.039197826E1,-2.648350477E0
2.561147396E0,-3.636893034E0,-1.031053162E1,-2.902273417E0
2.563644792E0,-3.524304390E0,-1.020992088E1,-3.137032509E0
2.566142188E0,-3.399738550E0,-1.010691357E1,-3.407723904E0
2.568639531E0,-3.263195038E0,-9.898505211E0,-3.620923519E0
2.571136979E0,-3.181747913E0,-9.699679375E0,-3.774235487E0
2.573634323E0,-3.100301027E0,-9.522412300E0,-3.877242088E0
2.576131771E0,-3.049995422E0,-9.371495247E0,-4.011390209E0
2.578629115E0,-3.004481077E0,-9.127154350E0,-4.095232487E0
2.581126511E0,-2.975734949E0,-8.952282906E0,-4.246149063E0
2.583623906E0,-2.992503405E0,-8.849276543E0,-4.322804928E0
2.586132813E0,-3.023644924E0,-8.703150749E0,-4.444975376E0
2.588630156E0,-2.970943928E0,-8.621704102E0,-4.526422501E0
2.591127552E0,-3.011667490E0,-8.583375931E0,-4.528818130E0
2.593624948E0,-3.028435946E0,-8.537861824E0,-4.547982216E0
2.596122344E0,-3.018853903E0,-8.480369568E0,-4.483303547E0
2.598619688E0,-3.047600031E0,-8.485160828E0,-4.409042835E0
2.601117136E0,-3.028435946E0,-8.559420586E0,-4.332386971E0
2.603614479E0,-3.038017988E0,-8.588167191E0,-4.270103931E0
2.606111927E0,-3.038017988E0,-8.561816216E0,-4.186261654E0
2.608609271E0,-3.014062881E0,-8.513906479E0,-4.054509163E0
2.611106667E0,-2.987712383E0,-8.636076927E0,-3.934734106E0
2.613604063E0,-2.925429583E0,-8.674405098E0,-3.822145462E0
2.616116615E0,-2.903870106E0,-8.700755119E0,-3.733511925E0
2.618613959E0,-2.944593430E0,-8.765434265E0,-3.568222523E0
2.621111354E0,-2.899079084E0,-8.770224571E0,-3.493962049E0
2.623608750E0,-2.858355522E0,-8.899581909E0,-3.395746469E0
2.626106146E0,-2.800863504E0,-8.894790649E0,-3.347836494E0
2.628603490E0,-2.724207401E0,-8.923537254E0,-3.268785000E0
2.631100938E0,-2.669111013E0,-8.985819817E0,-3.292740107E0
2.633598281E0,-2.630783081E0,-9.002588272E0,-3.273576021E0
2.636095729E0,-2.621201038E0,-9.079244614E0,-3.362209558E0
2.638593073E0,-2.585268497E0,-9.117572784E0,-3.390955448E0
2.641090469E0,-2.573291063E0,-9.146318436E0,-3.398142099E0
2.643587865E0,-2.582873106E0,-9.203810692E0,-3.446052074E0
2.646099479E0,-2.551731586E0,-9.220579147E0,-3.498753071E0
2.648596823E0,-2.568500042E0,-9.234951973E0,-3.539476395E0
2.651094219E0,-2.590059519E0,-9.287652969E0,-3.587386608E0
2.653591615E0,-2.599641562E0,-9.325981140E0,-3.704766035E0
2.656089011E0,-2.628387451E0,-9.302025795E0,-3.776631117E0
2.658586354E0,-2.645155907E0,-9.364309311E0,-3.781421900E0
2.661083802E0,-2.664319992E0,-9.378682137E0,-3.843704939E0
2.663581146E0,-2.678693056E0,-9.397846222E0,-3.915570021E0
2.666078594E0,-2.685879469E0,-9.421800613E0,-3.920361042E0
2.668575938E0,-2.738580465E0,-9.448151588E0,-4.054509163E0
2.671073334E0,-2.784095049E0,-9.484084129E0,-4.116792202E0
2.673570729E0,-2.705043554E0,-9.476897240E0,-4.126373768E0
2.676088021E0,-2.731394053E0,-9.472106934E0,-4.198238850E0
2.678585365E0,-2.745767117E0,-9.508039474E0,-4.236567020E0
2.681082761E0,-2.717020988E0,-9.493665695E0,-4.215007305E0
2.683580156E0,-2.743371487E0,-9.493665695E0,-4.241357803E0
2.686077552E0,-2.717020988E0,-9.512829781E0,-4.291663647E0
2.688574896E0,-2.705043554E0,-9.553553581E0,-4.250939846E0
2.691072344E0,-2.717020988E0,-9.546366692E0,-4.198238850E0
2.693569688E0,-2.700252533E0,-9.558344841E0,-4.222194195E0
2.696067136E0,-2.688275099E0,-9.551157951E0,-4.231776237E0
2.698564479E0,-2.709834576E0,-9.548762321E0,-4.169493198E0
2.701061875E0,-2.724207401E0,-9.572717667E0,-4.126373768E0
2.703559271E0,-2.760139942E0,-9.579903603E0,-4.052113533E0
2.706066406E0,-2.757744551E0,-9.575113297E0,-3.975457430E0
2.708563802E0,-2.717020988E0,-9.534389496E0,-3.975457430E0
2.711061146E0,-2.757744551E0,-9.531993866E0,-3.915570021E0
2.713558542E0,-2.796072483E0,-9.460128784E0,-3.855682611E0
2.716055938E0,-2.743371487E0,-9.405032158E0,-3.848495960E0
2.718553281E0,-2.740976095E0,-9.397846222E0,-3.846100569E0
2.721050729E0,-2.695461512E0,-9.290048599E0,-3.843704939E0
2.723548073E0,-2.685879469E0,-9.206206322E0,-3.865264416E0
2.726045521E0,-2.659528971E0,-9.175064087E0,-3.915570021E0
2.728542865E0,-2.678693056E0,-9.146318436E0,-4.004203320E0
2.731040261E0,-2.633178473E0,-9.086430550E0,-4.145537853E0
2.733537656E0,-2.575686455E0,-9.093617439E0,-4.270103931E0
2.736052292E0,-2.532567501E0,-9.088826180E0,-4.282081604E0
2.738549636E0,-2.427165508E0,-9.052893639E0,-4.315618515E0
2.741047031E0,-2.345718384E0,-9.055289268E0,-4.423416138E0
2.743544427E0,-2.367278099E0,-9.088826180E0,-4.471325874E0
2.746041823E0,-2.293017387E0,-9.081640244E0,-4.528818130E0
2.748539167E0,-2.199593067E0,-9.117572784E0,-4.622242451E0
2.751036615E0,-2.130123615E0,-9.119968414E0,-4.708480358E0
2.753533959E0,-2.091795444E0,-9.117572784E0,-4.679734707E0
2.756031406E0,-2.067840576E0,-9.153505325E0,-4.703689575E0
2.758528750E0,-2.015139580E0,-9.191832542E0,-4.734830856E0
2.761026146E0,-2.019930601E0,-9.239743233E0,-4.627033710E0
2.763523542E0,-2.063049555E0,-9.273280144E0,-4.576727867E0
2.766035209E0,-2.079818010E0,-9.321189880E0,-4.502467632E0
2.768532552E0,-2.043885469E0,-9.373890877E0,-4.466535091E0
2.771030000E0,-2.072631598E0,-9.450547218E0,-4.358737469E0
2.773527344E0,-2.108563900E0,-9.496061325E0,-4.327596188E0
2.776024740E0,-2.190011024E0,-9.524807930E0,-4.341969013E0
2.778522084E0,-2.293017387E0,-9.567926407E0,-4.353946686E0
2.781019531E0,-2.419979095E0,-9.567926407E0,-4.440184593E0
2.783516875E0,-2.563709021E0,-9.555949211E0,-4.504862785E0
2.786014323E0,-2.762535572E0,-9.541576385E0,-4.579123497E0
2.788511667E0,-3.028435946E0,-9.635000229E0,-4.629428864E0
2.791009115E0,-3.181747913E0,-9.615836143E0,-4.591101170E0
2.793506459E0,-3.241635561E0,-9.572717667E0,-4.492885590E0
2.796018021E0,-3.232053518E0,-9.460128784E0,-4.329991341E0
2.798515365E0,-3.102696419E0,-9.385868073E0,-4.274895191E0
2.801012813E0,-2.975734949E0,-9.258907318E0,-4.159911156E0
2.803510156E0,-2.798468113E0,-9.143922806E0,-4.090441704E0
2.806007552E0,-2.563709021E0,-9.076848984E0,-4.102418900E0
2.808504896E0,-2.237921000E0,-8.949887276E0,-4.183866024E0
2.811002344E0,-2.003161907E0,-8.930723190E0,-4.191052437E0
2.813499688E0,-1.837872505E0,-8.952282906E0,-4.145537853E0
2.815997136E0,-1.677374005E0,-8.935514450E0,-4.277290344E0
2.818494479E0,-1.531248450E0,-8.933118820E0,-4.375505924E0
2.820991927E0,-1.416264534E0,-8.976238251E0,-4.447371006E0
2.823489271E0,-1.361168027E0,-8.952282906E0,-4.519236088E0
2.826013073E0,-1.267743468E0,-8.973842621E0,-4.650988579E0
2.828510469E0,-1.291698456E0,-9.043312073E0,-4.703689575E0
2.831007917E0,-1.241392970E0,-9.026543617E0,-4.789927483E0
2.833505261E0,-1.219833493E0,-9.084035873E0,-4.806695938E0
2.836002656E0,-1.222229004E0,-9.107990265E0,-4.825860023E0
2.838500000E0,-1.286907554E0,-9.069662094E0,-4.840232849E0
2.840997448E0,-1.382727504E0,-9.060080528E0,-4.804300308E0
2.843494792E0,-1.459383488E0,-9.028939247E0,-4.650988579E0
2.845992240E0,-1.536039472E0,-8.949887276E0,-4.500072002E0
2.848489584E0,-1.701328993E0,-9.014566422E0,-4.399460793E0
2.850986979E0,-1.816313028E0,-9.045707703E0,-4.310827732E0
2.853484375E0,-2.046281099E0,-9.043312073E0,-4.262917519E0
2.855988125E0,-2.309786081E0,-9.093617439E0,-4.181470394E0
2.858485469E0,-2.479866505E0,-9.076848984E0,-4.018576622E0
2.860982917E0,-2.702647924E0,-9.124758720E0,-3.965875387E0
2.863480261E0,-2.932615995E0,-9.263697624E0,-3.819750071E0
2.865977656E0,-3.193725586E0,-9.414614677E0,-3.721534491E0
2.868475000E0,-3.375783443E0,-9.510434151E0,-3.589782000E0
2.870972448E0,-3.567423582E0,-9.706865311E0,-3.539476395E0
2.873469792E0,-3.809369087E0,-9.841013908E0,-3.443656445E0
2.875967188E0,-3.974658489E0,-9.984743118E0,-3.448447466E0
2.878464584E0,-4.166298389E0,-1.012128735E1,-3.438865423E0
2.880962031E0,-4.293260098E0,-1.020992088E1,-3.450843096E0
2.883459375E0,-4.420221329E0,-1.033448696E1,-3.436470032E0
2.885971198E0,-4.434594631E0,-1.041593361E1,-3.474797964E0
2.888468542E0,-4.434594631E0,-1.047821617E1,-3.479588985E0
2.890965990E0,-4.372311592E0,-1.051175308E1,-3.374186993E0
2.893463334E0,-4.345961094E0,-1.057403660E1,-3.429283619E0
2.895960729E0,-4.341169834E0,-1.061476040E1,-3.398142099E0
2.898458125E0,-4.310028553E0,-1.060996914E1,-3.369395971E0
2.900955521E0,-4.211812973E0,-1.055008125E1,-3.390955448E0
2.903452865E0,-4.142343521E0,-1.054768562E1,-3.378978014E0
2.905950313E0,-4.094433308E0,-1.051175308E1,-3.390955448E0
2.908447656E0,-3.998613596E0,-1.046144772E1,-3.352627516E0
2.910945104E0,-3.869256496E0,-1.039197826E1,-3.357418537E0
2.913442448E0,-3.675220966E0,-1.031771755E1,-3.402932882E0
2.915953906E0,-3.538677454E0,-1.021950245E1,-3.448447466E0
2.918451302E0,-3.299127579E0,-1.008295918E1,-3.443656445E0
2.920948698E0,-3.090718985E0,-1.002546692E1,-3.529894590E0
2.923446042E0,-2.930220604E0,-9.991930008E0,-3.654460430E0
2.925943438E0,-2.793677092E0,-9.893714905E0,-3.745489597E0
2.928440834E0,-2.645155907E0,-9.821849823E0,-3.798190594E0
2.930938229E0,-2.446329594E0,-9.716447830E0,-3.970666409E0
2.933435573E0,-2.249898434E0,-9.613441467E0,-4.159911156E0
2.935933021E0,-2.154078484E0,-9.589486122E0,-4.219798565E0
2.938430365E0,-2.103773117E0,-9.517621040E0,-4.298850060E0
2.940927813E0,-2.089400053E0,-9.340353966E0,-4.418624878E0
2.943425156E0,-2.110959530E0,-9.266093254E0,-4.416229725E0
2.945942552E0,-2.077422619E0,-9.124758720E0,-4.495281219E0
2.948439896E0,-2.015139580E0,-9.028939247E0,-4.514444828E0
2.950937344E0,-1.943274498E0,-8.945096970E0,-4.466535091E0
2.953434688E0,-1.928901553E0,-8.818135262E0,-4.425811291E0
2.955932084E0,-2.024721384E0,-8.755851746E0,-4.423416138E0
2.958429479E0,-2.146892071E0,-8.739083290E0,-4.432998180E0
2.960926823E0,-2.166055918E0,-8.640868187E0,-4.356341839E0
2.963424271E0,-2.252294064E0,-8.580980301E0,-4.373110294E0
2.965921667E0,-2.307390451E0,-8.439645767E0,-4.224589348E0
2.968419011E0,-2.508612394E0,-8.353407860E0,-4.167097569E0
2.970916459E0,-2.343322992E0,-8.252797127E0,-4.037740707E0
2.973413802E0,-2.321763515E0,-8.118648529E0,-3.870055437E0
2.975928490E0,-2.333740950E0,-8.070738792E0,-3.752676010E0
2.978425834E0,-2.398419619E0,-7.986896515E0,-3.589782000E0
2.980923229E0,-2.352905035E0,-7.855144024E0,-3.378978014E0
2.983420625E0,-2.467889071E0,-7.720995903E0,-3.220875025E0
2.985918021E0,-2.745767117E0,-7.768906116E0,-3.098704576E0
2.988415417E0,-2.836796045E0,-7.673086166E0,-3.067563057E0
2.990912761E0,-2.901474476E0,-7.606011868E0,-3.060376406E0
2.993410209E0,-2.863146544E0,-7.567684174E0,-3.048398972E0
2.995907604E0,-2.843982458E0,-7.522169590E0,-3.065167427E0
2.998404948E0,-2.822422981E0,-7.486237049E0,-3.036421537E0
3.000902344E0,-3.023644924E0,-7.531751633E0,-2.986115932E0
3.003399740E0,-3.097905397E0,-7.517378330E0,-3.091517925E0
3.005913229E0,-3.126651525E0,-7.558102131E0,-3.184942484E0
3.008410573E0,-3.318291426E0,-7.582056999E0,-3.225666046E0
3.010907969E0,-3.375783443E0,-7.606011868E0,-3.252016544E0
3.013405365E0,-3.519513607E0,-7.589243412E0,-3.347836494E0
3.015902761E0,-3.756668091E0,-7.627571583E0,-3.398142099E0
3.018400156E0,-3.948307991E0,-7.732973576E0,-3.541872025E0
3.020897500E0,-3.838114977E0,-7.728182316E0,-3.781421900E0
3.023394948E0,-3.656056881E0,-7.704227448E0,-3.939524889E0
3.025892344E0,-3.596169472E0,-7.634757996E0,-4.176679611E0
3.028389688E0,-3.675220966E0,-7.656317711E0,-4.365923882E0
3.030887136E0,-3.804578066E0,-7.756928444E0,-4.459348679E0
3.033384479E0,-3.756668091E0,-7.754532814E0,-4.679734707E0
3.035892500E0,-3.723130941E0,-7.776092529E0,-4.840232849E0
3.038389844E0,-3.553050518E0,-7.725787163E0,-4.948030472E0
3.040887292E0,-3.473999023E0,-7.747346401E0,-4.828255653E0
3.043384636E0,-3.291940928E0,-7.752137661E0,-4.871374607E0
3.045882031E0,-3.164979458E0,-7.780883312E0,-5.120506287E0
3.048379427E0,-3.119465113E0,-7.833584309E0,-5.230699539E0
3.050876771E0,-3.030831575E0,-7.852748394E0,-5.264236450E0
3.053374219E0,-2.750557899E0,-7.886285305E0,-5.518159389E0
3.055871615E0,-2.582873106E0,-7.922217846E0,-5.786455631E0
3.058369011E0,-2.345718384E0,-7.910240650E0,-5.894252777E0
3.060866406E0,-2.259480476E0,-8.039597511E0,-5.853529453E0
3.063363750E0,-2.039094448E0,-8.116253853E0,-5.999654770E0
3.065873490E0,-1.754029989E0,-8.171349525E0,-6.126616478E0
3.068371875E0,-1.459383488E0,-8.243214607E0,-6.217645645E0
3.070870261E0,-1.452196956E0,-8.418086052E0,-6.119430065E0
3.073368698E0,-1.392309546E0,-8.588167191E0,-6.133802891E0
3.075867031E0,-1.282116532E0,-8.657636642E0,-6.040378571E0
3.078365469E0,-1.004238486E0,-8.614517212E0,-5.906230450E0
3.080863854E0,-7.167785168E-1,-8.468392372E0,-5.930185318E0
3.083362292E0,-7.215694785E-1,-8.336639404E0,-6.047564983E0
3.085860677E0,-4.580644965E-1,-8.183327675E0,-6.186503887E0
3.088359063E0,-2.927750051E-1,-8.022829056E0,-6.473964214E0
3.090857500E0,1.384149939E-1,-7.852748394E0,-6.737469196E0
3.093355886E0,3.180775046E-1,-7.807233810E0,-6.905154228E0
3.095860365E0,8.115504980E-1,-7.670690536E0,-6.929109097E0
3.098358750E0,1.312209964E0,-7.462282181E0,-7.003369331E0
3.100857136E0,1.695490003E0,-7.361670971E0,-7.156681538E0
3.103355573E0,2.155426025E0,-7.261060238E0,-7.168659210E0
3.105853959E0,2.517146587E0,-7.239500523E0,-6.919527054E0
3.108352344E0,2.682435989E0,-7.287410736E0,-6.869221687E0
3.110850729E0,2.775860548E0,-7.332924843E0,-6.749446392E0
3.113349167E0,2.634526014E0,-7.459886551E0,-6.751842022E0
3.115847552E0,2.327902079E0,-7.673086166E0,-6.828497887E0
3.118345938E0,1.999718547E0,-7.809629440E0,-6.929109097E0
3.120844375E0,1.642789006E0,-8.041993141E0,-6.790170193E0
3.123342761E0,1.314605474E0,-8.259983063E0,-6.620089531E0
3.125849896E0,9.456984997E-1,-8.480369568E0,-6.296697140E0
3.128348281E0,5.528364778E-1,-8.657636642E0,-5.932580948E0
3.130846667E0,2.270485014E-1,-8.810948372E0,-5.570860386E0
3.133345104E0,4.019949958E-2,-8.842089653E0,-5.233095169E0
3.135843490E0,-1.969549954E-1,-8.820530891E0,-4.950426102E0
3.138341875E0,-3.933860064E-1,-8.743874550E0,-4.825860023E0
3.140840261E0,-4.676465094E-1,-8.662427902E0,-4.806695938E0
3.143338646E0,-5.083699822E-1,-8.511510849E0,-4.964798927E0
3.145837084E0,-5.466979742E-1,-8.250401497E0,-5.041454792E0
3.148335469E0,-6.401224732E-1,-7.941381931E0,-5.237885952E0
3.150833854E0,-6.664729714E-1,-7.728182316E0,-5.386406898E0
3.153332240E0,-6.928235292E-1,-7.519773960E0,-5.412757397E0
3.155827084E0,-8.365535140E-1,-7.347298145E0,-5.522950649E0
3.158325469E0,-8.988364935E-1,-7.126912117E0,-5.566069603E0
3.160823854E0,-8.700904846E-1,-6.920898914E0,-5.525345802E0
3.163322240E0,-9.036275148E-1,-6.829870224E0,-5.539719105E0
3.165820677E0,-1.040171027E0,-6.695722103E0,-5.422339439E0
3.168319063E0,-1.095267534E0,-6.631043434E0,-5.252258778E0
3.170817448E0,-1.119222522E0,-6.573551655E0,-5.127693176E0
3.173315834E0,-1.124013543E0,-6.597506523E0,-5.036664009E0
3.175814271E0,-1.152759552E0,-6.635834694E0,-4.907307148E0
3.178312656E0,-1.176714540E0,-6.640625477E0,-4.794718266E0
3.180811094E0,-1.164736986E0,-6.686140060E0,-4.617451668E0
3.183309427E0,-1.171923518E0,-6.777169228E0,-4.428206921E0
3.185799427E0,-1.265347958E0,-6.896944046E0,-4.320409298E0
3.188297865E0,-1.334817529E0,-6.992763996E0,-4.200634480E0
3.190796250E0,-1.416264534E0,-7.081397533E0,-4.143142700E0
3.193294688E0,-1.540830493E0,-7.177217484E0,-3.968271017E0
3.195793073E0,-1.619881988E0,-7.258664608E0,-3.810168028E0
3.198291459E0,-1.677374005E0,-7.356880188E0,-3.683206558E0
3.200789844E0,-1.727679491E0,-7.388021469E0,-3.640087605E0
3.203288229E0,-1.734866023E0,-7.483841419E0,-3.419701576E0
3.205786667E0,-1.686956048E0,-7.558102131E0,-3.407723904E0
3.208285052E0,-1.698933482E0,-7.661108494E0,-3.393351078E0
3.210783490E0,-1.682165027E0,-7.728182316E0,-3.371791601E0
3.213281875E0,-1.641441464E0,-7.835979939E0,-3.410119534E0
3.215795521E0,-1.653419018E0,-7.919822693E0,-3.410119534E0
3.218293906E0,-1.562389970E0,-8.013246536E0,-3.510730505E0
3.220792292E0,-1.526457548E0,-8.111462593E0,-3.556245089E0
3.223290729E0,-1.394705057E0,-8.188118935E0,-3.690392971E0
3.225789115E0,-1.296489477E0,-8.305498123E0,-3.814959049E0
3.228287500E0,-1.219833493E0,-8.370176315E0,-4.035345078E0
3.230785886E0,-1.109640479E0,-8.473182678E0,-4.286872387E0
3.233284323E0,-9.802834988E-1,-8.559420586E0,-4.545586586E0
3.235782709E0,-9.443510175E-1,-8.583375931E0,-4.859396935E0
3.238281094E0,-8.605085015E-1,-8.734292030E0,-5.170812130E0
3.240779531E0,-6.952189803E-1,-8.851672173E0,-5.482226849E0
3.243277917E0,-6.544954777E-1,-8.976238251E0,-5.659493923E0
3.245777396E0,-6.497045159E-1,-9.141527176E0,-5.745731831E0
3.248275781E0,-6.233540177E-1,-9.373890877E0,-5.824783325E0
3.250774167E0,-5.466979742E-1,-9.536785126E0,-5.863111496E0
3.253272552E0,-4.868105054E-1,-9.718843460E0,-5.853529453E0
3.255770990E0,-4.389005005E-1,-9.896109581E0,-5.889461994E0
3.258269375E0,-3.191255033E-1,-1.006858635E1,-5.827178955E0
3.260767761E0,-2.664245069E-1,-1.020752525E1,-5.740941048E0
3.263266198E0,-1.921640038E-1,-1.044947052E1,-5.637934685E0
3.265764584E0,-1.202989966E-1,-1.056205940E1,-5.539719105E0
3.268262969E0,-1.729249954E-2,-1.070818424E1,-5.506182194E0
3.270761406E0,8.810950071E-2,-1.086389160E1,-5.458271980E0
3.273259792E0,2.174665034E-1,-1.099085331E1,-5.419943810E0
3.275771667E0,2.845405042E-1,-1.118728447E1,-5.345683575E0
3.278270104E0,3.923380077E-1,-1.137892437E1,-5.197162628E0
3.280768490E0,4.953444898E-1,-1.157295990E1,-5.041454792E0
3.283266927E0,5.408589840E-1,-1.175022697E1,-4.900120735E0
3.285765261E0,5.911645293E-1,-1.192509842E1,-4.725248814E0
3.288263698E0,7.324990034E-1,-1.205445576E1,-4.598287582E0
3.290762084E0,8.546695113E-1,-1.219579029E1,-4.444975376E0
3.293260469E0,8.977885246E-1,-1.235149765E1,-4.418624878E0
3.295758906E0,9.864220023E-1,-1.246887684E1,-4.361133099E0
3.298257292E0,1.034332037E0,-1.257907009E1,-4.306036472E0
3.300755729E0,9.840264916E-1,-1.266051674E1,-4.325200558E0
3.303254063E0,1.031936526E0,-1.267728519E1,-4.334782600E0
3.305748229E0,1.034332037E0,-1.278268719E1,-4.215007305E0
3.308246563E0,1.036727548E0,-1.284497070E1,-4.171888351E0
3.310745000E0,1.005586028E0,-1.295516396E1,-4.224589348E0
3.313243386E0,9.361165166E-1,-1.292641735E1,-4.102418900E0
3.315741823E0,9.121615291E-1,-1.287850761E1,-4.066486359E0
3.318240156E0,8.929975033E-1,-1.285215664E1,-4.126373768E0
3.320738594E0,7.804089785E-1,-1.281861973E1,-4.028158665E0
3.323236979E0,5.839779973E-1,-1.284257507E1,-3.843704939E0
3.325735417E0,3.084954917E-1,-1.284976196E1,-3.733511925E0
3.328233802E0,1.864000037E-2,-1.278268719E1,-3.573013544E0
3.330732240E0,-2.089325041E-1,-1.268926334E1,-3.390955448E0
3.333230625E0,-3.334985077E-1,-1.261500263E1,-3.295135498E0
3.335822084E0,-5.419070125E-1,-1.259344292E1,-3.117868423E0
3.338320521E0,-7.598974705E-1,-1.246169090E1,-2.914251089E0
3.340818906E0,-9.659104943E-1,-1.242575836E1,-2.813640118E0
3.343317344E0,-1.195878506E0,-1.237545204E1,-2.715424538E0
3.345815729E0,-1.512084484E0,-1.239940739E1,-2.583672047E0
3.348314115E0,-1.770798445E0,-1.237305737E1,-2.487852097E0
3.350812552E0,-1.950461030E0,-1.235389328E1,-2.413591385E0
3.353310886E0,-2.122936964E0,-1.235628891E1,-2.296211958E0
3.355809323E0,-2.204384089E0,-1.237066174E1,-2.042289019E0
3.358307709E0,-2.316972494E0,-1.228921413E1,-2.030311584E0
3.360806146E0,-2.453516006E0,-1.229640102E1,-1.982401490E0
3.363304531E0,-2.661924601E0,-1.225328159E1,-1.876999497E0
3.365782344E0,-2.520590067E0,-1.217423058E1,-1.915327549E0
3.368280729E0,-2.388837576E0,-1.209278393E1,-1.848253489E0
3.370779115E0,-2.328949928E0,-1.201373196E1,-1.733269453E0
3.373277552E0,-2.233129978E0,-1.189395714E1,-1.697337031E0
3.375775938E0,-2.058258533E0,-1.179334641E1,-1.776388526E0
3.378274323E0,-1.912132978E0,-1.169992161E1,-1.867417455E0
3.380772761E0,-1.770798445E0,-1.158733273E1,-1.860231042E0
3.383271146E0,-1.631859541E0,-1.147953510E1,-1.845857978E0
3.385769531E0,-1.574367523E0,-1.141006565E1,-1.900954485E0
3.388267917E0,-1.485733986E0,-1.130466366E1,-1.893767953E0
3.390766354E0,-1.512084484E0,-1.126394081E1,-1.829089522E0
3.393264688E0,-1.631859541E0,-1.122561264E1,-1.819507480E0
3.395729375E0,-1.746843457E0,-1.126154518E1,-1.711709976E0
3.398227761E0,-1.885782480E0,-1.123279858E1,-1.740455985E0
3.400726146E0,-2.019930601E0,-1.111302376E1,-1.728478551E0
3.403224584E0,-2.051071882E0,-1.102439022E1,-1.690150499E0
3.405722969E0,-2.149287462E0,-1.089742947E1,-1.709314466E0
3.408221406E0,-2.154078484E0,-1.075848961E1,-1.678172946E0
3.410719792E0,-2.166055918E0,-1.060278225E1,-1.654217958E0
3.413218177E0,-2.204384089E0,-1.041353798E1,-1.589539528E0
3.415716615E0,-2.223547935E0,-1.025783062E1,-1.560793519E0
3.418215000E0,-2.180428982E0,-1.010930920E1,-1.572770953E0
3.420713386E0,-2.331345558E0,-9.934437752E0,-1.606307983E0
3.423211771E0,-2.465493441E0,-9.733216286E0,-1.563189030E0
3.425744584E0,-2.374464512E0,-9.464920044E0,-1.479346514E0
3.428242969E0,-2.566104412E0,-9.397846222E0,-1.637449503E0
3.430741354E0,-3.179352522E0,-9.433778763E0,-2.236324549E0
3.433239792E0,-3.483581066E0,-9.275675774E0,-3.192128897E0
3.435738177E0,-3.526700020E0,-9.074453354E0,-4.013785362E0
3.438236563E0,-3.452439547E0,-8.913954735E0,-4.971985340E0
3.440735000E0,-3.366201401E0,-8.748665810E0,-6.023610115E0
3.443233386E0,-3.224867105E0,-8.698360443E0,-6.814125061E0
3.445731771E0,-3.143419981E0,-8.674405098E0,-7.460909843E0
3.448230156E0,-3.016458511E0,-8.657636642E0,-7.901681900E0
3.450728594E0,-2.923033953E0,-8.710337639E0,-8.186746597E0
3.453226979E0,-2.867937565E0,-8.755851746E0,-8.404737473E0
3.455722813E0,-2.769721985E0,-8.798971176E0,-8.395154953E0
3.458221250E0,-2.558917999E0,-8.834903717E0,-8.179559708E0
3.460719636E0,-2.302599430E0,-8.789388657E0,-7.872935772E0
3.463218021E0,-2.163660526E0,-8.810948372E0,-7.477678299E0
3.465716406E0,-1.897760034E0,-8.844485283E0,-7.063257217E0
3.468214844E0,-1.593531489E0,-8.909164429E0,-6.394912720E0
3.470713229E0,-1.284512043E0,-9.026543617E0,-5.808014870E0
3.473211615E0,-9.395599961E-1,-9.093617439E0,-5.206744671E0
3.475710052E0,-7.263604999E-1,-9.146318436E0,-4.612660408E0
3.478208438E0,-5.730484724E-1,-9.175064087E0,-4.157515526E0
3.480706823E0,-3.838039935E-1,-9.191832542E0,-3.723929882E0
3.483205209E0,-1.777909994E-1,-9.244533539E0,-3.414910555E0
3.485725469E0,4.738600180E-2,-9.314003944E0,-3.235248089E0
3.488223906E0,2.366304994E-1,-9.340353966E0,-3.192128897E0
3.490722292E0,3.468235135E-1,-9.376286507E0,-3.194524527E0
3.493220729E0,3.180775046E-1,-9.455337524E0,-3.211292982E0
3.495719115E0,2.438170016E-1,-9.517621040E0,-3.263993979E0
3.498217500E0,1.839295030E-1,-9.589486122E0,-3.168174028E0
3.500715938E0,1.168555021E-1,-9.572717667E0,-3.199315548E0
3.503214323E0,1.456014961E-1,-9.474501610E0,-3.184942484E0
3.505712709E0,1.671610028E-1,-9.407427788E0,-3.199315548E0
3.508211094E0,2.533990145E-1,-9.369099617E0,-3.285553455E0
3.510709479E0,3.492189944E-1,-9.258907318E0,-3.405328512E0
3.513207917E0,3.204729855E-1,-9.203810692E0,-3.505939484E0
3.515665365E0,2.822200023E-2,-9.124758720E0,-3.616132498E0
3.518163750E0,-2.999615073E-1,-9.153505325E0,-3.795794964E0
3.520662136E0,-5.299295187E-1,-9.179855347E0,-3.999412537E0
3.523160573E0,-6.329360008E-1,-9.227765083E0,-4.112000942E0
3.525658959E0,-5.634664893E-1,-9.254116058E0,-4.145537853E0
3.528157344E0,-5.443025231E-1,-9.321189880E0,-4.262917519E0
3.530655781E0,-7.766659856E-1,-9.359518051E0,-4.248544693E0
3.533154167E0,-1.100058556E0,-9.426591873E0,-4.203030109E0
3.535652604E0,-1.389914036E0,-9.445755959E0,-4.135955811E0
3.538150990E0,-1.574367523E0,-9.414614677E0,-3.973062038E0
3.540649375E0,-1.696537971E0,-9.393054962E0,-3.767049074E0
3.543147761E0,-1.770798445E0,-9.390659332E0,-3.549058437E0
3.545680261E0,-1.859431982E0,-9.354726791E0,-3.345441103E0
3.548178646E0,-1.972020507E0,-9.306817055E0,-3.089122534E0
3.550677031E0,-2.060653925E0,-9.261302948E0,-2.799267054E0
3.553175469E0,-2.137310028E0,-9.225370407E0,-2.725006580E0
3.555673854E0,-2.072631598E0,-9.177459717E0,-2.686678410E0
3.558172240E0,-2.115750551E0,-9.129549980E0,-2.619604588E0
3.560670677E0,-2.290621996E0,-9.055289268E0,-2.492643118E0
3.563169063E0,-2.415188074E0,-8.978633881E0,-2.590858459E0
3.565667448E0,-2.482261896E0,-8.993006706E0,-2.586067438E0
3.568165834E0,-2.623596430E0,-8.971446991E0,-2.631582022E0
3.570664219E0,-2.762535572E0,-8.901977539E0,-2.701051474E0
3.573162656E0,-2.863146544E0,-8.846880913E0,-2.660327911E0
3.575668386E0,-3.021249533E0,-8.775015831E0,-2.748961449E0
3.578166771E0,-3.148211002E0,-8.712733269E0,-2.784893990E0
3.580665209E0,-3.251217604E0,-8.669613838E0,-2.784893990E0
3.583163594E0,-3.347037554E0,-8.681591034E0,-2.818430901E0
3.585661979E0,-3.421298027E0,-8.652845383E0,-2.811244488E0
3.588160417E0,-3.505140543E0,-8.626495361E0,-2.844781399E0
3.590658802E0,-3.569818974E0,-8.564211845E0,-2.887900591E0
3.593157188E0,-3.574609995E0,-8.561816216E0,-2.940601587E0
3.595655625E0,-3.526700020E0,-8.535466194E0,-3.053189993E0
3.598154011E0,-3.514722586E0,-8.485160828E0,-3.098704576E0
3.600652396E0,-3.433275461E0,-8.444437027E0,-3.177756071E0
3.603150781E0,-3.370992422E0,-8.360594749E0,-3.273576021E0
3.605618750E0,-3.299127579E0,-8.274356842E0,-3.309508562E0
3.608117136E0,-3.203307390E0,-8.159372330E0,-3.436470032E0
3.610615573E0,-3.176956892E0,-8.104275703E0,-3.532289982E0
3.613113959E0,-3.097905397E0,-8.058761597E0,-3.659251451E0
3.615612344E0,-3.028435946E0,-7.955755234E0,-3.798190594E0
3.618110781E0,-2.949384451E0,-7.831189156E0,-3.949106932E0
3.620609167E0,-2.951780081E0,-7.761719704E0,-4.102418900E0
3.623107552E0,-2.879914999E0,-7.653922081E0,-4.298850060E0
3.625605938E0,-2.829609394E0,-7.589243412E0,-4.492885590E0
3.628104323E0,-2.779304028E0,-7.388021469E0,-4.691711903E0
3.630602761E0,-2.745767117E0,-7.239500523E0,-4.876165390E0
3.633101146E0,-2.693065882E0,-7.079001904E0,-5.072596550E0
3.635597188E0,-2.633178473E0,-6.908921719E0,-5.319333076E0
3.638095573E0,-2.532567501E0,-6.815496922E0,-5.587628841E0
3.640593959E0,-2.412792444E0,-6.714886189E0,-5.793642044E0
3.643092396E0,-2.328949928E0,-6.614274979E0,-5.992468357E0
3.645590781E0,-2.240316391E0,-6.551991940E0,-6.215250015E0
3.648089219E0,-2.130123615E0,-6.530432701E0,-6.416471958E0
3.650587604E0,-2.077422619E0,-6.470544815E0,-6.478754997E0
3.653085990E0,-1.995975494E0,-6.484918118E0,-6.509896278E0
3.655584427E0,-1.945670009E0,-6.518455029E0,-6.500314713E0
3.658082813E0,-1.864223003E0,-6.551991940E0,-6.459590912E0
3.660581198E0,-1.873805046E0,-6.621461391E0,-6.421263218E0
3.663079636E0,-1.883386970E0,-6.628647804E0,-6.239204884E0
3.665617656E0,-1.926506042E0,-6.652603149E0,-6.174526691E0
3.668115990E0,-1.976811528E0,-6.652603149E0,-6.033192158E0
3.670614427E0,-2.010348558E0,-6.645416737E0,-5.843947411E0
3.673112813E0,-2.108563900E0,-6.683744431E0,-5.803224087E0
3.675611250E0,-2.194802046E0,-6.707699299E0,-5.647516727E0
3.678109636E0,-2.307390451E0,-6.683744431E0,-5.515764236E0
3.680608021E0,-2.491843939E0,-6.772377968E0,-5.448689938E0
3.683106459E0,-2.688275099E0,-6.801124096E0,-5.273818493E0
3.685604844E0,-2.836796045E0,-6.798728466E0,-5.144461632E0
3.688103229E0,-2.987712383E0,-6.870593548E0,-5.029477596E0
3.690601667E0,-3.114674091E0,-6.896944046E0,-4.955216885E0
3.693100052E0,-3.306313992E0,-6.964017868E0,-4.801905155E0
3.695569896E0,-3.411715984E0,-6.947249413E0,-4.660570621E0
3.698068281E0,-3.502744913E0,-6.932876587E0,-4.492885590E0
3.700566667E0,-3.761459112E0,-7.021510124E0,-4.449766636E0
3.703065104E0,-3.941121578E0,-7.098165989E0,-4.413834095E0
3.705563490E0,-4.077664852E0,-7.112538815E0,-4.327596188E0
3.708061927E0,-4.223790646E0,-7.186799526E0,-4.298850060E0
3.710560313E0,-4.329192638E0,-7.191590309E0,-4.253335476E0
3.713058698E0,-4.432199001E0,-7.177217484E0,-4.181470394E0
3.715557136E0,-4.563951492E0,-7.191590309E0,-4.155119896E0
3.718055521E0,-4.571137905E0,-7.189195156E0,-4.114396572E0
3.720553906E0,-4.643002987E0,-7.234709263E0,-4.102418900E0
3.723052292E0,-4.654980659E0,-7.215545654E0,-4.119187355E0
3.725589896E0,-4.643002987E0,-7.294597149E0,-4.131165028E0
3.728088334E0,-4.621443272E0,-7.332924843E0,-4.155119896E0
3.730586719E0,-4.575929165E0,-7.320947647E0,-4.217402935E0
3.733085104E0,-4.513646126E0,-7.332924843E0,-4.250939846E0
3.735583490E0,-4.444176674E0,-7.397603512E0,-4.294058800E0
3.738081927E0,-4.322006226E0,-7.493423462E0,-4.358737469E0
3.740580313E0,-4.173484802E0,-7.574870586E0,-4.346759796E0
3.743078698E0,-4.063292027E0,-7.608407497E0,-4.428206921E0
3.745577136E0,-3.886024952E0,-7.706623077E0,-4.504862785E0
3.748075521E0,-3.735108614E0,-7.754532814E0,-4.643802166E0
3.750573906E0,-3.567423582E0,-7.881494522E0,-4.708480358E0
3.753072292E0,-3.428484440E0,-7.931799889E0,-4.773159027E0
3.755538438E0,-3.270381451E0,-7.977314472E0,-4.809091568E0
3.758036823E0,-3.117069483E0,-7.972523689E0,-4.830650806E0
3.760535209E0,-2.887101412E0,-8.063552856E0,-4.895329475E0
3.763033646E0,-2.728998423E0,-8.075530052E0,-4.868978977E0
3.765532031E0,-2.544544935E0,-8.037201881E0,-4.782741070E0
3.768030469E0,-2.458307028E0,-8.039597511E0,-4.753994942E0
3.770528854E0,-2.345718384E0,-8.061157227E0,-4.744412899E0
3.773027240E0,-2.336136580E0,-8.027620316E0,-4.727644444E0
3.775525625E0,-2.245107412E0,-8.020433426E0,-4.684525490E0
3.778024011E0,-2.187615395E0,-7.967732430E0,-4.703689575E0
3.780522448E0,-2.235525608E0,-7.931799889E0,-4.742017269E0
3.783020886E0,-2.314577103E0,-7.869516850E0,-4.794718266E0
3.785533334E0,-2.352905035E0,-7.824002266E0,-4.938448429E0
3.788031719E0,-2.393628597E0,-7.788070202E0,-5.161230087E0
3.790530104E0,-2.499030590E0,-7.749742031E0,-5.324123859E0
3.793028542E0,-2.640364885E0,-7.761719704E0,-5.458271980E0
3.795526927E0,-2.767326593E0,-7.725787163E0,-5.606792927E0
3.798025313E0,-2.870332956E0,-7.761719704E0,-5.700217724E0
3.800523750E0,-2.968548536E0,-7.814420700E0,-5.764895916E0
3.803022136E0,-3.095510006E0,-7.936591148E0,-5.812806129E0
3.805520521E0,-3.181747913E0,-8.118648529E0,-5.877484322E0
3.808018906E0,-3.303918600E0,-8.339035034E0,-5.884671211E0
3.810517344E0,-3.483581066E0,-8.657636642E0,-5.719381332E0
3.813015729E0,-3.579401016E0,-9.028939247E0,-5.506182194E0
3.815498125E0,-3.663243532E0,-9.472106934E0,-5.355265617E0
3.817996511E0,-3.696780443E0,-9.843408585E0,-5.082178593E0
3.820494896E0,-3.696780443E0,-1.026022625E1,-4.809091568E0
3.822993334E0,-3.634497404E0,-1.063631916E1,-4.569541454E0
3.825491719E0,-3.555445910E0,-1.096689892E1,-4.406647682E0
3.827990156E0,-3.531491041E0,-1.126394081E1,-4.320409298E0
3.830488542E0,-3.450043917E0,-1.155619144E1,-4.217402935E0
3.832986927E0,-3.426089048E0,-1.182688332E1,-4.164701939E0
3.835485365E0,-3.426089048E0,-1.209517860E1,-4.121582985E0
3.837983750E0,-3.473999023E0,-1.251439190E1,-4.152724266E0
3.840482136E0,-3.476394415E0,-1.299828243E1,-4.298850060E0
3.842980573E0,-3.457230568E0,-1.336958504E1,-4.442580223E0
3.845493281E0,-3.438066483E0,-1.364267159E1,-4.698898315E0
3.847991667E0,-3.342246532E0,-1.387024403E1,-4.998335838E0
3.850490104E0,-3.153002024E0,-1.392534065E1,-5.146856785E0
3.852988490E0,-2.975734949E0,-1.390378189E1,-5.381616116E0
3.855486875E0,-2.760139942E0,-1.377682018E1,-5.594815731E0
3.857985313E0,-2.618805408E0,-1.341030884E1,-5.630747795E0
3.860483698E0,-2.525381088E0,-1.308931160E1,-5.688240051E0
3.862982084E0,-2.362487078E0,-1.295516396E1,-5.743336678E0
3.865480521E0,-2.211570501E0,-1.292402172E1,-5.798432827E0
3.867978854E0,-2.106168509E0,-1.288569355E1,-5.781664371E0
3.870477292E0,-2.055862904E0,-1.272040462E1,-5.700217724E0
3.872975677E0,-2.041490078E0,-1.253595066E1,-5.568465233E0
3.875477448E0,-1.926506042E0,-1.224370003E1,-5.400780201E0
3.877975834E0,-1.876200557E0,-1.185802460E1,-5.247467995E0
3.880474219E0,-1.833081484E0,-1.150349045E1,-4.962403297E0
3.882972656E0,-1.763612032E0,-1.106032276E1,-4.639010906E0
3.885471042E0,-1.734866023E0,-1.056924534E1,-4.231776237E0
3.887969479E0,-1.782775998E0,-1.021710682E1,-3.836518526E0
3.890467865E0,-1.816313028E0,-9.867363930E0,-3.422096968E0
3.892966250E0,-1.976811528E0,-9.620627403E0,-2.971743107E0
3.895464688E0,-2.132519007E0,-9.436174393E0,-2.679491997E0
3.897963073E0,-2.400815010E0,-9.232556343E0,-2.415987015E0
3.900461459E0,-2.597245932E0,-9.086430550E0,-2.217160463E0
3.902959896E0,-2.800863504E0,-8.966655731E0,-2.073430538E0
3.905487136E0,-2.973339558E0,-8.880417824E0,-2.037497997E0
3.907985521E0,-3.018853903E0,-8.760643005E0,-2.150086403E0
3.910483906E0,-3.047600031E0,-8.669613838E0,-2.183623552E0
3.912982344E0,-2.939802408E0,-8.600144386E0,-2.209974051E0
3.915480677E0,-2.836796045E0,-8.535466194E0,-2.365681410E0
3.917979115E0,-2.664319992E0,-8.458809853E0,-2.442337513E0
3.920477500E0,-2.396023989E0,-8.413295746E0,-2.552530527E0
3.922975886E0,-2.221152544E0,-8.286334038E0,-2.595649481E0
3.925474323E0,-1.981602550E0,-8.113858223E0,-2.614813566E0
3.927972709E0,-1.691746950E0,-7.711413860E0,-2.461501598E0
3.930471146E0,-1.368354559E0,-7.507796288E0,-2.435151100E0
3.932969531E0,-1.090476513E0,-7.572474957E0,-2.538157463E0
3.935441979E0,-9.275825024E-1,-7.594034672E0,-2.562112570E0
3.937940365E0,-7.287560105E-1,-7.555706501E0,-2.425569057E0
3.940438750E0,-6.209585071E-1,-7.582056999E0,-2.425569057E0
3.942937188E0,-3.861995041E-1,-7.476655006E0,-2.320167065E0
3.945435573E0,-1.777909994E-1,-7.344902515E0,-2.305794001E0
3.947933959E0,-8.436650038E-2,-7.543728828E0,-2.190809965E0
3.950432344E0,6.655000150E-2,-7.603616714E0,-2.109363079E0
3.952930781E0,1.479970068E-1,-7.627571583E0,-2.054266453E0
3.955429167E0,2.557944953E-1,-7.732973576E0,-2.059057474E0
3.957927552E0,3.468235135E-1,-7.845561981E0,-2.162064075E0
3.960425990E0,4.378525019E-1,-7.958150387E0,-2.154877424E0
3.962924427E0,5.264859796E-1,-8.044388771E0,-2.250697613E0
3.965437031E0,3.947334886E-1,-8.099485397E0,-2.633977413E0
3.967935417E0,3.588010073E-1,-8.252797127E0,-2.837594986E0
3.970433802E0,1.527879983E-1,-8.446832657E0,-3.022048473E0
3.972932188E0,-1.993505061E-1,-8.607331276E0,-3.211292982E0
3.975430573E0,-6.688684821E-1,-8.849276543E0,-3.532289982E0
3.977929011E0,-1.092872024E0,-9.055289268E0,-3.733511925E0
3.980427448E0,-1.377936482E0,-9.225370407E0,-3.932338476E0
3.982925834E0,-1.564785480E0,-9.299630165E0,-4.119187355E0
3.985424219E0,-1.787567019E0,-9.417010307E0,-4.210216522E0
3.987922604E0,-1.845059037E0,-9.421800613E0,-4.401856422E0
3.990421042E0,-1.749238968E0,-9.364309311E0,-4.538400173E0
3.992919427E0,-1.519271016E0,-9.203810692E0,-4.610264778E0
3.995440469E0,-1.339608550E0,-9.040916443E0,-4.459348679E0
3.997938854E0,-1.174319029E0,-8.978633881E0,-4.215007305E0
4.000437240E0,-1.109640479E0,-8.882813454E0,-3.872451067E0
4.002935677E0,-1.119222522E0,-8.875626564E0,-3.587386608E0
4.005434063E0,-1.071312547E0,-8.825321198E0,-3.390955448E0
4.007932448E0,-9.754924774E-1,-8.818135262E0,-3.369395971E0
4.010430834E0,-9.132094979E-1,-8.839694977E0,-3.412514925E0
4.012929271E0,-9.491419792E-1,-8.839694977E0,-3.549058437E0
4.015427656E0,-8.820679784E-1,-8.916350365E0,-3.802981615E0
4.017926042E0,-7.694795132E-1,-9.014566422E0,-3.829332113E0
4.020424427E0,-7.862480283E-1,-9.163086891E0,-3.814959049E0
4.022922865E0,-8.700904846E-1,-9.196623802E0,-3.805377007E0
4.025454375E0,-8.700904846E-1,-9.242138863E0,-3.949106932E0
4.027952813E0,-9.036275148E-1,-9.349935532E0,-4.044927120E0
4.030451198E0,-9.180005193E-1,-9.457733154E0,-3.965875387E0
4.032949584E0,-9.826790094E-1,-9.558344841E0,-4.025763035E0
4.035447969E0,-1.052148461E0,-9.637395859E0,-4.090441704E0
4.037946354E0,-1.131199956E0,-9.745193481E0,-4.234171391E0
4.040444792E0,-1.150364041E0,-9.900900841E0,-4.289268017E0
4.042943177E0,-1.203065038E0,-1.002546692E1,-4.279685974E0
4.045441615E0,-1.112035990E0,-1.015003300E1,-4.294058800E0
4.047940000E0,-9.491419792E-1,-1.034167290E1,-4.509654045E0
4.050438386E0,-7.503154874E-1,-1.053091717E1,-4.926471233E0
4.052936771E0,-5.179520249E-1,-1.064350605E1,-5.166020870E0
4.055407917E0,-3.598490059E-1,-1.073932552E1,-5.472644806E0
4.057906302E0,-1.969549954E-1,-1.091180229E1,-5.654703140E0
4.060404688E0,-1.968800090E-2,-1.106032276E1,-5.772082329E0
4.062903125E0,3.301300108E-2,-1.119686604E1,-5.817596912E0
4.065401459E0,9.290049970E-2,-1.124477673E1,-5.676262379E0
4.067899896E0,1.623699963E-1,-1.132861900E1,-5.398384571E0
4.070398281E0,2.366304994E-1,-1.139808846E1,-4.888143063E0
4.072896719E0,2.893314958E-1,-1.141246128E1,-4.404252052E0
4.075395104E0,1.120645031E-1,-1.129747772E1,-4.164701939E0
4.077893490E0,-1.059259996E-1,-1.123758984E1,-3.735907555E0
4.080391927E0,-2.208350040E-2,-1.115374756E1,-3.216084003E0
4.082890313E0,-4.603850096E-2,-1.096210766E1,-2.590858459E0
4.085408750E0,-1.682090014E-1,-1.081358624E1,-1.987192512E0
4.087907500E0,-3.287074864E-1,-1.071297550E1,-1.560793519E0
4.090406250E0,-4.317139983E-1,-1.053091717E1,-1.194282055E0
4.092905052E0,-5.371159911E-1,-1.038000107E1,-1.074506998E0
4.095403802E0,-7.024055123E-1,-1.026022625E1,-1.163140535E0
4.097902552E0,-7.814570069E-1,-1.010451889E1,-1.371549010E0
4.100401302E0,-7.910389900E-1,-9.929647446E0,-1.783575058E0
4.102900104E0,-8.173894882E-1,-9.747589111E0,-2.231533527E0
4.105398854E0,-9.132094979E-1,-9.618231773E0,-2.796871424E0
4.107897604E0,-9.898654819E-1,-9.496061325E0,-3.240039110E0
4.110396354E0,-1.083289981E0,-9.364309311E0,-3.534685612E0
4.112895156E0,-1.253370523E0,-9.266093254E0,-3.800585985E0
4.115342448E0,-1.260557055E0,-9.115177155E0,-3.929943085E0
4.117841250E0,-1.272534490E0,-9.038520813E0,-3.802981615E0
4.120340000E0,-1.337213039E0,-8.981028557E0,-3.656856060E0
4.122838750E0,-1.373145461E0,-8.952282906E0,-3.486775398E0
4.125337552E0,-1.512084484E0,-8.973842621E0,-3.316694975E0
4.127836302E0,-1.605509043E0,-8.942701340E0,-3.237643480E0
4.130335052E0,-1.792358041E0,-8.957074165E0,-3.170569420E0
4.132833854E0,-1.806730986E0,-8.954678535E0,-3.077145100E0
4.135332604E0,-1.825894952E0,-8.988215446E0,-2.976533890E0
4.137831406E0,-1.811522007E0,-8.978633881E0,-2.935810566E0
4.140330156E0,-1.818708539E0,-8.942701340E0,-2.947788000E0
4.142828959E0,-1.885782480E0,-8.985819817E0,-2.957370043E0
4.145351042E0,-1.912132978E0,-9.014566422E0,-3.072354078E0
4.147849844E0,-1.775589466E0,-9.004983902E0,-3.141823530E0
4.150348594E0,-1.651023507E0,-8.983424187E0,-3.201710939E0
4.152847396E0,-1.600718021E0,-9.000192642E0,-3.254411936E0
4.155346146E0,-1.504897952E0,-8.995402336E0,-3.376582384E0
4.157844896E0,-1.370749950E0,-9.024147987E0,-3.484380007E0
4.160343698E0,-1.162341475E0,-9.019356728E0,-3.496357441E0
4.162842448E0,-1.032984495E0,-9.004983902E0,-3.510730505E0
4.165341198E0,-9.898654819E-1,-9.055289268E0,-3.599364042E0
4.167839948E0,-9.491419792E-1,-9.107990265E0,-3.630505562E0
4.170338750E0,-8.700904846E-1,-9.153505325E0,-3.711952448E0
4.172837500E0,-8.820679784E-1,-9.196623802E0,-3.731116533E0
4.175309584E0,-8.916500211E-1,-9.201415062E0,-3.757467031E0
4.177808386E0,-8.652995229E-1,-9.278071404E0,-3.870055437E0
4.180307136E0,-8.245760202E-1,-9.304421425E0,-3.810168028E0
4.182805938E0,-8.125985265E-1,-9.328376770E0,-3.807772398E0
4.185304688E0,-7.814570069E-1,-9.292444229E0,-3.781421900E0
4.187803490E0,-7.622929811E-1,-9.251720428E0,-3.867660046E0
4.190302240E0,-7.670840025E-1,-9.227765083E0,-3.824541092E0
4.192800990E0,-7.694795132E-1,-9.254116058E0,-3.877242088E0
4.195299792E0,-7.766659856E-1,-9.203810692E0,-3.953897953E0
4.197798542E0,-8.796725273E-1,-9.196623802E0,-4.023367405E0
4.200297292E0,-9.467465281E-1,-9.210996628E0,-4.078464031E0
4.202796042E0,-1.114431500E0,-9.165482521E0,-4.155119896E0
4.205293438E0,-1.229415536E0,-9.136736870E0,-4.198238850E0
4.207792188E0,-1.380331993E0,-9.100804329E0,-4.253335476E0
4.210290990E0,-1.583949447E0,-8.990611076E0,-4.253335476E0
4.212789740E0,-1.713306546E0,-8.913954735E0,-4.253335476E0
4.215288542E0,-1.861827493E0,-8.878022194E0,-4.260521889E0
4.217787292E0,-2.031908035E0,-8.818135262E0,-4.188656807E0
4.220286094E0,-2.161264896E0,-8.782202721E0,-4.104814529E0
4.222784844E0,-2.300204039E0,-8.722314835E0,-4.004203320E0
4.225283646E0,-2.405606031E0,-8.638472557E0,-3.941920519E0
4.227782396E0,-2.580477476E0,-8.559420586E0,-3.872451067E0
4.230281146E0,-2.700252533E0,-8.492346764E0,-3.882033110E0
4.232779948E0,-2.805654526E0,-8.406108856E0,-3.968271017E0
4.235342813E0,-2.942198038E0,-8.329453468E0,-3.963479996E0
4.237841511E0,-3.006876469E0,-8.271961212E0,-4.013785362E0
4.240340313E0,-3.109883070E0,-8.238424301E0,-4.092836857E0
4.242839115E0,-3.236844540E0,-8.156976700E0,-4.126373768E0
4.245337865E0,-3.330269098E0,-8.046784401E0,-4.231776237E0
4.247836615E0,-3.445252895E0,-8.013246536E0,-4.344364643E0
4.250335417E0,-3.493163109E0,-7.950963974E0,-4.461743832E0
4.252834167E0,-3.591378450E0,-7.828793526E0,-4.636615276E0
4.255332969E0,-3.653661489E0,-7.785674572E0,-4.816277981E0
4.257831719E0,-3.768645525E0,-7.761719704E0,-4.900120735E0
4.260330469E0,-3.866861105E0,-7.756928444E0,-4.938448429E0
4.262829271E0,-3.907584429E0,-7.704227448E0,-5.015104294E0
4.265297031E0,-3.989031553E0,-7.598825455E0,-5.055828094E0
4.267795781E0,-4.130365849E0,-7.608407497E0,-5.144461632E0
4.270294584E0,-4.154321194E0,-7.529356003E0,-5.211535454E0
4.272793281E0,-4.106410980E0,-7.447908878E0,-5.331310272E0
4.275292084E0,-4.053709984E0,-7.342506886E0,-5.453481197E0
4.277790834E0,-3.974658489E0,-7.172426701E0,-5.597210884E0
4.280289636E0,-3.845301390E0,-7.009532452E0,-5.736149788E0
4.282788438E0,-3.785413980E0,-6.856220722E0,-5.848738670E0
4.285287188E0,-3.639288425E0,-6.755609512E0,-5.911021709E0
4.287785938E0,-3.521908998E0,-6.599902153E0,-6.037982941E0
4.290284740E0,-3.502744913E0,-6.422635078E0,-6.143384933E0
4.292783490E0,-3.452439547E0,-6.305255413E0,-6.188899517E0
4.295279479E0,-3.414111614E0,-6.137570381E0,-6.287115097E0
4.297778229E0,-3.385365486E0,-6.044146061E0,-6.311069965E0
4.300277031E0,-3.553050518E0,-5.965094566E0,-6.375748634E0
4.302775729E0,-3.550654888E0,-5.893229485E0,-6.387725830E0
4.305274531E0,-3.612937927E0,-5.854901314E0,-6.370957375E0
4.307773281E0,-3.656056881E0,-5.811782360E0,-6.344606876E0
4.310272084E0,-3.646475077E0,-5.708775997E0,-6.394912720E0
4.312770834E0,-3.651266098E0,-5.651284218E0,-6.416471958E0
4.315269584E0,-3.579401016E0,-5.569837093E0,-6.418867588E0
4.317768386E0,-3.497953892E0,-5.471621513E0,-6.387725830E0
4.320267136E0,-3.418902397E0,-5.495576382E0,-6.308674335E0
4.322765938E0,-3.385365486E0,-5.469225883E0,-6.356584549E0
4.325229844E0,-3.284754515E0,-5.330286980E0,-6.497919083E0
4.327728646E0,-3.258404016E0,-5.335077763E0,-6.569784164E0
4.330227396E0,-3.193725586E0,-5.387779236E0,-6.653626442E0
4.332726146E0,-3.097905397E0,-5.294354439E0,-6.823707104E0
4.335224948E0,-3.054786444E0,-5.246444702E0,-6.950668335E0
4.337723698E0,-3.002085447E0,-5.251235485E0,-7.056070328E0
4.340222500E0,-2.925429583E0,-5.164997578E0,-7.178240776E0
4.342721250E0,-2.975734949E0,-5.018871784E0,-7.159077168E0
4.345220000E0,-3.083532572E0,-4.961380005E0,-7.115958214E0
4.347718802E0,-3.181747913E0,-4.913469791E0,-7.092002869E0
4.350217552E0,-3.241635561E0,-4.772135735E0,-7.044093132E0
4.352716354E0,-3.378179073E0,-4.594868660E0,-7.118353367E0
4.355247604E0,-3.565027952E0,-4.419997215E0,-7.034511089E0
4.357746354E0,-3.689594030E0,-4.281057835E0,-7.068048000E0
4.360245156E0,-3.794996023E0,-4.012762070E0,-7.127935410E0
4.362743906E0,-3.936330557E0,-3.763629913E0,-7.115958214E0
4.365242709E0,-4.020173073E0,-3.480961084E0,-7.130331039E0
4.367741459E0,-3.962681055E0,-3.203083038E0,-7.103980541E0
4.370240156E0,-3.881233931E0,-2.951555490E0,-7.149495125E0
4.372738959E0,-3.890815973E0,-2.771893024E0,-7.151890278E0
4.375237761E0,-3.893211603E0,-2.637744904E0,-7.247710705E0
4.377736511E0,-3.933934927E0,-2.644931555E0,-7.238128662E0
4.380235313E0,-3.950703382E0,-2.661700010E0,-7.166263580E0
4.382734063E0,-4.017777443E0,-2.719192028E0,-7.257292271E0
4.385271563E0,-4.005799770E0,-2.800638914E0,-7.357903481E0
4.387770313E0,-4.058500767E0,-2.961137533E0,-7.360299110E0
4.390269063E0,-4.137552738E0,-3.174336910E0,-7.238128662E0
4.392767865E0,-4.168694019E0,-3.413887024E0,-7.111166954E0
4.395266615E0,-4.175880432E0,-3.646250486E0,-6.885990143E0
4.397765365E0,-4.135157108E0,-3.948083401E0,-6.555410862E0
4.400264115E0,-4.012986660E0,-4.192424297E0,-6.241600513E0
4.402762865E0,-3.787809610E0,-4.412810326E0,-5.884671211E0
4.405261667E0,-3.450043917E0,-4.654756069E0,-5.561278343E0
4.407760417E0,-3.066764116E0,-4.894306183E0,-5.259445667E0
4.410259219E0,-2.599641562E0,-5.196138859E0,-5.158834457E0
4.412757969E0,-1.967229486E0,-5.469225883E0,-5.084574223E0
4.415181927E0,-1.409078002E0,-5.874065399E0,-5.072596550E0
4.417680677E0,-7.886434793E-1,-6.381911278E0,-5.122901917E0
4.420179479E0,-2.185145020E-1,-6.944853783E0,-5.204349041E0
4.422678229E0,3.013089895E-1,-7.737764359E0,-5.364847660E0
4.425177031E0,8.115504980E-1,-8.509115219E0,-5.628352642E0
4.427675781E0,1.211598992E0,-9.337958336E0,-5.875089169E0
4.430174531E0,1.685907960E0,-1.021231556E1,-6.311069965E0
4.432673334E0,2.145843983E0,-1.098366737E1,-6.850057602E0
4.435172084E0,2.476423025E0,-1.189395714E1,-7.360299110E0
4.437670886E0,2.842934608E0,-1.278029156E1,-7.906473160E0
4.440169636E0,3.293288469E0,-1.370495510E1,-8.284961700E0
4.442668438E0,3.743642569E0,-1.452661133E1,-8.565235138E0
4.445185938E0,3.985588074E0,-1.530275345E1,-8.754480362E0
4.447684740E0,4.217951298E0,-1.597109795E1,-9.065895081E0
4.450183490E0,4.047871113E0,-1.617711067E1,-8.732920647E0
4.452682292E0,3.861021996E0,-1.694846153E1,-8.788017273E0
4.455181042E0,3.932887077E0,-1.783958817E1,-8.840718269E0
4.457679792E0,3.705314398E0,-1.860614777E1,-8.359222412E0
4.460178594E0,3.374735594E0,-1.935354424E1,-8.019061089E0
4.462677344E0,2.627339602E0,-2.009135818E1,-7.662131786E0
4.465176094E0,1.867966056E0,-2.069981575E1,-7.384253979E0
4.467674844E0,1.393656969E0,-2.132504082E1,-7.082420826E0
4.470173594E0,1.439171553E0,-2.102320671E1,-6.622485161E0
4.472672396E0,1.249927044E0,-2.067346382E1,-6.215250015E0
4.475152917E0,1.213994503E0,-2.070221138E1,-5.762500286E0
4.477651719E0,1.345746994E0,-2.062795067E1,-5.374429703E0
4.480150469E0,1.520618558E0,-2.088905907E1,-4.962403297E0
4.482649219E0,1.815265059E0,-2.179455757E1,-4.753994942E0
4.485148021E0,1.894316554E0,-2.299230766E1,-4.737226486E0
4.487646771E0,1.872756958E0,-2.381396484E1,-4.746808529E0
4.490145521E0,2.153030396E0,-2.429067039E1,-4.936052799E0
4.492644323E0,2.294364929E0,-2.449907875E1,-4.892933846E0
4.495143125E0,2.538706064E0,-2.425952721E1,-4.679734707E0
4.497641875E0,2.718368530E0,-2.367023468E1,-4.456953049E0
4.500140625E0,2.811793089E0,-2.269287109E1,-4.128769398E0
4.502639427E0,2.799815416E0,-2.141127777E1,-3.434074402E0
4.505160313E0,2.337483883E0,-2.004584312E1,-2.569298983E0
4.507659063E0,1.010377049E0,-1.868040848E1,-1.572770953E0
4.510157813E0,-7.311515212E-1,-1.731736946E1,-4.684455097E-1
4.512656615E0,-2.304995060E0,-1.622023010E1,3.292559981E-1
4.515155417E0,-3.488372087E0,-1.550158024E1,6.071339846E-1
4.517654115E0,-4.623838902E0,-1.518776989E1,3.675839901E-1
4.520152917E0,-5.788052082E0,-1.506320381E1,-3.006899916E-2
4.522651719E0,-6.442023277E0,-1.498654747E1,-2.839919925E-1
4.525150469E0,-6.901959419E0,-1.485000420E1,-1.019340008E-1
4.527649219E0,-7.167860031E0,-1.483323574E1,2.621819973E-1
4.530148021E0,-7.623004913E0,-1.473741531E1,5.999475121E-1
4.532646771E0,-8.015867233E0,-1.457691669E1,8.179380298E-1
4.535173334E0,-8.724934578E0,-1.439246368E1,4.562174976E-1
4.537672084E0,-8.298536301E0,-1.427268887E1,7.533299923E-2
4.540170834E0,-7.393036842E0,-1.407865334E1,3.580020070E-1
4.542669636E0,-7.016943455E0,-1.383191681E1,9.520859718E-1
4.545168386E0,-6.525866032E0,-1.354924774E1,1.361716509E0
4.547667188E0,-4.803501606E0,-1.310608006E1,1.989337444E0
4.550165938E0,-4.460945129E0,-1.230358791E1,2.147440434E0
4.552664688E0,-6.279129505E0,-1.190832996E1,1.596475482E0
4.555163490E0,-7.251702309E0,-1.193228531E1,1.033532977E0
4.557662240E0,-7.072040081E0,-1.172148132E1,8.754299879E-1
4.560161042E0,-6.518679619E0,-1.126633644E1,9.472950101E-1
4.562659792E0,-5.615575790E0,-1.063871479E1,1.047906041E0
4.565129323E0,-4.676539898E0,-9.984743118E0,8.514750004E-1
4.567628073E0,-4.338774681E0,-9.474501610E0,1.831305027E-1
4.570126875E0,-4.214208603E0,-9.234951973E0,-5.522879958E-1
4.572625625E0,-4.516041279E0,-9.055289268E0,-8.229795098E-1
4.575124427E0,-4.856202602E0,-8.638472557E0,-6.552944779E-1
4.577623177E0,-4.446571827E0,-7.922217846E0,-6.385260224E-1
4.580121927E0,-4.357938290E0,-7.910240650E0,-2.078221560E0
4.582620729E0,-5.007119179E0,-8.322266579E0,-3.903592587E0
4.585119427E0,-5.452682018E0,-8.341430664E0,-4.981567383E0
4.587618229E0,-5.591620922E0,-8.171349525E0,-5.805619717E0
4.590117031E0,-5.474241734E0,-7.943777561E0,-6.452404499E0
4.592615781E0,-5.150848866E0,-7.764114857E0,-6.888385296E0
4.595118854E0,-4.693308353E0,-7.500609875E0,-7.460909843E0
4.597617604E0,-4.209417343E0,-7.268246651E0,-7.918450356E0
4.600116406E0,-3.651266098E0,-6.975995541E0,-8.189142227E0
4.602615156E0,-2.949384451E0,-6.743631840E0,-8.201119423E0
4.605113959E0,-2.190011024E0,-6.638229847E0,-7.980733395E0
4.607612709E0,-1.504897952E0,-6.631043434E0,-7.571103096E0
4.610111459E0,-9.347689748E-1,-6.650207520E0,-7.010556221E0
4.612610209E0,-3.574534953E-1,-6.748423100E0,-6.380539417E0
4.615108959E0,1.216465011E-1,-6.777169228E0,-5.628352642E0
4.617607709E0,4.857625067E-1,-6.805914879E0,-4.866583347E0
4.620106511E0,7.396854758E-1,-6.956831455E0,-4.203030109E0
4.622605313E0,9.720489979E-1,-7.146076202E0,-3.623318911E0
4.625094323E0,1.103801489E0,-7.285015106E0,-3.098704576E0
4.627593073E0,1.110988021E0,-7.476655006E0,-2.653141499E0
4.630091875E0,1.099010468E0,-7.594034672E0,-2.164459467E0
4.632590625E0,9.720489979E-1,-7.732973576E0,-1.738060474E0
4.635089427E0,8.115504980E-1,-7.704227448E0,-1.579957485E0
4.637588177E0,7.013574839E-1,-7.816815853E0,-1.412272453E0
4.640086927E0,5.192995071E-1,-7.979710102E0,-1.354780555E0
4.642585677E0,5.839779973E-1,-7.979710102E0,-1.143976450E0
4.645084479E0,7.660359740E-1,-7.893472195E0,-9.643139839E-1
4.647583229E0,9.480940104E-1,-7.788070202E0,-8.277704716E-1
4.650082031E0,1.079846501E0,-7.685063362E0,-7.894424796E-1
4.652580781E0,1.175666451E0,-7.629967213E0,-8.948444724E-1
4.655115261E0,1.300232530E0,-7.620385170E0,-1.002642035E0
4.657614011E0,1.321792006E0,-7.570079327E0,-1.251773953E0
4.660112761E0,1.180457473E0,-7.562892914E0,-1.417063475E0
4.662611563E0,1.024749994E0,-7.668294907E0,-1.644636035E0
4.665110261E0,8.642514944E-1,-7.673086166E0,-1.781179547E0
4.667609063E0,6.510519981E-1,-7.778488159E0,-1.956050992E0
4.670107813E0,4.522255063E-1,-7.867121696E0,-1.999169946E0
4.672606563E0,3.204729855E-1,-7.862330437E0,-1.977610469E0
4.675105365E0,1.024824977E-1,-7.871912479E0,-1.994379044E0
4.677604115E0,-1.466494948E-1,-7.886285305E0,-1.977610469E0
4.680102917E0,-4.293184876E-1,-7.871912479E0,-1.905745506E0
4.682601719E0,-5.466979742E-1,-7.886285305E0,-1.910536528E0
4.685065990E0,-4.892059863E-1,-7.948568344E0,-1.869812965E0
4.687564740E0,-4.532735050E-1,-7.946173191E0,-1.841066957E0
4.690063542E0,-2.831929922E-1,-7.946173191E0,-1.752433538E0
4.692562292E0,-3.311029971E-1,-8.030015945E0,-1.642240524E0
4.695061094E0,-5.395115018E-1,-8.058761597E0,-1.807530046E0
4.697559792E0,-8.581129909E-1,-8.025224686E0,-1.809925556E0
4.700058594E0,-1.250975013E0,-8.173745155E0,-1.848253489E0
4.702557344E0,-1.636650443E0,-8.288729668E0,-1.900954485E0
4.705056146E0,-1.940878987E0,-8.398922920E0,-1.912932038E0
4.707554896E0,-2.235525608E0,-8.442041397E0,-1.848253489E0
4.710053698E0,-2.470284462E0,-8.487556458E0,-1.793156981E0
4.712552448E0,-2.645155907E0,-8.444437027E0,-1.764410973E0
4.715056979E0,-2.769721985E0,-8.427668571E0,-1.706918955E0
4.717555729E0,-2.906265497E0,-8.341430664E0,-1.620681047E0
4.720054531E0,-2.906265497E0,-8.250401497E0,-1.486533046E0
4.722553281E0,-2.899079084E0,-8.140208244E0,-1.445809484E0
4.725052031E0,-2.788886070E0,-8.008456230E0,-1.347594023E0
4.727550834E0,-2.642760515E0,-7.838375568E0,-1.321243525E0
4.730049584E0,-2.482261896E0,-7.747346401E0,-1.338011980E0
4.732548386E0,-2.314577103E0,-7.723391533E0,-1.385921955E0
4.735047136E0,-2.180428982E0,-7.680272579E0,-1.484137535E0
4.737545886E0,-2.096586466E0,-7.651526451E0,-1.544024944E0
4.740044688E0,-2.065444946E0,-7.603616714E0,-1.630262971E0
4.742543438E0,-1.931296945E0,-7.586847782E0,-1.620681047E0
4.745039167E0,-1.871409535E0,-7.519773960E0,-1.632658482E0
4.747537917E0,-1.900155544E0,-7.529356003E0,-1.752433538E0
4.750036667E0,-1.873805046E0,-7.514983177E0,-1.805134535E0
4.752535417E0,-1.936087966E0,-7.479050636E0,-1.862626553E0
4.755034219E0,-1.948065519E0,-7.457490921E0,-2.025520563E0
4.757532969E0,-1.938483477E0,-7.342506886E0,-2.241115570E0
4.760031771E0,-1.909737468E0,-7.273037434E0,-2.372868061E0
4.762530521E0,-1.945670009E0,-7.196381569E0,-2.523784399E0
4.765029323E0,-1.837872505E0,-7.047860622E0,-2.717819929E0
4.767528073E0,-1.718097448E0,-6.894548416E0,-2.945392609E0
4.770026875E0,-1.653419018E0,-6.743631840E0,-3.098704576E0
4.772525625E0,-1.550412536E0,-6.616670609E0,-3.450843096E0
4.775015209E0,-1.468965530E0,-6.487313271E0,-3.817354441E0
4.777513959E0,-1.428241968E0,-6.338792324E0,-4.164701939E0
4.780012761E0,-1.346794963E0,-6.240577221E0,-4.605473995E0
4.782511511E0,-1.344399452E0,-6.111219883E0,-5.103737831E0
4.785010261E0,-1.337213039E0,-6.008213520E0,-5.515764236E0
4.787509011E0,-1.274930000E0,-5.936348438E0,-5.930185318E0
4.790007813E0,-1.234206557E0,-5.838132858E0,-6.368562222E0
4.792506563E0,-1.246183991E0,-5.787827492E0,-6.780588150E0
4.795005365E0,-1.339608550E0,-5.864483356E0,-7.075234413E0
4.797504115E0,-1.490525007E0,-5.878856659E0,-7.309993267E0
4.800002917E0,-1.653419018E0,-5.876461029E0,-7.410604477E0
4.802501667E0,-1.775589466E0,-5.917184353E0,-7.475283146E0
4.805006094E0,-1.912132978E0,-5.929162025E0,-7.628594875E0
4.807504844E0,-2.046281099E0,-5.953116894E0,-7.595057964E0
4.810003646E0,-2.173242569E0,-5.996235847E0,-7.650154591E0
4.812502396E0,-2.472680092E0,-5.981863022E0,-7.640572548E0
4.815001146E0,-2.750557899E0,-6.020191193E0,-7.585475922E0
4.817499948E0,-3.026040554E0,-6.092055798E0,-7.518402100E0
4.819998646E0,-3.330269098E0,-6.175898552E0,-7.465701103E0
4.822497448E0,-3.615333557E0,-6.240577221E0,-7.317180157E0
4.824996198E0,-3.878838539E0,-6.367538452E0,-7.161472321E0
4.827495000E0,-4.171089649E0,-6.439403534E0,-6.979414463E0
4.829993802E0,-4.494482040E0,-6.556783199E0,-6.742259979E0
4.832492552E0,-4.863389015E0,-6.810706139E0,-6.679976940E0
4.834983281E0,-5.225109577E0,-6.913712502E0,-6.509896278E0
4.837482031E0,-5.498196602E0,-7.052651405E0,-6.390121460E0
4.839980834E0,-5.768887997E0,-7.306574345E0,-6.217645645E0
4.842479584E0,-6.063534737E0,-7.514983177E0,-5.987677574E0
4.844978386E0,-6.406091213E0,-7.737764359E0,-5.922998905E0
4.847477084E0,-6.506701946E0,-7.900658607E0,-5.743336678E0
4.849975886E0,-6.590544701E0,-8.085111618E0,-5.506182194E0
4.852474688E0,-6.679178238E0,-8.233633041E0,-5.395988941E0
4.854973438E0,-6.772602558E0,-8.327057838E0,-5.204349041E0
4.857472188E0,-6.878004551E0,-8.427668571E0,-4.943239689E0
4.859970990E0,-6.614499569E0,-8.487556458E0,-4.861792564E0
4.862469740E0,-6.106653690E0,-8.576189041E0,-5.036664009E0
4.864975000E0,-6.020415306E0,-8.676800728E0,-5.101342678E0
4.867473750E0,-6.056347847E0,-8.863649368E0,-5.139670372E0
4.869972552E0,-5.917408943E0,-8.940305710E0,-5.146856785E0
4.872471250E0,-5.711396217E0,-8.976238251E0,-5.146856785E0
4.874970052E0,-5.519755840E0,-9.026543617E0,-5.091760635E0
4.877468854E0,-5.270624161E0,-8.997797966E0,-5.127693176E0
4.879967604E0,-5.040656090E0,-8.940305710E0,-5.175602913E0
4.882466406E0,-4.832247734E0,-8.849276543E0,-5.156438828E0
4.884965156E0,-4.666957855E0,-8.791784286E0,-5.163625717E0
4.887463906E0,-4.398662090E0,-8.751061440E0,-5.122901917E0
4.889962709E0,-4.207022190E0,-8.657636642E0,-5.199557781E0
4.892461459E0,-3.943516970E0,-8.588167191E0,-5.273818493E0
4.894951459E0,-3.701571465E0,-8.489951134E0,-5.381616116E0
4.897450209E0,-3.550654888E0,-8.430064201E0,-5.345683575E0
4.899948959E0,-3.385365486E0,-8.348616600E0,-5.422339439E0
4.902447761E0,-3.150606394E0,-8.307893753E0,-5.472644806E0
4.904946563E0,-2.956571102E0,-8.233633041E0,-5.429525852E0
4.907445313E0,-2.760139942E0,-8.190513611E0,-5.515764236E0
4.909944063E0,-2.618805408E0,-8.159372330E0,-5.546905518E0
4.912442865E0,-2.482261896E0,-8.077925682E0,-5.602002144E0
4.914941615E0,-2.386441946E0,-8.039597511E0,-5.613979340E0
4.917440365E0,-2.408001423E0,-8.044388771E0,-5.594815731E0
4.919939115E0,-2.384046555E0,-8.070738792E0,-5.590024471E0
4.922437917E0,-2.441538572E0,-8.149790764E0,-5.515764236E0
4.924997865E0,-2.673902035E0,-8.274356842E0,-5.417548656E0
4.927496667E0,-2.865541935E0,-8.501929283E0,-5.372034073E0
4.929995417E0,-2.990108013E0,-8.767829895E0,-5.302564621E0
4.932494219E0,-3.186538935E0,-9.081640244E0,-5.170812130E0
4.934992969E0,-3.375783443E0,-9.426591873E0,-5.101342678E0
4.937491771E0,-3.399738550E0,-9.819454193E0,-4.892933846E0
4.939990521E0,-3.553050518E0,-1.019794273E1,-4.797113895E0
4.942489323E0,-3.682407618E0,-1.068422985E1,-4.701293945E0
4.944988073E0,-3.665638924E0,-1.123998547E1,-4.588705540E0
4.947486823E0,-3.814160109E0,-1.161607933E1,-4.619846821E0
4.949985625E0,-3.960285425E0,-1.193707561E1,-4.552772999E0
4.952484375E0,-4.072874069E0,-1.229400539E1,-4.591101170E0
4.954906823E0,-4.209417343E0,-1.250241375E1,-4.737226486E0
4.957405573E0,-4.290864468E0,-1.268207645E1,-4.811487198E0
4.959904375E0,-4.410639286E0,-1.278747845E1,-5.082178593E0
4.962403073E0,-4.484899998E0,-1.282101536E1,-5.369638443E0
4.964901875E0,-4.484899998E0,-1.275154591E1,-5.551696301E0
4.967400625E0,-4.518436909E0,-1.272519588E1,-5.719381332E0
4.969899427E0,-4.487295628E0,-1.272519588E1,-5.913416862E0
4.972398177E0,-4.465735912E0,-1.279226971E1,-5.987677574E0
4.974896927E0,-4.398662090E0,-1.278268719E1,-5.982886314E0
4.977395729E0,-4.185462475E0,-1.275154591E1,-5.853529453E0
4.979894479E0,-3.969867468E0,-1.277550125E1,-5.693030834E0
4.982393281E0,-3.713548899E0,-1.273717308E1,-5.472644806E0
4.984924688E0,-3.430880070E0,-1.268207645E1,-5.235490322E0
4.987423490E0,-3.136233568E0,-1.265572643E1,-4.969590187E0
4.989922240E0,-2.863146544E0,-1.255751038E1,-4.818673611E0
4.992421042E0,-2.635574102E0,-1.241378021E1,-4.763576984E0
4.994919792E0,-2.448724985E0,-1.220058060E1,-4.727644444E0
4.997418542E0,-2.146892071E0,-1.193228531E1,-4.775554657E0
4.999917344E0,-1.873805046E0,-1.160889244E1,-4.818673611E0
5.002416042E0,-1.655814528E0,-1.120644855E1,-4.852210522E0
5.004914844E0,-1.495316029E0,-1.083754158E1,-4.799509525E0
5.007413594E0,-1.332422018E0,-1.049738026E1,-4.672547817E0
5.009912344E0,-1.162341475E0,-1.015003300E1,-4.284477234E0
5.012411146E0,-9.683060050E-1,-9.845804214E0,-4.030553818E0
5.014857344E0,-8.245760202E-1,-9.551157951E0,-3.774235487E0
5.017356094E0,-7.479199767E-1,-9.361913681E0,-3.458029509E0
5.019854896E0,-7.694795132E-1,-9.124758720E0,-3.196919918E0
5.022353698E0,-8.868589997E-1,-8.973842621E0,-2.952579021E0
5.024852448E0,-1.004238486E0,-8.875626564E0,-2.665118933E0
5.027351250E0,-1.143177509E0,-8.736687660E0,-2.459105968E0
5.029850000E0,-1.298884988E0,-8.662427902E0,-2.423173428E0
5.032348750E0,-1.435428500E0,-8.693569183E0,-2.269861460E0
5.034847552E0,-1.567180991E0,-8.645659447E0,-2.281838894E0
5.037346302E0,-1.552808046E0,-8.554630280E0,-2.231533527E0
5.039845052E0,-1.512084484E0,-8.504324913E0,-2.243510962E0
5.042343854E0,-1.430637479E0,-8.463601112E0,-2.212369442E0
5.044853594E0,-1.301280499E0,-8.480369568E0,-2.133317947E0
5.047352396E0,-1.128804445E0,-8.427668571E0,-2.042289019E0
5.049851146E0,-1.052148461E0,-8.346221924E0,-1.929700494E0
5.052349896E0,-9.467465281E-1,-8.305498123E0,-1.797948003E0
5.054848698E0,-8.221805096E-1,-8.410900116E0,-1.644636035E0
5.057347448E0,-6.544954777E-1,-8.465996742E0,-1.476951003E0
5.059846250E0,-4.772284925E-1,-8.480369568E0,-1.314056993E0
5.062345000E0,-4.317139983E-1,-8.384549141E0,-1.098461986E0
5.064843802E0,-4.844149947E-1,-8.336639404E0,-9.906644821E-1
5.067342552E0,-6.161674857E-1,-8.288729668E0,-1.096066475E0
5.069841302E0,-8.413444757E-1,-8.250401497E0,-1.254169464E0
5.072340104E0,-1.004238486E0,-8.197700500E0,-1.333220959E0
5.074861979E0,-1.174319029E0,-8.104275703E0,-1.438622952E0
5.077360729E0,-1.200669527E0,-8.049179077E0,-1.527256489E0
5.079859479E0,-1.425846457E0,-8.085111618E0,-1.565584540E0
5.082358281E0,-1.665396452E0,-8.192909241E0,-1.687754989E0
