"Time (s)","Acceleration x (m/s^2)","Acceleration y (m/s^2)","Acceleration z (m/s^2)"
0.000000000E0,-1.364736676E0,4.185192585E0,8.449396133E0
2.069000000E-3,-1.364736676E0,4.185192585E0,8.449396133E0
4.069000000E-3,-1.364736676E0,4.185192585E0,8.449396133E0
6.065333000E-3,-1.364736676E0,4.185192585E0,8.449396133E0
8.061333000E-3,-1.280937076E0,4.163643837E0,8.537983894E0
1.005813300E-2,-1.240234375E0,4.113364220E0,8.590658188E0
1.205563300E-2,-1.204320192E0,4.106181145E0,8.616994858E0
1.405349000E-2,-1.175588965E0,4.103786945E0,8.648120880E0
1.605161500E-2,-1.166011810E0,4.079844475E0,8.672063828E0
1.804994800E-2,-1.209108829E0,4.041535854E0,8.779806137E0
2.004844800E-2,-1.254600048E0,4.055901527E0,8.856422424E0
2.204708400E-2,-1.307274103E0,4.031958580E0,8.865999222E0
2.404583400E-2,-1.501210332E0,3.967313290E0,8.818114281E0
2.604468000E-2,-1.568249941E0,3.972101927E0,8.660092354E0
2.804353700E-2,-1.558672905E0,3.979284763E0,8.569109917E0
3.004247000E-2,-1.534730196E0,4.015198708E0,8.451789856E0
3.204147000E-2,-1.494027495E0,4.091815472E0,8.423058510E0
3.404052800E-2,-1.453324795E0,4.110970020E0,8.411087036E0
3.603963900E-2,-1.400650740E0,4.163643837E0,8.387145042E0
3.803879600E-2,-1.386285067E0,4.189980984E0,8.384750366E0
4.003799600E-2,-1.352765322E0,4.189980984E0,8.399115562E0
4.203723400E-2,-1.331216812E0,4.175615311E0,8.411087036E0
4.403655200E-2,-1.333611012E0,4.168432236E0,8.418270111E0
4.603589900E-2,-1.355159521E0,4.130124092E0,8.458972931E0
4.803527400E-2,-1.379102230E0,4.101392746E0,8.497281075E0
5.003467400E-2,-1.379102230E0,4.084632874E0,8.514040947E0
5.203409700E-2,-1.383890867E0,4.053507328E0,8.547560692E0
5.403354100E-2,-1.379102230E0,4.022381783E0,8.566715240E0
5.603300500E-2,-1.376708031E0,4.010410309E0,8.566715240E0
5.803248700E-2,-1.326428294E0,3.998438835E0,8.581081390E0
6.003195300E-2,-1.304879785E0,4.003227711E0,8.571503639E0
6.202911900E-2,-1.271359921E0,4.010410309E0,8.547560692E0
6.402858500E-2,-1.247417212E0,4.017592907E0,8.530800819E0
6.602841800E-2,-1.228263021E0,4.029564381E0,8.530800819E0
6.802841800E-2,-1.187560320E0,4.034353256E0,8.506858826E0
7.002841800E-2,-1.173194647E0,4.031958580E0,8.492492676E0
7.202838400E-2,-1.163617611E0,4.036747456E0,8.470944405E0
7.402835000E-2,-1.139674783E0,4.055901527E0,8.458972931E0
7.602831600E-2,-1.122914910E0,4.063084126E0,8.444606781E0
7.802828200E-2,-1.113337755E0,4.060689926E0,8.442213058E0
8.002824800E-2,-1.084606528E0,4.043930054E0,8.480521202E0
8.202821400E-2,-1.098972082E0,4.031958580E0,8.490098000E0
8.402818000E-2,-1.094183564E0,4.008016109E0,8.487704277E0
8.602814600E-2,-1.096577883E0,4.010410309E0,8.506858826E0
8.802814600E-2,-1.091789365E0,4.003227711E0,8.530800819E0
9.002814600E-2,-1.101366401E0,3.998438835E0,8.552350044E0
9.202814600E-2,-1.089395046E0,3.993650436E0,8.549955368E0
9.402814600E-2,-1.087000728E0,3.996044636E0,8.559532166E0
9.602814600E-2,-1.108549237E0,3.988861799E0,8.581081390E0
9.802814600E-2,-1.094183564E0,4.000833035E0,8.566715240E0
1.000281460E-1,-1.079817891E0,4.008016109E0,8.561926842E0
1.020281460E-1,-1.067846537E0,3.996044636E0,8.557138443E0
1.040281120E-1,-1.058269501E0,3.986467600E0,8.528407097E0
1.060281120E-1,-1.055875182E0,3.984073162E0,8.518829346E0
1.080281120E-1,-1.041509509E0,3.981678963E0,8.478127480E0
1.100281120E-1,-1.029538155E0,3.984073162E0,8.461367607E0
1.120281120E-1,-1.019961119E0,3.991255999E0,8.437424660E0
1.140281780E-1,-1.007989645E0,3.979284763E0,8.427846909E0
1.160281780E-1,-9.984126091E-1,3.976890564E0,8.430241585E0
1.180281780E-1,-9.648927450E-1,3.957736254E0,8.423058510E0
1.200282110E-1,-9.505270720E-1,3.945764780E0,8.401510239E0
1.220282110E-1,-9.529213905E-1,3.948159218E0,8.401510239E0
1.240282110E-1,-9.481328130E-1,3.957736254E0,8.425453186E0
1.260282110E-1,-9.265843630E-1,3.950553417E0,8.430241585E0
1.280282110E-1,-9.050358534E-1,3.948159218E0,8.423058510E0
1.300282110E-1,-8.595446348E-1,3.957736254E0,8.403904915E0
1.320282110E-1,-8.451790214E-1,3.962524891E0,8.403904915E0
1.340282110E-1,-8.212362528E-1,3.945764780E0,8.425453186E0
1.360282110E-1,-8.068706393E-1,3.940976381E0,8.432636261E0
1.380282110E-1,-8.068706393E-1,3.931399345E0,8.437424660E0
1.400282110E-1,-7.829278708E-1,3.924216509E0,8.444606781E0
1.420282110E-1,-7.709565163E-1,3.909850836E0,8.435029984E0
1.440282110E-1,-7.613793612E-1,3.912245035E0,8.442213058E0
1.460282110E-1,-7.110996246E-1,3.893090725E0,8.430241585E0
1.480282110E-1,-6.536370516E-1,3.890696526E0,8.437424660E0
1.500282110E-1,-6.344828010E-1,3.878725290E0,8.435029984E0
1.520282110E-1,-4.453351200E-1,3.725491524E0,8.602629662E0
1.540282440E-1,-3.136500120E-1,3.586623669E0,8.782199860E0
1.560282770E-1,-1.388679445E-1,3.500429869E0,8.834874153E0
1.580283100E-1,-7.182824612E-2,3.545921087E0,8.655303001E0
1.600283430E-1,-6.703969836E-2,3.589017868E0,8.561926842E0
1.620283760E-1,-9.337671846E-2,3.632114887E0,8.480521202E0
1.640284090E-1,-1.556278616E-1,3.656057596E0,8.492492676E0
1.660284090E-1,-1.939362586E-1,3.670423269E0,8.549955368E0
1.680283750E-1,-2.537931204E-1,3.708731651E0,8.712765694E0
1.700283410E-1,-3.136500120E-1,3.773377180E0,8.870788574E0
1.720283070E-1,-3.232271075E-1,3.806896925E0,8.952193260E0
1.740282070E-1,-3.136500120E-1,3.885908127E0,9.103033066E0
1.760281730E-1,-2.801301479E-1,3.929004908E0,9.148524284E0
1.780281390E-1,-1.819648892E-1,3.996044636E0,9.179649353E0
1.800281050E-1,-8.379961550E-2,4.041535854E0,9.189227104E0
1.820281050E-1,-3.830839694E-2,4.055901527E0,9.172467232E0
1.840281050E-1,0.000000000E0,4.053507328E0,9.146129608E0
1.860281050E-1,2.633702382E-2,4.034353256E0,9.126976013E0
1.880281050E-1,2.633702382E-2,4.005621910E0,9.103033066E0
1.900281050E-1,9.577099234E-3,3.948159218E0,9.043175697E0
1.920281050E-1,-5.267404765E-2,3.888302326E0,9.009655952E0
1.940281050E-1,-7.901106775E-2,3.873936653E0,8.985713005E0
1.960281050E-1,-1.604164094E-1,3.826051235E0,8.899519920E0
1.980281050E-1,-2.059076279E-1,3.804502726E0,8.873182297E0
2.000281380E-1,-2.705530524E-1,3.773377180E0,8.782199860E0
2.020281710E-1,-3.399870098E-1,3.778165579E0,8.681640625E0
2.040282040E-1,-3.806896806E-1,3.778165579E0,8.631361008E0
2.060282370E-1,-4.740664065E-1,3.804502726E0,8.530800819E0
2.080282700E-1,-5.554717779E-1,3.845205307E0,8.427846909E0
2.100283030E-1,-6.033572555E-1,3.869148016E0,8.387145042E0
2.120283360E-1,-6.799740195E-1,3.907456398E0,8.310527802E0
2.140283360E-1,-7.350423932E-1,3.960130453E0,8.257853508E0
2.160283020E-1,-7.518022656E-1,3.979284763E0,8.250671387E0
2.180282680E-1,-7.853221297E-1,4.012804508E0,8.231516838E0
2.200282340E-1,-8.044763207E-1,4.024775982E0,8.212362289E0
2.220282000E-1,-8.715160489E-1,4.034353256E0,8.214756966E0
2.240281660E-1,-8.763045669E-1,4.063084126E0,8.181237221E0
2.260281320E-1,-8.763045669E-1,4.075055599E0,8.171659470E0
2.280281320E-1,-8.786988258E-1,4.098998547E0,8.152505875E0
2.300281320E-1,-8.858816624E-1,4.094210148E0,8.133351326E0
2.320281320E-1,-8.834874034E-1,4.101392746E0,8.121379852E0
2.340281320E-1,-8.691217303E-1,4.122941017E0,8.095043182E0
2.360281320E-1,-8.834874034E-1,4.101392746E0,7.975329399E0
2.380281320E-1,-8.882759809E-1,4.091815472E0,7.910684109E0
2.400281320E-1,-9.050358534E-1,4.079844475E0,7.755055904E0
2.420281320E-1,-9.433442950E-1,4.079844475E0,7.695199013E0
2.440281320E-1,-9.529213905E-1,4.077449799E0,7.585062504E0
2.460281320E-1,-9.624984860E-1,4.101392746E0,7.537177086E0
2.480281320E-1,-9.505270720E-1,4.120546818E0,7.532388687E0
2.500281320E-1,-9.170072675E-1,4.154066563E0,7.568302631E0
2.520281320E-1,-8.571503758E-1,4.213923454E0,7.563514233E0
2.540281320E-1,-8.284190893E-1,4.242654800E0,7.541965485E0
2.560281320E-1,-7.757450342E-1,4.295329094E0,7.477320194E0
2.580281320E-1,-7.206767201E-1,4.338426113E0,7.436617374E0
2.600280980E-1,-7.015225291E-1,4.350397110E0,7.419857502E0
2.620280980E-1,-6.608198285E-1,4.381523132E0,7.360000610E0
2.640280980E-1,-6.009629965E-1,4.391099930E0,7.328875065E0
2.660280980E-1,-5.794144869E-1,4.395888329E0,7.312115192E0
2.680280980E-1,-5.626545548E-1,4.383917332E0,7.333663940E0
2.700280980E-1,-5.554717779E-1,4.376734257E0,7.343240738E0
2.720280980E-1,-5.411061049E-1,4.376734257E0,7.379155159E0
2.740280980E-1,-5.435003638E-1,4.348002911E0,7.429434776E0
2.760281310E-1,-5.339232683E-1,4.321666241E0,7.453377247E0
2.780281310E-1,-5.411061049E-1,4.280963421E0,7.496474266E0
2.800281310E-1,-5.315290093E-1,4.247443676E0,7.544359684E0
2.820281310E-1,-5.339232683E-1,4.228289127E0,7.568302631E0
2.840281310E-1,-5.554717779E-1,4.173221111E0,7.642525196E0
2.860281310E-1,-5.770202279E-1,4.151672363E0,7.697593689E0
2.880281310E-1,-5.842030644E-1,4.113364220E0,7.723930359E0
2.900281310E-1,-6.129343510E-1,4.070267200E0,7.776604652E0
2.920281310E-1,-6.225114465E-1,4.058295727E0,7.814912796E0
2.940281310E-1,-6.560313106E-1,4.015198708E0,7.913078308E0
2.960281310E-1,-6.967339516E-1,3.993650436E0,8.023215294E0
2.980281310E-1,-7.278595567E-1,3.979284763E0,8.085466385E0
3.000281310E-1,-8.140534163E-1,3.938581944E0,8.229122162E0
3.020281310E-1,-9.050358534E-1,3.914639235E0,8.389538765E0
3.040281310E-1,-9.744698405E-1,3.917033672E0,8.480521202E0
3.060281310E-1,-1.077423692E0,3.909850836E0,8.638543129E0
3.080281310E-1,-1.177983165E0,3.907456398E0,8.763046265E0
3.100281640E-1,-1.216291547E0,3.926610708E0,8.827691078E0
3.120281970E-1,-1.297696948E0,3.950553417E0,8.933039665E0
3.140282300E-1,-1.331216812E0,3.964919090E0,8.983319283E0
3.160282630E-1,-1.376708031E0,3.979284763E0,9.074301720E0
3.180282960E-1,-1.434170604E0,4.027170181E0,9.177255630E0
3.200283290E-1,-1.450930476E0,4.048718929E0,9.191620827E0
3.220283290E-1,-1.489238977E0,4.082238674E0,9.210775375E0
3.240282950E-1,-1.537124395E0,4.110970020E0,9.239506721E0
3.260282610E-1,-1.558672905E0,4.127729893E0,9.268238068E0
3.280282270E-1,-1.568249941E0,4.156461239E0,9.301757812E0
3.300281930E-1,-1.599375606E0,4.163643837E0,9.323306084E0
3.320281590E-1,-1.620923996E0,4.166038036E0,9.335277557E0
3.340281250E-1,-1.649655342E0,4.185192585E0,9.325700760E0
3.360280910E-1,-1.666415215E0,4.189980984E0,9.332882881E0
3.380280910E-1,-1.699935079E0,4.180403709E0,9.344854355E0
3.400280910E-1,-1.723877907E0,4.170826912E0,9.306546211E0
3.420280910E-1,-1.740637779E0,4.173221111E0,9.289786339E0
3.440280910E-1,-1.788523316E0,4.173221111E0,9.268238068E0
3.460280910E-1,-1.810071707E0,4.156461239E0,9.237112045E0
3.480280910E-1,-1.826831698E0,4.149278164E0,9.234718323E0
3.500280910E-1,-1.889082789E0,4.168432236E0,9.203592300E0
3.520280910E-1,-1.932179809E0,4.180403709E0,9.158101082E0
3.540280910E-1,-1.944151163E0,4.180403709E0,9.126976013E0
3.560281240E-1,-1.970488191E0,4.175615311E0,9.064723969E0
3.580281570E-1,-1.984853864E0,4.173221111E0,9.052753448E0
3.600281900E-1,-2.011190891E0,4.187586784E0,8.990502357E0
3.620282230E-1,-2.018373728E0,4.187586784E0,8.945011139E0
3.640282560E-1,-2.015979290E0,4.192375183E0,8.930644989E0
3.660282890E-1,-1.996825218E0,4.204346657E0,8.882759094E0
3.680283220E-1,-1.984853864E0,4.199557781E0,8.822902679E0
3.700283220E-1,-1.970488191E0,4.189980984E0,8.794171333E0
3.720282880E-1,-1.924996972E0,4.166038036E0,8.753468513E0
3.740282540E-1,-1.917814136E0,4.146883965E0,8.729525566E0
3.760282200E-1,-1.920208454E0,4.125335693E0,8.710371971E0
3.780281860E-1,-1.922602654E0,4.103786945E0,8.669669151E0
3.800281520E-1,-1.924996972E0,4.087027073E0,8.657697678E0
3.820281180E-1,-1.946545362E0,4.048718929E0,8.612206459E0
3.840281180E-1,-1.987248063E0,3.993650436E0,8.588263512E0
3.860281180E-1,-2.008796453E0,3.955342054E0,8.576292038E0
3.880281180E-1,-2.054287672E0,3.883513689E0,8.521224022E0
3.900281180E-1,-2.133298874E0,3.840416908E0,8.482915878E0
3.920281180E-1,-2.176395893E0,3.838022470E0,8.454184532E0
3.940281180E-1,-2.260195494E0,3.816473961E0,8.411087036E0
3.960281180E-1,-2.351177931E0,3.782954216E0,8.375173569E0
3.980281180E-1,-2.401457548E0,3.770982742E0,8.346442223E0
4.000281180E-1,-2.521171331E0,3.737462997E0,8.288979530E0
4.020281180E-1,-2.576239586E0,3.725491524E0,8.255459785E0
4.040281180E-1,-2.672010660E0,3.727885962E0,8.186025620E0
4.060281180E-1,-2.765387297E0,3.730280161E0,8.114197731E0
4.080281180E-1,-2.818061352E0,3.737462997E0,8.085466385E0
4.100281180E-1,-2.899466753E0,3.749434233E0,8.016032219E0
4.120281180E-1,-2.949746609E0,3.754222870E0,7.960963726E0
4.140281180E-1,-3.040729046E0,3.644086361E0,7.901106834E0
4.160280840E-1,-3.526766777E0,3.026363373E0,7.556331158E0
4.180280840E-1,-4.407859802E0,1.747820616E0,6.452570438E0
4.200280840E-1,-4.941783428E0,8.571503758E-1,5.382329941E0
4.220280840E-1,-6.193988800E0,-1.125309110E0,2.509200096E0
4.240280840E-1,-6.974522591E0,-1.862745762E0,1.192348838E0
4.260280840E-1,-6.838048935E0,-1.752609134E0,6.009629965E-1
4.280280840E-1,-5.384724140E0,4.668835998E-1,2.595393896E0
4.300280840E-1,-4.288146019E0,1.977671027E0,3.885908127E0
4.320281170E-1,-1.948939681E0,5.020794392E0,6.256239891E0
4.340281170E-1,-7.661679387E-2,7.417463303E0,8.116591454E0
4.360281170E-1,6.344828010E-1,8.308133125E0,8.844450951E0
4.380281170E-1,1.441353440E0,9.419076920E0,9.945817947E0
4.400281170E-1,1.391073704E0,9.581888199E0,1.055875206E1
4.420281170E-1,1.031932473E0,9.311334610E0,1.075029373E1
4.440281170E-1,-5.027977005E-2,8.236305237E0,1.100408745E1
4.460281170E-1,-1.307274103E0,7.573091030E0,1.107831001E1
4.480281170E-1,-1.901054144E0,6.237085819E0,1.103281784E1
4.500281170E-1,-2.954535007E0,5.035160065E0,1.078620815E1
4.520281170E-1,-3.409447432E0,4.498842239E0,1.057311726E1
4.540281170E-1,-4.154066563E0,3.612960577E0,1.003919411E1
4.560281170E-1,-4.735875607E0,2.944957972E0,9.483722687E0
4.580281170E-1,-4.972908974E0,2.698347807E0,9.217958450E0
4.600281170E-1,-5.399089813E0,2.341600657E0,8.722343445E0
4.620281170E-1,-5.705556870E0,2.133298874E0,8.367990494E0
4.640281170E-1,-5.815693378E0,2.087807655E0,8.255459785E0
4.660281500E-1,-5.937801361E0,2.061470509E0,8.111803055E0
4.680281830E-1,-5.973715782E0,2.075836182E0,8.114197731E0
4.700282160E-1,-5.954561234E0,2.138087511E0,8.145322800E0
4.720282490E-1,-5.909070015E0,2.212309837E0,8.265036583E0
4.740282820E-1,-5.952167034E0,2.171607256E0,8.320104599E0
4.760283150E-1,-6.136526108E0,1.948939681E0,8.341653824E0
4.780283150E-1,-6.419050694E0,1.498816013E0,8.346442223E0
4.800283150E-1,-6.560312748E0,1.182771802E0,8.399115562E0
4.820282810E-1,-6.809317589E0,3.711125851E-1,8.640937805E0
4.840282470E-1,-6.909877300E0,-5.530774593E-1,9.112609863E0
4.860282470E-1,-6.871568680E0,-9.313728809E-1,9.289786339E0
4.880282130E-1,-6.560312748E0,-1.235445857E0,9.225140572E0
4.900281790E-1,-5.798933506E0,-6.871568561E-1,8.387145042E0
4.920281450E-1,-5.279376030E0,-8.140534163E-2,7.767027378E0
4.940281450E-1,-4.060689926E0,1.556278586E0,6.562707424E0
4.960281450E-1,-3.466909885E0,2.413429022E0,6.114977837E0
4.980281450E-1,-2.525959969E0,3.893090725E0,5.796539307E0
5.000281450E-1,-2.114144564E0,4.810098171E0,6.205960274E0
5.020281450E-1,-2.111750364E0,5.047131062E0,6.596227169E0
5.040281450E-1,-2.389486313E0,5.209941864E0,7.522811413E0
5.060281450E-1,-2.875524044E0,5.150084972E0,8.356019020E0
5.080281450E-1,-3.107768774E0,5.147690773E0,8.712765694E0
5.100281450E-1,-3.359167576E0,5.406272411E0,9.443019867E0
5.120281780E-1,-3.167625666E0,6.153286457E0,1.033368969E1
5.140282110E-1,-2.964112282E0,6.617775440E0,1.070959091E1
5.160282440E-1,-2.930592299E0,6.986494064E0,1.078860188E1
5.180282770E-1,-3.050306082E0,6.984099388E0,1.063536835E1
5.200283100E-1,-3.141288519E0,6.996070862E0,1.039594078E1
5.220283430E-1,-3.193962574E0,6.878751755E0,1.013975334E1
5.240283760E-1,-3.282550812E0,6.715940952E0,9.976943016E0
5.260283760E-1,-3.502824068E0,6.292154312E0,9.639349937E0
5.280283420E-1,-3.766194344E0,5.810904980E0,9.337671280E0
5.300283080E-1,-3.912245035E0,5.547534943E0,9.174860954E0
5.320282740E-1,-4.120546818E0,5.083045483E0,8.899519920E0
5.340282400E-1,-4.561093330E0,4.465322495E0,8.559532166E0
5.360282060E-1,-4.798126698E0,4.173221111E0,8.389538765E0
5.380281720E-1,-5.197970390E0,3.656057596E0,8.107014656E0
5.400281380E-1,-5.490072250E0,3.294522047E0,7.884346962E0
5.420281380E-1,-5.619362831E0,3.148471355E0,7.774210453E0
5.440281380E-1,-5.834847927E0,2.885101080E0,7.527599812E0
5.460281040E-1,-5.940196037E0,2.774964571E0,7.410280704E0
5.480281040E-1,-6.103006363E0,2.612153769E0,7.197190285E0
5.500281040E-1,-6.213143349E0,2.518777132E0,7.029590607E0
5.520281040E-1,-6.249057293E0,2.497228622E0,6.957762718E0
5.540281040E-1,-6.304125786E0,2.490045786E0,6.878751755E0
5.560281040E-1,-6.325674057E0,2.540325642E0,6.850020409E0
5.580281040E-1,-6.296942711E0,2.588211060E0,6.861991405E0
5.600281040E-1,-6.210748672E0,2.724684715E0,6.881145954E0
5.620281040E-1,-6.162863255E0,2.803695917E0,6.888328552E0
5.640286700E-1,-6.035966873E0,2.985660791E0,6.945791245E0
5.660286700E-1,-5.889915943E0,3.213116884E0,7.005648136E0
5.680286700E-1,-5.806116581E0,3.332830429E0,7.034379482E0
5.700286700E-1,-5.640911579E0,3.569863796E0,7.082264900E0
5.720286360E-1,-5.480494976E0,3.806896925E0,7.125361919E0
5.740286360E-1,-5.396695614E0,3.919427872E0,7.149304390E0
5.760286360E-1,-5.245856285E0,4.158855438E0,7.166064739E0
5.780286360E-1,-5.116565228E0,4.371945858E0,7.180429935E0
5.800286360E-1,-5.047131062E0,4.465322495E0,7.187613010E0
5.820286360E-1,-4.915446281E0,4.630527496E0,7.185218811E0
5.840286360E-1,-4.857983589E0,4.692778587E0,7.175641537E0
5.860286360E-1,-4.747847080E0,4.786155224E0,7.163670063E0
5.880286690E-1,-4.666441441E0,4.846012115E0,7.154093266E0
5.900286690E-1,-4.635315895E0,4.862771988E0,7.146910191E0
5.920286690E-1,-4.601796150E0,4.850800991E0,7.149304390E0
5.940286690E-1,-4.606584549E0,4.810098171E0,7.180429935E0
5.960286690E-1,-4.637710094E0,4.788549423E0,7.178035736E0
5.980286690E-1,-4.726298332E0,4.697566986E0,7.218738556E0
6.000286690E-1,-4.848406315E0,4.592218876E0,7.237892628E0
6.020286690E-1,-4.915446281E0,4.544333458E0,7.252258301E0
6.040286690E-1,-5.066285610E0,4.460534096E0,7.259441376E0
6.060286690E-1,-5.236279011E0,4.412648678E0,7.257047176E0
6.080286690E-1,-5.372752666E0,4.324060440E0,7.261835575E0
6.100286690E-1,-5.803721905E0,4.218712330E0,7.278595448E0
6.120286690E-1,-6.095823765E0,4.151672363E0,7.321692467E0
6.140286690E-1,-6.811711788E0,3.996044636E0,7.453377247E0
6.160286690E-1,-7.829278469E0,3.823656797E0,7.640130997E0
6.180286690E-1,-8.391933441E0,3.766194344E0,7.738296032E0
6.200286690E-1,-9.454991341E0,3.742251635E0,8.006455421E0
6.220287020E-1,-9.921875000E0,3.967313290E0,8.157294273E0
6.240281680E-1,-9.833286285E0,4.168432236E0,8.102226257E0
6.260282010E-1,-9.251478195E0,4.630527496E0,7.798152924E0
6.280282340E-1,-8.652909279E0,4.869955063E0,7.460560322E0
6.300282670E-1,-8.401510239E0,5.279376030E0,7.328875065E0
6.320283000E-1,-7.932232380E0,5.626545906E0,7.199584484E0
6.340283000E-1,-7.680833817E0,5.774991035E0,7.180429935E0
6.360283000E-1,-7.142121792E0,6.009629726E0,7.221132755E0
6.380282660E-1,-6.601015568E0,6.114977837E0,7.319298267E0
6.400282320E-1,-6.349617004E0,6.110189438E0,7.386337757E0
6.420281980E-1,-5.904281616E0,6.040755272E0,7.577879906E0
6.440281640E-1,-5.581054688E0,5.885127544E0,7.776604652E0
6.460281300E-1,-5.446975231E0,5.779779434E0,7.867587090E0
6.480280960E-1,-5.269798756E0,5.516408920E0,8.030397415E0
6.500280960E-1,-5.116565228E0,5.384724140E0,8.107014656E0
6.520280960E-1,-5.032765865E0,5.135719299E0,8.114197731E0
6.540280960E-1,-4.865166187E0,4.891503334E0,8.073494911E0
6.560280960E-1,-4.778972626E0,4.771789551E0,8.025609016E0
6.580280960E-1,-4.632921696E0,4.575459003E0,7.865192890E0
6.600280960E-1,-4.503631115E0,4.407859802E0,7.680833817E0
6.620280960E-1,-4.438985348E0,4.343214512E0,7.589851379E0
6.640280960E-1,-4.352791786E0,4.209135056E0,7.429434776E0
6.660280960E-1,-4.283357620E0,4.103786945E0,7.331269264E0
6.680281290E-1,-4.249837875E0,4.065478802E0,7.292961121E0
6.700281620E-1,-4.182797909E0,4.010410309E0,7.221132755E0
6.720281950E-1,-4.187586784E0,3.976890564E0,7.175641537E0
6.740282280E-1,-4.197163582E0,3.962524891E0,7.161275864E0
6.760282610E-1,-4.213923454E0,3.931399345E0,7.178035736E0
6.780282940E-1,-4.233078003E0,3.926610708E0,7.206767082E0
6.800283270E-1,-4.276175022E0,3.948159218E0,7.285778046E0
6.820283270E-1,-4.316877365E0,3.988861799E0,7.355212212E0
6.840282930E-1,-4.345608711E0,4.019987583E0,7.393520832E0
6.860282590E-1,-4.400677204E0,4.106181145E0,7.484503269E0
6.880282250E-1,-4.391099930E0,4.173221111E0,7.561120033E0
6.900281910E-1,-4.410254002E0,4.225894928E0,7.582668304E0
6.920281570E-1,-4.422225475E0,4.328848839E0,7.613793850E0
6.940281230E-1,-4.410254002E0,4.453351021E0,7.666468143E0
6.960280890E-1,-4.412648678E0,4.496448040E0,7.690410614E0
6.980280890E-1,-4.424619675E0,4.606584549E0,7.745479107E0
7.000280890E-1,-4.431802750E0,4.642498970E0,7.776604652E0
7.020280890E-1,-4.448562622E0,4.716721535E0,7.807730198E0
7.040280890E-1,-4.489265442E0,4.778972626E0,7.826884270E0
7.060280890E-1,-4.508419514E0,4.800520897E0,7.848433018E0
7.080280890E-1,-4.532361984E0,4.826858044E0,7.915472507E0
7.100281890E-1,-4.585036278E0,4.848406315E0,7.948992252E0
7.120281890E-1,-4.608979225E0,4.841223717E0,7.965752125E0
7.140281890E-1,-4.635315895E0,4.824463844E0,7.980117798E0
7.160281890E-1,-4.676018715E0,4.822069645E0,7.972935200E0
7.180281890E-1,-4.690384388E0,4.831646442E0,7.970541000E0
7.200281890E-1,-4.735875607E0,4.795732498E0,7.944203854E0
7.220281890E-1,-4.757423878E0,4.776578426E0,7.915472507E0
7.240281890E-1,-4.802915096E0,4.743058205E0,7.843644142E0
7.260281890E-1,-4.857983589E0,4.716721535E0,7.802941799E0
7.280281550E-1,-4.889109135E0,4.704750061E0,7.769421577E0
7.300281210E-1,-4.944177628E0,4.661653042E0,7.695199013E0
7.320281210E-1,-4.982485771E0,4.630527496E0,7.613793850E0
7.340281210E-1,-4.989668846E0,4.613767624E0,7.582668304E0
7.360281210E-1,-5.016005516E0,4.577853203E0,7.518023014E0
7.380281210E-1,-5.056708336E0,4.539545059E0,7.474925995E0
7.400281210E-1,-5.063891411E0,4.529967785E0,7.434223175E0
7.420281210E-1,-5.066285610E0,4.510813713E0,7.355212212E0
7.440281540E-1,-5.073468208E0,4.501236439E0,7.324086666E0
7.460281540E-1,-5.083045483E0,4.460534096E0,7.278595448E0
7.480281540E-1,-5.071074009E0,4.453351021E0,7.199584484E0
7.500281540E-1,-5.063891411E0,4.453351021E0,7.175641537E0
7.520281540E-1,-5.061496735E0,4.417437077E0,7.096630573E0
7.540281540E-1,-5.035160065E0,4.371945858E0,7.034379482E0
7.560281540E-1,-5.025582790E0,4.345608711E0,7.020013809E0
7.580281540E-1,-4.999245644E0,4.321666241E0,6.998465061E0
7.600281540E-1,-4.972908974E0,4.295329094E0,6.984099388E0
7.620281540E-1,-4.975303173E0,4.292934895E0,6.991282463E0
7.640281540E-1,-4.984879971E0,4.257020473E0,7.005648136E0
7.660281540E-1,-4.968120098E0,4.245049000E0,7.003253937E0
7.680281540E-1,-4.968120098E0,4.225894928E0,7.012830734E0
7.700280540E-1,-4.941783428E0,4.189980984E0,7.017619610E0
7.720280540E-1,-4.922628880E0,4.182797909E0,7.024802208E0
7.740280540E-1,-4.879531860E0,4.166038036E0,7.024802208E0
7.760280540E-1,-4.826858044E0,4.146883965E0,7.017619610E0
7.780280870E-1,-4.795732498E0,4.130124092E0,7.024802208E0
7.800281200E-1,-4.755029678E0,4.106181145E0,7.046350956E0
7.820281530E-1,-4.743058205E0,4.063084126E0,7.079870701E0
7.840281860E-1,-4.733481407E0,4.036747456E0,7.091842175E0
7.860282190E-1,-4.716721535E0,3.976890564E0,7.151699066E0
7.880282520E-1,-4.690384388E0,3.952947617E0,7.216344357E0
7.900282850E-1,-4.695172787E0,3.931399345E0,7.228315830E0
7.920282850E-1,-4.678412914E0,3.909850836E0,7.199584484E0
7.940282510E-1,-4.654470444E0,3.905062199E0,7.178035736E0
7.960282170E-1,-4.594613552E0,3.917033672E0,7.096630573E0
7.980281830E-1,-4.546727657E0,3.945764780E0,6.962551117E0
8.000281490E-1,-4.520390987E0,3.967313290E0,6.885934353E0
8.020281150E-1,-4.472505569E0,4.019987583E0,6.730306625E0
8.040280810E-1,-4.393494129E0,4.098998547E0,6.545947552E0
8.060280810E-1,-4.362368584E0,4.137306690E0,6.466936111E0
8.080280810E-1,-4.324060440E0,4.201952457E0,6.318490982E0
8.100280810E-1,-4.292934895E0,4.242654800E0,6.217931747E0
8.120280810E-1,-4.285751820E0,4.283357620E0,6.189200401E0
8.140280810E-1,-4.292934895E0,4.278569221E0,6.184412003E0
8.160280810E-1,-4.319271564E0,4.290540695E0,6.198777676E0
8.180280810E-1,-4.393494129E0,4.292934895E0,6.277788639E0
8.200280810E-1,-4.458139896E0,4.261809349E0,6.395108223E0
8.220280810E-1,-4.496448040E0,4.245049000E0,6.450176239E0
8.240281140E-1,-4.556304932E0,4.173221111E0,6.634535313E0
8.260281470E-1,-4.582642078E0,4.108575344E0,6.802134514E0
8.280281800E-1,-4.585036278E0,4.082238674E0,6.888328552E0
8.300282130E-1,-4.573064804E0,4.027170181E0,7.058321953E0
8.320282460E-1,-4.517996788E0,3.986467600E0,7.230710030E0
8.340282790E-1,-4.486870766E0,3.979284763E0,7.307326794E0
8.360283120E-1,-4.388705730E0,3.969707727E0,7.498868465E0
8.380283120E-1,-4.338426113E0,3.969707727E0,7.604216576E0
8.400282780E-1,-4.252232075E0,3.957736254E0,7.795758724E0
8.420282440E-1,-4.192375183E0,3.976890564E0,7.989695072E0
8.440282100E-1,-4.163643837E0,3.974496126E0,8.071100235E0
8.460281760E-1,-4.115758419E0,3.957736254E0,8.190814018E0
8.480281420E-1,-4.065478802E0,3.943370581E0,8.298556328E0
8.500281080E-1,-4.053507328E0,3.924216509E0,8.346442223E0
8.520280740E-1,-4.017592907E0,3.883513689E0,8.408693314E0
8.540280740E-1,-3.979284763E0,3.852388144E0,8.413481712E0
8.560280740E-1,-3.948159218E0,3.833234072E0,8.413481712E0
8.580280740E-1,-3.900273561E0,3.816473961E0,8.370385170E0
8.600280740E-1,-3.878725290E0,3.797319889E0,8.327287674E0
8.620280740E-1,-3.835628271E0,3.787742853E0,8.202785492E0
8.640280740E-1,-3.780560017E0,3.804502726E0,8.073494911E0
8.660280740E-1,-3.761405706E0,3.804502726E0,7.982511997E0
8.680280740E-1,-3.749434233E0,3.814079762E0,7.783787251E0
8.700280740E-1,-3.778165579E0,3.835628271E0,7.580274105E0
8.720280740E-1,-3.799714088E0,3.830839634E0,7.479714394E0
8.740280740E-1,-3.833234072E0,3.814079762E0,7.319298267E0
8.760280740E-1,-3.893090725E0,3.782954216E0,7.166064739E0
8.780280740E-1,-3.909850836E0,3.766194344E0,7.091842175E0
8.800280740E-1,-3.972101927E0,3.708731651E0,7.020013809E0
8.820280740E-1,-3.986467600E0,3.689577579E0,7.005648136E0
8.840280400E-1,-4.010410309E0,3.665634632E0,6.998465061E0
8.860280060E-1,-4.043930054E0,3.620143414E0,7.005648136E0
8.880280060E-1,-4.048718929E0,3.600989342E0,7.031985283E0
8.900280060E-1,-4.048718929E0,3.548315287E0,7.154093266E0
8.920280060E-1,-4.063084126E0,3.490852594E0,7.324086666E0
8.940280060E-1,-4.070267200E0,3.466909885E0,7.410280704E0
8.960280060E-1,-4.082238674E0,3.411841631E0,7.594639778E0
8.980280060E-1,-4.118152618E0,3.366350412E0,7.755055904E0
9.000280390E-1,-4.142095566E0,3.351984739E0,7.824490070E0
9.020280720E-1,-4.197163582E0,3.380716085E0,7.929838181E0
9.040280720E-1,-4.228289127E0,3.404658794E0,7.972935200E0
9.060280720E-1,-4.278569221E0,3.476486921E0,8.042368889E0
9.080280720E-1,-4.352791786E0,3.536343813E0,8.056735039E0
9.100280720E-1,-4.374340057E0,3.581835032E0,8.054340363E0
9.120280720E-1,-4.348002911E0,3.754222870E0,8.016032219E0
9.140280720E-1,-4.261809349E0,4.036747456E0,7.853221416E0
9.160280720E-1,-4.228289127E0,4.180403709E0,7.733507633E0
9.180280720E-1,-4.180403709E0,4.448562622E0,7.491685867E0
9.200280720E-1,-4.144489765E0,4.671230316E0,7.300143719E0
9.220280720E-1,-4.122941017E0,4.755029678E0,7.209161282E0
9.240280720E-1,-4.091815472E0,4.850800991E0,7.079870701E0
9.260280720E-1,-4.067873001E0,4.889109135E0,7.036773682E0
9.280280720E-1,-4.046324253E0,4.941783428E0,6.986494064E0
9.300280720E-1,-4.024775982E0,4.944177628E0,6.957762718E0
9.320280720E-1,-4.046324253E0,4.932206154E0,6.957762718E0
9.340281050E-1,-4.053507328E0,4.925023079E0,6.955368519E0
9.360281380E-1,-4.082238674E0,4.901080608E0,6.993676662E0
9.380281710E-1,-4.096604347E0,4.869955063E0,7.010436535E0
9.400282040E-1,-4.110970020E0,4.810098171E0,7.048745155E0
9.420282370E-1,-4.115758419E0,4.759818554E0,7.079870701E0
9.440282700E-1,-4.115758419E0,4.726298332E0,7.103813171E0
9.460283030E-1,-4.087027073E0,4.659258842E0,7.149304390E0
9.480283030E-1,-4.072661400E0,4.616161823E0,7.178035736E0
9.500282690E-1,-4.075055599E0,4.539545059E0,7.216344357E0
9.520282350E-1,-4.096604347E0,4.470110893E0,7.228315830E0
9.540282010E-1,-4.096604347E0,4.438985348E0,7.228315830E0
9.560281670E-1,-4.103786945E0,4.398283005E0,7.221132755E0
9.580281330E-1,-4.132518291E0,4.345608711E0,7.216344357E0
9.600280990E-1,-4.161249638E0,4.319271564E0,7.213950157E0
9.620280650E-1,-4.201952457E0,4.271386147E0,7.182824612E0
9.640280650E-1,-4.230683804E0,4.228289127E0,7.139727592E0
9.660280650E-1,-4.235472202E0,4.209135056E0,7.122967720E0
9.680280650E-1,-4.211529255E0,4.180403709E0,7.075081825E0
9.700280650E-1,-4.218712330E0,4.175615311E0,7.065505028E0
9.720280650E-1,-4.221106529E0,4.146883965E0,7.060716629E0
9.740280650E-1,-4.223500729E0,4.115758419E0,7.043956280E0
9.760280650E-1,-4.185192585E0,4.127729893E0,7.029590607E0
9.780280650E-1,-4.012804508E0,4.221106529E0,7.003253937E0
9.800280650E-1,-3.854782343E0,4.292934895E0,6.981705189E0
9.820280980E-1,-3.790137053E0,4.314483166E0,6.993676662E0
9.840281310E-1,-3.725491524E0,4.336031914E0,7.029590607E0
9.860281640E-1,-3.802108288E0,4.307300568E0,7.034379482E0
9.880281970E-1,-3.866753817E0,4.283357620E0,7.055927753E0
9.900282300E-1,-3.969707727E0,4.257020473E0,7.125361919E0
9.920282630E-1,-4.048718929E0,4.245049000E0,7.216344357E0
9.940282630E-1,-4.065478802E0,4.223500729E0,7.235498428E0
9.960282290E-1,-4.082238674E0,4.211529255E0,7.266623974E0
9.980281950E-1,-4.070267200E0,4.225894928E0,7.266623974E0
1.000028161E0,-4.003227711E0,4.273780346E0,7.292961121E0
1.002028127E0,-3.926610708E0,4.319271564E0,7.383943558E0
1.004028093E0,-3.900273561E0,4.333637238E0,7.441406250E0
1.006028059E0,-3.859570980E0,4.355185986E0,7.541965485E0
1.008028025E0,-3.833234072E0,4.369551659E0,7.599428177E0
1.010028025E0,-3.833234072E0,4.352791786E0,7.616188049E0
1.012028025E0,-3.876330853E0,4.319271564E0,7.632947922E0
1.014028025E0,-3.957736254E0,4.259414673E0,7.666468143E0
1.016028025E0,-3.988861799E0,4.218712330E0,7.690410614E0
1.018028025E0,-4.075055599E0,4.151672363E0,7.740690231E0
1.020028025E0,-4.118152618E0,4.130124092E0,7.778998852E0
1.022028025E0,-4.237866402E0,4.024775982E0,7.822095871E0
1.024028025E0,-4.383917332E0,3.912245035E0,7.781393051E0
1.026028025E0,-4.434196949E0,3.861965179E0,7.740690231E0
1.028028025E0,-4.479688168E0,3.799714088E0,7.628159523E0
1.030028025E0,-4.539545059E0,3.689577579E0,7.446194649E0
1.032028025E0,-4.561093330E0,3.653663397E0,7.319298267E0
1.034028025E0,-4.546727657E0,3.622537851E0,7.075081825E0
1.036028025E0,-4.532361984E0,3.526766777E0,6.792557716E0
1.038028025E0,-4.510813713E0,3.493247032E0,6.656084061E0
1.040028025E0,-4.393494129E0,3.498035431E0,6.411868095E0
1.042027991E0,-4.336031914E0,3.548315287E0,6.320885658E0
1.044027991E0,-4.216318130E0,3.730280161E0,6.174834728E0
1.046027991E0,-4.146883965E0,3.933793545E0,6.225114346E0
1.048027991E0,-4.146883965E0,4.031958580E0,6.277788639E0
1.050027991E0,-4.161249638E0,4.201952457E0,6.375953674E0
1.052027991E0,-4.103786945E0,4.446168423E0,6.435810566E0
1.054027991E0,-4.072661400E0,4.575459003E0,6.457359314E0
1.056028024E0,-4.010410309E0,4.838829517E0,6.495667458E0
1.058028057E0,-3.943370581E0,5.059102535E0,6.462147713E0
1.060028057E0,-3.924216509E0,5.104593754E0,6.411868095E0
1.062028057E0,-3.883513689E0,5.104593754E0,6.217931747E0
1.064028057E0,-3.866753817E0,5.063891411E0,6.148497581E0
1.066028057E0,-3.842811108E0,4.970514297E0,6.105400562E0
1.068028057E0,-3.914639235E0,4.855589390E0,6.124555111E0
1.070028057E0,-3.964919090E0,4.795732498E0,6.155680656E0
1.072028057E0,-4.015198708E0,4.743058205E0,6.265817165E0
1.074028057E0,-3.909850836E0,4.817280769E0,6.526793003E0
1.076028057E0,-3.840416908E0,4.896292210E0,6.632141113E0
1.078028057E0,-3.763799906E0,5.128536701E0,6.715940952E0
1.080028057E0,-3.838022470E0,5.197970390E0,6.490879059E0
1.082028023E0,-3.917033672E0,5.178816319E0,6.306519985E0
1.084028023E0,-4.087027073E0,5.102199554E0,5.887521744E0
1.086028023E0,-4.154066563E0,5.061496735E0,5.700768471E0
1.088028023E0,-4.204346657E0,5.008822918E0,5.444581032E0
1.090028056E0,-4.127729893E0,4.992063046E0,5.329655647E0
1.092028089E0,-4.060689926E0,5.006428719E0,5.310501575E0
1.094028122E0,-3.921822071E0,5.016005516E0,5.355992794E0
1.096028155E0,-3.852388144E0,5.008822918E0,5.408666611E0
1.098028188E0,-3.854782343E0,4.992063046E0,5.420638084E0
1.100028221E0,-3.909850836E0,4.989668846E0,5.394300938E0
1.102028254E0,-4.039141655E0,5.039948463E0,5.286558628E0
1.104028254E0,-4.096604347E0,5.085439682E0,5.253038883E0
1.106028220E0,-4.209135056E0,5.169239521E0,5.288952827E0
1.108028186E0,-4.209135056E0,5.219519138E0,5.305713177E0
1.110028152E0,-4.178009510E0,5.341627121E0,5.382329941E0
1.112028118E0,-4.029564381E0,5.451763630E0,5.411061287E0
1.114028084E0,-3.902667999E0,5.482889175E0,5.420638084E0
1.116028017E0,-3.577046633E0,5.549929142E0,5.346415520E0
1.118027983E0,-3.210722446E0,5.652883053E0,5.324867249E0
1.120027983E0,-3.076643229E0,5.727105141E0,5.346415520E0
1.122027983E0,-2.894678354E0,5.899493217E0,5.497254848E0
1.124027983E0,-2.710319042E0,6.091034889E0,5.561900616E0
1.126027983E0,-2.595393896E0,6.162863255E0,5.533169270E0
1.128027983E0,-2.322446585E0,6.301731110E0,5.451763630E0
1.130027983E0,-1.992036581E0,6.349617004E0,5.408666611E0
1.132027983E0,-1.814860344E0,6.409473896E0,5.348809719E0
1.134027983E0,-1.513181686E0,6.438204765E0,5.403878212E0
1.136027983E0,-1.369525194E0,6.435810566E0,5.473312378E0
1.138028016E0,-1.189954638E0,6.419050694E0,5.672037125E0
1.140028049E0,-1.087000728E0,6.335251331E0,5.877944469E0
1.142028115E0,-1.039115310E0,6.308914185E0,5.964138508E0
1.144028148E0,-9.768640995E-1,6.246663094E0,6.033572674E0
1.146028181E0,-9.098244309E-1,6.184412003E0,5.992869854E0
1.148028214E0,-8.715160489E-1,6.170046329E0,5.918647289E0
1.150028214E0,-7.853221297E-1,6.153286457E0,5.727105141E0
1.152028214E0,-6.751855016E-1,6.153286457E0,5.518803596E0
1.154028180E0,-6.273000240E-1,6.146103382E0,5.401484013E0
1.156028146E0,-4.932205975E-1,6.131737709E0,5.185999393E0
1.158028112E0,-4.213923812E-1,6.138920784E0,5.075862408E0
1.160028078E0,-3.208328187E-1,6.153286457E0,4.853195190E0
1.162028044E0,-2.705530524E-1,6.122160912E0,4.592218876E0
1.164028010E0,-2.968900800E-1,6.110189438E0,4.434196949E0
1.166028010E0,-4.860377908E-1,6.086246490E0,4.058295727E0
1.168028010E0,-8.092648983E-1,6.052726746E0,3.668029070E0
1.170028010E0,-9.529213905E-1,6.052726746E0,3.498035431E0
1.172028010E0,-1.113337755E0,6.064698219E0,3.239453793E0
1.174028010E0,-1.070240855E0,6.158074856E0,3.213116884E0
1.176028043E0,-1.017566800E0,6.203566074E0,3.282550812E0
1.178028043E0,-9.170072675E-1,6.296942711E0,3.658451796E0
1.180028043E0,-8.595446348E-1,6.335251331E0,3.957736254E0
1.182028043E0,-7.350423932E-1,6.383136749E0,4.620950222E0
1.184028043E0,-6.057515144E-1,6.399896622E0,5.217124939E0
1.186028043E0,-5.482889414E-1,6.404685020E0,5.427821159E0
1.188028043E0,-5.147690773E-1,6.399896622E0,5.614574432E0
1.190028043E0,-5.937801600E-1,6.392713547E0,5.571477413E0
1.192028043E0,-6.632141471E-1,6.395108223E0,5.475706577E0
1.194028043E0,-7.948992252E-1,6.431022167E0,5.183605194E0
1.196028043E0,-9.050358534E-1,6.519610405E0,4.800520897E0
1.198028009E0,-9.289786220E-1,6.553130150E0,4.597007751E0
1.200028009E0,-9.241901040E-1,6.593832970E0,4.149278164E0
1.202028009E0,-9.289786220E-1,6.610592842E0,3.931399345E0
1.204028009E0,-9.840469360E-1,6.634535313E0,3.577046633E0
1.206028009E0,-1.053480864E0,6.624958515E0,3.299310684E0
1.208028009E0,-1.089395046E0,6.615381241E0,3.189173937E0
1.210028009E0,-1.185166001E0,6.596227169E0,3.062277555E0
1.212028009E0,-1.333611012E0,6.543552876E0,3.069460392E0
1.214028042E0,-1.417410731E0,6.529187202E0,3.102980137E0
1.216028042E0,-1.549095750E0,6.519610405E0,3.203539610E0
1.218028042E0,-1.616135478E0,6.529187202E0,3.363956213E0
1.220028042E0,-1.630501151E0,6.536370277E0,3.457332850E0
1.222028042E0,-1.649655342E0,6.603409767E0,3.689577579E0
1.224028042E0,-1.647261024E0,6.641718388E0,3.811685562E0
1.226028042E0,-1.637683988E0,6.751854897E0,4.103786945E0
1.228028042E0,-1.642472506E0,6.861991405E0,4.427014351E0
1.230028042E0,-1.613741279E0,6.943397045E0,4.597007751E0
1.232028075E0,-1.525153041E0,7.115784645E0,4.989668846E0
1.234028075E0,-1.422199249E0,7.316903591E0,5.379935265E0
1.236028075E0,-1.347976685E0,7.403097630E0,5.578660488E0
1.238028075E0,-1.151646137E0,7.537177086E0,5.906675816E0
1.240028075E0,-9.960182905E-1,7.606611252E0,6.062304020E0
1.242028075E0,-9.481328130E-1,7.623371124E0,6.091034889E0
1.244028075E0,-9.050358534E-1,7.575485706E0,6.035966873E0
1.246028108E0,-9.146129489E-1,7.546754360E0,5.978504181E0
1.248028141E0,-1.012778282E0,7.498868465E0,5.820482254E0
1.250028174E0,-1.185166001E0,7.458166122E0,5.686402798E0
1.252028207E0,-1.285725594E0,7.443800449E0,5.636122704E0
1.254028240E0,-1.513181686E0,7.424646378E0,5.557111740E0
1.256028273E0,-1.704723716E0,7.422251701E0,5.497254848E0
1.258028306E0,-1.786128998E0,7.427040577E0,5.444581032E0
1.260028306E0,-1.913025618E0,7.436617374E0,5.327261448E0
1.262028272E0,-2.004008055E0,7.465348721E0,5.176422119E0
1.264028238E0,-2.030344963E0,7.470137596E0,5.087833881E0
1.266028204E0,-2.073441982E0,7.460560322E0,4.889109135E0
1.268028170E0,-2.094990492E0,7.462954521E0,4.798126698E0
1.270028136E0,-2.145270348E0,7.458166122E0,4.642498970E0
1.272028102E0,-2.217098475E0,7.465348721E0,4.558699131E0
1.274028068E0,-2.255406857E0,7.479714394E0,4.539545059E0
1.276028068E0,-2.382303476E0,7.494080067E0,4.585036278E0
1.278028068E0,-2.557085514E0,7.532388687E0,4.687990189E0
1.280028068E0,-2.633702278E0,7.565908432E0,4.750241280E0
1.282028068E0,-2.741444588E0,7.601822376E0,4.889109135E0
1.284028068E0,-2.839609861E0,7.642525196E0,5.006428719E0
1.286028068E0,-2.875524044E0,7.664073467E0,5.037554264E0
1.288028068E0,-2.968900681E0,7.707170486E0,5.049525738E0
1.290028068E0,-3.076643229E0,7.711959362E0,5.047131062E0
1.292028034E0,-3.124528646E0,7.738296032E0,5.027976990E0
1.294028067E0,-3.253819466E0,7.747873306E0,4.956148624E0
1.296028100E0,-3.337619066E0,7.757450581E0,4.903474808E0
1.298028133E0,-3.493247032E0,7.747873306E0,4.786155224E0
1.300028166E0,-3.636903524E0,7.726325035E0,4.620950222E0
1.302028199E0,-3.696760416E0,7.699987888E0,4.544333458E0
1.304028232E0,-3.802108288E0,7.661679268E0,4.388705730E0
1.306028232E0,-3.888302326E0,7.604216576E0,4.259414673E0
1.308028232E0,-3.940976381E0,7.575485706E0,4.201952457E0
1.310028198E0,-4.012804508E0,7.537177086E0,4.094210148E0
1.312028164E0,-4.048718929E0,7.506051540E0,4.024775982E0
1.314028130E0,-4.055901527E0,7.458166122E0,4.005621910E0
1.316028096E0,-4.087027073E0,7.455771923E0,3.988861799E0
1.318028062E0,-4.096604347E0,7.458166122E0,3.996044636E0
1.320028028E0,-4.122941017E0,7.472531796E0,4.010410309E0
1.322028028E0,-4.118152618E0,7.496474266E0,4.029564381E0
1.324028028E0,-4.120546818E0,7.518023014E0,4.027170181E0
1.326028028E0,-4.142095566E0,7.513234138E0,4.060689926E0
1.328028028E0,-4.173221111E0,7.496474266E0,4.067873001E0
1.330028028E0,-4.185192585E0,7.482108593E0,4.060689926E0
1.332028028E0,-4.218712330E0,7.458166122E0,4.027170181E0
1.334028028E0,-4.288146019E0,7.441406250E0,4.017592907E0
1.336028028E0,-4.328848839E0,7.417463303E0,4.039141655E0
1.338028028E0,-4.417437077E0,7.407886028E0,4.127729893E0
1.340028028E0,-4.450956821E0,7.393520832E0,4.201952457E0
1.342028028E0,-4.522785187E0,7.410280704E0,4.374340057E0
1.344028028E0,-4.613767624E0,7.419857502E0,4.573064804E0
1.346028028E0,-4.659258842E0,7.429434776E0,4.678412914E0
1.348028028E0,-4.800520897E0,7.477320194E0,4.877137661E0
1.350028028E0,-4.956148624E0,7.534782887E0,5.097411156E0
1.352028028E0,-5.039948463E0,7.556331158E0,5.193181992E0
1.354027994E0,-5.174027920E0,7.620976925E0,5.346415520E0
1.356027994E0,-5.274587631E0,7.702382088E0,5.451763630E0
1.358027994E0,-5.332049847E0,7.745479107E0,5.494860649E0
1.360027994E0,-5.425426483E0,7.836461544E0,5.521197796E0
1.362027994E0,-5.468523502E0,7.881952763E0,5.518803596E0
1.364027994E0,-5.590631485E0,7.951386452E0,5.485283375E0
1.366027994E0,-5.739076614E0,8.016032219E0,5.411061287E0
1.368027994E0,-5.839636326E0,8.042368889E0,5.358386993E0
1.370028027E0,-6.055120945E0,8.111803055E0,5.255433083E0
1.372028027E0,-6.253845692E0,8.176448822E0,5.159662247E0
1.374028027E0,-6.344828129E0,8.186025620E0,5.104593754E0
1.376028027E0,-6.533976078E0,8.233911514E0,4.984879971E0
1.378028027E0,-6.699181080E0,8.284191132E0,4.886714935E0
1.380028027E0,-6.773403645E0,8.320104599E0,4.838829517E0
1.382028027E0,-6.881145954E0,8.391933441E0,4.721509933E0
1.384028027E0,-6.931425571E0,8.432636261E0,4.652075768E0
1.386028027E0,-7.036773682E0,8.494887352E0,4.527573586E0
1.388028027E0,-7.125361919E0,8.569109917E0,4.412648678E0
1.390028027E0,-7.154093266E0,8.593051910E0,4.352791786E0
1.392028027E0,-7.264229774E0,8.650514603E0,4.197163582E0
1.394028027E0,-7.333663940E0,8.703188896E0,4.031958580E0
1.396028027E0,-7.345634937E0,8.722343445E0,3.950553417E0
1.398028027E0,-7.379155159E0,8.789382935E0,3.802108288E0
1.400028027E0,-7.417463303E0,8.813325882E0,3.682394743E0
1.402028027E0,-7.450983047E0,8.813325882E0,3.632114887E0
1.404028060E0,-7.522811413E0,8.825297356E0,3.553103924E0
1.406028093E0,-7.546754360E0,8.822902679E0,3.531555414E0
1.408028126E0,-7.613793850E0,8.815719604E0,3.512401104E0
1.410028159E0,-7.678439140E0,8.822902679E0,3.510006905E0
1.412028192E0,-7.709564686E0,8.832479477E0,3.510006905E0
1.414028225E0,-7.781393051E0,8.861210823E0,3.493247032E0
1.416028225E0,-7.841249943E0,8.918673515E0,3.454938650E0
1.418028191E0,-7.877163887E0,8.952193260E0,3.414235830E0
1.420028157E0,-7.972935200E0,9.014444351E0,3.332830429E0
1.422028123E0,-8.061523438E0,9.055147171E0,3.229876757E0
1.424028089E0,-8.099831581E0,9.076695442E0,3.193962574E0
1.426028055E0,-8.154899597E0,9.131764412E0,3.148471355E0
1.428028021E0,-8.166871071E0,9.167677879E0,3.143682718E0
1.430027987E0,-8.190814018E0,9.244295120E0,3.141288519E0
1.432027987E0,-8.162082672E0,9.335277557E0,3.146077156E0
1.434027987E0,-8.164477348E0,9.383162498E0,3.179596901E0
1.436027987E0,-8.183630943E0,9.474145889E0,3.220299721E0
1.438027987E0,-8.212362289E0,9.548367500E0,3.294522047E0
1.440027987E0,-8.241093636E0,9.632167816E0,3.402264595E0
1.442027987E0,-8.229122162E0,9.665687561E0,3.457332850E0
1.444027987E0,-8.188420296E0,9.718361855E0,3.574652195E0
1.446027987E0,-8.162082672E0,9.744698524E0,3.634509087E0
1.448027987E0,-8.087860107E0,9.799766541E0,3.761405706E0
1.450028020E0,-8.013637543E0,9.828497887E0,3.828445435E0
1.452028053E0,-7.984906673E0,9.845257759E0,3.921822071E0
1.454028086E0,-7.937020779E0,9.830892563E0,3.936187744E0
1.456028119E0,-7.941809654E0,9.826104164E0,3.905062199E0
1.458028152E0,-7.953781128E0,9.816526413E0,3.814079762E0
1.460028185E0,-7.982511997E0,9.787795067E0,3.691971779E0
1.462028218E0,-8.018425941E0,9.785401344E0,3.629720688E0
1.464028218E0,-8.083071709E0,9.766246796E0,3.517189741E0
1.466028184E0,-8.109408379E0,9.778218269E0,3.426207304E0
1.468028150E0,-8.111803055E0,9.787795067E0,3.385504484E0
1.470028116E0,-8.097437859E0,9.804554939E0,3.313676357E0
1.472028082E0,-8.032792091E0,9.818921089E0,3.249030828E0
1.474028048E0,-7.972935200E0,9.850046158E0,3.222693920E0
1.476028014E0,-7.836461544E0,9.828497887E0,3.153259993E0
1.478028014E0,-7.762238979E0,9.838075638E0,3.110162973E0
1.480027980E0,-7.609005451E0,9.823709488E0,3.033546209E0
1.482027980E0,-7.544359684E0,9.802161217E0,2.949746609E0
1.484027980E0,-7.520417213E0,9.792584419E0,2.901860952E0
1.486027980E0,-7.484503269E0,9.754275322E0,2.798907280E0
1.488027980E0,-7.518023014E0,9.737515450E0,2.710319042E0
1.490027980E0,-7.546754360E0,9.744698524E0,2.674404860E0
1.492027980E0,-7.587456703E0,9.780612946E0,2.612153769E0
1.494027980E0,-7.649707794E0,9.816526413E0,2.525959969E0
1.496027980E0,-7.676044941E0,9.902720451E0,2.487651587E0
1.498027980E0,-7.719141960E0,9.984126091E0,2.425400496E0
1.500027980E0,-7.762238979E0,1.004158878E1,2.391880512E0
1.502027980E0,-7.814912796E0,1.014693642E1,2.327235222E0
1.504027980E0,-7.865192890E0,1.025946712E1,2.274561167E0
1.506027980E0,-7.891529560E0,1.031692982E1,2.272166729E0
1.508027980E0,-7.937020779E0,1.042946148E1,2.264983892E0
1.510027946E0,-8.001666069E0,1.051565456E1,2.248224020E0
1.512027946E0,-8.035185814E0,1.054438591E1,2.229069948E0
1.514027946E0,-8.066311836E0,1.061382008E1,2.188367128E0
1.516027946E0,-8.114197731E0,1.063776302E1,2.178790092E0
1.518027946E0,-8.140534401E0,1.066888809E1,2.183578730E0
1.520027946E0,-8.219545364E0,1.068085957E1,2.166818619E0
1.522027946E0,-8.257853508E0,1.067367744E1,2.147664547E0
1.524027946E0,-8.327287674E0,1.068085957E1,2.121327400E0
1.526027979E0,-8.415876389E0,1.072395706E1,2.075836182E0
1.528027979E0,-8.451789856E0,1.073832226E1,2.047105074E0
1.530027979E0,-8.549955368E0,1.080057335E1,1.977671027E0
1.532027979E0,-8.605023384E0,1.090352726E1,1.896265626E0
1.534027979E0,-8.609811783E0,1.097535610E1,1.838803053E0
1.536027979E0,-8.593051910E0,1.114295483E1,1.733454943E0
1.538027979E0,-8.518829346E0,1.129858303E1,1.616135478E0
1.540028012E0,-8.470944405E0,1.136083412E1,1.549095750E0
1.542028012E0,-8.401510239E0,1.145899963E1,1.426987767E0
1.544028012E0,-8.351230621E0,1.148054790E1,1.379102230E0
1.546028012E0,-8.277008057E0,1.150209618E1,1.326428294E0
1.548028045E0,-8.209968567E0,1.149730778E1,1.297696948E0
1.550028045E0,-8.176448822E0,1.148533630E1,1.300091267E0
1.552028045E0,-8.130957603E0,1.145899963E1,1.285725594E0
1.554028045E0,-8.059128761E0,1.143505669E1,1.271359921E0
1.556028045E0,-8.028003693E0,1.140871906E1,1.259388566E0
1.558028045E0,-7.982511997E0,1.138717079E1,1.209108829E0
1.560028078E0,-7.929838181E0,1.138238239E1,1.137280583E0
1.562028278E0,-7.908289909E0,1.138477707E1,1.079817891E0
1.564028311E0,-7.822095871E0,1.137998772E1,9.792584181E-1
1.566028344E0,-7.767027378E0,1.137759399E1,9.289786220E-1
1.568028344E0,-7.678439140E0,1.137519932E1,8.595446348E-1
1.570028377E0,-7.589851379E0,1.134646797E1,8.164477348E-1
1.572028377E0,-7.520417213E0,1.132252598E1,8.044763207E-1
1.574028443E0,-7.381549358E0,1.131534290E1,7.733507752E-1
1.576028409E0,-7.242681503E0,1.130815983E1,7.350423932E-1
1.578028375E0,-7.192401409E0,1.131534290E1,7.134938836E-1
1.580028341E0,-7.125361919E0,1.134407425E1,6.703969240E-1
1.582028307E0,-7.020013809E0,1.135843945E1,6.368771195E-1
1.584028273E0,-6.976916790E0,1.137280560E1,6.129343510E-1
1.586028239E0,-6.890722752E0,1.141590214E1,5.578660369E-1
1.588028239E0,-6.850020409E0,1.145181656E1,5.363175869E-1
1.590028239E0,-6.771008968E0,1.149491310E1,5.027977228E-1
1.592028239E0,-6.691998005E0,1.153561592E1,4.620950520E-1
1.594028239E0,-6.653689861E0,1.154998207E1,4.309694767E-1
1.596028239E0,-6.586649895E0,1.161462688E1,4.166038036E-1
1.598028239E0,-6.505244732E0,1.166490650E1,3.950553536E-1
1.600028239E0,-6.454965115E0,1.170321560E1,3.759011328E-1
1.602028239E0,-6.385530949E0,1.176067829E1,3.711125851E-1
1.604028239E0,-6.335251331E0,1.180138016E1,3.399870098E-1
1.606028272E0,-6.294548512E0,1.183489990E1,3.184385598E-1
1.608028272E0,-6.227508545E0,1.189715195E1,2.825244367E-1
1.610028305E0,-6.196382999E0,1.192348862E1,2.561874092E-1
1.612028338E0,-6.112583637E0,1.196419144E1,1.819648892E-1
1.614028371E0,-6.033572674E0,1.200728798E1,1.268965602E-1
1.616028404E0,-5.990475655E0,1.201686573E1,8.858817071E-2
1.618028437E0,-5.875550270E0,1.205996227E1,1.197137404E-2
1.620028437E0,-5.789356709E0,1.212460804E1,-5.746259540E-2
1.622028237E0,-5.736682415E0,1.215333939E1,-8.379961550E-2
1.624028203E0,-5.679219723E0,1.218446445E1,-1.532335877E-1
1.626028169E0,-5.604997158E0,1.219883060E1,-2.298503816E-1
1.628028169E0,-5.561900616E0,1.219643593E1,-2.681587934E-1
1.630028135E0,-5.475706577E0,1.220361900E1,-3.399870098E-1
1.632028101E0,-5.365570068E0,1.220840740E1,-3.974496126E-1
1.634028001E0,-5.308107376E0,1.220840740E1,-4.884320498E-1
1.636028001E0,-5.178816319E0,1.219883060E1,-5.818088055E-1
1.638028001E0,-5.123748302E0,1.219164753E1,-6.273000240E-1
1.640028001E0,-5.013611317E0,1.215812778E1,-6.919454336E-1
1.642028001E0,-4.908263206E0,1.210305882E1,-7.350423932E-1
1.644028001E0,-4.867560863E0,1.207193375E1,-7.565908432E-1
1.646028001E0,-4.767001152E0,1.202644253E1,-8.092648983E-1
1.648028001E0,-4.649681568E0,1.200489426E1,-8.691217303E-1
1.650028001E0,-4.597007751E0,1.199531651E1,-8.882759809E-1
1.652028001E0,-4.494053841E0,1.199531651E1,-9.313728809E-1
1.654028001E0,-4.379128456E0,1.199052811E1,-9.840469360E-1
1.656028001E0,-4.324060440E0,1.197855663E1,-1.003201127E0
1.658028001E0,-4.187586784E0,1.196419144E1,-1.075029373E0
1.660028001E0,-4.118152618E0,1.194982529E1,-1.110943556E0
1.662028001E0,-3.976890564E0,1.190672874E1,-1.173194647E0
1.664028001E0,-3.861965179E0,1.185884285E1,-1.259388566E0
1.666027967E0,-3.818868399E0,1.183250618E1,-1.297696948E0
1.668027967E0,-3.732674360E0,1.177983189E1,-1.331216812E0
1.670027967E0,-3.665634632E0,1.172476387E1,-1.398256540E0
1.672027967E0,-3.617749214E0,1.169842625E1,-1.426987767E0
1.674027967E0,-3.531555414E0,1.167208958E1,-1.438959122E0
1.676027967E0,-3.433390141E0,1.166251278E1,-1.450930476E0
1.678027967E0,-3.392687321E0,1.165772438E1,-1.450930476E0
1.680027967E0,-3.258608103E0,1.164814663E1,-1.443747759E0
1.682028000E0,-3.210722446E0,1.163617516E1,-1.453324795E0
1.684028000E0,-3.134105682E0,1.161462688E1,-1.438959122E0
1.686028000E0,-3.052700281E0,1.158110714E1,-1.410227895E0
1.688028000E0,-3.014391899E0,1.155955887E1,-1.398256540E0
1.690028000E0,-2.932986736E0,1.151406765E1,-1.381496549E0
1.692028000E0,-2.830032825E0,1.146857643E1,-1.371919513E0
1.694028000E0,-2.772570133E0,1.143984509E1,-1.369525194E0
1.696028000E0,-2.645673752E0,1.139435387E1,-1.347976685E0
1.698028000E0,-2.547508478E0,1.132970810E1,-1.324033976E0
1.700028000E0,-2.504411459E0,1.131055450E1,-1.304879785E0
1.702028000E0,-2.427794695E0,1.126027489E1,-1.223474383E0
1.704028000E0,-2.394274712E0,1.123154354E1,-1.192348838E0
1.706028000E0,-2.327235222E0,1.117647457E1,-1.103760719E0
1.708028000E0,-2.288926601E0,1.112619495E1,-1.039115310E0
1.710028033E0,-2.269772530E0,1.109506989E1,-1.022355318E0
1.712028033E0,-2.250618219E0,1.105436707E1,-9.792584181E-1
1.714028033E0,-2.209915638E0,1.101366425E1,-9.792584181E-1
1.716028066E0,-2.200338602E0,1.099450970E1,-9.672870040E-1
1.718028099E0,-2.185972929E0,1.096817303E1,-9.984126091E-1
1.720028132E0,-2.171607256E0,1.095141315E1,-1.019961119E0
1.722028165E0,-2.159635782E0,1.093704700E1,-1.031932473E0
1.724028198E0,-2.142875910E0,1.091549873E1,-1.041509509E0
1.726028231E0,-2.128510237E0,1.089634418E1,-1.029538155E0
1.728028231E0,-2.114144564E0,1.089395046E1,-9.840469360E-1
1.730028231E0,-2.099778891E0,1.086761379E1,-9.385557175E-1
1.732028197E0,-2.087807655E0,1.086282444E1,-9.122186899E-1
1.734028163E0,-2.061470509E0,1.081972790E1,-8.715160489E-1
1.736028129E0,-2.047105074E0,1.079339123E1,-8.236305118E-1
1.738028095E0,-2.054287672E0,1.077902508E1,-7.925049663E-1
1.740028061E0,-2.097384691E0,1.074311066E1,-7.302538157E-1
1.742028027E0,-2.166818619E0,1.072635078E1,-6.727912426E-1
1.744028027E0,-2.197944164E0,1.072395706E1,-6.416656375E-1
1.746028027E0,-2.253012657E0,1.071677399E1,-6.009629965E-1
1.748028027E0,-2.288926601E0,1.072874546E1,-5.913859010E-1
1.750028027E0,-2.353572130E0,1.074790001E1,-5.889915824E-1
1.752028027E0,-2.439765930E0,1.078381348E1,-5.937801600E-1
1.754028027E0,-2.482862949E0,1.080057335E1,-5.913859010E-1
1.756028027E0,-2.547508478E0,1.085803604E1,-5.865973234E-1
1.758028027E0,-2.573845387E0,1.090113354E1,-5.578660369E-1
1.760028027E0,-2.590605259E0,1.091310501E1,-5.363175869E-1
1.762028060E0,-2.631308079E0,1.091310501E1,-5.027977228E-1
1.764028093E0,-2.683982134E0,1.090592194E1,-4.668835998E-1
1.766028126E0,-2.715107679E0,1.089395046E1,-4.429408312E-1
1.768028159E0,-2.786935806E0,1.085803604E1,-3.711125851E-1
1.770028159E0,-2.820455790E0,1.084127617E1,-3.375927508E-1
1.772028192E0,-2.837215662E0,1.078141975E1,-3.040728867E-1
1.774028225E0,-2.818061352E0,1.070959091E1,-3.328042030E-1
1.776028225E0,-2.818061352E0,1.067128277E1,-3.759011328E-1
1.778028191E0,-2.822849989E0,1.060663700E1,-5.027977228E-1
1.780028157E0,-2.794118643E0,1.055635738E1,-6.368771195E-1
1.782028123E0,-2.786935806E0,1.053720379E1,-6.751855016E-1
1.784028089E0,-2.784541607E0,1.050368404E1,-6.823683381E-1
1.786028055E0,-2.810878515E0,1.047974110E1,-6.344828010E-1
1.788028021E0,-2.834821463E0,1.046537495E1,-6.081457734E-1
1.790027987E0,-2.873129845E0,1.041509533E1,-5.458946824E-1
1.792027987E0,-2.930592299E0,1.038636398E1,-5.267404318E-1
1.794027987E0,-2.949746609E0,1.036721039E1,-4.980091453E-1
1.796027987E0,-2.949746609E0,1.034805584E1,-5.123748183E-1
1.798027987E0,-2.944957972E0,1.035523891E1,-5.099805593E-1
1.800027987E0,-2.932986736E0,1.034087276E1,-4.932205975E-1
1.802027987E0,-2.911438227E0,1.033608437E1,-4.788549542E-1
1.804027987E0,-2.901860952E0,1.034326744E1,-4.692778587E-1
1.806027987E0,-2.863552570E0,1.034566116E1,-4.764606953E-1
1.808027987E0,-2.808484316E0,1.034326744E1,-4.788549542E-1
1.810027987E0,-2.796513081E0,1.033847904E1,-4.788549542E-1
1.812027987E0,-2.789330244E0,1.033129597E1,-4.764606953E-1
1.814027987E0,-2.777358770E0,1.033129597E1,-4.932205975E-1
1.816027987E0,-2.774964571E0,1.032890129E1,-5.027977228E-1
1.818027987E0,-2.765387297E0,1.034087276E1,-5.051919818E-1
1.820027987E0,-2.779752970E0,1.032890129E1,-4.908263385E-1
1.822027953E0,-2.794118643E0,1.035523891E1,-4.620950520E-1
1.824027953E0,-2.774964571E0,1.034087276E1,-4.525179267E-1
1.826027953E0,-2.772570133E0,1.031932449E1,-4.549122155E-1
1.828027953E0,-2.765387297E0,1.030495834E1,-4.812492430E-1
1.830027953E0,-2.767781734E0,1.027622795E1,-5.027977228E-1
1.832027953E0,-2.770175934E0,1.025228500E1,-5.195576549E-1
1.834027953E0,-2.736656189E0,1.019482231E1,-5.219519138E-1
1.836027953E0,-2.731867552E0,1.018285084E1,-5.243461728E-1
1.838027986E0,-2.727078915E0,1.015172482E1,-5.075862408E-1
1.840027986E0,-2.741444588E0,1.011581135E1,-4.908263385E-1
1.842027986E0,-2.743839025E0,1.010623360E1,-4.692778587E-1
1.844027986E0,-2.746233225E0,1.010862827E1,-4.453351200E-1
1.846027986E0,-2.751021862E0,1.011102295E1,-4.189980924E-1
1.848027986E0,-2.748627424E0,1.010623360E1,-4.046324492E-1
1.850027986E0,-2.741444588E0,1.010623360E1,-3.663240373E-1
1.852027986E0,-2.751021862E0,1.006792545E1,-3.615354896E-1
1.854027986E0,-2.755810261E0,1.005834866E1,-3.567469418E-1
1.856027986E0,-2.760598898E0,1.002482891E1,-3.447755575E-1
1.858027986E0,-2.758204460E0,1.000806904E1,-3.208328187E-1
1.860027986E0,-2.755810261E0,9.962577820E0,-3.088614643E-1
1.862027986E0,-2.741444588E0,9.921875000E0,-2.921015322E-1
1.864027986E0,-2.748627424E0,9.912297249E0,-2.801301479E-1
1.866027986E0,-2.758204460E0,9.895537376E0,-2.681587934E-1
1.868027986E0,-2.791724443E0,9.871595383E0,-2.633702159E-1
1.870027986E0,-2.794118643E0,9.859623909E0,-2.777358890E-1
1.872028019E0,-2.803695917E0,9.833286285E0,-2.777358890E-1
1.874028052E0,-2.842004299E0,9.816526413E0,-2.490045726E-1
1.876028085E0,-2.851581335E0,9.811738014E0,-2.442160249E-1
1.878028118E0,-2.901860952E0,9.811738014E0,-2.633702159E-1
1.880028151E0,-2.942563772E0,9.826104164E0,-2.633702159E-1
1.882028184E0,-2.956929445E0,9.830892563E0,-2.513988614E-1
1.884028184E0,-2.990449190E0,9.833286285E0,-2.250618339E-1
1.886028184E0,-3.011997700E0,9.838075638E0,-2.035133541E-1
1.888028150E0,-3.021574736E0,9.852440834E0,-1.915419847E-1
1.890028116E0,-3.019180536E0,9.852440834E0,-1.508393139E-1
1.892028082E0,-3.004814863E0,9.847652435E0,-1.197137386E-1
1.894028048E0,-2.980872154E0,9.823709488E0,-1.101366431E-1
1.896028014E0,-2.968900681E0,9.783006668E0,-1.029538140E-1
1.898027980E0,-2.952140808E0,9.749486923E0,-9.098244458E-2
1.900027980E0,-2.947352171E0,9.696812630E0,-9.816526622E-2
1.902027980E0,-2.925803900E0,9.620196342E0,-1.077423692E-1
1.904027980E0,-2.911438227E0,9.591464996E0,-1.029538140E-1
1.906027980E0,-2.894678354E0,9.538790703E0,-1.101366431E-1
1.908027980E0,-2.880312681E0,9.512454033E0,-1.149251908E-1
1.910027980E0,-2.863552570E0,9.462174416E0,-1.460507661E-1
1.912027980E0,-2.858764172E0,9.428654671E0,-1.675992310E-1
1.914027980E0,-2.846792698E0,9.419076920E0,-1.843591630E-1
1.916027980E0,-2.810878515E0,9.421471596E0,-1.987248063E-1
1.918028013E0,-2.791724443E0,9.404711723E0,-2.202732861E-1
1.920028046E0,-2.786935806E0,9.404711723E0,-2.418217510E-1
1.922028079E0,-2.760598898E0,9.402317047E0,-2.657645047E-1
1.924028112E0,-2.722290516E0,9.380768776E0,-3.160442710E-1
1.926028145E0,-2.707924843E0,9.371191978E0,-3.471698463E-1
1.928028178E0,-2.688770533E0,9.340065956E0,-4.166038036E-1
1.930028211E0,-2.683982134E0,9.313729286E0,-4.285751879E-1
1.932028211E0,-2.662433624E0,9.261054993E0,-4.477293789E-1
1.934028177E0,-2.638490915E0,9.249083519E0,-4.597007632E-1
1.936028143E0,-2.621730804E0,9.234718323E0,-4.692778587E-1
1.938028109E0,-2.561874151E0,9.220352173E0,-4.333637357E-1
1.940028075E0,-2.509200096E0,9.213169098E0,-3.687183261E-1
1.942028041E0,-2.461314440E0,9.198803902E0,-3.495641351E-1
1.944028007E0,-2.403851986E0,9.203592300E0,-3.112557232E-1
1.946027973E0,-2.329629421E0,9.196409225E0,-2.585816681E-1
1.948027973E0,-2.291321039E0,9.198803902E0,-2.370332032E-1
1.950027973E0,-2.229069948E0,9.186832428E0,-1.915419847E-1
1.952027973E0,-2.188367128E0,9.186832428E0,-1.628106833E-1
1.954027973E0,-2.145270348E0,9.167677879E0,-1.077423692E-1
1.956027973E0,-2.104567528E0,9.136552811E0,-4.309694469E-2
1.958027973E0,-2.085413456E0,9.122186661E0,-1.675992459E-2
1.960027973E0,-2.068653345E0,9.112609863E0,3.351984918E-2
1.962027973E0,-2.054287672E0,9.083878517E0,8.858817071E-2
1.964027973E0,-2.042316437E0,9.079090118E0,1.125309169E-1
1.966027973E0,-2.008796453E0,9.057541847E0,1.652049571E-1
1.968027973E0,-1.989642382E0,9.055147171E0,1.699935049E-1
1.970027973E0,-1.972882390E0,9.050358772E0,1.867534369E-1
1.972027973E0,-1.946545362E0,8.995290756E0,1.987248063E-1
1.974028073E0,-1.924996972E0,8.980924606E0,1.987248063E-1
1.976028073E0,-1.917814136E0,8.954587936E0,1.939362586E-1
1.978028039E0,-1.903448462E0,8.918673515E0,1.963305324E-1
1.980028005E0,-1.860351562E0,8.875576973E0,2.011190802E-1
1.982028005E0,-1.836408734E0,8.849239349E0,2.059076279E-1
1.984028005E0,-1.795706153E0,8.813325882E0,2.035133541E-1
1.986028005E0,-1.793311834E0,8.791776657E0,2.130904645E-1
1.988028005E0,-1.788523316E0,8.719948769E0,2.394274771E-1
1.990028005E0,-1.778946161E0,8.691217422E0,2.825244367E-1
1.992028005E0,-1.788523316E0,8.676852226E0,2.968900800E-1
1.994028038E0,-1.793311834E0,8.628966331E0,3.519583941E-1
1.996028038E0,-1.807677507E0,8.612206459E0,3.902668059E-1
1.998028038E0,-1.824437380E0,8.583475113E0,4.166038036E-1
2.000028038E0,-1.862745762E0,8.566715240E0,4.597007632E-1
2.002028038E0,-1.865140080E0,8.559532166E0,4.812492430E-1
2.004028038E0,-1.893871427E0,8.542772293E0,5.195576549E-1
2.006028038E0,-1.915419817E0,8.537983894E0,5.435003638E-1
2.008028038E0,-1.932179809E0,8.530800819E0,5.506832004E-1
2.010028038E0,-1.948939681E0,8.540378571E0,5.650488734E-1
2.012028038E0,-1.972882390E0,8.533195496E0,5.985686779E-1
2.014028038E0,-1.982459545E0,8.530800819E0,6.129343510E-1
2.016028038E0,-1.999219418E0,8.535589218E0,6.368771195E-1
2.018028038E0,-2.004008055E0,8.530800819E0,6.632141471E-1
2.020028038E0,-2.006402254E0,8.530800819E0,6.703969240E-1
2.022028038E0,-2.037527800E0,8.535589218E0,6.919454336E-1
2.024028038E0,-2.047105074E0,8.521224022E0,7.087053657E-1
2.026028038E0,-2.075836182E0,8.509252548E0,7.422251701E-1
2.028028071E0,-2.104567528E0,8.494887352E0,7.901107073E-1
2.030028104E0,-2.106961727E0,8.490098000E0,8.284190893E-1
2.032028137E0,-2.118933201E0,8.482915878E0,9.026415944E-1
2.034028070E0,-2.128510237E0,8.475732803E0,9.648927450E-1
2.036028103E0,-2.147664547E0,8.470944405E0,1.000806928E0
2.038028136E0,-2.183578730E0,8.463761330E0,1.103760719E0
2.040028169E0,-2.207521439E0,8.463761330E0,1.187560320E0
2.042028169E0,-2.226675510E0,8.456578255E0,1.245022893E0
2.044028135E0,-2.262589693E0,8.437424660E0,1.340793848E0
2.046028101E0,-2.272166729E0,8.442213058E0,1.386285067E0
2.048028067E0,-2.303292274E0,8.420664787E0,1.477267504E0
2.050028033E0,-2.322446585E0,8.394327164E0,1.558672905E0
2.052027999E0,-2.332023621E0,8.389538765E0,1.587404251E0
2.054027965E0,-2.355966330E0,8.375173569E0,1.640078187E0
2.056027965E0,-2.384697676E0,8.372778893E0,1.664021015E0
2.058027965E0,-2.401457548E0,8.370385170E0,1.673598051E0
2.060027965E0,-2.430188894E0,8.365595818E0,1.687963724E0
2.062027965E0,-2.463708878E0,8.389538765E0,1.675992370E0
2.064027965E0,-2.478074312E0,8.399115562E0,1.673598051E0
2.066027965E0,-2.513988495E0,8.399115562E0,1.668809533E0
2.068027965E0,-2.540325642E0,8.420664787E0,1.680780888E0
2.070027965E0,-2.554691315E0,8.432636261E0,1.687963724E0
2.072027965E0,-2.578634024E0,8.461367607E0,1.702329397E0
2.074027998E0,-2.607365370E0,8.480521202E0,1.716695070E0
2.076028031E0,-2.652856588E0,8.485309601E0,1.745426297E0
2.078028064E0,-2.705530643E0,8.506858826E0,1.771763325E0
2.080028097E0,-2.729473352E0,8.509252548E0,1.790917516E0
2.082028130E0,-2.765387297E0,8.511647224E0,1.814860344E0
2.084028163E0,-2.808484316E0,8.526012421E0,1.843591571E0
2.086028196E0,-2.810878515E0,8.528407097E0,1.862745762E0
2.088028196E0,-2.827638626E0,8.557138443E0,1.891477108E0
2.090028162E0,-2.842004299E0,8.557138443E0,1.924996972E0
2.092028128E0,-2.861158371E0,8.576292038E0,1.980065227E0
2.094028094E0,-2.870735407E0,8.588263512E0,2.044710636E0
2.096028060E0,-2.885101080E0,8.593051910E0,2.083019018E0
2.098028026E0,-2.894678354E0,8.605023384E0,2.147664547E0
2.100027992E0,-2.906649590E0,8.621783257E0,2.221887112E0
2.102027958E0,-2.904255390E0,8.626572609E0,2.229069948E0
2.104027958E0,-2.909043789E0,8.626572609E0,2.260195494E0
2.106027958E0,-2.940169573E0,8.638543129E0,2.274561167E0
2.108027958E0,-2.954535007E0,8.650514603E0,2.288926601E0
2.110027958E0,-2.973689318E0,8.669669151E0,2.291321039E0
2.112027958E0,-3.000026226E0,8.676852226E0,2.281744003E0
2.114027958E0,-3.055094719E0,8.688823700E0,2.255406857E0
2.116027958E0,-3.100585938E0,8.703188896E0,2.207521439E0
2.118027958E0,-3.119740009E0,8.736708641E0,2.181184292E0
2.120027958E0,-3.160442829E0,8.763046265E0,2.121327400E0
2.122027958E0,-3.222693920E0,8.779806137E0,2.056682110E0
2.124027958E0,-3.241847992E0,8.782199860E0,2.023162127E0
2.126027958E0,-3.299310684E0,8.801354408E0,1.965699673E0
2.128027958E0,-3.356773376E0,8.854028702E0,1.901054144E0
2.130027958E0,-3.383110285E0,8.875576973E0,1.884294271E0
2.132027958E0,-3.430995703E0,8.911490440E0,1.848380208E0
2.134027924E0,-3.471698523E0,8.923461914E0,1.824437380E0
2.136027890E0,-3.495641232E0,8.952193260E0,1.774157643E0
2.138027890E0,-3.541132450E0,8.988107681E0,1.731060743E0
2.140027890E0,-3.555498123E0,9.009655952E0,1.707117915E0
2.142027890E0,-3.572257996E0,9.050358772E0,1.685569525E0
2.144027890E0,-3.591412306E0,9.088666916E0,1.678386688E0
2.146027890E0,-3.598595142E0,9.103033066E0,1.671203852E0
2.148027890E0,-3.617749214E0,9.131764412E0,1.652049661E0
2.150027923E0,-3.632114887E0,9.119792938E0,1.642472506E0
2.152027956E0,-3.646480560E0,9.119792938E0,1.623318315E0
2.154027956E0,-3.680000305E0,9.136552811E0,1.585009933E0
2.156027956E0,-3.699154615E0,9.134158134E0,1.565855742E0
2.158027956E0,-3.711125851E0,9.129369736E0,1.472478986E0
2.160027956E0,-3.713520288E0,9.134158134E0,1.386285067E0
2.162027956E0,-3.711125851E0,9.129369736E0,1.343188167E0
2.164027956E0,-3.730280161E0,9.162889481E0,1.261782765E0
2.166027956E0,-3.763799906E0,9.201197624E0,1.163617611E0
2.168027956E0,-3.782954216E0,9.210775375E0,1.108549237E0
2.170027956E0,-3.835628271E0,9.246688843E0,9.960182905E-1
2.172027989E0,-3.869148016E0,9.282603264E0,9.050358534E-1
2.174027989E0,-3.881119490E0,9.301757812E0,8.619389534E-1
2.176027989E0,-3.914639235E0,9.349642754E0,8.020820618E-1
2.178027989E0,-3.943370581E0,9.375980377E0,7.470137477E-1
2.180027989E0,-3.960130453E0,9.385557175E0,7.302538157E-1
2.182027989E0,-3.991255999E0,9.392740250E0,6.871568561E-1
2.184028022E0,-4.015198708E0,9.397528648E0,6.680026650E-1
2.186028055E0,-4.051113129E0,9.402317047E0,6.296942830E-1
2.188028088E0,-4.082238674E0,9.380768776E0,5.722316504E-1
2.190028121E0,-4.101392746E0,9.371191978E0,5.363175869E-1
2.192028154E0,-4.115758419E0,9.380768776E0,4.620950520E-1
2.194028187E0,-4.149278164E0,9.375980377E0,4.022381604E-1
2.196028220E0,-4.161249638E0,9.375980377E0,3.663240373E-1
2.198028220E0,-4.182797909E0,9.395133972E0,3.256213665E-1
2.200028186E0,-4.206740856E0,9.407105446E0,2.944957912E-1
2.202028152E0,-4.216318130E0,9.457385063E0,2.777358890E-1
2.204028118E0,-4.211529255E0,9.524425507E0,2.178790122E-1
2.206028084E0,-4.225894928E0,9.565128326E0,1.795706153E-1
2.208028050E0,-4.247443676E0,9.615407944E0,1.221080124E-1
2.210028016E0,-4.271386147E0,9.675264359E0,7.661679387E-2
2.212027982E0,-4.288146019E0,9.694418907E0,4.549122229E-2
2.214027982E0,-4.331243038E0,9.703995705E0,1.915419847E-2
2.216027982E0,-4.333637238E0,9.720755577E0,2.154847234E-2
2.218027982E0,-4.343214512E0,9.723150253E0,2.154847234E-2
2.220027982E0,-4.367157459E0,9.718361855E0,2.154847234E-2
2.222027982E0,-4.367157459E0,9.692024231E0,1.436564885E-2
2.224027982E0,-4.369551659E0,9.680052757E0,1.675992459E-2
2.226027982E0,-4.355185986E0,9.680052757E0,2.873129770E-2
2.228027982E0,-4.350397110E0,9.680052757E0,3.591412306E-2
2.230027982E0,-4.348002911E0,9.689630508E0,6.943397224E-2
2.232027982E0,-4.345608711E0,9.677659035E0,7.661679387E-2
2.234028015E0,-4.352791786E0,9.682447433E0,8.379961550E-2
2.236028048E0,-4.376734257E0,9.715967178E0,9.577099234E-2
2.238028081E0,-4.376734257E0,9.759063721E0,8.140534163E-2
2.240028114E0,-4.379128456E0,9.787795067E0,7.422251999E-2
2.242028147E0,-4.391099930E0,9.811738014E0,4.309694469E-2
2.244028147E0,-4.407859802E0,9.871595383E0,9.577099234E-3
2.246028113E0,-4.410254002E0,9.885960579E0,0.000000000E0
2.248028113E0,-4.400677204E0,9.921875000E0,-4.788549617E-2
2.250028079E0,-4.383917332E0,9.926663399E0,-8.379961550E-2
2.252028045E0,-4.357580185E0,9.941028595E0,-1.005595401E-1
2.254028011E0,-4.326454639E0,9.943423271E0,-1.292908341E-1
2.256027977E0,-4.316877365E0,9.929058075E0,-1.173194647E-1
2.258027943E0,-4.292934895E0,9.895537376E0,-5.746259540E-2
2.260027943E0,-4.268991947E0,9.840469360E0,1.675992459E-2
2.262027943E0,-4.259414673E0,9.816526413E0,6.943397224E-2
2.264027943E0,-4.237866402E0,9.771035194E0,1.364736706E-1
2.266027943E0,-4.216318130E0,9.713572502E0,2.035133541E-1
2.268027943E0,-4.194769382E0,9.689630508E0,2.154847383E-1
2.270027943E0,-4.158855438E0,9.653716087E0,2.585816681E-1
2.272027943E0,-4.132518291E0,9.641744614E0,2.513988614E-1
2.274027943E0,-4.089421272E0,9.627379417E0,2.442160249E-1
2.276027943E0,-4.077449799E0,9.598648071E0,2.298503816E-1
2.278027943E0,-4.067873001E0,9.586676598E0,2.083019018E-1
2.280027943E0,-4.024775982E0,9.572310448E0,1.580221355E-1
2.282027943E0,-4.003227711E0,9.545973778E0,1.268965602E-1
2.284027943E0,-3.998438835E0,9.534002304E0,1.101366431E-1
2.286027943E0,-4.024775982E0,9.500482559E0,8.858817071E-2
2.288027943E0,-4.031958580E0,9.490905762E0,1.053480953E-1
2.290027943E0,-4.022381783E0,9.474145889E0,1.221080124E-1
2.292027909E0,-4.000833035E0,9.447808266E0,1.771763414E-1
2.294027909E0,-3.988861799E0,9.416683197E0,2.059076279E-1
2.296027909E0,-3.950553417E0,9.349642754E0,2.083019018E-1
2.298027909E0,-3.933793545E0,9.311334610E0,2.346389294E-1
2.300027909E0,-3.933793545E0,9.294574738E0,2.418217510E-1
2.302027909E0,-3.897879362E0,9.256266594E0,2.418217510E-1
2.304027909E0,-3.878725290E0,9.241900444E0,2.370332032E-1
2.306027942E0,-3.869148016E0,9.237112045E0,2.418217510E-1
2.308027942E0,-3.833234072E0,9.225140572E0,2.585816681E-1
2.310027942E0,-3.794925690E0,9.256266594E0,2.897072434E-1
2.312027942E0,-3.790137053E0,9.284997940E0,2.873129845E-1
2.314027942E0,-3.766194344E0,9.349642754E0,2.992843390E-1
2.316027942E0,-3.747040033E0,9.371191978E0,2.921015322E-1
2.318027942E0,-3.754222870E0,9.423865318E0,2.944957912E-1
2.320027942E0,-3.732674360E0,9.454991341E0,3.280156553E-1
2.322027942E0,-3.725491524E0,9.459779739E0,3.399870098E-1
2.324027942E0,-3.727885962E0,9.459779739E0,3.759011328E-1
2.326027942E0,-3.711125851E0,9.431048393E0,4.070267081E-1
2.328027942E0,-3.694365978E0,9.407105446E0,4.285751879E-1
2.330027942E0,-3.675211906E0,9.340065956E0,4.381522834E-1
2.332027942E0,-3.648874760E0,9.289786339E0,4.501236677E-1
2.334027942E0,-3.629720688E0,9.273026466E0,4.477293789E-1
2.336027942E0,-3.634509087E0,9.227535248E0,4.453351200E-1
2.338027942E0,-3.610566378E0,9.217958450E0,4.477293789E-1
2.340027975E0,-3.608172178E0,9.220352173E0,4.477293789E-1
2.342028008E0,-3.598595142E0,9.246688843E0,4.213923812E-1
2.344028041E0,-3.593806505E0,9.251478195E0,4.022381604E-1
2.346028074E0,-3.572257996E0,9.277814865E0,3.902668059E-1
2.348028107E0,-3.555498123E0,9.299363136E0,3.854782581E-1
2.350028140E0,-3.550709486E0,9.299363136E0,3.782954216E-1
2.352028173E0,-3.565075159E0,9.294574738E0,3.830839694E-1
2.354028173E0,-3.569863796E0,9.280209541E0,3.591412306E-1
2.356028139E0,-3.565075159E0,9.253871918E0,3.615354896E-1
2.358028105E0,-3.550709486E0,9.229928970E0,3.280156553E-1
2.360028071E0,-3.572257996E0,9.208380699E0,3.136500120E-1
2.362028037E0,-3.577046633E0,9.160495758E0,2.944957912E-1
2.364028003E0,-3.600989342E0,9.122186661E0,2.585816681E-1
2.366027969E0,-3.608172178E0,9.110215187E0,2.370332032E-1
2.368027935E0,-3.634509087E0,9.071907043E0,2.130904645E-1
2.370027935E0,-3.656057596E0,9.052753448E0,1.843591630E-1
2.372027935E0,-3.660846233E0,9.040781975E0,1.723877788E-1
2.374027935E0,-3.660846233E0,9.024022102E0,1.077423692E-1
2.376027935E0,-3.656057596E0,8.997684479E0,5.027977005E-2
2.378027935E0,-3.670423269E0,8.997684479E0,1.197137404E-2
2.380027935E0,-3.680000305E0,8.990502357E0,-7.182824612E-2
2.382027935E0,-3.663240433E0,8.964164734E0,-1.699935049E-1
2.384027935E0,-3.648874760E0,8.949799538E0,-2.011190802E-1
2.386027935E0,-3.620143414E0,8.913885117E0,-2.633702159E-1
2.388027968E0,-3.605777979E0,8.897125244E0,-2.873129845E-1
2.390028001E0,-3.577046633E0,8.861210823E0,-3.136500120E-1
2.392028034E0,-3.579440832E0,8.863605499E0,-2.968900800E-1
2.394028067E0,-3.593806505E0,8.854028702E0,-2.609759569E-1
2.396028100E0,-3.584229469E0,8.837267876E0,-1.915419847E-1
2.398028133E0,-3.591412306E0,8.822902679E0,-1.268965602E-1
2.400028133E0,-3.584229469E0,8.822902679E0,-1.125309169E-1
2.402028133E0,-3.600989342E0,8.822902679E0,-1.077423692E-1
2.404028099E0,-3.605777979E0,8.820508003E0,-9.098244458E-2
2.406028065E0,-3.624932051E0,8.830085754E0,-6.703969836E-2
2.408028031E0,-3.632114887E0,8.889942169E0,-6.225114316E-2
2.410027997E0,-3.636903524E0,8.911490440E0,-7.661679387E-2
2.412027963E0,-3.644086361E0,8.961771011E0,-1.101366431E-1
2.414027929E0,-3.648874760E0,9.019232750E0,-1.556278616E-1
2.416027929E0,-3.653663397E0,9.038387299E0,-1.819648892E-1
2.418027929E0,-3.680000305E0,9.074301720E0,-2.202732861E-1
2.420027929E0,-3.713520288E0,9.115004539E0,-2.346389294E-1
2.422027929E0,-3.735068798E0,9.126976013E0,-2.298503816E-1
2.424027929E0,-3.770982742E0,9.165284157E0,-2.490045726E-1
2.426027929E0,-3.797319889E0,9.194015503E0,-2.753416002E-1
2.428027929E0,-3.816473961E0,9.208380699E0,-2.921015322E-1
2.430027929E0,-3.866753817E0,9.244295120E0,-3.304099143E-1
2.432027929E0,-3.888302326E0,9.253871918E0,-3.639297783E-1
2.434027929E0,-3.940976381E0,9.284997940E0,-3.998439014E-1
2.436027929E0,-3.972101927E0,9.330489159E0,-4.740664065E-1
2.438027929E0,-3.991255999E0,9.359220505E0,-5.099805593E-1
2.440027929E0,-4.010410309E0,9.416683197E0,-5.865973234E-1
2.442027929E0,-4.005621910E0,9.490905762E0,-6.584255695E-1
2.444027929E0,-4.003227711E0,9.514847755E0,-6.895511150E-1
2.446027929E0,-3.991255999E0,9.577098846E0,-7.230709791E-1
2.448027895E0,-4.003227711E0,9.608224869E0,-7.350423932E-1
2.450027895E0,-3.988861799E0,9.608224869E0,-7.398309112E-1
2.452027895E0,-3.964919090E0,9.613013268E0,-7.350423932E-1
2.454027895E0,-3.950553417E0,9.605830193E0,-7.302538157E-1
2.456027895E0,-3.919427872E0,9.574705124E0,-7.470137477E-1
2.458027895E0,-3.907456398E0,9.562733650E0,-7.422251701E-1
2.460027895E0,-3.905062199E0,9.553156853E0,-7.541965842E-1
2.462027895E0,-3.890696526E0,9.550762177E0,-7.541965842E-1
2.464027928E0,-3.873936653E0,9.557945251E0,-7.541965842E-1
2.466027928E0,-3.869148016E0,9.569916725E0,-7.589851022E-1
2.468027928E0,-3.873936653E0,9.596253395E0,-7.589851022E-1
2.470027928E0,-3.842811108E0,9.629773140E0,-7.541965842E-1
2.472027928E0,-3.830839634E0,9.651321411E0,-7.589851022E-1
2.474027928E0,-3.792531252E0,9.680052757E0,-7.613793612E-1
2.476027928E0,-3.768588543E0,9.687235832E0,-7.757450342E-1
2.478027928E0,-3.763799906E0,9.677659035E0,-8.379961848E-1
2.480027928E0,-3.778165579E0,9.653716087E0,-8.810931444E-1
2.482027928E0,-3.782954216E0,9.632167816E0,-9.098244309E-1
2.484027928E0,-3.780560017E0,9.601041794E0,-1.000806928E0
2.486027928E0,-3.811685562E0,9.565128326E0,-1.070240855E0
2.488027928E0,-3.821262598E0,9.536396980E0,-1.103760719E0
2.490027928E0,-3.849993944E0,9.514847755E0,-1.197137356E0
2.492027928E0,-3.897879362E0,9.500482559E0,-1.285725594E0
2.494027928E0,-3.919427872E0,9.498087883E0,-1.312062621E0
2.496027961E0,-3.974496126E0,9.514847755E0,-1.371919513E0
2.498027994E0,-4.022381783E0,9.519637108E0,-1.412622094E0
2.500028027E0,-4.046324253E0,9.543579102E0,-1.448536277E0
2.502028060E0,-4.079844475E0,9.562733650E0,-1.465296149E0
2.504028093E0,-4.087027073E0,9.567522049E0,-1.474873304E0
2.506028126E0,-4.094210148E0,9.557945251E0,-1.470084786E0
2.508028159E0,-4.130124092E0,9.531607628E0,-1.465296149E0
2.510028159E0,-4.142095566E0,9.517242432E0,-1.472478986E0
2.512028125E0,-4.146883965E0,9.462174416E0,-1.479661822E0
2.514028091E0,-4.182797909E0,9.395133972E0,-1.482056141E0
2.516028057E0,-4.206740856E0,9.361614227E0,-1.479661822E0
2.518028023E0,-4.235472202E0,9.294574738E0,-1.491633177E0
2.520027989E0,-4.252232075E0,9.251478195E0,-1.489238977E0
2.522027955E0,-4.261809349E0,9.222746849E0,-1.491633177E0
2.524027921E0,-4.266597748E0,9.189227104E0,-1.467690468E0
2.526027921E0,-4.266597748E0,9.184437752E0,-1.477267504E0
2.528027921E0,-4.278569221E0,9.167677879E0,-1.491633177E0
2.530027921E0,-4.319271564E0,9.158101082E0,-1.486844659E0
2.532027921E0,-4.338426113E0,9.143735886E0,-1.491633177E0
2.534027921E0,-4.369551659E0,9.107821465E0,-1.491633177E0
2.536027921E0,-4.376734257E0,9.064723969E0,-1.474873304E0
2.538027921E0,-4.369551659E0,9.040781975E0,-1.484450340E0
2.540027954E0,-4.338426113E0,8.990502357E0,-1.505998850E0
2.542027954E0,-4.304905891E0,8.968953133E0,-1.534730196E0
2.544027987E0,-4.290540695E0,8.909096718E0,-1.537124395E0
2.546028020E0,-4.264203548E0,8.868393898E0,-1.522758722E0
2.548028053E0,-4.266597748E0,8.854028702E0,-1.508393168E0
2.550028086E0,-4.273780346E0,8.815719604E0,-1.494027495E0
2.552028119E0,-4.271386147E0,8.789382935E0,-1.491633177E0
2.554028152E0,-4.278569221E0,8.767834663E0,-1.484450340E0
2.556028152E0,-4.297723293E0,8.734314919E0,-1.453324795E0
2.558028152E0,-4.297723293E0,8.691217422E0,-1.441353440E0
2.560028118E0,-4.307300568E0,8.674457550E0,-1.419804931E0
2.562028084E0,-4.331243038E0,8.614601135E0,-1.374313712E0
2.564028050E0,-4.350397110E0,8.559532166E0,-1.340793848E0
2.566028016E0,-4.355185986E0,8.533195496E0,-1.314456820E0
2.568027982E0,-4.362368584E0,8.468549728E0,-1.292908430E0
2.570027948E0,-4.348002911E0,8.425453186E0,-1.283331275E0
2.572027948E0,-4.316877365E0,8.370385170E0,-1.328822494E0
2.574027948E0,-4.316877365E0,8.315316200E0,-1.417410731E0
2.576027948E0,-4.333637238E0,8.284191132E0,-1.465296149E0
2.578027948E0,-4.371945858E0,8.221940041E0,-1.537124395E0
2.580027948E0,-4.412648678E0,8.145322800E0,-1.558672905E0
2.582027948E0,-4.424619675E0,8.118986130E0,-1.541913033E0
2.584027948E0,-4.369551659E0,8.099831581E0,-1.501210332E0
2.586027948E0,-4.259414673E0,8.087860107E0,-1.477267504E0
2.588027948E0,-4.221106529E0,8.080677032E0,-1.496421814E0
2.590027948E0,-4.225894928E0,8.068706512E0,-1.613741279E0
2.592027948E0,-4.249837875E0,8.054340363E0,-1.666415215E0
2.594027948E0,-4.319271564E0,7.996877670E0,-1.750214934E0
2.596027948E0,-4.376734257E0,7.922655106E0,-1.762186289E0
2.598027948E0,-4.393494129E0,7.884346962E0,-1.731060743E0
2.600027914E0,-4.427014351E0,7.812518597E0,-1.680780888E0
2.602027914E0,-4.448562622E0,7.790970325E0,-1.642472506E0
2.604027880E0,-4.455745220E0,7.778998852E0,-1.640078187E0
2.606027880E0,-4.455745220E0,7.757450581E0,-1.654443860E0
2.608027880E0,-4.448562622E0,7.731113434E0,-1.697540879E0
2.610027880E0,-4.443774223E0,7.716747761E0,-1.731060743E0
2.612027880E0,-4.419831276E0,7.671256542E0,-1.798100352E0
2.614027880E0,-4.410254002E0,7.644919395E0,-1.836408734E0
2.616027880E0,-4.417437077E0,7.573091030E0,-1.913025618E0
2.618027880E0,-4.446168423E0,7.503657341E0,-1.965699673E0
2.620027913E0,-4.462928295E0,7.470137596E0,-1.953728199E0
2.622027913E0,-4.508419514E0,7.412674904E0,-1.956122518E0
2.624027913E0,-4.558699131E0,7.374366283E0,-1.936968327E0
2.626027913E0,-4.580247879E0,7.357606411E0,-1.936968327E0
2.628027913E0,-4.676018715E0,7.314509392E0,-1.956122518E0
2.630027913E0,-4.726298332E0,7.288172722E0,-1.987248063E0
2.632027913E0,-4.750241280E0,7.273807049E0,-2.006402254E0
2.634027913E0,-4.790944099E0,7.257047176E0,-2.035133600E0
2.636027913E0,-4.805309772E0,7.247469902E0,-2.051893473E0
2.638027913E0,-4.826858044E0,7.230710030E0,-2.104567528E0
2.640027913E0,-4.843617916E0,7.216344357E0,-2.188367128E0
2.642027913E0,-4.860377789E0,7.211555958E0,-2.229069948E0
2.644027913E0,-4.908263206E0,7.225921154E0,-2.281744003E0
2.646027913E0,-4.948966026E0,7.209161282E0,-2.279349566E0
2.648027913E0,-4.975303173E0,7.206767082E0,-2.281744003E0
2.650027913E0,-5.049525738E0,7.192401409E0,-2.281744003E0
2.652027913E0,-5.111776829E0,7.163670063E0,-2.322446585E0
2.654027946E0,-5.150084972E0,7.154093266E0,-2.341600657E0
2.656027979E0,-5.205153465E0,7.137333393E0,-2.377514839E0
2.658028012E0,-5.272192955E0,7.125361919E0,-2.391880512E0
2.660028045E0,-5.310501575E0,7.101418972E0,-2.418217659E0
2.662028078E0,-5.375146866E0,7.096630573E0,-2.430188894E0
2.664028111E0,-5.411061287E0,7.099024773E0,-2.418217659E0
2.666028111E0,-5.458946705E0,7.082264900E0,-2.394274712E0
2.668028077E0,-5.497254848E0,7.084659100E0,-2.348783493E0
2.670028043E0,-5.514014721E0,7.079870701E0,-2.336812258E0
2.672028009E0,-5.518803596E0,7.079870701E0,-2.329629421E0
2.674027942E0,-5.494860649E0,7.043956280E0,-2.334417820E0
2.676027908E0,-5.470917702E0,7.027196407E0,-2.339206457E0
2.678027874E0,-5.449369431E0,6.993676662E0,-2.341600657E0
2.680027840E0,-5.478100777E0,6.979310989E0,-2.346389294E0
2.682027840E0,-5.521197796E0,6.952973843E0,-2.367937803E0
2.684027840E0,-5.614574432E0,6.960156918E0,-2.372726440E0
2.686027840E0,-5.655277252E0,6.967339516E0,-2.377514839E0
2.688027840E0,-5.722316742E0,6.967339516E0,-2.375120640E0
2.690027840E0,-5.794145107E0,6.979310989E0,-2.394274712E0
2.692027840E0,-5.810904980E0,6.991282463E0,-2.406246185E0
2.694027840E0,-5.856396198E0,7.010436535E0,-2.430188894E0
2.696027840E0,-5.885127544E0,7.020013809E0,-2.480468750E0
2.698027840E0,-5.913858891E0,7.024802208E0,-2.518777132E0
2.700027873E0,-5.968926907E0,7.031985283E0,-2.612153769E0
2.702027906E0,-5.990475655E0,7.031985283E0,-2.698347807E0
2.704027939E0,-6.004841328E0,7.020013809E0,-2.734261751E0
2.706027972E0,-6.009629726E0,7.031985283E0,-2.779752970E0
2.708028005E0,-6.016812801E0,7.022408009E0,-2.798907280E0
2.710028038E0,-6.076669693E0,7.003253937E0,-2.801301479E0
2.712028071E0,-6.138920784E0,6.991282463E0,-2.806090117E0
2.714028071E0,-6.162863255E0,7.005648136E0,-2.796513081E0
2.716028037E0,-6.241874218E0,7.034379482E0,-2.796513081E0
2.718028003E0,-6.313702583E0,7.084659100E0,-2.818061352E0
2.720027969E0,-6.344828129E0,7.110996246E0,-2.825244188E0
2.722027935E0,-6.397502422E0,7.149304390E0,-2.834821463E0
2.724027901E0,-6.440599442E0,7.187613010E0,-2.839609861E0
2.726027867E0,-6.445387840E0,7.206767082E0,-2.846792698E0
2.728027867E0,-6.428627968E0,7.225921154E0,-2.839609861E0
2.730027867E0,-6.428627968E0,7.228315830E0,-2.825244188E0
2.732027867E0,-6.438204765E0,7.221132755E0,-2.801301479E0
2.734027900E0,-6.445387840E0,7.201978683E0,-2.746233225E0
2.736027900E0,-6.454965115E0,7.190007210E0,-2.715107679E0
2.738027900E0,-6.466936111E0,7.166064739E0,-2.628913641E0
2.740027900E0,-6.469330311E0,7.149304390E0,-2.564268351E0
2.742027900E0,-6.462147713E0,7.132544518E0,-2.540325642E0
2.744027900E0,-6.440599442E0,7.113390446E0,-2.513988495E0
2.746027900E0,-6.375953674E0,7.115784645E0,-2.506805658E0
2.748027900E0,-6.347222328E0,7.108602047E0,-2.516382933E0
2.750027900E0,-6.301731110E0,7.115784645E0,-2.554691315E0
2.752027900E0,-6.280182838E0,7.120573044E0,-2.573845387E0
2.754027900E0,-6.261028767E0,7.106207848E0,-2.597788095E0
2.756027900E0,-6.280182838E0,7.077476501E0,-2.585816860E0
2.758027900E0,-6.282577038E0,7.075081825E0,-2.576239586E0
2.760027866E0,-6.275394440E0,7.070293427E0,-2.573845387E0
2.762027866E0,-6.287365437E0,7.034379482E0,-2.592999697E0
2.764027866E0,-6.287365437E0,7.024802208E0,-2.607365370E0
2.766027866E0,-6.272999763E0,6.967339516E0,-2.645673752E0
2.768027866E0,-6.258634567E0,6.938608170E0,-2.707924843E0
2.770027866E0,-6.229903221E0,6.933819771E0,-2.736656189E0
2.772027866E0,-6.182017326E0,6.893116951E0,-2.796513081E0
2.774027866E0,-6.146103382E0,6.871568680E0,-2.827638626E0
2.776027899E0,-6.064698219E0,6.830865860E0,-2.921015263E0
2.778027899E0,-6.035966873E0,6.794951916E0,-3.011997700E0
2.780027899E0,-6.016812801E0,6.773403645E0,-3.038334846E0
2.782027899E0,-5.964138508E0,6.737489223E0,-3.095797300E0
2.784027899E0,-5.942590237E0,6.713546753E0,-3.136499882E0
2.786027899E0,-5.923435688E0,6.701575279E0,-3.146077156E0
2.788027899E0,-5.854001999E0,6.699181080E0,-3.162837029E0
2.790027899E0,-5.803721905E0,6.703969479E0,-3.244242430E0
2.792027899E0,-5.789356709E0,6.687209606E0,-3.270579338E0
2.794027899E0,-5.763019562E0,6.675238132E0,-3.272973776E0
2.796027899E0,-5.741470814E0,6.668055534E0,-3.263396502E0
2.798027899E0,-5.698374271E0,6.660872459E0,-3.251425266E0
2.800027899E0,-5.657671452E0,6.653689861E0,-3.217905283E0
2.802027899E0,-5.619362831E0,6.629746914E0,-3.186779737E0
2.804027899E0,-5.552323341E0,6.601015568E0,-3.126922846E0
2.806027899E0,-5.514014721E0,6.562707424E0,-3.074248791E0
2.808027899E0,-5.487678051E0,6.543552876E0,-3.045517445E0
2.810027932E0,-5.415849686E0,6.522004604E0,-3.055094719E0
2.812027965E0,-5.334444046E0,6.495667458E0,-3.086220264E0
2.814027998E0,-5.300924301E0,6.481301785E0,-3.076643229E0
2.816028031E0,-5.236279011E0,6.471724987E0,-3.038334846E0
2.818028064E0,-5.142902374E0,6.476513386E0,-3.019180536E0
2.820028097E0,-5.092622280E0,6.447782040E0,-2.966506481E0
2.822028097E0,-5.006428719E0,6.433416367E0,-2.928198099E0
2.824028063E0,-4.960937500E0,6.426233768E0,-2.930592299E0
2.826028029E0,-4.891503334E0,6.421444893E0,-2.954535007E0
2.828027995E0,-4.834040642E0,6.404685020E0,-2.964112282E0
2.830027961E0,-4.812492371E0,6.373559475E0,-2.971295118E0
2.832027927E0,-4.771789551E0,6.316096783E0,-2.997632027E0
2.834027893E0,-4.757423878E0,6.249057293E0,-3.059883118E0
2.836027859E0,-4.745452881E0,6.222720146E0,-3.091008663E0
2.838027859E0,-4.714327335E0,6.155680656E0,-3.162837029E0
2.840027859E0,-4.707144260E0,6.138920784E0,-3.222693920E0
2.842027859E0,-4.695172787E0,6.069486618E0,-3.356773376E0
2.844027859E0,-4.676018715E0,6.040755272E0,-3.474092722E0
2.846027859E0,-4.680807114E0,6.050332546E0,-3.517189741E0
2.848027859E0,-4.680807114E0,6.098217964E0,-3.603383541E0
2.850027859E0,-4.685595989E0,6.186806202E0,-3.689577579E0
2.852027859E0,-4.695172787E0,6.239480019E0,-3.735068798E0
2.854027859E0,-4.711932659E0,6.340039730E0,-3.797319889E0
2.856027892E0,-4.726298332E0,6.411868095E0,-3.842811108E0
2.858027925E0,-4.735875607E0,6.433416367E0,-3.835628271E0
2.860027958E0,-4.747847080E0,6.469330311E0,-3.847599506E0
2.862027991E0,-4.747847080E0,6.488484859E0,-3.842811108E0
2.864028024E0,-4.747847080E0,6.562707424E0,-3.835628271E0
2.866028057E0,-4.750241280E0,6.593832970E0,-3.828445435E0
2.868028090E0,-4.752635479E0,6.565101624E0,-3.823656797E0
2.870028090E0,-4.728692532E0,6.548341751E0,-3.847599506E0
2.872028056E0,-4.690384388E0,6.581861496E0,-3.852388144E0
2.874028022E0,-4.671230316E0,6.603409767E0,-3.861965179E0
2.876027988E0,-4.608979225E0,6.701575279E0,-3.912245035E0
2.878027954E0,-4.582642078E0,6.830865860E0,-3.960130453E0
2.880027920E0,-4.575459003E0,6.885934353E0,-3.974496126E0
2.882027886E0,-4.585036278E0,6.969734192E0,-3.976890564E0
2.884027886E0,-4.597007751E0,7.000859737E0,-3.998438835E0
2.886027886E0,-4.613767624E0,7.034379482E0,-4.003227711E0
2.888027886E0,-4.635315895E0,7.070293427E0,-4.024775982E0
2.890027886E0,-4.649681568E0,7.084659100E0,-4.034353256E0
2.892027886E0,-4.654470444E0,7.134938717E0,-4.039141655E0
2.894027886E0,-4.644893169E0,7.213950157E0,-4.034353256E0
2.896027886E0,-4.637710094E0,7.237892628E0,-4.036747456E0
2.898027886E0,-4.611373425E0,7.326480865E0,-4.051113129E0
2.900027886E0,-4.594613552E0,7.419857502E0,-4.079844475E0
2.902027886E0,-4.597007751E0,7.460560322E0,-4.084632874E0
2.904027919E0,-4.592218876E0,7.549148560E0,-4.084632874E0
2.906027919E0,-4.592218876E0,7.594639778E0,-4.130124092E0
2.908027919E0,-4.597007751E0,7.606611252E0,-4.122941017E0
2.910027919E0,-4.599401951E0,7.616188049E0,-4.122941017E0
2.912027919E0,-4.611373425E0,7.611399651E0,-4.130124092E0
2.914027919E0,-4.611373425E0,7.611399651E0,-4.146883965E0
2.916027885E0,-4.594613552E0,7.632947922E0,-4.161249638E0
2.918027885E0,-4.587430477E0,7.642525196E0,-4.192375183E0
2.920027885E0,-4.573064804E0,7.656890869E0,-4.290540695E0
2.922027885E0,-4.532361984E0,7.704776287E0,-4.379128456E0
2.924027885E0,-4.525179386E0,7.747873306E0,-4.391099930E0
2.926027885E0,-4.510813713E0,7.817307472E0,-4.460534096E0
2.928027885E0,-4.517996788E0,7.855615616E0,-4.508419514E0
2.930027885E0,-4.532361984E0,7.874769688E0,-4.541939259E0
2.932027918E0,-4.549122334E0,7.915472507E0,-4.582642078E0
2.934027918E0,-4.546727657E0,7.946598053E0,-4.585036278E0
2.936027918E0,-4.563488007E0,7.992089272E0,-4.565882206E0
2.938027918E0,-4.575459003E0,8.047157288E0,-4.501236439E0
2.940027918E0,-4.580247879E0,8.075888634E0,-4.465322495E0
2.942027918E0,-4.611373425E0,8.174054146E0,-4.319271564E0
2.944027918E0,-4.592218876E0,8.284191132E0,-4.154066563E0
2.946027918E0,-4.546727657E0,8.332076073E0,-4.098998547E0
2.948027918E0,-4.438985348E0,8.370385170E0,-3.986467600E0
2.950027918E0,-4.283357620E0,8.363202095E0,-3.952947617E0
2.952027918E0,-4.235472202E0,8.348835945E0,-3.952947617E0
2.954027918E0,-4.206740856E0,8.255459785E0,-3.964919090E0
2.956027918E0,-4.225894928E0,8.205180168E0,-3.952947617E0
2.958027918E0,-4.273780346E0,8.157294273E0,-3.873936653E0
2.960027918E0,-4.321666241E0,8.221940041E0,-3.759011507E0
2.962027918E0,-4.338426113E0,8.238699913E0,-3.720703125E0
2.964027884E0,-4.374340057E0,8.300951004E0,-3.677606106E0
2.966027917E0,-4.422225475E0,8.382355690E0,-3.653663397E0
2.968027950E0,-4.470110893E0,8.418270111E0,-3.646480560E0
2.970027983E0,-4.553910732E0,8.487704277E0,-3.617749214E0
2.972028016E0,-4.637710094E0,8.545166969E0,-3.581835032E0
2.974028049E0,-4.654470444E0,8.564320564E0,-3.572257996E0
2.976028082E0,-4.661653042E0,8.571503639E0,-3.579440832E0
2.978028082E0,-4.649681568E0,8.564320564E0,-3.579440832E0
2.980028082E0,-4.642498970E0,8.545166969E0,-3.541132450E0
2.982028048E0,-4.623344421E0,8.497281075E0,-3.459727049E0
2.984028014E0,-4.594613552E0,8.504464149E0,-3.402264595E0
2.986027980E0,-4.541939259E0,8.458972931E0,-3.294522047E0
2.988027946E0,-4.484476566E0,8.399115562E0,-3.215511084E0
2.990027912E0,-4.467716694E0,8.346442223E0,-3.158048391E0
2.992027878E0,-4.462928295E0,8.310527802E0,-3.007209063E0
2.994027878E0,-4.424619675E0,8.324893951E0,-2.873129845E0
2.996027878E0,-4.415042877E0,8.310527802E0,-2.813272953E0
2.998027878E0,-4.415042877E0,8.293767929E0,-2.650462151E0
3.000027878E0,-4.441379547E0,8.267431259E0,-2.571451187E0
3.002027878E0,-4.446168423E0,8.217150688E0,-2.490045786E0
3.004027878E0,-4.429408550E0,8.162082672E0,-2.442160368E0
3.006027878E0,-4.424619675E0,8.130957603E0,-2.418217659E0
3.008027878E0,-4.379128456E0,8.095043182E0,-2.406246185E0
3.010027878E0,-4.312088966E0,8.044763565E0,-2.413429022E0
3.012027911E0,-4.268991947E0,8.018425941E0,-2.413429022E0
3.014027944E0,-4.194769382E0,7.987300873E0,-2.454131603E0
3.016027977E0,-4.130124092E0,7.937020779E0,-2.542719841E0
3.018028010E0,-4.098998547E0,7.922655106E0,-2.592999697E0
3.020028043E0,-4.079844475E0,7.853221416E0,-2.717501879E0
3.022028076E0,-4.036747456E0,7.829278469E0,-2.863552570E0
3.024028109E0,-4.024775982E0,7.858009815E0,-2.930592299E0
3.026028109E0,-3.988861799E0,7.908289909E0,-3.093403101E0
3.028028075E0,-3.962524891E0,7.960963726E0,-3.201145411E0
3.030028041E0,-3.938581944E0,8.075888634E0,-3.454938650E0
3.032028007E0,-3.931399345E0,8.109408379E0,-3.723097324E0
3.034027973E0,-3.921822071E0,8.150111198E0,-3.842811108E0
3.036027939E0,-3.912245035E0,8.214756966E0,-4.082238674E0
3.038027905E0,-3.864359617E0,8.324893951E0,-4.252232075E0
3.040027871E0,-3.854782343E0,8.377567291E0,-4.316877365E0
3.042027871E0,-3.881119490E0,8.439818382E0,-4.410254002E0
3.044027871E0,-3.943370581E0,8.420664787E0,-4.427014351E0
3.046027871E0,-3.957736254E0,8.420664787E0,-4.427014351E0
3.048027871E0,-4.063084126E0,8.430241585E0,-4.355185986E0
3.050027871E0,-4.156461239E0,8.408693314E0,-4.307300568E0
3.052027871E0,-4.300117493E0,8.408693314E0,-4.261809349E0
3.054027871E0,-4.395888329E0,8.482915878E0,-4.235472202E0
3.056027871E0,-4.448562622E0,8.475732803E0,-4.259414673E0
3.058027871E0,-4.551516533E0,8.425453186E0,-4.283357620E0
3.060027871E0,-4.632921696E0,8.375173569E0,-4.297723293E0
3.062027871E0,-4.676018715E0,8.387145042E0,-4.276175022E0
3.064027871E0,-4.714327335E0,8.451789856E0,-4.292934895E0
3.066027871E0,-4.769395351E0,8.447001457E0,-4.324060440E0
3.068027871E0,-4.800520897E0,8.430241585E0,-4.321666241E0
3.070027871E0,-4.824463844E0,8.401510239E0,-4.312088966E0
3.072027837E0,-4.865166187E0,8.365595818E0,-4.297723293E0
3.074027837E0,-4.956148624E0,8.336864471E0,-4.223500729E0
3.076027837E0,-5.080651283E0,8.267431259E0,-4.144489765E0
3.078027837E0,-5.130930901E0,8.243488312E0,-4.113364220E0
3.080027837E0,-5.202759266E0,8.152505875E0,-4.058295727E0
3.082027837E0,-5.267404556E0,8.028003693E0,-3.988861799E0
3.084027837E0,-5.267404556E0,8.013637543E0,-3.969707727E0
3.086027837E0,-5.243461609E0,7.980117798E0,-3.924216509E0
3.088027870E0,-5.241067410E0,7.994483471E0,-3.924216509E0
3.090027870E0,-5.238673210E0,7.999272346E0,-3.929004908E0
3.092027870E0,-5.221913338E0,8.032792091E0,-3.940976381E0
3.094027870E0,-5.202759266E0,8.090254784E0,-3.967313290E0
3.096027870E0,-5.174027920E0,8.243488312E0,-4.019987583E0
3.098027870E0,-5.202759266E0,8.329682350E0,-4.077449799E0
3.100027870E0,-5.212336063E0,8.322499275E0,-4.122941017E0
3.102027870E0,-5.214730740E0,8.324893951E0,-4.161249638E0
3.104027870E0,-5.217124939E0,8.365595818E0,-4.206740856E0
3.106027870E0,-5.224307537E0,8.382355690E0,-4.233078003E0
3.108027870E0,-5.276981831E0,8.372778893E0,-4.338426113E0
3.110027870E0,-5.344021320E0,8.415876389E0,-4.431802750E0
3.112027870E0,-5.355992794E0,8.473338127E0,-4.460534096E0
3.114027870E0,-5.387118340E0,8.581081390E0,-4.517996788E0
3.116027870E0,-5.389512539E0,8.614601135E0,-4.570670605E0
3.118027870E0,-5.399089813E0,8.688823700E0,-4.635315895E0
3.120027870E0,-5.408666611E0,8.770228386E0,-4.671230316E0
3.122027903E0,-5.418243885E0,8.806142807E0,-4.680807114E0
3.124027936E0,-5.461340904E0,8.846845627E0,-4.702355862E0
3.126027969E0,-5.499649048E0,8.825297356E0,-4.714327335E0
3.128028002E0,-5.530774593E0,8.815719604E0,-4.728692532E0
3.130028035E0,-5.569083214E0,8.770228386E0,-4.774183750E0
3.132028068E0,-5.528380394E0,8.815719604E0,-4.848406315E0
3.134028068E0,-5.514014721E0,8.837267876E0,-4.889109135E0
3.136028068E0,-5.535563469E0,8.842057228E0,-4.946571827E0
3.138028034E0,-5.569083214E0,8.827691078E0,-4.951360226E0
3.140028000E0,-5.648094177E0,8.765439987E0,-4.941783428E0
3.140239156E0,-5.727105141E0,8.705583572E0,-4.898686409E0
3.142239122E0,-5.770202160E0,8.693612099E0,-4.893897533E0
3.144239088E0,-5.885127544E0,8.710371971E0,-4.869955063E0
3.146239054E0,-6.043149471E0,8.662486076E0,-4.865166187E0
3.148239054E0,-6.105400562E0,8.624177933E0,-4.879531860E0
3.150239054E0,-6.174834728E0,8.478127480E0,-4.968120098E0
3.152239054E0,-6.203566074E0,8.384750366E0,-5.018400192E0
3.154239054E0,-6.225114346E0,8.351230621E0,-5.042342663E0
3.156239054E0,-6.304125786E0,8.305739403E0,-5.116565228E0
3.158239054E0,-6.431022167E0,8.293767929E0,-5.193181992E0
3.160239054E0,-6.507638931E0,8.262641907E0,-5.332049847E0
3.162239054E0,-6.608198643E0,8.308133125E0,-5.492466450E0
3.164239054E0,-6.656084061E0,8.344047546E0,-5.569083214E0
3.166239087E0,-6.747066498E0,8.442213058E0,-5.724710941E0
3.168239120E0,-6.835654736E0,8.403904915E0,-5.861184597E0
3.170239153E0,-6.902694225E0,8.277008057E0,-5.858790398E0
3.172239186E0,-6.950579643E0,8.001666069E0,-5.758230686E0
3.174239219E0,-6.711152077E0,8.035185814E0,-5.619362831E0
3.176239252E0,-6.507638931E0,8.200390816E0,-5.549929142E0
3.178239285E0,-6.062304020E0,8.696005821E0,-5.427821159E0
3.180239285E0,-5.717528343E0,8.959376335E0,-5.344021320E0
3.182239251E0,-5.573871613E0,9.364008904E0,-5.111776829E0
3.184239217E0,-5.336838722E0,9.605830193E0,-4.807703972E0
3.186239183E0,-5.221913338E0,9.668081284E0,-4.635315895E0
3.188239149E0,-5.016005516E0,9.715967178E0,-4.247443676E0
3.190239115E0,-4.829252243E0,9.644139290E0,-3.847599506E0
3.192239081E0,-4.745452881E0,9.591464996E0,-3.670423269E0
3.194239047E0,-4.589824677E0,9.447808266E0,-3.383110285E0
3.196239047E0,-4.484476566E0,9.294574738E0,-3.150865555E0
3.198239047E0,-4.424619675E0,9.215563774E0,-3.059883118E0
3.200239047E0,-4.304905891E0,9.079090118E0,-2.906649590E0
3.202239047E0,-4.197163582E0,9.021627426E0,-2.772570133E0
3.204239047E0,-4.149278164E0,8.925856590E0,-2.712713242E0
3.206239047E0,-4.087027073E0,8.851634026E0,-2.571451187E0
3.208239047E0,-4.051113129E0,8.820508003E0,-2.494834423E0
3.210239047E0,-3.974496126E0,8.758256912E0,-2.310475111E0
3.212239047E0,-3.890696526E0,8.736708641E0,-2.166818619E0
3.214239047E0,-3.835628271E0,8.719948769E0,-2.097384691E0
3.216239047E0,-3.703943014E0,8.650514603E0,-1.999219418E0
3.218239047E0,-3.567469358E0,8.559532166E0,-1.927391171E0
3.220239047E0,-3.478881359E0,8.504464149E0,-1.903448462E0
3.222239047E0,-3.325647593E0,8.377567291E0,-1.877111435E0
3.224239047E0,-3.217905283E0,8.298556328E0,-1.898659945E0
3.226239013E0,-3.179596901E0,8.154899597E0,-1.922602654E0
3.228238979E0,-3.112557173E0,8.004060745E0,-1.992036581E0
3.230238979E0,-3.105374336E0,7.932232380E0,-2.015979290E0
3.232238979E0,-3.119740009E0,7.807730198E0,-2.059076309E0
3.234238979E0,-3.126922846E0,7.688016415E0,-2.094990492E0
3.236238979E0,-3.124528646E0,7.630553722E0,-2.097384691E0
3.238238979E0,-3.146077156E0,7.527599812E0,-2.087807655E0
3.240238979E0,-3.167625666E0,7.455771923E0,-2.087807655E0
3.242239012E0,-3.179596901E0,7.417463303E0,-2.087807655E0
3.244239012E0,-3.184385538E0,7.352818012E0,-2.094990492E0
3.246239012E0,-3.184385538E0,7.302538395E0,-2.152452946E0
3.248239012E0,-3.186779737E0,7.278595448E0,-2.200338602E0
3.250239012E0,-3.165231228E0,7.233104229E0,-2.339206457E0
3.252239012E0,-3.167625666E0,7.218738556E0,-2.406246185E0
3.254239012E0,-3.210722446E0,7.146910191E0,-2.590605259E0
3.256239012E0,-3.289733648E0,7.082264900E0,-2.803695917E0
3.258239045E0,-3.316070557E0,7.053533554E0,-2.921015263E0
3.260239045E0,-3.366350412E0,7.022408009E0,-3.160442829E0
3.262239045E0,-3.423812866E0,7.000859737E0,-3.373533249E0
3.264239045E0,-3.452544212E0,6.996070862E0,-3.450150013E0
3.266239045E0,-3.514795303E0,7.003253937E0,-3.565075159E0
3.268239045E0,-3.612960577E0,7.017619610E0,-3.577046633E0
3.270239045E0,-3.648874760E0,7.029590607E0,-3.567469358E0
3.272239045E0,-3.720703125E0,7.079870701E0,-3.536343813E0
3.274239045E0,-3.761405706E0,7.099024773E0,-3.538738251E0
3.276239078E0,-3.809291124E0,7.079870701E0,-3.581835032E0
3.278239111E0,-3.871542454E0,7.027196407E0,-3.672817469E0
3.280239144E0,-3.890696526E0,6.986494064E0,-3.725491524E0
3.282239177E0,-3.921822071E0,6.912271500E0,-3.835628271E0
3.284239210E0,-3.950553417E0,6.857203007E0,-3.957736254E0
3.286239243E0,-3.969707727E0,6.835654736E0,-4.041535854E0
3.288239276E0,-4.019987583E0,6.742278099E0,-4.189980984E0
3.290239276E0,-4.312088966E0,6.026389599E0,-4.257020473E0
3.292239242E0,-4.242654800E0,5.954561234E0,-4.297723293E0
3.294239208E0,-3.840416908E0,6.359193802E0,-4.491659641E0
3.296239174E0,-3.624932051E0,6.672843933E0,-4.594613552E0
3.298239140E0,-3.351984739E0,7.283383846E0,-4.676018715E0
3.300239106E0,-3.380716085E0,7.711959362E0,-4.699961662E0
3.302239072E0,-3.447755814E0,7.824490070E0,-4.702355862E0
3.304239072E0,-3.644086361E0,7.896318436E0,-4.661653042E0
3.306239072E0,-3.864359617E0,7.767027378E0,-4.589824677E0
3.308239105E0,-3.960130453E0,7.673650742E0,-4.577853203E0
3.310239105E0,-4.070267200E0,7.494080067E0,-4.611373425E0
3.312239105E0,-4.098998547E0,7.448588848E0,-4.788549423E0
3.314239105E0,-4.098998547E0,7.482108593E0,-4.910657406E0
3.316239105E0,-4.137306690E0,7.680833817E0,-5.185999393E0
3.318239071E0,-4.173221111E0,7.826884270E0,-5.317684174E0
3.320239071E0,-4.268991947E0,8.174054146E0,-5.535563469E0
3.322239104E0,-4.410254002E0,8.425453186E0,-5.638517380E0
3.324239137E0,-4.462928295E0,8.549955368E0,-5.638517380E0
3.326239170E0,-4.522785187E0,8.791776657E0,-5.604997158E0
3.328239203E0,-4.462928295E0,9.057541847E0,-5.554717541E0
3.330239236E0,-4.462928295E0,9.112609863E0,-5.540351868E0
3.332239269E0,-4.400677204E0,9.232323647E0,-5.521197796E0
3.334239302E0,-4.254626274E0,9.366402626E0,-5.451763630E0
3.336239302E0,-4.194769382E0,9.409500122E0,-5.396695614E0
3.338239268E0,-4.134912491E0,9.445414543E0,-5.248250484E0
3.340239234E0,-4.091815472E0,9.431048393E0,-5.166844845E0
3.342239200E0,-4.051113129E0,9.474145889E0,-5.047131062E0
3.344239166E0,-4.017592907E0,9.457385063E0,-4.922628880E0
3.346239132E0,-3.991255999E0,9.373585701E0,-4.853195190E0
3.348239098E0,-3.849993944E0,9.284997940E0,-4.735875607E0
3.350239064E0,-3.682394743E0,9.184437752E0,-4.628133297E0
3.352239064E0,-3.577046633E0,9.155706406E0,-4.568276405E0
3.354239064E0,-3.340013266E0,9.177255630E0,-4.446168423E0
3.356239064E0,-3.124528646E0,9.435836792E0,-3.948159218E0
3.358239064E0,-3.050306082E0,9.656110764E0,-3.866753817E0
3.360239064E0,-3.055094719E0,9.950606346E0,-3.986467600E0
3.362239064E0,-3.167625666E0,1.007989693E1,-4.302511692E0
3.364239064E0,-3.292127848E0,1.033847904E1,-4.491659641E0
3.366239064E0,-3.773377180E0,1.037439251E1,-4.604190350E0
3.368239030E0,-4.048718929E0,1.033129597E1,-4.608979225E0
3.370239030E0,-4.534756660E0,1.011581135E1,-4.695172787E0
3.372239030E0,-4.968120098E0,9.656110764E0,-4.369551659E0
3.374239030E0,-5.109382629E0,9.414288521E0,-4.261809349E0
3.376239030E0,-5.128536701E0,9.115004539E0,-4.472505569E0
3.378239030E0,-4.867560863E0,9.150918007E0,-5.226701736E0
3.380239030E0,-4.735875607E0,9.246688843E0,-5.724710941E0
3.382238996E0,-4.699961662E0,9.457385063E0,-6.124555111E0
3.384238962E0,-4.922628880E0,9.534002304E0,-5.609786034E0
3.386238962E0,-5.001639843E0,9.603436470E0,-5.286558628E0
3.388238962E0,-4.939388752E0,9.639349937E0,-4.764606953E0
3.390238962E0,-4.817280769E0,9.656110764E0,-4.676018715E0
3.392238962E0,-4.551516533E0,9.701601982E0,-4.692778587E0
3.394238962E0,-4.455745220E0,9.790189743E0,-4.482082367E0
3.396238962E0,-4.460534096E0,9.826104164E0,-4.161249638E0
3.398238995E0,-4.561093330E0,9.792584419E0,-3.074248791E0
3.400239028E0,-4.529967785E0,9.658504486E0,-2.238646984E0
3.402239028E0,-4.436591148E0,9.605830193E0,-1.994430900E0
3.404239028E0,-4.149278164E0,9.648927689E0,-1.944151163E0
3.406239028E0,-3.907456398E0,9.766246796E0,-1.927391171E0
3.408239028E0,-3.823656797E0,9.826104164E0,-2.085413456E0
3.410239028E0,-3.689577579E0,9.981731415E0,-2.746233225E0
3.412239028E0,-3.737462997E0,1.006313705E1,-2.889889717E0
3.414239028E0,-3.917033672E0,1.017087936E1,-3.086220264E0
3.416239028E0,-4.134912491E0,1.004398251E1,-2.932986736E0
3.418239028E0,-4.300117493E0,9.689630508E0,-2.411034822E0
3.420239028E0,-4.271386147E0,9.586676598E0,-2.583422422E0
3.422239028E0,-4.079844475E0,9.529213905E0,-3.193962574E0
3.424238994E0,-3.996044636E0,9.522030830E0,-3.404658794E0
3.426238994E0,-3.991255999E0,9.409500122E0,-3.423812866E0
3.428238994E0,-4.060689926E0,9.277814865E0,-3.311282158E0
3.430238994E0,-4.055901527E0,9.208380699E0,-3.371139050E0
3.432239027E0,-4.079844475E0,9.033598900E0,-3.076643229E0
3.434239060E0,-4.082238674E0,8.933039665E0,-2.849187136E0
3.436239093E0,-3.893090725E0,8.727131844E0,-2.748627424E0
3.438239126E0,-3.584229469E0,8.435029984E0,-2.415823221E0
3.440239159E0,-3.471698523E0,8.288979530E0,-2.126116037E0
3.442239192E0,-3.174808502E0,8.126168251E0,-2.262589693E0
3.444239225E0,-2.990449190E0,7.982511997E0,-2.466103077E0
3.446239225E0,-3.033546209E0,7.838855743E0,-2.241041183E0
3.448239191E0,-3.198751211E0,7.522811413E0,-1.711906433E0
3.450239157E0,-3.177202702E0,7.249864101E0,-1.379102230E0
3.452239123E0,-3.067065954E0,7.166064739E0,-1.426987767E0
3.454239089E0,-2.839609861E0,6.931425571E0,-1.589798450E0
3.456239055E0,-2.822849989E0,6.742278099E0,-1.424593568E0
3.458239021E0,-2.856369734E0,6.409473896E0,-1.012778282E0
3.460238987E0,-2.739050388E0,6.318490982E0,-1.273754239E0
3.462238987E0,-2.672010660E0,6.354405403E0,-1.333611012E0
3.464238987E0,-2.621730804E0,6.466936111E0,-1.237840056E0
3.466238987E0,-2.624125242E0,6.593832970E0,-1.407833576E0
3.468238987E0,-2.645673752E0,6.665660858E0,-1.596981287E0
3.470238987E0,-2.885101080E0,6.768614769E0,-1.656838179E0
3.472238987E0,-3.261002302E0,6.718335152E0,-1.326428294E0
3.474238987E0,-3.387898922E0,6.656084061E0,-1.146857619E0
3.476238987E0,-3.385504484E0,6.560312748E0,-1.415016413E0
3.478238987E0,-3.359167576E0,6.514821529E0,-1.453324795E0
3.480239020E0,-3.373533249E0,6.402290821E0,-1.441353440E0
3.482239053E0,-3.514795303E0,6.268211365E0,-1.328822494E0
3.484239119E0,-3.557892323E0,6.239480019E0,-1.391073704E0
3.486239152E0,-3.608172178E0,6.306519985E0,-1.759791970E0
3.488239185E0,-3.749434233E0,6.447782040E0,-1.948939681E0
3.490239218E0,-3.871542454E0,6.474119186E0,-1.951334000E0
3.492239218E0,-4.098998547E0,6.505244732E0,-2.073441982E0
3.494239184E0,-4.288146019E0,6.562707424E0,-2.327235222E0
3.496239184E0,-4.369551659E0,6.596227169E0,-2.463708878E0
3.498239150E0,-4.568276405E0,6.610592842E0,-2.564268351E0
3.500239116E0,-4.673624516E0,6.608198643E0,-2.557085514E0
3.502239082E0,-4.834040642E0,6.555524349E0,-2.516382933E0
3.504239048E0,-4.910657406E0,6.495667458E0,-2.490045786E0
3.506239014E0,-4.886714935E0,6.517216206E0,-2.552296877E0
3.508239014E0,-4.774183750E0,6.656084061E0,-2.842004299E0
3.510239014E0,-4.659258842E0,6.917059898E0,-3.251425266E0
3.512239014E0,-4.630527496E0,7.072687626E0,-3.469304085E0
3.514239014E0,-4.692778587E0,7.338452339E0,-3.888302326E0
3.516239014E0,-4.893897533E0,7.546754360E0,-4.252232075E0
3.518239014E0,-5.011217117E0,7.601822376E0,-4.412648678E0
3.520239014E0,-5.174027920E0,7.620976925E0,-4.640104771E0
3.522239014E0,-5.279376030E0,7.628159523E0,-4.769395351E0
3.524239014E0,-5.322473049E0,7.702382088E0,-5.193181992E0
3.526239014E0,-5.411061287E0,7.731113434E0,-5.478100777E0
3.528239014E0,-5.466129303E0,7.726325035E0,-5.578660488E0
3.530239014E0,-5.559505939E0,7.702382088E0,-5.710345268E0
3.532239014E0,-5.607391834E0,7.616188049E0,-5.628940105E0
3.534239014E0,-5.578660488E0,7.585062504E0,-5.590631485E0
3.536239014E0,-5.399089813E0,7.486897469E0,-5.559505939E0
3.538239014E0,-5.157268047E0,7.307326794E0,-5.394300938E0
3.540238980E0,-5.016005516E0,7.288172722E0,-5.506832123E0
3.542238980E0,-4.769395351E0,7.429434776E0,-5.980898380E0
3.544238980E0,-4.692778587E0,7.551542759E0,-6.385530949E0
3.546238980E0,-4.711932659E0,7.841249943E0,-6.684815407E0
3.548238980E0,-4.896292210E0,8.224333763E0,-7.326480865E0
3.550238980E0,-5.068679810E0,8.320104599E0,-7.271412373E0
3.552238980E0,-5.485283375E0,8.217150688E0,-6.727912426E0
3.554239013E0,-5.743865490E0,7.905895233E0,-5.952167034E0
3.556239013E0,-5.729499817E0,7.733507633E0,-5.585843086E0
3.558239013E0,-5.458946705E0,7.453377247E0,-4.982485771E0
3.560239013E0,-5.061496735E0,7.276201248E0,-4.520390987E0
3.562239013E0,-4.869955063E0,7.254652500E0,-4.230683804E0
3.564239013E0,-4.534756660E0,7.429434776E0,-3.969707727E0
3.566239013E0,-4.225894928E0,7.609005451E0,-3.974496126E0
3.568239013E0,-4.113364220E0,8.001666069E0,-4.043930054E0
3.570239013E0,-4.019987583E0,8.296162605E0,-3.996044636E0
3.572239013E0,-3.993650436E0,8.377567291E0,-3.864359617E0
3.574239013E0,-3.938581944E0,8.461367607E0,-3.670423269E0
3.576239013E0,-3.876330853E0,8.499675751E0,-3.766194344E0
3.578239013E0,-3.878725290E0,8.468549728E0,-3.744645834E0
3.580239013E0,-3.821262598E0,8.315316200E0,-3.447755814E0
3.582239013E0,-3.682394743E0,8.090254784E0,-3.213116884E0
3.584239013E0,-3.581835032E0,8.013637543E0,-3.107768774E0
3.586239013E0,-3.366350412E0,8.037580490E0,-2.959323645E0
3.588239046E0,-3.124528646E0,8.229122162E0,-3.033546209E0
3.590239079E0,-3.035940409E0,8.391933441E0,-3.148471355E0
3.592239112E0,-2.944957972E0,8.657697678E0,-3.356773376E0
3.594239145E0,-2.935380936E0,8.696005821E0,-3.375927448E0
3.596239178E0,-2.921015263E0,8.585869789E0,-3.433390141E0
3.598239211E0,-2.928198099E0,8.530800819E0,-3.754222870E0
3.600239244E0,-2.906649590E0,8.549955368E0,-3.907456398E0
3.602239244E0,-2.916226625E0,8.528407097E0,-3.914639235E0
3.604239210E0,-2.988054991E0,8.437424660E0,-3.878725290E0
3.606239176E0,-3.026363373E0,8.444606781E0,-3.936187744E0
3.608239142E0,-3.033546209E0,8.356019020E0,-3.775771379E0
3.610239108E0,-3.023969173E0,8.116591454E0,-3.610566378E0
3.612239074E0,-3.050306082E0,7.984906673E0,-3.464515686E0
3.614239040E0,-3.150865555E0,7.805335999E0,-3.172414064E0
3.616239006E0,-3.167625666E0,7.711959362E0,-2.966506481E0
3.618239006E0,-3.074248791E0,7.436617374E0,-2.494834423E0
3.620239006E0,-2.959323645E0,7.403097630E0,-2.569056988E0
3.622239006E0,-2.928198099E0,7.484503269E0,-2.724684715E0
3.624239006E0,-2.968900681E0,7.743084908E0,-3.002420664E0
3.626239006E0,-3.026363373E0,7.826884270E0,-3.055094719E0
3.628239006E0,-3.071854591E0,7.778998852E0,-3.114951611E0
3.630239006E0,-3.088614464E0,7.458166122E0,-3.308887720E0
3.632239006E0,-3.181991339E0,6.969734192E0,-3.165231228E0
3.634239006E0,-3.203539610E0,6.787769318E0,-3.069460392E0
3.636239039E0,-3.210722446E0,6.553130150E0,-3.170019865E0
3.638239072E0,-3.184385538E0,6.469330311E0,-3.239453793E0
3.640239105E0,-3.162837029E0,6.469330311E0,-3.261002302E0
3.642239138E0,-2.964112282E0,6.383136749E0,-2.909043789E0
3.644239171E0,-2.901860952E0,6.433416367E0,-2.976083517E0
3.646239204E0,-2.760598898E0,6.395108223E0,-2.892283916E0
3.648239204E0,-2.583422422E0,6.493273258E0,-2.782147408E0
3.650239204E0,-2.478074312E0,6.555524349E0,-2.734261751E0
3.652239170E0,-2.260195494E0,6.648900986E0,-2.858764172E0
3.654239136E0,-2.116539001E0,6.902694225E0,-3.220299721E0
3.656239102E0,-2.099778891E0,6.991282463E0,-3.306493521E0
3.658239068E0,-2.128510237E0,7.099024773E0,-3.287339211E0
3.660239034E0,-2.176395893E0,7.161275864E0,-3.277762175E0
3.662239000E0,-2.205127001E0,7.197190285E0,-3.361561775E0
3.664239000E0,-2.188367128E0,7.115784645E0,-3.402264595E0
3.666239000E0,-2.128510237E0,7.103813171E0,-3.433390141E0
3.668239000E0,-2.018373728E0,6.984099388E0,-3.459727049E0
3.670239000E0,-2.080624819E0,6.799740314E0,-3.438178539E0
3.672239000E0,-2.073441982E0,6.720729351E0,-3.462121487E0
3.674239000E0,-2.135693073E0,6.624958515E0,-3.426207304E0
3.676239000E0,-2.078230619E0,6.775797844E0,-3.284945011E0
3.678239000E0,-1.984853864E0,6.988888264E0,-3.268185139E0
3.680239000E0,-1.762186289E0,7.599428177E0,-3.263396502E0
3.682239000E0,-1.596981287E0,7.905895233E0,-3.292127848E0
3.684239000E0,-1.549095750E0,8.403904915E0,-3.275367975E0
3.686239000E0,-1.527547359E0,8.573898315E0,-3.141288519E0
3.688239000E0,-1.553884387E0,8.573898315E0,-3.062277555E0
3.690239000E0,-1.635289669E0,8.492492676E0,-2.899466753E0
3.692239000E0,-1.675992370E0,8.336864471E0,-2.827638626E0
3.694239000E0,-1.685569525E0,8.255459785E0,-2.806090117E0
3.696238966E0,-1.702329397E0,8.135746002E0,-2.803695917E0
3.698238966E0,-1.766974807E0,8.111803055E0,-2.880312681E0
3.700238966E0,-1.810071707E0,8.097437859E0,-2.906649590E0
3.702238966E0,-1.924996972E0,8.087860107E0,-2.880312681E0
3.704238966E0,-2.109356165E0,8.138139725E0,-2.885101080E0
3.706238966E0,-2.181184292E0,8.267431259E0,-2.861158371E0
3.708238966E0,-2.236252785E0,8.320104599E0,-2.760598898E0
3.710238966E0,-2.241041183E0,8.315316200E0,-2.705530643E0
3.712239066E0,-2.253012657E0,8.399115562E0,-2.707924843E0
3.714239066E0,-2.257801056E0,8.552350044E0,-2.765387297E0
3.716239066E0,-2.276955366E0,8.621783257E0,-2.765387297E0
3.718239066E0,-2.343995094E0,8.791776657E0,-2.762993097E0
3.720239066E0,-2.444554567E0,8.940221786E0,-2.839609861E0
3.722239066E0,-2.494834423E0,9.026415825E0,-2.892283916E0
3.724239066E0,-2.600182533E0,9.172467232E0,-2.949746609E0
3.726239066E0,-2.679193497E0,9.215563774E0,-2.913832426E0
3.728239066E0,-2.717501879E0,9.237112045E0,-2.899466753E0
3.730239066E0,-2.830032825E0,9.294574738E0,-2.837215662E0
3.732239066E0,-2.873129845E0,9.320911407E0,-2.786935806E0
3.734239066E0,-2.942563772E0,9.378374100E0,-2.743839025E0
3.736239066E0,-3.011997700E0,9.438231468E0,-2.652856588E0
3.738239066E0,-3.031152010E0,9.495694160E0,-2.600182533E0
3.740239066E0,-3.074248791E0,9.572310448E0,-2.578634024E0
3.742239066E0,-3.155654192E0,9.658504486E0,-2.595393896E0
3.744239099E0,-3.181991339E0,9.711178780E0,-2.571451187E0
3.746239132E0,-3.225088120E0,9.833286285E0,-2.485257149E0
3.748239165E0,-3.292127848E0,9.871595383E0,-2.444554567E0
3.750239198E0,-3.318464994E0,9.962577820E0,-2.425400496E0
3.752239231E0,-3.375927448E0,1.002961731E1,-2.351177931E0
3.754239264E0,-3.411841631E0,1.002961731E1,-2.332023621E0
3.756239297E0,-3.442967176E0,1.003440571E1,-2.317657948E0
3.758239297E0,-3.445361376E0,1.004158878E1,-2.255406857E0
3.760239263E0,-3.426207304E0,1.006313705E1,-2.238646984E0
3.762239229E0,-3.390293121E0,1.008468533E1,-2.176395893E0
3.764239195E0,-3.361561775E0,1.010144520E1,-2.104567528E0
3.766239161E0,-3.347196102E0,1.010862827E1,-2.097384691E0
3.768239127E0,-3.308887720E0,1.017327404E1,-2.092596292E0
3.770239093E0,-3.296916485E0,1.017566776E1,-2.056682110E0
3.772238993E0,-3.294522047E0,1.019003391E1,-2.035133600E0
3.774238993E0,-3.277762175E0,1.028580475E1,-1.996825218E0
3.776238993E0,-3.289733648E0,1.032650757E1,-1.984853864E0
3.778238993E0,-3.332830429E0,1.043903828E1,-1.982459545E0
3.780238993E0,-3.385504484E0,1.056354046E1,-1.939362645E0
3.782238993E0,-3.447755814E0,1.059945488E1,-1.913025618E0
3.784238993E0,-3.557892323E0,1.067128277E1,-1.862745762E0
3.786238993E0,-3.574652195E0,1.068804264E1,-1.819648862E0
3.788238993E0,-3.557892323E0,1.066888809E1,-1.778946161E0
3.790238993E0,-3.500429869E0,1.060424328E1,-1.740637779E0
3.792238993E0,-3.466909885E0,1.058269501E1,-1.731060743E0
3.794238993E0,-3.438178539E0,1.057311726E1,-1.745426297E0
3.796238993E0,-3.433390141E0,1.056354046E1,-1.793311834E0
3.798238993E0,-3.442967176E0,1.056354046E1,-1.831620216E0
3.800238993E0,-3.466909885E0,1.056832886E1,-1.944151163E0
3.802238993E0,-3.476486921E0,1.053720379E1,-2.075836182E0
3.804238959E0,-3.471698523E0,1.049889469E1,-2.123721838E0
3.806238925E0,-3.459727049E0,1.041270161E1,-2.176395893E0
3.808238925E0,-3.416630268E0,1.030735302E1,-2.193155766E0
3.810238925E0,-3.402264595E0,1.027383327E1,-2.209915638E0
3.812238925E0,-3.363956213E0,1.018285084E1,-2.221887112E0
3.814238925E0,-3.337619066E0,1.006553173E1,-2.226675510E0
3.816238925E0,-3.330436230E0,9.984126091E0,-2.219492674E0
3.818238925E0,-3.301704884E0,9.854835510E0,-2.205127001E0
3.820238958E0,-3.280156374E0,9.816526413E0,-2.190761566E0
3.822238958E0,-3.265790939E0,9.783006668E0,-2.209915638E0
3.824238958E0,-3.208328247E0,9.771035194E0,-2.226675510E0
3.826238958E0,-3.170019865E0,9.787795067E0,-2.221887112E0
3.828238958E0,-3.102980137E0,9.756669998E0,-2.255406857E0
3.830238958E0,-3.033546209E0,9.725543976E0,-2.315263748E0
3.832238958E0,-2.988054991E0,9.766246796E0,-2.372726440E0
3.834238958E0,-2.911438227E0,9.866806030E0,-2.533142805E0
3.836238958E0,-2.822849989E0,9.941028595E0,-2.760598898E0
3.838238958E0,-2.789330244E0,9.986519814E0,-2.870735407E0
3.840238958E0,-2.741444588E0,1.000327969E1,-3.117345810E0
3.842238958E0,-2.739050388E0,1.000567436E1,-3.246636629E0
3.844238958E0,-2.729473352E0,9.996097565E0,-3.500429869E0
3.846238958E0,-2.691164970E0,1.001764584E1,-3.732674360E0
3.848238958E0,-2.660039425E0,1.002961731E1,-3.849993944E0
3.850238958E0,-2.628913641E0,9.993702888E0,-4.055901527E0
3.852238958E0,-2.683982134E0,9.941028595E0,-4.204346657E0
3.854238991E0,-2.722290516E0,9.907508850E0,-4.257020473E0
3.856239024E0,-2.779752970E0,9.895537376E0,-4.292934895E0
3.858239057E0,-2.873129845E0,1.008468533E1,-4.233078003E0
3.860239090E0,-2.851581335E0,1.007750225E1,-4.233078003E0
3.862239123E0,-2.734261751E0,9.756669998E0,-4.314483166E0
3.864239156E0,-2.693559170E0,9.627379417E0,-4.336031914E0
3.866239189E0,-2.703136206E0,9.560338974E0,-4.300117493E0
3.868239189E0,-2.748627424E0,9.577098846E0,-4.223500729E0
3.870239155E0,-2.777358770E0,9.579493523E0,-4.189980984E0
3.872239121E0,-2.801301479E0,9.543579102E0,-4.137306690E0
3.874239087E0,-2.794118643E0,9.531607628E0,-4.067873001E0
3.876239053E0,-2.774964571E0,9.562733650E0,-4.034353256E0
3.878239019E0,-2.705530643E0,9.545973778E0,-3.964919090E0
3.880238985E0,-2.652856588E0,9.450202942E0,-3.888302326E0
3.882238985E0,-2.633702278E0,9.431048393E0,-3.852388144E0
3.884238985E0,-2.648067951E0,9.371191978E0,-3.778165579E0
3.886238985E0,-2.705530643E0,9.342460632E0,-3.677606106E0
3.888238985E0,-2.729473352E0,9.256266594E0,-3.639297724E0
3.890238985E0,-2.782147408E0,9.174860954E0,-3.562680960E0
3.892239018E0,-2.806090117E0,9.138946533E0,-3.517189741E0
3.894239018E0,-2.844398499E0,9.038387299E0,-3.454938650E0
3.896239018E0,-2.844398499E0,8.921068192E0,-3.409447432E0
3.898239018E0,-2.822849989E0,8.889942169E0,-3.387898922E0
3.900239018E0,-2.784541607E0,8.822902679E0,-3.366350412E0
3.902239051E0,-2.727078915E0,8.794171333E0,-3.332830429E0
3.904239084E0,-2.683982134E0,8.803748131E0,-3.330436230E0
3.906239117E0,-2.571451187E0,8.810931206E0,-3.354378939E0
3.908239150E0,-2.461314440E0,8.808537483E0,-3.325647593E0
3.910239183E0,-2.406246185E0,8.808537483E0,-3.289733648E0
3.912239216E0,-2.267378330E0,8.839662552E0,-3.191568375E0
3.914239216E0,-2.212309837E0,8.858817101E0,-3.117345810E0
3.916239182E0,-2.133298874E0,8.904308319E0,-2.971295118E0
3.918239148E0,-2.035133600E0,8.933039665E0,-2.834821463E0
3.920239114E0,-1.982459545E0,8.940221786E0,-2.767781734E0
3.922239080E0,-1.898659945E0,8.980924606E0,-2.674404860E0
3.924239046E0,-1.831620216E0,9.074301720E0,-2.650462151E0
3.926239012E0,-1.793311834E0,9.107821465E0,-2.638490915E0
3.928238978E0,-1.778946161E0,9.141341209E0,-2.667222023E0
3.930238978E0,-1.793311834E0,9.244295120E0,-2.724684715E0
3.932238978E0,-1.800494671E0,9.296969414E0,-2.772570133E0
3.934238978E0,-1.822043180E0,9.435836792E0,-2.885101080E0
3.936238978E0,-1.822043180E0,9.502876282E0,-2.940169573E0
3.938238978E0,-1.826831698E0,9.632167816E0,-3.028757572E0
3.940238978E0,-1.845985889E0,9.711178780E0,-3.136499882E0
3.942238978E0,-1.879505754E0,9.725543976E0,-3.177202702E0
3.944238978E0,-1.951334000E0,9.759063721E0,-3.275367975E0
3.946238978E0,-2.001613855E0,9.771035194E0,-3.361561775E0
3.948239011E0,-2.027950764E0,9.763853073E0,-3.375927448E0
3.950239044E0,-2.138087511E0,9.739910126E0,-3.387898922E0
3.952239044E0,-2.241041183E0,9.627379417E0,-3.387898922E0
3.954239077E0,-2.274561167E0,9.584281921E0,-3.373533249E0
3.956239110E0,-2.348783493E0,9.565128326E0,-3.320859194E0
3.958239143E0,-2.372726440E0,9.603436470E0,-3.282550812E0
3.960239176E0,-2.372726440E0,9.644139290E0,-3.263396502E0
3.962239176E0,-2.346389294E0,9.747093201E0,-3.249030828E0
3.964239142E0,-2.305686712E0,9.797372818E0,-3.241847992E0
3.966239108E0,-2.248224020E0,9.912297249E0,-3.239453793E0
3.968239074E0,-2.248224020E0,9.991309166E0,-3.265790939E0
3.970239040E0,-2.250618219E0,1.001764584E1,-3.258608103E0
3.972239006E0,-2.262589693E0,1.002004051E1,-3.220299721E0
3.974238972E0,-2.320052385E0,9.897932053E0,-3.158048391E0
3.976238972E0,-2.370332003E0,9.811738014E0,-3.131711483E0
3.978238972E0,-2.490045786E0,9.565128326E0,-3.114951611E0
3.980238972E0,-2.559479713E0,9.337671280E0,-3.114951611E0
3.982238972E0,-2.762993097E0,7.960963726E0,-3.272973776E0
3.984238972E0,-2.923409462E0,7.266623974E0,-3.272973776E0
3.986238972E0,-3.023969173E0,7.259441376E0,-3.165231228E0
3.988238972E0,-3.325647593E0,7.393520832E0,-2.846792698E0
3.990238972E0,-4.747847080E0,7.024802208E0,-1.429382086E0
3.992238972E0,-7.146910191E0,5.916253090E0,3.495641351E-1
3.994238972E0,-9.876383781E0,4.170826912E0,2.997632027E0
3.996238972E0,-8.751074791E0,3.859570980E0,3.574652195E0
3.998238972E0,-7.776604652E0,3.873936653E0,3.589017868E0
4.000238972E0,-5.736682415E0,4.022381783E0,3.476486921E0
4.002238972E0,-4.802915096E0,4.084632874E0,3.397475958E0
4.004238972E0,-3.335224867E0,4.067873001E0,3.203539610E0
4.006238972E0,-2.334417820E0,3.835628271E0,2.959323645E0
4.008238938E0,-1.958516836E0,3.651269197E0,2.818061352E0
4.010238938E0,-1.458113313E0,3.102980137E0,2.528354168E0
4.012238938E0,-1.252205729E0,2.674404860E0,2.231464148E0
4.014238938E0,-1.235445857E0,2.571451187E0,2.116539001E0
4.016238938E0,-1.300091267E0,2.490045786E0,1.855562925E0
4.018238938E0,-1.477267504E0,2.487651587E0,1.589798450E0
4.020238938E0,-1.551490068E0,2.537931204E0,1.455719113E0
4.022238938E0,-1.668809533E0,2.674404860E0,1.182771802E0
4.024238971E0,-1.716695070E0,2.724684715E0,1.055875182E0
4.026238971E0,-1.714300752E0,2.810878515E0,7.901107073E-1
4.028238971E0,-1.692752242E0,2.909043789E0,4.597007632E-1
4.030238971E0,-1.585009933E0,3.086220264E0,-1.101366431E-1
4.032238971E0,-6.656084061E-1,4.206740856E0,-4.908263206E0
4.034238971E0,8.116591573E-1,6.366376877E0,-1.498097706E1
4.036238971E0,3.399870098E-1,6.574678421E0,-1.540715885E1
4.038238971E0,-1.065452337E0,6.246663094E0,-1.192588329E1
4.040238971E0,-1.098972082E0,6.601015568E0,-1.254121113E1
4.042238971E0,-1.036720991E0,6.761432171E0,-1.324273396E1
4.044238971E0,-1.484450340E0,6.464541912E0,-1.212221336E1
4.046238971E0,-2.118933201E0,6.052726746E0,-1.092747021E1
4.048238971E0,-2.181184292E0,5.435003757E0,-9.016839027E0
4.050238971E0,-2.059076309E0,4.869955063E0,-7.254652500E0
4.052238971E0,-1.886688590E0,4.436591148E0,-6.280182838E0
4.054238971E0,-1.577827096E0,3.756617069E0,-4.637710094E0
4.056238971E0,-1.352765322E0,3.210722446E0,-3.423812866E0
4.058239004E0,-1.156434774E0,2.964112282E0,-2.928198099E0
4.060239037E0,-3.280156553E-1,2.226675510E0,-2.056682110E0
4.062239070E0,8.140534163E-2,1.778946161E0,-1.462901950E0
4.064239103E0,3.040728867E-1,1.644866824E0,-1.620923996E0
4.066239136E0,7.326480746E-1,1.611346960E0,-2.870735407E0
4.068239169E0,8.140534163E-1,1.743032098E0,-3.258608103E0
4.070239169E0,1.048692346E0,2.226675510E0,-4.316877365E0
4.072239135E0,1.403045058E0,2.743839025E0,-6.756643295E0
4.074239101E0,1.527547359E0,3.088614464E0,-8.188420296E0
4.076239067E0,1.680780888E0,3.469304085E0,-9.471751213E0
4.078239033E0,2.059076309E0,3.799714088E0,-1.066170597E1
4.080238999E0,2.205127001E0,3.919427872E0,-1.104239559E1
4.082238965E0,2.542719841E0,4.139701366E0,-1.149491310E1
4.084238931E0,2.760598898E0,4.142095566E0,-1.165532970E1
4.086238931E0,2.858764172E0,4.134912491E0,-1.160983849E1
4.088238931E0,2.959323645E0,4.096604347E0,-1.136562252E1
4.090238931E0,3.011997700E0,4.082238674E0,-1.105676079E1
4.092238931E0,3.045517445E0,3.976890564E0,-1.082212257E1
4.094238931E0,3.059883118E0,3.847599506E0,-1.042467213E1
4.096238931E0,3.021574736E0,3.778165579E0,-1.025467873E1
4.098238931E0,2.959323645E0,3.605777979E0,-9.912297249E0
4.100238931E0,2.911438227E0,3.459727049E0,-9.562733650E0
4.102238931E0,2.885101080E0,3.383110285E0,-9.371191978E0
4.104238964E0,2.880312681E0,3.213116884E0,-8.897125244E0
4.106238997E0,2.885101080E0,3.043123245E0,-8.341653824E0
4.108239030E0,2.901860952E0,2.959323645E0,-8.080677032E0
4.110239063E0,2.832427025E0,2.784541607E0,-7.625765324E0
4.112239096E0,2.722290516E0,2.655250788E0,-7.192401409E0
4.114239129E0,2.686376333E0,2.592999697E0,-6.943397045E0
4.116239162E0,2.597788095E0,2.480468750E0,-6.500456333E0
4.118239162E0,2.518777132E0,2.401457548E0,-6.308914185E0
4.120239128E0,2.355966330E0,2.245829821E0,-5.873156071E0
4.122239094E0,2.212309837E0,2.116539001E0,-5.387118340E0
4.124239060E0,2.159635782E0,2.138087511E0,-5.150084972E0
4.126239026E0,2.075836182E0,2.226675510E0,-4.601796150E0
4.128238992E0,2.171607256E0,2.418217659E0,-3.929004908E0
4.130238958E0,2.231464148E0,2.571451187E0,-3.646480560E0
4.132238958E0,2.327235222E0,2.786935806E0,-3.203539610E0
