"Time (s)","Acceleration x (m/s^2)","Acceleration y (m/s^2)","Acceleration z (m/s^2)"
0.000000000E0,2.318046808E0,-1.285756207E1,4.536150098E-1
1.996875000E-3,2.423382282E0,-1.323904514E1,5.705574155E-1
3.996875000E-3,2.509056330E0,-1.346664715E1,7.100819349E-1
5.996875000E-3,2.562561989E0,-1.349761772E1,8.927786946E-1
7.996875000E-3,2.624926090E0,-1.347358131E1,1.017602801E0
9.996875000E-3,2.718290567E0,-1.346997929E1,1.100403786E0
1.218125000E-2,2.843181610E0,-1.344985962E1,1.145395637E0
1.384687500E-2,2.925513506E0,-1.338171959E1,1.159320354E0
1.599687500E-2,2.967804432E0,-1.332010269E1,1.125945210E0
1.799687500E-2,3.040597916E0,-1.320059395E1,1.017104745E0
1.999843700E-2,3.124031067E0,-1.305331230E1,8.478155732E-1
2.199843700E-2,3.310453176E0,-1.296109676E1,6.492213011E-1
2.399843700E-2,3.484425306E0,-1.279854965E1,4.726345837E-1
2.599843700E-2,3.579331636E0,-1.254388332E1,3.632674217E-1
2.799687500E-2,3.529876947E0,-1.223069382E1,2.526744604E-1
2.999843700E-2,3.584024191E0,-1.204155064E1,5.678088591E-2
3.199687500E-2,3.759394884E0,-1.193404198E1,-1.021749526E-1
3.399843700E-2,3.927371740E0,-1.177317047E1,-1.298902333E-1
3.617812500E-2,3.982917309E0,-1.154407406E1,-9.630436450E-2
3.799687500E-2,4.011810780E0,-1.131003571E1,-3.509899601E-2
3.999687500E-2,4.045386791E0,-1.113008785E1,9.262687713E-2
4.199687500E-2,4.022919655E0,-1.101551151E1,2.045510113E-1
4.399843700E-2,3.933098793E0,-1.088305473E1,2.539002895E-1
4.599843700E-2,3.809960127E0,-1.070800972E1,2.338656187E-1
4.799843700E-2,3.709662437E0,-1.059016705E1,2.129307240E-1
4.999687500E-2,3.665838957E0,-1.053408527E1,1.353394389E-1
5.199843700E-2,3.616211891E0,-1.053711128E1,-3.897760296E-3
5.399687500E-2,3.577722549E0,-1.060682106E1,-2.122316062E-1
5.599843700E-2,3.509468794E0,-1.071041298E1,-4.458961189E-1
5.799843700E-2,3.457514763E0,-1.088252735E1,-6.462045908E-1
5.999843700E-2,3.459075689E0,-1.114415646E1,-7.199938893E-1
6.199687500E-2,3.512437582E0,-1.146820736E1,-6.713724136E-1
6.399843700E-2,3.552411079E0,-1.175206375E1,-5.699157715E-1
6.599687500E-2,3.514276266E0,-1.196971607E1,-4.588439763E-1
6.799687500E-2,3.416133165E0,-1.210517025E1,-3.611126542E-1
6.999843700E-2,3.266486168E0,-1.219465542E1,-2.863082290E-1
7.199687500E-2,3.075371265E0,-1.226675034E1,-3.095223904E-1
7.399843700E-2,2.918359280E0,-1.232499599E1,-3.688411117E-1
7.617812500E-2,2.794339895E0,-1.239431286E1,-4.443159401E-1
7.820000000E-2,2.774295568E0,-1.255536652E1,-5.087199807E-1
7.999687500E-2,2.578354120E0,-1.256277847E1,-5.538746119E-1
8.199843700E-2,2.696206331E0,-1.277943420E1,-5.324225426E-1
8.399843700E-2,2.886870861E0,-1.301080036E1,-4.723281264E-1
8.599843700E-2,2.935750961E0,-1.303182220E1,-3.926011920E-1
8.799687500E-2,2.814987659E0,-1.286838341E1,-3.113898635E-1
8.999843700E-2,2.576831341E0,-1.258573437E1,-3.216753602E-1
9.199687500E-2,2.272164583E0,-1.225487518E1,-4.134498835E-1
9.399843700E-2,1.964001894E0,-1.192431164E1,-5.192831755E-1
9.599843700E-2,1.709747314E0,-1.167190552E1,-6.459460258E-1
9.799687500E-2,1.477576733E0,-1.144473457E1,-8.157332540E-1
9.999843700E-2,1.369962215E0,-1.128874683E1,-1.022161365E0
1.019968750E-1,1.274998665E0,-1.113531780E1,-1.178904891E0
1.039984370E-1,1.201726437E0,-1.100753403E1,-1.264464140E0
1.059984370E-1,1.180054069E0,-1.096491718E1,-1.317663312E0
1.079968750E-1,1.137628913E0,-1.095852947E1,-1.307147980E0
1.099984370E-1,1.094878078E0,-1.095515823E1,-1.210393429E0
1.119968750E-1,1.110344648E0,-1.099606991E1,-1.079277396E0
1.139984370E-1,1.156954885E0,-1.103413868E1,-9.838636518E-1
1.161781250E-1,1.178502679E0,-1.103202152E1,-8.825793266E-1
1.179984370E-1,1.188223124E0,-1.091923523E1,-7.639514804E-1
1.199968750E-1,1.210661650E0,-1.074761868E1,-7.517889142E-1
1.219968750E-1,1.154694676E0,-1.057187462E1,-7.160387039E-1
1.239984370E-1,1.070600867E0,-1.039655304E1,-6.219465733E-1
1.259984370E-1,1.050480008E0,-1.022721577E1,-5.332270265E-1
1.279984370E-1,1.092244387E0,-1.010932541E1,-5.202409029E-1
1.299968750E-1,1.227258205E0,-1.010079193E1,-4.050318897E-1
1.320000000E-1,1.274251580E0,-1.009617615E1,-3.258987367E-1
1.339984370E-1,1.235580444E0,-1.008948231E1,-1.904347986E-1
1.359984370E-1,1.197349906E0,-1.009078407E1,-4.915774986E-2
1.379968750E-1,1.209426165E0,-1.009974766E1,9.050082415E-3
1.399968750E-1,1.324079752E0,-1.009156036E1,1.633324474E-1
1.419968750E-1,1.359964013E0,-9.978908539E0,2.371408790E-1
1.439984370E-1,1.283138871E0,-9.762530327E0,2.212912738E-1
1.459984370E-1,1.279796600E0,-9.591727257E0,1.037551239E-1
1.479984370E-1,1.399257660E0,-9.479056358E0,-1.191450506E-1
1.499984370E-1,1.373304605E0,-9.298246384E0,-2.364322096E-1
1.519968750E-1,6.151661873E-1,-8.703296661E0,-1.516774595E-1
1.539984370E-1,3.453013599E-1,-8.634669304E0,-1.301392168E-1
1.561781250E-1,7.254335284E-1,-9.097899437E0,-1.216829047E-1
1.583500000E-1,1.205480576E0,-9.597157478E0,-1.681016833E-1
1.599968750E-1,1.423008204E0,-9.931302071E0,-1.023664847E-1
1.619968750E-1,1.450838327E0,-1.016613483E1,1.684464514E-1
1.639984370E-1,1.118484855E0,-1.011308861E1,5.131732225E-1
1.659984370E-1,2.357809842E-1,-9.629852295E0,8.041453362E-1
1.679968750E-1,7.347996831E-1,-1.020377159E1,7.130698562E-1
1.699984370E-1,1.454008341E0,-1.085867214E1,4.888002276E-1
1.719968750E-1,1.747374654E0,-1.113970280E1,3.278524280E-1
1.739984370E-1,1.740785718E0,-1.113788414E1,3.137553334E-1
1.759968750E-1,1.608348131E0,-1.101932335E1,3.171072304E-1
1.779984370E-1,1.467808485E0,-1.090546417E1,2.574054301E-1
1.799968750E-1,1.391510010E0,-1.084621334E1,1.526255608E-1
1.819968750E-1,1.477318287E0,-1.079401875E1,-2.246335745E-1
1.839984370E-1,1.630805612E0,-1.084935379E1,-4.067269862E-1
1.859984370E-1,1.587930322E0,-1.109363842E1,-1.448396295E-1
1.879968750E-1,1.377700329E0,-1.142140484E1,3.610934913E-1
1.899984370E-1,1.171865940E0,-1.179877949E1,8.396943808E-1
1.919968750E-1,1.000565648E0,-1.211713219E1,9.807608128E-1
1.939984370E-1,8.940811157E-1,-1.234595013E1,7.981981039E-1
1.961781250E-1,8.322436810E-1,-1.250498199E1,5.296357274E-1
1.979984370E-1,8.262581825E-1,-1.261721325E1,3.337996006E-1
1.999968750E-1,8.975095749E-1,-1.269553185E1,2.358192950E-1
2.019968750E-1,1.028730989E0,-1.276067352E1,1.993795484E-1
2.039984370E-1,1.195750475E0,-1.281142044E1,1.874372512E-1
2.059984370E-1,1.342859864E0,-1.282853508E1,1.760312766E-1
2.079968750E-1,1.437593579E0,-1.281828785E1,1.491300315E-1
2.099984370E-1,1.489452004E0,-1.279077339E1,9.703220427E-2
2.119968750E-1,1.515338182E0,-1.275728321E1,2.447831817E-2
2.140078120E-1,1.511507392E0,-1.273421288E1,-5.884948000E-2
2.161531250E-1,1.489231825E0,-1.273559189E1,-1.397543550E-1
2.183921870E-1,1.475115657E0,-1.275957203E1,-2.038135976E-1
2.202484370E-1,1.464619398E0,-1.280630779E1,-2.481637895E-1
2.220031250E-1,1.446375608E0,-1.285623169E1,-2.807249427E-1
2.240031250E-1,1.412578940E0,-1.289739227E1,-3.010086119E-1
2.260031250E-1,1.344449639E0,-1.289873314E1,-3.149237037E-1
2.280031250E-1,1.287209034E0,-1.288839912E1,-3.413078189E-1
2.300031250E-1,1.263621330E0,-1.290501595E1,-3.669928312E-1
2.320031250E-1,1.263640523E0,-1.294730663E1,-3.866348565E-1
2.340031250E-1,1.297341347E0,-1.299877262E1,-4.078953564E-1
2.361828120E-1,1.319856286E0,-1.300654888E1,-4.434827566E-1
2.382812500E-1,1.297379613E0,-1.295314884E1,-4.959445298E-1
2.401546870E-1,1.226118565E0,-1.284243107E1,-5.527828336E-1
2.420031250E-1,1.160728097E0,-1.272456932E1,-6.032909751E-1
2.440031250E-1,1.102893829E0,-1.262519073E1,-6.670533419E-1
2.460031250E-1,1.007681251E0,-1.252732563E1,-7.486285567E-1
2.480031250E-1,9.248035550E-1,-1.236841679E1,-7.264869809E-1
2.500031250E-1,8.628224134E-1,-1.208775043E1,-6.268403530E-1
2.520031250E-1,8.121515512E-1,-1.172936630E1,-5.242918730E-1
2.540031250E-1,7.962253094E-1,-1.131147289E1,-4.497747123E-1
2.560031250E-1,8.267657757E-1,-1.089046669E1,-4.334845841E-1
2.580031250E-1,8.659061193E-1,-1.046849442E1,-4.482328892E-1
2.600031250E-1,8.710967302E-1,-1.003235626E1,-4.960881770E-1
2.620031250E-1,8.309507966E-1,-9.608257294E0,-5.172625184E-1
2.640031250E-1,8.612900972E-1,-9.266748428E0,-4.799799919E-1
2.661843750E-1,8.607633710E-1,-8.966773033E0,-4.617744684E-1
2.682265620E-1,7.705020308E-1,-8.682247162E0,-4.994783700E-1
2.700718750E-1,6.743891835E-1,-8.428873062E0,-5.838021040E-1
2.720031250E-1,4.666777849E-1,-8.058854103E0,-6.144958138E-1
2.740031250E-1,2.582290173E-1,-7.643747330E0,-7.499118447E-1
2.761828120E-1,8.897811174E-2,-7.321372986E0,-9.635416865E-1
2.780531250E-1,8.119216561E-2,-7.188083172E0,-1.213180304E0
2.800031250E-1,3.207559884E-1,-7.401233673E0,-1.382230043E0
2.820031250E-1,5.387145281E-1,-7.699388504E0,-1.465567470E0
2.840031250E-1,6.224254370E-1,-7.918084621E0,-1.429414988E0
2.860031250E-1,6.659998894E-1,-8.055320740E0,-1.224768162E0
2.880031250E-1,8.726385832E-1,-8.223748207E0,-7.355753779E-1
2.900031250E-1,1.287046313E0,-8.437923431E0,-2.876968384E-1
2.920031250E-1,1.796532393E0,-8.634095192E0,7.202716172E-2
2.940031250E-1,2.091699123E0,-8.640012741E0,2.425326407E-1
2.960031250E-1,2.248461962E0,-8.486764908E0,1.848994195E-1
2.980031250E-1,2.314407825E0,-8.261978149E0,-1.346882135E-1
3.000031250E-1,2.344699144E0,-8.103683472E0,-5.658264756E-1
3.020031250E-1,2.253844023E0,-8.032326698E0,-9.434782863E-1
3.040031250E-1,2.039965153E0,-7.963305950E0,-1.265076995E0
3.060031250E-1,1.844952583E0,-7.951306820E0,-1.490917206E0
3.080031250E-1,1.706271052E0,-8.006622314E0,-1.592182517E0
3.100031250E-1,1.611680746E0,-8.112867355E0,-1.558242202E0
3.120031250E-1,1.552764297E0,-8.244702339E0,-1.432201862E0
3.140031250E-1,1.491558909E0,-8.314393044E0,-1.309953928E0
3.161843750E-1,1.490160823E0,-8.384724617E0,-1.234948397E0
3.182796870E-1,1.761845112E0,-8.734948158E0,-1.222077131E0
3.201531250E-1,1.767179489E0,-8.832928658E0,-1.196124077E0
3.220031250E-1,1.568221331E0,-8.698939323E0,-1.155700326E0
3.240031250E-1,1.414839149E0,-8.552768707E0,-1.017698526E0
3.260031250E-1,1.248920918E0,-8.327627182E0,-1.052270770E0
3.280031250E-1,1.311131835E0,-8.302659988E0,-1.046821713E0
3.300031250E-1,1.488293171E0,-8.369487762E0,-9.733770490E-1
3.320031250E-1,1.575557113E0,-8.395268440E0,-8.775419593E-1
3.340031250E-1,1.560186267E0,-8.353436470E0,-8.703402281E-1
3.360031250E-1,1.544729352E0,-8.325893402E0,-8.503055573E-1
3.380031250E-1,1.598819256E0,-8.413311005E0,-7.789295912E-1
3.400031250E-1,1.565807819E0,-8.503160477E0,-7.732217908E-1
3.420031250E-1,1.538763046E0,-8.534390450E0,-8.035802841E-1
3.440031250E-1,1.558663607E0,-8.549732208E0,-7.671405077E-1
3.460031250E-1,1.647325635E0,-8.619452477E0,-6.727610826E-1
3.480031250E-1,1.802125216E0,-8.733588219E0,-5.864357948E-1
3.500031250E-1,1.964547873E0,-8.832612038E0,-5.255272985E-1
3.520031250E-1,2.102626324E0,-8.901517868E0,-4.750766456E-1
3.540031250E-1,2.197532415E0,-8.947504997E0,-4.164378643E-1
3.561828120E-1,2.230993748E0,-9.008882523E0,-3.577990830E-1
3.580531250E-1,2.208842516E0,-9.074349403E0,-3.069366515E-1
3.600031250E-1,2.175208807E0,-9.140219688E0,-2.601635456E-1
3.620031250E-1,2.136959076E0,-9.202851295E0,-2.041009068E-1
3.640031250E-1,2.103038073E0,-9.292136192E0,-1.409418583E-1
3.660031250E-1,2.077908516E0,-9.393861771E0,-9.504023194E-2
3.680031250E-1,2.061369419E0,-9.497328758E0,-5.311297253E-2
3.700031250E-1,2.045510054E0,-9.596572876E0,-1.196143124E-2
3.720031250E-1,2.035148144E0,-9.679690361E0,3.428496886E-3
3.740031250E-1,2.023732662E0,-9.748394966E0,6.607996300E-3
3.760031250E-1,2.012585163E0,-9.824166298E0,1.738190465E-2
3.780031250E-1,2.001715422E0,-9.900895119E0,1.505474001E-2
3.800031250E-1,2.003381729E0,-9.986789703E0,-9.270348586E-3
3.820031250E-1,2.015870094E0,-1.006776142E1,-4.963658750E-2
3.840031250E-1,2.014567614E0,-1.012030983E1,-9.359413385E-2
3.860031250E-1,1.998459339E0,-1.009668350E1,-1.365173757E-1
3.880031250E-1,1.965505481E0,-1.001482105E1,-1.947252154E-1
3.900031250E-1,1.901235580E0,-9.830161095E0,-2.664363384E-1
3.920031250E-1,1.837549806E0,-9.610487938E0,-3.536810577E-1
3.940031250E-1,1.792088747E0,-9.479707718E0,-4.414812326E-1
3.961843750E-1,1.755102992E0,-9.428241730E0,-5.252686739E-1
3.982796870E-1,1.744760156E0,-9.494637489E0,-5.532904863E-1
4.001531250E-1,1.757928252E0,-9.629230499E0,-5.064885616E-1
4.020031250E-1,1.792557955E0,-9.814550400E0,-4.131817520E-1
4.040031250E-1,1.809566379E0,-1.002581501E1,-3.050500154E-1
4.060031250E-1,1.811184764E0,-1.023313332E1,-1.938633025E-1
4.080031250E-1,1.788650632E0,-1.042130852E1,-9.251195192E-2
4.100031250E-1,1.666996479E0,-1.057407856E1,-1.776497625E-2
4.120031250E-1,1.604258776E0,-1.072760391E1,4.254017770E-2
4.140031250E-1,1.607505322E0,-1.085319424E1,7.417237014E-2
4.160031250E-1,1.594030738E0,-1.093054581E1,8.733090013E-2
4.180031250E-1,1.557591081E0,-1.096222591E1,8.417055756E-2
4.200031250E-1,1.499258637E0,-1.095217991E1,8.003336936E-2
4.220031250E-1,1.382431269E0,-1.092628384E1,9.969455749E-2
4.240031250E-1,1.230792165E0,-1.087937737E1,1.454142332E-1
4.260031250E-1,1.112757921E0,-1.082729912E1,1.808388382E-1
4.280031250E-1,1.094523668E0,-1.076982784E1,2.076730430E-1
4.300031250E-1,1.103133202E0,-1.070010853E1,2.300732136E-1
4.320031250E-1,1.108735561E0,-1.060835361E1,2.464399785E-1
4.340031250E-1,1.108218551E0,-1.050821877E1,2.504430711E-1
4.361828120E-1,1.086086512E0,-1.040782452E1,2.382805347E-1
4.380515620E-1,1.041362762E0,-1.030787086E1,2.235801220E-1
4.400031250E-1,9.636182785E-1,-1.020981407E1,2.105173618E-1
4.420031250E-1,8.785954118E-1,-1.011577988E1,2.016971260E-1
4.440031250E-1,8.006689548E-1,-1.003952885E1,2.115133554E-1
4.460031250E-1,7.212676406E-1,-9.962502480E0,2.341816574E-1
4.480031250E-1,6.500257850E-1,-9.904850960E0,2.421016693E-1
4.500031250E-1,5.803353190E-1,-9.857819557E0,2.397936732E-1
4.520031250E-1,5.200302005E-1,-9.823697090E0,2.246814519E-1
4.540031250E-1,4.624927342E-1,-9.794957161E0,2.119251490E-1
4.560031250E-1,4.034517109E-1,-9.772096634E0,1.939303428E-1
4.580031250E-1,3.521775007E-1,-9.746680260E0,1.830414981E-1
4.600031250E-1,3.136978745E-1,-9.729480743E0,1.624609530E-1
4.620031250E-1,2.944963872E-1,-9.721254349E0,1.273619533E-1
4.640031250E-1,2.935482860E-1,-9.718840599E0,9.621817619E-2
4.660031250E-1,3.024355471E-1,-9.731538773E0,6.826347858E-2
4.680031250E-1,3.278140724E-1,-9.741240501E0,3.104800731E-2
4.700031250E-1,3.708330989E-1,-9.755538940E0,-5.497086793E-3
4.720031250E-1,4.199717045E-1,-9.762175560E0,-3.396893293E-2
4.740031250E-1,4.727303386E-1,-9.776770592E0,-6.967127323E-2
4.761843750E-1,5.288695693E-1,-9.785897255E0,-1.170190051E-1
4.782984370E-1,5.836105943E-1,-9.808862686E0,-1.351670474E-1
4.801687500E-1,6.327970624E-1,-9.818889618E0,-1.293060482E-1
4.820031250E-1,6.743221283E-1,-9.853145599E0,-1.215392500E-1
4.840031250E-1,7.322331071E-1,-9.905616760E0,-9.901460260E-2
4.860031250E-1,7.598238587E-1,-9.927883148E0,-5.876328796E-2
4.880031250E-1,7.572860122E-1,-9.943264008E0,-1.024718303E-2
4.900031250E-1,8.105809093E-1,-9.975489616E0,3.173753619E-2
4.920031250E-1,8.745061159E-1,-9.991233826E0,9.279925376E-2
4.940031250E-1,9.723044634E-1,-1.000551224E1,1.577395797E-1
4.960031250E-1,1.054157495E0,-1.000955391E1,2.211763412E-1
4.980031250E-1,1.115343571E0,-9.999575615E0,2.602401376E-1
5.000031250E-1,1.161523104E0,-9.993963242E0,2.719813287E-1
5.020031250E-1,1.169213176E0,-9.972510338E0,2.912594378E-1
5.040031250E-1,1.173685551E0,-9.949545860E0,3.123092353E-1
5.060031250E-1,1.176012754E0,-9.931282997E0,3.259849250E-1
5.080031250E-1,1.167278647E0,-9.918766022E0,3.305913806E-1
5.100031250E-1,1.160546184E0,-9.903443336E0,3.273735642E-1
5.120031250E-1,1.161226034E0,-9.876646996E0,3.329089582E-1
5.140031250E-1,1.160594106E0,-9.850292206E0,3.369886875E-1
5.161828120E-1,1.160747290E0,-9.828648567E0,3.322098255E-1
5.180531250E-1,1.161647439E0,-9.818593025E0,3.154217303E-1
5.200031250E-1,1.164424777E0,-9.802905083E0,2.974843383E-1
5.220031250E-1,1.162997842E0,-9.777555466E0,2.863082290E-1
5.240031250E-1,1.154598951E0,-9.759244919E0,2.680739760E-1
5.260031250E-1,1.162710547E0,-9.746258736E0,2.418718189E-1
5.280031250E-1,1.167489409E0,-9.745119095E0,2.249974906E-1
5.300046870E-1,1.170755029E0,-9.742945671E0,2.172498554E-1
5.320031250E-1,1.214549780E0,-9.744256973E0,2.223734558E-1
5.340031250E-1,1.274893284E0,-9.739851952E0,2.334825397E-1
5.360031250E-1,1.320622563E0,-9.729948997E0,2.264148742E-1
5.380031250E-1,1.342179894E0,-9.709216118E0,1.798524261E-1
5.400031250E-1,1.349333763E0,-9.706745148E0,1.502313763E-1
5.420031250E-1,1.360155463E0,-9.725697517E0,1.355309784E-1
5.440031250E-1,1.394335151E0,-9.734402657E0,1.368046850E-1
5.460031250E-1,1.423065543E0,-9.754754066E0,1.311064959E-1
5.480031250E-1,1.455923557E0,-9.776655197E0,1.064270586E-1
5.500031250E-1,1.487871885E0,-9.789200783E0,8.222646266E-2
5.520031250E-1,1.527318716E0,-9.801362991E0,7.206546515E-2
5.540031250E-1,1.560799241E0,-9.821876526E0,6.744945049E-2
5.561843750E-1,1.595476866E0,-9.836855888E0,4.691677541E-2
5.582812500E-1,1.640353799E0,-9.848969460E0,1.646253094E-2
5.601531250E-1,1.660369277E0,-9.854418755E0,-2.400905453E-2
5.620031250E-1,1.650725484E0,-9.844612122E0,-7.722736895E-2
5.640031250E-1,1.654335976E0,-9.828829765E0,-1.338454634E-1
5.660031250E-1,1.697297454E0,-9.812319756E0,-1.665598303E-1
5.680031250E-1,1.782598138E0,-9.810681343E0,-1.821125597E-1
5.700031250E-1,1.897069693E0,-9.791508675E0,-1.754183620E-1
5.720031250E-1,1.975139737E0,-9.750462532E0,-1.649700701E-1
5.740031250E-1,2.028300762E0,-9.699725151E0,-1.612830013E-1
5.760031250E-1,2.051275492E0,-9.639228821E0,-1.570500433E-1
5.780031250E-1,2.025705338E0,-9.553746223E0,-1.595879048E-1
5.800031250E-1,2.019748449E0,-9.496706009E0,-1.656979024E-1
5.820031250E-1,2.040300369E0,-9.467084885E0,-1.639645100E-1
5.840031250E-1,2.057509899E0,-9.443679810E0,-1.567723304E-1
5.860031250E-1,2.086680889E0,-9.432034492E0,-1.438627988E-1
5.880031250E-1,2.101630449E0,-9.411128044E0,-1.425794959E-1
5.900031250E-1,2.109894991E0,-9.383508682E0,-1.346020252E-1
5.920031250E-1,2.098642349E0,-9.348859787E0,-1.271033734E-1
5.940031250E-1,2.068207264E0,-9.310925484E0,-1.284058243E-1
5.961828120E-1,2.032945395E0,-9.261279106E0,-1.396777332E-1
5.980531250E-1,2.001581192E0,-9.214794159E0,-1.421198100E-1
6.000031250E-1,1.989016652E0,-9.199566841E0,-1.404725909E-1
6.020031250E-1,1.981288075E0,-9.201596260E0,-1.070687026E-1
6.040031250E-1,1.975072742E0,-9.220061302E0,-3.883394971E-2
6.060031250E-1,1.975752711E0,-9.241713524E0,4.039496928E-2
6.080031250E-1,1.993594289E0,-9.272542000E0,1.072602421E-1
6.100046870E-1,2.008390427E0,-9.297020912E0,1.520701200E-1
6.120031250E-1,2.014797449E0,-9.315398216E0,1.791916341E-1
6.140031250E-1,2.021070242E0,-9.324256897E0,1.878011823E-1
6.161843750E-1,2.044284344E0,-9.316614151E0,1.765675843E-1
6.182265620E-1,2.094399691E0,-9.347585678E0,1.664448977E-1
6.200828120E-1,2.157501459E0,-9.386036873E0,1.596070528E-1
6.220031250E-1,2.211351871E0,-9.427523613E0,1.592527181E-1
6.240031250E-1,2.247551918E0,-9.464672089E0,1.653340012E-1
6.260031250E-1,2.273179770E0,-9.506944656E0,1.583908051E-1
6.280031250E-1,2.286376476E0,-9.576146126E0,1.307042539E-1
6.300046870E-1,2.337373018E0,-9.661044121E0,1.108132303E-1
6.320031250E-1,2.437517643E0,-9.726425171E0,1.009682789E-1
6.340031250E-1,2.534358263E0,-9.771886826E0,1.009874269E-1
6.361828120E-1,2.581370831E0,-9.787219048E0,9.824845940E-2
6.382796870E-1,2.617628574E0,-9.827431679E0,7.874050736E-2
6.401515620E-1,2.661088228E0,-9.886664391E0,6.883808970E-2
6.420031250E-1,2.690421820E0,-9.947812080E0,5.519114062E-2
6.440031250E-1,2.728480339E0,-1.002378559E1,5.283524469E-2
6.460031250E-1,2.725281477E0,-1.009295845E1,5.473145097E-2
6.480031250E-1,2.689378023E0,-1.015707493E1,6.381026655E-2
6.500031250E-1,2.612207890E0,-1.021622181E1,7.705498487E-2
6.520031250E-1,2.528382301E0,-1.027736950E1,8.189127594E-2
6.540031250E-1,2.495256186E0,-1.035013390E1,8.996452391E-2
6.560031250E-1,2.509037018E0,-1.042632675E1,1.335868835E-1
6.580031250E-1,2.505800247E0,-1.047877884E1,1.940931380E-1
6.600671870E-1,2.481599569E0,-1.052129078E1,2.715120614E-1
6.620031250E-1,2.438628435E0,-1.058181667E1,3.293751180E-1
6.640031250E-1,2.402638912E0,-1.062975788E1,3.830243945E-1
6.660031250E-1,2.398109198E0,-1.065968513E1,4.338580966E-1
6.680031250E-1,2.409629822E0,-1.066979790E1,4.685644209E-1
6.700031250E-1,2.389394045E0,-1.065131569E1,4.866837561E-1
6.720031250E-1,2.354007721E0,-1.061506653E1,4.923053384E-1
6.740031250E-1,2.329931736E0,-1.060577774E1,5.107502937E-1
6.761828120E-1,2.314331055E0,-1.060399628E1,5.238704681E-1
6.780531250E-1,2.305865288E0,-1.060330677E1,5.117366910E-1
6.800031250E-1,2.309379816E0,-1.061254787E1,4.879670441E-1
6.820031250E-1,2.296470404E0,-1.063196945E1,5.015661120E-1
6.840031250E-1,2.270105362E0,-1.064078999E1,5.556750298E-1
6.860031250E-1,2.248107433E0,-1.064033031E1,6.324619055E-1
6.880031250E-1,2.238559246E0,-1.061709690E1,6.779038906E-1
6.900031250E-1,2.238482952E0,-1.059521389E1,6.612784863E-1
6.920031250E-1,2.233292341E0,-1.055218601E1,6.183456779E-1
6.940031250E-1,2.227105379E0,-1.049592209E1,5.646198392E-1
6.960031250E-1,2.229202986E0,-1.045117855E1,5.200014710E-1
6.980031250E-1,2.243711710E0,-1.039624596E1,4.660935998E-1
7.000046870E-1,2.258546114E0,-1.032959175E1,4.118410051E-1
7.020031250E-1,2.256343603E0,-1.026754379E1,3.506260514E-1
7.040031250E-1,2.262482166E0,-1.021340656E1,2.905507386E-1
7.060031250E-1,2.254657984E0,-1.014242268E1,2.300253361E-1
7.080031250E-1,2.243117809E0,-1.006581783E1,1.703043580E-1
7.100031250E-1,2.226272345E0,-1.001861286E1,1.089074463E-1
7.120031250E-1,2.197704792E0,-9.991415024E0,4.231033474E-2
7.140031250E-1,2.152368069E0,-9.969513893E0,-5.114014726E-3
7.161843750E-1,2.101515293E0,-9.933341980E0,-3.190034255E-2
7.182796870E-1,2.054876328E0,-9.892784119E0,-5.190629140E-2
7.202906250E-1,1.996122599E0,-9.836290359E0,-6.050626189E-2
7.222046870E-1,1.928318739E0,-9.771628380E0,-4.292324930E-2
7.243625000E-1,1.875157952E0,-9.707999229E0,-3.136404231E-2
7.260750000E-1,1.844627023E0,-9.656026840E0,-2.686294354E-2
7.280031250E-1,1.784819961E0,-9.608850479E0,-3.732081503E-2
7.300031250E-1,1.707266927E0,-9.526452065E0,-5.544013530E-2
7.320031250E-1,1.634368300E0,-9.438843727E0,-7.000645250E-2
7.340031250E-1,1.524962902E0,-9.342816353E0,-7.926722616E-2
7.360031250E-1,1.466774225E0,-9.277176857E0,-1.020217240E-1
7.380031250E-1,1.456201434E0,-9.200265884E0,-1.121731400E-1
7.400031250E-1,1.449775219E0,-9.103320122E0,-1.440064460E-1
7.420031250E-1,1.435458064E0,-9.007398605E0,-1.949454844E-1
7.440031250E-1,1.440275192E0,-8.914149284E0,-2.364226282E-1
7.460031250E-1,1.457178235E0,-8.823754311E0,-2.639655173E-1
7.480031250E-1,1.480181694E0,-8.746488571E0,-2.815389633E-1
7.500031250E-1,1.513978243E0,-8.668427467E0,-2.666278780E-1
7.520031250E-1,1.572463751E0,-8.611234665E0,-2.598283291E-1
7.540031250E-1,1.662763596E0,-8.555775642E0,-2.413068116E-1
7.561843750E-1,1.773145795E0,-8.520216942E0,-2.212050855E-1
7.580812500E-1,1.884820938E0,-8.493257523E0,-2.039668262E-1
7.600031250E-1,1.991487384E0,-8.477465630E0,-1.759355217E-1
7.620031250E-1,2.108401060E0,-8.479993820E0,-1.416888535E-1
7.640031250E-1,2.224950790E0,-8.496839523E0,-1.002021357E-1
7.660031250E-1,2.350943327E0,-8.533710480E0,-4.608359560E-2
7.680031250E-1,2.492354393E0,-8.583155632E0,-1.953668660E-3
7.700031250E-1,2.638563395E0,-8.632906914E0,3.164177015E-2
7.720031250E-1,2.773893356E0,-8.674767494E0,4.385219887E-2
7.740031250E-1,2.883241415E0,-8.725476265E0,2.897941694E-2
7.760031250E-1,2.994782448E0,-8.785590172E0,-2.581907064E-2
7.780031250E-1,3.093902349E0,-8.846316338E0,-9.377609193E-2
7.800031250E-1,3.158210754E0,-8.888627052E0,-1.724878699E-1
7.820031250E-1,3.212041855E0,-8.917194366E0,-2.470528930E-1
7.840031250E-1,3.272548199E0,-8.934510231E0,-3.009511530E-1
7.860031250E-1,3.367933035E0,-8.963441849E0,-3.193673491E-1
7.880031250E-1,3.485086203E0,-9.001748085E0,-3.005776703E-1
7.900031250E-1,3.492058039E0,-8.993656158E0,-2.644922435E-1
7.920031250E-1,3.445141315E0,-9.017099380E0,-2.616287768E-1
7.940031250E-1,3.573106766E0,-9.075882912E0,-2.599145472E-1
7.961843750E-1,3.741409540E0,-9.131054878E0,-2.609201074E-1
7.982812500E-1,3.874134302E0,-9.175031662E0,-2.338273227E-1
8.001546870E-1,3.946803331E0,-9.204001427E0,-1.765388697E-1
8.020031250E-1,3.946669102E0,-9.220214844E0,-1.404630244E-1
8.040031250E-1,3.868187189E0,-9.232405663E0,-1.228895858E-1
8.060031250E-1,3.716758728E0,-9.242882729E0,-1.314799786E-1
8.080031250E-1,3.525979280E0,-9.244424820E0,-1.412100196E-1
8.100031250E-1,3.334481239E0,-9.232348442E0,-1.603061706E-1
8.120031250E-1,3.188348770E0,-9.241627693E0,-1.835395098E-1
8.140031250E-1,3.082592010E0,-9.267322540E0,-1.760312766E-1
8.160031250E-1,2.988825798E0,-9.287855148E0,-1.538705528E-1
8.180031250E-1,2.898621559E0,-9.324946404E0,-1.364216208E-1
8.200031250E-1,2.828816414E0,-9.362210274E0,-1.266245395E-1
8.220031250E-1,2.729619980E0,-9.384916306E0,-1.231673136E-1
8.240031250E-1,2.597000360E0,-9.387750626E0,-1.195951626E-1
8.260031250E-1,2.478669167E0,-9.391150475E0,-1.080742627E-1
8.280031250E-1,2.369263649E0,-9.378078461E0,-1.338263005E-1
8.300031250E-1,2.271407843E0,-9.373558998E0,-1.108898446E-1
8.320031250E-1,2.205538511E0,-9.401177406E0,-6.225882098E-2
8.340031250E-1,2.163821936E0,-9.446379662E0,-1.241154224E-2
8.361828120E-1,2.105594873E0,-9.494465828E0,2.870169096E-2
8.380531250E-1,2.048067093E0,-9.552961349E0,5.832275376E-2
8.400031250E-1,1.986928821E0,-9.615333557E0,9.168834984E-2
8.420031250E-1,1.917458773E0,-9.686203003E0,1.496376097E-1
8.440031250E-1,1.853016376E0,-9.764052391E0,2.151333988E-1
8.460031250E-1,1.787865400E0,-9.839097023E0,2.852451801E-1
8.480031250E-1,1.734139442E0,-9.927892685E0,3.503770530E-1
8.500031250E-1,1.676592350E0,-1.001237869E1,3.963744640E-1
8.520031250E-1,1.648953676E0,-1.010043716E1,4.286482930E-1
8.540031250E-1,1.629503250E0,-1.018379402E1,4.540651441E-1
8.560031250E-1,1.622598410E0,-1.027892113E1,4.844810665E-1
8.580031250E-1,1.613366365E0,-1.037636566E1,5.049275756E-1
8.600031250E-1,1.597325206E0,-1.045426273E1,5.045732260E-1
8.620031250E-1,1.589577556E0,-1.050528812E1,4.733719826E-1
8.640031250E-1,1.592584729E0,-1.055673409E1,4.370758832E-1
8.660031250E-1,1.633372307E0,-1.060661030E1,4.136318564E-1
8.680031250E-1,1.697048426E0,-1.065434074E1,3.912221491E-1
8.700031250E-1,1.750285864E0,-1.068660545E1,3.747883439E-1
8.720031250E-1,1.809623837E0,-1.071810341E1,4.003201127E-1
8.740031250E-1,1.856665134E0,-1.073882771E1,4.465952516E-1
8.761828120E-1,1.877638340E0,-1.074258232E1,4.988079965E-1
8.782796870E-1,1.916520119E0,-1.073430729E1,4.990378022E-1
8.801515620E-1,1.920935035E0,-1.070171738E1,4.694072008E-1
8.820031250E-1,1.900172472E0,-1.065936947E1,3.926777840E-1
8.840031250E-1,1.785873413E0,-1.061389828E1,2.231874913E-1
8.860031250E-1,1.389230728E0,-1.047007465E1,9.093178064E-2
8.880031250E-1,1.266676426E0,-1.035955715E1,1.846025288E-1
8.900031250E-1,1.496241927E0,-1.029497147E1,2.524350286E-1
8.920031250E-1,1.978348017E0,-1.028815365E1,4.048020244E-1
8.940031250E-1,2.362511873E0,-1.026512146E1,6.426612139E-1
8.960031250E-1,2.571985483E0,-1.019989300E1,7.621989250E-1
8.980031250E-1,2.651779652E0,-1.013553715E1,7.123132944E-1
9.000031250E-1,2.672264338E0,-1.008060455E1,5.645910501E-1
9.020031250E-1,2.646742105E0,-1.003089046E1,4.501290619E-1
9.040031250E-1,2.593638659E0,-9.982298851E0,3.738977015E-1
9.060031250E-1,2.540544987E0,-9.934778214E0,3.346136212E-1
9.080031250E-1,2.491818190E0,-9.892248154E0,3.320278823E-1
9.100031250E-1,2.447343588E0,-9.832785606E0,3.559220135E-1
9.120031250E-1,2.422242641E0,-9.787726402E0,3.919020891E-1
9.140031250E-1,2.398463488E0,-9.746143341E0,4.197514355E-1
9.161828120E-1,2.384950399E0,-9.696956635E0,4.395179749E-1
9.180531250E-1,2.377413511E0,-9.647809982E0,4.469400048E-1
9.200031250E-1,2.379070282E0,-9.608583450E0,4.455417693E-1
9.220031250E-1,2.385534763E0,-9.560851097E0,4.393264353E-1
9.240031250E-1,2.392832279E0,-9.527035713E0,4.367215633E-1
9.260031250E-1,2.385754824E0,-9.486066818E0,4.358691871E-1
9.280031250E-1,2.373956203E0,-9.423491478E0,3.972459435E-1
9.300031250E-1,2.389997482E0,-9.380558968E0,3.441521227E-1
9.320031250E-1,2.394824266E0,-9.325751305E0,2.967565060E-1
9.340031250E-1,2.342764616E0,-9.211709976E0,2.223351449E-1
9.360031250E-1,2.275133371E0,-9.087326050E0,6.914454699E-2
9.380031250E-1,2.340159655E0,-9.092556000E0,-3.789542243E-2
9.400031250E-1,2.432882309E0,-9.153856277E0,-1.768836193E-2
9.420031250E-1,2.508950949E0,-9.219553947E0,5.816952512E-2
9.440031250E-1,2.512302876E0,-9.210398674E0,1.340944469E-1
9.460031250E-1,2.472013235E0,-9.153876305E0,1.452610046E-1
9.480031250E-1,2.419934511E0,-9.093791008E0,9.062532336E-2
9.500031250E-1,2.376072645E0,-9.045379639E0,1.324472390E-2
9.520031250E-1,2.351968050E0,-9.005244255E0,-7.043741643E-2
9.540328120E-1,2.361324549E0,-8.984385490E0,-1.373505741E-1
9.561843750E-1,2.393703699E0,-8.980995178E0,-1.826297045E-1
9.582812500E-1,2.412636995E0,-9.002304077E0,-2.154302746E-1
9.603015620E-1,2.439490557E0,-9.029482841E0,-2.282248884E-1
9.618484370E-1,2.503664494E0,-9.088581085E0,-2.105173618E-1
9.640031250E-1,2.525652885E0,-9.114428520E0,-1.991688609E-1
9.661843750E-1,2.571047068E0,-9.170597076E0,-1.772092283E-1
9.682265620E-1,2.619448185E0,-9.215445518E0,-1.465538740E-1
9.700734370E-1,2.654097080E0,-9.261873245E0,-1.411908567E-1
9.720031250E-1,2.699673176E0,-9.314766884E0,-1.576917022E-1
9.740031250E-1,2.746340752E0,-9.380147934E0,-1.391414255E-1
9.760031250E-1,2.791801929E0,-9.425914764E0,-1.141459569E-1
9.780031250E-1,2.826671124E0,-9.467630386E0,-1.136288121E-1
9.800031250E-1,2.850210905E0,-9.501437187E0,-1.258200854E-1
9.820031250E-1,2.885750532E0,-9.543766975E0,-1.450503021E-1
9.840031250E-1,2.898995161E0,-9.571156502E0,-1.329260767E-1
9.860031250E-1,2.814278841E0,-9.510037422E0,-1.661671698E-1
9.880031250E-1,2.840021133E0,-9.547520638E0,-2.678249776E-1
9.900031250E-1,2.929171562E0,-9.633645058E0,-2.516018748E-1
9.920031250E-1,2.997368097E0,-9.728704453E0,-1.565616280E-1
9.940031250E-1,3.033673763E0,-9.782248497E0,-4.542279616E-2
9.961828120E-1,3.017240047E0,-9.777048111E0,3.078943491E-2
9.980531250E-1,2.964165211E0,-9.743108749E0,5.890693888E-2
1.000003125E0,2.897778988E0,-9.693433762E0,6.537128240E-2
1.002003125E0,2.838239908E0,-9.631729126E0,6.648219377E-2
1.004003125E0,2.787722111E0,-9.589332581E0,7.919061184E-2
1.006003125E0,2.745239496E0,-9.549273491E0,1.256285608E-1
1.008003125E0,2.709738255E0,-9.500211716E0,1.753704846E-1
1.010003125E0,2.711816311E0,-9.452681541E0,2.322854400E-1
1.012003125E0,2.727991581E0,-9.405908585E0,2.709278464E-1
1.014003125E0,2.732013941E0,-9.351636887E0,2.786276340E-1
1.016003125E0,2.753494978E0,-9.314000130E0,3.113611341E-1
1.018003125E0,2.751138926E0,-9.283737183E0,3.737061322E-1
1.020003125E0,2.726401806E0,-9.250237465E0,4.310041666E-1
1.022003125E0,2.702373743E0,-9.225270271E0,4.958391786E-1
1.024003125E0,2.668155670E0,-9.203407288E0,5.517868400E-1
1.026003125E0,2.654288530E0,-9.191484451E0,6.035399437E-1
1.028003125E0,2.656673431E0,-9.192461014E0,6.355552077E-1
1.030003125E0,2.649404526E0,-9.179819107E0,6.360628009E-1
1.032003125E0,2.637347221E0,-9.173288345E0,5.441828966E-1
1.034003125E0,2.681793213E0,-9.222522736E0,5.093807578E-1
1.036184375E0,2.744348764E0,-9.268002510E0,5.553111434E-1
1.038445312E0,2.790748596E0,-9.287146568E0,5.964818001E-1
1.040073437E0,2.843660355E0,-9.317783356E0,5.529169440E-1
1.042003125E0,2.856627464E0,-9.325502396E0,5.185936689E-1
1.044003125E0,2.873089790E0,-9.329227448E0,4.485297501E-1
1.046003125E0,2.884898186E0,-9.331716537E0,3.807067871E-1
1.048003125E0,2.904540062E0,-9.332694054E0,3.266552985E-1
1.050003125E0,2.912383556E0,-9.336189270E0,2.721345425E-1
1.052003125E0,2.916597366E0,-9.333593369E0,2.131509930E-1
1.054003125E0,2.941477776E0,-9.332981110E0,2.066483349E-1
1.056003125E0,2.970294476E0,-9.329360962E0,2.007202953E-1
1.058003125E0,3.003181219E0,-9.337262154E0,1.675558239E-1
1.060003125E0,3.023139477E0,-9.342117310E0,1.218457073E-1
1.062003125E0,3.009032726E0,-9.307056427E0,2.992752008E-2
1.064003125E0,3.023828745E0,-9.332511902E0,-8.608591557E-2
1.066003125E0,3.113372087E0,-9.401733398E0,-6.057330221E-2
1.068003125E0,3.176358700E0,-9.431833267E0,1.429817267E-2
1.070003125E0,3.202637434E0,-9.440462112E0,4.305732250E-2
1.072003125E0,3.213363409E0,-9.442117691E0,6.042964756E-2
1.074003125E0,3.249161720E0,-9.443822861E0,5.830360204E-2
1.076182812E0,3.284375429E0,-9.448353767E0,4.078762233E-2
1.078200000E0,3.309131622E0,-9.457287788E0,2.319502644E-2
1.079850000E0,3.342803478E0,-9.490212440E0,1.972822240E-3
1.082003125E0,3.363498926E0,-9.502643585E0,-6.531381980E-3
1.084003125E0,3.412608862E0,-9.534180641E0,-3.672705591E-2
1.086003125E0,3.461096287E0,-9.558065414E0,-1.044829637E-1
1.088003125E0,3.518355846E0,-9.574106216E0,-1.438436359E-1
1.090003125E0,3.591360092E0,-9.587753296E0,-1.672397703E-1
1.092003125E0,3.667562723E0,-9.597291946E0,-1.775252670E-1
1.094150000E0,3.732867002E0,-9.607663155E0,-1.798141152E-1
1.096003125E0,3.798717022E0,-9.618782043E0,-2.039285302E-1
1.098003125E0,3.817717552E0,-9.629067421E0,-2.421399802E-1
1.100003125E0,3.842674494E0,-9.640511513E0,-2.585738003E-1
1.102003125E0,3.859855413E0,-9.659319878E0,-2.483649105E-1
1.104003125E0,3.862441063E0,-9.677076340E0,-2.300253361E-1
1.106003125E0,3.836440086E0,-9.679574966E0,-2.259072959E-1
1.108003125E0,3.785970211E0,-9.679124832E0,-2.233885974E-1
1.110003125E0,3.731363297E0,-9.671493530E0,-1.901666522E-1
1.112003125E0,3.688650846E0,-9.647120476E0,-1.378581375E-1
1.114003125E0,3.651665211E0,-9.619787216E0,-6.975746155E-2
1.116184375E0,3.603235245E0,-9.600088120E0,-1.471955236E-2
1.118296875E0,3.549078465E0,-9.571989059E0,8.140285499E-3
1.120185937E0,3.495812178E0,-9.537063599E0,5.654146522E-2
1.122003125E0,3.449288130E0,-9.510688782E0,1.199590862E-1
1.124003125E0,3.397381783E0,-9.472294807E0,1.645295471E-1
1.126003125E0,3.331024170E0,-9.423960686E0,2.162538767E-1
1.128003125E0,3.282862186E0,-9.380051613E0,2.967277765E-1
1.130003125E0,3.241394758E0,-9.347872734E0,3.822390735E-1
1.132003125E0,3.215518236E0,-9.325502396E0,4.391732216E-1
1.134003125E0,3.193845987E0,-9.310935974E0,4.754692912E-1
1.136003125E0,3.185255527E0,-9.309173584E0,5.027153492E-1
1.138003125E0,3.185226917E0,-9.311863899E0,5.312829614E-1
1.140003125E0,3.195081234E0,-9.334082603E0,5.365310311E-1
1.142003125E0,3.206994772E0,-9.364555359E0,5.433688164E-1
1.144003125E0,3.223217964E0,-9.399722099E0,5.795788169E-1
1.146003125E0,3.236807346E0,-9.438057899E0,6.059054136E-1
1.148003125E0,3.257273197E0,-9.480751038E0,6.429389119E-1
1.150003125E0,3.276417255E0,-9.514049530E0,6.669384241E-1
1.152003125E0,3.292237997E0,-9.545145035E0,6.604548693E-1
1.154003125E0,3.312646151E0,-9.568341255E0,6.305273771E-1
1.156182812E0,3.325938702E0,-9.585741997E0,5.936375260E-1
1.158056250E0,3.344249725E0,-9.594532967E0,5.470080376E-1
1.160003125E0,3.351748228E0,-9.607117653E0,4.813973308E-1
1.162003125E0,3.348951817E0,-9.612442017E0,4.182766080E-1
1.164003125E0,3.347170591E0,-9.605710030E0,3.564391732E-1
1.166003125E0,3.341367006E0,-9.609291077E0,3.256976306E-1
1.168003125E0,3.314121008E0,-9.608764648E0,3.250751197E-1
1.170003125E0,3.264139652E0,-9.599916458E0,3.136021197E-1
1.172003125E0,3.194717169E0,-9.586537361E0,2.789340913E-1
1.174003125E0,3.129231215E0,-9.573866844E0,2.394297421E-1
1.176003125E0,3.081270456E0,-9.555517197E0,2.029995769E-1
1.178003125E0,3.053133726E0,-9.548373222E0,1.702373177E-1
1.180003125E0,3.025274992E0,-9.532925606E0,1.385572404E-1
1.182003125E0,2.987666845E0,-9.513188362E0,9.569144994E-2
1.184003125E0,2.965104103E0,-9.504588127E0,6.038176641E-2
1.186003125E0,2.956417799E0,-9.496026039E0,4.230075330E-2
1.188003125E0,2.940711737E0,-9.473204613E0,2.903687768E-2
1.190003125E0,2.902423620E0,-9.418531418E0,-1.720952243E-2
1.192003125E0,2.839341402E0,-9.327685356E0,-1.953189671E-1
1.194003125E0,2.995634794E0,-9.442013741E0,-2.625481486E-1
1.196182812E0,3.153345585E0,-9.616138458E0,-8.021533489E-2
1.198296875E0,3.170650959E0,-9.702492714E0,1.698829830E-1
1.200185937E0,3.086690903E0,-9.687590599E0,2.876298130E-1
1.202003125E0,3.009320021E0,-9.628588676E0,2.733795047E-1
1.204003125E0,2.984496832E0,-9.574403763E0,1.925608516E-1
1.206003125E0,3.004320860E0,-9.529124260E0,1.164443940E-1
1.208003125E0,3.054225683E0,-9.497070312E0,4.745307937E-2
1.210003125E0,3.132401228E0,-9.491966248E0,1.799481921E-2
1.212003125E0,3.202311754E0,-9.493594170E0,2.336740866E-2
1.214003125E0,3.260270834E0,-9.498842239E0,3.297294676E-2
1.216153125E0,3.305549860E0,-9.492760658E0,2.586695552E-2
1.218404687E0,3.352418661E0,-9.486392975E0,6.971915253E-3
1.220268750E0,3.403664112E0,-9.485079765E0,-2.285026200E-2
1.222014062E0,3.454459429E0,-9.486967087E0,-4.912902042E-2
1.224003125E0,3.518116713E0,-9.491248131E0,-8.082824945E-2
1.226003125E0,3.572599173E0,-9.480454445E0,-1.123742536E-1
1.228003125E0,3.621651411E0,-9.453649521E0,-1.473295838E-1
1.230003125E0,3.671230555E0,-9.428097725E0,-1.806760430E-1
1.232003125E0,3.712525845E0,-9.407890320E0,-2.031144947E-1
1.234003125E0,3.742328882E0,-9.370359421E0,-2.258594036E-1
1.236182812E0,3.764671326E0,-9.331171036E0,-2.441989928E-1
1.238056250E0,3.767822266E0,-9.292346954E0,-2.512571216E-1
1.240003125E0,3.772045612E0,-9.259162903E0,-2.578555346E-1
1.242003125E0,3.765064240E0,-9.235068321E0,-2.695296705E-1
1.244003125E0,3.752240658E0,-9.218893051E0,-2.787712812E-1
1.246003125E0,3.732636929E0,-9.202670097E0,-2.754002512E-1
1.248003125E0,3.699970484E0,-9.195889473E0,-2.580949366E-1
1.250003125E0,3.671441078E0,-9.191915512E0,-2.416994423E-1
1.252003125E0,3.634120464E0,-9.188563347E0,-2.186001837E-1
1.254003125E0,3.596042871E0,-9.194461823E0,-2.073761821E-1
1.256003125E0,3.565071821E0,-9.204230309E0,-1.892855763E-1
1.258003125E0,3.539942026E0,-9.213903427E0,-1.720569134E-1
1.260003125E0,3.511470318E0,-9.219324112E0,-1.491396129E-1
1.262003125E0,3.489319086E0,-9.227742195E0,-1.283483654E-1
1.264003125E0,3.466392279E0,-9.230719566E0,-1.087254882E-1
1.266003125E0,3.443072796E0,-9.230298996E0,-8.347144723E-2
1.268003125E0,3.417224884E0,-9.229915619E0,-5.153279752E-2
1.270003125E0,3.399086475E0,-9.232099533E0,-2.285983786E-2
1.272003125E0,3.399325848E0,-9.239531517E0,3.428496886E-3
1.274003125E0,3.399230242E0,-9.237308502E0,2.527319267E-2
1.276184375E0,3.394594908E0,-9.235556602E0,4.509718344E-2
1.278296875E0,3.386875868E0,-9.236274719E0,5.634035543E-2
1.280184375E0,3.390237570E0,-9.231735229E0,6.992983818E-2
1.282003125E0,3.389988422E0,-9.232683182E0,8.035898954E-2
1.284003125E0,3.389212847E0,-9.222925186E0,9.257899225E-2
1.286003125E0,3.383284569E0,-9.216547012E0,1.017439961E-1
1.288003125E0,3.385382175E0,-9.210647583E0,1.089936346E-1
1.290003125E0,3.397257328E0,-9.207793236E0,1.053640321E-1
1.292003125E0,3.416286469E0,-9.208310127E0,9.278967977E-2
1.294051562E0,3.434999466E0,-9.211508751E0,8.440040052E-2
1.296003125E0,3.450475693E0,-9.216499329E0,7.852981240E-2
1.298003125E0,3.463346958E0,-9.214784622E0,7.282203436E-2
1.300003125E0,3.467244625E0,-9.213835716E0,5.233725160E-2
1.302003125E0,3.472913980E0,-9.210129738E0,2.766739391E-2
1.304003125E0,3.478813410E0,-9.207880020E0,-9.193734732E-4
1.306003125E0,3.480652094E0,-9.203186989E0,-3.091393225E-2
1.308003125E0,3.483745337E0,-9.200869560E0,-7.050444931E-2
1.310003125E0,3.489845991E0,-9.196109772E0,-1.241632998E-1
1.312003125E0,3.502487421E0,-9.181610107E0,-1.724687219E-1
1.314003125E0,3.500974178E0,-9.165780067E0,-2.142523229E-1
1.316184375E0,3.510129690E0,-9.158769608E0,-2.382326573E-1
1.318226562E0,3.518882751E0,-9.145639420E0,-2.625864446E-1
1.320200000E0,3.521027803E0,-9.135862350E0,-2.823051214E-1
1.322003125E0,3.515195608E0,-9.127855301E0,-2.902826071E-1
1.324003125E0,3.512581348E0,-9.123125076E0,-2.984707654E-1
1.326003125E0,3.503224611E0,-9.118633270E0,-2.870647907E-1
1.328003125E0,3.489491463E0,-9.109372139E0,-2.635728717E-1
1.330003125E0,3.476045609E0,-9.108587265E0,-2.229959369E-1
1.332003125E0,3.455168247E0,-9.117905617E0,-1.871595234E-1
1.334003125E0,3.428611755E0,-9.131993294E0,-1.572032720E-1
1.336003125E0,3.406001091E0,-9.150792122E0,-1.217116416E-1
1.338003125E0,3.377950430E0,-9.173766136E0,-8.443870395E-2
1.340003125E0,3.351834536E0,-9.208539963E0,-4.042370245E-2
1.342003125E0,3.321753740E0,-9.243141174E0,-4.338293336E-3
1.344003125E0,3.299114227E0,-9.278766632E0,1.926853508E-2
1.346003125E0,3.279089212E0,-9.316211700E0,3.825934231E-2
1.348003125E0,3.270488977E0,-9.356482506E0,6.277596951E-2
1.350003125E0,3.264560938E0,-9.394513130E0,8.869080991E-2
1.352003125E0,3.254122257E0,-9.437722206E0,1.119528711E-1
1.354003125E0,3.254045725E0,-9.486919403E0,1.551825702E-1
1.356182812E0,3.270287991E0,-9.539984703E0,1.995806545E-1
1.358296875E0,3.295781612E0,-9.587609291E0,2.374952435E-1
1.360182812E0,3.330880404E0,-9.641364098E0,2.651817799E-1
1.362003125E0,3.362589359E0,-9.697666168E0,2.789627910E-1
1.364003125E0,3.389136314E0,-9.747896194E0,2.849866152E-1
1.366003125E0,3.421170712E0,-9.781788826E0,2.840385139E-1
1.368003125E0,3.439855099E0,-9.800463676E0,2.690221071E-1
1.370003125E0,3.454976797E0,-9.794353485E0,2.557581961E-1
1.372003125E0,3.467818975E0,-9.775937080E0,2.408566922E-1
1.374003125E0,3.476610661E0,-9.740628242E0,2.315959185E-1
1.376003125E0,3.492354870E0,-9.709130287E0,2.145492136E-1
1.378003125E0,3.491339922E0,-9.669137001E0,1.983548254E-1
1.380003125E0,3.477309704E0,-9.618035316E0,1.762707084E-1
1.382003125E0,3.465798616E0,-9.567316055E0,1.604402512E-1
1.384003125E0,3.458797932E0,-9.522927284E0,1.471189111E-1
1.386003125E0,3.435478210E0,-9.478481293E0,1.277545989E-1
1.388003125E0,3.402716160E0,-9.434868813E0,1.109856144E-1
1.390003125E0,3.372242689E0,-9.399645805E0,8.305007219E-2
1.392003125E0,3.343081236E0,-9.368769646E0,6.300581247E-2
1.394003125E0,3.315433025E0,-9.345374107E0,4.931097850E-2
1.396184375E0,3.284930944E0,-9.324563026E0,3.768473491E-2
1.398064062E0,3.254419088E0,-9.302220345E0,3.731124103E-2
1.400004687E0,3.228351116E0,-9.292288780E0,4.052904621E-2
1.402003125E0,3.208900690E0,-9.286811829E0,3.780923411E-2
1.404003125E0,3.201449871E0,-9.288162231E0,3.884352744E-2
1.406003125E0,3.191193104E0,-9.290967941E0,4.117069393E-2
1.408003125E0,3.185791731E0,-9.300228119E0,4.070142657E-2
1.410003125E0,3.180045605E0,-9.302067757E0,4.455130547E-2
1.412003125E0,3.178225994E0,-9.312955856E0,4.362235591E-2
1.414003125E0,3.177795172E0,-9.331793785E0,3.760812059E-2
1.416003125E0,3.180543661E0,-9.350506783E0,2.775358595E-2
1.418003125E0,3.191097498E0,-9.361635208E0,2.501462027E-2
1.420003125E0,3.194449186E0,-9.360112190E0,2.398032323E-2
1.422003125E0,3.192419052E0,-9.352326393E0,2.476562373E-2
1.424003125E0,3.193089247E0,-9.346282959E0,2.928587608E-2
1.426003125E0,3.188071012E0,-9.341226578E0,2.536896057E-2
1.428003125E0,3.179576397E0,-9.344320297E0,2.513911761E-2
1.430003125E0,3.182583570E0,-9.349032402E0,1.888546348E-2
1.432003125E0,3.183742523E0,-9.354088783E0,1.951753162E-2
1.434003125E0,3.197791576E0,-9.359365463E0,1.999637298E-2
1.436182812E0,3.205127478E0,-9.369229317E0,1.978568360E-2
1.438289062E0,3.206726789E0,-9.366097450E0,2.731305361E-2
1.440165625E0,3.208287954E0,-9.357507706E0,2.847184800E-2
1.442003125E0,3.217883825E0,-9.352757454E0,3.445735201E-2
1.444003125E0,3.227566004E0,-9.348046303E0,3.766557947E-2
1.446003125E0,3.222001791E0,-9.332196236E0,4.660074413E-2
1.448003125E0,3.212185621E0,-9.321957588E0,6.825389713E-2
1.450003125E0,3.224309921E0,-9.311011314E0,8.458235860E-2
1.452003125E0,3.229241610E0,-9.302995682E0,1.003649384E-1
1.454003125E0,3.237602234E0,-9.302871704E0,1.153143346E-1
1.456003125E0,3.256085634E0,-9.306932449E0,1.254082918E-1
1.458003125E0,3.274501801E0,-9.306472778E0,1.264138520E-1
1.460003125E0,3.284442663E0,-9.305486679E0,1.262510419E-1
1.462003125E0,3.299688816E0,-9.303111076E0,1.220276728E-1
1.464003125E0,3.318717957E0,-9.307592392E0,1.176319197E-1
1.466003125E0,3.336415768E0,-9.330060959E0,1.088787168E-1
1.468003125E0,3.357800722E0,-9.349070549E0,8.446744084E-2
1.470003125E0,3.376552343E0,-9.366145134E0,5.663723499E-2
1.472003125E0,3.386866570E0,-9.377455711E0,1.907699928E-2
1.474003125E0,3.391664505E0,-9.392242432E0,-1.106121205E-2
1.476182812E0,3.391252756E0,-9.393334389E0,-3.816357255E-2
1.478056250E0,3.394479990E0,-9.389455795E0,-6.571605057E-2
1.480003125E0,3.393349886E0,-9.375962257E0,-8.359594643E-2
1.482003125E0,3.383131504E0,-9.363119125E0,-1.038413197E-1
1.484003125E0,3.361727238E0,-9.360428810E0,-1.176989600E-1
1.486003125E0,3.340983868E0,-9.350391388E0,-1.274768710E-1
1.488003125E0,3.309629440E0,-9.346580505E0,-1.376378685E-1
1.490003125E0,3.279223204E0,-9.339991570E0,-1.454238147E-1
1.492003125E0,3.247859240E0,-9.334743500E0,-1.555464864E-1
1.494003125E0,3.212664366E0,-9.338420868E0,-1.575001627E-1
1.496003125E0,3.179834843E0,-9.335596085E0,-1.594442576E-1
1.498003125E0,3.142619610E0,-9.330712318E0,-1.589749902E-1
1.500003125E0,3.105327368E0,-9.335452080E0,-1.602008194E-1
1.502003125E0,3.069998503E0,-9.337635994E0,-1.678239554E-1
1.504003125E0,3.036125422E0,-9.342481613E0,-1.596262157E-1
1.506003125E0,3.011120319E0,-9.348849297E0,-1.534108669E-1
1.508003125E0,2.991200686E0,-9.356818199E0,-1.440639049E-1
1.510003125E0,2.964902878E0,-9.360839844E0,-1.281951368E-1
1.512003125E0,2.943067551E0,-9.368281364E0,-1.108898446E-1
1.514003125E0,2.927179575E0,-9.376766205E0,-9.387185425E-2
1.516182812E0,2.919767380E0,-9.378940582E0,-7.192181796E-2
1.518296875E0,2.920715332E0,-9.380912781E0,-4.744350165E-2
1.520187500E0,2.929717541E0,-9.379275322E0,-1.997721940E-2
1.522003125E0,2.929411173E0,-9.375138283E0,5.784391426E-3
1.524003125E0,2.935884953E0,-9.382081985E0,3.835510835E-2
1.526003125E0,2.947147369E0,-9.384532928E0,7.124187052E-2
1.528003125E0,2.956207037E0,-9.379955292E0,9.937852621E-2
1.530003125E0,2.965860367E0,-9.387511253E0,1.253891289E-1
1.532003125E0,2.975925684E0,-9.393841743E0,1.494460702E-1
1.534003125E0,2.986910105E0,-9.404664040E0,1.661959141E-1
1.536003125E0,3.003458977E0,-9.420982361E0,1.775252670E-1
1.538003125E0,3.022162676E0,-9.426795959E0,1.840758026E-1
1.540003125E0,3.034085751E0,-9.443957329E0,1.938824505E-1
1.542003125E0,3.036786318E0,-9.454309464E0,1.988432407E-1
1.544003125E0,3.046545267E0,-9.456943512E0,2.033251822E-1
1.546003125E0,3.056571960E0,-9.466176033E0,2.007681727E-1
1.548003125E0,3.080351114E0,-9.488222122E0,1.937196553E-1
1.550003125E0,3.103804588E0,-9.502922058E0,1.776880771E-1
1.552003125E0,3.124222517E0,-9.511100769E0,1.602582783E-1
1.554034375E0,3.137218237E0,-9.508227348E0,1.463144571E-1
1.556182812E0,3.160327196E0,-9.508706093E0,1.211561784E-1
1.558056250E0,3.178465605E0,-9.508236885E0,1.041669324E-1
1.560003125E0,3.189727783E0,-9.507777214E0,8.963891119E-2
1.562003125E0,3.205318928E0,-9.497490883E0,7.715075463E-2
1.564003125E0,3.217778206E0,-9.478740692E0,7.523539662E-2
1.566003125E0,3.222882748E0,-9.459327698E0,6.452852488E-2
1.568003125E0,3.222672224E0,-9.442798615E0,5.396530405E-2
1.570003125E0,3.217213392E0,-9.421920776E0,5.766195431E-2
1.572003125E0,3.205290318E0,-9.413981438E0,5.381207541E-2
1.574003125E0,3.201660633E0,-9.415754318E0,4.095042497E-2
1.576003125E0,3.201967001E0,-9.420982361E0,2.816538885E-2
1.578003125E0,3.191959143E0,-9.415648460E0,9.787496179E-3
1.580003125E0,3.182851791E0,-9.397912025E0,-8.599972352E-3
1.582003125E0,3.166868210E0,-9.395412445E0,-2.240015008E-2
1.584003125E0,3.156486750E0,-9.394971848E0,-3.794331104E-2
1.586003125E0,3.153470278E0,-9.384150505E0,-5.217444152E-2
1.588003125E0,3.138108969E0,-9.372074127E0,-6.383899599E-2
1.590003125E0,3.129796028E0,-9.362822533E0,-7.537904382E-2
1.592003125E0,3.120573759E0,-9.353762627E0,-8.294472843E-2
1.594003125E0,3.121933699E0,-9.344453812E0,-8.990705758E-2
1.596184375E0,3.127890348E0,-9.346780777E0,-9.092220664E-2
1.598348437E0,3.129595280E0,-9.346551895E0,-8.374917507E-2
1.600198437E0,3.119261742E0,-9.342021942E0,-7.445967197E-2
1.602003125E0,3.106878996E0,-9.334551811E0,-5.269159004E-2
1.604003125E0,3.108267546E0,-9.340537071E0,-3.295379132E-2
1.606003125E0,3.131941319E0,-9.358484268E0,-1.597411372E-2
1.608003125E0,3.157789230E0,-9.378212929E0,-6.847416982E-3
1.610003125E0,3.174941301E0,-9.408514023E0,-4.137180280E-3
1.612003125E0,3.188348770E0,-9.439465523E0,-1.540908217E-2
1.614003125E0,3.205031633E0,-9.466721535E0,-2.698744275E-2
1.616003125E0,3.224462986E0,-9.489111900E0,-4.402458295E-2
1.618003125E0,3.238406658E0,-9.511704445E0,-6.069780141E-2
1.620003125E0,3.251651525E0,-9.522295952E0,-7.571423054E-2
1.622003125E0,3.262233973E0,-9.533960342E0,-8.486966044E-2
1.624003125E0,3.267577648E0,-9.540088654E0,-8.484093845E-2
1.626003125E0,3.268209696E0,-9.538748741E0,-8.840350062E-2
1.628003125E0,3.264024734E0,-9.529086113E0,-8.573157340E-2
1.630003125E0,3.257847548E0,-9.515314102E0,-7.398083806E-2
1.632003125E0,3.256162167E0,-9.502174377E0,-6.430825591E-2
1.634003125E0,3.244545460E0,-9.492186546E0,-5.083369091E-2
1.636182812E0,3.227000713E0,-9.485128403E0,-3.949474916E-2
1.638056250E0,3.212041855E0,-9.477753639E0,-2.757162601E-2
1.640003125E0,3.202196836E0,-9.477773666E0,-1.334049180E-2
1.642003125E0,3.180744886E0,-9.474718094E0,-8.140285499E-4
1.644003125E0,3.167375803E0,-9.468770981E0,9.758765809E-3
1.646003125E0,3.147944450E0,-9.460841179E0,1.943134144E-2
1.648003125E0,3.129192829E0,-9.450766563E0,3.483084589E-2
1.650003125E0,3.113429546E0,-9.448774338E0,5.612966418E-2
1.652003125E0,3.094591856E0,-9.453093529E0,7.627926767E-2
1.654003125E0,3.074317932E0,-9.457020760E0,9.231084585E-2
1.656003125E0,3.061484814E0,-9.467525482E0,1.124029830E-1
1.658003125E0,3.052788973E0,-9.471021652E0,1.404247135E-1
1.660003125E0,3.053938150E0,-9.482982635E0,1.648264229E-1
1.662003125E0,3.039573193E0,-9.498295784E0,1.879161000E-1
1.664003125E0,3.036805391E0,-9.520859718E0,2.138883919E-1
1.666184375E0,3.046659946E0,-9.542253494E0,2.275928259E-1
1.668226562E0,3.053507328E0,-9.557748795E0,2.439308465E-1
1.670010937E0,3.065325260E0,-9.580465317E0,2.547717988E-1
1.672003125E0,3.095559120E0,-9.593413353E0,2.580949366E-1
1.674003125E0,3.127124310E0,-9.604330063E0,2.567829192E-1
1.676184375E0,3.153249741E0,-9.603497505E0,2.426954359E-1
1.678296875E0,3.172451496E0,-9.590549469E0,2.243271172E-1
1.680184375E0,3.184738398E0,-9.579478264E0,2.000020295E-1
1.682003125E0,3.185159683E0,-9.569691658E0,1.750352979E-1
1.684003125E0,3.182688951E0,-9.562441826E0,1.492545307E-1
1.686003125E0,3.185064077E0,-9.541678429E0,1.235791147E-1
1.688003125E0,3.170861483E0,-9.525360107E0,1.080263853E-1
1.690003125E0,3.160020828E0,-9.502768517E0,9.251195192E-2
1.692003125E0,3.147235632E0,-9.483575821E0,7.348284125E-2
1.694003125E0,3.138913393E0,-9.459222794E0,5.541140214E-2
1.696003125E0,3.126932859E0,-9.443938255E0,4.359362274E-2
1.698003125E0,3.115296841E0,-9.428892136E0,4.336377978E-2
1.700003125E0,3.102023363E0,-9.416433334E0,4.205175862E-2
1.702003125E0,3.081768513E0,-9.400516510E0,3.566402942E-2
1.704003125E0,3.055432320E0,-9.382253647E0,2.867295966E-2
1.706003125E0,3.040233850E0,-9.375406265E0,1.592622884E-2
1.708003125E0,3.039161444E0,-9.372303963E0,1.335964538E-2
1.710003125E0,3.025322676E0,-9.362353325E0,1.736275107E-2
1.712003125E0,3.018944502E0,-9.360399246E0,2.362598293E-2
1.714003125E0,3.022765875E0,-9.355485916E0,2.218946069E-2
1.716184375E0,3.018954277E0,-9.363320351E0,2.263957262E-2
1.718351562E0,3.013821125E0,-9.371345520E0,3.148854151E-2
1.720581250E0,3.008975267E0,-9.382301331E0,3.761769831E-2
1.722414062E0,3.012786865E0,-9.392166138E0,4.100788385E-2
1.724098437E0,3.029201508E0,-9.403284073E0,5.012500659E-2
1.726003125E0,3.046774864E0,-9.412765503E0,5.548801646E-2
1.728003125E0,3.070573330E0,-9.428940773E0,5.661807954E-2
1.730003125E0,3.101410627E0,-9.446160316E0,5.419514701E-2
1.732003125E0,3.125831604E0,-9.449579239E0,5.942408741E-2
1.734003125E0,3.159953594E0,-9.463053703E0,5.236597732E-2
1.736003125E0,3.190130234E0,-9.480981827E0,5.998911709E-2
1.738003125E0,3.221972942E0,-9.488690376E0,6.014234573E-2
1.740003125E0,3.246987581E0,-9.492933273E0,6.262274086E-2
1.742003125E0,3.268784523E0,-9.501169205E0,6.841670722E-2
1.744003125E0,3.283484936E0,-9.504970551E0,6.736325473E-2
1.746003125E0,3.293387175E0,-9.503726959E0,6.469132751E-2
1.748003125E0,3.296049595E0,-9.505995750E0,5.668511987E-2
1.750003125E0,3.293578863E0,-9.503870010E0,4.442680627E-2
1.752003125E0,3.274003983E0,-9.491928101E0,3.906379268E-2
1.754003125E0,3.257943630E0,-9.471548080E0,3.824976832E-2
1.756182812E0,3.241883039E0,-9.463723183E0,3.558741510E-2
1.758359375E0,3.218793392E0,-9.450842857E0,2.733220719E-2
1.760210937E0,3.178800821E0,-9.439944267E0,2.229480632E-2
1.762003125E0,3.148978472E0,-9.435155869E0,2.343444712E-2
1.764003125E0,3.124548197E0,-9.425004959E0,2.570414916E-2
1.766003125E0,3.104034662E0,-9.423501015E0,3.807738423E-2
1.768003125E0,3.081567287E0,-9.425311089E0,5.126464739E-2
1.770003125E0,3.054838657E0,-9.425176620E0,6.346549839E-2
1.772003125E0,3.025897503E0,-9.429563522E0,7.827124000E-2
1.774003125E0,2.998814106E0,-9.430779457E0,8.311710507E-2
1.776003125E0,2.985799313E0,-9.432512283E0,8.592311293E-2
1.778003125E0,2.979066849E0,-9.429658890E0,8.250419050E-2
1.780003125E0,2.967766285E0,-9.427303314E0,8.957187831E-2
1.782003125E0,2.960583687E0,-9.436975479E0,9.757808596E-2
1.784003125E0,2.956254959E0,-9.441668510E0,1.066377386E-1
1.786003125E0,2.958581924E0,-9.447921753E0,1.207348034E-1
1.788003125E0,2.972899437E0,-9.455018997E0,1.323706210E-1
1.790003125E0,2.986144066E0,-9.469958305E0,1.384135932E-1
1.792003125E0,3.001993656E0,-9.479774475E0,1.428380758E-1
1.794003125E0,3.023235083E0,-9.501600266E0,1.488427222E-1
1.796182812E0,3.027899027E0,-9.511110306E0,1.494556367E-1
1.798056250E0,3.024891853E0,-9.523665428E0,1.429625750E-1
1.800003125E0,3.038270712E0,-9.539007187E0,1.390648037E-1
1.802003125E0,3.066847801E0,-9.555527687E0,1.314129531E-1
1.804003125E0,3.089946985E0,-9.568493843E0,1.256381273E-1
1.806003125E0,3.120296240E0,-9.575055122E0,1.166455075E-1
1.808003125E0,3.146737576E0,-9.574048996E0,1.060918644E-1
1.810003125E0,3.164665222E0,-9.572976112E0,9.703220427E-2
1.812003125E0,3.181798458E0,-9.570045471E0,9.032844752E-2
1.814003125E0,3.189747095E0,-9.551218033E0,8.682333678E-2
1.816003125E0,3.196460485E0,-9.530962944E0,9.018479288E-2
1.818003125E0,3.196508408E0,-9.521855354E0,8.493670076E-2
1.820003125E0,3.192620039E0,-9.501752853E0,8.317457139E-2
1.822003125E0,3.187123060E0,-9.481134415E0,8.189127594E-2
1.824003125E0,3.185657740E0,-9.470417976E0,8.065586537E-2
1.826003125E0,3.168505669E0,-9.452050209E0,7.577169687E-2
1.828003125E0,3.154255390E0,-9.436756134E0,7.331045717E-2
1.830003125E0,3.136308432E0,-9.426450729E0,6.858909130E-2
1.832003125E0,3.118380547E0,-9.417764664E0,6.549578160E-2
1.834003125E0,3.103890896E0,-9.408187866E0,6.224924326E-2
1.836182812E0,3.091287851E0,-9.406043053E0,5.823656172E-2
1.838296875E0,3.076922655E0,-9.402958870E0,5.813121796E-2
1.840185937E0,3.067853451E0,-9.398965836E0,6.359957159E-2
1.842003125E0,3.050864220E0,-9.398974419E0,6.400179863E-2
1.844003125E0,3.035914898E0,-9.396475792E0,6.185659394E-2
1.846003125E0,3.028703451E0,-9.402633667E0,6.366661191E-2
1.848003125E0,3.025160074E0,-9.407162666E0,6.875190139E-2
1.850003125E0,3.023081779E0,-9.413129807E0,7.134721428E-2
1.852003125E0,3.023043394E0,-9.412421227E0,6.924030930E-2
1.854003125E0,3.024575949E0,-9.419115067E0,7.121313363E-2
1.856003125E0,3.027669191E0,-9.432378769E0,7.645164430E-2
1.858003125E0,3.027180672E0,-9.434293747E0,8.087613434E-2
1.860003125E0,3.020591736E0,-9.438306808E0,8.604760468E-2
1.862003125E0,3.013122082E0,-9.445049286E0,8.767566830E-2
1.864003125E0,3.013955116E0,-9.449214935E0,9.242576361E-2
1.866003125E0,3.016186476E0,-9.454797745E0,9.164046496E-2
1.868003125E0,3.019988537E0,-9.459557533E0,8.991663903E-2
1.870003125E0,3.019030809E0,-9.473855972E0,8.750328422E-2
1.872003125E0,3.013428450E0,-9.480463982E0,8.787677437E-2
1.874003125E0,3.002185345E0,-9.490481377E0,8.726385981E-2
1.876182812E0,3.001256466E0,-9.493928909E0,9.081685543E-2
1.878056250E0,3.004809380E0,-9.502749443E0,8.866208047E-2
1.880003125E0,3.014108419E0,-9.514135361E0,8.482177556E-2
1.882003125E0,3.026692390E0,-9.522248268E0,8.089528978E-2
1.884003125E0,3.038491011E0,-9.528626442E0,7.876923680E-2
1.886003125E0,3.052425385E0,-9.532513618E0,8.124962449E-2
1.888003125E0,3.066943645E0,-9.531700134E0,8.778101206E-2
1.890003125E0,3.081529140E0,-9.533922195E0,9.239703417E-2
1.892003125E0,3.094208717E0,-9.525876999E0,8.993579447E-2
1.894003125E0,3.104666710E0,-9.518235207E0,9.263645113E-2
1.896003125E0,3.111197948E0,-9.503659248E0,1.017631441E-1
1.898003125E0,3.110795975E0,-9.494158745E0,1.075858474E-1
1.900003125E0,3.115354538E0,-9.488163948E0,1.123550981E-1
1.902003125E0,3.118265867E0,-9.480405807E0,1.178426072E-1
1.904003125E0,3.109321117E0,-9.474105835E0,1.159272492E-1
1.906003125E0,3.106189489E0,-9.468282700E0,1.262031645E-1
1.908003125E0,3.088539362E0,-9.465610504E0,1.320737451E-1
1.910003125E0,3.079000711E0,-9.463456154E0,1.435084492E-1
1.912003125E0,3.068159819E0,-9.457201958E0,1.554507315E-1
1.914003125E0,3.058879852E0,-9.453103065E0,1.592910290E-1
1.916184375E0,3.046755791E0,-9.456828117E0,1.644625068E-1
1.918296875E0,3.034756184E0,-9.461081505E0,1.703235060E-1
1.920184375E0,3.030618906E0,-9.469316483E0,1.748820692E-1
1.922003125E0,3.027343512E0,-9.470820427E0,1.754854172E-1
1.924003125E0,3.021310091E0,-9.468588829E0,1.711471081E-1
1.926003125E0,3.023733139E0,-9.467927933E0,1.652956903E-1
1.928003125E0,3.032122374E0,-9.473090172E0,1.582854688E-1
1.930003125E0,3.033970594E0,-9.483326912E0,1.539088637E-1
1.932003125E0,3.029249191E0,-9.483212471E0,1.509496272E-1
1.934003125E0,3.018418074E0,-9.482187271E0,1.448875070E-1
1.936001562E0,3.012298346E0,-9.481345177E0,1.440543234E-1
1.938003125E0,3.016780376E0,-9.488710403E0,1.417463273E-1
1.940003125E0,3.029651642E0,-9.491898537E0,1.383178234E-1
1.942003125E0,3.047694445E0,-9.494743347E0,1.352340877E-1
1.944003125E0,3.064013243E0,-9.495940208E0,1.214434877E-1
1.946003125E0,3.077056646E0,-9.497309685E0,1.126711369E-1
1.948003125E0,3.090186596E0,-9.498315811E0,9.771215916E-2
1.950003125E0,3.093433142E0,-9.488862991E0,8.079952002E-2
1.952003125E0,3.099897385E0,-9.479611397E0,7.784028351E-2
1.954034375E0,3.107185364E0,-9.465791702E0,7.552269846E-2
1.956182812E0,3.108736753E0,-9.452548027E0,7.388506085E-2
1.958056250E0,3.108545303E0,-9.444550514E0,8.169016242E-2
1.960003125E0,3.108124018E0,-9.438651085E0,8.612421900E-2
1.962003125E0,3.103661060E0,-9.429975510E0,8.640195429E-2
1.964003125E0,3.101496935E0,-9.423692703E0,8.568369597E-2
1.966003125E0,3.099686861E0,-9.418396950E0,9.168834984E-2
1.968003125E0,3.093988419E0,-9.412670135E0,9.136273712E-2
1.970003125E0,3.082984924E0,-9.415467262E0,8.345229179E-2
1.972003125E0,3.063256502E0,-9.411693573E0,8.264784515E-2
1.974003125E0,3.048900843E0,-9.405937195E0,8.037813753E-2
1.976003125E0,3.040559530E0,-9.406253815E0,7.953538001E-2
1.978003125E0,3.028722763E0,-9.406023026E0,7.666233927E-2
1.980003125E0,3.020227909E0,-9.408417702E0,8.252334595E-2
1.982003125E0,3.016569614E0,-9.407297134E0,9.090305120E-2
1.984003125E0,3.011063099E0,-9.410964966E0,1.004415527E-1
1.986003125E0,3.010421276E0,-9.423338890E0,1.074900851E-1
1.988003125E0,3.008122921E0,-9.427188873E0,1.263563931E-1
1.990003125E0,2.993393898E0,-9.434179306E0,1.505282372E-1
1.992003125E0,2.977831602E0,-9.439867973E0,1.722675860E-1
1.994003125E0,2.980311871E0,-9.448457718E0,1.970619559E-1
1.996184375E0,2.981662035E0,-9.462124825E0,2.203623205E-1
1.998296875E0,2.982514381E0,-9.474890709E0,2.336932421E-1
2.000356250E0,2.985559940E0,-9.482762337E0,2.477902919E-1
2.001848437E0,2.992196798E0,-9.494522095E0,2.583152056E-1
2.004004687E0,2.997636318E0,-9.498879433E0,2.562083006E-1
2.006003125E0,3.007596254E0,-9.515141487E0,2.578076422E-1
2.008003125E0,3.012461185E0,-9.520830154E0,2.547143102E-1
2.010003125E0,3.013821125E0,-9.523196220E0,2.440649271E-1
2.012003125E0,3.022497892E0,-9.527313232E0,2.329749763E-1
2.014003125E0,3.031097651E0,-9.528138161E0,2.222106457E-1
2.016184375E0,3.035579681E0,-9.520226479E0,2.171923965E-1
2.018226562E0,3.039870024E0,-9.519700050E0,2.108812928E-1
2.020007812E0,3.040301085E0,-9.525033951E0,2.074910849E-1
2.022003125E0,3.037772655E0,-9.527850151E0,2.000307590E-1
2.024003125E0,3.034688950E0,-9.513752937E0,1.944953799E-1
2.026003125E0,3.029680252E0,-9.509568214E0,1.948688626E-1
2.028003125E0,3.028349161E0,-9.510085106E0,1.886822581E-1
2.030003125E0,3.028061867E0,-9.508791924E0,1.818539947E-1
2.032003125E0,3.027927637E0,-9.513101578E0,1.689061373E-1
2.034003125E0,3.030676365E0,-9.517737389E0,1.574522853E-1
2.036182812E0,3.036365032E0,-9.521002769E0,1.444661319E-1
2.038056250E0,3.039975405E0,-9.521375656E0,1.249869093E-1
2.040003125E0,3.048105955E0,-9.520284653E0,1.067143530E-1
2.042003125E0,3.056447506E0,-9.515783310E0,9.246407449E-2
2.044003125E0,3.060067415E0,-9.513236046E0,7.529285550E-2
2.046003125E0,3.059425831E0,-9.508495331E0,5.827486888E-2
2.048003125E0,3.061427593E0,-9.501351357E0,4.282747954E-2
2.050003125E0,3.061025143E0,-9.489915848E0,3.005201928E-2
2.052003125E0,3.063907623E0,-9.481210709E0,2.440170199E-2
2.054003125E0,3.059243917E0,-9.467756271E0,2.315671928E-2
2.056003125E0,3.050595999E0,-9.460304260E0,2.108812891E-2
2.058003125E0,3.047186852E0,-9.451121330E0,1.747767255E-2
2.060003125E0,3.044735193E0,-9.441936493E0,1.824381575E-2
2.062003125E0,3.041919470E0,-9.422285080E0,1.984314434E-2
2.064003125E0,3.035110235E0,-9.408389091E0,1.684560440E-2
2.066003125E0,3.029144049E0,-9.394320488E0,2.095405385E-2
2.068003125E0,3.027554274E0,-9.390192986E0,2.597229928E-2
2.070003125E0,3.017766953E0,-9.388181686E0,3.392105177E-2
2.072003125E0,3.003794193E0,-9.387474060E0,4.277959466E-2
2.074003125E0,2.999082327E0,-9.382244110E0,4.536533356E-2
2.076182812E0,2.997128725E0,-9.377475739E0,5.444414541E-2
2.078443750E0,2.995711327E0,-9.374353409E0,6.202897802E-2
2.080075000E0,2.995328426E0,-9.368338585E0,8.006210625E-2
2.082003125E0,2.996123075E0,-9.365695000E0,8.996452391E-2
2.084003125E0,2.995615482E0,-9.367046356E0,1.091277152E-1
2.086003125E0,3.004914522E0,-9.367074966E0,1.265670806E-1
2.088003125E0,3.009645462E0,-9.375483513E0,1.438915282E-1
2.090003125E0,3.015420437E0,-9.382042885E0,1.553741097E-1
2.092003125E0,3.024853468E0,-9.396677017E0,1.683889925E-1
2.094003125E0,3.031547785E0,-9.403897285E0,1.776784956E-1
2.096003125E0,3.039621115E0,-9.409940720E0,1.835107654E-1
2.098003125E0,3.056227207E0,-9.414336205E0,1.824190170E-1
2.100003125E0,3.076357603E0,-9.419833183E0,1.768261492E-1
2.102003125E0,3.097589254E0,-9.424267769E0,1.809346229E-1
2.104003125E0,3.110613823E0,-9.428423882E0,1.847653389E-1
2.106003125E0,3.117001772E0,-9.432388306E0,1.843152195E-1
2.108003125E0,3.129824877E0,-9.441007614E0,1.887014061E-1
2.110003125E0,3.144400835E0,-9.454990387E0,1.877628714E-1
2.112003125E0,3.159312010E0,-9.470045090E0,1.906742305E-1
2.114003125E0,3.159790754E0,-9.486008644E0,1.871595234E-1
2.116182812E0,3.157061338E0,-9.492692947E0,1.821891814E-1
2.118056250E0,3.148193359E0,-9.499636650E0,1.825818121E-1
2.120003125E0,3.141259670E0,-9.511483192E0,1.872936040E-1
2.122003125E0,3.133148193E0,-9.521126747E0,1.887588650E-1
2.124003125E0,3.121416569E0,-9.528654099E0,1.890270114E-1
2.126003125E0,3.100462437E0,-9.533998489E0,1.848802418E-1
2.128003125E0,3.080226660E0,-9.531077385E0,1.771804988E-1
2.130003125E0,3.062864065E0,-9.522736549E0,1.745373011E-1
2.132003125E0,3.041277885E0,-9.516376495E0,1.722005606E-1
2.134003125E0,3.009137869E0,-9.513906479E0,1.656212956E-1
2.136003125E0,2.978425264E0,-9.507106781E0,1.539663225E-1
2.138003125E0,2.956944227E0,-9.498171806E0,1.453950852E-1
2.140003125E0,2.944034815E0,-9.490405083E0,1.370824128E-1
2.142003125E0,2.942119598E0,-9.479305267E0,1.359619349E-1
2.144003125E0,2.931786060E0,-9.466664314E0,1.349467784E-1
2.146003125E0,2.923492670E0,-9.468129158E0,1.431158036E-1
2.148003125E0,2.920705795E0,-9.457441330E0,1.537460685E-1
2.150003125E0,2.923243761E0,-9.457403183E0,1.546462774E-1
2.152003125E0,2.923665047E0,-9.461425781E0,1.550197750E-1
2.154003125E0,2.932456493E0,-9.463512421E0,1.535162181E-1
2.156184375E0,2.942828178E0,-9.459002495E0,1.494173408E-1
2.158450000E0,2.949962854E0,-9.450469971E0,1.362204999E-1
2.160237500E0,2.978425264E0,-9.452116966E0,1.221809015E-1
2.161848437E0,3.002434254E0,-9.447528839E0,1.074421927E-1
2.164003125E0,3.014184952E0,-9.448075294E0,9.847830236E-2
2.166003125E0,3.026912689E0,-9.454721451E0,8.197746426E-2
2.168003125E0,3.040377617E0,-9.451944351E0,6.779421121E-2
2.170003125E0,3.050883293E0,-9.455946922E0,5.847598240E-2
2.172003125E0,3.062174320E0,-9.459059715E0,4.765418917E-2
2.174003125E0,3.081634521E0,-9.460554123E0,3.420835361E-2
2.176003125E0,3.088931799E0,-9.460850716E0,2.055182680E-2
2.178003125E0,3.100845575E0,-9.454453468E0,1.405875199E-2
2.180003125E0,3.113199711E0,-9.447969437E0,1.011310797E-2
2.182003125E0,3.125582457E0,-9.444052696E0,6.981492043E-3
2.184003125E0,3.137285471E0,-9.439015388E0,1.310107112E-2
2.186003125E0,3.138875008E0,-9.441534042E0,1.617522538E-2
2.188003125E0,3.136969328E0,-9.443028450E0,1.697010174E-2
2.190150000E0,3.144602060E0,-9.430645943E0,1.553358044E-2
2.192003125E0,3.147034407E0,-9.436353683E0,5.564124789E-3
2.194003125E0,3.147963285E0,-9.440031052E0,7.144297939E-3
2.196182812E0,3.139382601E0,-9.439599991E0,1.051533408E-2
2.198053125E0,3.129192829E0,-9.434494972E0,1.200931519E-2
2.200003125E0,3.126233578E0,-9.422370911E0,1.540908217E-2
2.202003125E0,3.112031221E0,-9.418043137E0,1.770751551E-2
2.204003125E0,3.103728294E0,-9.410438538E0,2.563711256E-2
2.206003125E0,3.096325159E0,-9.398687363E0,3.807738423E-2
2.208003125E0,3.085819483E0,-9.388737679E0,5.425260961E-2
2.210003125E0,3.077363253E0,-9.391648293E0,6.203855574E-2
2.212003125E0,3.065296412E0,-9.396005630E0,6.937438995E-2
2.214003125E0,3.047110081E0,-9.395125389E0,8.870995790E-2
2.216153125E0,3.032763958E0,-9.396111488E0,1.058620214E-1
2.218398437E0,3.022516727E0,-9.396991730E0,1.268448085E-1
2.220260937E0,3.010201216E0,-9.403935432E0,1.447342783E-1
2.222003125E0,3.000365734E0,-9.403275490E0,1.648551524E-1
2.224003125E0,2.988854170E0,-9.406119347E0,1.878011823E-1
2.226003125E0,2.971184969E0,-9.406875610E0,2.039093673E-1
2.228003125E0,2.958601236E0,-9.413952827E0,2.057672739E-1
2.230003125E0,2.947223902E0,-9.420264244E0,2.128445208E-1
2.232003125E0,2.931048870E0,-9.427073479E0,2.184373885E-1
2.234003125E0,2.926001787E0,-9.436209679E0,2.255625278E-1
2.236182812E0,2.928865194E0,-9.442194939E0,2.240589708E-1
2.238287500E0,2.926155090E0,-9.452863693E0,2.221148908E-1
2.240165625E0,2.929688931E0,-9.465562820E0,2.254092991E-1
2.242003125E0,2.933529139E0,-9.480895042E0,2.271043956E-1
2.244003125E0,2.945538521E0,-9.492003441E0,2.202952951E-1
2.246003125E0,2.957969189E0,-9.507596016E0,2.171923965E-1
2.248003125E0,2.969777346E0,-9.525081635E0,2.084775120E-1
2.250003125E0,2.984075546E0,-9.544369698E0,2.010554820E-1
2.252003125E0,3.000020981E0,-9.565458298E0,1.954147518E-1
2.254003125E0,3.019748926E0,-9.584285736E0,2.071559131E-1
2.256003125E0,3.038883448E0,-9.602874756E0,2.160431892E-1
2.258003125E0,3.067681074E0,-9.615736008E0,2.134957612E-1
2.260003125E0,3.096354008E0,-9.637648582E0,2.123369575E-1
2.262003125E0,3.109704018E0,-9.650815964E0,2.074336410E-1
2.264003125E0,3.123360634E0,-9.654790878E0,2.016779780E-1
2.266003125E0,3.140187025E0,-9.650806427E0,1.967554986E-1
2.268003125E0,3.154504299E0,-9.641775131E0,1.876096427E-1
2.270003125E0,3.168486595E0,-9.630781174E0,1.807909608E-1
2.272003125E0,3.177670717E0,-9.610718727E0,1.780041009E-1
2.274003125E0,3.184384108E0,-9.592714310E0,1.764526665E-1
2.276182812E0,3.179863691E0,-9.570035934E0,1.704096943E-1
2.278053125E0,3.176971674E0,-9.556179047E0,1.783297062E-1
2.280003125E0,3.164157629E0,-9.541622162E0,1.811931878E-1
2.282003125E0,3.150606632E0,-9.521941185E0,1.763185859E-1
2.284003125E0,3.130514383E0,-9.506695747E0,1.775348485E-1
2.286003125E0,3.109790325E0,-9.483164787E0,1.851675510E-1
2.288003125E0,3.082706928E0,-9.468378067E0,1.937483847E-1
2.290003125E0,3.062088251E0,-9.449501991E0,2.058342993E-1
2.292003125E0,3.051927328E0,-9.435970306E0,2.240398228E-1
2.294003125E0,3.025773048E0,-9.426612854E0,2.345455736E-1
2.296003125E0,3.011005640E0,-9.415266037E0,2.485660315E-1
2.298003125E0,2.995558023E0,-9.413158417E0,2.635441720E-1
2.300003125E0,2.982112408E0,-9.413110733E0,2.834830582E-1
2.302003125E0,2.974900961E0,-9.404883385E0,3.000892401E-1
2.304003125E0,2.971778870E0,-9.411645889E0,3.171263635E-1
2.306003125E0,2.976653576E0,-9.415935516E0,3.361842334E-1
2.308003125E0,2.977400303E0,-9.433470726E0,3.527904153E-1
2.310003125E0,2.974115610E0,-9.457116127E0,3.691763282E-1
2.312003125E0,2.981307745E0,-9.475733757E0,3.907432854E-1
2.314003125E0,3.003506899E0,-9.492703438E0,4.023408294E-1
2.316184375E0,3.029153585E0,-9.512412071E0,4.030590951E-1
2.318287500E0,3.051678181E0,-9.523139000E0,4.009234309E-1
2.320164062E0,3.076759815E0,-9.527466774E0,3.878032267E-1
2.322003125E0,3.109598637E0,-9.535760880E0,3.632482886E-1
2.324003125E0,3.141537428E0,-9.542876244E0,3.318555057E-1
2.326003125E0,3.170871019E0,-9.522305489E0,2.864327133E-1
2.328003125E0,3.196489096E0,-9.501839638E0,2.476849556E-1
2.330003125E0,3.224118233E0,-9.474440575E0,2.128062248E-1
2.332003125E0,3.245484114E0,-9.451541901E0,1.762707084E-1
2.334003125E0,3.264493942E0,-9.424889565E0,1.397639215E-1
2.336003125E0,3.265863419E0,-9.398611069E0,1.055842936E-1
2.338003125E0,3.254313946E0,-9.373510361E0,7.861600816E-2
2.340003125E0,3.236338139E0,-9.344799042E0,5.537309498E-2
2.342003125E0,3.206927776E0,-9.323586464E0,3.783796355E-2
2.344003125E0,3.174309254E0,-9.307929039E0,2.471773885E-2
2.346003125E0,3.136806488E0,-9.300706863E0,1.519839186E-2
2.348003125E0,3.086193085E0,-9.288008690E0,1.330218464E-2
2.350003125E0,3.036422253E0,-9.279877663E0,1.150174532E-2
2.352003125E0,2.989907742E0,-9.280346870E0,1.420240384E-2
2.354003125E0,2.948267937E0,-9.285299301E0,2.369301952E-2
2.356182812E0,2.897702456E0,-9.291887283E0,3.261860460E-2
2.358053125E0,2.860486746E0,-9.303647041E0,5.278735608E-2
2.360003125E0,2.829783678E0,-9.308723450E0,7.337749749E-2
2.362003125E0,2.812803984E0,-9.329839706E0,1.090511009E-1
2.364003125E0,2.798160791E0,-9.355342865E0,1.437574476E-1
2.366184375E0,2.790403843E0,-9.369909286E0,1.730624735E-1
2.368226562E0,2.789991856E0,-9.390988350E0,2.053171545E-1
2.370004687E0,2.788823605E0,-9.410524368E0,2.299199849E-1
2.372003125E0,2.791734934E0,-9.434150696E0,2.512858212E-1
2.374003125E0,2.794818640E0,-9.455420494E0,2.733603716E-1
2.376003125E0,2.808714628E0,-9.472697258E0,2.876394093E-1
2.378003125E0,2.823347807E0,-9.495288849E0,2.975035012E-1
2.380003125E0,2.847156048E0,-9.504185677E0,3.071473241E-1
2.382003125E0,2.880464077E0,-9.504778862E0,3.140809536E-1
2.384003125E0,2.918081760E0,-9.503908157E0,3.119644821E-1
2.386003125E0,2.953008413E0,-9.498363495E0,3.051745296E-1
2.388003125E0,2.989562988E0,-9.488959312E0,2.973406911E-1
2.390003125E0,3.032658577E0,-9.473204613E0,2.897846103E-1
2.392003125E0,3.060709238E0,-9.452318192E0,2.808685899E-1
2.394003125E0,3.078158140E0,-9.446331978E0,2.688209414E-1
2.396182812E0,3.084335089E0,-9.443659782E0,2.475508749E-1
2.398287500E0,3.083281755E0,-9.438354492E0,2.240493894E-1
2.400165625E0,3.090224743E0,-9.439398766E0,2.018407732E-1
2.402003125E0,3.098891735E0,-9.437005043E0,1.832522005E-1
2.404003125E0,3.090512276E0,-9.433757782E0,1.636389047E-1
2.406003125E0,3.078924417E0,-9.431966782E0,1.510645449E-1
2.408003125E0,3.067786455E0,-9.425674438E0,1.381071359E-1
2.410003125E0,3.060316324E0,-9.427897453E0,1.342859864E-1
2.412003125E0,3.049456358E0,-9.441495895E0,1.321790963E-1
2.414003125E0,3.042570591E0,-9.456168175E0,1.335964501E-1
2.416003125E0,3.033779144E0,-9.474363327E0,1.500972956E-1
2.418003125E0,3.023905516E0,-9.492042542E0,1.718270779E-1
2.420003125E0,3.022871017E0,-9.517153740E0,1.836544126E-1
2.422003125E0,3.014673233E0,-9.534888268E0,1.962191910E-1
2.424003125E0,2.994092703E0,-9.552251816E0,2.062173784E-1
2.426003125E0,2.984803438E0,-9.576366425E0,2.063227296E-1
2.428003125E0,2.980800390E0,-9.597846985E0,2.084870934E-1
2.430003125E0,2.975303173E0,-9.605461121E0,2.144151330E-1
2.432003125E0,2.973809004E0,-9.606561661E0,2.262233347E-1
2.434003125E0,2.975523472E0,-9.610756874E0,2.317778766E-1
2.436182812E0,2.970543385E0,-9.614319801E0,2.459898591E-1
2.438051562E0,2.972382307E0,-9.599964142E0,2.624236345E-1
2.440001562E0,2.979516983E0,-9.589745522E0,2.795087099E-1
2.442003125E0,2.994159937E0,-9.587446213E0,3.018513918E-1
2.444003125E0,3.008161068E0,-9.587455750E0,3.188502192E-1
2.446003125E0,3.027123213E0,-9.587810516E0,3.399191797E-1
2.448003125E0,3.049475670E0,-9.586421967E0,3.486340642E-1
2.450003125E0,3.067087412E0,-9.575781822E0,3.489501178E-1
2.452003125E0,3.078129292E0,-9.574872017E0,3.501376212E-1
2.454003125E0,3.092207193E0,-9.564615250E0,3.454450071E-1
2.456003125E0,3.113850832E0,-9.543297768E0,3.310510516E-1
2.458003125E0,3.127325535E0,-9.522525787E0,3.170114458E-1
2.460003125E0,3.141604424E0,-9.506542206E0,3.020142019E-1
2.462003125E0,3.151123762E0,-9.488269806E0,2.775741518E-1
2.464003125E0,3.154877901E0,-9.466022491E0,2.540535331E-1
2.466003125E0,3.155280113E0,-9.447730064E0,2.274012715E-1
2.468003125E0,3.146852493E0,-9.427246094E0,2.107472122E-1
2.470003125E0,3.141815186E0,-9.410103798E0,1.910668761E-1
2.472003125E0,3.135714531E0,-9.397873878E0,1.776689142E-1
2.474003125E0,3.121368647E0,-9.388938904E0,1.639645100E-1
2.476184375E0,3.104034662E0,-9.390844345E0,1.602582783E-1
2.478285937E0,3.089382172E0,-9.394014359E0,1.569830179E-1
2.480165625E0,3.070831776E0,-9.396810532E0,1.520413756E-1
2.482003125E0,3.051601648E0,-9.404299736E0,1.597890109E-1
2.484003125E0,3.035024166E0,-9.416998863E0,1.640315354E-1
2.486003125E0,3.021166563E0,-9.429181099E0,1.715014428E-1
2.488003125E0,3.013792515E0,-9.445815086E0,1.816337109E-1
2.490003125E0,3.004933834E0,-9.465936661E0,1.880501658E-1
2.492003125E0,3.000739336E0,-9.480129242E0,1.919958144E-1
2.494003125E0,2.999465466E0,-9.487052917E0,1.974258721E-1
2.496003125E0,2.994293928E0,-9.505545616E0,2.087648213E-1
2.498003125E0,2.972631454E0,-9.523559570E0,2.302072793E-1
2.500003125E0,2.960554838E0,-9.531700134E0,2.511134446E-1
2.502003125E0,2.952194452E0,-9.546735764E0,2.675568163E-1
2.504003125E0,2.952443361E0,-9.553056717E0,2.877064347E-1
2.506003125E0,2.951380253E0,-9.555948257E0,3.153546751E-1
2.508003125E0,2.956312180E0,-9.552835464E0,3.375920057E-1
2.510003125E0,2.962441683E0,-9.543345451E0,3.606338203E-1
2.512003125E0,2.966521263E0,-9.535511971E0,3.847961128E-1
2.514003125E0,2.971453428E0,-9.530311584E0,4.088817835E-1
2.516182812E0,2.979775667E0,-9.531757355E0,4.335516393E-1
2.518053125E0,2.992723465E0,-9.531632423E0,4.569956362E-1
2.520003125E0,3.008486748E0,-9.527955055E0,4.700871408E-1
2.522003125E0,3.021520853E0,-9.532762527E0,4.816463292E-1
2.524003125E0,3.044715881E0,-9.539936066E0,4.824220538E-1
2.526003125E0,3.079747915E0,-9.551322937E0,4.695795476E-1
2.528003125E0,3.111571550E0,-9.563907623E0,4.586236775E-1
2.530003125E0,3.137850285E0,-9.561205864E0,4.406384528E-1
2.532003125E0,3.160576105E0,-9.559731483E0,4.143501222E-1
2.534003125E0,3.188846827E0,-9.555948257E0,3.889333010E-1
2.536003125E0,3.211744785E0,-9.537225723E0,3.605763614E-1
2.538003125E0,3.225391865E0,-9.520150185E0,3.319225609E-1
2.540003125E0,3.239345312E0,-9.504041672E0,3.052319884E-1
2.542003125E0,3.244602919E0,-9.484362602E0,2.839714587E-1
2.544003125E0,3.242036343E0,-9.466490746E0,2.693955600E-1
2.546003125E0,3.230592012E0,-9.451111794E0,2.581619918E-1
2.548003125E0,3.211792946E0,-9.438220978E0,2.459228188E-1
2.550003125E0,3.190043926E0,-9.415610313E0,2.349956781E-1
2.552003125E0,3.157971144E0,-9.403648376E0,2.353979200E-1
2.554003125E0,3.132956505E0,-9.400075912E0,2.287324518E-1
2.556182812E0,3.102722645E0,-9.394033432E0,2.189545333E-1
2.558287500E0,3.070477486E0,-9.393947601E0,2.141374052E-1
2.560165625E0,3.042723894E0,-9.384715080E0,2.125380635E-1
2.562003125E0,3.016741991E0,-9.374995232E0,2.073378563E-1
2.564003125E0,2.990482330E0,-9.376747131E0,2.036029100E-1
2.566003125E0,2.980378866E0,-9.366087914E0,2.070984542E-1
2.568003125E0,2.958189487E0,-9.356664658E0,2.132659107E-1
2.570003125E0,2.935722113E0,-9.359691620E0,2.172307074E-1
2.572003125E0,2.919757843E0,-9.357871056E0,2.287611812E-1
2.574003125E0,2.898765326E0,-9.352365494E0,2.404640317E-1
2.576003125E0,2.892856359E0,-9.342806816E0,2.607668638E-1
2.578003125E0,2.890807152E0,-9.334724426E0,2.811846435E-1
2.580003125E0,2.894484520E0,-9.339034081E0,2.999264300E-1
2.582003125E0,2.890328169E0,-9.341437340E0,3.160154819E-1
2.584003125E0,2.888125420E0,-9.340623856E0,3.270575404E-1
2.586003125E0,2.900125265E0,-9.348544121E0,3.380325735E-1
2.588003125E0,2.908840179E0,-9.359336853E0,3.440659344E-1
2.590003125E0,2.912728310E0,-9.367458344E0,3.580097556E-1
2.592003125E0,2.922515869E0,-9.382827759E0,3.599921465E-1
2.594003125E0,2.939083815E0,-9.403150558E0,3.627886176E-1
2.596182812E0,2.955393076E0,-9.420704842E0,3.551367223E-1
2.598053125E0,2.972439766E0,-9.431651115E0,3.482893109E-1
2.600003125E0,2.991593361E0,-9.439513206E0,3.315777779E-1
2.602003125E0,3.025907040E0,-9.444474220E0,3.112749755E-1
2.604003125E0,3.056821108E0,-9.447290421E0,2.906465232E-1
2.606003125E0,3.083137989E0,-9.451627731E0,2.742893398E-1
2.608003125E0,3.095271826E0,-9.451992035E0,2.488724887E-1
2.610003125E0,3.110125542E0,-9.448755264E0,2.208698839E-1
2.612003125E0,3.120037317E0,-9.447903633E0,2.004425675E-1
2.614003125E0,3.120822668E0,-9.447740555E0,1.917947084E-1
2.616003125E0,3.118409395E0,-9.445642471E0,1.928002834E-1
2.618003125E0,3.108056784E0,-9.440672874E0,1.902911514E-1
2.620003125E0,3.088271141E0,-9.437062263E0,1.835682392E-1
2.622003125E0,3.068217278E0,-9.439772606E0,1.767208129E-1
2.624003125E0,3.039630651E0,-9.441524506E0,1.715110391E-1
2.626003125E0,3.020122528E0,-9.448228836E0,1.614937037E-1
2.628003125E0,3.000212431E0,-9.454884529E0,1.648264229E-1
2.630003125E0,2.966655254E0,-9.454827309E0,1.676611602E-1
2.632003125E0,2.941238642E0,-9.453045845E0,1.709555835E-1
2.634003125E0,2.914232016E0,-9.447577477E0,1.832330525E-1
2.636182812E0,2.892071009E0,-9.448046684E0,1.926470548E-1
2.638287500E0,2.867133141E0,-9.453954697E0,2.057385445E-1
2.640164062E0,2.838795424E0,-9.451197624E0,2.240206599E-1
2.642003125E0,2.821863413E0,-9.450517654E0,2.381081581E-1
2.644003125E0,2.811338663E0,-9.454702377E0,2.490161359E-1
2.646003125E0,2.800765753E0,-9.459749222E0,2.708895504E-1
2.648003125E0,2.800038099E0,-9.454099655E0,2.953295708E-1
2.650003125E0,2.792242527E0,-9.447519302E0,3.253911734E-1
2.652003125E0,2.794943094E0,-9.444120407E0,3.540641069E-1
2.654065625E0,2.805353165E0,-9.452183723E0,3.715226352E-1
2.656003125E0,2.821260214E0,-9.457116127E0,3.857537806E-1
2.658003125E0,2.838134527E0,-9.454587936E0,3.928022981E-1
2.660003125E0,2.855592966E0,-9.458513260E0,3.998412490E-1
2.662003125E0,2.876221418E0,-9.464604378E0,4.010766745E-1
2.664003125E0,2.902126789E0,-9.475378990E0,4.069568217E-1
2.666003125E0,2.937790871E0,-9.480923653E0,4.036049545E-1
2.668003125E0,2.964845181E0,-9.484697342E0,4.046488106E-1
2.670003125E0,2.993020296E0,-9.487607956E0,3.977918029E-1
2.672003125E0,3.021080256E0,-9.499962807E0,3.885214925E-1
2.674003125E0,3.047588825E0,-9.500633240E0,3.784945607E-1
2.676182812E0,3.071157455E0,-9.493334770E0,3.621469438E-1
2.678053125E0,3.084229708E0,-9.483700752E0,3.394595087E-1
2.680003125E0,3.100720882E0,-9.475560188E0,3.180457354E-1
2.682003125E0,3.111954689E0,-9.471097946E0,2.956168950E-1
2.684003125E0,3.121655941E0,-9.465658188E0,2.645497024E-1
2.686003125E0,3.114837170E0,-9.453304291E0,2.402341962E-1
2.688003125E0,3.102195740E0,-9.444484711E0,2.204006314E-1
2.690003125E0,3.090703726E0,-9.429122925E0,2.112835050E-1
2.692003125E0,3.073561192E0,-9.418013573E0,2.007681727E-1
2.694003125E0,3.055403471E0,-9.408091545E0,1.860869229E-1
2.696003125E0,3.034353733E0,-9.399061203E0,1.735413224E-1
2.698003125E0,3.005881786E0,-9.400516510E0,1.664544791E-1
2.700003125E0,2.978722095E0,-9.413637161E0,1.626620591E-1
2.702003125E0,2.957375526E0,-9.422610283E0,1.597507149E-1
2.704003125E0,2.932178736E0,-9.429515839E0,1.563317925E-1
2.706003125E0,2.920236588E0,-9.440557480E0,1.426178068E-1
2.708003125E0,2.911789894E0,-9.446954727E0,1.413440853E-1
2.710003125E0,2.902117252E0,-9.460736275E0,1.538130939E-1
2.712003125E0,2.894647121E0,-9.477035522E0,1.700266302E-1
2.714003125E0,2.889073849E0,-9.490481377E0,1.854452789E-1
2.716185937E0,2.887445450E0,-9.509452820E0,2.040721774E-1
2.718226562E0,2.881010056E0,-9.531479836E0,2.222968489E-1
2.720206250E0,2.873023033E0,-9.550815582E0,2.387976795E-1
2.722218750E0,2.869881630E0,-9.567564964E0,2.555666566E-1
2.724475000E0,2.868962288E0,-9.581173897E0,2.726804316E-1
2.726362500E0,2.881651640E0,-9.592627525E0,2.911444902E-1
2.728350000E0,2.891314745E0,-9.602606773E0,3.064769506E-1
2.730017187E0,2.904339075E0,-9.607193947E0,3.276033998E-1
2.732003125E0,2.914595604E0,-9.610756874E0,3.516795039E-1
2.734003125E0,2.922678709E0,-9.609597206E0,3.758705258E-1
2.736003125E0,2.941219330E0,-9.612538338E0,3.973608613E-1
2.738003125E0,2.966186047E0,-9.610383034E0,4.116207361E-1
2.740003125E0,2.994284391E0,-9.609195709E0,4.238407314E-1
2.742003125E0,3.027037144E0,-9.601121902E0,4.408682883E-1
2.744003125E0,3.061532736E0,-9.594255447E0,4.465952516E-1
2.746003125E0,3.085196972E0,-9.582801819E0,4.478689432E-1
2.748003125E0,3.107970715E0,-9.575724602E0,4.442201853E-1
2.750003125E0,3.126434803E0,-9.569997787E0,4.330632091E-1
2.752003125E0,3.137553453E0,-9.560593605E0,4.159685969E-1
2.754003125E0,3.147972822E0,-9.551236153E0,3.943824768E-1
2.756182812E0,3.168428898E0,-9.524651527E0,3.831776083E-1
2.758081250E0,3.185274601E0,-9.496658325E0,3.584407270E-1
2.760003125E0,3.196795702E0,-9.474363327E0,3.336655200E-1
2.762003125E0,3.202914953E0,-9.453083992E0,3.130658269E-1
2.764003125E0,3.205404997E0,-9.427858353E0,3.054905832E-1
2.766003125E0,3.204763412E0,-9.403227806E0,2.925331295E-1
2.768003125E0,3.196613550E0,-9.385395050E0,2.744233906E-1
2.770003125E0,3.186672926E0,-9.369785309E0,2.593590617E-1
2.772003125E0,3.181529999E0,-9.354308128E0,2.442085743E-1
2.774003125E0,3.174835920E0,-9.339895248E0,2.291155308E-1
2.776003125E0,3.155615330E0,-9.329389572E0,2.160623372E-1
2.778003125E0,3.132477760E0,-9.324438095E0,2.027505785E-1
2.780003125E0,3.115430832E0,-9.327474594E0,2.036124915E-1
2.782003125E0,3.098911047E0,-9.331401825E0,1.996476948E-1
2.784003125E0,3.086250544E0,-9.332559586E0,1.987091601E-1
2.786003125E0,3.078828335E0,-9.333746910E0,2.014864385E-1
2.788003125E0,3.063764095E0,-9.344301224E0,2.047329694E-1
2.790003125E0,3.046410799E0,-9.363559723E0,2.097033411E-1
2.792003125E0,3.037236214E0,-9.380396843E0,2.154494226E-1
2.794003125E0,3.032955647E0,-9.400028229E0,2.152387351E-1
2.796182812E0,3.027257442E0,-9.421452522E0,2.173073292E-1
2.798279687E0,3.020371675E0,-9.440834999E0,2.233885974E-1
2.800156250E0,3.013725281E0,-9.456973076E0,2.253901511E-1
2.802003125E0,3.012719631E0,-9.469048500E0,2.337698489E-1
2.804003125E0,3.011168242E0,-9.480272293E0,2.473306060E-1
2.806003125E0,3.016531229E0,-9.491601944E0,2.638122737E-1
2.808003125E0,3.017488956E0,-9.499569893E0,2.790010870E-1
2.810003125E0,3.011034250E0,-9.507747650E0,2.957701087E-1
2.812003125E0,2.997511625E0,-9.518216133E0,3.039487004E-1
2.814003125E0,2.988433123E0,-9.530761719E0,3.153834045E-1
2.816003125E0,2.982868910E0,-9.542876244E0,3.224510849E-1
2.818003125E0,2.982954979E0,-9.544992447E0,3.304094374E-1
2.820003125E0,2.978434801E0,-9.549062729E0,3.401298821E-1
2.822003125E0,2.973713398E0,-9.547884941E0,3.378697634E-1
2.824003125E0,2.973991156E0,-9.545643806E0,3.424378633E-1
2.826003125E0,2.968944073E0,-9.548468590E0,3.518231511E-1
2.828003125E0,2.970552921E0,-9.550001144E0,3.501376212E-1
2.830003125E0,2.975743771E0,-9.548891068E0,3.458376527E-1
2.832003125E0,2.982974052E0,-9.552405357E0,3.437594771E-1
2.834003125E0,2.990645170E0,-9.562327385E0,3.490554392E-1
2.836182812E0,2.994868755E0,-9.568129539E0,3.512293994E-1
2.838053125E0,3.003057003E0,-9.573876381E0,3.456940055E-1
2.840003125E0,3.019165039E0,-9.580848694E0,3.406565785E-1
2.842003125E0,3.028215170E0,-9.583031654E0,3.371801972E-1
2.844003125E0,3.029747248E0,-9.583616257E0,3.289058506E-1
2.846003125E0,3.038797379E0,-9.584545135E0,3.118591309E-1
2.848003125E0,3.048364639E0,-9.583184242E0,2.999264300E-1
2.850003125E0,3.059770584E0,-9.577045441E0,2.884342670E-1
2.852003125E0,3.069826126E0,-9.570754051E0,2.804567814E-1
2.854003125E0,3.072689772E0,-9.559912682E0,2.687730789E-1
2.856003125E0,3.080753326E0,-9.550422668E0,2.599432766E-1
2.858003125E0,3.078952789E0,-9.541353226E0,2.565818131E-1
2.860003125E0,3.075122356E0,-9.526413918E0,2.580853701E-1
2.862003125E0,3.077066422E0,-9.509674072E0,2.631419003E-1
2.864003125E0,3.069519758E0,-9.496648788E0,2.692615092E-1
2.866003125E0,3.064645290E0,-9.486594200E0,2.744616866E-1
2.868003125E0,3.055652618E0,-9.471691132E0,2.737434506E-1
2.870003125E0,3.045357466E0,-9.455028534E0,2.799971104E-1
2.872003125E0,3.040358305E0,-9.449348450E0,2.911540866E-1
2.874003125E0,3.033147335E0,-9.433403015E0,2.946400344E-1
2.876184375E0,3.033673763E0,-9.408944130E0,2.998594046E-1
2.878287500E0,3.023120165E0,-9.391993523E0,3.029622734E-1
2.880165625E0,3.006954670E0,-9.377274513E0,3.057586849E-1
2.882003125E0,2.996649981E0,-9.364077568E0,3.015640676E-1
2.884003125E0,2.990922928E0,-9.357439995E0,2.973311245E-1
2.886003125E0,2.984688520E0,-9.348026276E0,2.972545028E-1
2.888003125E0,2.976557970E0,-9.346637726E0,2.932418287E-1
2.890003125E0,2.974067926E0,-9.358062744E0,2.850249410E-1
2.892003125E0,2.964174986E0,-9.350544930E0,2.762812972E-1
2.894003125E0,2.947109222E0,-9.343889236E0,2.715886533E-1
2.896003125E0,2.940376520E0,-9.338899612E0,2.679399252E-1
2.898003125E0,2.943853140E0,-9.348562241E0,2.624906898E-1
2.900003125E0,2.956590176E0,-9.359413147E0,2.614947259E-1
2.902003125E0,2.979459524E0,-9.363196373E0,2.606615424E-1
2.904003125E0,2.998009682E0,-9.364096642E0,2.439691424E-1
2.906003125E0,3.007222652E0,-9.367850304E0,2.389030159E-1
2.908003125E0,3.009166718E0,-9.370253563E0,2.270660847E-1
2.910003125E0,3.011599302E0,-9.373050690E0,2.225554138E-1
2.912003125E0,3.025907040E0,-9.372887611E0,2.224692255E-1
2.914003125E0,3.039295435E0,-9.377350807E0,2.157463133E-1
2.916182812E0,3.043997526E0,-9.389206886E0,2.172785997E-1
2.918053125E0,3.042187452E0,-9.395153999E0,2.122412026E-1
2.920003125E0,3.037686586E0,-9.399243355E0,2.109866291E-1
2.922003125E0,3.034258127E0,-9.408514023E0,2.123082280E-1
2.924003125E0,3.035033703E0,-9.429495811E0,2.195674479E-1
2.926003125E0,3.033798456E0,-9.440778732E0,2.187438458E-1
2.928003125E0,3.029661179E0,-9.446868896E0,2.182745785E-1
2.930003125E0,3.015506506E0,-9.459241867E0,2.211859226E-1
2.932003125E0,2.998526812E0,-9.464269638E0,2.317395806E-1
2.934003125E0,2.985148191E0,-9.472812653E0,2.365662903E-1
2.936001562E0,2.984822512E0,-9.483605385E0,2.474551052E-1
2.938003125E0,2.989342690E0,-9.488125801E0,2.600294352E-1
2.940003125E0,2.990827084E0,-9.496074677E0,2.670875490E-1
2.942003125E0,2.994313240E0,-9.503276825E0,2.835117877E-1
2.944003125E0,2.996602058E0,-9.504253387E0,2.972832322E-1
2.946003125E0,2.995194197E0,-9.514451981E0,3.117633760E-1
2.948003125E0,2.990549564E0,-9.530435562E0,3.195588887E-1
2.950003125E0,2.997128725E0,-9.538327217E0,3.200472891E-1
2.952003125E0,3.002951384E0,-9.540692329E0,3.291165531E-1
2.954031250E0,3.007145882E0,-9.539543152E0,3.366630673E-1
2.956184375E0,3.010603189E0,-9.534870148E0,3.468623757E-1
2.958287500E0,3.015659809E0,-9.532073021E0,3.628747761E-1
2.960165625E0,3.024872780E0,-9.529420853E0,3.717716336E-1
2.962003125E0,3.027851105E0,-9.528970718E0,3.845566809E-1
2.964003125E0,3.026960373E0,-9.527715683E0,3.876021206E-1
2.966003125E0,3.029029131E0,-9.530962944E0,3.905325830E-1
2.968003125E0,3.031059265E0,-9.535569191E0,3.896323740E-1
2.970003125E0,3.032917261E0,-9.542311668E0,3.832829595E-1
2.972003125E0,3.040521145E0,-9.545682907E0,3.752384484E-1
2.974003125E0,3.047024012E0,-9.544629097E0,3.661404848E-1
2.976003125E0,3.045979977E0,-9.538585663E0,3.543705642E-1
2.978003125E0,3.046210051E0,-9.534065247E0,3.399479091E-1
2.980003125E0,3.054589510E0,-9.532696724E0,3.277183175E-1
2.982003125E0,3.062720299E0,-9.526681900E0,3.075399995E-1
2.984003125E0,3.067642927E0,-9.526336670E0,2.952625453E-1
2.986003125E0,3.076156378E0,-9.522592545E0,2.792309523E-1
2.988003125E0,3.079450846E0,-9.510516167E0,2.684953511E-1
2.990003125E0,3.088625431E0,-9.498994827E0,2.623757720E-1
2.992003125E0,3.091958284E0,-9.487331390E0,2.526936233E-1
2.994003125E0,3.085857868E0,-9.473262787E0,2.429061234E-1
2.996182812E0,3.075093508E0,-9.459644318E0,2.251315713E-1
2.998053125E0,3.075217962E0,-9.452097893E0,2.193184495E-1
3.000003125E0,3.065162420E0,-9.439782143E0,2.154206783E-1
3.002003125E0,3.055413008E0,-9.423415184E0,2.189832628E-1
3.004003125E0,3.048268795E0,-9.414728165E0,2.213966250E-1
3.006003125E0,3.041143894E0,-9.412976265E0,2.140224725E-1
3.008003125E0,3.033616543E0,-9.402413368E0,2.167422920E-1
3.010003125E0,3.025610209E0,-9.383068085E0,2.178819329E-1
3.012003125E0,3.014300108E0,-9.368434906E0,2.186193317E-1
3.014003125E0,3.006370306E0,-9.357593536E0,2.153823823E-1
3.016003125E0,2.999321699E0,-9.347978592E0,2.196823657E-1
3.018003125E0,2.989562988E0,-9.338229179E0,2.252369225E-1
3.020003125E0,2.970639229E0,-9.332061768E0,2.322471440E-1
3.022003125E0,2.960076094E0,-9.320512772E0,2.338656187E-1
3.024003125E0,2.947185755E0,-9.324247360E0,2.341050357E-1
3.026003125E0,2.930407286E0,-9.332589149E0,2.366716266E-1
3.028003125E0,2.918235064E0,-9.333593369E0,2.471965402E-1
3.030003125E0,2.899464369E0,-9.332838058E0,2.584875822E-1
3.032003125E0,2.894082308E0,-9.334523201E0,2.669152021E-1
3.034003125E0,2.892511606E0,-9.343630791E0,2.667427957E-1
3.036182812E0,2.887119770E0,-9.348159790E0,2.698744237E-1
3.038287500E0,2.875531912E0,-9.364028931E0,2.752470076E-1
3.040165625E0,2.869038820E0,-9.380598068E0,2.813474536E-1
3.042003125E0,2.863426924E0,-9.392405510E0,2.902538478E-1
3.044003125E0,2.872180223E0,-9.407680511E0,2.948603034E-1
3.046003125E0,2.878002882E0,-9.424622536E0,2.975992858E-1
3.048003125E0,2.883356094E0,-9.439523697E0,2.978290915E-1
3.050003125E0,2.892147779E0,-9.455382347E0,3.030005693E-1
3.052003125E0,2.902835369E0,-9.481192589E0,3.060843349E-1
3.054003125E0,2.916520834E0,-9.503180504E0,2.980301976E-1
3.056003125E0,2.926308393E0,-9.526183128E0,2.971204221E-1
3.058003125E0,2.941612005E0,-9.544332504E0,2.930502892E-1
3.060003125E0,2.960066319E0,-9.561187744E0,2.850345075E-1
3.062003125E0,2.976021528E0,-9.581432343E0,2.719334364E-1
3.064003125E0,2.991603136E0,-9.600002289E0,2.594740093E-1
3.066184375E0,3.004684925E0,-9.612892151E0,2.511613369E-1
3.068226562E0,3.020429134E0,-9.627669334E0,2.412110269E-1
3.070003125E0,3.032342434E0,-9.635761261E0,2.281386852E-1
3.072003125E0,3.054139376E0,-9.648182869E0,2.214923799E-1
3.074003125E0,3.068380117E0,-9.655796051E0,2.245090753E-1
3.076182812E0,3.080954552E0,-9.648461342E0,2.211667746E-1
3.078053125E0,3.088443518E0,-9.654062271E0,2.071080208E-1
3.080003125E0,3.104532719E0,-9.639199257E0,1.969757676E-1
3.082003125E0,3.113649607E0,-9.621549606E0,1.966980249E-1
3.084003125E0,3.121291876E0,-9.612298965E0,2.004617155E-1
3.086003125E0,3.124193907E0,-9.598948479E0,2.030761838E-1
3.088003125E0,3.126817942E0,-9.579842567E0,2.140129060E-1
3.090003125E0,3.132247686E0,-9.565621376E0,2.264436036E-1
3.092003125E0,3.134766579E0,-9.544887543E0,2.329558283E-1
3.094003125E0,3.126779556E0,-9.520256042E0,2.436818480E-1
3.096003125E0,3.122651815E0,-9.495537758E0,2.594165206E-1
3.098003125E0,3.108717680E0,-9.479544640E0,2.769133747E-1
3.100003125E0,3.096784830E0,-9.460946083E0,2.936249077E-1
3.102003125E0,3.084325552E0,-9.453495979E0,3.049638271E-1
3.104003125E0,3.063218355E0,-9.442424774E0,3.179116845E-1
3.106003125E0,3.048211336E0,-9.432225227E0,3.203058839E-1
3.108003125E0,3.038720608E0,-9.422006607E0,3.306200802E-1
3.110003125E0,3.025169611E0,-9.417746544E0,3.386933506E-1
3.112003125E0,3.011465073E0,-9.421432495E0,3.473412097E-1
3.114003125E0,2.994198322E0,-9.420475006E0,3.567743599E-1
3.116182812E0,2.978961468E0,-9.423012733E0,3.528957665E-1
3.118285937E0,2.965697765E0,-9.428184509E0,3.427060246E-1
3.120351562E0,2.960076094E0,-9.419948578E0,3.339145184E-1
3.121848437E0,2.949713945E0,-9.420953751E0,3.250847161E-1
3.124003125E0,2.941516161E0,-9.421115875E0,3.187353015E-1
3.126003125E0,2.935186148E0,-9.419325829E0,3.046573699E-1
3.128003125E0,2.929612398E0,-9.422581673E0,3.017364442E-1
3.130003125E0,2.920801401E0,-9.439322472E0,2.953965962E-1
3.132003125E0,2.909922361E0,-9.455822945E0,2.871413827E-1
3.134003125E0,2.902327776E0,-9.465438843E0,2.790394425E-1
3.136003125E0,2.895308018E0,-9.483586311E0,2.720579207E-1
3.138003125E0,2.895537853E0,-9.506771088E0,2.644251883E-1
3.140003125E0,2.900671244E0,-9.518982887E0,2.576831281E-1
3.142003125E0,2.900412560E0,-9.533328056E0,2.472539991E-1
3.144003125E0,2.899588823E0,-9.546745300E0,2.434041351E-1
3.146003125E0,2.895576239E0,-9.557356834E0,2.412397563E-1
3.148003125E0,2.892971516E0,-9.569040298E0,2.333484739E-1
3.150003125E0,2.890577078E0,-9.587772369E0,2.336453497E-1
3.152003125E0,2.894896269E0,-9.607796669E0,2.381177247E-1
3.154003125E0,2.905411720E0,-9.623369217E0,2.492459714E-1
3.156182812E0,2.910133123E0,-9.639181137E0,2.544174492E-1
3.158056250E0,2.906646967E0,-9.649513245E0,2.610254586E-1
3.160003125E0,2.905852318E0,-9.667298317E0,2.633813620E-1
3.162003125E0,2.917516947E0,-9.676309586E0,2.772198319E-1
3.164003125E0,2.929583549E0,-9.684545517E0,2.957605422E-1
3.166003125E0,2.929688931E0,-9.682535172E0,3.115814328E-1
3.168003125E0,2.938355923E0,-9.683635712E0,3.294613063E-1
3.170003125E0,2.945136309E0,-9.688626289E0,3.466420770E-1
3.172003125E0,2.963552475E0,-9.690732002E0,3.656137288E-1
3.174003125E0,2.978339195E0,-9.688137054E0,3.770197332E-1
3.176003125E0,2.996237993E0,-9.683942795E0,3.869125545E-1
3.178003125E0,3.007979155E0,-9.677239418E0,4.003488421E-1
3.180003125E0,3.010766029E0,-9.664741516E0,4.120900035E-1
3.182003125E0,3.021750689E0,-9.649159431E0,4.080007076E-1
3.184003125E0,3.032275677E0,-9.630724907E0,4.098777473E-1
3.186003125E0,3.041593790E0,-9.609521866E0,4.057501554E-1
3.188003125E0,3.051496267E0,-9.585559845E0,3.958381712E-1
3.190003125E0,3.050538540E0,-9.558008194E0,3.868742585E-1
3.192003125E0,3.050902605E0,-9.532935143E0,3.863092363E-1
3.194003125E0,3.064798355E0,-9.497788429E0,3.867018819E-1
3.196184375E0,3.071942568E0,-9.473367691E0,3.890865147E-1
3.198442187E0,3.077353477E0,-9.454922676E0,3.835798204E-1
3.200075000E0,3.089927912E0,-9.431900024E0,3.845662475E-1
3.202003125E0,3.084919453E0,-9.420005798E0,3.877361715E-1
3.204003125E0,3.080561876E0,-9.400114059E0,3.893259168E-1
3.206003125E0,3.092599869E0,-9.374343872E0,3.905804753E-1
3.208003125E0,3.097388506E0,-9.352613449E0,3.918159008E-1
3.210003125E0,3.103785753E0,-9.343754768E0,3.875446618E-1
3.212003125E0,3.109148741E0,-9.333957672E0,3.771921098E-1
3.214003125E0,3.110422373E0,-9.330472946E0,3.707565069E-1
3.216153125E0,3.113142014E0,-9.327004433E0,3.595324755E-1
3.218404687E0,3.116359949E0,-9.318778992E0,3.452247381E-1
3.220415625E0,3.111648083E0,-9.312391281E0,3.338570595E-1
3.222112500E0,3.110106230E0,-9.304777145E0,3.026941121E-1
3.223848437E0,3.117403746E0,-9.304605484E0,2.816443145E-1
3.226003125E0,3.120564222E0,-9.304164886E0,2.697786689E-1
3.228003125E0,3.117786884E0,-9.307171822E0,2.482308298E-1
3.230003125E0,3.102952480E0,-9.304623604E0,2.261084169E-1
3.232003125E0,3.096584082E0,-9.303982735E0,2.098852992E-1
3.234003125E0,3.087275028E0,-9.304643631E0,2.001169622E-1
3.236182812E0,3.077382326E0,-9.299002647E0,1.903390288E-1
3.238204687E0,3.056524277E0,-9.293659210E0,1.849185675E-1
3.239848437E0,3.024288654E0,-9.296607971E0,1.903198808E-1
3.242003125E0,3.011081934E0,-9.295028687E0,1.916127503E-1
3.244003125E0,2.986086607E0,-9.290747643E0,2.026452273E-1
3.246003125E0,2.965582848E0,-9.285873413E0,2.101726085E-1
3.248003125E0,2.940615892E0,-9.288582802E0,2.208603173E-1
3.250003125E0,2.915879250E0,-9.290230751E0,2.292591631E-1
3.252003125E0,2.891994715E0,-9.301837921E0,2.386252880E-1
3.254003125E0,2.869402885E0,-9.306902885E0,2.533544302E-1
3.256003125E0,2.847424030E0,-9.317247391E0,2.701234221E-1
3.258003125E0,2.829371929E0,-9.327818871E0,2.784552276E-1
3.260003125E0,2.811625957E0,-9.336639404E0,2.979632020E-1
3.262003125E0,2.795479536E0,-9.366585732E0,3.145118952E-1
3.264003125E0,2.784475803E0,-9.385787964E0,3.217232227E-1
3.266003125E0,2.773539066E0,-9.398926735E0,3.360693157E-1
3.268003125E0,2.766107321E0,-9.423683167E0,3.497833014E-1
3.270003125E0,2.764326096E0,-9.447491646E0,3.678738773E-1
3.272003125E0,2.767170429E0,-9.469210625E0,3.820954263E-1
3.274003125E0,2.776919603E0,-9.498707771E0,3.910593390E-1
3.276357812E0,2.790911436E0,-9.522754669E0,4.036815464E-1
3.278362500E0,2.802365303E0,-9.553218842E0,4.122049212E-1
3.280229687E0,2.821020842E0,-9.569164276E0,4.242142439E-1
3.281848437E0,2.843852043E0,-9.580043793E0,4.356872439E-1
3.284153125E0,2.859787941E0,-9.584525108E0,4.363384843E-1
3.286003125E0,2.895346403E0,-9.591871262E0,4.305732548E-1
3.288003125E0,2.920265436E0,-9.599685669E0,4.290696681E-1
3.290003125E0,2.939016581E0,-9.603592873E0,4.304200113E-1
3.292003125E0,2.967632055E0,-9.594418526E0,4.243099988E-1
3.294003125E0,3.001687288E0,-9.584572792E0,4.184394181E-1
3.296003125E0,3.024039507E0,-9.578962326E0,4.140340984E-1
3.298003125E0,3.042781353E0,-9.574728966E0,4.155089259E-1
3.300003125E0,3.061389208E0,-9.567564964E0,4.178073406E-1
3.302003125E0,3.078732729E0,-9.566166878E0,4.222414196E-1
3.304003125E0,3.087227345E0,-9.558802605E0,4.249612093E-1
3.306003125E0,3.086537838E0,-9.553027153E0,4.293282330E-1
3.308003125E0,3.097120047E0,-9.547962189E0,4.282939434E-1
3.310003125E0,3.113975286E0,-9.537580490E0,4.286482930E-1
3.312003125E0,3.122843504E0,-9.537800789E0,4.227298200E-1
3.314003125E0,3.139631510E0,-9.531566620E0,4.139000177E-1
3.316182812E0,3.154992819E0,-9.523962021E0,4.037677646E-1
3.318056250E0,3.158210754E0,-9.527916908E0,3.861847222E-1
3.320003125E0,3.169060946E0,-9.533002853E0,3.682760894E-1
3.322003125E0,3.173428297E0,-9.530445099E0,3.523786068E-1
3.324003125E0,3.173753738E0,-9.514729500E0,3.363661766E-1
3.326003125E0,3.169693232E0,-9.504588127E0,3.221446276E-1
3.328003125E0,3.159139633E0,-9.493862152E0,3.043700755E-1
3.330003125E0,3.148959398E0,-9.473396301E0,3.024643064E-1
3.332003125E0,3.133339643E0,-9.463580132E0,3.000892401E-1
3.334003125E0,3.111696005E0,-9.459864616E0,2.937014997E-1
3.336003125E0,3.087792158E0,-9.463139534E0,2.821518779E-1
3.338003125E0,3.072124720E0,-9.469029427E0,2.823817134E-1
3.340003125E0,3.058678865E0,-9.461971283E0,2.855229080E-1
3.342003125E0,3.045233011E0,-9.456962585E0,2.896122038E-1
3.344003125E0,3.024824858E0,-9.456282616E0,2.943623066E-1
3.346003125E0,3.005699873E0,-9.445086479E0,2.998690009E-1
3.348003125E0,2.994121552E0,-9.430894852E0,3.016598523E-1
3.350003125E0,2.981470585E0,-9.419623375E0,3.033932447E-1
3.352003125E0,2.978271961E0,-9.406473160E0,3.126156926E-1
3.354003125E0,2.965266705E0,-9.394062042E0,3.143874109E-1
3.356182812E0,2.951121807E0,-9.387702942E0,3.176914155E-1
3.358296875E0,2.941343784E0,-9.378231049E0,3.174232543E-1
3.360184375E0,2.936871290E0,-9.362889290E0,3.175286055E-1
3.362003125E0,2.925436735E0,-9.351503372E0,3.141192496E-1
3.364003125E0,2.922151804E0,-9.351991653E0,3.181319535E-1
3.366003125E0,2.920112133E0,-9.353294373E0,3.280726671E-1
3.368003125E0,2.926672220E0,-9.351770401E0,3.363853395E-1
3.370003125E0,2.927945852E0,-9.357862473E0,3.450714946E-1
3.372003125E0,2.927304268E0,-9.364067078E0,3.589291275E-1
3.374003125E0,2.930397511E0,-9.367783546E0,3.742137253E-1
3.376003125E0,2.945787430E0,-9.373884201E0,3.918063045E-1
3.378003125E0,2.959290743E0,-9.385337830E0,3.964319229E-1
3.380003125E0,2.967565298E0,-9.396905899E0,4.016991556E-1
3.382003125E0,2.980723619E0,-9.413378716E0,4.062002599E-1
3.384003125E0,3.002060890E0,-9.429409981E0,4.108545780E-1
3.386003125E0,3.020227909E0,-9.439915657E0,4.075218439E-1
3.388003125E0,3.037811041E0,-9.458734512E0,4.022258818E-1
3.390003125E0,3.055365324E0,-9.477217674E0,3.983855844E-1
3.392003125E0,3.075725555E0,-9.488240242E0,3.888662457E-1
3.394003125E0,3.092973471E0,-9.497827530E0,3.688986003E-1
3.396182812E0,3.118486166E0,-9.505181313E0,3.514113426E-1
3.398056250E0,3.130303621E0,-9.518426895E0,3.333877921E-1
3.400003125E0,3.134364367E0,-9.524047852E0,3.236098588E-1
3.402003125E0,3.143059969E0,-9.522784233E0,3.063811958E-1
3.404003125E0,3.146660805E0,-9.517813683E0,2.995529473E-1
3.406003125E0,3.131491184E0,-9.514605522E0,2.977142036E-1
3.408003125E0,3.109024286E0,-9.511349678E0,2.962681055E-1
3.410003125E0,3.097896099E0,-9.510170937E0,3.030772209E-1
3.412003125E0,3.083367825E0,-9.508476257E0,3.045328557E-1
3.414003125E0,3.074537992E0,-9.504052162E0,3.125199378E-1
3.416184375E0,3.061302900E0,-9.498630524E0,3.162548840E-1
3.418226562E0,3.037696123E0,-9.494609833E0,3.320374787E-1
3.420001562E0,3.018102169E0,-9.495125771E0,3.465367556E-1
3.422003125E0,3.004263401E0,-9.499417305E0,3.573489785E-1
3.424003125E0,2.995759249E0,-9.507719994E0,3.633536398E-1
3.426003125E0,2.981633663E0,-9.514250755E0,3.782551289E-1
3.428003125E0,2.976797104E0,-9.523378372E0,3.932524025E-1
3.430003125E0,2.971520185E0,-9.527227402E0,3.933769166E-1
3.432003125E0,2.960028172E0,-9.535185814E0,4.031931460E-1
3.434003125E0,2.952855110E0,-9.539552689E0,4.138904512E-1
3.436182812E0,2.951380253E0,-9.538892746E0,4.163612723E-1
3.438289062E0,2.958735466E0,-9.538336754E0,4.290505052E-1
3.440165625E0,2.965017557E0,-9.528387070E0,4.322874844E-1
3.442003125E0,2.972075701E0,-9.520514488E0,4.332164228E-1
3.444003125E0,2.987207174E0,-9.511713028E0,4.297496378E-1
3.446003125E0,3.002798080E0,-9.495921135E0,4.318373799E-1
3.448003125E0,3.017536879E0,-9.475886345E0,4.278630018E-1
3.450003125E0,3.023359537E0,-9.457834244E0,4.323737025E-1
3.452003125E0,3.042130232E0,-9.439915657E0,4.387039542E-1
3.454003125E0,3.059971571E0,-9.421825409E0,4.324981570E-1
3.456003125E0,3.073475122E0,-9.404873848E0,4.293665588E-1
3.458003125E0,3.079814911E0,-9.390853882E0,4.237832725E-1
3.460003125E0,3.085158587E0,-9.386142731E0,4.100693166E-1
3.462003125E0,3.085474968E0,-9.371738434E0,3.934727013E-1
3.464003125E0,3.085359812E0,-9.352202415E0,3.670311272E-1
3.466003125E0,3.084612846E0,-9.339282990E0,3.461345136E-1
3.468003125E0,3.078857183E0,-9.330913544E0,3.294230103E-1
3.470003125E0,3.069902897E0,-9.320091248E0,3.220775723E-1
3.472003125E0,3.059253454E0,-9.311711311E0,3.135063350E-1
3.474003125E0,3.045280933E0,-9.302968025E0,3.055959046E-1
3.476182812E0,3.025811195E0,-9.290680885E0,2.990262210E-1
3.478056250E0,3.011283159E0,-9.293457985E0,2.976758778E-1
3.480003125E0,3.004167795E0,-9.301530838E0,2.918244600E-1
3.482003125E0,2.986086607E0,-9.313453674E0,2.906656563E-1
3.484003125E0,2.972583294E0,-9.315474510E0,2.917287052E-1
3.486003125E0,2.966396809E0,-9.326861382E0,2.925235629E-1
3.488003125E0,2.949914932E0,-9.346407890E0,2.978099585E-1
3.490003125E0,2.941085100E0,-9.360035896E0,2.993135154E-1
3.492003125E0,2.929909229E0,-9.374074936E0,3.031059206E-1
3.494003125E0,2.934008121E0,-9.397663116E0,3.159388304E-1
3.496003125E0,2.937350273E0,-9.425473213E0,3.216274679E-1
3.498003125E0,2.943900824E0,-9.448831558E0,3.251709044E-1
3.500003125E0,2.957883120E0,-9.474996567E0,3.206985295E-1
3.502003125E0,2.971338272E0,-9.499541283E0,3.164847493E-1
3.504003125E0,2.980340481E0,-9.515131950E0,3.205548823E-1
3.506003125E0,2.991258144E0,-9.530771255E0,3.214167655E-1
3.508003125E0,3.018552065E0,-9.543498993E0,3.170497715E-1
3.510003125E0,3.039621115E0,-9.552433968E0,3.166570961E-1
3.512004687E0,3.061561584E0,-9.564146042E0,3.256210089E-1
3.514003125E0,3.078713655E0,-9.566617012E0,3.363757730E-1
3.516184375E0,3.085628033E0,-9.576778412E0,3.414131701E-1
3.518296875E0,3.091268778E0,-9.588882446E0,3.487489820E-1
3.520185937E0,3.086681366E0,-9.600337029E0,3.649529517E-1
3.522003125E0,3.089832306E0,-9.614539146E0,3.748840988E-1
3.524003125E0,3.091853142E0,-9.615670204E0,3.856580257E-1
3.526003125E0,3.096306086E0,-9.610622406E0,3.941047788E-1
3.528003125E0,3.095281601E0,-9.612767220E0,3.973129988E-1
3.530003125E0,3.091096401E0,-9.610191345E0,3.979546130E-1
3.532003125E0,3.087715864E0,-9.608592033E0,4.068227410E-1
3.534003125E0,3.083195448E0,-9.606638908E0,4.130093753E-1
3.536003125E0,3.084229708E0,-9.607433319E0,4.141298532E-1
3.538003125E0,3.078502893E0,-9.611263275E0,4.152407646E-1
3.540003125E0,3.080523491E0,-9.617135048E0,4.125496745E-1
3.542003125E0,3.081260920E0,-9.615717888E0,4.046009183E-1
3.544003125E0,3.081797361E0,-9.614108086E0,3.923234642E-1
3.546003125E0,3.083655357E0,-9.606466293E0,3.760716319E-1
3.548003125E0,3.086576223E0,-9.599465370E0,3.618979454E-1
3.550003125E0,3.093653202E0,-9.580465317E0,3.467857242E-1
3.552003125E0,3.102176666E0,-9.562460899E0,3.270000517E-1
3.554003125E0,3.109723091E0,-9.548420906E0,3.213593066E-1
3.556182812E0,3.107530355E0,-9.538758278E0,3.087562621E-1
3.558056250E0,3.102464199E0,-9.536364555E0,3.002616167E-1
3.560003125E0,3.088807583E0,-9.525637627E0,2.910391688E-1
3.562003125E0,3.073982716E0,-9.513714790E0,2.804184854E-1
3.564003125E0,3.063601255E0,-9.505201340E0,2.659287751E-1
3.566003125E0,3.044217825E0,-9.495824814E0,2.594165206E-1
3.568003125E0,3.024010658E0,-9.478031158E0,2.438063473E-1
3.570003125E0,3.007356644E0,-9.464862823E0,2.248538584E-1
3.572003125E0,2.992417097E0,-9.455765724E0,2.178819329E-1
3.574003125E0,2.972698212E0,-9.443458557E0,2.148843855E-1
3.576003125E0,2.949800014E0,-9.439533234E0,2.044456750E-1
3.578003125E0,2.928281069E0,-9.435357094E0,2.024441212E-1
3.580003125E0,2.905507326E0,-9.430569649E0,2.095501125E-1
3.582003125E0,2.885769606E0,-9.416069031E0,2.172977477E-1
3.584003125E0,2.863110781E0,-9.408360481E0,2.215498537E-1
3.586003125E0,2.851063251E0,-9.406904221E0,2.307148576E-1
3.588003125E0,2.833250523E0,-9.404586792E0,2.380698323E-1
3.590003125E0,2.820666552E0,-9.409624100E0,2.454727143E-1
3.592003125E0,2.814968348E0,-9.414393425E0,2.578746676E-1
3.594003125E0,2.813378334E0,-9.414624214E0,2.786754966E-1
3.596182812E0,2.816443205E0,-9.417563438E0,2.975417972E-1
3.598296875E0,2.823395729E0,-9.424573898E0,3.182085454E-1
3.600184375E0,2.827456474E0,-9.431229591E0,3.349009454E-1
3.602003125E0,2.829975128E0,-9.431996346E0,3.556347489E-1
3.604003125E0,2.840873480E0,-9.436908722E0,3.833212554E-1
3.606003125E0,2.856397390E0,-9.441744804E0,4.103182852E-1
3.608003125E0,2.878759384E0,-9.445547104E0,4.306211174E-1
3.610003125E0,2.891295433E0,-9.454540253E0,4.445362389E-1
3.612003125E0,2.909491539E0,-9.458226204E0,4.568040967E-1
3.614003125E0,2.945097923E0,-9.471950531E0,4.615637958E-1
3.616003125E0,2.970955372E0,-9.478788376E0,4.659882486E-1
3.618003125E0,3.001514912E0,-9.484677315E0,4.662659764E-1
3.620003125E0,3.038395166E0,-9.481019974E0,4.670225382E-1
3.622003125E0,3.073541880E0,-9.484889030E0,4.655764699E-1
3.624003125E0,3.103441000E0,-9.484687805E0,4.633067548E-1
3.626003125E0,3.133100271E0,-9.482858658E0,4.602421820E-1
3.628003125E0,3.159110785E0,-9.480703354E0,4.544194937E-1
3.630003125E0,3.187400579E0,-9.477409363E0,4.520444274E-1
3.632003125E0,3.206142664E0,-9.481153488E0,4.468537867E-1
3.634003125E0,3.216782570E0,-9.480473518E0,4.422186315E-1
3.636182812E0,3.225660086E0,-9.479899406E0,4.305828214E-1
3.638056250E0,3.235131502E0,-9.484025955E0,4.151641428E-1
3.640003125E0,3.245005131E0,-9.475215912E0,4.031548500E-1
3.642003125E0,3.243693113E0,-9.468032837E0,3.920170069E-1
3.644003125E0,3.249515772E0,-9.453524590E0,3.759375513E-1
3.646003125E0,3.248395443E0,-9.444761276E0,3.667533994E-1
3.648003125E0,3.244382858E0,-9.434456825E0,3.533937335E-1
3.650003125E0,3.233522654E0,-9.419967651E0,3.387412429E-1
3.652003125E0,3.213497639E0,-9.407488823E0,3.303519487E-1
3.654003125E0,3.198212862E0,-9.400603294E0,3.246633410E-1
3.656003125E0,3.190503597E0,-9.395393372E0,3.217424154E-1
3.658003125E0,3.176856756E0,-9.396973610E0,3.177871704E-1
3.660003125E0,3.146785498E0,-9.397376060E0,3.165038824E-1
3.662003125E0,3.124691963E0,-9.396494865E0,3.169635534E-1
3.664003125E0,3.101324558E0,-9.395689964E0,3.146460056E-1
3.666003125E0,3.079355240E0,-9.395766258E0,3.159101307E-1
3.668003125E0,3.052578449E0,-9.390709877E0,3.207080960E-1
3.670003125E0,3.033903599E0,-9.375675201E0,3.267127573E-1
3.672003125E0,3.018657446E0,-9.363578796E0,3.313479424E-1
3.674003125E0,3.004129410E0,-9.361289978E0,3.372280896E-1
3.676184375E0,2.997540474E0,-9.357862473E0,3.432710469E-1
3.678295312E0,2.997578859E0,-9.354155540E0,3.424091637E-1
3.680184375E0,2.991535902E0,-9.352824211E0,3.353893459E-1
3.682003125E0,2.999666452E0,-9.354529381E0,3.338666260E-1
3.684003125E0,3.009837151E0,-9.354740143E0,3.329664171E-1
3.686003125E0,3.016550541E0,-9.355429649E0,3.254965246E-1
3.688003125E0,3.024671555E0,-9.358590126E0,3.141575754E-1
3.690003125E0,3.024767399E0,-9.365896225E0,3.125486672E-1
3.692003125E0,3.030905962E0,-9.375913620E0,3.177680373E-1
3.694003125E0,3.038596153E0,-9.385280609E0,3.195971847E-1
3.696003125E0,3.048134804E0,-9.395738602E0,3.208517432E-1
3.698003125E0,3.043288708E0,-9.407824516E0,3.204016387E-1
3.700003125E0,3.052540064E0,-9.415102959E0,3.173274696E-1
3.702003125E0,3.058717251E0,-9.422112465E0,3.214263618E-1
3.704003125E0,3.062356472E0,-9.428059578E0,3.240025342E-1
3.706003125E0,3.058765173E0,-9.439887047E0,3.317693174E-1
3.708003125E0,3.045070410E0,-9.457058907E0,3.427060246E-1
3.710003125E0,3.043365479E0,-9.464279175E0,3.566690087E-1
3.712003125E0,3.038711071E0,-9.464776993E0,3.709288836E-1
3.714003125E0,3.028904438E0,-9.473769188E0,3.826029897E-1
3.716184375E0,3.025840044E0,-9.488202095E0,3.961541653E-1
3.718351562E0,3.022976637E0,-9.498162270E0,4.064492583E-1
3.720581250E0,3.010105133E0,-9.513667107E0,4.182095528E-1
3.722414062E0,2.999034405E0,-9.532312393E0,4.359170794E-1
3.724098437E0,2.981940031E0,-9.551955223E0,4.478114843E-1
3.726003125E0,2.974134684E0,-9.563552856E0,4.533181489E-1
3.728003125E0,2.966674566E0,-9.565008163E0,4.645325840E-1
3.730003125E0,2.960870743E0,-9.574795723E0,4.647049904E-1
3.732003125E0,2.954808950E0,-9.579833031E0,4.710256755E-1
3.734003125E0,2.954358578E0,-9.581815720E0,4.745595157E-1
3.736003125E0,2.955852747E0,-9.578788757E0,4.740902483E-1
3.738003125E0,2.955421686E0,-9.577659607E0,4.842129350E-1
3.740003125E0,2.961349964E0,-9.576835632E0,4.898919761E-1
3.742003125E0,2.979708433E0,-9.570648193E0,5.056170821E-1
3.744003125E0,3.005498886E0,-9.571702003E0,5.219168067E-1
3.746003125E0,3.030101538E0,-9.572861671E0,5.315032005E-1
3.748003125E0,3.050816298E0,-9.585033417E0,5.440200567E-1
3.750003125E0,3.078426361E0,-9.592215538E0,5.527637601E-1
3.752003125E0,3.097646952E0,-9.590587616E0,5.527924299E-1
3.754003125E0,3.115459681E0,-9.582849503E0,5.600421429E-1
3.756182812E0,3.143548489E0,-9.573473930E0,5.545641184E-1
3.758360937E0,3.175994635E0,-9.562403679E0,5.382643938E-1
3.760209375E0,3.211333275E0,-9.544523239E0,5.137478113E-1
3.762003125E0,3.238301516E0,-9.524210930E0,4.930236042E-1
3.764003125E0,3.249707460E0,-9.499119759E0,4.685356915E-1
3.766184375E0,3.258633137E0,-9.479114532E0,4.436360002E-1
3.768226562E0,3.267740488E0,-9.451896667E0,4.257656932E-1
3.770007812E0,3.263574600E0,-9.425895691E0,4.084029198E-1
3.772003125E0,3.255175829E0,-9.403370857E0,3.988931477E-1
3.774003125E0,3.249870062E0,-9.386487007E0,3.962020874E-1
3.776003125E0,3.232593775E0,-9.364250183E0,3.875925243E-1
3.778003125E0,3.209398746E0,-9.347250938E0,3.722313344E-1
3.780003125E0,3.186213017E0,-9.343055725E0,3.557975292E-1
3.782003125E0,3.166379690E0,-9.339628220E0,3.489213884E-1
3.784003125E0,3.135944605E0,-9.327417374E0,3.431944549E-1
3.786003125E0,3.105279446E0,-9.316432953E0,3.459334075E-1
3.788003125E0,3.072412014E0,-9.315340996E0,3.440946639E-1
3.790003125E0,3.056485891E0,-9.315608978E0,3.517848551E-1
3.792003125E0,3.043710232E0,-9.312908173E0,3.579331636E-1
3.794003125E0,3.028645992E0,-9.318376541E0,3.612084389E-1
3.796182812E0,3.017785788E0,-9.324180603E0,3.705841005E-1
3.798056250E0,3.004885912E0,-9.328767776E0,3.801034689E-1
3.800003125E0,2.998507738E0,-9.335672379E0,3.961446285E-1
3.802003125E0,2.991976261E0,-9.344282150E0,4.170699418E-1
3.804003125E0,2.988241434E0,-9.355754852E0,4.322300255E-1
3.806003125E0,2.996889353E0,-9.359490395E0,4.485680461E-1
3.808003125E0,3.002865314E0,-9.365217209E0,4.589876235E-1
3.810003125E0,3.000490189E0,-9.364833832E0,4.675492942E-1
3.812003125E0,3.010488272E0,-9.366873741E0,4.749234319E-1
3.814003125E0,3.023493767E0,-9.374486923E0,4.764844477E-1
3.816003125E0,3.027515888E0,-9.381037712E0,4.884554446E-1
3.818003125E0,3.039592266E0,-9.386937141E0,5.025046468E-1
3.820003125E0,3.063735247E0,-9.389915466E0,5.005317926E-1
3.822003125E0,3.085781336E0,-9.389167786E0,5.035772324E-1
3.824003125E0,3.101602077E0,-9.382761955E0,5.035868287E-1
3.826003125E0,3.109570026E0,-9.383288383E0,5.046019554E-1
3.828003125E0,3.121799469E0,-9.378585815E0,5.026291013E-1
3.830003125E0,3.138607025E0,-9.380319595E0,4.942685962E-1
3.832003125E0,3.149591446E0,-9.377839088E0,4.815026820E-1
3.834003125E0,3.164320469E0,-9.383058548E0,4.703457057E-1
3.836184375E0,3.172269344E0,-9.386133194E0,4.616403878E-1
3.838350000E0,3.177690029E0,-9.392586708E0,4.548791945E-1
3.840200000E0,3.178111315E0,-9.403743744E0,4.488362074E-1
3.842003125E0,3.176042795E0,-9.421183586E0,4.466047883E-1
3.844003125E0,3.169712305E0,-9.435873985E0,4.361181855E-1
3.846003125E0,3.158344746E0,-9.447740555E0,4.340496361E-1
3.848003125E0,3.146919727E0,-9.459385872E0,4.346912503E-1
3.850003125E0,3.134642124E0,-9.483261108E0,4.351030588E-1
3.852003125E0,3.125754833E0,-9.505775452E0,4.372961521E-1
3.854003125E0,3.118955374E0,-9.527179718E0,4.441435635E-1
3.856003125E0,3.112452745E0,-9.548363686E0,4.516709149E-1
3.858003125E0,3.110508442E0,-9.572381973E0,4.587481916E-1
3.860003125E0,3.102454424E0,-9.592741966E0,4.729314446E-1
3.862003125E0,3.094563246E0,-9.620007515E0,4.913476706E-1
3.864003125E0,3.087466717E0,-9.646372795E0,5.066514015E-1
3.866003125E0,3.097828865E0,-9.667470932E0,5.161515474E-1
3.868003125E0,3.114291191E0,-9.670764923E0,5.317617655E-1
3.870003125E0,3.130303621E0,-9.680609703E0,5.497278571E-1
3.872003125E0,3.148356199E0,-9.685255051E0,5.544779897E-1
3.874003125E0,3.173542976E0,-9.682266235E0,5.564603806E-1
3.876182812E0,3.192859650E0,-9.672583580E0,5.607794523E-1
3.878056250E0,3.224529982E0,-9.655518532E0,5.609806180E-1
3.880003125E0,3.258709669E0,-9.634985924E0,5.663532019E-1
3.882003125E0,3.273658991E0,-9.603545189E0,5.766195059E-1
3.884003125E0,3.290102243E0,-9.565553665E0,5.825571418E-1
3.886003125E0,3.304505825E0,-9.536057472E0,5.829402208E-1
3.888003125E0,3.312416315E0,-9.521893501E0,5.796936750E-1
3.890003125E0,3.297629833E0,-9.496074677E0,5.771079659E-1
3.892003125E0,3.277077913E0,-9.456761360E0,5.705382824E-1
3.894003125E0,3.266964912E0,-9.420235634E0,5.715342164E-1
3.896003125E0,3.262013674E0,-9.385021210E0,5.680962205E-1
3.898003125E0,3.249592543E0,-9.364786148E0,5.487414598E-1
3.900003125E0,3.237171412E0,-9.339291573E0,5.337824821E-1
3.902003125E0,3.215355396E0,-9.314680099E0,5.171667337E-1
3.904003125E0,3.190771818E0,-9.286380768E0,4.999188781E-1
3.906003125E0,3.166159391E0,-9.258493423E0,4.772793353E-1
3.908003125E0,3.141087294E0,-9.228958130E0,4.537586868E-1
3.910003125E0,3.108200550E0,-9.189386368E0,4.270202219E-1
3.912003125E0,3.079010487E0,-9.148512840E0,4.064684212E-1
3.914003125E0,3.053373337E0,-9.106365204E0,3.791266084E-1
3.916184375E0,3.038797379E0,-9.062446594E0,3.634302318E-1
3.918298437E0,3.024920702E0,-9.020787239E0,3.528861701E-1
3.920187500E0,3.011044025E0,-8.974415779E0,3.483084738E-1
3.922003125E0,3.015832186E0,-8.939039230E0,3.457610607E-1
3.924003125E0,3.014577627E0,-8.903480530E0,3.480020165E-1
3.926003125E0,2.999724150E0,-8.869511604E0,3.462015688E-1
3.928003125E0,2.976672649E0,-8.834824562E0,3.408002257E-1
3.930003125E0,2.962958813E0,-8.797408104E0,3.376686275E-1
3.932003125E0,2.951562166E0,-8.763879776E0,3.471592367E-1
3.934003125E0,2.943498611E0,-8.736183167E0,3.681324422E-1
3.936003125E0,2.936775684E0,-8.711523056E0,3.901782632E-1
3.938003125E0,2.928482294E0,-8.693269730E0,4.193300605E-1
3.940003125E0,2.925800800E0,-8.686939240E0,4.508760571E-1
3.942003125E0,2.927926779E0,-8.688318253E0,4.833222926E-1
3.944003125E0,2.937541723E0,-8.710804939E0,4.994879365E-1
3.946003125E0,2.951677322E0,-8.729001045E0,5.065843463E-1
3.948003125E0,2.956360340E0,-8.764942169E0,5.102043748E-1
3.950003125E0,2.970237017E0,-8.800291061E0,5.025908351E-1
3.952003125E0,2.980417252E0,-8.840187073E0,4.894131422E-1
3.954034375E0,2.997368097E0,-8.894823074E0,4.769058228E-1
3.956182812E0,3.007739782E0,-8.948271751E0,4.562294781E-1
3.958056250E0,3.018034935E0,-8.999297142E0,4.288877249E-1
3.960003125E0,3.019653320E0,-9.054162025E0,3.925054371E-1
3.962003125E0,3.013907194E0,-9.118805885E0,3.523594737E-1
3.964003125E0,3.004215479E0,-9.186629295E0,2.987197638E-1
3.966003125E0,2.982715607E0,-9.246913910E0,2.457600087E-1
3.968003125E0,2.962623596E0,-9.289550781E0,2.004617155E-1
3.970003125E0,2.931747913E0,-9.330395699E0,1.594634056E-1
3.972003125E0,2.894005537E0,-9.367697716E0,1.199016199E-1
3.974003125E0,2.852681637E0,-9.397844315E0,9.865068644E-2
3.976003125E0,2.807555914E0,-9.421787262E0,7.673895359E-2
3.978003125E0,2.767151356E0,-9.433163643E0,6.975746155E-2
3.980003125E0,2.737281322E0,-9.439322472E0,6.990111619E-2
3.982003125E0,2.711261034E0,-9.438287735E0,7.882669568E-2
3.984003125E0,2.690843344E0,-9.433978081E0,9.504023194E-2
3.986003125E0,2.680069447E0,-9.431985855E0,1.166359335E-1
3.988003125E0,2.671708822E0,-9.430425644E0,1.409801841E-1
3.990003125E0,2.674428701E0,-9.417113304E0,1.750257313E-1
3.992003125E0,2.683019161E0,-9.411664009E0,2.092915326E-1
3.994003125E0,2.700305223E0,-9.400048256E0,2.515539825E-1
3.996182812E0,2.728355646E0,-9.388324738E0,2.853983939E-1
3.998296875E0,2.748687267E0,-9.378729820E0,3.260232210E-1
4.000187500E0,2.773443460E0,-9.368109703E0,3.599251509E-1
4.002003125E0,2.801599026E0,-9.360074043E0,3.912891746E-1
4.004003125E0,2.836535215E0,-9.350276947E0,4.103661776E-1
4.006003125E0,2.881871939E0,-9.336611748E0,4.241950810E-1
4.008003125E0,2.926413536E0,-9.320866585E0,4.325652122E-1
4.010003125E0,2.966693640E0,-9.309595108E0,4.320959449E-1
4.012003125E0,3.006581068E0,-9.303714752E0,4.286099970E-1
4.014003125E0,3.040099859E0,-9.281333923E0,4.177403152E-1
4.016003125E0,3.062710762E0,-9.268433571E0,4.103853106E-1
4.018003125E0,3.079967976E0,-9.267475128E0,3.935876191E-1
4.020003125E0,3.093605518E0,-9.277292252E0,3.725377917E-1
4.022003125E0,3.098317385E0,-9.290287971E0,3.550409675E-1
4.024003125E0,3.105298758E0,-9.313597679E0,3.325162828E-1
4.026003125E0,3.107645035E0,-9.348409653E0,2.934429348E-1
4.028003125E0,3.094534397E0,-9.390183449E0,2.553272545E-1
4.030003125E0,3.067498922E0,-9.436841965E0,2.087648213E-1
4.032003125E0,3.054560900E0,-9.490327835E0,1.379826367E-1
4.034003125E0,3.055422783E0,-9.556092262E0,6.667372584E-2
4.036182812E0,3.066139221E0,-9.643835068E0,-1.444182452E-2
4.038056250E0,3.074892282E0,-9.739018440E0,-1.035731658E-1
4.040003125E0,3.082304955E0,-9.831004143E0,-1.954530478E-1
4.042003125E0,3.077372789E0,-9.931427002E0,-2.772581577E-1
4.044003125E0,3.072345018E0,-1.003542137E1,-3.548494279E-1
4.046003125E0,3.074949980E0,-1.013742352E1,-4.361181855E-1
4.048003125E0,3.067901373E0,-1.024250984E1,-5.077143908E-1
4.050003125E0,3.039994717E0,-1.034097862E1,-5.743498802E-1
4.052003125E0,3.016780376E0,-1.043114471E1,-6.438008547E-1
4.054003125E0,2.984085321E0,-1.050659943E1,-7.133476138E-1
4.056003125E0,2.960047245E0,-1.057026672E1,-7.702242136E-1
4.058003125E0,2.961780787E0,-1.062469101E1,-7.894065976E-1
4.060003125E0,2.992646694E0,-1.066412926E1,-7.757692337E-1
4.062003125E0,3.020994186E0,-1.070357513E1,-7.431506515E-1
4.064003125E0,3.050644159E0,-1.072591782E1,-6.922786236E-1
4.066003125E0,3.024422646E0,-1.062416458E1,-6.926521063E-1
4.068003125E0,3.079000711E0,-1.054991627E1,-6.733356714E-1
4.070003125E0,3.255070448E0,-1.060849667E1,-5.894907713E-1
4.072003125E0,3.431063414E0,-1.069930458E1,-4.178839624E-1
4.074003125E0,3.573355675E0,-1.077956772E1,-2.004138380E-1
4.076182812E0,3.667093515E0,-1.079763031E1,1.122401748E-2
4.078296875E0,3.730558872E0,-1.074955368E1,1.748150289E-1
4.080185937E0,3.796322823E0,-1.065745449E1,2.904262245E-1
4.082003125E0,3.871251822E0,-1.054939842E1,3.783221841E-1
4.084003125E0,3.950882912E0,-1.042764854E1,4.601176679E-1
4.086003125E0,4.031921864E0,-1.031330204E1,5.449394584E-1
4.088003125E0,4.108277798E0,-1.020063972E1,6.317148805E-1
4.090003125E0,4.169310570E0,-1.008764362E1,7.057627439E-1
4.092003125E0,4.211390972E0,-9.974885941E0,7.769088745E-1
4.094003125E0,4.210213184E0,-9.822671890E0,8.015021086E-1
4.096003125E0,4.226800442E0,-9.707645416E0,7.791115046E-1
4.098003125E0,4.279089928E0,-9.658018112E0,8.551322222E-1
4.100003125E0,4.275785446E0,-9.591880798E0,9.763650298E-1
