"Time (s)","Gyroscope x (rad/s)","Gyroscope y (rad/s)","Gyroscope z (rad/s)"
0.000000000E0,1.331496239E0,-1.222329736E0,-1.060201764E0
1.974000000E-3,1.345546126E0,-1.240044832E0,-1.077306032E0
3.974000000E-3,1.345546126E0,-1.240044832E0,-1.077306032E0
5.974000000E-3,1.350433111E0,-1.258981705E0,-1.087080002E0
7.974000000E-3,1.353487372E0,-1.278529286E0,-1.095632076E0
9.974000000E-3,1.351654768E0,-1.288303256E0,-1.095021129E0
1.197400000E-2,1.347378731E0,-1.304185629E0,-1.101740718E0
1.397400000E-2,1.335772395E0,-1.319457293E0,-1.099297285E0
1.597375000E-2,1.328441858E0,-1.324955106E0,-1.099908113E0
1.797352700E-2,1.315002918E0,-1.339615822E0,-1.096853733E0
1.997332700E-2,1.307061672E0,-1.342059374E0,-1.094410300E0
2.197078100E-2,1.281405330E0,-1.351833105E0,-1.083414674E0
2.397061400E-2,1.270409822E0,-1.354276657E0,-1.079138637E0
2.597046000E-2,1.258803368E0,-1.356720090E0,-1.076084375E0
2.797031700E-2,1.239866495E0,-1.348778844E0,-1.067532182E0
2.997018300E-2,1.217875361E0,-1.346335411E0,-1.055925727E0
3.196993300E-2,1.207490563E0,-1.333507180E0,-1.052260637E0
3.396969700E-2,1.186721206E0,-1.323122501E0,-1.040043354E0
3.596947400E-2,1.173282146E0,-1.314570427E0,-1.037599802E0
3.796926300E-2,1.153123617E0,-1.290746689E0,-1.024160743E0
3.996906300E-2,1.132354140E0,-1.274253249E0,-1.007667422E0
4.196763400E-2,1.105476022E0,-1.260203362E0,-9.948392510E-1
4.396745200E-2,1.096313119E0,-1.246153474E0,-9.862871766E-1
4.596727800E-2,1.070045948E0,-1.216221094E0,-9.691829085E-1
4.796702800E-2,1.059050441E0,-1.200338602E0,-9.655176997E-1
4.996678800E-2,1.031561375E0,-1.152080178E0,-9.484134912E-1
5.196655700E-2,1.016900659E0,-1.129478216E0,-9.447482824E-1
5.396633400E-2,9.967421293E-1,-1.060450435E0,-9.282549620E-1
5.596611900E-2,9.820813537E-1,-9.914226532E-1,-9.190919995E-1
5.796591200E-2,9.686422944E-1,-9.504947066E-1,-9.148159027E-1
5.996571200E-2,9.613118768E-1,-8.686388135E-1,-9.105398655E-1
6.196547800E-2,9.545924067E-1,-7.275289297E-1,-9.129833579E-1
6.396574400E-2,9.545924067E-1,-7.275289297E-1,-9.129833579E-1
6.596547700E-2,9.631445408E-1,-6.346773505E-1,-9.117615819E-1
6.796521000E-2,9.802486897E-1,-5.418258905E-1,-9.245897532E-1
6.996494300E-2,9.924660921E-1,-4.929566383E-1,-9.294766784E-1
7.196467600E-2,1.018122435E0,-3.976616859E-1,-9.484134912E-1
7.396440900E-2,1.035226583E0,-3.475707173E-1,-9.581873417E-1
7.596420900E-2,1.073100209E0,-2.522757351E-1,-9.801784754E-1
7.796394200E-2,1.115249991E0,-1.527047157E-1,-1.002169609E0
7.996367500E-2,1.139073730E0,-1.093332767E-1,-1.014997840E0
8.196340800E-2,1.214821100E0,4.521563277E-2,-1.052260637E0
8.396310800E-2,1.241699100E0,9.591744840E-2,-1.066310525E0
8.596284100E-2,1.270409822E0,1.533387750E-1,-1.078527808E0
8.796257400E-2,1.327220201E0,2.498555034E-1,-1.106016755E0
8.996230700E-2,1.353487372E0,3.011681736E-1,-1.117012382E0
9.196210700E-2,1.410908699E0,3.952414393E-1,-1.139003396E0
9.396184000E-2,1.462221384E0,4.887037873E-1,-1.165270686E0
9.596157300E-2,1.489710331E0,5.223013759E-1,-1.172601104E0
9.796130600E-2,1.537357807E0,5.943834782E-1,-1.187872648E0
9.996103900E-2,1.585005403E0,6.377549171E-1,-1.199479103E0
1.019607720E-1,1.635096312E0,6.542482972E-1,-1.203755140E0
1.039605050E-1,1.661974311E0,6.408092380E-1,-1.203144312E0
1.059602380E-1,1.719395638E0,5.809444785E-1,-1.204366088E0
1.079600380E-1,1.751771450E0,5.296317935E-1,-1.203144312E0
1.099597710E-1,1.801862597E0,4.270064235E-1,-1.197035670E0
1.119593710E-1,1.823242784E0,3.836349845E-1,-1.195814013E0
1.139591040E-1,1.839736104E0,3.231593370E-1,-1.193370461E0
1.159588370E-1,1.829351425E0,3.042224944E-1,-1.197646499E0
1.179585700E-1,1.814079881E0,2.920051813E-1,-1.192759633E0
1.199583030E-1,1.777427912E0,2.761227190E-1,-1.193981290E0
1.219580690E-1,1.727947712E0,2.364164591E-1,-1.191537857E0
1.239573350E-1,1.696793675E0,2.174796313E-1,-1.192759633E0
1.259570680E-1,1.624100685E0,1.612800360E-1,-1.189705372E0
1.279568010E-1,1.579507589E0,1.246281117E-1,-1.192148685E0
1.299565340E-1,1.482990861E0,5.743293837E-2,-1.190316200E0
1.319562670E-1,1.371202469E0,-1.464915927E-2,-1.192148685E0
1.339560000E-1,1.311337590E0,-5.191193894E-2,-1.195202947E0
1.359557330E-1,1.196494937E0,-1.264375001E-1,-1.209252954E0
1.379555330E-1,1.063326359E0,-1.905783564E-1,-1.237963676E0
1.399553330E-1,9.881899953E-1,-2.223433405E-1,-1.259954691E0
1.419550660E-1,7.713328004E-1,-3.347425461E-1,-1.328982592E0
1.439548320E-1,7.713328004E-1,-3.347425461E-1,-1.328982592E0
1.459545650E-1,6.381641626E-1,-4.685220420E-1,-1.373575687E0
1.479542980E-1,5.135476589E-1,-6.432294846E-1,-1.412671089E0
1.499540310E-1,4.579589665E-1,-7.446331382E-1,-1.432829618E0
1.519537640E-1,3.516683877E-1,-9.449969530E-1,-1.475590229E0
1.539535640E-1,2.465995848E-1,-1.144139051E0,-1.524459481E0
1.559533640E-1,2.001738250E-1,-1.229049325E0,-1.548894048E0
1.579530970E-1,9.754846245E-2,-1.379322171E0,-1.602039337E0
1.599528300E-1,5.918673705E-3,-1.487445354E0,-1.658849716E0
1.619525630E-1,-7.838072628E-2,-1.561970830E0,-1.726044893E0
1.639513960E-1,-1.186978370E-1,-1.585183740E0,-1.757809877E0
1.659511290E-1,-1.553497463E-1,-1.606563926E0,-1.792629242E0
1.679508620E-1,-2.146036774E-1,-1.618170381E0,-1.861657023E0
1.699506620E-1,-2.555316389E-1,-1.604731441E0,-1.931906462E0
1.719505280E-1,-2.695815563E-1,-1.587016344E0,-1.964282393E0
1.739502610E-1,-2.927944362E-1,-1.531427622E0,-2.022314548E0
1.759499940E-1,-2.976813614E-1,-1.450182438E0,-2.063242674E0
1.779497270E-1,-2.976813614E-1,-1.401924014E0,-2.087066412E0
1.799494600E-1,-2.793554068E-1,-1.282194614E0,-2.109057426E0
1.819491930E-1,-2.506447434E-1,-1.142306447E0,-2.123718262E0
1.839485930E-1,-2.310970426E-1,-1.059228778E0,-2.129215956E0
1.859483930E-1,-1.773408949E-1,-8.863539100E-1,-2.134103060E0
1.879481260E-1,-1.492411047E-1,-7.971675396E-1,-2.132270336E0
1.899478590E-1,-7.776986808E-2,-6.249035597E-1,-2.118831396E0
1.919475920E-1,-3.244305262E-3,-4.611916542E-1,-2.091953039E0
1.939473250E-1,3.646193817E-2,-3.793357313E-1,-2.079735756E0
1.959470580E-1,1.146526858E-1,-2.400584370E-1,-2.041251421E0
1.979467910E-1,1.983412355E-1,-1.148310602E-1,-2.021703720E0
1.999465240E-1,2.362148762E-1,-6.718356907E-2,-1.974056244E0
2.019463240E-1,3.486140668E-1,5.987640098E-2,-1.905028462E0
2.039460570E-1,3.486140668E-1,5.987640098E-2,-1.905028462E0
2.059457900E-1,4.164201021E-1,1.282933056E-1,-1.862878799E0
2.079455230E-1,4.726197124E-1,1.899906993E-1,-1.819507360E0
2.099452560E-1,4.952217340E-1,2.199230939E-1,-1.805457354E0
2.119449890E-1,5.361497402E-1,2.803987563E-1,-1.770638108E0
2.139447220E-1,5.728016496E-1,3.201049864E-1,-1.740094900E0
2.159440550E-1,5.874624252E-1,3.420961201E-1,-1.725434065E0
2.179438550E-1,6.180056930E-1,3.714176714E-1,-1.696723342E0
2.199435880E-1,6.326664686E-1,3.903544843E-1,-1.685727954E0
2.219433210E-1,6.729835272E-1,4.227303565E-1,-1.644189000E0
2.239431870E-1,6.913094521E-1,4.404454231E-1,-1.627695680E0
2.259429200E-1,7.029159069E-1,4.428889155E-1,-1.614256620E0
2.279426530E-1,7.291830778E-1,4.581605494E-1,-1.591043711E0
2.299423860E-1,7.468981743E-1,4.551061988E-1,-1.564165592E0
2.319421860E-1,7.530068755E-1,4.569388032E-1,-1.553170085E0
2.339419860E-1,7.542285919E-1,4.380019903E-1,-1.522626877E0
2.359417190E-1,7.542285919E-1,4.282281399E-1,-1.513463855E0
2.379414520E-1,7.542285919E-1,4.178434312E-1,-1.490861773E0
2.399411850E-1,7.407895327E-1,3.897436261E-1,-1.472535849E0
2.419409180E-1,7.224636078E-1,3.592003882E-1,-1.460318565E0
2.439409840E-1,7.059702277E-1,3.317114115E-1,-1.456042528E0
2.459407170E-1,6.662639976E-1,2.895617485E-1,-1.454820752E0
2.479405170E-1,6.430511475E-1,2.632945180E-1,-1.460929394E0
2.499402830E-1,5.960144997E-1,2.089275271E-1,-1.473146677E0
2.519400490E-1,5.373714566E-1,1.270715743E-1,-1.498803139E0
2.539398150E-1,5.019412637E-1,9.164139628E-2,-1.514074683E0
2.559395810E-1,4.414656162E-1,-1.820989302E-3,-1.555613518E0
2.579393470E-1,4.029810727E-1,-5.130107328E-2,-1.577604771E0
2.599391130E-1,3.363967538E-1,-1.557590365E-1,-1.630749941E0
2.619388790E-1,2.215541005E-1,-3.194709122E-1,-1.723601460E0
2.639390450E-1,2.215541005E-1,-3.194709122E-1,-1.723601460E0
2.659388110E-1,1.445850879E-1,-4.202636778E-1,-1.789574981E0
2.679385770E-1,6.334000826E-2,-5.283868313E-1,-1.862878799E0
2.699383430E-1,2.485549636E-2,-5.748125315E-1,-1.898308992E0
2.719381090E-1,-5.150265992E-2,-6.743835807E-1,-1.967947602E0
2.739378750E-1,-9.426322579E-2,-7.189767957E-1,-2.003377914E0
2.759380410E-1,-1.541280150E-1,-8.069413900E-1,-2.062020779E0
2.779378070E-1,-2.109384984E-1,-8.741365075E-1,-2.115165949E0
2.799376400E-1,-2.390382886E-1,-9.046798348E-1,-2.138989687E0
2.819374060E-1,-2.964596152E-1,-9.700424075E-1,-2.186637402E0
2.839370390E-1,-3.025682569E-1,-9.816488624E-1,-2.199465513E0
2.859368050E-1,-3.166181743E-1,-9.908118248E-1,-2.206185102E0
2.879365710E-1,-3.245594203E-1,-9.847031832E-1,-2.221456766E0
2.899363370E-1,-3.245594203E-1,-9.712641835E-1,-2.230008841E0
2.919361030E-1,-3.208942115E-1,-9.541599154E-1,-2.240393639E0
2.939358690E-1,-3.080660701E-1,-9.113993645E-1,-2.253832579E0
2.959357020E-1,-3.025682569E-1,-8.924625516E-1,-2.261773586E0
2.979354680E-1,-2.830205858E-1,-8.313759565E-1,-2.273380041E0
2.999352340E-1,-2.579751015E-1,-7.727329135E-1,-2.285597324E0
3.019350000E-1,-2.445360720E-1,-7.104246616E-1,-2.294760466E0
3.039350660E-1,-2.255992591E-1,-6.811031699E-1,-2.300258398E0
3.059348320E-1,-2.115493417E-1,-6.261252165E-1,-2.305145264E0
3.079345980E-1,-2.054407001E-1,-6.102427840E-1,-2.310642958E0
3.099343980E-1,-1.932234019E-1,-5.742017031E-1,-2.313697338E0
3.119341980E-1,-1.846712828E-1,-5.632061958E-1,-2.321027517E0
3.139339310E-1,-1.810060889E-1,-5.454910398E-1,-2.322249413E0
3.159336640E-1,-1.877256185E-1,-5.491562486E-1,-2.327747345E0
3.179333970E-1,-1.901690662E-1,-5.546540618E-1,-2.324082136E0
3.199332970E-1,-2.139928192E-1,-5.790886283E-1,-2.324082136E0
3.219330300E-1,-2.628620267E-1,-6.542251110E-1,-2.307588577E0
3.239324300E-1,-2.628620267E-1,-6.542251110E-1,-2.307588577E0
3.259322300E-1,-2.934052944E-1,-7.263072133E-1,-2.290484428E0
3.279320300E-1,-3.013465703E-1,-7.647916675E-1,-2.284986496E0
3.299317630E-1,-3.092877865E-1,-8.350412250E-1,-2.277656317E0
3.319314960E-1,-2.952378988E-1,-8.955168724E-1,-2.286819220E0
3.339312290E-1,-2.842423022E-1,-9.144536853E-1,-2.292317152E0
3.359309620E-1,-2.475904077E-1,-9.419426322E-1,-2.319805861E0
3.379306950E-1,-2.023863643E-1,-9.492729902E-1,-2.354625225E0
3.399304280E-1,-1.748974472E-1,-9.449969530E-1,-2.374173164E0
3.419302280E-1,-1.107565910E-1,-9.278926849E-1,-2.437092066E0
3.439299280E-1,-1.107565910E-1,-9.278926849E-1,-2.437092066E0
3.459296610E-1,-6.921774894E-2,-9.095667601E-1,-2.484739542E0
3.479293940E-1,-3.439843282E-2,-8.875756264E-1,-2.534219742E0
3.499291270E-1,-2.034853213E-2,-8.869647384E-1,-2.558043480E0
3.519288600E-1,-1.899790950E-4,-8.753582835E-1,-2.621573448E0
3.539285930E-1,1.263819076E-2,-8.961277008E-1,-2.691823006E0
3.559283260E-1,1.569251716E-2,-8.985711932E-1,-2.726642370E0
3.579281260E-1,1.385992114E-2,-9.346122146E-1,-2.788950443E0
3.599278590E-1,1.642616582E-3,-9.743185043E-1,-2.843928576E0
3.619275920E-1,-1.411709585E-3,-1.036015868E0,-2.899517059E0
3.639270250E-1,-1.179641951E-2,-1.068391681E0,-2.919064760E0
3.659267910E-1,-1.668334007E-2,-1.089161158E0,-2.938001633E0
3.679265240E-1,-2.645718306E-2,-1.156356335E0,-2.972820759E0
3.699262570E-1,-3.317670152E-2,-1.210112453E0,-3.007640123E0
3.719259900E-1,-3.989621997E-2,-1.238823175E0,-3.018024921E0
3.739257900E-1,-4.905920103E-2,-1.277918458E0,-3.047957182E0
3.759255230E-1,-5.638958141E-2,-1.303574800E0,-3.069337606E0
3.779252560E-1,-6.249823421E-2,-1.310905099E0,-3.087663651E0
3.799248220E-1,-7.105034590E-2,-1.317624807E0,-3.110876560E0
3.819245550E-1,-8.571111411E-2,-1.294411898E0,-3.148139238E0
3.839242880E-1,-8.571111411E-2,-1.294411898E0,-3.148139238E0
3.859240210E-1,-9.670668840E-2,-1.260814190E0,-3.171352148E0
3.879237540E-1,-1.040370688E-1,-1.243710041E0,-3.180515051E0
3.899235540E-1,-1.125891879E-1,-1.196062446E0,-3.199451923E0
3.919232870E-1,-1.296934038E-1,-1.136808634E0,-3.211058378E0
3.939230200E-1,-1.364129335E-1,-1.107487082E0,-3.218388557E0
3.959227530E-1,-1.529062986E-1,-1.034794092E0,-3.220221519E0
3.979224860E-1,-1.693996638E-1,-9.541599154E-1,-3.226940870E0
3.999222190E-1,-1.761191785E-1,-9.144536853E-1,-3.225108147E0
4.019219520E-1,-1.944451332E-1,-8.057196736E-1,-3.225108147E0
4.039217520E-1,-1.944451332E-1,-8.057196736E-1,-3.225108147E0
4.059215520E-1,-2.017755061E-1,-7.446331382E-1,-3.222664833E0
4.079211850E-1,-2.121602148E-1,-6.969856620E-1,-3.221443176E0
4.099209180E-1,-2.127710879E-1,-6.725510359E-1,-3.222054005E0
4.119206510E-1,-2.213231921E-1,-6.426186562E-1,-3.216556072E0
4.139203840E-1,-2.298753113E-1,-6.279578805E-1,-3.215334415E0
4.159201170E-1,-2.268209904E-1,-6.218492389E-1,-3.217166901E0
4.179198500E-1,-2.341513634E-1,-6.236818433E-1,-3.222054005E0
4.199196500E-1,-2.347622365E-1,-6.212383509E-1,-3.223886490E0
4.219193500E-1,-2.347622365E-1,-6.346773505E-1,-3.234882116E0
4.239187160E-1,-2.317079008E-1,-6.316230297E-1,-3.239768982E0
4.259184160E-1,-2.249883860E-1,-6.456729770E-1,-3.242212296E0
4.279181490E-1,-2.176579982E-1,-6.505599022E-1,-3.253207922E0
4.299178820E-1,-2.029972374E-1,-6.786596775E-1,-3.261760235E0
4.319176150E-1,-1.962777227E-1,-6.896552444E-1,-3.266647100E0
4.339173480E-1,-1.785626411E-1,-7.238637209E-1,-3.277642488E0
4.359171480E-1,-1.559606194E-1,-7.635699511E-1,-3.284362316E0
4.379168810E-1,-1.425215751E-1,-7.935023308E-1,-3.284973145E0
4.399166140E-1,-1.150326431E-1,-8.503128290E-1,-3.287416458E0
4.419163470E-1,-6.921774894E-2,-9.529381990E-1,-3.288027287E0
4.439152470E-1,-6.921774894E-2,-9.529381990E-1,-3.288027287E0
4.459149800E-1,-3.623102978E-2,-1.029296398E0,-3.283751249E0
4.479147130E-1,-1.790507138E-2,-1.067169905E0,-3.281918764E0
4.499144460E-1,1.813597791E-2,-1.134365082E0,-3.270923138E0
4.519142460E-1,5.295529589E-2,-1.211334229E0,-3.268479824E0
4.539139790E-1,6.822692603E-2,-1.235157967E0,-3.261760235E0
4.559137120E-1,1.067114398E-1,-1.301131368E0,-3.254429579E0
4.579134450E-1,1.262591183E-1,-1.312737823E0,-3.250153780E0
4.599131780E-1,1.580241174E-1,-1.363439560E0,-3.237936497E0
4.619129110E-1,2.068933398E-1,-1.408643723E0,-3.218999624E0
4.639126440E-1,2.068933398E-1,-1.408643723E0,-3.218999624E0
4.659123770E-1,2.343822718E-1,-1.501495123E0,-3.196397781E0
4.679122770E-1,2.606494725E-1,-1.877177238E0,-3.165854216E0
4.699120100E-1,2.795863152E-1,-2.090980291E0,-3.155469656E0
4.719117430E-1,3.296772540E-1,-2.429399490E0,-3.143863201E0
4.739114760E-1,4.121440649E-1,-2.513699055E0,-3.131034851E0
4.759112090E-1,4.610132873E-1,-2.522250891E0,-3.085831165E0
4.779109420E-1,5.624169111E-1,-2.411684275E0,-3.024133444E0
4.799106750E-1,6.143404245E-1,-2.326163292E0,-2.990536213E0
4.819105080E-1,7.517851591E-1,-2.113582134E0,-2.892186880E0
4.839106740E-1,7.829392552E-1,-2.071432352E0,-2.862865210E0
4.859104070E-1,8.140934110E-1,-2.028671980E0,-2.834154606E0
4.879101400E-1,8.580756783E-1,-1.979802608E0,-2.783452749E0
4.899098730E-1,8.794559836E-1,-1.986522198E0,-2.741913795E0
4.919104390E-1,8.806777596E-1,-2.009124041E0,-2.721144438E0
4.939101720E-1,8.721256256E-1,-2.079984665E0,-2.691823006E0
4.959099050E-1,8.568539619E-1,-2.128242970E0,-2.674718857E0
4.979097050E-1,8.287541270E-1,-2.232700825E0,-2.653338432E0
4.999094380E-1,7.957674265E-1,-2.333493710E0,-2.631958008E0
5.019091710E-1,7.560611963E-1,-2.431843042E0,-2.611799479E0
5.039097370E-1,7.407895327E-1,-2.467273235E0,-2.604469299E0
5.059094700E-1,7.029159069E-1,-2.524694443E0,-2.588586569E0
5.079092030E-1,6.833682060E-1,-2.541187763E0,-2.583699703E0
5.099089360E-1,6.430511475E-1,-2.550961733E0,-2.570871592E0
5.119082360E-1,6.186165214E-1,-2.541798592E0,-2.570871592E0
5.139080360E-1,5.697473288E-1,-2.485599041E0,-2.559875965E0
5.159077690E-1,5.153803229E-1,-2.393358469E0,-2.562319517E0
5.179075020E-1,4.842261672E-1,-2.321276426E0,-2.559875965E0
5.199072350E-1,4.261939824E-1,-2.163062334E0,-2.566595554E0
5.219069680E-1,3.290663660E-1,-1.863127470E0,-2.578202009E0
5.239067010E-1,3.290663660E-1,-1.863127470E0,-2.578202009E0
5.259064340E-1,2.637037933E-1,-1.645659447E0,-2.590419292E0
5.279061670E-1,2.075042129E-1,-1.414752364E0,-2.612410307E0
5.299059670E-1,1.769609302E-1,-1.305407524E0,-2.625238419E0
5.319057000E-1,1.256482601E-1,-1.067780852E0,-2.655170918E0
5.339054330E-1,1.030462459E-1,-9.553816319E-1,-2.670442581E0
5.359048330E-1,6.028568000E-2,-7.189767957E-1,-2.715035915E0
5.379045660E-1,2.302289940E-2,-4.947892427E-1,-2.762072563E0
5.399042990E-1,7.751268800E-3,-3.872769475E-1,-2.792004824E0
5.419040320E-1,-3.867448866E-2,-7.390309125E-2,-2.873860836E0
5.439037650E-1,-5.272439122E-2,-3.653584979E-3,-2.905625820E0
5.459031310E-1,-7.410467416E-2,5.254601687E-2,-2.939834118E0
5.479028640E-1,-1.138109118E-1,1.435649395E-1,-3.002142429E0
5.499025970E-1,-1.345803440E-1,1.997645348E-1,-3.032685757E0
5.519014970E-1,-1.736757010E-1,2.742901146E-1,-3.081554890E0
5.539012300E-1,-2.097167522E-1,3.506482542E-1,-3.127369881E0
5.559009630E-1,-2.207123190E-1,3.811915219E-1,-3.153026104E0
5.579006960E-1,-2.390382886E-1,4.551061988E-1,-3.195786715E0
5.599004960E-1,-2.482012659E-1,4.862603545E-1,-3.242823124E0
5.619002960E-1,-2.488121390E-1,5.051971674E-1,-3.283140421E0
5.639000960E-1,-2.524773180E-1,4.911472797E-1,-3.305131674E0
5.658998290E-1,-2.543099225E-1,4.795408249E-1,-3.323457479E0
5.678995620E-1,-2.500338554E-1,4.508301616E-1,-3.361942053E0
5.698992950E-1,-2.372056842E-1,3.946305513E-1,-3.397983074E0
5.718994610E-1,-2.280427068E-1,3.543134332E-1,-3.412032843E0
5.738991940E-1,-1.907799393E-1,2.406925261E-1,-3.440132856E0
5.758989940E-1,-1.235847548E-1,1.081347615E-1,-3.458458662E0
5.778987940E-1,-8.998716623E-2,3.055486828E-2,-3.460291386E0
5.798985270E-1,2.864347305E-3,-1.148310602E-1,-3.459069490E0
5.818982600E-1,1.494719982E-1,-2.400584370E-1,-3.440132856E0
5.838979930E-1,1.494719982E-1,-2.400584370E-1,-3.440132856E0
5.858977260E-1,2.380474657E-1,-2.675473690E-1,-3.421195984E0
5.878974590E-1,2.899709940E-1,-2.596061230E-1,-3.399815559E0
5.898971920E-1,3.681617677E-1,-2.351715118E-1,-3.361331224E0
5.918969920E-1,4.408547282E-1,-2.205107361E-1,-3.312461853E0
5.938967250E-1,4.842261672E-1,-2.266193926E-1,-3.289248943E0
5.958967910E-1,5.367605686E-1,-2.815972567E-1,-3.221443176E0
5.978965240E-1,6.369424462E-1,-3.610097766E-1,-3.171352148E0
5.998962570E-1,6.699292064E-1,-4.300375283E-1,-3.143863201E0
6.018959900E-1,7.566720843E-1,-6.242926717E-1,-3.050400972E0
6.038957230E-1,7.878261805E-1,-6.829357147E-1,-3.023522615E0
6.058958890E-1,8.153151274E-1,-7.464656830E-1,-2.996644735E0
6.078952550E-1,8.617408872E-1,-8.484802246E-1,-2.942277670E0
6.098949880E-1,8.764016628E-1,-8.930733800E-1,-2.913566828E0
6.118947210E-1,9.319903851E-1,-9.627120495E-1,-2.867752314E0
6.138944540E-1,9.637553692E-1,-1.001196504E0,-2.810330868E0
6.158941870E-1,9.826921821E-1,-1.013413787E0,-2.784674406E0
6.178939200E-1,1.037670016E0,-1.007916093E0,-2.729696512E0
6.198936530E-1,1.109752178E0,-1.031128883E0,-2.707094431E0
6.218933860E-1,1.192829847E0,-1.064726591E0,-2.686325312E0
6.238934520E-1,1.217264414E0,-1.101989269E0,-2.682659864E0
6.258931850E-1,1.234979510E0,-1.119704366E0,-2.666777372E0
6.278929180E-1,1.271020651E0,-1.196673512E0,-2.651505947E0
6.298926510E-1,1.267355323E0,-1.271198988E0,-2.608134270E0
6.318923840E-1,1.273464084E0,-1.320679069E0,-2.593473673E0
6.338921170E-1,1.285681367E0,-1.401924014E0,-2.561097622E0
6.358918500E-1,1.347989678E0,-1.473395348E0,-2.544604540E0
6.378915830E-1,1.371202469E0,-1.483780026E0,-2.533608913E0
6.398920830E-1,1.429845572E0,-1.486834407E0,-2.532387018E0
6.418918160E-1,1.485434294E0,-1.450793386E0,-2.498789549E0
6.438915490E-1,1.485434294E0,-1.450793386E0,-2.498789549E0
6.458912820E-1,1.492764592E0,-1.449571609E0,-2.446866035E0
6.478910150E-1,1.460999608E0,-1.457512856E0,-2.421209812E0
6.498907480E-1,1.464664936E0,-1.492943048E0,-2.361955643E0
6.518904810E-1,1.522696972E0,-1.569912076E0,-2.324692965E0
6.538902810E-1,1.555683851E0,-1.574798942E0,-2.313086510E0
6.558900810E-1,1.604552984E0,-1.615116119E0,-2.275823832E0
6.578898470E-1,1.619824648E0,-1.603509665E0,-2.261773586E0
6.598896130E-1,1.644259334E0,-1.532038450E0,-2.230619669E0
6.618893790E-1,1.642426610E0,-1.325565934E0,-2.178696156E0
6.638882120E-1,1.618602872E0,-1.258981705E0,-2.148152828E0
6.658875450E-1,1.567290306E0,-1.188732147E0,-2.123107433E0
6.678877450E-1,1.497651577E0,-1.034794092E0,-2.065075159E0
6.698875780E-1,1.475049615E0,-9.639337659E-1,-2.058355808E0
6.718873440E-1,1.434121609E0,-8.240455985E-1,-2.047360182E0
6.738871100E-1,1.363261223E0,-8.051087856E-1,-2.040640593E0
6.758868760E-1,1.304007292E0,-8.894082308E-1,-2.026590586E0
6.778866420E-1,1.224594831E0,-1.257759929E0,-2.018649340E0
6.798864080E-1,1.190386295E0,-1.464232445E0,-2.016206026E0
6.818861080E-1,1.181834221E0,-1.687198281E0,-2.003988743E0
6.838855410E-1,1.219097018E0,-1.578464270E0,-1.950232506E0
6.858853740E-1,1.247196913E0,-1.461178064E0,-1.912358880E0
6.878851400E-1,1.316224575E0,-1.215610266E0,-1.803624868E0
6.898849060E-1,1.378532887E0,-1.034794092E0,-1.704053879E0
6.918846720E-1,1.396247983E0,-9.730967283E-1,-1.667401910E0
6.938844380E-1,1.409076214E0,-9.187297225E-1,-1.605704427E0
6.958842040E-1,1.398691416E0,-9.181188345E-1,-1.577604771E0
6.978839700E-1,1.362039566E0,-9.211731553E-1,-1.511020422E0
6.998830360E-1,1.310726762E0,-9.364448190E-1,-1.434662223E0
7.018828690E-1,1.239866495E0,-9.242275357E-1,-1.295995831E0
7.038826350E-1,1.239866495E0,-9.242275357E-1,-1.295995831E0
7.058824010E-1,1.199549317E0,-8.845212460E-1,-1.194592118E0
7.078821670E-1,1.184888601E0,-8.710821867E-1,-1.154275060E0
7.098819330E-1,1.161064863E0,-8.203804493E-1,-1.067532182E0
7.118816990E-1,1.141517162E0,-7.880045772E-1,-1.000337005E0
7.138814650E-1,1.132354140E0,-7.635699511E-1,-9.661285877E-1
7.158812310E-1,1.120136857E0,-7.446331382E-1,-9.209245443E-1
7.178810310E-1,1.113417387E0,-7.324158549E-1,-8.989334106E-1
7.198807640E-1,1.116471648E0,-7.116464376E-1,-8.714444637E-1
7.218804970E-1,1.114028215E0,-6.823248863E-1,-8.463990092E-1
7.238811630E-1,1.114028215E0,-6.823248863E-1,-8.463990092E-1
7.258813290E-1,1.112195730E0,-6.572794318E-1,-8.317382336E-1
7.278810620E-1,1.110973835E0,-6.163514256E-1,-8.225752711E-1
7.298807950E-1,1.107308745E0,-5.943602920E-1,-8.189101219E-1
7.318805950E-1,1.101200104E0,-5.448802114E-1,-8.158557415E-1
7.338803950E-1,1.094480634E0,-5.277759433E-1,-8.140231371E-1
7.358801280E-1,1.084706664E0,-4.721872211E-1,-8.280730844E-1
7.378798610E-1,1.074932814E0,-4.306483865E-1,-8.335707784E-1
7.398795940E-1,1.068213344E0,-4.025485814E-1,-8.378468752E-1
7.418793940E-1,1.056606889E0,-3.219143748E-1,-8.775531054E-1
7.438793600E-1,1.051720023E0,-2.895385027E-1,-8.934355974E-1
7.458790930E-1,1.045000434E0,-2.644930482E-1,-9.142050147E-1
7.478784590E-1,1.034615755E0,-2.095151693E-1,-9.533004165E-1
7.498781920E-1,1.031561375E0,-2.021847814E-1,-9.789567590E-1
7.518779250E-1,1.059050441E0,-2.510540187E-1,-1.044930220E0
7.538776580E-1,1.115860820E0,-3.677292764E-1,-1.129229665E0
7.558773910E-1,1.151901841E0,-4.178202152E-1,-1.170157552E0
7.578771240E-1,1.223373055E0,-5.002869964E-1,-1.253846049E0
7.598768570E-1,1.293011665E0,-5.577083826E-1,-1.319208741E0
7.618765900E-1,1.380976319E0,-6.340665221E-1,-1.377240896E0
7.638763900E-1,1.380976319E0,-6.340665221E-1,-1.377240896E0
7.658761230E-1,1.414574027E0,-6.780488491E-1,-1.381516933E0
7.678758560E-1,1.413962960E0,-7.012616992E-1,-1.367467046E0
7.698755890E-1,1.391361117E0,-7.391353250E-1,-1.330204248E0
7.718753220E-1,1.361428738E0,-7.525743842E-1,-1.304548025E0
7.738750550E-1,1.305840015E0,-7.440222502E-1,-1.254456997E0
7.758747880E-1,1.244753361E0,-7.061486244E-1,-1.209252954E0
7.778745210E-1,1.220318675E0,-6.786596775E-1,-1.192759633E0
7.798743210E-1,1.142128110E0,-6.285687089E-1,-1.151831627E0
7.818740540E-1,9.997964501E-1,-5.479345322E-1,-1.094410300E0
7.838737870E-1,9.997964501E-1,-5.479345322E-1,-1.094410300E0
7.858735200E-1,8.922840953E-1,-4.966218174E-1,-1.060812712E0
7.878732530E-1,8.434149027E-1,-4.673002958E-1,-1.043097615E0
7.898729860E-1,7.664459348E-1,-4.074355066E-1,-1.024771571E0
7.918727190E-1,6.992507577E-1,-3.512358963E-1,-1.011943460E0
7.938724520E-1,6.748160720E-1,-3.249686956E-1,-1.007056594E0
7.958722520E-1,6.326664686E-1,-2.620495856E-1,-1.004613042E0
7.978719850E-1,6.100643873E-1,-1.936326772E-1,-1.011943460E0
7.998717180E-1,5.996797085E-1,-1.600350887E-1,-1.018052101E0
8.018714510E-1,5.856297612E-1,-5.130107328E-2,-1.040043354E0
8.038712510E-1,5.825754404E-1,-2.014694549E-2,-1.046762824E0
8.058709840E-1,5.770776868E-1,1.528323721E-2,-1.058980107E0
8.078711500E-1,5.654712319E-1,7.392629981E-2,-1.075473547E0
8.098709500E-1,5.569191575E-1,9.836091101E-2,-1.087690830E0
8.118707500E-1,5.489779115E-1,1.533387750E-1,-1.110903740E0
8.138704830E-1,5.532538891E-1,1.948776245E-1,-1.140225172E0
8.158702160E-1,5.538648367E-1,2.187013775E-1,-1.155496836E0
8.178699490E-1,5.648603439E-1,2.461903095E-1,-1.192759633E0
8.198696820E-1,5.831863284E-1,2.779552937E-1,-1.230633259E0
8.218694150E-1,6.088426709E-1,3.042224944E-1,-1.272172093E0
8.238691480E-1,6.277794838E-1,3.225484490E-1,-1.294163227E0
8.258689480E-1,6.454945803E-1,3.347657323E-1,-1.318597794E0
8.278693480E-1,6.864225268E-1,3.701959550E-1,-1.364412665E0
8.298690480E-1,7.407895327E-1,3.982957602E-1,-1.410838485E0
8.318687810E-1,7.676676512E-1,4.221194685E-1,-1.435273051E0
8.338685140E-1,8.336410522E-1,4.569388032E-1,-1.481698871E0
8.358682470E-1,9.026688337E-1,5.058080554E-1,-1.523237705E0
8.378679800E-1,9.368773103E-1,5.284100175E-1,-1.543396235E0
8.398677130E-1,1.001628995E0,5.821661949E-1,-1.576382875E0
8.418675130E-1,1.093258739E0,6.707416177E-1,-1.616700053E0
8.438672460E-1,1.093258739E0,6.707416177E-1,-1.616700053E0
8.458669790E-1,1.152512670E0,7.367150784E-1,-1.633804321E0
8.478667120E-1,1.183666825E0,7.727561593E-1,-1.643578172E0
8.498664450E-1,1.239866495E0,8.521686196E-1,-1.651519418E0
8.518661780E-1,1.294844389E0,9.218072295E-1,-1.651519418E0
8.538659110E-1,1.318057299E0,9.621244073E-1,-1.648465037E0
8.558656440E-1,1.363261223E0,1.023821831E0,-1.637469530E0
8.578654440E-1,1.404189229E0,1.080632210E0,-1.616700053E0
8.598647440E-1,1.424347758E0,1.109953761E0,-1.609369755E0
8.618644770E-1,1.491542935E0,1.202805281E0,-1.576382875E0
8.638639100E-1,1.491542935E0,1.202805281E0,-1.576382875E0
8.658636430E-1,1.541023016E0,1.263891816E0,-1.555002689E0
8.678633760E-1,1.595389962E0,1.335973859E0,-1.530568123E0
8.698631090E-1,1.622879028E0,1.367738843E0,-1.519572496E0
8.718628420E-1,1.684576392E0,1.439821005E0,-1.490250945E0
8.738626420E-1,1.745662808E0,1.504572749E0,-1.463372946E0
8.758623750E-1,1.773151875E0,1.540002942E0,-1.445657849E0
8.778621080E-1,1.836681724E0,1.609641433E0,-1.414503694E0
8.798618410E-1,1.866003275E0,1.640795708E0,-1.396177769E0
8.818615740E-1,1.953357100E0,1.735479712E0,-1.349141121E0
8.838621740E-1,1.975348234E0,1.764801264E0,-1.331426024E0
8.858619070E-1,2.002226353E0,1.798398972E0,-1.313710928E0
8.878610400E-1,2.044375896E0,1.862539768E0,-1.281335115E0
8.898608730E-1,2.083471537E0,1.929734826E0,-1.247126579E0
8.918606060E-1,2.101186514E0,1.960278153E0,-1.229411483E0
8.938603390E-1,2.129897118E0,2.027473450E0,-1.194592118E0
8.958600720E-1,2.151888132E0,2.093446732E0,-1.156718493E0
8.978598050E-1,2.160440445E0,2.120324850E0,-1.133505583E0
8.998595380E-1,2.167159796E0,2.176524401E0,-1.085247278E0
9.018592710E-1,2.165327311E0,2.225393772E0,-1.029047728E0
9.038590710E-1,2.162272930E0,2.244330645E0,-1.000337005E0
9.058588710E-1,2.153720856E0,2.289534330E0,-9.386396408E-1
9.078586370E-1,2.147612333E0,2.302362680E0,-9.044312239E-1
9.098584030E-1,2.138449192E0,2.333516836E0,-8.366251588E-1
9.118581690E-1,2.130507946E0,2.357340574E0,-7.706517577E-1
9.138579350E-1,2.124399424E0,2.365892887E0,-7.364432216E-1
9.158572350E-1,2.117068768E0,2.379331827E0,-6.649720669E-1
9.178570010E-1,2.116457939E0,2.382385969E0,-6.283201575E-1
9.198572670E-1,2.109127760E0,2.387272835E0,-5.562380552E-1
9.218571000E-1,2.107906103E0,2.390327454E0,-4.352866709E-1
9.238570000E-1,2.107906103E0,2.390327454E0,-4.352866709E-1
9.258568660E-1,2.107295275E0,2.387272835E0,-3.497655690E-1
9.278567320E-1,2.109127760E0,2.383607864E0,-2.575249076E-1
9.298565980E-1,2.109738588E0,2.381164312E0,-2.080448121E-1
9.318564640E-1,2.116457939E0,2.368947029E0,-1.084737852E-1
9.338563300E-1,2.121345043E0,2.359173059E0,-5.593937263E-2
9.358562630E-1,2.128064394E0,2.339625597E0,4.851858318E-2
9.378561960E-1,2.143947124E0,2.320688725E0,1.548091471E-1
9.398561290E-1,2.155553579E0,2.310303926E0,2.061218172E-1
9.418560620E-1,2.190983534E0,2.265099764E0,3.588381410E-1
9.438554620E-1,2.198924780E0,2.246773958E0,4.101508260E-1
9.458553950E-1,2.208087921E0,2.230280399E0,4.632960856E-1
9.478553280E-1,2.222748518E0,2.200958967E0,5.628671050E-1
9.498552610E-1,2.229468346E0,2.163085461E0,6.618272662E-1
9.518552610E-1,2.228246450E0,2.149646521E0,7.149726152E-1
9.538552270E-1,2.222137690E0,2.107496500E0,8.175979257E-1
9.558547600E-1,2.209309578E0,2.072677374E0,9.220559001E-1
9.578547260E-1,2.207477093E0,2.050686359E0,9.758120179E-1
9.598546920E-1,2.187929392E0,2.004260540E0,1.085767865E0
9.618546580E-1,2.170825243E0,1.959056377E0,1.195112705E0
9.638542580E-1,2.167770863E0,1.937676191E0,1.255588293E0
9.658542240E-1,2.148833990E0,1.889417887E0,1.361267924E0
9.678542240E-1,2.143336296E0,1.866204977E0,1.416856647E0
9.698541900E-1,2.126231909E0,1.814281344E0,1.518871188E0
9.718541560E-1,2.119512558E0,1.786181688E0,1.568962216E0
9.738541220E-1,2.103018999E0,1.731203794E0,1.664257169E0
9.758545550E-1,2.076751947E0,1.669506311E0,1.756497860E0
9.778545210E-1,2.071254253E0,1.649347782E0,1.802923560E0
9.798544870E-1,2.041932583E0,1.591315508E0,1.885390401E0
9.818544530E-1,2.007113218E0,1.523509502E0,2.006952524E0
9.838548190E-1,2.007113218E0,1.523509502E0,2.006952524E0
9.858547520E-1,1.978402615E0,1.485025048E0,2.076591253E0
9.878546850E-1,1.952746272E0,1.438599229E0,2.140732050E0
9.898546180E-1,1.937474608E0,1.422105908E0,2.169442654E0
9.918545510E-1,1.913039923E0,1.374458432E0,2.221366167E0
9.938544840E-1,1.900822639E0,1.353688955E0,2.243968248E0
9.958544170E-1,1.876998901E0,1.300543666E0,2.282452822E0
9.978543500E-1,1.858672976E0,1.255339742E0,2.311774492E0
9.998542160E-1,1.857451200E0,1.226629019E0,2.323380947E0
1.001854082E0,1.831184030E0,1.102623463E0,2.348426342E0
1.003853682E0,1.831184030E0,1.102623463E0,2.348426342E0
1.005853548E0,1.823242784E0,1.067193270E0,2.354534864E0
1.007853414E0,1.809803724E0,9.999979734E-1,2.351480484E0
1.009853280E0,1.803084254E0,9.596809149E-1,2.354534864E0
1.011853146E0,1.779260516E0,8.900423050E-1,2.349037170E0
1.013853046E0,1.755436778E0,8.222361803E-1,2.346593857E0
1.015853312E0,1.740775943E0,7.916929722E-1,2.345982552E0
1.017853145E0,1.708400130E0,7.244977951E-1,2.345982552E0
1.019852978E0,1.669915676E0,6.701307893E-1,2.347204685E0
1.021852744E0,1.646702766E0,6.481396556E-1,2.344760895E0
1.023852944E0,1.594168305E0,6.175963879E-1,2.345982552E0
1.025852777E0,1.536136150E0,5.907183290E-1,2.344760895E0
1.027852610E0,1.507425427E0,5.858313441E-1,2.344150066E0
1.029852476E0,1.445728064E0,5.736140609E-1,2.344150066E0
1.031852276E0,1.413962960E0,5.754466653E-1,2.345371723E0
1.033852076E0,1.349822283E0,5.589532852E-1,2.346593857E0
1.035851876E0,1.282627106E0,5.473468900E-1,2.344150066E0
1.037851676E0,1.248418570E0,5.345186591E-1,2.345982552E0
1.039851476E0,1.178779960E0,5.137492418E-1,2.346593857E0
1.041851276E0,1.073711157E0,4.612148702E-1,2.345982552E0
1.043850609E0,1.073711157E0,4.612148702E-1,2.345982552E0
1.045850409E0,1.005294204E0,4.153999686E-1,2.345371723E0
1.047850142E0,9.716966748E-1,3.964631557E-1,2.342928410E0
1.049849875E0,9.142752886E-1,3.537025750E-1,2.341706753E0
1.051849608E0,8.611299992E-1,3.078877032E-1,2.339263201E0
1.053849341E0,8.318084478E-1,2.779552937E-1,2.339263201E0
1.055849074E0,7.823284268E-1,2.235882878E-1,2.332543612E0
1.057848807E0,7.334591746E-1,1.679995358E-1,2.327656746E0
1.059848607E0,7.157440782E-1,1.411214769E-1,2.322769880E0
1.061848407E0,6.497706175E-1,4.765909538E-2,2.309941769E0
1.063848107E0,6.497706175E-1,4.765909538E-2,2.309941769E0
1.065847840E0,6.094535589E-1,-1.892521605E-2,2.305054665E0
1.067847573E0,5.764667988E-1,-8.062260598E-2,2.296502590E0
1.069847306E0,5.636386871E-1,-1.191071197E-1,2.290394068E0
1.071847039E0,5.373714566E-1,-1.783610433E-1,2.279398441E0
1.073846772E0,5.220997930E-1,-2.425018847E-1,2.267791986E0
1.075846572E0,5.141585469E-1,-2.773212194E-1,2.261683464E0
1.077846372E0,5.007194877E-1,-3.414620757E-1,2.253131390E0
1.079846105E0,4.982760549E-1,-4.196528196E-1,2.245189905E0
1.081845905E0,5.013303757E-1,-5.106717348E-1,2.235416174E0
1.083846138E0,5.013303757E-1,-5.564866066E-1,2.230529308E0
1.085845871E0,5.098825097E-1,-6.108536124E-1,2.230529308E0
1.087845604E0,5.343171358E-1,-7.232528925E-1,2.222587824E0
1.089845337E0,5.795211196E-1,-8.527562618E-1,2.212203264E0
1.091845137E0,6.027340293E-1,-9.217840433E-1,2.205483675E0
1.093844870E0,6.552684307E-1,-1.076943874E0,2.185935974E0
1.095844603E0,7.004724741E-1,-1.238212228E0,2.164556026E0
1.097844336E0,7.273505330E-1,-1.326787710E0,2.143175602E0
1.099844069E0,7.707219720E-1,-1.492332101E0,2.108967066E0
1.101843802E0,8.305867314E-1,-1.733623862E0,2.042993546E0
1.103843335E0,8.305867314E-1,-1.733623862E0,2.042993546E0
1.105843068E0,8.660169840E-1,-1.890005469E0,1.993513584E0
1.107842868E0,8.770124912E-1,-1.959644079E0,1.967246294E0
1.109842601E0,8.996145129E-1,-2.090369225E0,1.910435796E0
1.111842334E0,9.173296094E-1,-2.204601049E0,1.854236245E0
1.113842067E0,9.197730422E-1,-2.252248526E0,1.824303865E0
1.115841800E0,9.197730422E-1,-2.347543478E0,1.767493367E0
1.117841533E0,9.032797217E-1,-2.389082193E0,1.735117555E0
1.119841266E0,8.867864013E-1,-2.477046967E0,1.675863624E0
1.121840932E0,8.580756783E-1,-2.538133621E0,1.617220640E0
1.123841632E0,8.373062611E-1,-2.570509195E0,1.581790447E0
1.125841365E0,7.945457101E-1,-2.610215664E0,1.518871188E0
1.127841098E0,7.505634427E-1,-2.634650230E0,1.450454354E0
1.129840831E0,7.187983990E-1,-2.645035028E0,1.415024161E0
1.131840564E0,6.687074304E-1,-2.649311066E0,1.343552828E0
1.133840297E0,6.076208949E-1,-2.641980410E0,1.277579427E0
1.135840030E0,5.752450824E-1,-2.637093782E0,1.239705801E0
1.137839763E0,5.104933977E-1,-2.610826492E0,1.167012811E0
1.139839563E0,4.744523168E-1,-2.603496075E0,1.127917528E0
1.141839296E0,3.278446794E-1,-2.557681084E0,9.941380024E-1
1.143838329E0,3.278446794E-1,-2.557681084E0,9.941380024E-1
1.145838062E0,2.887492776E-1,-2.536300898E0,9.623729587E-1
1.147837795E0,2.172780484E-1,-2.524083614E0,9.000647664E-1
1.149837528E0,1.494719982E-1,-2.506979227E0,8.469194174E-1
1.151837261E0,1.170961484E-1,-2.499648809E0,8.188196421E-1
1.153837061E0,6.089654565E-2,-2.488042593E0,7.693396211E-1
1.155836861E0,3.646193817E-2,-2.488653421E0,7.418506742E-1
1.157836594E0,-1.057468820E-2,-2.480712175E0,6.874836683E-1
1.159836327E0,-4.417227581E-2,-2.473992586E0,6.300623417E-1
1.161835993E0,-6.799602509E-2,-2.469105721E0,5.744735599E-1
1.163835926E0,-8.082418889E-2,-2.463608027E0,5.420976877E-1
1.165835659E0,-1.009827405E-1,-2.457499266E0,4.816220403E-1
1.167835392E0,-1.070913970E-1,-2.449558020E0,4.535222352E-1
1.169835192E0,-1.199195683E-1,-2.439784288E0,3.918248713E-1
1.171834925E0,-1.260282248E-1,-2.421458244E0,3.374578655E-1
1.173834658E0,-1.284716725E-1,-2.414738655E0,3.099688888E-1
1.175834391E0,-1.284716725E-1,-2.381141186E0,2.580453455E-1
1.177834124E0,-1.272499412E-1,-2.368923903E0,2.366650850E-1
1.179833857E0,-1.260282248E-1,-2.329217434E0,1.908501834E-1
1.181833657E0,-1.168652400E-1,-2.266909361E0,1.340397149E-1
1.183832457E0,-1.168652400E-1,-2.266909361E0,1.340397149E-1
1.185832257E0,-1.077022627E-1,-2.224148750E0,9.860953689E-2
1.187831990E0,-9.976101667E-2,-2.175890446E0,6.989886612E-2
1.189831723E0,-9.365236014E-2,-2.148401260E0,5.279463902E-2
1.191831456E0,-8.448938280E-2,-2.097699642E0,2.836002968E-2
1.193831189E0,-7.715899497E-2,-2.070210695E0,1.675358973E-2
1.195830922E0,-6.921774894E-2,-2.015843868E0,-4.015828017E-3
1.197830655E0,-5.577871576E-2,-1.946205020E0,-2.356351726E-2
1.199830388E0,-5.028092861E-2,-1.915050864E0,-2.967216820E-2
1.201830188E0,-3.073324263E-2,-1.806927681E0,-6.082629785E-2
1.203830121E0,-2.523545548E-2,-1.778828025E0,-6.693495065E-2
1.205829854E0,-2.034853213E-2,-1.743397832E0,-8.037398756E-2
1.207829120E0,-8.742092177E-3,-1.681700468E0,-1.035868600E-1
1.209828853E0,6.529538427E-3,-1.649324536E0,-1.194693595E-1
1.211828586E0,4.684664682E-2,-1.559527397E0,-1.603973210E-1
1.213828319E0,2.740885019E-1,-1.397037268E0,-2.715747952E-1
1.215828052E0,4.121440649E-1,-1.343891978E0,-3.424351811E-1
1.217827852E0,7.218527198E-1,-1.311516166E0,-5.049253106E-1
1.219827585E0,1.018122435E0,-1.334728956E0,-6.558090448E-1
1.221827351E0,1.287513971E0,-1.422082663E0,-7.901993990E-1
1.223826717E0,1.426791310E0,-1.473395348E0,-8.500642180E-1
1.225826450E0,1.694961071E0,-1.614505291E0,-9.630742669E-1
1.227826183E0,1.805527687E0,-1.684143901E0,-1.009500027E0
1.229825916E0,1.995506883E0,-1.837471128E0,-1.083414674E0
1.231825716E0,2.067588806E0,-1.907109737E0,-1.115179658E0
1.233825516E0,2.189151049E0,-2.041500092E0,-1.164048910E0
1.235825249E0,2.270396233E0,-2.160007715E0,-1.205587745E0
1.237824982E0,2.291776419E0,-2.213764191E0,-1.233076692E0
1.239824715E0,2.331482649E0,-2.314556837E0,-1.277058959E0
1.241824448E0,2.353473902E0,-2.439784288E0,-1.333869457E0
1.243824314E0,2.353473902E0,-2.439784288E0,-1.333869457E0
1.245824047E0,2.352863073E0,-2.519196749E0,-1.361358404E0
1.247823847E0,2.345532417E0,-2.558902740E0,-1.371743202E0
1.249823647E0,2.322930574E0,-2.629152298E0,-1.385792971E0
1.251823380E0,2.282002687E0,-2.693293095E0,-1.388236403E0
1.253823113E0,2.260622263E0,-2.722003937E0,-1.379684329E0
1.255822846E0,2.212363958E0,-2.767208099E0,-1.354638934E0
1.257822579E0,2.161051273E0,-2.800194502E0,-1.314932585E0
1.259822312E0,2.140892744E0,-2.811800957E0,-1.284389377E0
1.261822045E0,2.056593180E0,-2.844177008E0,-1.170157552E0
1.263821511E0,2.026050091E0,-2.853950977E0,-1.124342680E0
1.265821244E0,2.009556532E0,-2.858837605E0,-1.077916861E0
1.267821444E0,1.962520003E0,-2.875941992E0,-9.795676470E-1
1.269821177E0,1.945415735E0,-2.877774715E0,-9.331418276E-1
1.271820477E0,1.908153057E0,-2.894878864E0,-8.463990092E-1
1.273820210E0,1.872722864E0,-2.897322178E0,-7.761494517E-1
1.275819943E0,1.857451200E0,-2.900987625E0,-7.401084304E-1
1.277819676E0,1.820188522E0,-2.894267797E0,-6.881848574E-1
1.279819476E0,1.777427912E0,-2.888770103E0,-6.411482692E-1
1.281819242E0,1.735889077E0,-2.856394291E0,-5.953333974E-1
1.283819642E0,1.712676167E0,-2.838068247E0,-5.776183009E-1
1.285819375E0,1.687630773E0,-2.814244747E0,-5.599032044E-1
1.287819108E0,1.632652879E0,-2.735442877E0,-5.250838399E-1
1.289818841E0,1.567901134E0,-2.637704611E0,-4.957623482E-1
1.291818574E0,1.536136150E0,-2.583337307E0,-4.817124605E-1
1.293818307E0,1.459167123E0,-2.459942579E0,-4.603321552E-1
1.295818107E0,1.380976319E0,-2.311502457E0,-4.420062006E-1
1.297817840E0,1.341270089E0,-2.234533548E0,-4.365084171E-1
1.299817573E0,1.251472950E0,-2.075097561E0,-4.212367833E-1
1.301817306E0,1.110363007E0,-1.817923307E0,-4.151281416E-1
1.303816972E0,1.061493754E0,-1.733623862E0,-4.169607162E-1
1.305816272E0,1.012013674E0,-1.651768088E0,-4.181824625E-1
1.307816005E0,9.613118768E-1,-1.557694793E0,-4.175716043E-1
1.309815738E0,8.556321859E-1,-1.389706731E0,-4.181824625E-1
1.311815538E0,7.548394799E-1,-1.219275355E0,-4.200150371E-1
1.313815271E0,7.047485113E-1,-1.141695499E0,-4.187933207E-1
1.315815004E0,6.027340293E-1,-9.730967283E-1,-4.285671711E-1
1.317814737E0,5.153803229E-1,-8.270999193E-1,-4.328432381E-1
1.319814470E0,4.689545333E-1,-7.525743842E-1,-4.340649843E-1
1.321814136E0,3.846551180E-1,-6.132971048E-1,-4.401736259E-1
1.323814202E0,3.473923206E-1,-5.454910398E-1,-4.407844841E-1
1.325814002E0,2.673690021E-1,-4.233179986E-1,-4.493365884E-1
1.327813802E0,2.044498771E-1,-3.048101366E-1,-4.523909390E-1
1.329813535E0,1.684088260E-1,-2.547191978E-1,-4.517800510E-1
1.331813701E0,1.097657606E-1,-1.746958494E-1,-4.536126256E-1
1.333813434E0,5.539875850E-2,-1.044463515E-1,-4.523909390E-1
1.335813167E0,2.852068655E-2,-7.817914337E-2,-4.505583048E-1
1.337812900E0,-1.851593517E-2,-2.197954245E-2,-4.462822676E-1
1.339812633E0,-3.989621997E-2,-6.707911380E-3,-4.456713796E-1
1.341812433E0,-9.853928536E-2,4.460477084E-2,-4.334540963E-1
1.343812133E0,-1.174761057E-1,5.132428557E-2,-4.297889173E-1
1.345811866E0,-1.333585978E-1,6.109812856E-2,-4.267345965E-1
1.347811599E0,-1.663453281E-1,6.903938204E-2,-4.132955372E-1
1.349811332E0,-2.023863643E-1,6.170899421E-2,-3.913043737E-1
1.351811065E0,-2.133819461E-1,4.826996103E-2,-3.839739859E-1
1.353810798E0,-2.359839678E-1,2.200275660E-2,-3.674806654E-1
1.355810531E0,-2.451469451E-1,3.676797962E-3,-3.601502776E-1
1.357810331E0,-2.500338554E-1,-9.762237780E-3,-3.522090018E-1
1.359810064E0,-2.482012659E-1,-2.930992469E-2,-3.430460393E-1
1.361809797E0,-2.463686615E-1,-4.152723029E-2,-3.326613307E-1
1.363809530E0,-2.463686615E-1,-4.152723029E-2,-3.326613307E-1
1.365809696E0,-2.506447434E-1,-5.924231932E-2,-3.210549057E-1
1.367809429E0,-2.482012659E-1,-7.145962864E-2,-3.118919134E-1
1.369809162E0,-2.488121390E-1,-8.978558332E-2,-2.947876751E-1
1.371808895E0,-2.494229972E-1,-1.166636571E-1,-2.752400041E-1
1.373808695E0,-2.469795346E-1,-1.276592314E-1,-2.599683404E-1
1.375808461E0,-2.463686615E-1,-1.527047157E-1,-2.398098111E-1
1.377808227E0,-2.427034825E-1,-1.624785513E-1,-2.275925130E-1
1.379807927E0,-2.359839678E-1,-1.801936328E-1,-2.068230957E-1
1.381807727E0,-2.078841627E-1,-1.936326772E-1,-1.775015593E-1
1.383807860E0,-2.078841627E-1,-1.936326772E-1,-1.775015593E-1
1.385807626E0,-1.950560063E-1,-2.095151693E-1,-1.597864628E-1
1.387807392E0,-1.718431115E-1,-2.192890197E-1,-1.487908959E-1
1.389807225E0,-1.632910073E-1,-2.278411239E-1,-1.426822394E-1
1.391806991E0,-1.412998438E-1,-2.327280641E-1,-1.280214638E-1
1.393806757E0,-1.321368665E-1,-2.357823849E-1,-1.213019565E-1
1.395806523E0,-1.064805314E-1,-2.302845865E-1,-1.060303301E-1
1.397806289E0,-8.326765150E-2,-2.235650718E-1,-8.648263663E-2
1.399806055E0,-7.043948025E-2,-2.150129527E-1,-7.915224880E-2
1.401805821E0,-3.195497021E-2,-1.863022894E-1,-5.960456282E-2
1.403805387E0,-2.218112722E-2,-1.740849912E-1,-5.227418244E-2
1.405805220E0,-1.057468820E-2,-1.637002826E-1,-4.616552964E-2
1.407804986E0,1.447078679E-2,-1.337678879E-1,-3.700255230E-2
1.409804752E0,3.951626271E-2,-1.038354859E-1,-3.394822776E-2
1.411804518E0,4.806837440E-2,-8.734212816E-2,-3.028303385E-2
1.413804284E0,7.128125429E-2,-4.702501744E-2,-3.089389764E-2
1.415804050E0,8.105509728E-2,-2.564473264E-2,-2.967216820E-2
1.417803816E0,1.012136564E-1,2.750054188E-2,-3.028303385E-2
1.419803649E0,1.177070141E-1,7.148284465E-2,-2.783957310E-2
1.421803415E0,1.335895061E-1,1.527279168E-1,-3.333736211E-2
1.423803781E0,1.335895061E-1,1.527279168E-1,-3.333736211E-2
1.425803547E0,1.439742148E-1,2.180905044E-1,-4.127860814E-2
1.427803313E0,1.409198940E-1,2.419142425E-1,-4.433293641E-2
1.429803079E0,1.488611400E-1,3.103311360E-1,-5.288504809E-2
1.431802845E0,1.451959461E-1,3.451504707E-1,-5.777196959E-2
1.433802611E0,1.464176774E-1,4.001283646E-1,-6.876754761E-2
1.435802411E0,1.488611400E-1,4.520518780E-1,-7.121100277E-2
1.437802144E0,1.494719982E-1,4.697669744E-1,-7.548706234E-2
1.439801944E0,1.543589383E-1,5.106949210E-1,-7.365446538E-2
1.441801710E0,1.616893113E-1,5.290209055E-1,-7.915224880E-2
1.443800976E0,1.616893113E-1,5.290209055E-1,-7.915224880E-2
1.445800709E0,1.732957512E-1,5.198578835E-1,-8.892609179E-2
1.447800442E0,1.910108477E-1,5.009211302E-1,-1.041977331E-1
1.449800175E0,1.983412355E-1,4.807625413E-1,-1.127498373E-1
1.451799975E0,2.160563171E-1,4.373911023E-1,-1.353518516E-1
1.453799708E0,2.264410257E-1,4.099021852E-1,-1.487908959E-1
1.455799441E0,2.459887117E-1,3.604220748E-1,-1.738363653E-1
1.457799174E0,2.630929649E-1,2.999464273E-1,-2.007144392E-1
1.459798907E0,2.710341811E-1,2.687923312E-1,-2.165969461E-1
1.461798640E0,2.973013818E-1,1.679995358E-1,-2.642444074E-1
1.463798373E0,3.027991951E-1,1.301258951E-1,-2.825703621E-1
1.465798106E0,3.150164783E-1,9.836091101E-2,-3.015072048E-1
1.467797906E0,3.339533210E-1,3.177659959E-2,-3.320504725E-1
1.469797639E0,3.418945670E-1,-7.318776567E-3,-3.534307480E-1
1.471797372E0,3.614422679E-1,-5.924231932E-2,-3.900826573E-1
1.473797105E0,3.809899390E-1,-1.154419258E-1,-4.352866709E-1
1.475796838E0,3.889311850E-1,-1.343787611E-1,-4.560561180E-1
1.477796571E0,4.084788859E-1,-1.698089242E-1,-4.994275570E-1
1.479796304E0,4.200853109E-1,-1.954652667E-1,-5.421881080E-1
1.481796104E0,4.384112656E-1,-2.137912363E-1,-6.014420390E-1
1.483795337E0,4.384112656E-1,-2.137912363E-1,-6.014420390E-1
1.485795070E0,4.384112656E-1,-2.082934380E-1,-6.270983815E-1
1.487794803E0,4.341352284E-1,-1.960761398E-1,-6.686372161E-1
1.489794536E0,4.341352284E-1,-1.649220139E-1,-7.107869387E-1
1.491794536E0,4.231396616E-1,-1.490395218E-1,-7.272802591E-1
1.493794269E0,4.078679979E-1,-9.772682935E-2,-7.651539445E-1
1.495794002E0,3.858768642E-1,-3.664030880E-2,-7.901993990E-1
1.497793802E0,3.724378049E-1,8.563719690E-3,-8.054710031E-1
1.499793602E0,3.425054252E-1,8.186754584E-2,-8.402903676E-1
1.501793335E0,2.856949568E-1,2.248100191E-1,-8.903812766E-1
1.503793168E0,2.856949568E-1,2.248100191E-1,-8.903812766E-1
1.505792901E0,2.435452640E-1,3.164397776E-1,-9.300875068E-1
1.507792634E0,2.233867049E-1,3.622547090E-1,-9.508569241E-1
1.509792367E0,1.818478703E-1,4.520518780E-1,-1.004002213E0
1.511792100E0,1.329786330E-1,5.394056439E-1,-1.040654182E0
1.513791900E0,1.115983576E-1,5.864422321E-1,-1.049817085E0
1.515791633E0,6.211827323E-2,6.621895432E-1,-1.062645316E0
1.517791366E0,1.813597791E-2,7.306064367E-1,-1.078527808E0
1.519791099E0,-4.466035869E-3,7.635931373E-1,-1.077306032E0
1.521790832E0,-5.272439122E-2,8.527795076E-1,-1.073640823E0
1.523789665E0,-5.272439122E-2,8.527795076E-1,-1.073640823E0
1.525789398E0,-7.899159193E-2,9.059247375E-1,-1.061423540E0
1.527789131E0,-9.976101667E-2,9.431875348E-1,-1.049817085E0
1.529788931E0,-1.077022627E-1,9.694547653E-1,-1.040043354E0
1.531788664E0,-1.205304340E-1,1.003052354E0,-1.020495653E0
1.533788397E0,-1.290825456E-1,1.024432659E0,-9.875088334E-1
1.535788130E0,-1.290825456E-1,1.035428166E0,-9.679611921E-1
1.537787863E0,-1.303042769E-1,1.045202017E0,-9.361961484E-1
1.539787596E0,-1.376346648E-1,1.048256397E0,-8.995442390E-1
1.541787329E0,-1.351911873E-1,1.046423793E0,-8.543402553E-1
1.543786962E0,-1.394672543E-1,1.039704204E0,-8.335707784E-1
1.545786762E0,-1.339694709E-1,1.031152129E0,-8.121905327E-1
1.547786495E0,-1.327477396E-1,1.020156503E0,-7.712625861E-1
1.549786228E0,-1.284716725E-1,9.841155410E-1,-7.291128635E-1
1.551785694E0,-1.248064861E-1,9.694547653E-1,-7.059000134E-1
1.553785427E0,-1.132000536E-1,9.260833263E-1,-6.582524776E-1
1.555785160E0,-9.548495710E-2,8.900423050E-1,-6.240440607E-1
1.557784893E0,-8.693284541E-2,8.680511713E-1,-6.081615686E-1
1.559784626E0,-6.799602509E-2,8.344535232E-1,-5.849486589E-1
1.561784426E0,-4.600487277E-2,7.923038602E-1,-5.678444505E-1
1.563784392E0,-3.317670152E-2,7.800865769E-1,-5.562380552E-1
1.565784125E0,-1.607247628E-2,7.397693992E-1,-5.373011827E-1
1.567783858E0,-8.008443401E-4,7.281629443E-1,-5.281381607E-1
1.569783591E0,1.935770735E-2,6.957871318E-1,-5.061470866E-1
1.571783324E0,4.073799029E-2,6.725742221E-1,-4.829341769E-1
1.573783057E0,4.806837440E-2,6.542482972E-1,-4.676625431E-1
1.575782857E0,6.944866478E-2,6.273702383E-1,-4.365084171E-1
1.577782657E0,7.983336598E-2,6.194289327E-1,-4.212367833E-1
1.579782390E0,1.024353802E-1,5.888856649E-1,-3.980239332E-1
1.581782123E0,1.384764314E-1,5.430707932E-1,-3.699240983E-1
1.583782756E0,1.384764314E-1,5.430707932E-1,-3.699240983E-1
1.585782489E0,1.610784382E-1,5.174145103E-1,-3.491546810E-1
1.587782222E0,1.934542954E-1,4.887037873E-1,-3.351047933E-1
1.589781955E0,2.044498771E-1,4.715995789E-1,-3.302178681E-1
1.591781755E0,2.356040031E-1,4.471649826E-1,-3.247200847E-1
1.593781488E0,2.661472857E-1,4.178434312E-1,-3.216657341E-1
1.595781221E0,2.856949568E-1,4.092913270E-1,-3.210549057E-1
1.597780954E0,3.162382245E-1,3.836349845E-1,-3.234983385E-1
1.599780254E0,3.345641792E-1,3.744720221E-1,-3.228874803E-1
1.601779987E0,3.754921556E-1,3.616438210E-1,-3.259418011E-1
1.603780820E0,3.889311850E-1,3.665307760E-1,-3.216657341E-1
1.605780553E0,3.987050056E-1,3.732502759E-1,-3.210549057E-1
1.607780353E0,4.261939824E-1,3.824132383E-1,-3.173896968E-1
1.609780086E0,4.481851161E-1,4.013500810E-1,-3.161679804E-1
1.611779819E0,4.610132873E-1,4.056261182E-1,-3.125027716E-1
1.613779552E0,4.713979661E-1,4.227303565E-1,-3.082267046E-1
1.615779285E0,4.854478836E-1,4.227303565E-1,-3.027289510E-1
1.617779018E0,4.964434505E-1,4.355585277E-1,-2.929550707E-1
1.619778751E0,5.117151141E-1,4.288390279E-1,-2.844029963E-1
1.621778484E0,5.239323974E-1,4.270064235E-1,-2.776834667E-1
1.623778317E0,5.330954194E-1,4.257846773E-1,-2.764617205E-1
1.625778050E0,5.508104563E-1,4.166217148E-1,-2.697422206E-1
1.627777783E0,5.611951947E-1,4.080695808E-1,-2.648552954E-1
1.629777516E0,5.886841416E-1,3.946305513E-1,-2.520271242E-1
1.631777249E0,6.265577674E-1,3.622547090E-1,-2.373663485E-1
1.633776982E0,6.454945803E-1,3.433178663E-1,-2.245381773E-1
1.635776715E0,6.882551312E-1,3.078877032E-1,-2.037687749E-1
1.637776448E0,7.126897573E-1,2.968921065E-1,-1.903297305E-1
1.639776248E0,7.603372931E-1,2.596293390E-1,-1.457365751E-1
1.641775981E0,8.464692235E-1,2.132035792E-1,-6.510235369E-2
1.643775581E0,8.464692235E-1,2.132035792E-1,-6.510235369E-2
1.645775314E0,9.087775350E-1,1.545605212E-1,-6.459289230E-3
1.647775047E0,9.741400480E-1,8.675447106E-2,4.179906473E-2
1.649774780E0,1.008348465E0,5.132428557E-2,6.440107524E-2
1.651774513E0,1.077987194E0,-3.602944314E-2,1.004421338E-1
1.653774313E0,1.114639044E0,-7.817914337E-2,1.199898124E-1
1.655774113E0,1.178779960E0,-1.673654616E-1,1.560308635E-1
1.657773846E0,1.244142532E0,-2.449453622E-1,1.963479817E-1
1.659774012E0,1.271631479E0,-2.736560404E-1,2.177282572E-1
1.661773745E0,1.348600507E0,-3.603988886E-1,2.690409124E-1
1.663772378E0,1.366315603E0,-3.854443729E-1,2.837016881E-1
1.665772111E0,1.388306737E0,-4.068246484E-1,2.946972549E-1
1.667771844E0,1.419460773E0,-4.416439533E-1,3.172992766E-1
1.669771644E0,1.429234743E0,-4.538612664E-1,3.276839852E-1
1.671771377E0,1.454280138E0,-4.630242586E-1,3.337926567E-1
1.673771110E0,1.469551802E0,-4.654677212E-1,3.460099399E-1
1.675770843E0,1.479325652E0,-4.642459750E-1,3.521186113E-1
1.677770576E0,1.492764592E0,-4.471417665E-1,3.631142080E-1
1.679770309E0,1.501316786E0,-4.275940657E-1,3.734988868E-1
1.681770042E0,1.498873234E0,-4.190419614E-1,3.808292747E-1
1.683769508E0,1.493986487E0,-4.086572528E-1,3.771640956E-1
1.685769308E0,1.478714705E0,-3.964399397E-1,3.759423494E-1
1.687769041E0,1.465886593E0,-3.921638727E-1,3.741097748E-1
1.689768774E0,1.442062855E0,-3.744488060E-1,3.606707156E-1
1.691768507E0,1.423126101E0,-3.457381427E-1,3.618924618E-1
1.693768240E0,1.377921939E0,-2.962580323E-1,3.698337078E-1
1.695767973E0,1.338215828E0,-2.211216092E-1,3.893813789E-1
1.697767706E0,1.309505105E0,-1.795827746E-1,3.924357295E-1
1.699767439E0,1.260025024E0,-1.410982609E-1,4.034312963E-1
1.701767239E0,1.181834221E0,-9.772682935E-2,3.967117667E-1
1.703766239E0,1.181834221E0,-9.772682935E-2,3.967117667E-1
1.705765972E0,1.132354140E0,-7.145962864E-2,3.997661173E-1
1.707765705E0,1.103032589E0,-5.985318869E-2,4.009878337E-1
1.709765438E0,1.048054814E0,-2.259040810E-2,4.156485796E-1
1.711765304E0,9.924660921E-1,1.233336981E-3,4.413049221E-1
1.713765037E0,9.613118768E-1,1.589410380E-2,4.510787725E-1
1.715764770E0,9.045014381E-1,5.376774818E-2,4.755133986E-1
1.717764570E0,8.507453203E-1,8.003494889E-2,5.054457784E-1
1.719764303E0,8.244780898E-1,9.225226194E-2,5.170522332E-1
1.721764036E0,7.578938007E-1,1.337910891E-1,5.653105974E-1
1.723763869E0,7.578938007E-1,1.337910891E-1,5.653105974E-1
1.725763602E0,7.175766826E-1,1.704430133E-1,5.940212607E-1
1.727763335E0,6.809247732E-1,1.881580949E-1,6.251753569E-1
1.729763068E0,6.613770723E-1,1.948776245E-1,6.416687369E-1
1.731762868E0,6.271686554E-1,2.003754079E-1,6.685467958E-1
1.733762668E0,5.880732536E-1,2.077057958E-1,6.960357428E-1
1.735762401E0,5.715798736E-1,2.125927061E-1,7.064204812E-1
1.737762134E0,5.337062478E-1,2.296969444E-1,7.357420325E-1
1.739761867E0,5.013303757E-1,2.437468469E-1,7.552896738E-1
1.741761600E0,4.555155039E-1,2.529098094E-1,7.840003371E-1
1.743760400E0,4.555155039E-1,2.529098094E-1,7.840003371E-1
1.745760133E0,4.396329820E-1,2.522989511E-1,7.931633592E-1
1.747759933E0,4.164201021E-1,2.681814432E-1,8.114892840E-1
1.749759733E0,3.901529312E-1,2.791770399E-1,8.285934925E-1
1.751759466E0,3.852660060E-1,2.883400023E-1,8.438650966E-1
1.753759199E0,3.864877224E-1,3.170506656E-1,8.615801930E-1
1.755758932E0,4.158092737E-1,3.805806637E-1,8.768518567E-1
1.757758665E0,4.371895492E-1,4.147890806E-1,8.927343488E-1
1.759758398E0,5.282084346E-1,5.717815161E-1,9.709250927E-1
1.761758064E0,6.326664686E-1,7.434346080E-1,1.179841042E0
1.763758730E0,6.125078797E-1,7.495432496E-1,1.242760181E0
1.765758463E0,5.691364408E-1,6.792937517E-1,1.261086106E0
1.767758196E0,4.891130626E-1,5.430707932E-1,1.239094973E0
1.769757929E0,1.910108477E-1,1.472301334E-1,1.196945190E0
1.771757529E0,-3.317670152E-2,-7.879000902E-2,1.162736773E0
1.773757262E0,-6.005477160E-2,-1.123875976E-1,1.145021677E0
1.775756995E0,6.334000826E-2,-4.030549899E-2,1.115700245E0
1.777756728E0,2.032281458E-1,-2.686646394E-2,1.101650238E0
1.779756528E0,2.575951517E-1,-3.541857749E-2,1.089432955E0
1.781756294E0,3.907637596E-1,-6.707911380E-3,1.050337553E0
1.783755960E0,3.907637596E-1,-6.707911380E-3,1.050337553E0
1.785755726E0,4.280265570E-1,2.566794679E-2,1.006966114E0
1.787755492E0,4.408547282E-1,7.026110590E-2,9.361057878E-1
1.789755258E0,4.378004074E-1,7.392629981E-2,8.896800280E-1
1.791755024E0,4.182527065E-1,8.492187411E-2,7.962176800E-1
1.793754790E0,3.999267519E-1,7.392629981E-2,7.210812569E-1
1.795754623E0,3.925963640E-1,7.820235193E-2,6.960357428E-1
1.797754389E0,3.773247302E-1,1.191303357E-1,6.679359078E-1
1.799754155E0,3.644965887E-1,1.545605212E-1,6.703794003E-1
1.801753921E0,3.681617677E-1,3.390417993E-1,7.387963533E-1
1.803754621E0,3.712160885E-1,3.903544843E-1,7.754482627E-1
1.805754387E0,3.357859254E-1,4.129565060E-1,8.121001720E-1
1.807754153E0,2.301062196E-1,3.970740139E-1,8.609693646E-1
1.809753919E0,8.044423908E-2,3.964631557E-1,8.646345139E-1
1.811753752E0,9.583865292E-3,3.982957602E-1,8.597476482E-1
1.813753518E0,-9.487409145E-2,4.184542894E-1,8.603585362E-1
1.815755051E0,-1.590149403E-1,4.410563111E-1,8.585258722E-1
1.817754817E0,-1.883364767E-1,4.569388032E-1,8.573041558E-1
1.819754583E0,-2.109384984E-1,4.825951457E-1,8.255391717E-1
1.821754416E0,-2.225449234E-1,4.978667796E-1,7.840003371E-1
1.823754182E0,-2.219340652E-1,4.984776676E-1,7.644526362E-1
1.825754015E0,-2.304861695E-1,4.648800790E-1,7.461267114E-1
1.827753848E0,-2.396491617E-1,4.538844824E-1,7.369636893E-1
1.829753614E0,-2.561425269E-1,4.044044018E-1,7.247464061E-1
1.831753380E0,-2.879075110E-1,3.494265079E-1,7.094748020E-1
1.833753146E0,-3.056225777E-1,3.207158446E-1,7.082530260E-1
1.835752912E0,-3.416636586E-1,2.620727718E-1,7.155834436E-1
1.837752678E0,-3.624330759E-1,2.315295339E-1,7.161942720E-1
1.839752444E0,-3.899219930E-1,1.912124306E-1,7.259681225E-1
1.841752244E0,-4.339042902E-1,1.466192603E-1,7.381854057E-1
1.843751977E0,-4.339042902E-1,1.466192603E-1,7.381854057E-1
1.845751710E0,-4.565063119E-1,1.081347615E-1,7.467375398E-1
1.847751443E0,-4.723888338E-1,9.530659020E-2,7.510136366E-1
1.849751176E0,-4.742214084E-1,9.347399324E-2,7.522353530E-1
1.851750909E0,-4.864387214E-1,9.041966498E-2,7.583439946E-1
1.853750642E0,-4.913256168E-1,9.408485144E-2,7.613983154E-1
1.855750375E0,-5.004886389E-1,9.775004536E-2,7.681178451E-1
1.857750175E0,-5.072081089E-1,1.172977388E-1,7.632309198E-1
1.859749908E0,-5.120950341E-1,1.246281117E-1,7.644526362E-1
1.861749641E0,-5.279775262E-1,1.344019622E-1,7.754482627E-1
1.863749474E0,-5.377513766E-1,1.344019622E-1,7.742264867E-1
1.865749207E0,-5.444709063E-1,1.313476413E-1,7.730047703E-1
1.867748940E0,-5.640186071E-1,1.313476413E-1,7.772808075E-1
1.869748673E0,-5.902858377E-1,1.197411940E-1,7.736155987E-1
1.871748406E0,-6.043356657E-1,1.111890823E-1,7.711721659E-1
1.873748206E0,-6.361007094E-1,9.408485144E-2,7.522353530E-1
1.875746172E0,-6.495397091E-1,8.919792622E-2,7.461267114E-1
1.877745905E0,-6.825264096E-1,5.743293837E-2,7.229138017E-1
1.879745638E0,-7.197892666E-1,3.483092412E-2,7.027552724E-1
1.881745371E0,-7.613280416E-1,-1.892521605E-2,6.667142510E-1
1.883745404E0,-7.613280416E-1,-1.892521605E-2,6.667142510E-1
1.885745137E0,-7.888169885E-1,-6.107491627E-2,6.392253041E-1
1.887744870E0,-7.992017269E-1,-8.001174033E-2,6.215102077E-1
1.889744670E0,-8.242471814E-1,-1.191071197E-1,5.854691267E-1
1.891744403E0,-8.340210319E-1,-1.423199922E-1,5.659214258E-1
1.893744136E0,-8.621208668E-1,-1.832479686E-1,5.304912925E-1
1.895743869E0,-8.835011125E-1,-2.223433405E-1,4.871198535E-1
1.897743469E0,-8.920532465E-1,-2.278411239E-1,4.632960856E-1
1.899743202E0,-9.158769250E-1,-2.718234360E-1,4.144268930E-1
1.901742935E0,-9.433659315E-1,-3.396294415E-1,3.618924618E-1
1.903742735E0,-9.433659315E-1,-3.396294415E-1,3.618924618E-1
1.905742535E0,-9.629136324E-1,-3.720053434E-1,3.478425741E-1
1.907742268E0,-9.812395573E-1,-4.068246484E-1,3.380686939E-1
1.909742001E0,-9.928460121E-1,-4.196528196E-1,3.289057314E-1
1.911741734E0,-1.013615370E0,-4.550830126E-1,3.136340976E-1
1.913741467E0,-1.019724011E0,-4.776850343E-1,3.044711351E-1
1.915741200E0,-1.036217451E0,-4.978435636E-1,2.953081429E-1
1.917740500E0,-1.034995675E0,-5.253325105E-1,2.891995013E-1
1.919739866E0,-1.033163071E0,-5.387715697E-1,2.861451805E-1
1.921739599E0,-1.069204092E0,-6.059667468E-1,2.800365090E-1
1.923739232E0,-1.050267339E0,-6.065775752E-1,2.904212475E-1
1.925738965E0,-1.047823906E0,-6.291795969E-1,2.989733219E-1
1.927738698E0,-1.012393713E0,-6.774379015E-1,3.264622688E-1
1.929738431E0,-1.006285071E0,-7.104246616E-1,3.392904401E-1
1.931738164E0,-9.678005576E-1,-7.818959355E-1,3.539512157E-1
1.933738530E0,-9.189313650E-1,-8.277108073E-1,3.472316861E-1
1.935738330E0,-8.993836045E-1,-8.289325833E-1,3.295165896E-1
1.937738063E0,-8.364644647E-1,-8.417606950E-1,2.898103595E-1
1.939737796E0,-7.491107583E-1,-8.356520534E-1,2.281129658E-1
1.941737529E0,-6.538158059E-1,-8.258782625E-1,1.493113488E-1
1.943736662E0,-6.025031209E-1,-8.191586733E-1,1.132703051E-1
1.945736395E0,-5.505796075E-1,-8.124391437E-1,6.806626916E-2
1.947736128E0,-4.339042902E-1,-7.757872343E-1,-1.195707638E-2
1.949735861E0,-3.025682569E-1,-7.440222502E-1,-9.259128571E-2
1.951735661E0,-2.475904077E-1,-7.256962657E-1,-1.286323369E-1
1.953734494E0,-1.211412996E-1,-6.707184315E-1,-2.013252974E-1
1.955734227E0,-7.520361803E-3,-5.943602920E-1,-2.618009746E-1
1.957734093E0,4.501404986E-2,-5.503779650E-1,-2.972311378E-1
1.959733826E0,1.488611400E-1,-4.508069456E-1,-3.558742106E-1
1.961733559E0,2.924144566E-1,-2.889276445E-1,-4.572778344E-1
1.963733892E0,2.924144566E-1,-2.889276445E-1,-4.572778344E-1
1.965733625E0,3.864877224E-1,-2.089043111E-1,-5.238621235E-1
1.967733425E0,4.237504900E-1,-1.826370955E-1,-5.562380552E-1
1.969733158E0,5.056064725E-1,-1.465960592E-1,-6.038854718E-1
1.971732891E0,5.660821199E-1,-1.435417384E-1,-6.399265528E-1
1.973732624E0,5.856297612E-1,-1.563699096E-1,-6.545873284E-1
1.975732357E0,6.186165214E-1,-1.905783564E-1,-6.643611193E-1
1.977732523E0,6.241143346E-1,-2.321171910E-1,-6.606959701E-1
1.979732689E0,6.149513125E-1,-2.504431605E-1,-6.564199328E-1
1.981732489E0,5.618060231E-1,-2.632713020E-1,-6.069397926E-1
1.983732289E0,5.618060231E-1,-2.632713020E-1,-6.069397926E-1
1.985732422E0,5.019412637E-1,-2.388367057E-1,-5.458532572E-1
1.987732155E0,4.261939824E-1,-2.095151693E-1,-4.792689681E-1
1.989731888E0,3.797681928E-1,-2.009630650E-1,-4.358975589E-1
1.991731621E0,2.838623524E-1,-1.979087442E-1,-3.473220766E-1
1.993730721E0,1.818478703E-1,-1.936326772E-1,-2.624118328E-1
1.995730454E0,1.348112375E-1,-1.875240207E-1,-2.251490504E-1
1.997730254E0,4.257058725E-2,-1.557590365E-1,-1.481800228E-1
1.999730054E0,-5.089179426E-2,-1.056680828E-1,-7.365446538E-2
2.001729820E0,-1.376346648E-1,-1.342742890E-2,-1.073534600E-2
2.003730220E0,-1.773408949E-1,3.483092412E-2,1.675358973E-2
2.005729986E0,-2.188797295E-1,7.942409068E-2,4.851858318E-2
2.007729752E0,-2.940161824E-1,1.722756028E-1,1.065507829E-1
2.009729518E0,-3.587678969E-1,2.645162642E-1,1.627503783E-1
2.011729284E0,-3.917545974E-1,3.109420240E-1,1.877958477E-1
2.013730017E0,-4.479542077E-1,3.830240965E-1,2.366650850E-1
2.015729817E0,-4.949908257E-1,4.410563111E-1,2.916429341E-1
2.017729617E0,-5.163710713E-1,4.667126536E-1,3.154667020E-1
2.019729417E0,-5.487469435E-1,5.009211302E-1,3.655576408E-1
2.021729217E0,-5.945618749E-1,5.271883011E-1,4.303093553E-1
2.023728517E0,-5.945618749E-1,5.271883011E-1,4.303093553E-1
2.025728317E0,-6.055574417E-1,5.375729799E-1,4.541331232E-1
2.027727683E0,-6.153312922E-1,5.412382483E-1,4.602417648E-1
2.029727549E0,-6.031139493E-1,5.595641732E-1,4.510787725E-1
2.031727415E0,-5.866206288E-1,5.650619268E-1,4.657395184E-1
2.033727281E0,-5.860097408E-1,5.638402104E-1,4.926176071E-1
2.035727147E0,-5.805119872E-1,5.656728745E-1,5.317130089E-1
2.037727013E0,-5.768467188E-1,5.632293820E-1,5.390433669E-1
2.039726879E0,-5.762358904E-1,5.522337556E-1,5.549258590E-1
2.041726745E0,-5.890640616E-1,5.394056439E-1,5.701975226E-1
2.043726611E0,-5.890640616E-1,5.394056439E-1,5.701975226E-1
2.045726144E0,-6.012813449E-1,5.381839275E-1,5.665323138E-1
2.047726010E0,-6.196073890E-1,5.253556967E-1,5.640888810E-1
2.049725876E0,-6.293811798E-1,5.229122043E-1,5.665323138E-1
2.051725742E0,-6.495397091E-1,5.174145103E-1,5.671432018E-1
2.053725608E0,-6.703091264E-1,5.070297718E-1,5.561475754E-1
2.055725474E0,-6.831373572E-1,4.935907423E-1,5.561475754E-1
2.057725340E0,-7.008523941E-1,4.770973623E-1,5.543150306E-1
2.059725206E0,-7.081828117E-1,4.691561162E-1,5.524824262E-1
2.061725106E0,-7.246761322E-1,4.563279450E-1,5.512607098E-1
2.063723739E0,-7.240653038E-1,4.563279450E-1,5.530932546E-1
2.065723572E0,-7.265087366E-1,4.593822658E-1,5.482063890E-1
2.067723405E0,-7.246761322E-1,4.422780573E-1,5.457628965E-1
2.069723238E0,-7.191783190E-1,4.257846773E-1,5.506498218E-1
2.071723071E0,-7.197892666E-1,4.105130732E-1,5.567584634E-1
2.073722904E0,-7.045176029E-1,3.989066184E-1,5.634779930E-1
2.075722770E0,-7.008523941E-1,3.940196931E-1,5.689757466E-1
2.077722636E0,-6.813047528E-1,3.952414393E-1,5.818039775E-1
2.079722436E0,-6.568701267E-1,4.196760356E-1,5.915777683E-1
2.081722236E0,-6.147204041E-1,4.667126536E-1,6.154015660E-1
2.083722002E0,-6.147204041E-1,4.667126536E-1,6.154015660E-1
2.085721402E0,-5.823445320E-1,5.058080554E-1,6.239537001E-1
2.087721635E0,-5.689055324E-1,5.302426219E-1,6.300623417E-1
2.089721435E0,-5.365296602E-1,5.650619268E-1,6.349492073E-1
2.091721235E0,-4.998777509E-1,5.901074409E-1,6.428904533E-1
2.093720968E0,-4.833844006E-1,5.980486870E-1,6.441121697E-1
2.095720701E0,-4.412346780E-1,6.023247838E-1,6.502208114E-1
2.097720434E0,-4.174109399E-1,6.017138958E-1,6.496099830E-1
2.099720167E0,-3.667091429E-1,5.772792101E-1,6.618272662E-1
2.101719833E0,-3.160073161E-1,5.339078307E-1,6.728228927E-1
2.103719566E0,-2.940161824E-1,5.015319586E-1,6.807640791E-1
2.105719299E0,-2.433143407E-1,4.428889155E-1,6.972574592E-1
2.107719099E0,-1.938342601E-1,3.726394176E-1,7.192485929E-1
2.109718832E0,-1.657344699E-1,3.347657323E-1,7.284116149E-1
2.111718565E0,-1.101457179E-1,2.547424138E-1,7.552896738E-1
2.113718298E0,-8.448938280E-2,2.058732063E-1,7.675069571E-1
2.115718031E0,-2.523545548E-2,1.142434105E-1,7.998828292E-1
2.117717764E0,4.501404986E-2,1.161804609E-2,8.292043209E-1
2.119717497E0,7.555731386E-2,-4.885761440E-2,8.456977606E-1
2.121717230E0,1.879565120E-1,-2.418910414E-1,8.988429904E-1
2.123717563E0,2.380474657E-1,-3.121405244E-1,9.116712213E-1
2.125717296E0,2.740885019E-1,-3.781139851E-1,9.238885045E-1
2.127717029E0,3.614422679E-1,-5.210564733E-1,9.477122426E-1
2.129716762E0,4.048136771E-1,-5.949711204E-1,9.544317722E-1
2.131716495E0,5.001086593E-1,-7.495200038E-1,9.697033763E-1
2.133716228E0,6.033449173E-1,-8.991820216E-1,9.715359211E-1
2.135715961E0,6.558792591E-1,-9.694315195E-1,9.648164511E-1
2.137715694E0,7.609481215E-1,-1.083052516E0,9.397709966E-1
2.139715494E0,8.776233792E-1,-1.150858521E0,8.970104456E-1
2.141715227E0,1.029728889E0,-1.279751062E0,7.803351283E-1
2.143714927E0,1.029728889E0,-1.279751062E0,7.803351283E-1
2.145715060E0,1.120136857E0,-1.406810999E0,6.807640791E-1
2.147714793E0,1.157399654E0,-1.475227952E0,6.166232824E-1
2.149714526E0,1.233757854E0,-1.616948724E0,5.054457784E-1
2.151714259E0,1.266744494E0,-1.683532953E0,4.315311015E-1
2.153714059E0,1.342491865E0,-1.791045308E0,2.745387256E-1
2.155713859E0,1.401134849E0,-1.808149576E0,1.126594320E-1
2.157713592E0,1.420682669E0,-1.777606249E0,2.897089534E-2
2.159713325E0,1.482380033E0,-1.629166007E0,-1.274106055E-1
2.161713125E0,1.500095129E0,-1.346335411E0,-3.351047933E-1
2.163712658E0,1.500095129E0,-1.346335411E0,-3.351047933E-1
2.165712391E0,1.478103876E0,-1.180790901E0,-4.475039840E-1
2.167712124E0,1.434121609E0,-1.107487082E0,-5.092014074E-1
2.169711924E0,1.350433111E0,-9.963096380E-1,-6.173245311E-1
2.171711657E0,1.244753361E0,-8.955168724E-1,-7.199499011E-1
2.173711390E0,1.169006109E0,-8.539780378E-1,-7.682082653E-1
2.175711123E0,1.038891792E0,-7.531852126E-1,-8.451772332E-1
2.177710856E0,9.051123261E-1,-6.780488491E-1,-9.056529403E-1
2.179710589E0,8.428040743E-1,-6.505599022E-1,-9.337527752E-1
2.181710255E0,7.194092870E-1,-5.937494040E-1,-9.624633789E-1
2.183710321E0,5.966253877E-1,-5.228890181E-1,-9.985044599E-1
2.185710121E0,5.416474938E-1,-4.929566383E-1,-1.010110855E0
2.187709854E0,4.408547282E-1,-4.697437882E-1,-1.030880213E0
2.189709587E0,3.919855058E-1,-4.660785794E-1,-1.040654182E0
2.191709320E0,3.101295829E-1,-4.489743412E-1,-1.063867092E0
2.193709053E0,2.197215110E-1,-3.897204399E-1,-1.088301659E0
2.195708786E0,1.830696017E-1,-3.787248433E-1,-1.100518942E0
2.197708519E0,1.073223054E-1,-3.487924635E-1,-1.128007889E0
2.199708252E0,3.585106879E-2,-3.011449575E-1,-1.145722985E0
2.201708052E0,-4.783746600E-2,-1.960761398E-1,-1.151220679E0
2.203707818E0,-4.783746600E-2,-1.960761398E-1,-1.151220679E0
2.205707551E0,-7.715899497E-2,-1.643111408E-1,-1.153664231E0
2.207707284E0,-1.370237917E-1,-9.772682935E-2,-1.146333814E0
2.209707017E0,-1.883364767E-1,-3.541857749E-2,-1.156718493E0
2.211706750E0,-2.084950209E-1,-7.929641753E-3,-1.161605477E0
2.213706483E0,-2.543099225E-1,3.788524866E-2,-1.174433589E0
2.215706216E0,-3.031791449E-1,8.370014280E-2,-1.187872648E0
2.217705482E0,-3.233377039E-1,9.897177666E-2,-1.198868275E0
2.219705215E0,-3.654873967E-1,1.307367682E-1,-1.229411483E0
2.221704881E0,-4.094696939E-1,1.661669463E-1,-1.262398243E0
2.223704814E0,-4.284065366E-1,1.887689680E-1,-1.285000205E0
2.225704547E0,-4.675018787E-1,2.223665565E-1,-1.325317383E0
2.227704280E0,-4.907147884E-1,2.364164591E-1,-1.339367270E0
2.229704013E0,-5.316427350E-1,2.590184510E-1,-1.361969233E0
2.231703813E0,-5.652403831E-1,2.822313607E-1,-1.385182142E0
2.233703613E0,-5.823445320E-1,2.846747935E-1,-1.393123388E0
2.235703346E0,-6.159421206E-1,3.005573153E-1,-1.410227656E0
2.237703079E0,-6.361007094E-1,3.256027699E-1,-1.427331924E0
2.239702579E0,-6.470962763E-1,3.353766203E-1,-1.446268678E0
2.241702379E0,-6.550375223E-1,3.714176714E-1,-1.617921710E0
2.243701179E0,-6.550375223E-1,3.714176714E-1,-1.617921710E0
2.245700912E0,-6.666439772E-1,4.813733995E-1,-1.846385360E0
2.247700712E0,-6.794720888E-1,5.681162477E-1,-1.944123864E0
2.249700512E0,-6.935220361E-1,5.907183290E-1,-1.936793447E0
2.251700112E0,-7.216218114E-1,6.224832535E-1,-1.879983068E0
2.253699845E0,-7.436130047E-1,6.224832535E-1,-1.803013921E0
2.255699578E0,-7.515542507E-1,6.059899330E-1,-1.772470713E0
2.257699311E0,-7.283413410E-1,5.864422321E-1,-1.719325423E0
2.259699044E0,-7.020741701E-1,5.778901577E-1,-1.708940625E0
2.261698777E0,-6.379333138E-1,5.522337556E-1,-1.672288775E0
2.263698610E0,-6.238834262E-1,5.332969427E-1,-1.646632433E0
2.265698343E0,-6.086117625E-1,5.106949210E-1,-1.630749941E0
2.267697643E0,-5.841771364E-1,4.697669744E-1,-1.596541524E0
2.269697376E0,-5.572990775E-1,4.202868938E-1,-1.566609144E0
2.271697109E0,-5.450817943E-1,3.964631557E-1,-1.552559257E0
2.273696842E0,-5.267558098E-1,3.353766203E-1,-1.522626877E0
2.275696575E0,-5.127059221E-1,2.926160693E-1,-1.482920527E0
2.277696841E0,-5.072081089E-1,2.755118310E-1,-1.465205431E0
2.279696641E0,-4.858278632E-1,2.394707799E-1,-1.430386186E0
2.281696441E0,-4.522302449E-1,2.070949227E-1,-1.412060142E0
2.283696174E0,-4.387912154E-1,1.985428184E-1,-1.402897239E0
2.285695907E0,-4.088588357E-1,1.954884827E-1,-1.392512560E0
2.287695640E0,-3.984741271E-1,1.912124306E-1,-1.381516933E0
2.289695373E0,-3.752612174E-1,1.826603115E-1,-1.372964859E0
2.291695106E0,-3.428853750E-1,1.710538715E-1,-1.354028106E0
2.293694839E0,-3.270029128E-1,1.679995358E-1,-1.343643308E0
2.295694639E0,-2.854640484E-1,1.783842593E-1,-1.300882697E0
2.297694372E0,-2.616402805E-1,1.954884827E-1,-1.285000205E0
2.299694338E0,-2.243775129E-1,2.547424138E-1,-1.250180960E0
2.301694071E0,-1.761191785E-1,3.763045967E-1,-1.206809402E0
2.303694537E0,-1.761191785E-1,3.763045967E-1,-1.206809402E0
2.305694270E0,-1.443541646E-1,4.685452580E-1,-1.194592118E0
2.307694003E0,-1.186978370E-1,5.565098524E-1,-1.184207559E0
2.309693736E0,-1.070913970E-1,5.846096277E-1,-1.180542231E0
2.311693669E0,-8.754371107E-2,6.463069916E-1,-1.171990275E0
2.313693402E0,-7.776986808E-2,6.634112597E-1,-1.167714119E0
2.315693135E0,-6.188736856E-2,7.122804523E-1,-1.153664231E0
2.317692868E0,-4.233967885E-2,7.550410628E-1,-1.140225172E0
2.319692601E0,-3.989621997E-2,7.776430845E-1,-1.140836000E0
2.321692267E0,-2.279199474E-2,8.179601431E-1,-1.146944761E0
2.323692833E0,-1.607247628E-2,8.588881493E-1,-1.170768380E0
2.325692633E0,-2.034853213E-2,8.723271489E-1,-1.185429215E0
2.327692866E0,-2.828978002E-2,9.126442671E-1,-1.220859408E0
2.329692599E0,-5.333525315E-2,9.596809149E-1,-1.255067825E0
2.331692332E0,-6.127650291E-2,9.835046530E-1,-1.269117832E0
2.333692065E0,-1.003718823E-1,1.040925980E0,-1.295995831E0
2.335691798E0,-1.211412996E-1,1.069636583E0,-1.308213115E0
2.337691531E0,-1.645127237E-1,1.127058029E0,-1.310656667E0
2.339691264E0,-2.115493417E-1,1.166764259E0,-1.308823943E0
2.341691064E0,-2.646946311E-1,1.194864035E0,-1.295385003E0
2.343690797E0,-2.903509736E-1,1.199140191E0,-1.291719675E0
2.345690530E0,-3.428853750E-1,1.235792041E0,-1.303936958E0
2.347690263E0,-3.722068965E-1,1.245565772E0,-1.316765308E0
2.349689996E0,-4.345151782E-1,1.262059212E0,-1.352195382E0
2.351689296E0,-4.717779458E-1,1.262059212E0,-1.371132255E0
2.353689029E0,-5.414165854E-1,1.265724421E0,-1.412671089E0
2.355688762E0,-6.147204041E-1,1.246787548E0,-1.452377319E0
2.357688562E0,-6.483179927E-1,1.232737660E0,-1.464594603E0
2.359688295E0,-7.234544158E-1,1.220520377E0,-1.483531475E0
2.361688028E0,-8.450165987E-1,1.207692146E0,-1.506133437E0
2.363687661E0,-8.450165987E-1,1.207692146E0,-1.506133437E0
2.365687894E0,-9.183204174E-1,1.213800907E0,-1.528735518E0
2.367687627E0,-9.928460121E-1,1.238846302E0,-1.561111331E0
2.369687360E0,-1.029497981E0,1.247398496E0,-1.567830801E0
2.371687093E0,-1.085086703E0,1.242511511E0,-1.583713412E0
2.373686893E0,-1.118073344E0,1.236402869E0,-1.577604771E0
2.375686626E0,-1.158390522E0,1.214411736E0,-1.553781033E0
2.377686359E0,-1.206648827E0,1.173483729E0,-1.510409594E0
2.379686092E0,-1.222531319E0,1.142329574E0,-1.489029288E0
2.381685892E0,-1.241468191E0,1.039093375E0,-1.400453687E0
2.383684692E0,-1.241468191E0,1.039093375E0,-1.400453687E0
2.385684425E0,-1.235970378E0,9.517396688E-1,-1.297828317E0
2.387684158E0,-1.217033625E0,8.680511713E-1,-1.172601104E0
2.389683958E0,-1.202372789E0,8.368969560E-1,-1.102351546E0
2.391683691E0,-1.155336142E0,7.574844956E-1,-9.771241546E-1
2.393683424E0,-1.102190971E0,6.689090729E-1,-8.586163521E-1
2.395683157E0,-1.060652137E0,6.255375743E-1,-8.005840778E-1
2.397682890E0,-9.971220493E-1,5.394056439E-1,-6.924609542E-1
2.399682623E0,-9.299268723E-1,4.807625413E-1,-6.423699856E-1
2.401682356E0,-8.608990908E-1,4.416671693E-1,-6.142702103E-1
2.403682156E0,-8.321884274E-1,4.318933487E-1,-5.971659422E-1
2.405681956E0,-8.040886521E-1,4.111239016E-1,-5.867812634E-1
2.407681722E0,-7.533868551E-1,3.873001635E-1,-5.629575253E-1
2.409681488E0,-7.026849985E-1,3.598112464E-1,-5.232512951E-1
2.411681688E0,-6.861916780E-1,3.506482542E-1,-4.951514900E-1
2.413681454E0,-6.519832015E-1,3.530917168E-1,-4.407844841E-1
2.415681220E0,-6.220507622E-1,3.683633506E-1,-3.870283365E-1
2.417680986E0,-6.067791581E-1,3.714176714E-1,-3.577068150E-1
2.419680819E0,-5.780684948E-1,3.775263429E-1,-2.666878998E-1
2.421680652E0,-5.524121523E-1,3.677524626E-1,-1.103063822E-1
2.423679852E0,-5.524121523E-1,3.677524626E-1,-1.103063822E-1
2.425679118E0,-5.426383018E-1,3.634764552E-1,-2.234178595E-2
2.427678884E0,-5.383622646E-1,3.518700004E-1,1.431012899E-2
2.429678650E0,-5.285884142E-1,3.286570907E-1,8.394876868E-2
2.431678416E0,-5.157602429E-1,3.109420240E-1,1.456461698E-1
2.433678182E0,-5.139276981E-1,3.097202778E-1,1.682481617E-1
2.435678015E0,-5.059863925E-1,2.993355691E-1,2.030674964E-1
2.437677781E0,-5.047646761E-1,2.852856815E-1,2.220043242E-1
2.439677547E0,-5.059863925E-1,2.803987563E-1,2.262803614E-1
2.441677313E0,-4.986560047E-1,2.608510852E-1,2.384976745E-1
2.443677079E0,-4.986560047E-1,2.608510852E-1,2.384976745E-1
2.445676845E0,-4.882712960E-1,2.394707799E-1,2.494932562E-1
2.447676611E0,-4.613932371E-1,2.138144374E-1,2.647649050E-1
2.449676377E0,-4.455107450E-1,2.022080123E-1,2.800365090E-1
2.451676210E0,-4.100805521E-1,1.906015575E-1,3.240188062E-1
2.453675976E0,-3.709851801E-1,1.869363636E-1,3.918248713E-1
2.455676176E0,-3.471614420E-1,1.838820428E-1,4.321419597E-1
2.457675942E0,-3.044008911E-1,1.838820428E-1,5.262151957E-1
2.459675708E0,-2.610294521E-1,1.887689680E-1,6.288405657E-1
2.461675474E0,-2.262101173E-1,2.101492435E-1,7.412397265E-1
2.463675240E0,-2.072733045E-1,2.248100191E-1,8.017154336E-1
2.465675006E0,-1.938342601E-1,2.461903095E-1,8.615801930E-1
2.467674806E0,-1.669561863E-1,2.785661519E-1,9.849749804E-1
2.469674539E0,-1.480193585E-1,3.152180910E-1,1.113256693E0
2.471674272E0,-1.351911873E-1,3.341549039E-1,1.178619266E0
2.473674005E0,-1.138109118E-1,3.787480593E-1,1.308122635E0
2.475673738E0,-9.731755406E-2,4.245629609E-1,1.436404467E0
2.477673471E0,-8.876544237E-2,4.569388032E-1,1.493214846E0
2.479673204E0,-7.593727112E-2,5.155818462E-1,1.573238254E0
2.481672937E0,-5.761131272E-2,5.717815161E-1,1.607446671E0
2.483673603E0,-3.806362674E-2,5.876640081E-1,1.617220640E0
2.485673336E0,4.208861501E-4,6.090442538E-1,1.634935617E0
2.487673069E0,2.302289940E-2,6.053791046E-1,1.644709468E0
2.489672502E0,8.899634331E-2,6.066007614E-1,1.658148527E0
2.491672235E0,1.659653634E-1,5.748358369E-1,1.699687362E0
2.493671968E0,2.087259442E-1,5.467360020E-1,1.725954533E0
2.495671701E0,3.015774488E-1,4.667126536E-1,1.785208464E0
2.497671501E0,3.614422679E-1,4.160108268E-1,1.809032202E0
2.499671301E0,4.762849212E-1,3.274353743E-1,1.868286133E0
2.501671034E0,6.589335799E-1,2.089275271E-1,1.944033504E0
2.503670767E0,6.589335799E-1,2.089275271E-1,1.944033504E0
2.505670500E0,7.957674265E-1,8.431101590E-2,1.965413690E0
2.507670233E0,9.154970050E-1,3.910698369E-2,1.990459204E0
2.509669966E0,9.839139581E-1,1.406150684E-2,2.010617733E0
2.511669699E0,1.101200104E0,-9.589423239E-2,2.044215441E0
2.513669499E0,1.206268907E0,-2.168455571E-1,2.068650007E0
2.515668799E0,1.272242308E0,-2.736560404E-1,2.079034567E0
2.517668532E0,1.360817790E0,-3.811683059E-1,2.105912924E0
2.519668265E0,1.420071602E0,-4.282049239E-1,2.124849558E0
2.521667998E0,1.550796866E0,-5.778669715E-1,2.185935974E0
2.523667731E0,1.583783627E0,-6.194057465E-1,2.199374914E0
2.525667464E0,1.632042050E0,-6.536142230E-1,2.220144510E0
2.527667197E0,1.684576392E0,-7.147007585E-1,2.229307652E0
2.529666997E0,1.721839070E0,-7.599048018E-1,2.227474928E0
2.531666730E0,1.753604174E0,-7.843393683E-1,2.220755339E0
2.533666463E0,1.773151875E0,-8.423715830E-1,2.193877459E0
2.535666196E0,1.783536553E0,-8.649735451E-1,2.171275377E0
2.537665929E0,1.818355799E0,-8.661953211E-1,2.096749783E0
2.539665662E0,1.854396820E0,-8.643627167E-1,1.985572219E0
2.541665395E0,1.883718371E0,-8.246564865E-1,1.848738432E0
2.543665128E0,1.887994528E0,-7.941132188E-1,1.751000047E0
2.545664928E0,1.884329319E0,-7.354701757E-1,1.634935617E0
2.547664661E0,1.880053282E0,-7.287505865E-1,1.611111879E0
2.549664694E0,1.858672976E0,-6.505599022E-1,1.604392290E0
2.551664427E0,1.844012260E0,-5.418258905E-1,1.622718215E0
2.553664160E0,1.835460067E0,-4.483634830E-1,1.644709468E0
2.555663893E0,1.795753837E0,-2.620495856E-1,1.771158576E0
2.557663626E0,1.760934591E0,-2.125695050E-1,1.837132096E0
2.559663492E0,1.673580766E0,-1.484286487E-1,1.867064476E0
2.561663292E0,1.487266898E0,-1.227723062E-1,1.705796003E0
2.563663025E0,1.487266898E0,-1.227723062E-1,1.705796003E0
2.565662758E0,1.350433111E0,-1.606459469E-1,1.549414515E0
2.567662491E0,1.229481816E0,-1.447634548E-1,1.440680385E0
2.569662224E0,1.187332034E0,-1.557590365E-1,1.386313438E0
2.571661957E0,1.090204477E0,-1.533155739E-1,1.312398791E0
2.573661690E0,1.047443986E0,-1.307135671E-1,1.274525166E0
2.575661490E0,9.417642355E-1,-8.184433728E-2,1.214660287E0
2.577661290E0,8.373062611E-1,-4.091636837E-2,1.150519490E0
2.579661023E0,7.841610312E-1,-3.419684619E-2,1.137080431E0
2.581660756E0,6.216708422E-1,3.605265543E-2,1.110202432E0
2.583660489E0,5.691364408E-1,3.727438673E-2,1.094319820E0
2.585660222E0,5.318736434E-1,2.872227319E-2,1.083935142E0
2.587659955E0,4.512394369E-1,2.078102529E-2,1.071107030E0
2.589659688E0,4.176418483E-1,-4.264450166E-3,1.068052769E0
2.591659488E0,3.443379998E-1,-1.820989302E-3,1.057057142E0
2.593659221E0,2.630929649E-1,1.233336981E-3,1.038731217E0
2.595658954E0,2.270518988E-1,-6.707911380E-3,1.030179024E0
2.597658687E0,1.360329688E-1,-2.564473264E-2,1.023459554E0
2.599658420E0,5.417702720E-2,-3.969463333E-2,1.010020494E0
2.601658120E0,-6.005477160E-2,-5.435540155E-2,9.727576971E-1
2.603656920E0,-6.005477160E-2,-5.435540155E-2,9.727576971E-1
2.605656653E0,-1.345803440E-1,-5.496626720E-2,9.593186378E-1
2.607656453E0,-1.700105071E-1,-5.496626720E-2,9.574860930E-1
2.609656186E0,-2.524773180E-1,-8.062260598E-2,9.574860930E-1
2.611655919E0,-2.824097276E-1,-1.026137546E-1,9.556534290E-1
2.613655652E0,-3.557135761E-1,-1.301026940E-1,9.733685851E-1
2.615655385E0,-4.247413278E-1,-1.649220139E-1,9.971923232E-1
2.617655118E0,-4.540628791E-1,-1.832479686E-1,1.013685703E0
2.619654718E0,-5.114842057E-1,-2.278411239E-1,1.036898613E0
2.621654451E0,-5.939509869E-1,-3.103079498E-1,1.049115896E0
2.623654251E0,-5.939509869E-1,-3.103079498E-1,1.049115896E0
2.625653984E0,-6.361007094E-1,-3.494033217E-1,1.036287665E0
2.627653717E0,-6.593136191E-1,-3.726161718E-1,1.032011628E0
2.629653450E0,-6.941328645E-1,-4.251506031E-1,1.022848606E0
2.631653183E0,-7.191783190E-1,-4.746306837E-1,1.015518308E0
2.633652916E0,-7.283413410E-1,-4.990653098E-1,1.005133510E0
2.635652649E0,-7.466673255E-1,-5.149478316E-1,9.898619652E-1
2.637652382E0,-7.478890419E-1,-5.369389653E-1,9.709250927E-1
2.639652182E0,-7.509433627E-1,-5.467127562E-1,9.605404139E-1
2.641651915E0,-7.515542507E-1,-5.467127562E-1,9.165580869E-1
2.643650715E0,-7.509433627E-1,-5.479345322E-1,9.055625200E-1
2.645650448E0,-7.478890419E-1,-5.589300990E-1,8.854039907E-1
2.647650181E0,-7.393369079E-1,-5.803103447E-1,8.463085890E-1
2.649649914E0,-7.350608706E-1,-5.876407623E-1,8.139327168E-1
2.651649647E0,-7.185674906E-1,-5.821429491E-1,7.552896738E-1
2.653649447E0,-6.965763569E-1,-5.913059711E-1,6.905379891E-1
2.655649247E0,-6.941328645E-1,-5.906950831E-1,6.599946618E-1
2.657648980E0,-6.690874100E-1,-6.132971048E-1,5.860800147E-1
2.659648713E0,-6.397658587E-1,-6.249035597E-1,5.072783828E-1
2.661648413E0,-6.299920678E-1,-6.096318960E-1,4.742916524E-1
2.663649079E0,-6.080009341E-1,-5.412150025E-1,4.272550344E-1
2.665648812E0,-5.970053077E-1,-5.125043392E-1,4.040421546E-1
2.667648745E0,-5.597425699E-1,-4.789067507E-1,3.466208279E-1
2.669648545E0,-5.139276981E-1,-4.446983039E-1,2.885886133E-1
2.671648345E0,-5.053755641E-1,-4.263723493E-1,2.476606667E-1
2.673648078E0,-4.815517962E-1,-4.086572528E-1,1.596960574E-1
2.675647811E0,-4.589497745E-1,-4.446983039E-1,4.424252734E-2
2.677647544E0,-4.552845657E-1,-4.630242586E-1,-2.417438105E-2
2.679647277E0,-4.406238198E-1,-5.247216225E-1,-1.591756046E-1
2.681647010E0,-4.357368946E-1,-6.059667468E-1,-4.041325748E-1
2.683646743E0,-4.357368946E-1,-6.059667468E-1,-4.041325748E-1
2.685646109E0,-4.094696939E-1,-7.043160200E-1,-5.489076376E-1
2.687645842E0,-3.899219930E-1,-7.544069886E-1,-6.234331727E-1
2.689645575E0,-3.422745168E-1,-8.154934645E-1,-7.358323932E-1
2.691645308E0,-3.007356822E-1,-8.362629414E-1,-8.354034424E-1
2.693645041E0,-2.799662352E-1,-8.570323586E-1,-8.830509186E-1
2.695644774E0,-2.310970426E-1,-9.107884765E-1,-9.636850953E-1
2.697644507E0,-1.840604246E-1,-9.504947066E-1,-1.013165236E0
2.699644240E0,-1.559606194E-1,-9.559925199E-1,-1.024771571E0
2.701644040E0,-8.265678585E-2,-9.425534606E-1,-1.025993466E0
2.703644706E0,-8.265678585E-2,-9.425534606E-1,-1.025993466E0
2.705644439E0,-3.134410828E-2,-8.887972832E-1,-9.960609674E-1
2.707644172E0,-1.899790950E-4,-8.197695017E-1,-9.838436842E-1
2.709643905E0,2.668809146E-2,-7.922806144E-1,-9.752915502E-1
2.711643638E0,6.395087391E-2,-7.366918921E-1,-9.691829085E-1
2.713643371E0,9.510499239E-2,-7.116464376E-1,-9.520787001E-1
2.715643104E0,1.189287379E-1,-6.817139983E-1,-9.465808868E-1
2.717642904E0,1.506937444E-1,-5.998581052E-1,-9.471917748E-1
2.719642637E0,1.659653634E-1,-5.650387406E-1,-9.447482824E-1
2.721642437E0,2.007846832E-1,-4.416439533E-1,-9.624633789E-1
2.723641770E0,2.050607502E-1,-4.062137902E-1,-9.636850953E-1
2.725641503E0,2.191106379E-1,-3.726161718E-1,-9.587982297E-1
2.727641036E0,2.307170928E-1,-2.877059281E-1,-9.594090581E-1
2.729640769E0,2.374365926E-1,-2.064608485E-1,-9.526895881E-1
2.731640502E0,2.453778535E-1,-1.588133574E-1,-9.465808868E-1
2.733640302E0,2.472104430E-1,-3.664030880E-2,-9.459700584E-1
2.735640035E0,2.441561073E-1,6.965024769E-2,-9.410831332E-1
2.737639768E0,2.478213012E-1,1.313476413E-1,-9.410831332E-1
2.739639501E0,2.398800701E-1,2.241991609E-1,-9.490243793E-1
2.741639234E0,2.398800701E-1,3.390417993E-1,-9.716264009E-1
2.743638967E0,2.398800701E-1,3.390417993E-1,-9.716264009E-1
2.745639133E0,2.435452640E-1,4.074587226E-1,-9.850654006E-1
2.747638933E0,2.520973682E-1,4.392237365E-1,-9.942284226E-1
2.749638733E0,2.551516891E-1,5.106949210E-1,-1.025382519E0
2.751638466E0,2.698124647E-1,5.772792101E-1,-1.065088749E0
2.753638199E0,2.820297480E-1,6.108768582E-1,-1.090134263E0
2.755637932E0,3.040209115E-1,6.609677672E-1,-1.151831627E0
2.757637665E0,3.205142915E-1,6.829589009E-1,-1.179320574E0
2.759637398E0,3.449488878E-1,7.141131163E-1,-1.238574505E0
2.761637131E0,3.828225434E-1,7.183891535E-1,-1.319819570E0
2.763636931E0,3.828225434E-1,7.183891535E-1,-1.319819570E0
2.765636664E0,4.042028189E-1,6.988414526E-1,-1.376019120E0
2.767636397E0,4.213070273E-1,6.841806769E-1,-1.427942753E0
2.769636130E0,4.188635945E-1,6.841806769E-1,-1.449322939E0
2.771635430E0,4.280265570E-1,6.982305646E-1,-1.490250945E0
2.773635163E0,4.304700196E-1,7.067826986E-1,-1.504911780E0
2.775634896E0,4.390221238E-1,6.963980198E-1,-1.529346347E0
2.777634629E0,4.506285787E-1,7.092261314E-1,-1.544007063E0
2.779634429E0,4.512394369E-1,7.257195711E-1,-1.547672391E0
2.781634162E0,4.872804880E-1,7.122804523E-1,-1.576993823E0
2.783634662E0,4.933891296E-1,7.354933619E-1,-1.591654539E0
2.785634395E0,4.897239506E-1,7.623714805E-1,-1.611813068E0
2.787634128E0,4.897239506E-1,8.020777106E-1,-1.649686813E0
2.789633861E0,4.701762795E-1,8.277339935E-1,-1.682673454E0
2.791633594E0,4.408547282E-1,8.405622244E-1,-1.701610327E0
2.793633327E0,3.864877224E-1,8.497251868E-1,-1.717492819E0
2.795633127E0,3.528901339E-1,8.423947692E-1,-1.718103766E0
2.797632860E0,2.801971734E-1,8.234579563E-1,-1.685727954E0
2.799632593E0,2.130019963E-1,8.081863523E-1,-1.623419523E0
2.801632326E0,1.012136564E-1,8.350644112E-1,-1.476811886E0
2.803632059E0,1.012136564E-1,8.350644112E-1,-1.476811886E0
2.805631792E0,4.318145290E-2,8.405622244E-1,-1.367467046E0
2.807631525E0,6.529538427E-3,8.155167103E-1,-1.316154361E0
2.809631258E0,-5.089179426E-2,7.061718106E-1,-1.224524498E0
2.811631058E0,-7.654813677E-2,6.499722004E-1,-1.182985663E0
2.813630824E0,-1.443541646E-1,5.558989644E-1,-1.117623210E0
2.815630590E0,-2.170471400E-1,4.520518780E-1,-1.071808219E0
2.817630356E0,-2.482012659E-1,3.909653723E-1,-1.052260637E0
2.819630122E0,-3.117312491E-1,2.828422189E-1,-1.020495653E0
2.821629855E0,-4.015284479E-1,1.093564853E-1,-9.832327962E-1
2.823630088E0,-4.015284479E-1,1.093564853E-1,-9.832327962E-1
2.825629921E0,-4.448998570E-1,-4.580328614E-2,-9.728480577E-1
2.827629754E0,-4.626149535E-1,-2.027956545E-1,-9.710155129E-1
2.829629520E0,-4.827735424E-1,-2.925928235E-1,-9.783458710E-1
2.831629720E0,-4.571171999E-1,-5.259433389E-1,-9.966718554E-1
2.833629486E0,-4.332934320E-1,-7.195876241E-1,-9.746807218E-1
2.835629252E0,-4.491759241E-1,-8.081631064E-1,-8.708336353E-1
2.837629018E0,-4.430672824E-1,-9.016255140E-1,-7.339997888E-1
2.839628784E0,-4.467324913E-1,-8.649735451E-1,-6.637502909E-1
2.841628617E0,-4.448998570E-1,-7.770089507E-1,-4.102412164E-1
2.843628017E0,-4.503976703E-1,-7.446331382E-1,-3.277744055E-1
2.845627783E0,-4.687236249E-1,-7.024834156E-1,-2.508053780E-1
2.847627549E0,-4.949908257E-1,-6.694967151E-1,-9.381301701E-2
2.849627315E0,-5.200363398E-1,-6.481164098E-1,-2.112005465E-2
2.851627081E0,-5.762358904E-1,-6.242926717E-1,1.059399173E-1
2.853626847E0,-6.452636719E-1,-6.169622540E-1,2.134521902E-1
2.855626613E0,-6.947437525E-1,-6.108536124E-1,2.635431588E-1
2.857626446E0,-7.979799509E-1,-6.401751637E-1,3.594489992E-1
2.859626212E0,-9.097682834E-1,-6.982073784E-1,4.486353099E-1
2.861625978E0,-1.094249606E0,-8.319869041E-1,5.139979124E-1
2.863625778E0,-1.094249606E0,-8.319869041E-1,5.139979124E-1
2.865625544E0,-1.153503537E0,-8.906299472E-1,5.231608748E-1
2.867625310E0,-1.256739736E0,-1.013413787E0,5.194956660E-1
2.869624643E0,-1.333708882E0,-1.138641238E0,4.810111821E-1
2.871624409E0,-1.378912807E0,-1.190564752E0,4.498570561E-1
2.873624209E0,-1.425949454E0,-1.276696801E0,3.728880286E-1
2.875623942E0,-1.458325267E0,-1.328620315E0,2.849234343E-1
2.877623675E0,-1.471153498E0,-1.344502807E0,2.299455553E-1
2.879623241E0,-1.465044856E0,-1.320679069E0,1.438135654E-1
2.881623007E0,-1.423506021E0,-1.175903916E0,3.314554924E-3
2.883621573E0,-1.423506021E0,-1.175903916E0,3.314554924E-3
2.885621306E0,-1.355089068E0,-9.743185043E-1,-1.041977331E-1
2.887621039E0,-1.321491480E0,-8.380955458E-1,-1.713929027E-1
2.889620839E0,-1.197485805E0,-4.825719297E-1,-3.289961219E-1
2.891620572E0,-1.040493488E0,-8.856385201E-2,-5.214186907E-1
2.893620305E0,-9.537506104E-1,1.136325449E-1,-6.411482692E-1
2.895619138E0,-7.564411759E-1,4.929798543E-1,-9.099290371E-1
2.897618871E0,-5.554664731E-1,8.222361803E-1,-1.227578878E0
2.899618604E0,-4.729996622E-1,9.609026313E-1,-1.398010373E0
2.901618270E0,-3.117312491E-1,1.159433842E0,-1.744981766E0
2.903618070E0,-2.555316389E-1,1.232737660E0,-1.913580537E0
2.905617870E0,-1.687887907E-1,1.302376390E0,-2.235506535E0
2.907617603E0,-1.235847548E-1,1.320091486E0,-2.503065348E0
2.909617336E0,-1.040370688E-1,1.312150121E0,-2.616075754E0
2.911617069E0,-7.899159193E-2,1.309095860E0,-2.799946070E0
2.913616802E0,-5.822217464E-2,1.312760949E0,-2.927006006E0
2.915616535E0,-4.172881693E-2,1.312760949E0,-2.967323303E0
2.917616268E0,5.918673705E-3,1.312150121E0,-3.004585981E0
2.919616068E0,5.112269893E-2,1.295656681E0,-3.009472847E0
2.921615868E0,1.061005741E-1,1.272444010E0,-2.982594728E0
2.923615568E0,1.311460435E-1,1.248009324E0,-2.963047028E0
2.925615301E0,1.531371921E-1,1.229072452E0,-2.938612461E0
2.927615034E0,2.026172727E-1,1.168596745E0,-2.854923725E0
2.929615200E0,2.313279361E-1,1.114229918E0,-2.749244213E0
2.931614933E0,2.386583239E-1,1.070247531E0,-2.678994656E0
2.933614666E0,2.826406360E-1,9.761742353E-1,-2.497567892E0
2.935614466E0,3.254011869E-1,8.625533581E-1,-2.283764839E0
2.937614199E0,3.583879173E-1,8.032993674E-1,-2.156094074E0
2.939614099E0,4.158092737E-1,7.049500942E-1,-1.889756799E0
2.941613832E0,4.781174958E-1,6.218724251E-1,-1.630139112E0
2.943614232E0,5.129368305E-1,5.864422321E-1,-1.514685512E0
2.945613965E0,5.776885152E-1,5.314643383E-1,-1.310656667E0
2.947613698E0,6.039557457E-1,5.186361670E-1,-1.222692013E0
2.949613431E0,6.412184834E-1,4.856494665E-1,-1.100518942E0
2.951613231E0,6.821464896E-1,4.496084154E-1,-1.050428033E0
2.953612964E0,6.986398101E-1,4.404454231E-1,-1.036378026E0
2.955613597E0,7.084137201E-1,4.447214901E-1,-1.040043354E0
2.957613330E0,7.163549662E-1,4.404454231E-1,-1.049817085E0
2.959613063E0,7.163549662E-1,4.795408249E-1,-1.089523315E0
2.961612863E0,7.212418914E-1,4.880929291E-1,-1.156718493E0
2.963612896E0,7.212418914E-1,4.880929291E-1,-1.156718493E0
2.965612629E0,7.511742711E-1,4.270064235E-1,-1.214139938E0
2.967612429E0,8.183694482E-1,3.323222995E-1,-1.274615526E0
2.969612162E0,8.525778651E-1,2.895617485E-1,-1.295385003E0
2.971611895E0,9.185513258E-1,2.229774147E-1,-1.326539040E0
2.973611628E0,9.741400480E-1,1.576148421E-1,-1.325317383E0
2.975611361E0,1.011402845E0,1.179085970E-1,-1.332036853E0
2.977611094E0,1.056606889E0,4.704822972E-2,-1.330815196E0
2.979610827E0,1.092647910E0,-2.564473264E-2,-1.335091233E0
2.981610560E0,1.224594831E0,-1.966869980E-1,-1.360136747E0
2.983610426E0,1.224594831E0,-1.966869980E-1,-1.360136747E0
2.985610159E0,1.246585965E0,-2.150129527E-1,-1.354028106E0
2.987609892E0,1.282016158E0,-2.657147944E-1,-1.333869457E0
2.989609625E0,1.304618120E0,-3.011449575E-1,-1.289887190E0
2.991609358E0,1.310115933E0,-3.194709122E-1,-1.258733034E0
2.993609091E0,1.308894277E0,-3.390186131E-1,-1.187261820E0
2.995608824E0,1.302785635E0,-3.365751207E-1,-1.154886007E0
2.997608624E0,1.282627106E0,-3.359642625E-1,-1.092577696E0
2.999608624E0,1.252083778E0,-3.310773671E-1,-1.020495653E0
3.001608290E0,1.228870869E0,-3.127514124E-1,-9.856762886E-1
3.003608056E0,1.175725579E0,-2.541083395E-1,-9.129833579E-1
3.005607789E0,1.117082477E0,-1.838588268E-1,-8.378468752E-1
3.007606589E0,1.077987194E0,-1.398765445E-1,-8.048601747E-1
3.009606322E0,1.005294204E0,-1.770348474E-2,-7.504931688E-1
3.011606055E0,9.264926314E-1,9.469571710E-2,-6.900175214E-1
3.013605855E0,8.861754537E-1,1.612800360E-1,-6.594742537E-1
3.015605588E0,7.939348221E-1,2.865074277E-1,-5.849486589E-1
3.017605321E0,7.426221371E-1,3.475939333E-1,-5.489076376E-1
3.019605054E0,6.375533342E-1,4.789299667E-1,-4.652190804E-1
3.021604787E0,4.775066674E-1,6.744068861E-1,-3.424351811E-1
3.023604220E0,4.775066674E-1,6.744068861E-1,-3.424351811E-1
3.025603953E0,3.730486631E-1,7.910820842E-1,-2.569140196E-1
3.027603686E0,2.618712187E-1,9.199746847E-1,-1.713929027E-1
3.029603486E0,2.038390189E-1,9.718981981E-1,-1.280214638E-1
3.031603219E0,8.472029120E-2,1.128279686E0,-3.394822776E-2
3.033602952E0,2.241203561E-2,1.200972676E0,1.125580352E-2
3.035602685E0,-9.915014356E-2,1.335363030E0,1.059399173E-1
3.037602418E0,-2.164362818E-1,1.431879759E0,1.969588250E-1
3.039602151E0,-2.653054893E-1,1.480138063E0,2.409411371E-1
3.041601884E0,-4.131348729E-1,1.624913216E0,3.967117667E-1
3.043601617E0,-4.571171999E-1,1.682334423E0,4.590200186E-1
3.045601417E0,-4.980451763E-1,1.737923265E0,5.188848376E-1
3.047601183E0,-5.762358904E-1,1.839937687E0,6.135689020E-1
3.049600949E0,-6.165530682E-1,1.867426634E0,6.465556622E-1
3.051600715E0,-6.715309024E-1,1.901635170E0,6.948140264E-1
3.053600481E0,-7.118479609E-1,1.908965468E0,7.204703093E-1
3.055600247E0,-7.179566622E-1,1.904689431E0,7.296332717E-1
3.057600013E0,-7.130696774E-1,1.850933313E0,7.485701442E-1
3.059599579E0,-6.800830364E-1,1.751362324E0,7.809459567E-1
3.061599479E0,-6.141095757E-1,1.623691440E0,8.444759846E-1
3.063599545E0,-5.682947040E-1,1.551609397E0,8.799061775E-1
3.065599411E0,-4.668910205E-1,1.422716856E0,9.635947347E-1
3.067600211E0,-4.045827687E-1,1.356743336E0,1.011242151E0
3.069600077E0,-2.854640484E-1,1.232126832E0,1.113867521E0
3.071599943E0,-2.207123190E-1,1.172261953E0,1.160293341E0
3.073599809E0,-9.304149449E-2,1.048867226E0,1.264140368E0
3.075599742E0,2.302289940E-2,8.894314170E-1,1.372874379E0
3.077599675E0,7.983336598E-2,8.118515015E-1,1.424798012E0
3.079599608E0,1.794044077E-1,6.273702383E-1,1.542084098E0
3.081599541E0,2.545408309E-1,3.207158446E-1,1.727176309E0
3.083599274E0,2.545408309E-1,3.207158446E-1,1.727176309E0
3.085599207E0,3.089078367E-1,1.704430133E-1,1.813919187E0
3.087599140E0,3.339533210E-1,8.125668019E-2,1.840797186E0
3.089599073E0,4.084788859E-1,-4.946848005E-2,1.888444662E0
3.091598639E0,5.043846965E-1,-1.557590365E-1,1.972133279E0
3.094152102E0,5.483670235E-1,-2.021847814E-1,2.028332949E0
3.096152068E0,6.118969917E-1,-3.274121583E-1,2.138899326E0
3.098152034E0,6.509923935E-1,-4.819610715E-1,2.251298666E0
3.100152000E0,6.589335799E-1,-5.632061958E-1,2.313606977E0
3.102151900E0,6.650422812E-1,-7.599048018E-1,2.455938578E0
3.104152733E0,6.436619759E-1,-9.425534606E-1,2.623315573E0
3.106152699E0,6.326664686E-1,-1.020133376E0,2.705782413E0
3.108152699E0,5.966253877E-1,-1.161243200E0,2.859720469E0
3.110152665E0,5.740233660E-1,-1.238823175E0,2.924472094E0
3.112152631E0,4.878913462E-1,-1.350611448E0,3.035038710E0
3.114152597E0,4.329134822E-1,-1.449571609E0,3.099790573E0
3.116152563E0,3.925963640E-1,-1.475838900E0,3.129722834E0
3.118152529E0,3.406728208E-1,-1.527151465E0,3.154768229E0
3.120152495E0,2.911927402E-1,-1.561970830E0,3.163931370E0
3.122152428E0,2.716450393E-1,-1.558916450E0,3.174316168E0
3.124152161E0,2.753102481E-1,-1.534481883E0,3.171872616E0
3.126152094E0,2.948579490E-1,-1.498440742E0,3.178591967E0
3.128152027E0,3.449488878E-1,-1.350611448E0,3.143772602E0
3.130151960E0,3.858768642E-1,-1.196062446E0,3.066803694E0
3.132151893E0,4.158092737E-1,-1.122758627E0,3.016712904E0
3.134151826E0,4.542937577E-1,-1.026242018E0,2.900037527E0
3.136151759E0,4.640676081E-1,-8.967385888E-1,2.757094860E0
3.138151692E0,4.695653915E-1,-8.637518287E-1,2.675850153E0
3.140151625E0,4.536828995E-1,-7.776198983E-1,2.496866465E0
3.142151491E0,4.432981908E-1,-7.104246616E-1,2.232972622E0
3.144150624E0,4.432981908E-1,-7.104246616E-1,2.232972622E0
3.146150490E0,4.396329820E-1,-6.835466027E-1,2.096138954E0
3.148150356E0,4.378004074E-1,-6.542251110E-1,2.038717508E0
3.150150222E0,4.353569448E-1,-6.255143881E-1,1.927540064E0
3.152150522E0,4.121440649E-1,-5.827538371E-1,1.801701784E0
3.154150422E0,4.109223187E-1,-5.625952482E-1,1.720456839E0
3.156150322E0,3.919855058E-1,-5.283868313E-1,1.571405649E0
3.158150155E0,3.742704093E-1,-4.966218174E-1,1.432128429E0
3.160149988E0,3.583879173E-1,-4.764632881E-1,1.384480834E0
3.162149888E0,2.704233229E-1,-3.927747607E-1,1.237873197E0
3.164148788E0,2.704233229E-1,-3.927747607E-1,1.237873197E0
3.166148621E0,2.038390189E-1,-3.487924635E-1,1.146243453E0
3.168148454E0,1.262591183E-1,-3.206926584E-1,1.082713485E0
3.170148320E0,9.327240288E-2,-3.145839870E-1,1.050948501E0
3.172148186E0,2.424463071E-2,-2.822081447E-1,1.014296532E0
3.174147986E0,-3.012237512E-2,-2.657147944E-1,9.788663387E-1
3.176147786E0,-6.371996552E-2,-2.492214143E-1,9.684816003E-1
3.178147586E0,-1.046479344E-1,-2.260085344E-1,9.391601086E-1
3.180147386E0,-1.333585978E-1,-2.070717216E-1,9.318296909E-1
3.182147219E0,-1.816169620E-1,-1.759175807E-1,8.933452368E-1
3.184147019E0,-1.932234019E-1,-1.661437452E-1,8.780736327E-1
3.186146819E0,-1.974994540E-1,-1.740849912E-1,8.603585362E-1
3.188146552E0,-2.207123190E-1,-1.637002826E-1,8.450868726E-1
3.190146285E0,-2.475904077E-1,-1.527047157E-1,8.261500001E-1
3.192146018E0,-2.561425269E-1,-1.410982609E-1,8.249282837E-1
3.194145751E0,-2.769119143E-1,-1.722524017E-1,8.139327168E-1
3.196145484E0,-2.891292274E-1,-2.046282440E-1,8.108783960E-1
3.198145217E0,-2.976813614E-1,-2.296737283E-1,8.121001720E-1
3.200145483E0,-3.111203909E-1,-2.895385027E-1,7.998828292E-1
3.202145283E0,-3.196725249E-1,-3.585662842E-1,7.882763743E-1
3.204145949E0,-3.221159577E-1,-4.007160068E-1,7.772808075E-1
3.206145682E0,-3.239485621E-1,-4.734089673E-1,7.534570694E-1
3.208145415E0,-3.221159577E-1,-5.155586600E-1,7.381854057E-1
3.210144948E0,-3.215050995E-1,-6.169622540E-1,7.015334964E-1
3.212144681E0,-3.300572336E-1,-7.275289297E-1,6.581621170E-1
3.214144414E0,-3.343332708E-1,-7.867828608E-1,6.361709833E-1
3.216144147E0,-3.459396958E-1,-9.120101929E-1,5.793604851E-1
3.218143947E0,-3.483831882E-1,-9.669880867E-1,5.518715382E-1
3.220143680E0,-3.606004715E-1,-1.091604590E0,4.804002941E-1
3.222143413E0,-3.569352627E-1,-1.247375250E0,3.588381410E-1
3.224143146E0,-3.569352627E-1,-1.247375250E0,3.588381410E-1
3.226142879E0,-3.557135761E-1,-1.348778844E0,2.476606667E-1
3.228142612E0,-3.483831882E-1,-1.426969647E0,1.340397149E-1
3.230142345E0,-3.453288674E-1,-1.442241192E0,8.333789557E-2
3.232142078E0,-3.325006664E-1,-1.439186931E0,-1.623313315E-2
3.234141878E0,-3.202833533E-1,-1.403756738E0,-6.632408500E-2
3.236141611E0,-2.976813614E-1,-1.311516166E0,-1.762798280E-1
3.238141344E0,-2.659163475E-1,-1.197284341E0,-2.795160413E-1
3.240141077E0,-2.402600199E-1,-1.123980522E0,-3.296069801E-1
3.242140810E0,-1.333585978E-1,-8.148826361E-1,-5.159208775E-1
3.244140543E0,-8.876544237E-2,-7.379136086E-1,-6.014420390E-1
3.246140276E0,-4.295054451E-2,-6.578902602E-1,-6.912392378E-1
3.248140076E0,4.134885967E-2,-4.905131757E-1,-9.013769031E-1
3.250139876E0,9.082894027E-2,-3.811683059E-1,-1.133505583E0
3.252139609E0,7.616817206E-2,-3.701727390E-1,-1.242850542E0
3.254139342E0,4.134885967E-2,-4.569155872E-1,-1.453598976E0
3.256139075E0,1.202732604E-2,-4.972327054E-1,-1.560500503E0
3.258138375E0,-1.362901367E-2,-5.821429491E-1,-1.764529467E0
3.260137575E0,-1.485074498E-2,-6.585010886E-1,-1.925797820E0
3.262137308E0,5.478789285E-2,-8.124391437E-1,-2.095007658E0
3.264136908E0,5.478789285E-2,-8.124391437E-1,-2.095007658E0
3.266136641E0,1.250374019E-1,-8.515345454E-1,-2.168922424E0
3.268136374E0,1.384764314E-1,-9.132319093E-1,-2.217180729E0
3.270136307E0,1.763500869E-1,-1.027463794E0,-2.316140890E0
3.272136040E0,1.891782582E-1,-1.089161158E0,-2.373562098E0
3.274135773E0,2.349931300E-1,-1.151469350E0,-2.504898310E0
3.276135506E0,2.685907185E-1,-1.185677886E0,-2.626460314E0
3.278135239E0,2.722559273E-1,-1.191786528E0,-2.686936140E0
3.280135039E0,2.826406360E-1,-1.150858521E0,-2.790782928E0
3.282134705E0,2.820297480E-1,-1.036015868E0,-2.926395178E0
3.284135371E0,2.679798603E-1,-9.804271460E-1,-3.014359951E0
3.286135104E0,2.533190846E-1,-8.796343207E-1,-3.143252373E0
3.288134837E0,2.331605405E-1,-7.250854373E-1,-3.254429579E0
3.290134570E0,2.227758318E-1,-6.255143881E-1,-3.299633741E0
3.292134303E0,2.404909283E-1,-5.063956976E-1,-3.285583973E0
3.294134036E0,2.704233229E-1,-4.593590796E-1,-3.255651712E0
3.296133836E0,3.370076418E-1,-3.811683059E-1,-3.138976336E0
3.298133569E0,4.103114605E-1,-3.518467844E-1,-2.975264311E0
3.300133302E0,4.475742579E-1,-3.494033217E-1,-2.866530180E0
3.302133035E0,5.392040610E-1,-3.585662842E-1,-2.532387018E0
3.304132901E0,5.501995683E-1,-3.658966720E-1,-2.422431469E0
3.306132634E0,5.599734783E-1,-3.701727390E-1,-2.323471308E0
3.308132367E0,5.544756651E-1,-4.104898274E-1,-2.146931171E0
3.310132100E0,5.459235311E-1,-4.159876406E-1,-2.066296816E0
3.312131900E0,5.288193226E-1,-4.129332900E-1,-1.923354387E0
3.314131633E0,5.178237557E-1,-3.665075302E-1,-1.723601460E0
3.316131366E0,5.251541138E-1,-3.225252330E-1,-1.605093598E0
3.318131532E0,5.501995683E-1,-1.826370955E-1,-1.365634441E0
3.320131265E0,5.819646120E-1,-2.930992469E-2,-1.151831627E0
3.322130998E0,6.265577674E-1,1.765516698E-1,-8.610597253E-1
3.324129998E0,6.265577674E-1,1.765516698E-1,-8.610597253E-1
3.326129798E0,6.454945803E-1,2.480228990E-1,-7.749277949E-1
3.328129598E0,6.613770723E-1,3.854675889E-1,-6.093832850E-1
3.330129331E0,6.583227515E-1,5.290209055E-1,-4.407844841E-1
3.332129064E0,6.625987887E-1,5.791118741E-1,-3.528198898E-1
3.334128797E0,6.393859386E-1,6.927328110E-1,-1.744472384E-1
3.336128530E0,5.984579325E-1,7.996342182E-1,1.919705234E-2
3.338128263E0,5.770776868E-1,8.662185073E-1,1.267093420E-1
3.340127996E0,5.123260021E-1,9.792285562E-1,3.044711351E-1
3.342127862E0,4.090897143E-1,1.137442708E0,5.414867997E-1
3.344126728E0,4.090897143E-1,1.137442708E0,5.414867997E-1
3.346126461E0,3.406728208E-1,1.233348489E0,6.459447742E-1
3.348126194E0,3.034100235E-1,1.259615779E0,6.984791756E-1
3.350125927E0,2.294953465E-1,1.302376390E0,7.687286735E-1
3.352125660E0,1.665762365E-1,1.339639068E0,8.200413585E-1
3.354125393E0,1.439742148E-1,1.356132388E0,8.347021341E-1
3.356125126E0,7.250298560E-2,1.375069261E0,8.737975359E-1
3.358124926E0,2.180116996E-2,1.384843111E0,9.049516320E-1
3.360124659E0,-9.352957830E-3,1.375680208E0,9.330514669E-1
3.362124392E0,-9.243063629E-2,1.347580314E0,1.007577062E0
3.364123992E0,-9.243063629E-2,1.347580314E0,1.007577062E0
3.366123725E0,-1.376346648E-1,1.309706688E0,1.055835366E0
3.368123458E0,-1.693996638E-1,1.262670040E0,1.130971789E0
3.370123191E0,-1.736757010E-1,1.233348489E0,1.171899796E0
3.372122924E0,-1.950560063E-1,1.227850676E0,1.269638181E0
3.374122724E0,-2.139928192E-1,1.251063585E0,1.381426573E0
3.376122457E0,-2.280427068E-1,1.272444010E0,1.436404467E0
3.378122190E0,-2.567533851E-1,1.306652308E0,1.553079724E0
3.380121923E0,-2.720250189E-1,1.317037106E0,1.677696109E0
3.382121656E0,-2.854640484E-1,1.295656681E0,1.819416881E0
3.384122322E0,-2.934052944E-1,1.279163480E0,1.875616550E0
3.386122055E0,-3.135638535E-1,1.249231100E0,1.910435796E0
3.388121788E0,-3.636547923E-1,1.141718745E0,1.904938102E0
3.390121588E0,-3.862568140E-1,9.535722733E-1,1.868896961E0
3.392121321E0,-3.868676722E-1,8.472816944E-1,1.843240738E0
3.394121054E0,-4.015284479E-1,5.613967776E-1,1.818195224E0
3.396120787E0,-4.027501941E-1,2.712357640E-1,1.833466768E0
3.398120520E0,-4.027501941E-1,1.344019622E-1,1.857290506E0
3.400120253E0,-3.935872018E-1,-8.795298636E-2,1.923874855E0
3.402119953E0,-3.630439341E-1,-3.310773671E-1,2.069871664E0
3.404119686E0,-3.630439341E-1,-3.310773671E-1,2.069871664E0
3.406119486E0,-3.141747117E-1,-4.092681110E-1,2.181049109E0
3.408119752E0,-2.830205858E-1,-4.043811858E-1,2.241524935E0
3.410119485E0,-1.761191785E-1,-3.329099417E-1,2.383856535E0
3.412119218E0,-4.539400712E-2,-2.131803632E-1,2.533518314E0
3.414118951E0,3.096414730E-2,-1.527047157E-1,2.617817879E0
3.416118684E0,1.861239225E-1,-5.130107328E-2,2.777864456E0
3.418118417E0,2.575951517E-1,-1.892521605E-2,2.854833603E0
3.420118217E0,3.675509095E-1,-4.264450166E-3,3.012436867E0
3.422118017E0,4.072571397E-1,-1.044463515E-1,3.184089899E0
3.424117750E0,4.072571397E-1,-1.044463515E-1,3.184089899E0
3.426117483E0,3.748812973E-1,-2.241759300E-1,3.240289450E0
3.428117216E0,3.131839037E-1,-3.225252330E-1,3.254950285E0
3.430116949E0,2.814188898E-1,-3.652857840E-1,3.245787382E0
3.432116682E0,2.075042129E-1,-3.988834023E-1,3.204248428E0
3.434116015E0,1.232048050E-1,-3.872769475E-1,3.141940117E0
3.436115815E0,9.266153723E-2,-3.616206050E-1,3.113229513E0
3.438115548E0,3.524020314E-2,-2.473888248E-1,3.036871433E0
3.440115281E0,1.630338281E-2,-1.918000728E-1,3.004495621E0
3.442115014E0,-1.973766647E-2,-7.879000902E-2,2.879878998E0
3.444114747E0,-2.828978002E-2,-6.474011391E-2,2.831620693E0
3.446114480E0,-2.523545548E-2,-6.351838261E-2,2.780918837E0
3.448114213E0,-2.890064567E-2,-7.268135995E-2,2.674017429E0
3.450113946E0,-1.912680268E-2,-1.050572097E-1,2.553677082E0
3.452113746E0,-6.298631895E-3,-1.313244104E-1,2.496255636E0
3.454113046E0,1.874684356E-2,-1.746958494E-1,2.380801916E0
3.456112779E0,3.890539706E-2,-2.040173858E-1,2.332543612E0
3.458112512E0,7.067038864E-2,-2.382258475E-1,2.232972622E0
3.460112245E0,9.693758935E-2,-2.706016898E-1,2.141343117E0
3.462111978E0,1.305351853E-1,-2.907602489E-1,2.021613359E0
3.464111711E0,1.305351853E-1,-2.907602489E-1,2.021613359E0
3.466111444E0,1.372547001E-1,-3.005340993E-1,1.950752974E0
3.468110710E0,1.360329688E-1,-3.048101366E-1,1.918377042E0
3.470110443E0,1.061005741E-1,-3.060318828E-1,1.857290506E0
3.472110176E0,6.700519472E-2,-3.255795538E-1,1.799869299E0
3.474109909E0,5.112269893E-2,-3.341316879E-1,1.777878046E0
3.476109642E0,1.324905548E-2,-3.671184182E-1,1.743669629E0
3.478109375E0,3.475212259E-3,-3.787248433E-1,1.727176309E0
3.480109108E0,-1.851593517E-2,-4.037703276E-1,1.687470078E0
3.482108841E0,-1.179641951E-2,-4.587481916E-1,1.603781462E0
3.484108907E0,-1.179641951E-2,-4.587481916E-1,1.603781462E0
3.486108640E0,2.864347305E-3,-5.106717348E-1,1.540862441E0
3.488108373E0,5.234443396E-2,-5.906950831E-1,1.462671638E0
3.490108106E0,8.349855989E-2,-6.297904849E-1,1.415024161E0
3.492107839E0,1.549697816E-1,-7.165333033E-1,1.314231277E0
3.494107972E0,1.952868998E-1,-7.550178170E-1,1.258031726E0
3.496107705E0,2.832514942E-1,-8.203804493E-1,1.135247827E0
3.498107505E0,3.748812973E-1,-8.527562618E-1,1.001468420E0
3.500107305E0,4.206961691E-1,-8.631410003E-1,9.324406385E-1
3.502107038E0,5.495887399E-1,-8.894082308E-1,7.192485929E-1
3.504106904E0,5.886841416E-1,-9.101775885E-1,6.508316994E-1
3.506106637E0,6.302229762E-1,-9.089558721E-1,5.848582983E-1
3.508106370E0,6.974181533E-1,-8.930733800E-1,4.523005188E-1
3.510106103E0,7.181875706E-1,-8.802452683E-1,3.875488043E-1
3.512105836E0,7.328483462E-1,-8.295434117E-1,2.556019127E-1
3.514106069E0,7.224636078E-1,-7.458548546E-1,1.193789542E-1
3.516105802E0,7.078028321E-1,-6.896552444E-1,5.523810163E-2
3.518105535E0,6.656531096E-1,-5.638170242E-1,-7.609792054E-2
3.520105268E0,5.734124780E-1,-3.842226267E-1,-2.190403938E-1
3.522105034E0,4.396329820E-1,-8.978558332E-2,-4.426170588E-1
3.524104767E0,4.396329820E-1,-8.978558332E-2,-4.426170588E-1
3.526104500E0,4.066462815E-1,6.903938204E-2,-5.861704350E-1
3.528104233E0,3.944289684E-1,1.179085970E-1,-6.606959701E-1
3.530104033E0,3.651074469E-1,1.527279168E-1,-8.048601747E-1
3.532103799E0,3.455597460E-1,1.386780292E-1,-8.726661801E-1
3.534103565E0,3.046317697E-1,9.775004536E-2,-9.942284226E-1
3.536103331E0,2.710341811E-1,6.598505378E-2,-1.106016755E0
3.538103097E0,2.490430474E-1,4.765909538E-2,-1.153664231E0
3.540102863E0,2.111694068E-1,1.161804609E-2,-1.258122206E0
3.542102629E0,1.476394087E-1,-4.885761440E-2,-1.412060142E0
3.544102129E0,1.476394087E-1,-4.885761440E-2,-1.412060142E0
3.546101962E0,9.877018631E-2,-1.081115454E-1,-1.518350840E0
3.548101728E0,7.555731386E-2,-1.307135671E-1,-1.570274234E0
3.550101494E0,2.852068655E-2,-1.881348938E-1,-1.674732327E0
3.552101260E0,-5.076901056E-3,-2.223433405E-1,-1.782244563E0
3.554101026E0,-2.279199474E-2,-2.412801683E-1,-1.841498494E0
3.556100792E0,-5.516785011E-2,-3.035884202E-1,-1.956341147E0
3.558100558E0,-9.304149449E-2,-3.408511877E-1,-2.056522846E0
3.560100324E0,-1.125891879E-1,-3.677292764E-1,-2.109668255E0
3.562100124E0,-1.657344699E-1,-3.689509928E-1,-2.272769213E0
3.564099557E0,-1.834495515E-1,-3.823900521E-1,-2.328358173E0
3.566098957E0,-2.023863643E-1,-4.025485814E-1,-2.377227306E0
3.568098723E0,-2.213231921E-1,-4.337027371E-1,-2.468857288E0
3.570098489E0,-2.317079008E-1,-4.398113787E-1,-2.509174347E0
3.572098255E0,-2.280427068E-1,-4.349244237E-1,-2.578202009E0
3.574098021E0,-2.304861695E-1,-4.233179986E-1,-2.632569075E0
3.576097854E0,-2.347622365E-1,-4.251506031E-1,-2.649672985E0
3.578097687E0,-2.396491617E-1,-4.043811858E-1,-2.670442581E0
3.580097453E0,-2.347622365E-1,-3.732270598E-1,-2.688768625E0
3.582097153E0,-2.384274304E-1,-3.585662842E-1,-2.685103178E0
3.584097853E0,-2.408708781E-1,-3.475707173E-1,-2.669831753E0
3.586097619E0,-2.335404903E-1,-3.390186131E-1,-2.639288664E0
3.588097385E0,-2.115493417E-1,-3.261904418E-1,-2.555599928E0
3.590097151E0,-1.748974472E-1,-2.748777568E-1,-2.435259581E0
3.592096951E0,-1.467976421E-1,-2.357823849E-1,-2.365010023E0
3.594096751E0,-9.976101667E-2,-1.655328721E-1,-2.192135334E0
3.596096484E0,-2.279199474E-2,-1.117767319E-1,-1.981997490E0
3.598096217E0,1.691424660E-2,-7.451395690E-2,-1.875096083E0
3.600095950E0,1.170961484E-1,-2.625560015E-2,-1.672899604E0
3.602095683E0,2.233867049E-1,-2.869906090E-2,-1.487807512E0
3.604095716E0,2.826406360E-1,-5.496626720E-2,-1.403508067E0
3.606095449E0,4.035919607E-1,-8.673125505E-2,-1.194592118E0
3.608095249E0,4.549046457E-1,-7.207049429E-2,-1.022328138E0
3.610094982E0,5.520322323E-1,-3.480771184E-2,-7.535474896E-1
3.612094715E0,6.235034466E-1,-3.175338730E-2,-5.476859212E-1
3.614094448E0,6.222816706E-1,-4.030549899E-2,-4.639973342E-1
3.616094181E0,6.149513125E-1,-1.013920233E-1,-3.393808603E-1
3.618093914E0,5.917384624E-1,-1.856914163E-1,-2.795160413E-1
3.620093647E0,5.611951947E-1,-2.296737283E-1,-2.666878998E-1
3.622093380E0,4.561263621E-1,-3.194709122E-1,-2.300359607E-1
3.624093113E0,4.561263621E-1,-3.194709122E-1,-2.300359607E-1
3.626093213E0,3.418945670E-1,-3.646749556E-1,-2.172077894E-1
3.628092946E0,2.356040031E-1,-3.640640974E-1,-2.098774165E-1
3.630092679E0,1.806261241E-1,-3.610097766E-1,-2.092665583E-1
3.632092412E0,7.067038864E-2,-3.206926584E-1,-2.092665583E-1
3.634092145E0,-2.645718306E-2,-2.773212194E-1,-2.227055877E-1
3.636091878E0,-7.715899497E-2,-2.290628701E-1,-2.269816399E-1
3.638091611E0,-1.651235968E-1,-1.472069174E-1,-2.508053780E-1
3.640091411E0,-1.987211704E-1,-9.955942631E-2,-2.569140196E-1
3.642091211E0,-2.805771232E-1,7.942409068E-2,-2.709639370E-1
3.644090011E0,-2.952378988E-1,1.484518647E-1,-2.642444074E-1
3.646089744E0,-3.105095327E-1,2.156470269E-1,-2.605792284E-1
3.648089477E0,-3.202833533E-1,3.304897249E-1,-2.263707668E-1
3.650089210E0,-3.422745168E-1,4.215086401E-1,-1.768906862E-1
3.652088943E0,-3.331115544E-1,4.893146753E-1,-1.463474333E-1
3.654088676E0,-3.300572336E-1,6.023247838E-1,-6.876754761E-2
3.656088476E0,-3.123421371E-1,7.055609822E-1,1.431012899E-2
3.658088209E0,-3.062334657E-1,7.397693992E-1,5.829242617E-2
3.660087942E0,-2.756902277E-1,8.149058223E-1,1.126594320E-1
3.662087675E0,-1.944451332E-1,9.499070644E-1,1.364831775E-1
3.664087108E0,-1.944451332E-1,9.499070644E-1,1.273202002E-1
3.666086841E0,-1.388563812E-1,1.006717563E0,7.173146307E-2
3.668086574E0,-1.101457179E-1,1.018324018E0,2.225137688E-2
3.670086374E0,-5.028092861E-2,1.000608921E0,-1.023651361E-1
3.672086174E0,-1.411709585E-3,9.725090861E-1,-2.691313624E-1
3.674085907E0,5.918673705E-3,9.554048181E-1,-3.570959568E-1
3.676085640E0,1.630338281E-2,9.254724979E-1,-5.324142575E-1
3.678085373E0,-8.008443401E-4,9.340245128E-1,-6.136593819E-1
3.680085106E0,-7.105034590E-2,9.877806902E-1,-7.498822808E-1
3.682084872E0,-2.249883860E-1,1.091017008E0,-8.500642180E-1
3.684084005E0,-2.249883860E-1,1.091017008E0,-8.500642180E-1
3.686083805E0,-3.459396958E-1,1.160044670E0,-8.543402553E-1
3.688083538E0,-4.565063119E-1,1.218076944E0,-8.207426667E-1
3.690083271E0,-4.956016839E-1,1.235792041E0,-7.889776826E-1
3.692083004E0,-5.499686599E-1,1.236402869E0,-7.181172967E-1
3.694082737E0,-5.676837564E-1,1.221742034E0,-6.704697609E-1
3.696082470E0,-5.646294355E-1,1.141718745E0,-5.855595469E-1
3.698082203E0,-5.420274734E-1,1.023821831E0,-4.988166690E-1
3.700081936E0,-5.188145638E-1,9.474636316E-1,-4.560561180E-1
3.702081736E0,-4.571171999E-1,6.847915649E-1,-3.497655690E-1
3.704081469E0,-4.412346780E-1,5.913291574E-1,-3.210549057E-1
3.706081202E0,-4.113022685E-1,5.027536750E-1,-2.935659587E-1
3.708080935E0,-3.575461507E-1,3.139963448E-1,-2.563031614E-1
3.710080668E0,-3.031791449E-1,1.411214769E-1,-2.391989380E-1
3.712080401E0,-2.732467353E-1,4.643736780E-2,-2.330902964E-1
3.714080134E0,-2.170471400E-1,-1.252157688E-1,-2.300359607E-1
3.716079867E0,-1.877256185E-1,-1.991304606E-1,-2.275925130E-1
3.718079667E0,-1.461867690E-1,-3.286338747E-1,-2.300359607E-1
3.720079400E0,-1.235847548E-1,-4.269831777E-1,-2.282033712E-1
3.722079133E0,-1.125891879E-1,-4.752415419E-1,-2.251490504E-1
3.724078866E0,-1.168652400E-1,-4.795176089E-1,-2.263707668E-1
3.726078599E0,-1.315260082E-1,-4.599699080E-1,-2.318685651E-1
3.728078332E0,-1.400781274E-1,-4.465308785E-1,-2.288142443E-1
3.730078065E0,-1.620692760E-1,-3.878878057E-1,-2.159860730E-1
3.732077798E0,-1.693996638E-1,-3.494033217E-1,-2.068230957E-1
3.734077598E0,-1.822278351E-1,-2.883168161E-1,-1.982709765E-1
3.736077331E0,-1.968885958E-1,-2.486105561E-1,-1.842210740E-1
3.738077064E0,-1.993320435E-1,-2.333389074E-1,-1.775015593E-1
3.740076797E0,-2.109384984E-1,-2.144020945E-1,-1.665059775E-1
3.742076530E0,-2.176579982E-1,-1.911892146E-1,-1.445148289E-1
3.744077130E0,-2.176579982E-1,-1.911892146E-1,-1.445148289E-1
3.746076863E0,-2.084950209E-1,-1.905783564E-1,-1.274106055E-1
3.748076663E0,-1.993320435E-1,-2.040173858E-1,-1.096955165E-1
3.750076463E0,-1.871147454E-1,-2.144020945E-1,-1.017542630E-1
3.752076196E0,-1.724539846E-1,-2.425018847E-1,-8.403917402E-2
3.754075929E0,-1.681779176E-1,-2.602169812E-1,-7.731965929E-2
3.756075662E0,-1.510736942E-1,-2.773212194E-1,-6.143715978E-2
3.758075395E0,-1.455759108E-1,-2.913711369E-1,-5.349591374E-2
3.760075128E0,-1.443541646E-1,-2.950363159E-1,-4.799812660E-2
3.762074861E0,-1.449650377E-1,-2.968688905E-1,-5.166331679E-2
3.764074661E0,-1.449650377E-1,-2.968688905E-1,-5.166331679E-2
3.766074394E0,-1.480193585E-1,-3.011449575E-1,-5.471764505E-2
3.768074127E0,-1.406889856E-1,-3.035884202E-1,-5.716110766E-2
3.770073860E0,-1.412998438E-1,-3.133622706E-1,-6.143715978E-2
3.772073593E0,-1.290825456E-1,-3.280230463E-1,-7.915224880E-2
3.774073326E0,-1.132000536E-1,-3.512358963E-1,-8.953696489E-2
3.776073059E0,-9.976101667E-2,-3.658966720E-1,-9.625647962E-2
3.778072792E0,-7.166121155E-2,-3.891095519E-1,-9.259128571E-2
3.780072592E0,-3.562016413E-2,-4.049920738E-1,-9.625647962E-2
3.782072325E0,1.642616582E-3,-4.147658944E-1,-1.072520539E-1
3.784072058E0,1.813597791E-2,-4.239288568E-1,-1.133607104E-1
3.786071791E0,3.279674426E-2,-4.312592447E-1,-1.200802252E-1
3.788071524E0,7.250298560E-2,-4.477526248E-1,-1.487908959E-1
3.790071257E0,9.571586549E-2,-4.740198255E-1,-1.756689548E-1
3.792070990E0,1.115983576E-1,-4.899023175E-1,-1.903297305E-1
3.794070723E0,1.329786330E-1,-5.057848096E-1,-2.227055877E-1
3.796070523E0,1.506937444E-1,-5.070065856E-1,-2.672987282E-1
3.798070256E0,1.623001695E-1,-5.002869964E-1,-2.856246829E-1
3.800069989E0,1.971194893E-1,-4.868479967E-1,-3.234983385E-1
3.802069722E0,2.215541005E-1,-4.660785794E-1,-3.363265097E-1
3.804069455E0,2.282736152E-1,-4.679111540E-1,-3.412134349E-1
3.806069188E0,2.527082264E-1,-4.593590796E-1,-3.418243229E-1
3.808068921E0,2.661472857E-1,-4.550830126E-1,-3.406025767E-1
3.810068654E0,3.040209115E-1,-4.214854240E-1,-3.173896968E-1
3.812068454E0,3.443379998E-1,-3.756705225E-1,-2.795160413E-1
3.814068187E0,3.657183051E-1,-3.481815755E-1,-2.593575120E-1
3.816067920E0,3.889311850E-1,-2.944254577E-1,-2.190403938E-1
3.818067653E0,4.029810727E-1,-2.333389074E-1,-1.713929027E-1
3.820067386E0,4.103114605E-1,-1.985195875E-1,-1.451257020E-1
3.822067119E0,4.280265570E-1,-6.596183777E-2,-6.021543220E-2
3.824066852E0,4.280265570E-1,-6.596183777E-2,-6.021543220E-2
3.826066652E0,4.494068325E-1,3.116573393E-2,1.308839861E-2
3.828066452E0,4.707871377E-1,1.063021645E-1,9.677693993E-2
3.830066185E0,4.799501002E-1,1.374562830E-1,1.401483715E-1
3.832065918E0,4.988869429E-1,1.832711846E-1,2.275021076E-1
3.834065651E0,5.080499053E-1,2.272534817E-1,3.221862316E-1
3.836065384E0,5.141585469E-1,2.590184510E-1,3.716662824E-1
3.838065117E0,5.153803229E-1,3.237701654E-1,4.767351151E-1
3.840064850E0,5.178237557E-1,4.123456478E-1,5.964646935E-1
3.842064650E0,5.233215094E-1,5.027536750E-1,7.345202565E-1
3.844064450E0,5.245432854E-1,5.497903228E-1,8.029371500E-1
3.846064183E0,5.349279642E-1,5.864422321E-1,8.737975359E-1
3.848063916E0,5.422583818E-1,6.744068861E-1,1.006966114E0
3.850063649E0,5.605843067E-1,7.348825336E-1,1.118754506E0
3.852063382E0,5.721907616E-1,7.605388165E-1,1.168845415E0
3.854063115E0,6.070100665E-1,8.057428598E-1,1.255588293E0
3.856062848E0,6.424402595E-1,8.222361803E-1,1.325226903E0
3.858062648E0,6.662639976E-1,8.234579563E-1,1.352105021E0
3.860062514E0,7.200201154E-1,8.094080687E-1,1.397309065E0
3.862062247E0,7.804957628E-1,7.519866824E-1,1.441902280E0
3.864061047E0,7.804957628E-1,7.519866824E-1,1.441902280E0
3.866060780E0,8.318084478E-1,7.153348327E-1,1.460228205E0
3.868060513E0,8.556321859E-1,6.884567142E-1,1.467558622E0
3.870060246E0,9.002254009E-1,5.986595750E-1,1.483440995E0
3.872059979E0,9.142752886E-1,4.673235118E-1,1.477943182E0
3.874059779E0,9.093883634E-1,3.830240965E-1,1.468780279E0
3.876059512E0,8.831211329E-1,1.789951175E-1,1.413802385E0
3.878059245E0,8.629626036E-1,6.354159117E-2,1.375317812E0
3.880058978E0,8.189802766E-1,-1.808045059E-1,1.262918711E0
3.882058711E0,6.943638325E-1,-5.607627034E-1,1.037509441E0
3.884058444E0,6.943638325E-1,-5.607627034E-1,1.037509441E0
3.886058177E0,5.789102912E-1,-7.983892560E-1,8.634128571E-1
3.888057910E0,4.616241455E-1,-1.022576809E0,6.789315343E-1
3.890057710E0,3.913746476E-1,-1.127645612E0,5.909669399E-1
3.892057443E0,2.612603307E-1,-1.328620315E0,4.229789674E-1
3.894057176E0,1.384764314E-1,-1.505771279E0,3.130232096E-1
3.896056909E0,8.472029120E-2,-1.556473017E0,2.708735466E-1
3.898056642E0,1.752511226E-2,-1.618170381E0,2.226151675E-1
3.900056375E0,9.583865292E-3,-1.635885477E0,2.146739364E-1
3.902056108E0,-2.022574889E-3,-1.612672567E0,2.702626586E-1
3.904054908E0,-2.022574889E-3,-1.612672567E0,2.702626586E-1
3.906054708E0,1.080559567E-2,-1.597401023E0,3.026385307E-1
3.908054441E0,4.623577744E-2,-1.550364375E0,3.521186113E-1
3.910054174E0,1.006027833E-1,-1.473395348E0,3.869379163E-1
3.912053907E0,1.250374019E-1,-1.438576102E0,3.930465579E-1
3.914053640E0,1.751283407E-1,-1.362828732E0,3.912139833E-1
3.916053373E0,2.013955563E-1,-1.322511554E0,3.814401627E-1
3.918053106E0,2.246084362E-1,-1.240655780E0,3.368469775E-1
3.920052772E0,2.313279361E-1,-1.141695499E0,2.843125463E-1
3.922052505E0,2.270518988E-1,-1.086717606E0,2.543801665E-1
3.924053171E0,1.775718033E-1,-9.853140116E-1,2.049000859E-1
3.926052904E0,1.158744171E-1,-8.802452683E-1,1.768002808E-1
3.928052637E0,7.616817206E-2,-8.258782625E-1,1.621395051E-1
3.930052370E0,-6.909496617E-3,-7.110355496E-1,1.413701028E-1
3.932052103E0,-7.960246503E-2,-6.041340828E-1,1.279310733E-1
3.934051836E0,-1.199195683E-1,-5.467127562E-1,1.193789542E-1
3.936051636E0,-1.693996638E-1,-4.440874457E-1,1.151028946E-1
3.938051402E0,-1.889473349E-1,-3.939964771E-1,1.108268350E-1
3.940051168E0,-2.078841627E-1,-2.993123829E-1,1.022747234E-1
3.942050934E0,-1.913908124E-1,-2.009630650E-1,8.822482079E-2
3.944050700E0,-1.913908124E-1,-2.009630650E-1,8.822482079E-2
3.946050466E0,-1.651235968E-1,-1.539264321E-1,8.211617172E-2
3.948050232E0,-1.315260082E-1,-1.117767319E-1,7.722924650E-2
3.950049998E0,-1.144217849E-1,-7.940088212E-2,7.356406003E-2
3.952049831E0,-7.593727112E-2,1.160644024E-5,9.433346987E-2
3.954049597E0,-6.555256248E-2,3.971784562E-2,1.041073203E-1
3.956049363E0,-4.356141388E-2,1.087456197E-1,1.175463572E-1
3.958049129E0,-5.883304030E-2,1.331802309E-1,1.028855890E-1
3.960048895E0,-7.776986808E-2,1.221846566E-1,8.883568645E-2
3.962048661E0,-1.504628360E-1,2.078102529E-2,9.250088036E-2
3.964049127E0,-1.706213802E-1,-1.403829362E-2,1.083833799E-1
3.966048893E0,-1.962777227E-1,-4.152723029E-2,1.144920290E-1
3.968048726E0,-2.482012659E-1,-6.657271087E-2,1.340397149E-1
3.970048492E0,-2.744684815E-1,-6.901616603E-2,1.383157820E-1
3.972048258E0,-3.355549872E-1,-7.145962864E-2,1.462570131E-1
3.974048024E0,-4.021393061E-1,-8.245520294E-2,1.322071254E-1
3.976047790E0,-4.424564242E-1,-9.772682935E-2,1.236550063E-1
3.978047556E0,-5.212580562E-1,-1.429308653E-1,1.022747234E-1
3.980047322E0,-6.043356657E-1,-2.137912363E-1,7.417492568E-2
3.982047155E0,-7.045176029E-1,-3.225252330E-1,4.485338926E-2
3.984046555E0,-7.527759671E-1,-3.781139851E-1,2.897089534E-2
3.986046321E0,-8.621208668E-1,-4.923457801E-1,1.431012899E-2
3.988046087E0,-9.164878726E-1,-5.381606221E-1,9.423207492E-3
3.990045853E0,-1.036217451E0,-6.273469925E-1,2.092824318E-3
3.992045619E0,-1.088751793E0,-6.621662974E-1,-8.291884325E-3
3.994045385E0,-1.196264148E0,-7.318049073E-1,-3.028303385E-2
3.996045151E0,-1.281785250E0,-7.794524431E-1,-7.304359972E-2
3.998044951E0,-1.314161181E0,-8.075522184E-1,-9.136956185E-2
4.000044751E0,-1.341650009E0,-8.655844927E-1,-1.414605081E-1
4.002044484E0,-1.306219816E0,-9.688206911E-1,-2.165969461E-1
4.004044384E0,-1.306219816E0,-9.688206911E-1,-2.165969461E-1
