"Time (s)","Acceleration x (m/s^2)","Acceleration y (m/s^2)","Acceleration z (m/s^2)"
0.000000000E0,-1.441012621E0,3.701474190E0,7.430826187E0
3.970313000E-3,-1.362616777E0,3.713186502E0,7.489694595E0
7.942188000E-3,-1.325956821E0,3.685567141E0,7.526154041E0
1.191250000E-2,-1.311486244E0,3.697997808E0,7.537559986E0
1.588281300E-2,-1.266829610E0,3.730836630E0,7.537942886E0
1.985312500E-2,-1.186508894E0,3.748151541E0,7.535481930E0
2.382343800E-2,-1.153076291E0,3.746963978E0,7.529170513E0
2.779375000E-2,-1.165430307E0,3.750603199E0,7.531143665E0
3.176406300E-2,-1.207606554E0,3.774411201E0,7.548314571E0
3.573593800E-2,-1.260077834E0,3.809644222E0,7.541601181E0
3.970625000E-2,-1.302321196E0,3.821174622E0,7.610774517E0
4.367656300E-2,-1.376158476E0,3.841812849E0,7.635367870E0
4.764687500E-2,-1.456220508E0,3.849627495E0,7.639955044E0
5.161718800E-2,-1.519082665E0,3.844063282E0,7.589025497E0
5.558750000E-2,-1.564630032E0,3.879784584E0,7.522553444E0
5.955781300E-2,-1.585842609E0,3.903918266E0,7.383210659E0
6.352812500E-2,-1.646176457E0,3.920217991E0,7.317781925E0
6.750000000E-2,-1.726171494E0,4.171954155E0,7.335814953E0
7.147031300E-2,-1.762620807E0,4.129998207E0,7.421154022E0
7.544062500E-2,-1.812966228E0,3.990693569E0,7.549004078E0
7.941093800E-2,-1.943373561E0,3.837292433E0,7.719001770E0
8.338125000E-2,-2.103660583E0,3.697375298E0,7.942045689E0
8.735312500E-2,-2.136269569E0,3.570214272E0,8.155617714E0
9.132187500E-2,-2.122096062E0,3.491809130E0,8.389665604E0
9.529375000E-2,-2.115794420E0,3.409189939E0,8.678319931E0
9.926406300E-2,-2.113965034E0,3.357647657E0,9.015605927E0
1.032343750E-1,-2.082773447E0,3.350254297E0,9.265091896E0
1.072046880E-1,-2.134028673E0,3.413710117E0,9.378212929E0
1.111750000E-1,-2.215077162E0,3.468250275E0,9.318319321E0
1.151453130E-1,-2.193519831E0,3.517982483E0,9.202670097E0
1.191171880E-1,-2.144869566E0,3.576314926E0,9.094537735E0
1.230859380E-1,-2.067575216E0,3.606750011E0,9.122798920E0
1.270578130E-1,-1.969249964E0,3.618194342E0,9.251253128E0
1.310281250E-1,-1.860974789E0,3.596656084E0,9.453237534E0
1.349984380E-1,-1.781879902E0,3.563079596E0,9.706055641E0
1.389968750E-1,-1.699433088E0,3.562888145E0,9.870785713E0
1.429390630E-1,-1.620845795E0,3.569697380E0,1.002009773E1
1.469093750E-1,-1.574589849E0,3.547239780E0,1.009579277E1
1.508796880E-1,-1.595419407E0,3.496970892E0,1.007736683E1
1.548562500E-1,-1.633276463E0,3.449556112E0,1.008457947E1
1.588218750E-1,-1.674600482E0,3.383007050E0,1.003468323E1
1.627921880E-1,-1.795239449E0,3.292209148E0,9.927528381E0
1.667625000E-1,-1.998574257E0,3.241346836E0,9.750875473E0
1.707328130E-1,-2.115660191E0,3.195406914E0,9.538403511E0
1.747031250E-1,-2.152856588E0,3.153833866E0,9.240612984E0
1.786750000E-1,-2.173552036E0,3.083952188E0,9.042803764E0
1.826437500E-1,-2.160201788E0,2.998134375E0,8.886156082E0
1.866156250E-1,-2.228063345E0,2.824056625E0,8.754360199E0
1.905859380E-1,-2.276052713E0,2.596435070E0,8.645501137E0
1.945562500E-1,-2.335141659E0,2.374176502E0,8.629200935E0
1.985265630E-1,-2.450781584E0,2.174710989E0,8.570064545E0
2.024968750E-1,-2.618720531E0,2.000269175E0,8.454634666E0
2.064671880E-1,-2.737520695E0,1.877130747E0,8.500986099E0
2.104390630E-1,-2.744961977E0,1.798840284E0,8.583280563E0
2.144093750E-1,-2.725051641E0,1.750084877E0,8.682275772E0
2.183796880E-1,-2.727771521E0,1.751463890E0,8.817059517E0
2.223500000E-1,-2.818186045E0,1.814326048E0,8.976561546E0
2.263203130E-1,-2.960468769E0,1.904549241E0,9.160924911E0
2.302906250E-1,-3.112672806E0,2.031556845E0,9.333210945E0
2.342609380E-1,-3.433888674E0,2.188080072E0,9.721953392E0
2.382328130E-1,-3.875475168E0,2.412349939E0,1.004873276E1
2.422015630E-1,-3.647499323E0,2.473957300E0,9.777718544E0
2.461734380E-1,-4.313556671E0,2.736764193E0,1.001780987E1
2.501437500E-1,-5.274158001E0,2.947013140E0,1.008407116E1
2.541140630E-1,-6.568587780E0,2.879161596E0,1.002426338E1
2.580859380E-1,-5.285583496E0,2.572186708E0,9.804255486E0
2.620546880E-1,-4.470578194E0,2.328284502E0,9.863124847E0
2.660250000E-1,-3.959224463E0,2.221254110E0,9.936962128E0
2.699968750E-1,-4.085082531E0,2.368947744E0,1.005603981E1
2.739671880E-1,-4.326485157E0,2.624466658E0,9.940562248E0
2.779375000E-1,-4.619870663E0,2.896361589E0,9.892401695E0
2.819078130E-1,-4.783691406E0,3.228686333E0,9.661877632E0
2.858781250E-1,-4.887944698E0,3.439424038E0,9.614453316E0
2.898484380E-1,-5.149650097E0,3.468776941E0,9.686039925E0
2.938203130E-1,-4.535087585E0,3.314963818E0,9.119457245E0
2.977906250E-1,-4.166179180E0,3.188521147E0,8.917463303E0
3.017593750E-1,-3.712334156E0,3.010124445E0,8.555699348E0
3.057312500E-1,-2.501979113E0,2.895202875E0,7.578998566E0
3.097015630E-1,-1.968531728E0,2.923597813E0,6.539455414E0
3.136718750E-1,-3.245685101E0,3.249966145E0,6.256192684E0
3.176437500E-1,-4.121790409E0,3.529637337E0,6.606464386E0
3.216125000E-1,-4.187334538E0,3.643984556E0,7.313108444E0
3.255828130E-1,-4.064607620E0,3.589166880E0,8.189126968E0
3.295546880E-1,-4.098299026E0,3.601540089E0,8.522591591E0
3.335250000E-1,-4.089286804E0,3.771518707E0,8.131781578E0
3.374953130E-1,-4.384683609E0,4.054044247E0,7.290382385E0
3.414656250E-1,-4.777361393E0,4.332911015E0,6.855116844E0
3.454375000E-1,-5.258615017E0,4.734629631E0,6.878014565E0
3.494078130E-1,-5.193358898E0,5.114838600E0,6.927766323E0
3.533781250E-1,-4.888250828E0,5.398091793E0,6.961314201E0
3.573484380E-1,-4.649559021E0,5.496972084E0,7.098262310E0
3.613187500E-1,-3.889505148E0,5.358147144E0,7.473309040E0
3.652890630E-1,-1.880626202E0,4.679275990E0,8.335498810E0
3.692593750E-1,-1.533534050E0,4.532779217E0,8.292921066E0
3.732296880E-1,-1.452102542E0,4.544252396E0,7.835130215E0
3.772015630E-1,-1.403902411E0,4.541417599E0,7.426105022E0
3.811703130E-1,-1.518364429E0,4.538783550E0,6.924826145E0
3.851421880E-1,-1.304179072E0,4.480958939E0,6.566462040E0
3.891125000E-1,-8.473559022E-1,4.462993145E0,6.500621796E0
3.930828130E-1,-1.767208129E-1,4.521545887E0,7.023802280E0
3.970531250E-1,1.094523668E0,4.661328793E0,8.909197807E0
4.010234380E-1,1.755984187E0,4.794676304E0,8.513130188E0
4.049937500E-1,1.839637518E0,5.280411720E0,7.515140533E0
4.089656250E-1,1.782483101E0,5.850863934E0,6.781106949E0
4.129359380E-1,1.749108076E0,6.401195526E0,5.985743523E0
4.169062500E-1,1.355692744E0,6.759319782E0,5.140063763E0
4.208765630E-1,8.754446507E-1,6.848738194E0,4.571210861E0
4.248468750E-1,4.253059626E-2,6.823992252E0,4.152398109E0
4.288171880E-1,-1.172632098E0,6.776098251E0,3.977152109E0
4.327890630E-1,-2.482748747E0,6.681421757E0,3.976730824E0
4.367593750E-1,-3.523067951E0,6.711905479E0,3.971856117E0
4.407281250E-1,-4.544127941E0,6.792091846E0,3.875743389E0
4.447000000E-1,-5.286770821E0,6.973246574E0,3.875245333E0
4.486703130E-1,-5.680760860E0,7.201231956E0,4.095617294E0
4.526406250E-1,-5.863850117E0,7.516500473E0,4.679170609E0
4.566109380E-1,-5.857031345E0,7.817748547E0,5.466039181E0
4.605812500E-1,-5.726595402E0,7.990839958E0,6.198234081E0
4.645515630E-1,-5.276964188E0,8.126590729E0,7.013785362E0
4.685234380E-1,-4.405618668E0,8.130746841E0,7.858421326E0
4.724937500E-1,-3.092609406E0,8.006268501E0,8.834642410E0
4.764640630E-1,-1.773844838E0,7.780906677E0,9.718122482E0
4.804343750E-1,-3.756598234E-1,7.497279644E0,1.050060463E1
4.844046880E-1,6.164686084E-1,7.222770214E0,1.083061218E1
4.883750000E-1,1.052711248E0,7.036357880E0,1.074215126E1
4.923468750E-1,1.006924629E0,6.808650017E0,1.035777664E1
4.963171880E-1,3.612179756E-1,6.556607246E0,9.807387352E0
5.002875000E-1,-6.858142614E-1,6.306547165E0,8.865968704E0
5.042578130E-1,-2.127133369E0,5.878952503E0,7.454260826E0
5.082281250E-1,-3.691562176E0,5.409650803E0,6.416393757E0
5.121984380E-1,-5.248128414E0,5.145005226E0,5.952837944E0
5.161703130E-1,-6.519689083E0,5.146020412E0,5.649683952E0
5.201390630E-1,-7.742063046E0,5.309535027E0,5.097149849E0
5.241109380E-1,-8.603803635E0,5.621269703E0,4.379464149E0
5.280812500E-1,-9.054688454E0,5.995626926E0,3.845078468E0
5.320515630E-1,-9.208195686E0,6.534178734E0,3.494059563E0
5.360218750E-1,-9.007130623E0,7.111219883E0,3.522809267E0
5.399921880E-1,-8.630982399E0,7.548324108E0,3.755142689E0
5.439625000E-1,-8.116755486E0,8.007723808E0,4.191279888E0
5.479328130E-1,-7.712489605E0,8.458541870E0,4.865956306E0
5.519046880E-1,-7.485500336E0,8.978974342E0,5.647452831E0
5.558750000E-1,-7.349959850E0,9.429181099E0,6.285746574E0
5.598453130E-1,-7.210856438E0,9.920795441E0,6.827248096E0
5.638156250E-1,-7.109505177E0,1.035170364E1,7.301175594E0
5.677859380E-1,-7.052006245E0,1.055071926E1,7.366632938E0
5.717562500E-1,-7.277243137E0,1.088473988E1,7.678185463E0
5.757265630E-1,-7.531842232E0,1.098960686E1,7.627677917E0
5.796968750E-1,-7.645701408E0,1.085314655E1,7.382453918E0
5.836687500E-1,-7.668743134E0,1.051970100E1,7.175853729E0
5.876390630E-1,-7.617085457E0,9.983237267E0,6.935705662E0
5.916078130E-1,-7.442184448E0,9.417631149E0,6.575732231E0
5.955796880E-1,-7.283448696E0,8.992009163E0,6.187785625E0
5.995500000E-1,-7.095139980E0,8.604637146E0,5.676661491E0
6.035203130E-1,-6.914875984E0,8.230201721E0,5.084345818E0
6.074921880E-1,-6.760382652E0,7.869884968E0,4.546129227E0
6.114625000E-1,-6.544559956E0,7.454605579E0,3.959291220E0
6.154328130E-1,-6.300820827E0,7.043463707E0,3.322318792E0
6.194031250E-1,-6.040523052E0,6.730330944E0,2.849004269E0
6.233734380E-1,-5.651598930E0,6.452459812E0,2.427318335E0
6.273437500E-1,-4.811244011E0,6.013545036E0,1.470489979E0
6.313140630E-1,-3.926596165E0,5.731201649E0,5.893950462E-1
6.352843750E-1,-3.717754602E0,6.121810913E0,9.916017652E-1
6.392546880E-1,-3.663578510E0,6.972729683E0,1.404735565E0
6.432265630E-1,-3.516000032E0,8.002494812E0,1.579464436E0
6.471968750E-1,-3.519696712E0,8.948224068E0,1.686360717E0
6.511671880E-1,-3.713770866E0,9.974234581E0,1.704039574E0
6.551375000E-1,-3.787502766E0,1.077660847E1,1.928558230E0
6.591078130E-1,-3.239958286E0,1.076700306E1,1.814642072E0
6.630781250E-1,-2.154360056E0,1.000509071E1,1.951810718E0
6.670500000E-1,-2.037570953E0,9.857810020E0,3.427242279E0
6.710187500E-1,-2.366936445E0,9.796038628E0,4.505887508E0
6.749906250E-1,-2.899406910E0,9.838694572E0,4.996842861E0
6.789609380E-1,-4.007759571E0,9.995514870E0,4.965258121E0
6.829312500E-1,-5.217176437E0,1.014743137E1,4.438667774E0
6.869015630E-1,-6.014675140E0,1.016386509E1,3.748476982E0
6.908718750E-1,-6.553993225E0,1.002140045E1,2.805793762E0
6.948421880E-1,-6.735942841E0,9.768563271E0,2.101477146E0
6.988140630E-1,-6.625426292E0,9.499444962E0,1.896207809E0
7.027843750E-1,-6.235669613E0,9.018191338E0,1.931134343E0
7.067546880E-1,-5.883491993E0,8.459633827E0,2.077889442E0
7.107250000E-1,-5.680750847E0,8.003758430E0,2.439787388E0
7.146953130E-1,-5.645393372E0,7.771243572E0,2.784772635E0
7.186656250E-1,-5.442001343E0,7.392662525E0,2.888192654E0
7.226578130E-1,-5.132728100E0,6.941671848E0,2.696972370E0
7.266078130E-1,-4.996325493E0,6.615399361E0,2.457628965E0
7.305765630E-1,-4.987342358E0,6.382539749E0,2.063236713E0
7.345484380E-1,-5.002579212E0,6.325107574E0,1.659411669E0
7.385203130E-1,-5.133264065E0,6.394137383E0,1.326828241E0
7.424890630E-1,-5.354047775E0,6.532752037E0,1.064021468E0
7.464593750E-1,-5.702902317E0,6.693804741E0,7.164983749E-1
7.504296880E-1,-5.974606037E0,6.767756939E0,3.537289500E-1
7.544000000E-1,-5.621719837E0,6.230699062E0,-2.404065877E-1
7.583718750E-1,-4.914022446E0,5.218028545E0,-6.436188817E-1
7.623421880E-1,-5.203711510E0,5.325690746E0,2.004042715E-1
7.663125000E-1,-5.509479523E0,5.551818371E0,3.966425955E-1
7.702828130E-1,-5.880436897E0,5.913591862E0,4.108545780E-1
7.742531250E-1,-6.340248585E0,6.338418961E0,3.733901083E-1
7.782234380E-1,-6.529275417E0,6.580041885E0,4.560188055E-1
7.821953130E-1,-6.246117592E0,6.720150948E0,6.191692948E-1
7.861656250E-1,-5.452794552E0,6.663733959E0,7.520283461E-1
7.901359380E-1,-4.564564228E0,6.492625237E0,8.957091570E-1
7.941062500E-1,-4.055710793E0,6.401147366E0,1.110804200E0
7.980765630E-1,-3.738143682E0,6.348417282E0,1.246440530E0
8.020468750E-1,-3.780205011E0,6.457401276E0,1.290254354E0
8.060187500E-1,-4.042360783E0,6.603754520E0,1.250884175E0
8.099890630E-1,-4.518059731E0,6.969769955E0,1.194199085E0
8.139593750E-1,-4.968093395E0,7.273728371E0,1.003486514E0
8.179296880E-1,-5.383621216E0,7.571662903E0,8.375875354E-1
8.219000000E-1,-5.732513905E0,7.750806808E0,5.983588696E-1
8.258703130E-1,-5.903162956E0,7.708256721E0,4.421228766E-1
8.298406250E-1,-5.948403835E0,7.444320202E0,2.527798116E-1
8.338109380E-1,-6.045474052E0,7.221659184E0,2.031336576E-1
8.377828130E-1,-6.251366138E0,7.034700871E0,2.649615109E-1
8.417531250E-1,-6.511893749E0,6.955788136E0,3.923617899E-1
8.457234380E-1,-6.757653236E0,6.903728485E0,3.592930734E-1
8.496937500E-1,-7.046059132E0,6.804704189E0,1.605072767E-1
8.536656250E-1,-7.396311760E0,6.645863056E0,-1.090606749E-1
8.576343750E-1,-7.412678242E0,6.143569469E0,-7.588565946E-1
8.616062500E-1,-7.712958813E0,6.123429298E0,-5.600899458E-1
8.655750000E-1,-7.906946659E0,6.277357578E0,-7.698507905E-1
8.695453130E-1,-8.096319199E0,6.462860584E0,-1.501921058E0
8.735171880E-1,-8.375319481E0,6.681920052E0,-2.086814880E0
8.774875000E-1,-8.614347458E0,6.894362450E0,-2.516085625E0
8.814578130E-1,-8.652329445E0,7.150973320E0,-2.555111408E0
8.854281250E-1,-8.677793503E0,7.334713459E0,-2.376235485E0
8.893984380E-1,-8.693125725E0,7.451904774E0,-2.118360758E0
8.933687500E-1,-8.838081360E0,7.628357410E0,-1.790910721E0
8.973406250E-1,-8.904572487E0,7.828234673E0,-1.474023819E0
9.013109380E-1,-8.788185120E0,7.938684464E0,-1.246220350E0
9.052812500E-1,-8.572477341E0,8.023611069E0,-1.078549504E0
9.092515630E-1,-8.381899834E0,8.127864838E0,-9.472610950E-1
9.132234380E-1,-8.302669525E0,8.217991829E0,-8.930180669E-1
9.171921880E-1,-8.284292221E0,8.331410408E0,-8.413895369E-1
9.211640630E-1,-8.272445679E0,8.340163231E0,-9.064159989E-1
9.251343750E-1,-8.220424652E0,8.319123268E0,-9.756371975E-1
9.291046880E-1,-8.163049698E0,8.194117546E0,-1.096257091E0
9.330750000E-1,-8.118613243E0,8.026446342E0,-1.154388309E0
9.370453130E-1,-8.000540733E0,7.842830181E0,-1.205442309E0
9.410156250E-1,-7.834009647E0,7.676030636E0,-1.240905166E0
9.449875000E-1,-7.618072033E0,7.445996284E0,-1.333512902E0
9.489562500E-1,-7.541275978E0,7.249470234E0,-1.499172449E0
9.529265630E-1,-7.535347462E0,7.152036190E0,-1.718998551E0
9.568984380E-1,-7.517774582E0,7.043808460E0,-2.038624287E0
9.608687500E-1,-7.343926430E0,6.813189507E0,-2.323582172E0
9.648390630E-1,-7.053749084E0,6.613321304E0,-2.541157722E0
9.688093750E-1,-6.670054436E0,6.449883938E0,-2.696167946E0
9.727812500E-1,-6.297095299E0,6.335392952E0,-2.629398346E0
9.767500000E-1,-6.114915371E0,6.313864231E0,-2.329807043E0
9.807218750E-1,-6.019827843E0,6.333314896E0,-1.872610450E0
9.846921880E-1,-6.002579689E0,6.477177620E0,-1.598924518E0
9.886609380E-1,-6.253051281E0,6.681977749E0,-1.587058783E0
9.926328130E-1,-6.551321507E0,6.776672840E0,-1.603760719E0
9.966031250E-1,-6.935935020E0,6.777046204E0,-1.812496781E0
1.000573438E0,-7.290880203E0,6.727792740E0,-2.046822071E0
1.004545313E0,-7.537579060E0,6.670284271E0,-2.114989996E0
1.008514063E0,-7.771042347E0,6.571087837E0,-2.150893211E0
1.012485938E0,-7.994843006E0,6.473136425E0,-2.317309618E0
1.016456250E0,-8.320607185E0,6.485662460E0,-2.558051348E0
1.020426563E0,-8.555095673E0,6.548285007E0,-2.759949446E0
1.024398438E0,-8.425492287E0,6.499864578E0,-2.575279951E0
1.028367188E0,-8.176419258E0,6.432195187E0,-2.472970963E0
1.032337500E0,-8.111602783E0,6.634284973E0,-2.349755764E0
1.036309375E0,-8.068201065E0,6.972250462E0,-2.199045420E0
1.040279688E0,-7.998845577E0,7.223000050E0,-1.999991536E0
1.044250000E0,-7.821790218E0,7.216679096E0,-1.764526606E0
1.048220313E0,-7.691421032E0,7.115816593E0,-1.487785697E0
1.052190625E0,-7.706446648E0,7.003145695E0,-1.260461092E0
1.056160938E0,-7.754416943E0,6.991921425E0,-1.290656567E0
1.060131250E0,-7.549444675E0,6.994612217E0,-1.021557927E0
1.064101563E0,-7.283688545E0,7.092841625E0,-9.421854019E-1
1.068073438E0,-6.944104671E0,7.120700836E0,-9.456426501E-1
1.072043750E0,-6.696639538E0,7.163231373E0,-1.229231119E0
1.076014063E0,-6.528193474E0,7.218968391E0,-1.337017894E0
1.079984375E0,-6.394519806E0,7.202064991E0,-1.408757806E0
1.083954688E0,-6.234386444E0,7.113306999E0,-1.368382096E0
1.087925000E0,-6.089316845E0,6.998280048E0,-1.670559049E0
1.091895313E0,-6.008230209E0,6.929806232E0,-1.641752005E0
1.095867188E0,-5.972115517E0,6.838989258E0,-1.711222172E0
1.099837500E0,-5.982295990E0,6.758151531E0,-1.791284323E0
1.103807813E0,-5.928426266E0,6.629142284E0,-2.168859482E0
1.107778125E0,-5.800279140E0,6.478710175E0,-2.366476774E0
1.111748438E0,-5.654070377E0,6.348915577E0,-2.498981476E0
1.115718750E0,-5.311296940E0,6.162359238E0,-2.549920559E0
1.119690625E0,-4.989085674E0,6.144872189E0,-2.549365282E0
1.123660938E0,-4.759471893E0,6.249412060E0,-2.441061020E0
1.127631250E0,-4.641926289E0,6.536927223E0,-2.271197319E0
1.131629688E0,-4.493725300E0,6.727611065E0,-1.881631851E0
1.135571875E0,-4.261171341E0,6.973246574E0,-1.534405470E0
1.139542188E0,-3.920409441E0,7.157236099E0,-1.262692332E0
1.143514063E0,-3.443177938E0,7.318222046E0,-1.074211359E0
1.147484375E0,-2.805401087E0,7.215731621E0,-8.905855417E-1
1.151454688E0,-2.833135605E0,7.643814564E0,-9.720746279E-1
1.155425000E0,-2.733584404E0,8.008269310E0,-8.548928499E-1
1.159395313E0,-2.778403997E0,8.418291092E0,-9.095859528E-1
1.163365625E0,-2.653924704E0,8.482254982E0,-1.106063724E0
1.167335938E0,-7.711915374E-1,8.308061600E0,-5.290965557E0
1.171306250E0,1.083165526E0,8.206920624E0,-8.164668083E0
1.175276563E0,2.358317375E0,8.404539108E0,-9.051796913E0
1.179248438E0,1.470164299E0,8.795962334E0,-7.518368244E0
1.183218750E0,-9.641641974E-1,9.026772499E0,-3.878903627E0
1.187189063E0,-3.657114267E0,9.337989807E0,-2.775454521E-1
1.191159375E0,-5.360406876E0,9.193668365E0,2.602908850E0
1.195129688E0,-6.259151936E0,8.947256088E0,4.659939766E0
1.199101563E0,-5.272769451E0,7.861830711E0,5.537826538E0
1.203071875E0,-3.508635521E0,7.384024620E0,4.458559036E0
1.207042188E0,-4.903420806E-1,6.761857986E0,2.857383966E0
1.211012500E0,2.066837549E0,6.729890347E0,1.285523534E0
1.214982813E0,3.341501236E0,6.836757660E0,3.060077131E-1
1.218953125E0,3.120420694E0,7.094355106E0,1.271129549E-1
1.222923438E0,1.738784194E0,7.474658966E0,1.155594945E0
1.226893750E0,4.420749843E-1,8.494781494E0,1.383388877E0
1.230864063E0,-2.771815062E-1,9.127837181E0,2.088040829E0
1.234835938E0,-2.140703648E-1,9.935286522E0,2.091373444E0
1.238806250E0,8.084644675E-1,1.058332920E1,1.387851715E0
1.242776563E0,1.865734339E0,1.103528690E1,1.038623929E0
1.246746875E0,2.587653160E0,1.117414188E1,1.600993037E0
1.250717188E0,3.231913805E0,1.140609169E1,1.273945212E0
1.254687500E0,3.596244097E0,1.162246132E1,1.211877823E0
1.258659375E0,3.004253864E0,1.169172955E1,1.871260166E0
1.262628125E0,1.576217890E0,1.125568867E1,1.167163730E0
1.266600000E0,-2.284643054E-1,1.006157494E1,-2.833681345E0
1.270570313E0,-3.204590976E-1,9.109660149E0,-5.182000637E0
1.274540625E0,5.999581814E-1,8.259402275E0,-4.045281410E0
1.278510938E0,2.013561964E0,7.394194603E0,-2.995749712E0
1.282482813E0,2.873980522E0,6.771779060E0,-2.742653847E0
1.286451563E0,3.239737988E0,6.418500423E0,-1.857852697E0
1.290423438E0,2.586858511E0,6.512659550E0,8.653123975E-1
1.294393750E0,1.575834870E0,7.067960739E0,4.539396763E0
1.298364063E0,4.871242642E-1,7.821339607E0,7.557374477E0
1.302334375E0,-5.494692922E-1,8.801909447E0,8.727430344E0
1.306304688E0,-1.127688169E0,9.913057327E0,8.685684204E0
1.310275000E0,-1.695257545E0,1.100394249E1,8.310896873E0
1.314245313E0,-2.168974400E0,1.210521793E1,7.298608780E0
1.318217188E0,-2.119625092E0,1.297632408E1,5.781757832E0
1.322187500E0,-1.769525766E0,1.333022594E1,4.933329105E0
1.326156250E0,-8.872720003E-1,1.330177212E1,3.874459982E0
1.330128125E0,4.747797847E-1,1.279304314E1,3.147589922E0
1.334096875E0,2.245100260E0,1.191092396E1,3.035972118E0
1.338068750E0,3.379204988E0,1.086554813E1,2.859883547E0
1.342039063E0,5.332327843E0,1.002691746E1,2.550418377E0
1.346017188E0,6.570158482E0,9.985468864E0,1.714756012E0
1.349979688E0,6.800155163E0,9.866572380E0,1.580987215E0
1.353950000E0,6.086673737E0,8.823341370E0,2.858447075E0
1.357921875E0,5.128533363E0,7.627457619E0,4.283063889E0
1.361892188E0,4.315270901E0,6.624947548E0,5.199219704E0
1.365864063E0,3.752834558E0,5.527847767E0,5.611242771E0
1.369832813E0,3.099045277E0,4.817679882E0,5.214006424E0
1.373803125E0,2.297111988E0,4.267760277E0,4.174032211E0
1.377773438E0,1.360768437E0,4.149123192E0,3.225382328E0
1.381743750E0,1.070495471E-1,4.502650738E0,2.234996796E0
1.385714063E0,-8.595566750E-1,5.179807663E0,1.632539034E0
1.389685938E0,-1.644261122E0,5.826902866E0,1.648206830E0
1.393654688E0,-2.236155748E0,6.423997402E0,1.859748960E0
1.397626563E0,-2.398453951E0,6.614422798E0,1.968761563E0
1.401596875E0,-2.454487801E0,6.455907345E0,1.764919281E0
1.405567188E0,-2.980388403E0,6.865258217E0,1.794195533E0
1.409537500E0,-3.027171135E0,7.209736347E0,1.965218306E0
1.413507813E0,-2.861463547E0,7.558083057E0,2.304850101E0
1.417478125E0,-2.096813202E0,7.546562195E0,2.411602736E0
1.421450000E0,-1.601701736E0,7.537818432E0,2.532376051E0
1.425420313E0,-1.678517342E0,7.510993481E0,2.381206036E0
1.429390625E0,-2.317980051E0,7.450248241E0,2.379539490E0
1.433360938E0,-3.397448778E0,6.910489559E0,2.462829113E0
1.437331250E0,-3.100040913E0,6.307811737E0,2.474531889E0
1.441301563E0,-2.465951204E0,7.212369442E0,1.477346897E0
1.445273438E0,-2.039946079E0,7.902962685E0,7.037132978E-1
1.449243750E0,-1.401920080E0,8.634870529E0,7.916954160E-1
1.453212500E0,-3.141671419E-1,1.013824749E1,4.497364163E-1
1.457184375E0,6.651858687E-1,1.342859840E1,3.973416984E-1
1.461154688E0,2.804472208E0,1.874860191E1,-4.097341001E-1
1.465125000E0,4.831068039E0,2.287900925E1,-1.540142000E-1
1.469096875E0,5.394280434E0,2.482971001E1,8.603802919E-1
1.473067188E0,4.100606918E0,2.590418053E1,1.533419132E0
1.477037500E0,1.006857634E0,2.579438210E1,1.796293020E0
1.481007813E0,-1.674255610E0,2.445125389E1,4.593170643E0
1.484978125E0,-2.079938650E0,2.090155220E1,5.164005756E0
1.488948438E0,-1.132151008E0,1.550281048E1,4.812575340E0
1.492918750E0,1.725740582E-1,1.108575726E1,4.030389786E0
1.496889063E0,7.627064586E-1,8.979319572E0,3.231051683E0
1.500860938E0,9.429132938E-1,8.156126022E0,2.264014721E0
1.504831250E0,9.781271219E-1,8.023382187E0,1.175668001E0
1.508801563E0,4.036240876E-1,8.686728477E0,6.392901540E-1
1.512771875E0,-3.627407253E-1,9.950330734E0,2.619065344E-1
1.516742188E0,-7.157034874E-1,1.101926517E1,2.283110842E-2
1.520712500E0,-8.605431318E-1,1.188204002E1,5.764279887E-2
1.524684375E0,-1.018062472E0,1.246049786E1,2.088414282E-1
1.528654688E0,-1.104608059E0,1.270113468E1,4.537203610E-1
1.532623438E0,-7.581670284E-1,1.235408115E1,7.382473350E-1
1.536595313E0,-4.574170113E-1,1.185856724E1,1.050384164E0
1.540565625E0,-3.463547826E-1,1.128971481E1,1.377824783E0
1.544535938E0,-3.151056767E-1,1.086126804E1,1.621678948E0
1.548506250E0,-3.025121689E-1,1.058530140E1,1.709689856E0
1.552476563E0,-2.356852144E-1,1.034652328E1,1.783201456E0
1.556446875E0,-7.840532064E-2,1.021824265E1,1.836573005E0
1.560418750E0,1.128052026E-1,1.022110558E1,1.946351886E0
1.564389063E0,2.118006647E-1,1.027690029E1,2.050289154E0
1.568359375E0,3.037667274E-1,1.032727432E1,2.155413628E0
1.572329688E0,3.329185545E-1,1.037555122E1,2.297523975E0
1.576300000E0,3.681516051E-1,1.038180447E1,2.381569862E0
1.580270313E0,4.342507422E-1,1.038666058E1,2.454075813E0
1.584242188E0,4.992963970E-1,1.044403458E1,2.557697058E0
1.588212500E0,5.296739936E-1,1.050409126E1,2.604058266E0
1.592181250E0,5.465579033E-1,1.052726650E1,2.609459400E0
1.596153125E0,5.649549961E-1,1.054488754E1,2.590459347E0
1.600123438E0,5.178658366E-1,1.057106113E1,2.577003956E0
1.604093750E0,4.352275729E-1,1.062645340E1,2.562715054E0
1.608065625E0,3.237439692E-1,1.066948223E1,2.590056896E0
1.612034375E0,3.179020882E-1,1.064609528E1,2.668337822E0
1.616004688E0,4.092743993E-1,1.051634884E1,2.759489775E0
1.619976563E0,6.121112108E-1,1.027635479E1,2.887665749E0
1.623948438E0,8.487541080E-1,9.964025497E0,3.043710232E0
1.627917188E0,1.047664285E0,9.707740784E0,3.087064505E0
1.631887500E0,1.111647010E0,9.416357040E0,3.033482075E0
1.635857813E0,1.113198519E0,9.146663666E0,2.924373865E0
1.639828125E0,1.080809712E0,8.920115471E0,2.812066317E0
1.643800000E0,9.872921705E-1,8.752770424E0,2.695315599E0
1.647770313E0,1.069499493E0,8.584257126E0,2.650649309E0
1.651739063E0,1.179106116E0,8.474469185E0,2.692193508E0
1.655710938E0,1.236394525E0,8.419353485E0,2.652584076E0
1.659681250E0,1.269788861E0,8.385452271E0,2.367760181E0
1.663651563E0,1.162921309E0,8.363894463E0,1.793994546E0
1.667623438E0,9.630532861E-1,8.271707535E0,1.008274913E0
1.671592188E0,-3.635873079E0,8.829729080E0,-1.479377151E0
1.675564063E0,-4.801705360E0,8.857224464E0,-2.958831072E0
1.679534375E0,-2.159617901E0,8.666463852E0,-3.273007870E0
1.683504688E0,9.537541866E-2,8.607882500E0,-3.174433947E0
1.687475000E0,1.610828519E0,8.454529762E0,-2.847855091E0
1.691445313E0,2.334174395E0,8.477475166E0,-2.354275942E0
1.695415625E0,2.375402451E0,8.892179489E0,-2.025465965E0
1.699387500E0,1.841591239E0,9.547166824E0,-1.579636812E0
1.703356250E0,1.061215520E0,9.952035904E0,-8.338334560E-1
1.707328125E0,5.063353777E-1,9.937326431E0,-1.520509571E-1
1.711298438E0,3.812526762E-1,9.335375786E0,5.633173585E-1
1.715268750E0,7.711340189E-1,8.637685776E0,1.082859159E0
1.719239063E0,1.196334720E0,9.350669861E0,1.562139988E0
1.723209375E0,1.211044669E0,9.839460373E0,1.633247852E0
1.727179688E0,5.629726052E-1,1.020526600E1,2.249745131E0
1.731150000E0,2.901868224E-1,1.039570999E1,2.493484259E0
1.735121875E0,1.113112271E-1,1.053289700E1,2.864691257E0
1.739092188E0,7.168239355E-2,1.063914299E1,2.786812544E0
1.743062500E0,9.327810258E-2,1.068910503E1,2.696292400E0
1.747032813E0,5.897397548E-2,1.075220680E1,2.704461336E0
1.751003125E0,1.127190143E-2,1.076057720E1,2.644328833E0
1.754973438E0,-1.996764168E-2,1.072777653E1,2.495993614E0
1.758945313E0,6.988196075E-2,1.063374138E1,2.290954113E0
1.762915625E0,1.602199674E-1,1.054746342E1,2.114932299E0
1.766885938E0,2.228331417E-1,1.043449593E1,1.929008245E0
1.770856250E0,3.015353382E-1,1.034200287E1,1.724237084E0
1.774826563E0,3.821337521E-1,1.024646473E1,1.542430878E0
1.778796875E0,4.783423543E-1,1.013300896E1,1.348615527E0
1.782767188E0,5.616126657E-1,1.003561211E1,1.169730306E0
1.786737500E0,6.619584560E-1,9.957647324E0,1.017401695E0
1.790707813E0,7.320032120E-1,9.867271423E0,8.732036948E-1
1.794679688E0,7.816972733E-1,9.798317909E0,6.949697137E-1
1.798650000E0,8.135305643E-1,9.739315033E0,5.671576262E-1
1.802620313E0,7.814673781E-1,9.677881241E0,5.015086532E-1
1.806590625E0,7.108001709E-1,9.633540154E0,5.121963620E-1
1.810560938E0,5.931874514E-1,9.624997139E0,5.923063159E-1
1.814531250E0,5.079634190E-1,9.622909546E0,6.983311772E-1
1.818503125E0,4.509239495E-1,9.591286659E0,8.339196444E-1
1.822471875E0,3.937312663E-1,9.566740990E0,9.744688272E-1
1.826443750E0,3.571957350E-1,9.550154686E0,1.080493689E0
1.830414063E0,2.949656248E-1,9.552760124E0,1.187964559E0
1.834385938E0,2.531628907E-1,9.561790466E0,1.276818275E0
1.838356250E0,2.354074866E-1,9.611618042E0,1.363631964E0
1.842326563E0,2.266063988E-1,9.640338898E0,1.413996339E0
1.846296875E0,2.561700046E-1,9.688214302E0,1.468450069E0
1.850267188E0,3.107578158E-1,9.744917870E0,1.517416239E0
1.854237500E0,3.707086146E-1,9.782918930E0,1.536512494E0
1.858207813E0,4.519390762E-1,9.814608574E0,1.535439849E0
1.862178125E0,5.343571305E-1,9.840476036E0,1.505062222E0
1.866148438E0,5.940780640E-1,9.880333900E0,1.469101310E0
1.870118750E0,6.314371824E-1,9.881368637E0,1.413967609E0
1.874090625E0,6.317340732E-1,9.908269882E0,1.361592054E0
1.878060938E0,6.467505097E-1,9.912876129E0,1.320852280E0
1.882029688E0,6.383228898E-1,9.914608955E0,1.301756263E0
1.886001563E0,6.420099735E-1,9.927634239E0,1.278072715E0
1.889971875E0,6.389070749E-1,9.931349754E0,1.267911792E0
1.893942188E0,6.371833086E-1,9.929970741E0,1.261725068E0
1.897912500E0,5.873456001E-1,9.976360321E0,1.258363605E0
1.901884375E0,5.679812431E-1,9.990764618E0,1.236835003E0
1.905854688E0,6.061831713E-1,9.968134880E0,1.246651292E0
1.909825000E0,6.360052824E-1,9.984462738E0,1.264808893E0
1.913795313E0,6.146490574E-1,9.986751556E0,1.281290531E0
1.917765625E0,5.700210929E-1,9.974196434E0,1.300674081E0
1.921735938E0,5.365693569E-1,9.983687401E0,1.304571748E0
1.925706250E0,5.137094855E-1,9.981570244E0,1.289584160E0
1.929676563E0,5.027727485E-1,9.928247452E0,1.299438596E0
1.933648438E0,5.267627239E-1,9.891893387E0,1.283435822E0
1.937618750E0,5.212464333E-1,9.859025002E0,1.276502252E0
1.941589063E0,5.105491281E-1,9.829566956E0,1.277373672E0
1.945559375E0,5.318383574E-1,9.801219940E0,1.256745219E0
1.949529688E0,5.448724627E-1,9.782899857E0,1.272757530E0
1.953500000E0,5.526392460E-1,9.747350693E0,1.285379887E0
1.957471875E0,5.830360055E-1,9.729183197E0,1.282334447E0
1.961442188E0,6.106842756E-1,9.721742630E0,1.282746196E0
1.965410938E0,6.459077001E-1,9.718582153E0,1.285590529E0
1.969382813E0,7.197353244E-1,9.722844124E0,1.298365951E0
1.973353125E0,7.391187549E-1,9.739986420E0,1.304159880E0
1.977323438E0,7.809981704E-1,9.744754791E0,1.304619670E0
1.981293750E0,7.934575677E-1,9.754686356E0,1.305855155E0
1.985264063E0,7.829518318E-1,9.767547607E0,1.313372850E0
1.989234375E0,6.430730224E-1,9.820833206E0,1.286260843E0
1.993206250E0,5.227021128E-2,9.880822182E0,1.194371462E0
1.997176563E0,-3.799693882E-1,9.901259422E0,1.168063998E0
2.001146875E0,-3.469389677E-1,9.900177956E0,1.134554744E0
2.005117188E0,-1.653627157E-1,9.889968872E0,1.087934852E0
2.009087500E0,3.786669672E-2,9.887219429E0,1.060755849E0
2.013057813E0,3.781881034E-1,9.847112656E0,1.061378241E0
2.017029688E0,8.391772509E-1,9.838244438E0,1.029142857E0
2.021000000E0,1.162729740E0,9.796766281E0,1.053056121E0
2.024970313E0,1.269597292E0,9.762357712E0,1.122641206E0
2.028940625E0,1.216206551E0,9.724164963E0,1.176980019E0
2.032910938E0,1.112872839E0,9.698997498E0,1.274749637E0
2.036881250E0,9.132825732E-1,9.676827431E0,1.391730309E0
2.040851563E0,7.439934015E-1,9.683358192E0,1.468440533E0
2.044821875E0,6.386389136E-1,9.707223892E0,1.536684871E0
2.048792188E0,5.804598331E-1,9.728187561E0,1.555397987E0
2.052764063E0,5.897972584E-1,9.755662918E0,1.575490117E0
2.056734375E0,6.477081776E-1,9.764943123E0,1.561019540E0
2.060704688E0,6.064608693E-1,9.779442787E0,1.512848139E0
2.064675000E0,6.271946430E-1,9.776176453E0,1.453606129E0
2.068645313E0,6.361202598E-1,9.788195610E0,1.411065936E0
2.072615625E0,7.036079764E-1,9.792390823E0,1.389019966E0
2.076587500E0,7.943577766E-1,9.817654610E0,1.351718426E0
2.080556250E0,7.901440263E-1,9.843004227E0,1.295186520E0
2.084528125E0,7.897992730E-1,9.830430031E0,1.289957523E0
2.088498438E0,6.970478892E-1,9.836548805E0,1.308584452E0
2.092468750E0,5.921913981E-1,9.838100433E0,1.285217047E0
2.096440625E0,5.071589947E-1,9.827383995E0,1.282238603E0
2.100410938E0,4.609700441E-1,9.825984955E0,1.273945212E0
2.104379688E0,4.533947706E-1,9.804792404E0,1.277641892E0
2.108351563E0,4.352084100E-1,9.811533928E0,1.291413188E0
2.112321875E0,3.977918029E-1,9.826674461E0,1.306218982E0
2.116292188E0,3.300263286E-1,9.861208916E0,1.325123668E0
2.120262500E0,3.266744614E-1,9.898664474E0,1.343444109E0
2.124260938E0,3.556347489E-1,9.919733047E0,1.349956274E0
2.128203125E0,3.912221491E-1,9.938244820E0,1.346594810E0
2.132175000E0,4.054245353E-1,9.954459190E0,1.325583220E0
2.136145313E0,4.557793736E-1,9.945973396E0,1.302656412E0
2.140115625E0,4.912997782E-1,9.933370590E0,1.263295770E0
2.144085938E0,5.440392494E-1,9.910615921E0,1.251822710E0
2.148056250E0,5.691208839E-1,9.896729469E0,1.225850463E0
2.152026563E0,5.520454645E-1,9.885572433E0,1.228886247E0
2.155996875E0,5.376994014E-1,9.846144676E0,1.221320510E0
2.159967188E0,5.040464997E-1,9.832324982E0,1.224921465E0
2.163939063E0,5.231713653E-1,9.801449776E0,1.231452823E0
2.167909375E0,5.045061707E-1,9.791002274E0,1.235398531E0
2.171879688E0,4.997465312E-1,9.760307312E0,1.272278786E0
2.175850000E0,4.929469824E-1,9.745597839E0,1.296393156E0
2.179820313E0,4.948048592E-1,9.752282143E0,1.293874502E0
2.183790625E0,4.964520931E-1,9.752790451E0,1.310289145E0
2.187760938E0,5.556942225E-1,9.783608437E0,1.318956137E0
2.191732813E0,6.222913265E-1,9.822758675E0,1.329557657E0
2.195703125E0,6.786507964E-1,9.852015495E0,1.333771467E0
2.199673438E0,6.711618304E-1,9.886109352E0,1.342304468E0
2.203643750E0,6.213431954E-1,9.949956894E0,1.341653228E0
2.207614063E0,5.772228837E-1,9.988121033E0,1.376081824E0
2.211584375E0,5.808141828E-1,9.994709969E0,1.392477274E0
2.215556250E0,5.966542363E-1,9.992430687E0,1.373285413E0
2.219525000E0,6.311786175E-1,9.962062836E0,1.362176299E0
2.223496875E0,6.535308957E-1,9.946328163E0,1.351182103E0
2.227467188E0,6.418567300E-1,9.938015938E0,1.338397145E0
2.231437500E0,5.901994705E-1,9.935678482E0,1.323648810E0
2.235407813E0,5.713618994E-1,9.915433884E0,1.326473832E0
2.239378125E0,5.393178463E-1,9.887986183E0,1.322413325E0
2.243348438E0,5.359755754E-1,9.872500420E0,1.342850208E0
2.247320313E0,5.576095581E-1,9.848826408E0,1.366610408E0
2.251290625E0,5.867900848E-1,9.836520195E0,1.380860567E0
2.255260938E0,6.330364943E-1,9.798203468E0,1.401355028E0
2.259231250E0,6.846076250E-1,9.764933586E0,1.405501723E0
2.263201563E0,6.892810464E-1,9.749064445E0,1.383159041E0
2.267171875E0,6.726749539E-1,9.750299454E0,1.370354891E0
2.271143750E0,6.631172299E-1,9.750674248E0,1.375871062E0
2.275112500E0,6.177327633E-1,9.732678413E0,1.356276989E0
2.279082813E0,5.938290358E-1,9.726464272E0,1.351804614E0
2.283054688E0,5.818580389E-1,9.712682724E0,1.329050064E0
2.287025000E0,5.129625201E-1,9.723437309E0,1.296891212E0
2.290995313E0,4.431188405E-1,9.754552841E0,1.252349496E0
2.294965625E0,4.421036839E-1,9.759829521E0,1.221703649E0
2.298935938E0,4.740231931E-1,9.750760078E0,1.179967880E0
2.302906250E0,5.294632912E-1,9.761955261E0,1.124135137E0
2.306878125E0,5.804885626E-1,9.757675171E0,1.102156401E0
2.310848438E0,6.284300685E-1,9.735332489E0,1.098699212E0
2.314818750E0,6.230861545E-1,9.737926483E0,1.126979470E0
2.318789063E0,6.435422301E-1,9.736547470E0,1.153239012E0
2.322759375E0,6.404010653E-1,9.757089615E0,1.213477135E0
2.326729688E0,6.366277933E-1,9.787219048E0,1.261016488E0
2.330701563E0,6.374226809E-1,9.805472374E0,1.302100897E0
2.334671875E0,5.873934031E-1,9.863077164E0,1.363842607E0
2.338642188E0,5.559240580E-1,9.919771194E0,1.388742328E0
2.342612500E0,5.483583808E-1,9.951040268E0,1.386769533E0
2.346582813E0,5.483200550E-1,9.976543427E0,1.383446455E0
2.350553125E0,5.551770926E-1,9.982241631E0,1.385668159E0
2.354523438E0,5.925170183E-1,9.972941399E0,1.375344396E0
2.358493750E0,6.028887033E-1,9.974081039E0,1.388847709E0
2.362465625E0,6.047370434E-1,9.968173027E0,1.387238741E0
2.366435938E0,6.176849008E-1,9.955310822E0,1.379242182E0
2.370406250E0,6.432932615E-1,9.948195457E0,1.375775337E0
2.374376563E0,6.777697802E-1,9.933226585E0,1.381119132E0
2.378346875E0,6.975554824E-1,9.898050308E0,1.381234169E0
2.382317188E0,6.755096316E-1,9.828475952E0,1.385170221E0
2.386287500E0,6.692655683E-1,9.777728081E0,1.388100743E0
2.390259375E0,6.294835210E-1,9.725678444E0,1.382776022E0
2.394228125E0,5.679237843E-1,9.692628860E0,1.367175460E0
2.398200000E0,4.970745742E-1,9.671425819E0,1.359399080E0
2.402170313E0,4.169071317E-1,9.653153419E0,1.322260141E0
2.406140625E0,3.561614454E-1,9.642637253E0,1.295512080E0
2.410110938E0,3.475806415E-1,9.622191429E0,1.280696750E0
2.414081250E0,3.363182843E-1,9.632169724E0,1.241441369E0
2.418051563E0,3.364236355E-1,9.614462852E0,1.234249234E0
2.422023438E0,4.686697721E-1,9.585090637E0,1.230667591E0
2.425992188E0,4.391827583E-1,9.599579811E0,1.236423254E0
2.429964063E0,4.271734655E-1,9.618417740E0,1.214482784E0
2.433934375E0,4.619947374E-1,9.649945259E0,1.172957778E0
2.437904688E0,5.283332467E-1,9.672067642E0,1.165995359E0
2.441875000E0,6.013851166E-1,9.676750183E0,1.176520228E0
2.445845313E0,6.865708828E-1,9.694046021E0,1.198068142E0
2.449817188E0,7.020182610E-1,9.709157944E0,1.206227541E0
2.453787500E0,7.325586677E-1,9.741144180E0,1.235752821E0
2.457757813E0,7.609634995E-1,9.775812149E0,1.254810691E0
2.461728125E0,7.901536226E-1,9.816466331E0,1.264282107E0
2.465698438E0,7.923083305E-1,9.857397079E0,1.285466075E0
2.469670313E0,7.666521072E-1,9.912914276E0,1.331559181E0
2.473639063E0,7.317637801E-1,9.970251083E0,1.339661241E0
2.477609375E0,7.205876708E-1,1.002193642E1,1.355300188E0
2.481581250E0,6.835254431E-1,1.007082653E1,1.363526583E0
2.485551563E0,6.687963009E-1,1.010892296E1,1.359130859E0
2.489521875E0,6.362543106E-1,1.013535404E1,1.343396068E0
2.493492188E0,6.699359417E-1,1.013035583E1,1.319396734E0
2.497462500E0,5.816760659E-1,1.014067936E1,1.289066911E0
2.501434375E0,4.218775034E-1,1.013432980E1,1.276339412E0
2.505404688E0,3.449182808E-1,1.009911633E1,1.244716644E0
2.509375000E0,3.675961494E-1,1.002996159E1,1.209550619E0
2.513345313E0,4.265605509E-1,9.939614296E0,1.169423819E0
2.517315625E0,4.520923197E-1,9.943865776E0,1.145750046E0
2.521285938E0,3.554335833E-1,9.971361160E0,1.110181808E0
2.525257813E0,2.467081100E-1,9.965692520E0,1.101850033E0
2.529228125E0,1.447246969E-1,9.966400146E0,1.125648260E0
2.533198438E0,7.930553705E-2,9.951652527E0,1.164012909E0
2.537167188E0,2.930502966E-2,9.951498985E0,1.172478914E0
2.541139063E0,9.122866392E-2,9.955760956E0,1.141861796E0
2.545107813E0,2.075772882E-1,9.965615273E0,1.102549076E0
2.549079688E0,2.576065361E-1,9.943359375E0,1.075111508E0
2.553050000E0,2.023866624E-1,9.940466881E0,1.026528358E0
2.557020313E0,1.166072041E-1,9.928198814E0,9.804543257E-1
2.560992188E0,2.767697209E-3,9.914475441E0,9.755988717E-1
2.564962500E0,4.017470405E-2,9.817730904E0,9.278010130E-1
2.568931250E0,2.014481425E-1,9.692638397E0,9.436793923E-1
2.572903125E0,3.799981177E-1,9.561090469E0,1.007192731E0
2.576873438E0,5.831605196E-1,9.431717873E0,1.134602666E0
2.580843750E0,6.955922246E-1,9.359691620E0,1.238482237E0
2.584814063E0,7.288715839E-1,9.341188431E0,1.357253790E0
2.588785938E0,6.637971997E-1,9.400650978E0,1.448750615E0
2.592754688E0,6.440115571E-1,9.432388306E0,1.519283772E0
2.596726563E0,7.266210318E-1,9.457642555E0,1.610196352E0
2.600696875E0,9.902034998E-1,9.480473518E0,1.731084466E0
2.604667188E0,1.050680995E0,9.532093048E0,1.836209059E0
2.608637500E0,7.832008600E-1,9.663916588E0,1.836908221E0
2.612607813E0,5.383985043E-1,9.789727211E0,1.758589029E0
2.616578125E0,4.304870367E-1,9.878437042E0,1.695382118E0
2.620550000E0,5.085380077E-1,9.901202202E0,1.663654208E0
2.624518750E0,6.662489176E-1,9.918918610E0,1.627003670E0
2.628490625E0,8.992621303E-1,9.942124367E0,1.582912087E0
2.632460938E0,1.085502267E0,9.969388962E0,1.538303375E0
2.636431250E0,1.199293971E0,9.978171349E0,1.486425757E0
2.640401563E0,1.303910971E0,1.001070309E1,1.425507665E0
2.644373438E0,1.408614278E0,1.003943348E1,1.350837231E0
2.648342188E0,1.480210423E0,1.005937195E1,1.303355455E0
2.652314063E0,1.541818023E0,1.009701824E1,1.298950195E0
2.656290625E0,1.520298958E0,1.012125778E1,1.262730718E0
2.660254688E0,1.510664701E0,1.016829872E1,1.239468575E0
2.664225000E0,1.445772171E0,1.019209766E1,1.202425480E0
2.668195313E0,1.341528654E0,1.023672581E1,1.173810005E0
2.672165625E0,1.235283613E0,1.024780560E1,1.145864964E0
2.676135938E0,1.120160818E0,1.025158882E1,1.113485694E0
2.680107813E0,9.612145424E-1,1.022668839E1,1.079018831E0
2.684078125E0,7.861121893E-1,1.020836830E1,1.069269657E0
2.688048438E0,6.820793748E-1,1.015998650E1,1.044484854E0
2.692018750E0,5.883607268E-1,1.012195683E1,1.049330711E0
2.695989063E0,4.937705696E-1,1.005649948E1,1.071759701E0
2.699960938E0,4.304583073E-1,9.985276222E0,1.120946050E0
2.703929688E0,4.133062363E-1,9.930181503E0,1.145750046E0
2.707901563E0,4.092073739E-1,9.866705894E0,1.170362473E0
2.711871875E0,4.257560968E-1,9.806841850E0,1.209033608E0
2.715842188E0,4.232373834E-1,9.752072334E0,1.230868697E0
2.719812500E0,4.239364862E-1,9.701975822E0,1.261322856E0
2.723782813E0,4.134115875E-1,9.635283470E0,1.285044670E0
2.727753125E0,4.008276761E-1,9.597234726E0,1.286107659E0
2.731723438E0,4.106247425E-1,9.579900742E0,1.291059017E0
2.735693750E0,4.479168355E-1,9.574805260E0,1.294659734E0
2.739665625E0,5.014990568E-1,9.569576263E0,1.267452002E0
2.743634375E0,5.470846295E-1,9.587446213E0,1.237390518E0
2.747606250E0,6.387730241E-1,9.612002373E0,1.226281404E0
2.751576563E0,7.048146725E-1,9.636690140E0,1.207941771E0
2.755546875E0,7.660295963E-1,9.655249596E0,1.214664698E0
2.759518750E0,8.341111541E-1,9.680915833E0,1.200941205E0
2.763487500E0,9.089443088E-1,9.718725204E0,1.197627544E0
2.767459375E0,9.621338844E-1,9.726511955E0,1.203239679E0
2.771429688E0,9.985066056E-1,9.739488602E0,1.227784872E0
2.775400000E0,1.035262465E0,9.735877991E0,1.245683908E0
2.779370313E0,1.063810945E0,9.745876312E0,1.280610561E0
2.783340625E0,1.058629751E0,9.765144348E0,1.314148545E0
2.787310938E0,1.052146316E0,9.777967453E0,1.359782100E0
2.791281250E0,1.014202952E0,9.790972710E0,1.399870634E0
2.795253125E0,9.586479664E-1,9.802952766E0,1.446298957E0
2.799223438E0,8.205025196E-1,9.834997177E0,1.526265264E0
2.803193750E0,7.132135630E-1,9.855721474E0,1.552984595E0
2.807164063E0,6.550727487E-1,9.882411957E0,1.548742056E0
2.811134375E0,6.214294434E-1,9.931024551E0,1.534922719E0
2.815104688E0,5.755181909E-1,9.951815605E0,1.511651158E0
2.819076563E0,5.291281939E-1,1.000857735E1,1.492526293E0
2.823045313E0,5.161994696E-1,1.004840755E1,1.469819546E0
2.827017188E0,5.464525819E-1,1.007299995E1,1.427001715E0
2.830987500E0,5.602815151E-1,1.008695412E1,1.375804067E0
2.834957813E0,5.883511305E-1,1.009934616E1,1.300798416E0
2.838928125E0,6.266008615E-1,1.011298370E1,1.211648107E0
2.842898438E0,6.597462296E-1,1.012964725E1,1.145098805E0
2.846868750E0,7.110682726E-1,1.012315464E1,1.106667161E0
2.850840625E0,7.284215093E-1,1.010590649E1,1.103047013E0
2.854810938E0,7.512430549E-1,1.009139729E1,1.081930161E0
2.858781250E0,7.571614981E-1,1.006432343E1,1.124786377E0
2.862751563E0,7.911208272E-1,1.003113937E1,1.158611655E0
2.866721875E0,8.249174356E-1,9.998894691E0,1.231088996E0
2.870692188E0,8.509663343E-1,9.949038506E0,1.328015804E0
2.874662500E0,8.845905066E-1,9.905703545E0,1.406583905E0
2.878634375E0,9.470983148E-1,9.861554146E0,1.491769671E0
2.882603125E0,1.046754479E0,9.787726402E0,1.535880327E0
2.886575000E0,1.099695206E0,9.744640350E0,1.642173290E0
2.890545313E0,1.129105449E0,9.703632355E0,1.715838194E0
2.894515625E0,1.158774376E0,9.657070160E0,1.797940135E0
2.898485938E0,1.130781531E0,9.618379593E0,1.865083098E0
2.902456250E0,1.070610404E0,9.597588539E0,1.910687923E0
2.906426563E0,9.467343688E-1,9.597818375E0,1.967487931E0
2.910398438E0,8.045858741E-1,9.614749908E0,1.984410167E0
2.914368750E0,6.961380839E-1,9.651543617E0,1.961416245E0
2.918339063E0,5.875849724E-1,9.699821472E0,1.923606992E0
2.922309375E0,5.552440882E-1,9.758785248E0,1.854529500E0
2.926279688E0,5.362915993E-1,9.815182686E0,1.771603823E0
2.930250000E0,4.977162182E-1,9.868458748E0,1.724208236E0
2.934221875E0,4.600027502E-1,9.936722755E0,1.664726853E0
2.938192188E0,3.858495355E-1,9.987268448E0,1.624868035E0
2.942160938E0,3.888662457E-1,1.004267979E1,1.615157247E0
2.946132813E0,4.303050935E-1,1.007086468E1,1.594260573E0
2.950103125E0,2.469092309E-1,1.014519024E1,1.552208900E0
2.954073438E0,2.204006314E-1,1.016755199E1,1.525211811E0
2.958045313E0,4.507898986E-1,1.013258648E1,1.488609195E0
2.962014063E0,7.703871131E-1,1.002641869E1,1.528774381E0
2.965984375E0,1.006991625E0,9.891788483E0,1.604843020E0
2.969956250E0,9.241043925E-1,9.794210434E0,1.652238607E0
2.973925000E0,7.918582559E-1,9.725218773E0,1.610933781E0
2.977896875E0,5.845874548E-1,9.657481194E0,1.606844425E0
2.981867188E0,4.317224324E-1,9.567460060E0,1.622090816E0
2.985837500E0,3.444107175E-1,9.433126450E0,1.659967065E0
2.989807813E0,3.614574373E-1,9.298572540E0,1.698743582E0
2.993779688E0,4.286961555E-1,9.180787086E0,1.701760292E0
2.997750000E0,5.417791009E-1,9.071725845E0,1.703570366E0
3.001720313E0,6.605123878E-1,8.991088867E0,1.706539035E0
3.005690625E0,7.233170867E-1,8.983055115E0,1.723461270E0
3.009660938E0,7.627160549E-1,9.009056091E0,1.752354503E0
3.013637500E0,7.020756602E-1,9.046941757E0,1.733267903E0
3.017601563E0,7.272818685E-1,9.105944633E0,1.710580468E0
3.021571875E0,7.213538289E-1,9.164649010E0,1.735652566E0
3.025543750E0,7.174369097E-1,9.233535767E0,1.764028668E0
3.029514063E0,6.977757215E-1,9.322072983E0,1.831545115E0
3.033484375E0,7.002657056E-1,9.382311821E0,1.871365428E0
3.037454688E0,7.010605335E-1,9.444283485E0,1.916721344E0
3.041425000E0,7.231829762E-1,9.502806664E0,1.923769832E0
3.045395313E0,7.541256547E-1,9.571893692E0,1.908600092E0
3.049365625E0,7.872231007E-1,9.621319771E0,1.910161138E0
3.053337500E0,8.251376748E-1,9.669013023E0,1.881028533E0
3.057307813E0,8.590682745E-1,9.706763268E0,1.871231437E0
3.061278125E0,8.612614274E-1,9.752915382E0,1.847624660E0
3.065248438E0,8.416768312E-1,9.771110535E0,1.856195807E0
3.069218750E0,8.387079835E-1,9.782267570E0,1.854405046E0
3.073189063E0,8.283554912E-1,9.792906761E0,1.834437370E0
3.077159375E0,8.274456859E-1,9.790493965E0,1.789589167E0
3.081129688E0,8.114811182E-1,9.805337906E0,1.749299526E0
3.085101563E0,8.113183379E-1,9.811275482E0,1.725616097E0
3.089071875E0,8.048539758E-1,9.846030235E0,1.744606972E0
3.093042188E0,7.834977508E-1,9.870834351E0,1.782454491E0
3.097012500E0,7.568742037E-1,9.909341812E0,1.842529774E0
3.100982813E0,7.456214428E-1,9.957073212E0,1.911128402E0
3.104953125E0,7.131656408E-1,1.000364590E1,1.983059764E0
3.108925000E0,6.756628752E-1,1.004161739E1,2.063878536E0
3.112895313E0,6.521996856E-1,1.006178570E1,2.148489475E0
3.116893750E0,6.210846305E-1,1.005932426E1,2.210777044E0
3.120835938E0,6.003795862E-1,1.002388096E1,2.266466379E0
3.124806250E0,5.687378645E-1,9.973928452E0,2.279873848E0
3.128776563E0,5.195417404E-1,9.897687912E0,2.254993200E0
3.132750000E0,4.444500208E-1,9.807253838E0,2.180600643E0
3.136717188E0,4.154801965E-1,9.757597923E0,2.123790979E0
3.140687500E0,3.721642792E-1,9.700768471E0,2.061388493E0
3.144659375E0,3.579235971E-1,9.642953873E0,2.006273985E0
3.148629688E0,3.483180404E-1,9.586603165E0,1.934639573E0
3.152600000E0,3.668874800E-1,9.548593521E0,1.864585042E0
3.156570313E0,3.644837141E-1,9.512900352E0,1.802220941E0
3.160540625E0,3.841640353E-1,9.495518684E0,1.752392769E0
3.164512500E0,4.264551997E-1,9.482446671E0,1.693610311E0
3.168482813E0,4.575031996E-1,9.469144821E0,1.672675490E0
3.172453125E0,5.027919412E-1,9.481296539E0,1.651558638E0
3.176423438E0,5.415971875E-1,9.471145630E0,1.659306288E0
3.180393750E0,5.856217742E-1,9.485491753E0,1.681581855E0
3.184364063E0,6.398264766E-1,9.483117104E0,1.740709066E0
3.188334375E0,6.560016870E-1,9.488335609E0,1.797518849E0
3.192306250E0,6.861111522E-1,9.516463280E0,1.819631577E0
3.196275000E0,6.945579052E-1,9.538097382E0,1.855630875E0
3.200246875E0,7.238628864E-1,9.573167801E0,1.876058102E0
3.204217188E0,7.515207529E-1,9.609999657E0,1.879333377E0
3.208187500E0,7.427962422E-1,9.656667709E0,1.894761562E0
3.212157813E0,7.474410534E-1,9.708785057E0,1.907345533E0
3.216128125E0,7.564719915E-1,9.755941391E0,1.913235307E0
3.220098438E0,7.508599758E-1,9.793558121E0,1.899090290E0
3.224070313E0,7.464163303E-1,9.823965073E0,1.894340158E0
3.228040625E0,7.293887138E-1,9.853442192E0,1.890538335E0
3.232010938E0,7.307773829E-1,9.893215179E0,1.893037796E0
3.235981250E0,6.965498924E-1,9.919752121E0,1.903543591E0
3.239951563E0,6.501885653E-1,9.925125122E0,1.916615963E0
3.243921875E0,6.400371790E-1,9.948512077E0,1.920513630E0
3.247893750E0,6.127241254E-1,9.945916176E0,1.936698437E0
3.251864063E0,5.612104535E-1,9.942554474E0,1.931565285E0
3.255834375E0,5.514900088E-1,9.946997643E0,1.915801883E0
3.259804688E0,5.141596198E-1,9.915768623E0,1.917276740E0
3.263775000E0,4.935503304E-1,9.899162292E0,1.902049541E0
3.267745313E0,4.571967423E-1,9.877163887E0,1.891802311E0
3.271715625E0,4.360990524E-1,9.848319054E0,1.864977837E0
3.275685938E0,4.175966382E-1,9.838005066E0,1.862334609E0
3.279656250E0,4.022641778E-1,9.821876526E0,1.853207827E0
3.283628125E0,3.893067539E-1,9.803164482E0,1.836793184E0
3.287598438E0,3.882437348E-1,9.789565086E0,1.819028378E0
3.291568750E0,3.846045434E-1,9.778858185E0,1.807765961E0
3.295539063E0,3.848152459E-1,9.756160736E0,1.785873413E0
3.299509375E0,3.810898662E-1,9.731175423E0,1.797001600E0
3.303479688E0,4.028100669E-1,9.707645416E0,1.796637654E0
3.307451563E0,4.265605509E-1,9.696105003E0,1.799137235E0
3.311421875E0,4.682962596E-1,9.677420616E0,1.797423005E0
3.315392188E0,4.668693244E-1,9.659129143E0,1.825511694E0
3.319362500E0,4.696083069E-1,9.635905266E0,1.830587506E0
3.323332813E0,4.854004383E-1,9.611426353E0,1.853198409E0
3.327303125E0,4.965670109E-1,9.589007378E0,1.853830338E0
3.331273438E0,5.129241943E-1,9.588183403E0,1.837233782E0
3.335243750E0,5.373641849E-1,9.569116592E0,1.837769985E0
3.339214063E0,5.602336526E-1,9.570936203E0,1.842223287E0
3.343185938E0,5.795308948E-1,9.575743675E0,1.864087105E0
3.347156250E0,5.616797209E-1,9.584985733E0,1.870187640E0
3.351126563E0,5.661712885E-1,9.599081993E0,1.890930891E0
3.355096875E0,5.635951161E-1,9.606743813E0,1.912660599E0
3.359067188E0,5.636429191E-1,9.607136726E0,1.922869682E0
3.363037500E0,5.555697083E-1,9.622986794E0,1.933959484E0
3.367009375E0,5.606262684E-1,9.641785622E0,1.925981998E0
3.370978125E0,5.804119110E-1,9.648000717E0,1.909825921E0
3.374950000E0,5.916934013E-1,9.658496857E0,1.921998024E0
3.378920313E0,5.785061717E-1,9.672047615E0,1.921710849E0
3.382890625E0,5.785731673E-1,9.682228088E0,1.899741530E0
3.386860938E0,5.709596276E-1,9.695751190E0,1.877714992E0
3.390832813E0,5.714576244E-1,9.726376534E0,1.862966657E0
3.394801563E0,5.698774457E-1,9.723360062E0,1.847088218E0
3.398771875E0,5.696572065E-1,9.743069649E0,1.822830200E0
3.402743750E0,5.588641167E-1,9.769013405E0,1.810734749E0
3.406714063E0,5.535777807E-1,9.790532112E0,1.803877831E0
3.410684375E0,5.588161945E-1,9.814129829E0,1.803820372E0
3.414654688E0,5.579255819E-1,9.827805519E0,1.793027163E0
3.418625000E0,5.605209470E-1,9.815393448E0,1.819334745E0
3.422596875E0,5.608752370E-1,9.811418533E0,1.858570933E0
3.426567188E0,5.788125992E-1,9.772642136E0,1.876077294E0
3.430537500E0,5.760928392E-1,9.760078430E0,1.913120389E0
3.434507813E0,5.846544504E-1,9.750376701E0,1.945556998E0
3.438478125E0,5.822506547E-1,9.722996712E0,1.956302285E0
3.442448438E0,5.759874582E-1,9.708745956E0,1.964940429E0
3.446418750E0,5.651656389E-1,9.693001747E0,1.969096780E0
3.450389063E0,5.697337985E-1,9.673283577E0,1.966645122E0
3.454359375E0,5.770504475E-1,9.670200348E0,1.963542223E0
3.458331250E0,5.660179853E-1,9.677353859E0,1.958236694E0
3.462301563E0,5.753650069E-1,9.670525551E0,1.949301481E0
3.466271875E0,5.784583092E-1,9.663371086E0,1.911406159E0
3.470243750E0,5.715725422E-1,9.672545433E0,1.878682137E0
3.474214063E0,5.754128695E-1,9.682007790E0,1.865935445E0
3.478182813E0,5.625512004E-1,9.692599297E0,1.852374792E0
3.482154688E0,5.730761290E-1,9.693241119E0,1.821374655E0
3.486125000E0,5.576957464E-1,9.699197769E0,1.782703519E0
3.490095313E0,5.715342164E-1,9.705777168E0,1.774247050E0
3.494065625E0,5.810057521E-1,9.712825775E0,1.747709870E0
3.498035938E0,5.732006431E-1,9.710948944E0,1.730931282E0
3.502007813E0,5.667650104E-1,9.709254265E0,1.759910703E0
3.505978125E0,5.810248256E-1,9.691048622E0,1.764038205E0
3.509948438E0,5.708830357E-1,9.700452805E0,1.773959875E0
3.513918750E0,5.835531354E-1,9.687735558E0,1.766853809E0
3.517889063E0,5.824709535E-1,9.684603691E0,1.793563485E0
3.521859375E0,5.816665292E-1,9.667470932E0,1.804768443E0
3.525831250E0,5.827007890E-1,9.683339119E0,1.806731701E0
3.529801563E0,5.893854499E-1,9.679154396E0,1.820589185E0
3.533771875E0,6.097553372E-1,9.687342644E0,1.828518867E0
3.537742188E0,5.980524421E-1,9.699466705E0,1.857364297E0
3.541712500E0,5.845395327E-1,9.719549179E0,1.873223424E0
3.545682813E0,5.751543045E-1,9.753116608E0,1.900344968E0
3.549654688E0,5.824134946E-1,9.758181572E0,1.895700216E0
3.553625000E0,5.761024356E-1,9.775343895E0,1.919402838E0
3.557593750E0,5.770313144E-1,9.792849541E0,1.941371918E0
3.561565625E0,5.820878744E-1,9.801191330E0,1.948583245E0
3.565535938E0,5.872210860E-1,9.796728134E0,1.942454100E0
3.569506250E0,5.599271655E-1,9.808824539E0,1.935779095E0
3.573476563E0,5.553207397E-1,9.801516533E0,1.930856705E0
3.577446875E0,5.525338650E-1,9.795042992E0,1.894244552E0
3.581417188E0,5.608944297E-1,9.818266869E0,1.884035587E0
3.585389063E0,5.321735740E-1,9.823370934E0,1.844837785E0
3.589359375E0,5.160557628E-1,9.834518433E0,1.826823711E0
3.593329688E0,5.075803399E-1,9.810595512E0,1.825559735E0
3.597300000E0,5.102427006E-1,9.805932045E0,1.814824104E0
3.601270313E0,5.063353777E-1,9.801191330E0,1.806913614E0
3.605240625E0,5.009819269E-1,9.790292740E0,1.794425368E0
3.609212500E0,4.792138338E-1,9.753517151E0,1.806262374E0
3.613181250E0,4.862815142E-1,9.737151146E0,1.804979086E0
3.617151563E0,4.815889001E-1,9.707721710E0,1.825061679E0
3.621123438E0,4.988654554E-1,9.671990395E0,1.833862782E0
3.625093750E0,4.992006123E-1,9.662308693E0,1.842184901E0
3.629064063E0,5.133934617E-1,9.642292976E0,1.861060858E0
3.633035938E0,5.270595551E-1,9.623321533E0,1.839302421E0
3.637004688E0,5.321831703E-1,9.626749992E0,1.838995814E0
3.640975000E0,5.389635563E-1,9.615152359E0,1.849999666E0
3.644946875E0,5.396626592E-1,9.612375259E0,1.854491234E0
3.648917188E0,5.368853807E-1,9.637964249E0,1.872208238E0
3.652887500E0,5.388965011E-1,9.664329529E0,1.864249945E0
3.656857813E0,5.638728142E-1,9.682467461E0,1.860093594E0
3.660828125E0,5.637196302E-1,9.710671425E0,1.872543454E0
3.664798438E0,5.578681827E-1,9.724499702E0,1.887301326E0
3.668768750E0,5.623309612E-1,9.734039307E0,1.881095529E0
3.672739063E0,5.625703931E-1,9.755280495E0,1.869928956E0
3.676710938E0,5.440583825E-1,9.770928383E0,1.888823986E0
3.680681250E0,5.587971210E-1,9.754638672E0,1.871978402E0
3.684651563E0,5.555027127E-1,9.763315201E0,1.870264173E0
3.688621875E0,5.607028604E-1,9.771378517E0,1.854261398E0
3.692592188E0,5.448340774E-1,9.756745338E0,1.828289032E0
3.696562500E0,5.354680419E-1,9.746125221E0,1.815877438E0
3.700532813E0,5.140255094E-1,9.747963905E0,1.818625927E0
3.704504688E0,5.182489157E-1,9.740637779E0,1.800094962E0
3.708475000E0,5.135754347E-1,9.728896141E0,1.779533625E0
3.712445313E0,5.020832419E-1,9.729001045E0,1.763664842E0
3.716415625E0,5.098308921E-1,9.701831818E0,1.758991241E0
3.720385938E0,5.071972609E-1,9.704542160E0,1.756932259E0
3.724356250E0,5.149927735E-1,9.697100639E0,1.755850077E0
3.728329688E0,5.263029933E-1,9.692101479E0,1.761145949E0
3.732298438E0,5.230085254E-1,9.682209015E0,1.770119548E0
3.736268750E0,5.240811706E-1,9.685666084E0,1.789991379E0
3.740239063E0,5.179328322E-1,9.689257622E0,1.803743601E0
3.744209375E0,5.257954001E-1,9.693241119E0,1.827589989E0
3.748181250E0,5.272415280E-1,9.690196037E0,1.837386966E0
3.752150000E0,5.290515423E-1,9.691900253E0,1.854979634E0
3.756120313E0,5.389060378E-1,9.711341858E0,1.860122323E0
3.760092188E0,5.573030710E-1,9.716235161E0,1.858398557E0
3.764060938E0,5.538938046E-1,9.732343674E0,1.864546895E0
3.768031250E0,5.637004375E-1,9.747350693E0,1.874257684E0
3.772003125E0,5.792340040E-1,9.760556221E0,1.893669963E0
3.775973438E0,5.839458108E-1,9.759206772E0,1.881574392E0
3.779943750E0,5.847502351E-1,9.767174721E0,1.861281157E0
3.783915625E0,5.880925059E-1,9.785820007E0,1.820005178E0
3.787884375E0,5.608082414E-1,9.766878128E0,1.809116244E0
3.791854688E0,5.628576875E-1,9.766580582E0,1.810332537E0
3.795826563E0,5.431869030E-1,9.784422874E0,1.777704358E0
3.799796875E0,5.442595482E-1,9.788846970E0,1.752948284E0
3.803765625E0,5.659892559E-1,9.762319565E0,1.744817615E0
3.807737500E0,5.512505770E-1,9.778149605E0,1.744999528E0
3.811707813E0,5.527924299E-1,9.770813942E0,1.751904368E0
3.815678125E0,5.581075549E-1,9.756008148E0,1.765398145E0
3.819650000E0,5.453895926E-1,9.761869431E0,1.740709066E0
3.823618750E0,5.406969786E-1,9.753259659E0,1.738956571E0
3.827590625E0,5.368087888E-1,9.745702744E0,1.745909333E0
3.831560938E0,5.288982987E-1,9.748241425E0,1.746608377E0
3.835531250E0,5.370481610E-1,9.755615234E0,1.771335840E0
3.839501563E0,5.515857339E-1,9.752560616E0,1.782665133E0
3.843471875E0,5.408788919E-1,9.766800880E0,1.796503663E0
3.847442188E0,5.510973334E-1,9.763219833E0,1.829964995E0
3.851412500E0,5.411278605E-1,9.773236275E0,1.846216798E0
3.855384375E0,5.425357223E-1,9.779978752E0,1.853006721E0
3.859354688E0,5.364543796E-1,9.761858940E0,1.874841928E0
3.863325000E0,5.568817258E-1,9.777105331E0,1.904846072E0
3.867295313E0,5.473719239E-1,9.768831253E0,1.902442217E0
3.871265625E0,5.383506417E-1,9.769473076E0,1.913197041E0
3.875235938E0,5.423632860E-1,9.771330833E0,1.913417220E0
3.879207813E0,5.314265490E-1,9.767452240E0,1.897069693E0
3.883176563E0,5.289748907E-1,9.776838303E0,1.878270388E0
3.887148438E0,4.929852784E-1,9.751287460E0,1.863828659E0
3.891118750E0,4.910412133E-1,9.742753983E0,1.867506146E0
3.895089063E0,4.674631059E-1,9.760901451E0,1.851694703E0
3.899059375E0,4.677025080E-1,9.748221397E0,1.851503134E0
3.903029688E0,4.646475315E-1,9.728599548E0,1.820052981E0
3.907000000E0,4.660170078E-1,9.711973190E0,1.801129103E0
3.910971875E0,4.616308212E-1,9.707980156E0,1.804787636E0
3.914940625E0,4.617744684E-1,9.700893402E0,1.789388061E0
3.918912500E0,4.735443592E-1,9.686710358E0,1.784417748E0
3.922882813E0,4.807748497E-1,9.684660912E0,1.786419153E0
3.926853125E0,4.890875220E-1,9.664339066E0,1.772695661E0
3.930823438E0,4.800949097E-1,9.681567192E0,1.787386417E0
3.934793750E0,4.964999557E-1,9.694285393E0,1.799903274E0
3.938764063E0,4.905623496E-1,9.681682587E0,1.801885724E0
3.942734375E0,4.964712560E-1,9.692868233E0,1.830980062E0
3.946706250E0,5.020545125E-1,9.694266319E0,1.842319131E0
3.950676563E0,5.000817180E-1,9.708038330E0,1.859241247E0
3.954646875E0,5.140063763E-1,9.698087692E0,1.863225222E0
3.958617188E0,5.191778541E-1,9.719941139E0,1.866146088E0
3.962587500E0,5.286301970E-1,9.715019226E0,1.876699805E0
3.966557813E0,5.400361419E-1,9.731012344E0,1.876766801E0
3.970529688E0,5.404766798E-1,9.745512009E0,1.879793048E0
3.974498438E0,5.453608632E-1,9.761907578E0,1.886190414E0
3.978470313E0,5.649262667E-1,9.778590202E0,1.887397051E0
3.982440625E0,5.685750246E-1,9.779452324E0,1.896217227E0
3.986410938E0,5.641792417E-1,9.784153938E0,1.902595401E0
3.990381250E0,5.695709586E-1,9.789019585E0,1.894005179E0
3.994351563E0,5.706340075E-1,9.779931068E0,1.883307695E0
3.998321875E0,5.803736448E-1,9.781329155E0,1.872907400E0
4.002293750E0,5.761407018E-1,9.773839951E0,1.868329763E0
4.006264063E0,5.600995421E-1,9.765028954E0,1.856148005E0
4.010234375E0,5.574659705E-1,9.758105278E0,1.860304356E0
4.014204688E0,5.299708843E-1,9.761399269E0,1.850507259E0
4.018175000E0,5.194938779E-1,9.761917114E0,1.862823009E0
4.022145313E0,5.191587210E-1,9.770727158E0,1.841993451E0
4.026117188E0,5.060001612E-1,9.767270088E0,1.834648013E0
4.030087500E0,4.926788211E-1,9.749284744E0,1.829524398E0
4.034057813E0,4.827859700E-1,9.763975143E0,1.828212380E0
4.038028125E0,4.825082719E-1,9.742150307E0,1.826411963E0
4.041998438E0,5.058661103E-1,9.738022804E0,1.840355873E0
4.045968750E0,4.828051329E-1,9.746211052E0,1.841485858E0
4.049939063E0,4.847109318E-1,9.730112076E0,1.856454492E0
4.053909375E0,4.888576567E-1,9.717135429E0,1.844157815E0
4.057879688E0,4.879574478E-1,9.705223083E0,1.872648835E0
4.061851563E0,5.028110743E-1,9.680409431E0,1.880223989E0
4.065821875E0,5.221179128E-1,9.678005219E0,1.867266655E0
4.069792188E0,5.292047858E-1,9.642350197E0,1.868147731E0
4.073762500E0,5.446904898E-1,9.637006760E0,1.853839993E0
4.077732813E0,5.511451960E-1,9.644391060E0,1.867927432E0
4.081703125E0,5.501779914E-1,9.641373634E0,1.867132545E0
4.085676563E0,5.484924316E-1,9.651285172E0,1.873424530E0
4.089645313E0,5.120814443E-1,9.658717155E0,1.863675237E0
4.093614063E0,5.113440156E-1,9.672737122E0,1.871853828E0
4.097585938E0,5.061917305E-1,9.684679985E0,1.878777981E0
4.101556250E0,4.817900062E-1,9.702329636E0,1.879007816E0
4.105526563E0,4.736593068E-1,9.703220367E0,1.881516933E0
4.109526563E0,4.726728797E-1,9.715364456E0,1.862621784E0
4.113467188E0,4.591504335E-1,9.711169243E0,1.851934195E0
4.117437500E0,4.513932168E-1,9.735629082E0,1.837607265E0
4.121409375E0,4.495257139E-1,9.735561371E0,1.835117340E0
4.125379688E0,4.582597911E-1,9.752282143E0,1.830185175E0
4.129350000E0,4.547929764E-1,9.768524170E0,1.839005470E0
4.133320313E0,4.382633865E-1,9.775870323E0,1.839446068E0
4.137290625E0,4.511537850E-1,9.773993492E0,1.828988194E0
4.141260938E0,4.564976394E-1,9.759829521E0,1.831822872E0
4.145232813E0,4.716481566E-1,9.766005516E0,1.861118317E0
4.149203125E0,4.788690805E-1,9.764827728E0,1.866040826E0
4.153171875E0,4.972948730E-1,9.758133888E0,1.856655478E0
4.157143750E0,5.009819269E-1,9.754093170E0,1.857852697E0
4.161114063E0,4.991336167E-1,9.756736755E0,1.858532548E0
4.165084375E0,5.046689510E-1,9.756678581E0,1.837731838E0
4.169056250E0,5.045732260E-1,9.764128685E0,1.845326185E0
4.173026563E0,5.067567229E-1,9.762060165E0,1.856396914E0
4.176996875E0,5.211411119E-1,9.773323059E0,1.844809055E0
4.180967188E0,5.229032040E-1,9.781749725E0,1.842529774E0
4.184937500E0,5.129337907E-1,9.787659645E0,1.828911543E0
4.188907813E0,5.206335187E-1,9.778322220E0,1.825856566E0
4.192878125E0,5.133839250E-1,9.774280548E0,1.836362362E0
4.196848438E0,5.084230900E-1,9.758708954E0,1.857392907E0
4.200820313E0,4.965766072E-1,9.770335197E0,1.873127699E0
4.204790625E0,5.058086514E-1,9.770488739E0,1.888814449E0
4.208760938E0,4.894227087E-1,9.776329994E0,1.883422732E0
4.212735938E0,4.844140410E-1,9.760067940E0,1.895231009E0
4.216701563E0,4.728261232E-1,9.743185043E0,1.914403677E0
4.220671875E0,4.850652814E-1,9.726922989E0,1.916481853E0
4.224642188E0,4.998805821E-1,9.719596863E0,1.892319560E0
4.228614063E0,4.856973290E-1,9.709531784E0,1.878414035E0
4.232582813E0,5.001966357E-1,9.699227333E0,1.879199386E0
4.236554688E0,4.902941883E-1,9.686681747E0,1.838900089E0
4.240525000E0,4.784189463E-1,9.685761452E0,1.828451753E0
4.244495313E0,4.753448069E-1,9.677947044E0,1.808857679E0
4.248465625E0,4.819719493E-1,9.686844826E0,1.790326595E0
4.252435938E0,4.930810630E-1,9.692992210E0,1.795287371E0
4.256406250E0,4.948719144E-1,9.712863922E0,1.780567765E0
4.260378125E0,4.940866232E-1,9.719233513E0,1.766135454E0
4.264348438E0,5.075228810E-1,9.715526581E0,1.772389174E0
4.268318750E0,4.933108687E-1,9.723608971E0,1.771805048E0
4.272289063E0,4.998326898E-1,9.722105980E0,1.827360153E0
4.276259375E0,5.153183937E-1,9.718735695E0,1.823538899E0
4.280229688E0,4.888672531E-1,9.737611771E0,1.840269685E0
4.284201563E0,5.087678432E-1,9.719663620E0,1.878260851E0
4.288171875E0,5.039028525E-1,9.716015816E0,1.885357141E0
4.292140625E0,5.258049965E-1,9.721454620E0,1.903189182E0
4.296112500E0,5.244450569E-1,9.723935127E0,1.915026069E0
4.300082813E0,5.413385630E-1,9.730227470E0,1.927705765E0
4.304053125E0,5.334951878E-1,9.731213570E0,1.910199404E0
4.308023438E0,5.414247513E-1,9.733196259E0,1.904625773E0
4.311993750E0,5.192736387E-1,9.731299400E0,1.901474953E0
4.315964063E0,5.157589316E-1,9.744381905E0,1.868616939E0
4.319935938E0,5.093807578E-1,9.754188538E0,1.847557664E0
4.323904688E0,5.171380043E-1,9.763822556E0,1.838727832E0
4.327876563E0,4.967777133E-1,9.763917923E0,1.823510289E0
4.331846875E0,4.900930822E-1,9.763899803E0,1.826421499E0
4.335817188E0,5.073696375E-1,9.753307343E0,1.828375220E0
4.339789063E0,4.922670424E-1,9.738290787E0,1.826641798E0
4.343759375E0,4.712650776E-1,9.713831902E0,1.846101880E0
4.347729688E0,4.878329337E-1,9.697139740E0,1.855429649E0
4.351700000E0,4.760630727E-1,9.677411079E0,1.865619421E0
4.355670313E0,4.911369681E-1,9.662193298E0,1.852508783E0
4.359640625E0,5.014032722E-1,9.655442238E0,1.858982682E0
4.363610938E0,5.030409098E-1,9.634889603E0,1.846216798E0
4.367582813E0,5.291759968E-1,9.617019653E0,1.838718176E0
4.371551563E0,5.217157006E-1,9.613782883E0,1.829342484E0
4.375523438E0,5.530510545E-1,9.623857498E0,1.834676743E0
4.379493750E0,5.383506417E-1,9.647636414E0,1.838727832E0
4.383464063E0,5.463951230E-1,9.656102180E0,1.835682392E0
4.387434375E0,5.343666673E-1,9.688682556E0,1.845038772E0
4.391404688E0,5.250579715E-1,9.728551865E0,1.843276739E0
4.395375000E0,5.348072052E-1,9.759244919E0,1.874296069E0
4.399345313E0,5.278831720E-1,9.794267654E0,1.878011823E0
4.403317188E0,5.323076844E-1,9.818429947E0,1.889255047E0
4.407287500E0,5.058277845E-1,9.825487137E0,1.903409600E0
4.411257813E0,5.162952542E-1,9.840810776E0,1.890777707E0
4.415228125E0,5.118036866E-1,9.805941582E0,1.894483924E0
4.419198438E0,4.982046485E-1,9.803278923E0,1.896169424E0
4.423170313E0,4.845672548E-1,9.788022995E0,1.880367637E0
4.427140625E0,4.706138670E-1,9.788205147E0,1.867812514E0
4.431109375E0,4.906294048E-1,9.770986557E0,1.841256022E0
4.435081250E0,4.771931171E-1,9.760815620E0,1.822427988E0
4.439051563E0,4.876222908E-1,9.756036758E0,1.811385989E0
4.443020313E0,4.911752641E-1,9.738051414E0,1.803571343E0
4.446992188E0,4.953890741E-1,9.740196228E0,1.791648149E0
4.450962500E0,4.688229859E-1,9.733387947E0,1.788851738E0
4.454932813E0,4.840500951E-1,9.735312462E0,1.774074674E0
4.458904688E0,4.863868654E-1,9.722824097E0,1.786448002E0
4.462873438E0,4.849120378E-1,9.736318588E0,1.788775206E0
4.466845313E0,5.004839301E-1,9.754839897E0,1.809164166E0
4.470815625E0,4.928895235E-1,9.772269249E0,1.833000898E0
4.474785938E0,5.045732260E-1,9.778848648E0,1.857268453E0
4.478756250E0,5.149927735E-1,9.760882378E0,1.863005042E0
4.482728125E0,5.093711615E-1,9.765862465E0,1.860725760E0
4.486696875E0,5.102905631E-1,9.770468712E0,1.860361814E0
4.490668750E0,5.099170804E-1,9.747063637E0,1.845000625E0
4.494639063E0,4.948240221E-1,9.729241371E0,1.842366934E0
4.498609375E0,4.940866232E-1,9.713831902E0,1.843745947E0
4.502579688E0,4.947952926E-1,9.702473640E0,1.847825646E0
4.506550000E0,4.970745742E-1,9.680398941E0,1.848678112E0
4.510520313E0,5.121675730E-1,9.689420700E0,1.864862919E0
4.514492188E0,5.089210868E-1,9.681519508E0,1.871921062E0
4.518462500E0,5.228266120E-1,9.700289726E0,1.883815289E0
4.522432813E0,5.164771676E-1,9.691335678E0,1.874707818E0
4.526403125E0,5.210453272E-1,9.719425201E0,1.871317625E0
4.530373438E0,5.064981580E-1,9.742993355E0,1.877638340E0
4.534345313E0,5.027823448E-1,9.742112160E0,1.871614456E0
4.538315625E0,4.953411818E-1,9.749955177E0,1.875579357E0
4.542285938E0,4.998422861E-1,9.738980293E0,1.856626868E0
4.546256250E0,4.877276421E-1,9.740167618E0,1.834207535E0
4.550225000E0,4.789935648E-1,9.723638535E0,1.803896904E0
4.554196875E0,4.949772656E-1,9.711696625E0,1.799922466E0
4.558167188E0,4.840405583E-1,9.698910713E0,1.811903119E0
4.562137500E0,4.837532341E-1,9.698020935E0,1.812525630E0
4.566107813E0,5.008670092E-1,9.687102318E0,1.826871753E0
4.570078125E0,5.169177055E-1,9.689458847E0,1.854768872E0
4.574050000E0,5.006084442E-1,9.679614067E0,1.847595811E0
4.578020313E0,5.189001560E-1,9.682017326E0,1.851493597E0
4.581990625E0,5.329588652E-1,9.684583664E0,1.871097445E0
4.585960938E0,5.327194929E-1,9.680485725E0,1.839848280E0
4.589931250E0,5.370864868E-1,9.693261147E0,1.831085443E0
4.593901563E0,5.332270265E-1,9.718773842E0,1.815867901E0
4.597873438E0,5.571115613E-1,9.733752251E0,1.805534601E0
4.601843750E0,5.515474677E-1,9.738625526E0,1.795181990E0
4.605814063E0,5.641026497E-1,9.742523193E0,1.779485583E0
4.609787500E0,5.505418777E-1,9.737151146E0,1.771584749E0
4.613754688E0,5.582224727E-1,9.739219666E0,1.796101451E0
4.617725000E0,5.442786813E-1,9.738224030E0,1.801445246E0
4.621695313E0,5.303826928E-1,9.739498138E0,1.790968299E0
4.625665625E0,5.156918764E-1,9.727661133E0,1.813119411E0
4.629635938E0,5.193981528E-1,9.730026245E0,1.826478958E0
4.633607813E0,5.097159743E-1,9.705087662E0,1.819315553E0
4.637578125E0,5.154524446E-1,9.698374748E0,1.831008792E0
4.641548438E0,5.060576200E-1,9.685857773E0,1.853150368E0
4.645518750E0,5.077048540E-1,9.679230690E0,1.849281430E0
4.649489063E0,5.084709525E-1,9.679853439E0,1.839522600E0
4.653459375E0,4.969500601E-1,9.697809219E0,1.821901202E0
4.657431250E0,4.999188781E-1,9.717872620E0,1.816088080E0
4.661400000E0,5.035101771E-1,9.760289192E0,1.804998279E0
4.665371875E0,5.005126595E-1,9.780763626E0,1.810658097E0
4.669342188E0,4.943547547E-1,9.818907738E0,1.799912930E0
4.673312500E0,4.833988845E-1,9.868008614E0,1.797662377E0
4.677282813E0,4.898057878E-1,9.898463249E0,1.809786677E0
4.681259375E0,4.977928400E-1,9.927346230E0,1.820349813E0
4.685223438E0,5.136712193E-1,9.922673225E0,1.822523832E0
4.689195313E0,5.159696341E-1,9.925459862E0,1.825779915E0
4.693165625E0,5.190054774E-1,9.912254333E0,1.824199677E0
4.697135938E0,5.401414633E-1,9.874109268E0,1.836036563E0
4.701106250E0,5.448436737E-1,9.861352921E0,1.837923288E0
4.705076563E0,5.591227412E-1,9.831167221E0,1.830405474E0
4.709046875E0,5.646964312E-1,9.820804596E0,1.811682820E0
4.713017188E0,5.768493414E-1,9.796001434E0,1.800324678E0
4.716989063E0,5.778357983E-1,9.751008987E0,1.790192485E0
4.720959375E0,5.866655707E-1,9.725074768E0,1.775750637E0
4.724929688E0,5.883893967E-1,9.715957642E0,1.777330756E0
4.728900000E0,5.849322081E-1,9.704637527E0,1.755399942E0
4.732870313E0,5.717257857E-1,9.689612389E0,1.755112648E0
4.736840625E0,5.431677103E-1,9.672680855E0,1.747431993E0
4.740812500E0,5.464047194E-1,9.658794403E0,1.762783647E0
4.744781250E0,5.508770943E-1,9.642609596E0,1.757267475E0
4.748753125E0,5.504556894E-1,9.634573936E0,1.754978538E0
4.752723438E0,5.438094139E-1,9.647014618E0,1.755601048E0
4.756693750E0,5.456576943E-1,9.651342392E0,1.797001600E0
4.760664063E0,5.343762040E-1,9.665594101E0,1.822293997E0
4.764634375E0,5.447096229E-1,9.684517860E0,1.868377566E0
4.768604688E0,5.436082482E-1,9.704101562E0,1.912019014E0
4.772576563E0,5.433784127E-1,9.729241371E0,1.971069694E0
4.776546875E0,5.352573395E-1,9.768362045E0,1.973339319E0
4.780515625E0,5.413385630E-1,9.768984795E0,1.982829928E0
4.784487500E0,5.285822749E-1,9.804351807E0,2.007566929E0
4.788457813E0,5.437136292E-1,9.830181122E0,2.004693747E0
4.792428125E0,5.557038188E-1,9.835927010E0,1.991602302E0
4.796400000E0,5.661137700E-1,9.834518433E0,1.958361149E0
4.800368750E0,5.694848299E-1,9.819569588E0,1.921394825E0
4.804339063E0,5.600133538E-1,9.803604126E0,1.905075908E0
4.808310938E0,5.711032748E-1,9.778820038E0,1.875081301E0
4.812281250E0,5.689676404E-1,9.765766144E0,1.848620653E0
4.816251563E0,5.727983713E-1,9.733578682E0,1.844962239E0
4.820221875E0,5.672055483E-1,9.728905678E0,1.856148005E0
4.824192188E0,5.643325448E-1,9.717422485E0,1.845134616E0
4.828162500E0,5.621393919E-1,9.696497917E0,1.855803251E0
4.832134375E0,5.591802001E-1,9.691958427E0,1.864355326E0
4.836104688E0,5.703179836E-1,9.678474426E0,1.870934606E0
4.840075000E0,5.713235736E-1,9.678771019E0,1.880434752E0
4.844045313E0,5.777017474E-1,9.662280083E0,1.911731720E0
4.848015625E0,5.580788851E-1,9.651907921E0,1.930713058E0
4.851985938E0,5.567476749E-1,9.657491684E0,1.942109346E0
4.855956250E0,5.509058237E-1,9.667020798E0,1.949809074E0
4.859926563E0,5.441733599E-1,9.670381546E0,1.947884202E0
4.863898438E0,5.415396690E-1,9.666082382E0,1.968493581E0
4.867868750E0,5.421335101E-1,9.682123184E0,1.964250922E0
4.871839063E0,5.221083164E-1,9.692609787E0,1.969336271E0
4.875809375E0,5.218402147E-1,9.703660965E0,1.967200518E0
4.879779688E0,5.235831738E-1,9.710393906E0,1.959347606E0
4.883750000E0,5.252974033E-1,9.705672264E0,1.940557957E0
4.887720313E0,5.354680419E-1,9.701123238E0,1.930732131E0
4.891692188E0,5.352094173E-1,9.713649750E0,1.925579786E0
4.895662500E0,5.458396673E-1,9.698297501E0,1.913216233E0
4.899632813E0,5.463376641E-1,9.688194275E0,1.910247326E0
4.903603125E0,5.516815186E-1,9.683549881E0,1.908351183E0
4.907573438E0,5.676939487E-1,9.675773621E0,1.890701056E0
4.911545313E0,5.685175657E-1,9.679690361E0,1.875837922E0
4.915515625E0,5.712853074E-1,9.663803101E0,1.870982409E0
4.919484375E0,5.847119093E-1,9.658037186E0,1.866845250E0
4.923456250E0,5.736219883E-1,9.669156075E0,1.871968865E0
4.927426563E0,5.731814504E-1,9.672497749E0,1.877657413E0
4.931396875E0,5.664297938E-1,9.673609734E0,1.889906287E0
4.935368750E0,5.571115613E-1,9.692619324E0,1.909739733E0
4.939339063E0,5.570158362E-1,9.692159653E0,1.934792757E0
4.943307813E0,5.502067208E-1,9.706046104E0,1.965122461E0
4.947279688E0,5.320203304E-1,9.722335815E0,1.968244553E0
4.951250000E0,5.352669358E-1,9.711351395E0,1.971404791E0
4.955220313E0,5.310339332E-1,9.736567497E0,1.976068735E0
4.959190625E0,5.178658366E-1,9.747733116E0,1.975656986E0
4.963160938E0,5.109418035E-1,9.752589226E0,1.966894150E0
4.967131250E0,5.191778541E-1,9.752167702E0,1.972419977E0
4.971103125E0,5.403713584E-1,9.749313354E0,1.979506850E0
4.975073438E0,5.497949123E-1,9.749476433E0,1.945269823E0
4.979042188E0,5.536831021E-1,9.753125191E0,1.922974944E0
4.983014063E0,5.667554140E-1,9.757041931E0,1.896351457E0
4.986984375E0,5.775101781E-1,9.766168594E0,1.885395527E0
4.990954688E0,5.851620436E-1,9.764148712E0,1.873711824E0
4.994925000E0,6.085677743E-1,9.767911911E0,1.865552425E0
4.998895313E0,5.975544453E-1,9.767193794E0,1.873874664E0
5.002867188E0,5.883703232E-1,9.780428886E0,1.881564856E0
5.006837500E0,5.641026497E-1,9.767117500E0,1.914317489E0
5.010807813E0,5.616509914E-1,9.756180763E0,1.901733518E0
5.014778125E0,5.543630123E-1,9.750195503E0,1.923683643E0
5.018748438E0,5.521412492E-1,9.730955124E0,1.932982683E0
5.022718750E0,5.237364173E-1,9.734441757E0,1.957872748E0
5.026689063E0,5.235448480E-1,9.712730408E0,1.968550920E0
5.030660938E0,5.071876645E-1,9.691728592E0,1.986373425E0
5.034629688E0,4.874307215E-1,9.686355591E0,1.980435848E0
5.038601563E0,4.838681519E-1,9.667346001E0,1.985942364E0
5.042571875E0,4.947665632E-1,9.651697159E0,1.978357553E0
5.046542188E0,5.054447055E-1,9.648814201E0,1.968196630E0
5.050512500E0,5.143511295E-1,9.637102127E0,1.959242344E0
5.054484375E0,5.194172859E-1,9.627132416E0,1.941285729E0
5.058453125E0,5.146863461E-1,9.618417740E0,1.920293450E0
5.062423438E0,5.114398003E-1,9.621396065E0,1.900201321E0
5.066395313E0,5.104054809E-1,9.621856689E0,1.890854359E0
5.070365625E0,4.982429445E-1,9.632868767E0,1.876460314E0
5.074335938E0,4.896046817E-1,9.645520210E0,1.875234485E0
5.078306250E0,4.802672863E-1,9.674317360E0,1.846226454E0
5.082276563E0,4.932247102E-1,9.692609787E0,1.853533506E0
5.086246875E0,4.961839318E-1,9.698690414E0,1.838804364E0
5.090218750E0,4.895376265E-1,9.709877014E0,1.826440692E0
5.094187500E0,4.872870743E-1,9.731405258E0,1.830376863E0
5.098159375E0,4.901793003E-1,9.727967262E0,1.841667891E0
5.102157813E0,4.998805821E-1,9.752570152E0,1.867726326E0
5.106100000E0,5.016139746E-1,9.769089699E0,1.855937243E0
5.110070313E0,4.974863827E-1,9.781970978E0,1.879793048E0
5.114040625E0,5.033856630E-1,9.792207718E0,1.877954364E0
5.118010938E0,4.987888038E-1,9.788224220E0,1.872830868E0
5.121982813E0,5.004073381E-1,9.793233871E0,1.876967907E0
5.125953125E0,4.976779222E-1,9.798490524E0,1.887473702E0
5.129923438E0,5.150310397E-1,9.803930283E0,1.907259345E0
5.133893750E0,5.039123893E-1,9.806650162E0,1.909682393E0
5.137864063E0,5.059235692E-1,9.796144485E0,1.907766938E0
5.141834375E0,4.903995395E-1,9.798758507E0,1.920360446E0
5.145804688E0,4.802289605E-1,9.798127174E0,1.908533096E0
5.149776563E0,4.523508847E-1,9.776818275E0,1.896408796E0
5.153746875E0,4.478210807E-1,9.772863388E0,1.902154922E0
5.157717188E0,4.338580966E-1,9.779605865E0,1.882646918E0
5.161687500E0,4.274416268E-1,9.769942284E0,1.876757145E0
5.165657813E0,4.199717045E-1,9.752655983E0,1.849492073E0
5.169628125E0,4.181137979E-1,9.730831146E0,1.846973419E0
5.173598438E0,4.228447676E-1,9.712969780E0,1.835797191E0
5.177570313E0,4.251431823E-1,9.693595886E0,1.828020930E0
5.181540625E0,4.396616220E-1,9.674613953E0,1.832943320E0
5.185509375E0,4.347200096E-1,9.663984299E0,1.831794143E0
5.189481250E0,4.360798895E-1,9.655097961E0,1.814986825E0
5.193451563E0,4.495353103E-1,9.623972893E0,1.811405182E0
5.197421875E0,4.634025395E-1,9.617499352E0,1.806176186E0
5.201392188E0,4.671470523E-1,9.602329254E0,1.823787928E0
5.205364063E0,4.659691155E-1,9.597282410E0,1.829151034E0
5.209334375E0,4.842416644E-1,9.592819214E0,1.841131449E0
5.213304688E0,4.987792671E-1,9.597023010E0,1.851129770E0
5.217276563E0,4.858218431E-1,9.591986656E0,1.851579785E0
5.221245313E0,4.874786139E-1,9.630340576E0,1.841428518E0
5.225215625E0,4.997273684E-1,9.664807320E0,1.835529089E0
5.229185938E0,4.794053733E-1,9.676156044E0,1.853294015E0
5.233156250E0,4.818857610E-1,9.684795380E0,1.863550782E0
5.237128125E0,4.789744318E-1,9.708344460E0,1.858561277E0
5.241098438E0,4.621383846E-1,9.728647232E0,1.862650633E0
5.245068750E0,4.698956013E-1,9.737151146E0,1.873319268E0
5.249039063E0,4.710352421E-1,9.758823395E0,1.867544293E0
5.253009375E0,4.826614857E-1,9.756917953E0,1.852403402E0
5.256979688E0,4.700775743E-1,9.742466927E0,1.835069418E0
5.260951563E0,4.605390728E-1,9.762654305E0,1.824592352E0
5.264920313E0,4.635940492E-1,9.765843391E0,1.819219828E0
5.268892188E0,4.648773372E-1,9.758717537E0,1.799845934E0
5.272864063E0,4.632971883E-1,9.767040253E0,1.785720110E0
5.276832813E0,4.618606567E-1,9.773351669E0,1.778039575E0
5.280803125E0,4.685356915E-1,9.766092300E0,1.770713210E0
5.284773438E0,4.582789242E-1,9.769444466E0,1.768414736E0
5.288743750E0,4.516805112E-1,9.765039444E0,1.768606305E0
5.292714063E0,4.536916614E-1,9.779834747E0,1.785988331E0
5.296685938E0,4.614201486E-1,9.780428886E0,1.782837510E0
5.300656250E0,4.636228085E-1,9.786998749E0,1.804758787E0
5.304626563E0,4.596962929E-1,9.800530434E0,1.799367070E0
5.308596875E0,4.632110000E-1,9.797820091E0,1.810313344E0
5.312567188E0,4.623011947E-1,9.795138359E0,1.807871342E0
5.316537500E0,4.696083069E-1,9.780151367E0,1.801272869E0
5.320509375E0,4.826327562E-1,9.778599739E0,1.802920103E0
5.324478125E0,5.031175613E-1,9.758545876E0,1.810619831E0
5.328450000E0,5.007520914E-1,9.745876312E0,1.802029371E0
5.332420313E0,5.116791725E-1,9.757205009E0,1.795766234E0
5.336390625E0,5.221849680E-1,9.732477188E0,1.793075085E0
5.340360938E0,5.358606577E-1,9.727430344E0,1.779705882E0
5.344331250E0,5.493351817E-1,9.716235161E0,1.812860847E0
5.348301563E0,5.448245406E-1,9.712912560E0,1.814211130E0
5.352273438E0,5.409267545E-1,9.705049515E0,1.811251998E0
5.356243750E0,5.359947681E-1,9.704370499E0,1.804758787E0
5.360214063E0,5.474294424E-1,9.723906517E0,1.809461117E0
5.364184375E0,5.569966435E-1,9.745636940E0,1.805917621E0
5.368154688E0,5.517581105E-1,9.755366325E0,1.814862251E0
5.372125000E0,5.437040329E-1,9.752340317E0,1.807133913E0
5.376096875E0,5.261689425E-1,9.768677711E0,1.800401330E0
5.380067188E0,5.161324739E-1,9.779978752E0,1.809058785E0
5.384035938E0,5.015852451E-1,9.785724640E0,1.809719563E0
5.388007813E0,4.928129017E-1,9.796125412E0,1.816356301E0
5.391978125E0,4.940291345E-1,9.821906090E0,1.846552014E0
5.395948438E0,4.647911787E-1,9.816437721E0,1.861242771E0
5.399918750E0,4.562007785E-1,9.824960709E0,1.855573416E0
5.403890625E0,4.492001235E-1,9.810127258E0,1.866586685E0
5.407859375E0,4.499662817E-1,9.806008339E0,1.856358647E0
5.411831250E0,4.493629038E-1,9.787246704E0,1.865466237E0
5.415801563E0,4.442297816E-1,9.786758423E0,1.884514451E0
5.419771875E0,4.402841330E-1,9.790627480E0,1.859949946E0
5.423742188E0,4.418642819E-1,9.770411491E0,1.864384055E0
5.427712500E0,4.625789225E-1,9.753250122E0,1.873395801E0
5.431682813E0,4.598591030E-1,9.730849266E0,1.856645942E0
5.435654688E0,4.606635869E-1,9.724337578E0,1.840279222E0
5.439625000E0,4.443542361E-1,9.714483261E0,1.838497877E0
5.443593750E0,4.653849304E-1,9.718102455E0,1.825004101E0
5.447565625E0,4.465664923E-1,9.701439857E0,1.852221489E0
5.451535938E0,4.401404858E-1,9.704006195E0,1.875253677E0
5.455506250E0,4.305923879E-1,9.726740837E0,1.863665819E0
5.459476563E0,4.299219847E-1,9.718064308E0,1.875502706E0
5.463446875E0,4.273554385E-1,9.724586487E0,1.873434067E0
5.467417188E0,4.369130731E-1,9.714722633E0,1.856914043E0
5.471389063E0,4.436455667E-1,9.711600304E0,1.861377001E0
5.475359375E0,4.481658340E-1,9.700720787E0,1.859940410E0
5.479329688E0,4.491139352E-1,9.673331261E0,1.847059608E0
5.483300000E0,4.463845491E-1,9.687170029E0,1.844081163E0
5.487270313E0,4.623586535E-1,9.676913261E0,1.822926044E0
5.491242188E0,4.672906995E-1,9.672517776E0,1.792816520E0
5.495212500E0,4.783519208E-1,9.669040680E0,1.778077841E0
5.499182813E0,4.912614524E-1,9.678359032E0,1.790566087E0
5.503153125E0,4.867507815E-1,9.666417122E0,1.800765276E0
5.507123438E0,5.121484995E-1,9.672565460E0,1.803619146E0
5.511093750E0,5.286875963E-1,9.686098099E0,1.827158928E0
5.515064063E0,5.350849032E-1,9.688827515E0,1.836975217E0
5.519035938E0,5.234874487E-1,9.701401711E0,1.866347313E0
5.523004688E0,5.298368335E-1,9.728896141E0,1.886707544E0
5.526975000E0,5.202504396E-1,9.726310730E0,1.878634334E0
5.530946875E0,5.163143873E-1,9.741250038E0,1.864680886E0
5.534917188E0,5.050712228E-1,9.770977020E0,1.873165846E0
5.538887500E0,5.108364820E-1,9.758238792E0,1.858484745E0
5.542857813E0,5.127134919E-1,9.778187752E0,1.854653955E0
5.546828125E0,5.014511943E-1,9.788033485E0,1.842347741E0
5.550800000E0,5.032324791E-1,9.790657043E0,1.832866669E0
5.554768750E0,4.876414239E-1,9.774606705E0,1.823194265E0
5.558740625E0,4.844810665E-1,9.793472290E0,1.815542340E0
5.562710938E0,4.730272293E-1,9.788578987E0,1.797547460E0
5.566681250E0,4.794341028E-1,9.788214684E0,1.790661693E0
5.570651563E0,4.908400774E-1,9.776377678E0,1.798265696E0
5.574623438E0,5.041997433E-1,9.776033401E0,1.797413468E0
5.578593750E0,5.056650043E-1,9.751650810E0,1.833096504E0
5.582562500E0,5.238608718E-1,9.750769615E0,1.838919282E0
5.586534375E0,5.152322054E-1,9.762204170E0,1.852173567E0
5.590504688E0,5.143703222E-1,9.750999451E0,1.879180193E0
5.594475000E0,4.863485396E-1,9.754437447E0,1.880492210E0
5.598446875E0,4.758140445E-1,9.743682861E0,1.875799537E0
5.602415625E0,4.921233952E-1,9.725035667E0,1.862152576E0
5.606385938E0,4.962796867E-1,9.744879723E0,1.855898976E0
5.610357813E0,4.997465312E-1,9.734844208E0,1.841409326E0
5.614328125E0,5.201833844E-1,9.733033180E0,1.839991927E0
5.618298438E0,5.249909759E-1,9.747628212E0,1.787434340E0
5.622268750E0,5.243014693E-1,9.762578011E0,1.787396073E0
5.626239063E0,5.475347638E-1,9.779145241E0,1.774476886E0
5.630209375E0,5.501109362E-1,9.782104492E0,1.752737522E0
5.634181250E0,5.516336560E-1,9.804533005E0,1.747154355E0
5.638151563E0,5.610859394E-1,9.822221756E0,1.740680456E0
5.642120313E0,5.835914016E-1,9.822231293E0,1.744750500E0
5.646092188E0,5.650986433E-1,9.823456764E0,1.751722455E0
5.650062500E0,5.632503033E-1,9.802896500E0,1.761701584E0
5.654032813E0,5.668224692E-1,9.795588493E0,1.766030192E0
5.658003125E0,5.640739202E-1,9.779653549E0,1.787137508E0
5.661973438E0,5.584045053E-1,9.762050629E0,1.810294151E0
5.665945313E0,5.432922244E-1,9.726089478E0,1.822293997E0
5.669915625E0,5.141596198E-1,9.714740753E0,1.815264583E0
5.673885938E0,5.226734281E-1,9.705595970E0,1.825703263E0
5.677856250E0,5.032228827E-1,9.697704315E0,1.842242479E0
5.681826563E0,5.114110708E-1,9.699170113E0,1.846350789E0
5.685818750E0,5.073887706E-1,9.675524712E0,1.850602984E0
5.689768750E0,5.119186640E-1,9.670142174E0,1.828509331E0
5.693737500E0,5.128092766E-1,9.682439804E0,1.816940546E0
5.697707813E0,4.968160093E-1,9.690503120E0,1.802996755E0
5.701679688E0,4.904857576E-1,9.695339203E0,1.806578398E0
5.705650000E0,4.755459428E-1,9.724203110E0,1.803734183E0
5.709620313E0,4.847779572E-1,9.757051468E0,1.796685576E0
5.713590625E0,4.664958417E-1,9.762127876E0,1.802173138E0
5.717562500E0,4.615063071E-1,9.770191193E0,1.812898993E0
5.721531250E0,4.627129734E-1,9.781711578E0,1.810581565E0
5.725503125E0,4.693688750E-1,9.767136574E0,1.828518867E0
5.729473438E0,4.668118656E-1,9.760269165E0,1.818683505E0
5.733443750E0,4.615733624E-1,9.753566742E0,1.810983777E0
5.737414063E0,4.533085525E-1,9.740436554E0,1.809039712E0
5.741384375E0,4.667256773E-1,9.741383553E0,1.810495377E0
5.745354688E0,4.592557549E-1,9.724739075E0,1.815954089E0
5.749326563E0,4.786296487E-1,9.709704399E0,1.830884457E0
5.753296875E0,5.086337924E-1,9.705777168E0,1.815322042E0
5.757267188E0,5.045444965E-1,9.688146591E0,1.814555883E0
5.761237500E0,5.190437436E-1,9.679393768E0,1.804404378E0
5.765207813E0,5.491053462E-1,9.667222023E0,1.803130746E0
5.769178125E0,5.533478856E-1,9.671568871E0,1.820502996E0
5.773150000E0,5.742253661E-1,9.648699760E0,1.821154356E0
5.777120313E0,5.768876672E-1,9.663706779E0,1.803418040E0
5.781089063E0,5.754799247E-1,9.663007736E0,1.825885296E0
5.785060938E0,5.742253661E-1,9.671443939E0,1.816126466E0
5.789031250E0,5.637770295E-1,9.681854248E0,1.817074537E0
5.793001563E0,5.478220582E-1,9.694783211E0,1.792462111E0
5.796971875E0,5.343858004E-1,9.708382607E0,1.802508354E0
5.800942188E0,5.271170139E-1,9.710068703E0,1.778556585E0
5.804912500E0,5.229990482E-1,9.721857071E0,1.775568724E0
5.808884375E0,5.019204617E-1,9.737046242E0,1.764497876E0
5.812854688E0,4.965382814E-1,9.743491173E0,1.721268177E0
5.816825000E0,4.922766089E-1,9.751889229E0,1.678277969E0
5.820795313E0,4.878329337E-1,9.753527641E0,1.652305722E0
5.824765625E0,5.014703274E-1,9.747197151E0,1.617570519E0
5.828735938E0,5.088157058E-1,9.751113892E0,1.544729352E0
5.832706250E0,4.677599669E-1,9.740015030E0,1.529971600E0
5.836676563E0,4.179797471E-1,9.733903885E0,1.560339570E0
5.840648438E0,3.345561922E-1,9.739459038E0,1.612245798E0
5.844618750E0,2.725750804E-1,9.747877121E0,1.665856838E0
5.848589063E0,2.378974557E-1,9.747264862E0,1.678977013E0
5.852559375E0,2.267883569E-1,9.733397484E0,1.609631300E0
5.856529688E0,2.128541172E-1,9.714635849E0,1.531484604E0
5.860500000E0,2.225841433E-1,9.697704315E0,1.484108210E0
5.864471875E0,2.140703648E-1,9.641976357E0,1.489442468E0
5.868442188E0,2.181788236E-1,9.589917183E0,1.505972028E0
5.872410938E0,2.382134795E-1,9.544714928E0,1.535650492E0
5.876382813E0,2.502994239E-1,9.506896019E0,1.558318853E0
5.880353125E0,2.452811748E-1,9.459749222E0,1.631418586E0
5.884323438E0,2.281578481E-1,9.393391609E0,1.699318171E0
5.888293750E0,2.189928442E-1,9.352546692E0,1.750439167E0
5.892264063E0,2.100193799E-1,9.289186478E0,1.808101058E0
5.896234375E0,1.719036847E-1,9.237912178E0,1.855659604E0
5.900206250E0,1.086392999E-1,9.225127220E0,1.901800632E0
5.904176563E0,2.940079756E-2,9.235977173E0,1.930023432E0
5.908146875E0,-6.941269338E-2,9.282635689E0,1.939992905E0
5.912117188E0,-1.521658748E-1,9.318701744E0,1.906215429E0
5.916089063E0,-2.080561221E-1,9.363407135E0,1.875809193E0
5.920057813E0,-2.930407226E-1,9.395336151E0,1.786668181E0
5.924029688E0,-3.718673885E-1,9.461013794E0,1.698638201E0
5.928000000E0,-3.951869309E-1,9.491515160E0,1.594049931E0
5.931970313E0,-4.110844433E-1,9.553429604E0,1.480516791E0
5.935940625E0,-4.666203260E-1,9.595290184E0,1.372212768E0
5.939910938E0,-4.860229492E-1,9.637734413E0,1.282851577E0
5.943881250E0,-4.780263007E-1,9.685809135E0,1.180954337E0
5.947853125E0,-4.048499465E-1,9.706562042E0,1.069231272E0
5.951821875E0,-3.190034628E-1,9.735772133E0,9.969742894E-1
5.955792188E0,-2.541397214E-1,9.749649048E0,9.084846377E-1
5.959764063E0,-1.626141816E-1,9.783493042E0,8.301559687E-1
5.963734375E0,-7.277415693E-2,9.768323898E0,7.287949920E-1
5.967704688E0,2.001552610E-3,9.747244835E0,6.702328324E-1
5.971675000E0,9.119035304E-2,9.741126060E0,6.094967127E-1
5.975645313E0,1.505186707E-1,9.720210075E0,5.452650785E-1
5.979615625E0,2.171157897E-1,9.719251633E0,5.252590775E-1
5.983587500E0,2.897750139E-1,9.708488464E0,5.149353147E-1
5.987557813E0,3.854760528E-1,9.712413788E0,5.423154235E-1
5.991528125E0,5.108651519E-1,9.767930984E0,5.741391778E-1
5.995498438E0,6.040188074E-1,9.809628487E0,6.184701324E-1
5.999468750E0,7.180881500E-1,9.867415428E0,6.910336018E-1
6.003439063E0,7.955740690E-1,9.943215370E0,8.066065907E-1
6.007410938E0,8.421269655E-1,1.001098061E1,9.143934846E-1
6.011379688E0,8.852034211E-1,1.009194374E1,1.065247297E0
6.015351563E0,9.128803611E-1,1.015814781E1,1.227957249E0
6.019321875E0,9.206758738E-1,1.020687389E1,1.382057786E0
6.023292188E0,9.124877453E-1,1.027109623E1,1.556326866E0
6.027262500E0,9.169792533E-1,1.032220840E1,1.736485720E0
6.031232813E0,9.213462472E-1,1.036228752E1,1.907096505E0
6.035203125E0,9.007657766E-1,1.037985039E1,2.039218187E0
6.039173438E0,8.725619912E-1,1.037680531E1,2.150079250E0
6.043145313E0,8.471834660E-1,1.035480785E1,2.198777437E0
6.047115625E0,7.877115011E-1,1.032963943E1,2.228590012E0
6.051085938E0,7.433038354E-1,1.029014492E1,2.200108528E0
6.055056250E0,6.845405698E-1,1.022555828E1,2.159311295E0
6.059026563E0,6.304603219E-1,1.015771675E1,2.111264467E0
6.062996875E0,5.747041702E-1,1.006294441E1,2.039792776E0
6.066968750E0,5.259965062E-1,9.952955246E0,1.982580900E0
6.070937500E0,5.227500200E-1,9.853155136E0,1.917994976E0
6.074909375E0,5.041326880E-1,9.739095688E0,1.868626595E0
6.078879688E0,4.655477405E-1,9.600221634E0,1.833307266E0
6.082850000E0,4.575798213E-1,9.451925278E0,1.812659621E0
6.086820313E0,4.499758184E-1,9.311461449E0,1.809413075E0
6.090790625E0,4.634312391E-1,9.149231911E0,1.853006721E0
6.094789063E0,5.283141732E-1,9.004084587E0,1.893535733E0
6.098732813E0,5.773186684E-1,8.895293236E0,1.976327300E0
6.102703125E0,6.213335991E-1,8.762079239E0,2.075619698E0
6.106673438E0,6.750499606E-1,8.666416168E0,2.179939747E0
6.110643750E0,7.130603194E-1,8.588097572E0,2.291796923E0
6.114614063E0,7.324820757E-1,8.516433716E0,2.372385740E0
6.118584375E0,7.486764789E-1,8.446063042E0,2.474685192E0
6.122556250E0,7.421259284E-1,8.415657043E0,2.570232868E0
6.126525000E0,7.142573595E-1,8.394702911E0,2.614880085E0
6.130495313E0,6.778463721E-1,8.395900726E0,2.669640064E0
6.134467188E0,6.661818027E-1,8.415724754E0,2.683134079E0
6.138437500E0,6.454480886E-1,8.449013710E0,2.686495304E0
6.142407813E0,6.531764865E-1,8.474046707E0,2.657726765E0
6.146378125E0,7.173603177E-1,8.524114609E0,2.490889072E0
6.150348438E0,6.921062469E-1,8.584908485E0,2.421112537E0
6.154320313E0,7.255484462E-1,8.639619827E0,2.293549538E0
6.158290625E0,7.180498242E-1,8.789841652E0,2.063351870E0
6.162260938E0,7.663456202E-1,8.875985146E0,1.848716259E0
6.166231250E0,8.485338092E-1,8.970480919E0,1.649557114E0
6.170201563E0,9.721894860E-1,9.071189880E0,1.431263328E0
6.174171875E0,1.034170628E0,9.231103897E0,1.206687212E0
6.178142188E0,9.806936979E-1,9.477313042E0,9.557653069E-1
6.182114063E0,1.249045372E0,9.584391594E0,7.199747562E-1
6.186084375E0,1.527816772E0,9.728474617E0,5.130678415E-1
6.190054688E0,1.768500924E0,9.873850822E0,3.099533319E-1
6.194025000E0,1.984860182E0,1.002984810E1,1.406737268E-1
6.197995313E0,2.213994980E0,1.021150017E1,-2.538811415E-2
6.201965625E0,2.441156626E0,1.042937183E1,-1.501164436E-1
6.205935938E0,2.575480938E0,1.062172222E1,-2.506920695E-1
6.209906250E0,2.664554834E0,1.088052654E1,-2.877734601E-1
6.213878125E0,2.806550264E0,1.111608696E1,-3.063524663E-1
6.217848438E0,2.902509689E0,1.131787968E1,-3.104034662E-1
6.221818750E0,3.039687872E0,1.153047562E1,-2.922458351E-1
6.225789063E0,3.178618908E0,1.176066303E1,-2.337219715E-1
6.229759375E0,3.294708729E0,1.202220631E1,-1.330314130E-1
6.233729688E0,3.356163263E0,1.225237465E1,-4.362235591E-2
6.237700000E0,3.364188433E0,1.247601223E1,5.202121288E-2
6.241671875E0,3.360003471E0,1.262441540E1,1.051724926E-1
6.245642188E0,3.343205929E0,1.271086407E1,1.234067306E-1
6.249612500E0,3.311889648E0,1.272996140E1,1.390073597E-1
6.253582813E0,3.237506628E0,1.262890625E1,1.274577230E-1
6.257553125E0,3.163746119E0,1.249122047E1,8.978256583E-2
6.261525000E0,3.028732061E0,1.226586914E1,2.016875520E-2
6.265493750E0,2.829362392E0,1.198836136E1,-6.417418271E-2
6.269464063E0,2.654882431E0,1.167377377E1,-1.618767679E-1
6.273435938E0,2.479502201E0,1.140429115E1,-2.604029477E-1
6.277406250E0,2.351881742E0,1.105897045E1,-3.822103441E-1
6.281376563E0,2.249208689E0,1.070794201E1,-4.684016109E-1
6.285346875E0,2.199457169E0,1.043905449E1,-5.716108680E-1
6.289317188E0,2.174480915E0,1.011080933E1,-6.853928566E-1
6.293287500E0,2.196900368E0,9.792093277E0,-7.889756560E-1
6.297257813E0,2.259877443E0,9.456387520E0,-8.854523897E-1
6.301229688E0,2.320996523E0,9.206854820E0,-9.159258008E-1
6.305200000E0,2.372280359E0,8.949229240E0,-9.755606055E-1
6.309170313E0,2.353691816E0,8.748441696E0,-9.856258035E-1
6.313140625E0,2.346231461E0,8.604607582E0,-9.832794666E-1
6.317110938E0,2.325737000E0,8.500651360E0,-9.797456861E-1
6.321082813E0,2.293099403E0,8.384943962E0,-9.607069492E-1
6.325053125E0,2.274175644E0,8.323902130E0,-9.288736582E-1
6.329023438E0,2.263727188E0,8.265301704E0,-8.526901007E-1
6.332993750E0,2.296585321E0,8.191617966E0,-7.911208272E-1
6.336964063E0,2.322308540E0,8.152256966E0,-7.139700651E-1
6.340934375E0,2.321800947E0,8.147506714E0,-6.641898751E-1
6.344904688E0,2.358892202E0,8.159458160E0,-6.061544418E-1
6.348875000E0,2.418364048E0,8.166191101E0,-5.417311788E-1
6.352846875E0,2.460894585E0,8.189328194E0,-4.957433939E-1
6.356815625E0,2.522013664E0,8.212054253E0,-4.694550633E-1
6.360787500E0,2.606069326E0,8.248714447E0,-4.281502962E-1
6.364757813E0,2.653924704E0,8.327991486E0,-3.910497427E-1
6.368728125E0,2.722293377E0,8.424122810E0,-2.916041911E-1
6.372698438E0,2.810199022E0,8.477800369E0,-2.220765650E-1
6.376668750E0,2.916099310E0,8.527360916E0,-2.212050855E-1
6.380639063E0,3.009990454E0,8.559185028E0,-1.948305517E-1
6.384609375E0,3.109464645E0,8.600384712E0,-2.028654963E-1
6.388581250E0,3.195656061E0,8.634410858E0,-2.369972318E-1
6.392551563E0,3.244708300E0,8.662039757E0,-2.865955234E-1
6.396521875E0,3.330641031E0,8.716168404E0,-3.511048853E-1
6.400492188E0,3.379856110E0,8.770822525E0,-4.055298865E-1
6.404462500E0,3.411344767E0,8.852560997E0,-4.723760188E-1
6.408432813E0,3.433112860E0,8.930727005E0,-5.258719921E-1
6.412404688E0,3.452276230E0,9.010089874E0,-5.863591433E-1
6.416373438E0,3.440218687E0,9.061660767E0,-6.267828345E-1
6.420345313E0,3.452027082E0,9.106317520E0,-6.555515528E-1
6.424315625E0,3.453032732E0,9.113087654E0,-6.599186063E-1
6.428285938E0,3.451203346E0,9.106297493E0,-6.768503785E-1
6.432256250E0,3.427941322E0,9.116344452E0,-6.886203289E-1
6.436226563E0,3.412838936E0,9.135967255E0,-6.974117756E-1
6.440196875E0,3.385602236E0,9.169600487E0,-7.057244778E-1
6.444167188E0,3.394068003E0,9.181150436E0,-7.232978940E-1
6.448139063E0,3.385018110E0,9.193916321E0,-7.812854648E-1
6.452109375E0,3.413614511E0,9.227952003E0,-8.472505212E-1
6.456079688E0,3.455963135E0,9.233114243E0,-9.192394018E-1
6.460050000E0,3.501711369E0,9.214114189E0,-9.941012859E-1
6.464020313E0,3.550294638E0,9.199787140E0,-1.063887477E0
6.467990625E0,3.625654459E0,9.189942360E0,-1.126749635E0
6.471962500E0,3.709193230E0,9.176918030E0,-1.187591076E0
6.475931250E0,3.795030117E0,9.199404716E0,-1.206668139E0
6.479903125E0,3.906149626E0,9.167848587E0,-1.224586248E0
6.483873438E0,4.018255711E0,9.181064606E0,-1.227746606E0
6.487843750E0,4.061389446E0,9.217417717E0,-1.171693563E0
6.491814063E0,4.111687183E0,9.232749939E0,-1.111733198E0
6.495784375E0,4.229893684E0,9.261175156E0,-1.095672846E0
6.499754688E0,4.297668457E0,9.283038139E0,-1.063590527E0
6.503726563E0,4.387240887E0,9.329839706E0,-1.010640383E0
6.507696875E0,4.471468925E0,9.360801697E0,-9.206375480E-1
6.511667188E0,4.519170284E0,9.403553009E0,-8.091731668E-1
6.515637500E0,4.545458794E0,9.443296432E0,-6.674076319E-1
6.519607813E0,4.561480999E0,9.479017258E0,-6.126188040E-1
6.523579688E0,4.570023537E0,9.511378288E0,-5.707393885E-1
6.527550000E0,4.563712597E0,9.609061241E0,-5.150119662E-1
6.531520313E0,4.569755554E0,9.707147598E0,-4.720695615E-1
6.535489063E0,4.620320797E0,9.757626534E0,-4.850078225E-1
6.539460938E0,4.625875473E0,9.801555634E0,-4.965191483E-1
6.543431250E0,4.627829075E0,9.868018150E0,-4.398244321E-1
6.547401563E0,4.630376339E0,9.920825005E0,-3.980791271E-1
6.551371875E0,4.659710407E0,9.958623886E0,-3.512581289E-1
6.555342188E0,4.681688786E0,9.975680351E0,-3.168965578E-1
6.559312500E0,4.700382710E0,9.997631073E0,-3.191854060E-1
6.563284375E0,4.724487782E0,1.000973606E1,-3.123858571E-1
6.567254688E0,4.793249130E0,1.003927040E1,-3.208900690E-1
6.571225000E0,4.814480782E0,1.003793907E1,-3.858591318E-1
6.575195313E0,4.799685001E0,1.007553768E1,-3.656520545E-1
6.579165625E0,4.831010818E0,1.010989952E1,-3.185054362E-1
6.583135938E0,4.867690086E0,1.015985298E1,-1.942368001E-1
6.587106250E0,4.915200233E0,1.021895123E1,2.513911761E-2
6.591078125E0,4.919988632E0,1.030105305E1,2.462196946E-1
6.595046875E0,4.811809063E0,1.042526340E1,5.619286895E-1
6.599018750E0,4.660361290E0,1.057968044E1,8.541458249E-1
6.602989063E0,4.507802963E0,1.072545910E1,1.024478912E0
6.606959375E0,4.281253815E0,1.097594929E1,1.164692998E0
6.610931250E0,4.048958778E0,1.127711105E1,1.269836664E0
6.614900000E0,3.801580667E0,1.168743992E1,1.325066209E0
6.618871875E0,3.565502644E0,1.209173298E1,1.328944683E0
6.622842188E0,3.301920176E0,1.261557484E1,1.190243840E0
6.626812500E0,2.998622894E0,1.314386177E1,8.517132998E-1
6.630782813E0,2.660513401E0,1.358567810E1,4.233714640E-1
6.634753125E0,2.123407841E0,1.406458473E1,-2.331856638E-1
6.638723438E0,1.507676601E0,1.453220081E1,-9.054870605E-1
6.642693750E0,9.111278057E-1,1.486257267E1,-1.420460701E0
6.646665625E0,1.861635447E-1,1.516021919E1,-1.863474250E0
6.650635938E0,-4.786105156E-1,1.533754253E1,-2.188846111E0
6.654606250E0,-1.001054049E0,1.537020016E1,-2.420240879E0
6.658576563E0,-1.105086923E0,1.520771122E1,-2.542900801E0
6.662546875E0,-7.548056245E-1,1.479765987E1,-2.544997931E0
6.666518750E0,-1.753513366E-1,1.425226212E1,-2.464045525E0
6.670489063E0,2.829467356E-1,1.372050858E1,-2.315959215E0
6.674457813E0,6.549195051E-1,1.309281635E1,-2.180907011E0
6.678429688E0,9.540319443E-1,1.246151352E1,-2.085933924E0
6.682400000E0,1.144399643E0,1.196792507E1,-2.092982531E0
6.686370313E0,1.277392864E0,1.143424797E1,-2.154407978E0
6.690340625E0,1.408796191E0,1.097711849E1,-2.184929132E0
6.694312500E0,1.505196333E0,1.061057472E1,-2.153517246E0
6.698281250E0,1.565137625E0,1.030659771E1,-2.003171206E0
6.702253125E0,1.587173820E0,1.000574207E1,-1.687586546E0
6.706223438E0,1.527213335E0,9.758382797E0,-1.278216481E0
6.710193750E0,1.452993155E0,9.546515465E0,-9.138667583E-1
6.714164063E0,1.320086241E0,9.330950737E0,-4.489127994E-1
6.718134375E0,1.231596589E0,9.122607231E0,8.845138550E-2
6.722104688E0,1.120888710E0,8.976283073E0,5.991250873E-1
6.726076563E0,1.045155287E0,8.830016136E0,1.246689558E0
6.730046875E0,9.247939587E-1,8.726941109E0,1.904932261E0
6.734015625E0,7.370597720E-1,8.656609535E0,2.460396528E0
6.737987500E0,6.052446365E-1,8.626222610E0,2.716317654E0
6.741957813E0,2.415845394E-1,8.592551231E0,3.102320194E0
6.745928125E0,-9.954132885E-2,8.552949905E0,3.382365227E0
6.749898438E0,-3.438360989E-1,8.553035736E0,3.485105276E0
6.753868750E0,-6.107895970E-1,8.560074806E0,3.530547380E0
6.757839063E0,-8.366490006E-1,8.583184242E0,3.483774185E0
6.761810938E0,-1.036047697E0,8.636872292E0,3.403367281E0
6.765781250E0,-1.203028917E0,8.704532623E0,3.186050177E0
6.769751563E0,-1.310471058E0,8.766493797E0,2.889782190E0
6.773721875E0,-1.315661788E0,8.799045563E0,2.531399012E0
6.777692188E0,-1.277804613E0,8.805595398E0,2.232985735E0
6.781662500E0,-1.173695207E0,8.830649376E0,1.884485722E0
6.785634375E0,-1.103047013E0,8.842189789E0,1.560674667E0
6.789604688E0,-1.024526715E0,8.831223488E0,1.276176572E0
6.793573438E0,-9.355391264E-1,8.828657150E0,9.802914858E-1
6.797545313E0,-8.953069448E-1,8.805222511E0,7.054946423E-1
6.801515625E0,-8.683195114E-1,8.777785301E0,5.020066500E-1
6.805485938E0,-8.340824246E-1,8.745903969E0,2.873329520E-1
6.809457813E0,-7.811034918E-1,8.709138870E0,1.608328968E-1
6.813426563E0,-7.352976799E-1,8.681787491E0,1.213668734E-1
6.817398438E0,-6.670054197E-1,8.665200233E0,1.602391303E-1
6.821368750E0,-6.033675671E-1,8.667585373E0,2.553368211E-1
6.825339063E0,-5.011925697E-1,8.628348351E0,4.480700791E-1
6.829309375E0,-4.238886237E-1,8.611914635E0,6.256623268E-1
6.833279688E0,-3.037954569E-1,8.603563309E0,7.826358080E-1
6.837250000E0,-1.051916406E-1,8.576422691E0,8.727056980E-1
6.841221875E0,3.667916730E-2,8.563446045E0,9.927700758E-1
6.845192188E0,1.930205375E-1,8.531900406E0,1.188788176E0
6.849162500E0,3.006446958E-1,8.496868134E0,1.352417469E0
6.853132813E0,3.423038125E-1,8.476509094E0,1.498530865E0
6.857103125E0,3.458376527E-1,8.447826385E0,1.645869970E0
6.861073438E0,3.061513603E-1,8.401244164E0,1.856492639E0
6.865043750E0,2.308297753E-1,8.361499786E0,2.026069164E0
6.869015625E0,2.106322944E-1,8.333296776E0,2.146152735E0
6.872984375E0,1.385189295E-1,8.323269844E0,2.247801065E0
6.876956250E0,5.330450833E-2,8.293409348E0,2.297667503E0
6.880926563E0,7.460332476E-3,8.264458656E0,2.350818872E0
6.884896875E0,-4.958870634E-2,8.270664215E0,2.345398188E0
6.888867188E0,-1.172488481E-1,8.237308502E0,2.335898161E0
6.892837500E0,-1.803504229E-1,8.245429993E0,2.287621260E0
6.896807813E0,-2.592441738E-1,8.239530563E0,2.190560579E0
6.900779688E0,-3.624246716E-1,8.247948647E0,2.028731585E0
6.904750000E0,-5.001487136E-1,8.266449928E0,1.908858776E0
6.908720313E0,-5.692932606E-1,8.303092003E0,1.767868996E0
6.912690625E0,-6.673406363E-1,8.345249176E0,1.620462775E0
6.916660938E0,-7.414459586E-1,8.412583351E0,1.432776451E0
6.920631250E0,-8.542799354E-1,8.456463814E0,1.251468420E0
6.924603125E0,-9.813066125E-1,8.522524834E0,1.109425187E0
6.928573438E0,-1.112116218E0,8.585846901E0,9.801669717E-1
6.932542188E0,-1.261581540E0,8.643393517E0,8.658007979E-1
6.936514063E0,-1.378638744E0,8.692647934E0,7.979012728E-1
6.940484375E0,-1.422155738E0,8.732314110E0,6.750882864E-1
6.944454688E0,-1.500972867E0,8.759397507E0,6.275202632E-1
6.948425000E0,-1.585239291E0,8.740367889E0,6.274915338E-1
6.952395313E0,-1.746282816E0,8.748374939E0,6.583958864E-1
6.956365625E0,-1.869689584E0,8.720085144E0,7.534936070E-1
6.960337500E0,-1.958658099E0,8.714262009E0,7.853843570E-1
6.964307813E0,-1.985559344E0,8.690712929E0,8.136550784E-1
6.968278125E0,-1.985683799E0,8.658256531E0,8.429122567E-1
6.972248438E0,-1.968914866E0,8.601763725E0,9.332215190E-1
6.976218750E0,-1.907383919E0,8.563063622E0,9.725630283E-1
6.980189063E0,-1.782013893E0,8.492454529E0,1.008523941E0
6.984160938E0,-1.619323134E0,8.389866829E0,1.068340659E0
6.988129688E0,-1.504679203E0,8.310973167E0,1.085023403E0
6.992101563E0,-1.351986527E0,8.258607864E0,1.109205008E0
6.996071875E0,-1.242964268E0,8.226669312E0,1.124728918E0
7.000042188E0,-1.164702535E0,8.242221832E0,1.145615935E0
7.004012500E0,-1.080129743E0,8.252372742E0,1.144399643E0
7.007982813E0,-9.490041137E-1,8.309364319E0,1.142886639E0
7.011953125E0,-8.876550794E-1,8.404192924E0,1.147224903E0
7.015925000E0,-8.424046636E-1,8.504041672E0,1.169941068E0
7.019895313E0,-7.233266830E-1,8.599158287E0,1.222948551E0
7.023865625E0,-6.355073452E-1,8.735110283E0,1.294372439E0
7.027835938E0,-5.362820625E-1,8.874884605E0,1.374070644E0
7.031806250E0,-5.070248842E-1,9.050589561E0,1.445992470E0
7.035776563E0,-4.949293733E-1,9.234321594E0,1.533447862E0
7.039746875E0,-4.150779843E-1,9.409011841E0,1.559209466E0
7.043717188E0,-3.322385848E-1,9.566904068E0,1.607151031E0
7.047687500E0,-2.152291536E-1,9.738712311E0,1.694778800E0
7.051659375E0,-9.251195192E-2,9.890379906E0,1.798294425E0
7.055629688E0,-4.999093246E-3,9.997084618E0,1.859557271E0
7.059600000E0,4.764461517E-2,1.013547993E1,1.883537650E0
7.063570313E0,8.217857778E-2,1.025287247E1,1.888287663E0
7.067540625E0,7.534073293E-2,1.036651993E1,1.835883379E0
7.071510938E0,1.042914242E-1,1.044670582E1,1.756587505E0
7.075482813E0,9.607452154E-2,1.052338791E1,1.654230595E0
7.079453125E0,1.446672380E-1,1.061546898E1,1.516573668E0
7.083423438E0,1.830989718E-1,1.067861843E1,1.433638453E0
7.087421875E0,1.523095369E-1,1.074335766E1,1.353873134E0
7.091364063E0,9.059659392E-2,1.082851505E1,1.228895903E0
7.095334375E0,5.714480579E-2,1.087817001E1,1.145903230E0
7.099306250E0,-2.081040107E-2,1.089078331E1,1.082274914E0
7.103276563E0,-4.223372042E-2,1.088021946E1,1.036641479E0
7.107245313E0,-4.729985073E-2,1.083936501E1,1.020542860E0
7.111217188E0,-7.140467316E-2,1.075764656E1,9.907972813E-1
7.115187500E0,-1.375708282E-1,1.063026428E1,9.376364350E-1
7.119157813E0,-1.151515245E-1,1.046705723E1,8.552950621E-1
7.123128125E0,-6.761226058E-2,1.031941128E1,7.323001027E-1
7.127098438E0,-1.704671653E-3,1.012266636E1,5.616605878E-1
7.131068750E0,1.270267665E-1,9.944393158E0,4.200482965E-1
7.135040625E0,2.822859585E-1,9.748558044E0,2.484989762E-1
7.139010938E0,3.908582032E-1,9.571998596E0,8.158481866E-2
7.142981250E0,4.618606567E-1,9.426422119E0,-7.927680761E-2
7.146951563E0,4.979077876E-1,9.342395782E0,-2.373803109E-1
7.150921875E0,5.322693586E-1,9.306041718E0,-4.131434262E-1
7.154893750E0,5.766099691E-1,9.270750999E0,-5.563358665E-1
7.158864063E0,7.198693752E-1,9.249069214E0,-7.145734429E-1
7.162834375E0,8.991089463E-1,9.250966072E0,-8.524411917E-1
7.166804688E0,1.252952814E0,9.267868042E0,-9.208961725E-1
7.170775000E0,1.641589284E0,9.262773514E0,-1.009682775E0
7.174745313E0,2.028271914E0,9.267753601E0,-1.042780161E0
7.178715625E0,2.569830894E0,9.253934860E0,-1.028970480E0
7.182685938E0,3.030752897E0,9.237596512E0,-9.266231060E-1
7.186656250E0,3.387785912E0,9.242413521E0,-7.734516859E-1
7.190626563E0,3.649050713E0,9.297642708E0,-4.729505777E-1
7.194598438E0,3.728107214E0,9.382866859E0,-1.415451989E-2
7.198568750E0,3.769775867E0,9.507327080E0,5.893758535E-1
7.202539063E0,3.788029194E0,9.634995461E0,1.115784168E0
7.206509375E0,3.797040939E0,9.866783142E0,1.701013327E0
7.210479688E0,3.859347820E0,1.007614136E1,2.203086853E0
7.214450000E0,4.003986359E0,1.023204231E1,2.590478182E0
7.218421875E0,4.140321732E0,1.040791988E1,3.038921833E0
7.222392188E0,4.290687084E0,1.060251141E1,3.483860254E0
7.226362500E0,4.401289463E0,1.080423737E1,3.880617857E0
7.230332813E0,4.357399464E0,1.111797333E1,4.454824448E0
7.234303125E0,4.269991875E0,1.148371220E1,5.174032688E0
7.238275000E0,4.046401978E0,1.188747978E1,5.898700237E0
7.242243750E0,3.798276663E0,1.221552372E1,6.429140091E0
7.246214063E0,3.559364080E0,1.260973358E1,6.922795773E0
7.250185938E0,3.405732632E0,1.291886330E1,7.306576729E0
7.254156250E0,3.441310644E0,1.315194321E1,7.482991219E0
7.258126563E0,3.454871416E0,1.330649376E1,7.616319180E0
7.262096875E0,3.229778051E0,1.331062222E1,7.609079361E0
7.266067188E0,2.719295979E0,1.319335365E1,7.487923145E0
7.270037500E0,1.803935170E0,1.293522072E1,7.328670502E0
7.274009375E0,8.394742012E-1,1.261349678E1,7.088283062E0
7.277979688E0,-2.517742477E-2,1.223443794E1,6.822641373E0
7.281950000E0,-6.710468531E-1,1.190263939E1,6.590595722E0
7.285920313E0,-1.336912632E0,1.147761154E1,6.290879726E0
7.289890625E0,-1.959941387E0,1.104281425E1,5.962749958E0
7.293860938E0,-2.446787834E0,1.063935375E1,5.626115322E0
7.297832813E0,-3.001218081E0,1.014274788E1,5.143635750E0
7.301801563E0,-3.560963154E0,9.719970703E0,4.790357113E0
7.305771875E0,-4.004627705E0,9.421729088E0,4.627953529E0
7.309743750E0,-4.378142357E0,9.103904724E0,4.446157455E0
7.313714063E0,-4.641810894E0,8.832612038E0,4.334529877E0
7.317684375E0,-4.833979607E0,8.652817726E0,4.361497879E0
7.321654688E0,-4.910277843E0,8.586918831E0,4.437959671E0
7.325625000E0,-4.926538944E0,8.565773010E0,4.538870335E0
7.329596875E0,-4.948431492E0,8.635999680E0,4.562898636E0
7.333567188E0,-4.953756332E0,8.667852402E0,4.486073017E0
7.337537500E0,-4.973226070E0,8.735255241E0,4.264532566E0
7.341507813E0,-4.901745319E0,8.805710793E0,3.903305531E0
7.345478125E0,-4.745336533E0,8.824567795E0,3.498216152E0
7.349448438E0,-4.466220856E0,8.916821480E0,2.872745037E0
7.353418750E0,-4.042571068E0,9.105406761E0,2.162653446E0
7.357390625E0,-3.562035799E0,9.425445557E0,1.466755033E0
7.361359375E0,-3.082151651E0,9.808747292E0,9.426163435E-1
7.365331250E0,-2.597153425E0,1.038914108E1,4.954177737E-1
7.369301563E0,-2.133137941E0,1.107967567E1,2.508644462E-1
7.373271875E0,-1.791456699E0,1.167152214E1,2.301689684E-1
7.377242188E0,-1.374769807E0,1.231938362E1,4.453119636E-1
7.381212500E0,-8.728014231E-1,1.287080669E1,8.549885750E-1
7.385182813E0,-5.280076861E-1,1.328519535E1,1.447333217E0
7.389153125E0,-1.392276138E-1,1.367230892E1,2.426456213E0
7.393125000E0,2.489969730E-1,1.390179825E1,3.481456518E0
7.397095313E0,6.400179863E-1,1.402013874E1,4.473804951E0
7.401065625E0,1.067746997E0,1.398198414E1,5.089593887E0
7.405035938E0,1.594021201E0,1.375614452E1,5.578068256E0
7.409006250E0,2.174921513E0,1.342584991E1,5.687215328E0
7.412978125E0,2.716930389E0,1.311112690E1,5.564919472E0
7.416948438E0,3.256985903E0,1.278821659E1,5.178198814E0
7.420917188E0,3.569381237E0,1.244322205E1,4.572474957E0
7.424889063E0,3.528153181E0,1.210094643E1,4.011619091E0
7.428859375E0,3.232392550E0,1.162700939E1,3.303778172E0
7.432829688E0,2.863666296E0,1.100236225E1,2.660379410E0
7.436800000E0,2.579637527E0,1.027536774E1,2.141335726E0
7.440770313E0,2.454794168E0,9.602942467E0,1.700668454E0
7.444740625E0,2.418938398E0,8.759215355E0,1.442717195E0
7.448712500E0,2.546406031E0,7.872614384E0,1.244946480E0
7.452682813E0,2.725932598E0,7.118143559E0,1.123886108E0
7.456653125E0,2.863445997E0,6.306566715E0,1.034697413E0
7.460623438E0,2.866146803E0,5.598754406E0,9.580924511E-1
7.464593750E0,2.801876783E0,4.941833496E0,8.904514909E-1
7.468564063E0,2.768836975E0,4.486800671E0,7.924520373E-1
7.472535938E0,2.809298754E0,4.041699886E0,5.376994014E-1
7.476506250E0,2.916788816E0,3.788441181E0,1.472625583E-1
7.480476563E0,2.969040155E0,3.708627939E0,-2.324865609E-1
7.484446875E0,2.964529276E0,3.834668398E0,-7.235564590E-1
7.488417188E0,2.900460482E0,4.202485085E0,-1.234881401E0
7.492387500E0,2.796169043E0,4.662314892E0,-1.603636384E0
7.496357813E0,2.537154675E0,5.304009438E0,-1.952117205E0
7.500328125E0,2.151056051E0,5.962539196E0,-2.229815960E0
7.504300000E0,1.698149800E0,6.471929073E0,-2.411420822E0
7.508270313E0,1.354160547E0,6.777630806E0,-2.482940435E0
7.512240625E0,1.105958343E0,7.028428078E0,-2.481388807E0
7.516210938E0,9.721033573E-1,7.187125683E0,-2.452342510E0
7.520181250E0,9.468492866E-1,7.283209324E0,-2.396375656E0
7.524151563E0,1.016233325E0,7.413865566E0,-2.200213909E0
7.528121875E0,1.091698527E0,7.514901161E0,-1.943019152E0
7.532093750E0,1.146046877E0,7.630013943E0,-1.713626027E0
7.536064063E0,1.186757922E0,7.811494827E0,-1.396882534E0
7.540034375E0,1.196803927E0,8.016208649E0,-1.082370758E0
7.544004688E0,1.265000343E0,8.238619804E0,-9.482858181E-1
7.547975000E0,1.189831972E0,8.449970245E0,-4.771260917E-1
7.551945313E0,1.175476432E0,8.744485855E0,6.703764666E-4
7.555915625E0,1.178828239E0,9.035946846E0,4.221647978E-1
7.559885938E0,1.212739706E0,9.258559227E0,7.637503743E-1
7.563857813E0,1.299323678E0,9.535444260E0,1.148374081E0
7.567826563E0,1.433418036E0,9.824377060E0,1.475019813E0
7.571798438E0,1.567464709E0,1.004320717E1,1.651549101E0
7.575768750E0,1.765350223E0,1.027085781E1,1.678287506E0
7.579739063E0,2.025513887E0,1.043933201E1,1.549441218E0
7.583709375E0,2.314742804E0,1.050123596E1,1.221282244E0
7.587679688E0,2.577827454E0,1.044865036E1,8.166334629E-1
7.591651563E0,2.814556360E0,1.026470852E1,2.413355261E-1
7.595621875E0,2.868885756E0,9.953328133E0,-4.405522645E-1
7.599592188E0,2.830913544E0,9.674988747E0,-9.937661290E-1
7.603562500E0,2.803619862E0,9.365667343E0,-1.553147316E0
7.607532813E0,2.750621796E0,9.095390320E0,-1.969939590E0
7.611504688E0,2.691772223E0,8.943559647E0,-2.221282959E0
7.615473438E0,2.636360884E0,8.802148819E0,-2.387564898E0
7.619443750E0,2.651156902E0,8.658946037E0,-2.428065300E0
7.623415625E0,2.730021954E0,8.592350006E0,-2.470480919E0
7.627385938E0,2.831976891E0,8.573042870E0,-2.463403702E0
7.631356250E0,2.989419460E0,8.576576233E0,-2.442708254E0
7.635328125E0,3.127210379E0,8.569106102E0,-2.396365881E0
7.639296875E0,3.206487417E0,8.546170235E0,-2.362770557E0
7.643267188E0,3.261563540E0,8.533759117E0,-2.332766533E0
7.647237500E0,3.270833969E0,8.523185730E0,-2.261706591E0
7.651209375E0,3.246432066E0,8.536478043E0,-2.186030865E0
7.655179688E0,3.192581892E0,8.556216240E0,-2.059741259E0
7.659150000E0,3.126233578E0,8.618972778E0,-1.888929367E0
7.663120313E0,3.070659399E0,8.722583771E0,-1.685728669E0
7.667090625E0,3.007261038E0,8.848500252E0,-1.480890393E0
7.671060938E0,2.961071968E0,9.022128105E0,-1.175189137E0
7.675031250E0,2.893258810E0,9.233822823E0,-7.808257937E-1
7.679001563E0,2.805678606E0,9.452326775E0,-3.955412507E-1
7.682973438E0,2.758714199E0,9.741144180E0,1.291815490E-1
7.686948438E0,2.766787291E0,1.006668949E1,7.056861520E-1
7.690914063E0,2.765168905E0,1.038248444E1,1.224145770E0
7.694884375E0,2.800765753E0,1.075135422E1,1.765848279E0
7.698854688E0,2.847117662E0,1.110730457E1,2.230227470E0
7.702826563E0,2.918991566E0,1.144733906E1,2.587155342E0
7.706796875E0,3.010507584E0,1.171753883E1,2.770991802E0
7.710767188E0,3.096919060E0,1.195576286E1,2.839101791E0
7.714737500E0,3.206171036E0,1.219048977E1,2.777781487E0
7.718707813E0,3.297620058E0,1.232145214E1,2.630241156E0
7.722678125E0,3.340792418E0,1.243141270E1,2.424684525E0
7.726648438E0,3.373870850E0,1.250150585E1,2.125869036E0
7.730620313E0,3.352476120E0,1.253627968E1,1.797882676E0
7.734589063E0,3.304515362E0,1.258918190E1,1.340657234E0
7.738560938E0,3.229634523E0,1.265180492E1,8.600260019E-1
7.742531250E0,3.110862732E0,1.270748425E1,3.717716336E-1
7.746501563E0,2.991459131E0,1.271936893E1,-6.145436689E-2
7.750471875E0,2.866692543E0,1.271455193E1,-5.216487050E-1
7.754442188E0,2.775080919E0,1.266627502E1,-8.853470683E-1
7.758412500E0,2.739100933E0,1.259716892E1,-1.135541081E0
7.762384375E0,2.734331608E0,1.249327087E1,-1.349802971E0
7.766354688E0,2.768060923E0,1.239203358E1,-1.472702146E0
7.770325000E0,2.833154440E0,1.231879997E1,-1.536560297E0
7.774295313E0,2.937407732E0,1.225962543E1,-1.493464708E0
7.778265625E0,3.052990198E0,1.223109531E1,-1.452638745E0
7.782235938E0,3.188789368E0,1.220375347E1,-1.377968431E0
7.786206250E0,3.256832600E0,1.219182110E1,-1.333627820E0
7.790176563E0,3.285122633E0,1.215433693E1,-1.349008203E0
7.794146875E0,3.141824722E0,1.216849232E1,-1.333752275E0
7.798118750E0,2.886277199E0,1.216870213E1,-1.299831271E0
7.802089063E0,2.435994864E0,1.226790810E1,-1.183415651E0
7.806059375E0,1.805630207E0,1.246164703E1,-9.353476167E-1
7.810029688E0,1.245904326E0,1.267942429E1,-6.856993437E-1
7.814000000E0,5.559815168E-1,1.297804832E1,-3.573681414E-1
7.817971875E0,-1.028070226E-1,1.332105064E1,-1.283675283E-1
7.821942188E0,-7.893204093E-1,1.373535347E1,-1.335773021E-1
7.825910938E0,-1.401249647E0,1.407418060E1,-3.686591685E-1
7.829882813E0,-2.130408525E0,1.446464634E1,-8.343313932E-1
7.833853125E0,-2.714172363E0,1.475599194E1,-1.365020633E0
7.837823438E0,-3.083674431E0,1.488938713E1,-1.771173000E0
7.841793750E0,-3.303864241E0,1.491343498E1,-2.138041258E0
7.845764063E0,-3.233302355E0,1.471028137E1,-2.253288507E0
7.849735938E0,-2.787961721E0,1.432733440E1,-2.111207008E0
7.853706250E0,-1.945988059E0,1.373436737E1,-1.665693998E0
7.857676563E0,-1.127075195E0,1.305587864E1,-1.043239832E0
7.861646875E0,-5.620244741E-1,1.232878780E1,-3.740221858E-1
7.865617188E0,-2.949656248E-1,1.170926476E1,1.208592951E-1
7.869587500E0,-1.744415313E-1,1.100967026E1,5.521986485E-1
7.873557813E0,-1.726027876E-1,1.029452133E1,8.296004534E-1
7.877529688E0,-2.007011473E-1,9.693386078E0,9.385366440E-1
7.881500000E0,-2.107663602E-1,9.021543503E0,1.020284295E0
7.885470313E0,-1.531523019E-1,8.400755882E0,1.156361103E0
7.889440625E0,-7.328172028E-2,7.843787670E0,1.366418839E0
7.893410938E0,-3.870945424E-2,7.428451061E0,1.628421068E0
7.897381250E0,-3.366247565E-2,7.057148933E0,1.915485859E0
7.901353125E0,-9.220549464E-2,6.845903873E0,2.195837498E0
7.905321875E0,-1.945815533E-1,6.739112854E0,2.399909496E0
7.909292188E0,-3.147992194E-1,6.688805580E0,2.644951105E0
7.913264063E0,-4.601559639E-1,6.711723328E0,2.883059263E0
7.917234375E0,-5.973054171E-1,6.767613411E0,3.066206217E0
7.921204688E0,-7.748881578E-1,6.881021976E0,3.251488686E0
7.925175000E0,-9.406435490E-1,7.017424107E0,3.441569090E0
7.929145313E0,-1.072209716E0,7.129233360E0,3.537643909E0
7.933115625E0,-1.193260550E0,7.269524574E0,3.560465336E0
7.937087500E0,-1.252751708E0,7.409843922E0,3.552631378E0
7.941057813E0,-1.273246050E0,7.514115810E0,3.450159550E0
7.945026563E0,-1.315297842E0,7.590289593E0,3.320403337E0
7.948998438E0,-1.331645370E0,7.696515560E0,3.141834259E0
7.952968750E0,-1.313621879E0,7.780916214E0,2.922458172E0
7.956939063E0,-1.304887772E0,7.857990265E0,2.753609657E0
7.960910938E0,-1.290331006E0,7.956382275E0,2.546884775E0
7.964879688E0,-1.221243978E0,8.080076218E0,2.375843048E0
7.968851563E0,-1.176970482E0,8.211250305E0,2.190052986E0
7.972821875E0,-1.095835686E0,8.386466980E0,1.995222449E0
7.976792188E0,-1.035032630E0,8.555775642E0,1.848275900E0
7.980762500E0,-9.835954905E-1,8.743892670E0,1.734139442E0
7.984732813E0,-9.853481054E-1,8.912674904E0,1.668490529E0
7.988704688E0,-9.903759360E-1,9.074867249E0,1.632893443E0
7.992675000E0,-9.971371293E-1,9.244548798E0,1.628353953E0
7.996645313E0,-9.627084732E-1,9.381487846E0,1.649901867E0
8.000615625E0,-9.128803611E-1,9.529027939E0,1.664420247E0
8.004585938E0,-8.293419480E-1,9.640377998E0,1.662294149E0
8.008556250E0,-7.136923671E-1,9.710048676E0,1.611671209E0
8.012526563E0,-6.046699882E-1,9.744429588E0,1.545399785E0
8.016496875E0,-4.825944602E-1,9.742897034E0,1.478467464E0
8.020468750E0,-3.851408660E-1,9.678244591E0,1.395647168E0
8.024437500E0,-3.133243918E-1,9.595692635E0,1.315728784E0
8.028409375E0,-2.622225285E-1,9.462085724E0,1.228330851E0
8.032379688E0,-2.715407610E-1,9.289837837E0,1.200979471E0
8.036350000E0,-3.147321641E-1,9.137116432E0,1.216359854E0
8.040320313E0,-3.926969469E-1,8.912137985E0,1.244410276E0
8.044290625E0,-4.972469509E-1,8.716072083E0,1.220822573E0
8.048260938E0,-5.429666042E-1,8.511529922E0,1.195357919E0
8.052232813E0,-4.973523021E-1,8.374035835E0,1.156734586E0
8.056203125E0,-4.157387614E-1,8.238486290E0,1.147148252E0
8.060173438E0,-3.232842684E-1,8.148014069E0,1.150806546E0
8.064143750E0,-2.994380295E-1,8.092162132E0,1.144399643E0
8.068114063E0,-2.951476276E-1,8.038494110E0,1.117565393E0
8.072084375E0,-3.402831256E-1,8.035409927E0,1.076950192E0
8.076056250E0,-4.197131395E-1,8.049239159E0,1.031958342E0
8.080054688E0,-5.189671516E-1,8.093857765E0,9.602760077E-1
8.083995313E0,-6.270222664E-1,8.144135475E0,8.950579166E-1
8.087967188E0,-6.995857358E-1,8.214984894E0,8.443775177E-1
8.091937500E0,-7.218901515E-1,8.261240959E0,8.276371956E-1
8.095907813E0,-7.164217234E-1,8.303905487E0,7.925286293E-1
8.099878125E0,-6.847608685E-1,8.365531921E0,7.996155024E-1
8.103848438E0,-6.285833120E-1,8.400142670E0,8.219198585E-1
8.107818750E0,-5.360330343E-1,8.414555550E0,8.444828391E-1
8.111790625E0,-4.390870035E-1,8.463215828E0,8.715564609E-1
8.115760938E0,-3.005872369E-1,8.478059769E0,9.292375445E-1
8.119731250E0,-1.878299117E-1,8.465888023E0,1.031872153E0
8.123701563E0,-3.327940404E-2,8.439876556E0,1.152875066E0
8.127671875E0,9.360370785E-2,8.414479256E0,1.304705858E0
8.131642188E0,1.920437068E-1,8.411979675E0,1.425929070E0
8.135614063E0,2.422357500E-1,8.446284294E0,1.581781983E0
8.139584375E0,3.287622035E-1,8.506080627E0,1.756108642E0
8.143553125E0,3.623672128E-1,8.585549355E0,1.924334884E0
8.147525000E0,4.443063736E-1,8.727630615E0,2.122660875E0
8.151495313E0,4.764940143E-1,8.881386757E0,2.315317631E0
8.155465625E0,5.277299285E-1,9.031464577E0,2.453204393E0
8.159435938E0,5.834670067E-1,9.214018822E0,2.565444469E0
8.163406250E0,5.884852409E-1,9.422687531E0,2.655935764E0
8.167378125E0,5.980045199E-1,9.642207146E0,2.702412128E0
8.171348438E0,6.271467805E-1,9.837094307E0,2.682032824E0
8.175318750E0,5.999869108E-1,1.004827309E1,2.652028561E0
8.179289063E0,6.317532063E-1,1.023481941E1,2.565770149E0
8.183259375E0,6.567199826E-1,1.037623978E1,2.424378157E0
8.187229688E0,7.299729586E-1,1.051014328E1,2.210394144E0
8.191200000E0,7.642291784E-1,1.063427734E1,1.990050912E0
8.195171875E0,8.049306273E-1,1.069251442E1,1.815312505E0
8.199142188E0,9.543671012E-1,1.071825695E1,1.546750069E0
8.203112500E0,1.178866625E0,1.071282673E1,1.250204206E0
8.207082813E0,1.389719129E0,1.067243195E1,1.016271591E0
8.211053125E0,1.614659190E0,1.060587311E1,7.788721323E-1
8.215023438E0,1.876939178E0,1.047373199E1,5.797703266E-1
8.218993750E0,2.136087656E0,1.031415462E1,4.188608229E-1
8.222964063E0,2.303432703E0,1.016402817E1,2.940079570E-1
8.226935938E0,2.456948996E0,9.972243309E0,1.627290994E-1
8.230906250E0,2.479320288E0,9.802857399E0,1.013226137E-1
8.234876563E0,2.388369322E0,9.672671318E0,6.572562456E-2
8.238846875E0,2.267567635E0,9.509060860E0,4.053862393E-2
8.242817188E0,2.120640039E0,9.394540787E0,5.308423936E-2
8.246787500E0,2.089620829E0,9.201156616E0,6.193320826E-2
8.250759375E0,2.010688782E0,9.035429955E0,7.495766133E-2
8.254728125E0,1.866222739E0,8.890734673E0,4.855440930E-2
8.258700000E0,1.774601460E0,8.730552673E0,5.637866259E-2
8.262670313E0,1.729877830E0,8.599225998E0,3.741658479E-2
8.266640625E0,1.771211267E0,8.449645042E0,8.446744084E-2
8.270610938E0,1.897787929E0,8.275672913E0,1.803408563E-1
8.274582813E0,2.013140440E0,8.115089417E0,2.917191088E-1
8.278551563E0,2.054579258E0,7.976560593E0,4.598878622E-1
8.282521875E0,2.023042917E0,7.865038395E0,5.767057538E-1
8.286493750E0,1.877283931E0,7.772804737E0,6.253367066E-1
8.290464063E0,1.666220665E0,7.741689682E0,6.316095591E-1
8.294434375E0,1.513212085E0,7.782247066E0,5.703945756E-1
8.298406250E0,1.555062771E0,7.882257938E0,5.468357205E-1
8.302375000E0,1.721545935E0,7.990964413E0,4.892024398E-1
