"Time (s)","Gyroscope x (rad/s)","Gyroscope y (rad/s)","Gyroscope z (rad/s)"
1.804973900E-2,-7.951431274E-1,3.612199724E-1,-5.405426025E-1
2.051510400E-2,-7.951431274E-1,3.612199724E-1,-5.405426025E-1
2.298697900E-2,-7.951431274E-1,3.612199724E-1,-5.405426025E-1
2.546250000E-2,-7.951431274E-1,3.612199724E-1,-5.405426025E-1
2.793953100E-2,-7.951431274E-1,3.612199724E-1,-5.405426025E-1
3.041708300E-2,-7.951431274E-1,3.612199724E-1,-5.405426025E-1
3.289479100E-2,-7.951431274E-1,3.612199724E-1,-5.405426025E-1
3.537270800E-2,-7.951431274E-1,3.612199724E-1,-5.405426025E-1
3.785088500E-2,-7.951431274E-1,3.612199724E-1,-5.405426025E-1
4.032921800E-2,-7.951431274E-1,3.612199724E-1,-5.405426025E-1
4.280755200E-2,-7.951431274E-1,3.612199724E-1,-5.405426025E-1
4.528593700E-2,-7.951431274E-1,3.612199724E-1,-5.405426025E-1
4.776442700E-2,-7.951431274E-1,3.612199724E-1,-5.405426025E-1
5.024296800E-2,-7.951431274E-1,3.612199724E-1,-5.405426025E-1
5.272151000E-2,-7.951431274E-1,3.612199724E-1,-5.405426025E-1
5.520005200E-2,-7.951431274E-1,3.612199724E-1,-5.405426025E-1
5.767869700E-2,-7.951431274E-1,3.612199724E-1,-5.405426025E-1
6.015734300E-2,-7.951431274E-1,3.612199724E-1,-5.405426025E-1
6.263598900E-2,-7.951431274E-1,3.612199724E-1,-5.405426025E-1
6.511463500E-2,-7.951431274E-1,3.612199724E-1,-5.405426025E-1
6.759333300E-2,-7.951431274E-1,3.612199724E-1,-5.405426025E-1
7.007203100E-2,-7.951431274E-1,3.612199724E-1,-5.405426025E-1
7.255072900E-2,-7.951431274E-1,3.612199724E-1,-5.405426025E-1
7.502942700E-2,-7.951431274E-1,3.612199724E-1,-5.405426025E-1
7.750817700E-2,-1.021162987E0,4.253607690E-1,-3.701113164E-1
7.998692700E-2,-1.012000084E0,4.864472449E-1,-3.523962200E-1
8.246567700E-2,-9.997828007E-1,5.597509742E-1,-3.340702951E-1
8.494442700E-2,-9.930632114E-1,6.397742629E-1,-3.200204074E-1
8.742322900E-2,-9.845111370E-1,7.283496261E-1,-3.102465570E-1
8.990203100E-2,-9.777916670E-1,8.254771233E-1,-2.925314903E-1
9.238083300E-2,-9.722938538E-1,9.287132621E-1,-2.852011025E-1
9.485963500E-2,-9.686286449E-1,1.035003781E0,-2.790924609E-1
9.733848900E-2,-9.637417793E-1,1.146181107E0,-2.723729610E-1
9.980723900E-2,-9.600765705E-1,1.254914999E0,-2.723729610E-1
1.022370830E-1,-9.539679289E-1,1.359372854E0,-2.638208568E-1
1.046677600E-1,-9.466375113E-1,1.452835202E0,-2.638208568E-1
1.070992180E-1,-9.277007580E-1,1.538356304E0,-2.632099986E-1
1.095298950E-1,-9.112074375E-1,1.620823026E0,-2.564904690E-1
1.119597390E-1,-8.916597366E-1,1.692905068E0,-2.509926856E-1
1.143904680E-1,-8.702794313E-1,1.756434917E0,-2.448840588E-1
1.168219270E-1,-8.507317305E-1,1.813856244E0,-2.332776338E-1
1.192526040E-1,-8.250755072E-1,1.861503720E0,-2.216711938E-1
1.216823950E-1,-7.981973886E-1,1.893268704E0,-1.990692019E-1
1.241131250E-1,-7.645998001E-1,1.898155570E0,-1.673042327E-1
1.265445830E-1,-7.316131592E-1,1.865168929E0,-1.172133237E-1
1.289752600E-1,-6.949613094E-1,1.768652320E0,-4.635301977E-2
1.314051040E-1,-6.576985121E-1,1.608605742E0,5.016360432E-2
1.338358330E-1,-6.155488491E-1,1.416794181E0,1.570649296E-1
1.362672910E-1,-5.752317905E-1,1.213987112E0,2.633554041E-1
1.386979680E-1,-5.391907692E-1,9.794150591E-1,3.598720431E-1
1.411277600E-1,-5.104801655E-1,7.094128132E-1,4.484474063E-1
1.435584890E-1,-4.836020768E-1,4.107000232E-1,5.248054862E-1
1.459899470E-1,-4.683304727E-1,9.549381584E-2,5.962766409E-1
1.484206250E-1,-4.573349059E-1,-2.258210182E-1,6.585848331E-1
1.508504680E-1,-4.548914731E-1,-5.514119267E-1,7.080649137E-1
1.532811450E-1,-4.555023015E-1,-8.708941936E-1,7.404407263E-1
1.557126040E-1,-4.616109431E-1,-1.184267759E0,7.599883676E-1
1.581432810E-1,-4.750500023E-1,-1.479315519E0,7.624318600E-1
1.605731250E-1,-4.854346812E-1,-1.748095989E0,7.526580095E-1
1.630038540E-1,-5.068149567E-1,-1.976559401E0,7.331103683E-1
1.654353120E-1,-5.202540159E-1,-2.162873030E0,7.031779885E-1
1.678659890E-1,-5.330821276E-1,-2.322308779E0,6.701912880E-1
1.702957810E-1,-5.483537912E-1,-2.437762260E0,6.378154755E-1
1.727265100E-1,-5.648471117E-1,-2.524504900E0,6.084939241E-1
1.751579680E-1,-5.831730366E-1,-2.567265511E0,5.840593576E-1
1.775886450E-1,-6.002773046E-1,-2.561156988E0,5.632899404E-1
1.800184890E-1,-6.198248863E-1,-2.514120340E0,5.437422991E-1
1.824492180E-1,-6.442594528E-1,-2.420658112E0,5.290815234E-1
1.848806770E-1,-6.631963253E-1,-2.301539421E0,5.235837698E-1
1.873113020E-1,-6.735810041E-1,-2.164705753E0,5.229728818E-1
1.897411450E-1,-6.778570414E-1,-2.013822079E0,5.272489190E-1
1.921718750E-1,-6.821330786E-1,-1.853775501E0,5.400770903E-1
1.946033330E-1,-6.870200634E-1,-1.679679036E0,5.632899404E-1
1.970340100E-1,-6.857982874E-1,-1.500695705E0,5.920006037E-1
1.994638540E-1,-6.900743246E-1,-1.312549353E0,6.341502666E-1
2.018945310E-1,-6.778570414E-1,-1.140285492E0,6.787433624E-1
2.043259890E-1,-6.558659077E-1,-9.906237125E-1,7.294451594E-1
2.067566660E-1,-6.241009235E-1,-8.482922316E-1,7.807577848E-1
2.091865100E-1,-5.758426189E-1,-7.200106382E-1,8.265726566E-1
2.116172390E-1,-5.281952620E-1,-6.057789326E-1,8.687223196E-1
2.140486970E-1,-4.597783387E-1,-5.129274726E-1,9.023198485E-1
2.164793750E-1,-3.931941092E-1,-4.298498333E-1,9.328631163E-1
2.189091660E-1,-3.211120665E-1,-3.431070447E-1,9.554650784E-1
2.213398950E-1,-2.465865910E-1,-2.722467482E-1,9.560759664E-1
2.237713540E-1,-1.659524292E-1,-2.105493993E-1,9.456912875E-1
2.262020310E-1,-7.187926769E-2,-1.787844449E-1,9.261435866E-1
2.286318750E-1,1.486352459E-2,-1.622910947E-1,9.010981321E-1
2.310626040E-1,9.549766779E-2,-1.421325505E-1,8.650571108E-1
2.334940620E-1,1.779644042E-1,-1.335804462E-1,8.296269774E-1
2.359246870E-1,2.567659616E-1,-1.329695880E-1,7.899207473E-1
2.383545310E-1,3.257936835E-1,-1.293043941E-1,7.544906139E-1
2.407852600E-1,3.923779130E-1,-1.586259007E-1,7.215039134E-1
2.432167180E-1,4.461340308E-1,-1.592367738E-1,6.952367425E-1
2.456473950E-1,4.895054102E-1,-1.635128260E-1,6.750782132E-1
2.480771870E-1,5.243247151E-1,-1.720649302E-1,6.549196839E-1
2.505079160E-1,5.524244905E-1,-1.897800118E-1,6.384263039E-1
2.529393750E-1,5.768591166E-1,-2.355948538E-1,6.274307370E-1
2.553700520E-1,6.092349291E-1,-3.095094860E-1,6.164351702E-1
2.577998950E-1,6.391673088E-1,-4.084695876E-1,6.121591330E-1
2.602306250E-1,6.739865541E-1,-5.165926814E-1,6.103265285E-1
2.626620830E-1,7.136927843E-1,-6.564806700E-1,6.170460582E-1
2.650927600E-1,7.558424473E-1,-8.122512102E-1,6.304850578E-1
2.675225520E-1,8.010463715E-1,-9.790172577E-1,6.482001543E-1
2.699532810E-1,8.505264521E-1,-1.163498402E0,6.683586836E-1
2.723847390E-1,9.036717415E-1,-1.365694642E0,6.940150261E-1
2.748154160E-1,9.617038965E-1,-1.585605979E0,7.135626674E-1
2.772452600E-1,1.016681671E0,-1.790856481E0,7.337211967E-1
2.796759890E-1,1.082044244E0,-2.051084757E0,7.483819723E-1
2.821074470E-1,1.130913377E0,-2.242896318E0,7.538797259E-1
2.845380720E-1,1.190167308E0,-2.468916416E0,7.569340467E-1
2.869679160E-1,1.239647269E0,-2.660727739E0,7.532688975E-1
2.893986450E-1,1.290959954E0,-2.872087002E0,7.489928007E-1
2.918301040E-1,1.354489923E0,-3.140867472E0,7.441059351E-1
2.942607810E-1,1.394806981E0,-3.333900690E0,7.257799506E-1
2.966905720E-1,1.391752601E0,-3.444467306E0,7.001236677E-1
2.991213020E-1,1.369761467E0,-3.535486221E0,6.720238924E-1
3.015527600E-1,1.327000976E0,-3.620396376E0,6.469784379E-1
3.039834370E-1,1.264692783E0,-3.676595926E0,6.213220954E-1
3.064132810E-1,1.193221569E0,-3.726075888E0,5.956657529E-1
3.088440100E-1,1.110144019E0,-3.759673357E0,5.779507160E-1
3.112754680E-1,1.013016462E0,-3.767614603E0,5.608465075E-1
3.137060930E-1,9.036717415E-1,-3.694310904E0,5.547378659E-1
3.161359370E-1,7.876074314E-1,-3.456684589E0,5.510726571E-1
3.185666660E-1,6.807060242E-1,-3.072450638E0,5.486292243E-1
3.209981250E-1,6.019045115E-1,-2.694325447E0,5.364118814E-1
3.234288020E-1,5.304333568E-1,-2.510455132E0,5.193076730E-1
3.258586450E-1,4.681251347E-1,-2.366901875E0,4.979274571E-1
3.282893220E-1,4.601839185E-1,-2.017487288E0,4.808232486E-1
3.307207810E-1,5.237138271E-1,-1.463433027E0,4.753254652E-1
3.331514580E-1,5.695286989E-1,-1.103022814E0,4.649407566E-1
3.355813020E-1,5.646417737E-1,-1.039492846E0,4.515017271E-1
3.380120310E-1,5.365419984E-1,-1.077977300E0,4.405061603E-1
3.404434890E-1,5.023335814E-1,-1.110964060E0,4.337866604E-1
3.428741660E-1,4.736229181E-1,-1.093859792E0,4.325649440E-1
3.453039580E-1,4.504100680E-1,-1.036438584E0,4.301214814E-1
3.477346870E-1,4.455231428E-1,-9.613021612E-1,4.282888770E-1
3.501661450E-1,4.540752470E-1,-8.922744393E-1,4.191259146E-1
3.525968220E-1,4.705685973E-1,-8.519573808E-1,4.032434225E-1
3.550266660E-1,4.876728058E-1,-8.415727019E-1,3.818631470E-1
3.574573430E-1,5.041661263E-1,-8.727267981E-1,3.519307971E-1
3.598888020E-1,5.102748275E-1,-9.600804448E-1,3.219984174E-1
3.623194790E-1,5.145508647E-1,-1.069425225E0,2.884008586E-1
3.647493220E-1,4.956140518E-1,-1.161665797E0,2.578576207E-1
3.671800520E-1,4.785098433E-1,-1.227028370E0,2.285360992E-1
3.696115100E-1,4.760663807E-1,-1.294223428E0,2.010471821E-1
3.720421870E-1,4.681251347E-1,-1.329653621E0,1.723365486E-1
3.744719790E-1,4.620164931E-1,-1.318657994E0,1.509562880E-1
3.769027080E-1,4.705685973E-1,-1.305829883E0,1.289651543E-1
3.793341660E-1,4.882836938E-1,-1.303386450E0,1.130826771E-1
3.817648430E-1,5.011118650E-1,-1.294834375E0,9.781105816E-2
3.841946870E-1,5.243247151E-1,-1.281395316E0,8.803722262E-2
3.866254160E-1,5.524244905E-1,-1.269178033E0,8.681549132E-2
3.890568750E-1,5.756373405E-1,-1.250241160E0,8.925895393E-2
3.914875520E-1,6.049588919E-1,-1.221530557E0,9.842192382E-2
3.939173430E-1,6.355021000E-1,-1.202593684E0,1.014762446E-1
3.963480720E-1,6.556606293E-1,-1.190987349E0,1.112500802E-1
3.987795310E-1,6.788734198E-1,-1.178770065E0,1.179695949E-1
4.012102080E-1,6.941450834E-1,-1.170828819E0,1.210239157E-1
4.036400520E-1,7.069731951E-1,-1.175104856E0,1.167478636E-1
4.060707290E-1,7.020863295E-1,-1.200150251E0,1.136935428E-1
4.085021870E-1,6.984211206E-1,-1.258182406E0,1.051414311E-1
4.109328640E-1,6.837604046E-1,-1.355309963E0,8.803722262E-2
4.133627080E-1,6.623800993E-1,-1.490311027E0,6.177003682E-2
4.157934370E-1,6.330586672E-1,-1.635696888E0,2.328555845E-2
4.182248950E-1,6.074023247E-1,-1.763367534E0,-2.924880572E-2
4.206555720E-1,5.799133778E-1,-1.867825389E0,-9.705478698E-2
4.230853640E-1,5.615874529E-1,-1.945405245E0,-1.691368371E-1
4.255160930E-1,5.365419984E-1,-1.959455132E0,-2.369428128E-1
4.279475520E-1,5.090531111E-1,-1.922192335E0,-2.900880277E-1
4.303782290E-1,5.017226934E-1,-1.872101426E0,-3.181878030E-1
4.328080720E-1,5.188269615E-1,-1.826286674E0,-3.212421238E-1
4.352388020E-1,5.536462069E-1,-1.783526063E0,-3.084139824E-1
4.376702600E-1,5.964066982E-1,-1.740765572E0,-2.858119905E-1
4.401008850E-1,6.495519876E-1,-1.707778811E0,-2.589339316E-1
4.425307290E-1,7.051407099E-1,-1.676013947E0,-2.326667607E-1
4.449614580E-1,7.595076561E-1,-1.648525000E0,-2.131190896E-1
4.473929160E-1,8.065441847E-1,-1.617981791E0,-2.057887167E-1
4.498235930E-1,8.548024893E-1,-1.602099299E0,-2.009017915E-1
4.522534370E-1,9.024499655E-1,-1.595990658E0,-2.002909333E-1
4.546841140E-1,9.384909868E-1,-1.588049412E0,-2.057887167E-1
4.571155720E-1,9.751428366E-1,-1.584995031E0,-2.125082314E-1
4.595462500E-1,1.002020955E0,-1.570945144E0,-2.216711938E-1
4.619760930E-1,1.026455522E0,-1.564225674E0,-2.259472460E-1
4.644068220E-1,1.039283633E0,-1.556284428E0,-2.277798504E-1
4.668382810E-1,1.054555297E0,-1.551397443E0,-2.296124399E-1
4.692689580E-1,1.060053110E0,-1.552008390E0,-2.216711938E-1
4.716987500E-1,1.064939976E0,-1.561782241E0,-2.118973583E-1
4.741294790E-1,1.056387901E0,-1.563003898E0,-1.960148811E-1
4.765609370E-1,1.049057484E0,-1.570945144E0,-1.740237474E-1
4.789916140E-1,1.038672805E0,-1.589271069E0,-1.502000242E-1
4.814214580E-1,1.023401141E0,-1.610040545E0,-1.257654279E-1
4.838521870E-1,1.003242612E0,-1.628977299E0,-1.031634361E-1
4.862836450E-1,9.849166870E-1,-1.652190208E0,-7.689625025E-2
4.887143220E-1,9.531517029E-1,-1.669294357E0,-5.185080320E-2
4.911441140E-1,9.268845320E-1,-1.689452887E0,-2.863794193E-2
4.935748430E-1,8.902326822E-1,-1.700448513E0,-2.981623635E-3
4.960063020E-1,8.560242653E-1,-1.718774438E0,2.572901733E-2
4.984369790E-1,8.187614679E-1,-1.737711191E0,5.138533562E-2
5.008668220E-1,7.821096182E-1,-1.753593683E0,8.131770790E-2
5.032975000E-1,7.436251640E-1,-1.773141384E0,1.088066250E-1
5.057289580E-1,7.051407099E-1,-1.793299913E0,1.362955272E-1
5.081596350E-1,6.733757257E-1,-1.820788860E0,1.576757878E-1
5.105894790E-1,6.501628160E-1,-1.851332068E0,1.753908694E-1
5.130202080E-1,6.196196079E-1,-1.892259955E0,1.967711300E-1
5.154516660E-1,5.994610786E-1,-1.926468492E0,2.138753533E-1
5.178823430E-1,5.878546238E-1,-1.965563774E0,2.285360992E-1
5.203121350E-1,5.676960945E-1,-1.994885325E0,2.468620390E-1
5.227428640E-1,5.530353785E-1,-2.023595810E0,2.657988667E-1
5.251743220E-1,5.475375652E-1,-2.055360794E0,2.847356796E-1
5.276050000E-1,5.395963192E-1,-2.094456196E0,3.067268133E-1
5.300348430E-1,5.322659016E-1,-2.135995150E0,3.329939842E-1
5.324655720E-1,5.310442448E-1,-2.183642387E0,3.543742597E-1
5.348970310E-1,5.261572599E-1,-2.238009453E0,3.733110428E-1
5.373276560E-1,5.249356031E-1,-2.298485041E0,3.910261393E-1
5.397575000E-1,5.206595063E-1,-2.364458561E0,4.075194895E-1
5.421882290E-1,5.151617527E-1,-2.434707880E0,4.179041684E-1
5.446196870E-1,5.053879023E-1,-2.509233475E0,4.246236980E-1
5.470503640E-1,4.992792606E-1,-2.592310905E0,4.276780188E-1
5.494801560E-1,4.882836938E-1,-2.671112537E0,4.227910936E-1
5.519108850E-1,4.803424478E-1,-2.757244349E0,4.081303477E-1
5.543423430E-1,4.638490975E-1,-2.847652435E0,3.953021765E-1
5.567730200E-1,4.552969933E-1,-2.930730104E0,3.757545054E-1
5.592028640E-1,4.394145012E-1,-3.004644632E0,3.500981927E-1
5.616335930E-1,4.174233675E-1,-3.058400869E0,3.262744844E-1
5.640650520E-1,3.960431218E-1,-3.093830824E0,2.987855673E-1
5.664957290E-1,3.691650629E-1,-3.117654562E0,2.749618292E-1
5.689255200E-1,3.416761458E-1,-3.132926226E0,2.486946434E-1
5.713562500E-1,3.111329079E-1,-3.141478300E0,2.242600471E-1
5.737877080E-1,2.799788117E-1,-3.139645815E0,2.077666968E-1
5.762183850E-1,2.506573200E-1,-3.147587061E0,1.961602718E-1
5.786482290E-1,2.237792611E-1,-3.157360792E0,1.876081675E-1
5.810789580E-1,1.975120753E-1,-3.167745590E0,1.912733465E-1
5.835104160E-1,1.749100834E-1,-3.177519321E0,2.016580552E-1
5.859410410E-1,1.516972184E-1,-3.208062649E0,2.218165845E-1
5.883708850E-1,1.303169578E-1,-3.263651371E0,2.535815537E-1
5.908016140E-1,1.107692868E-1,-3.325959444E0,2.951203585E-1
5.932330720E-1,9.488680214E-2,-3.391932964E0,3.329939842E-1
5.956637500E-1,8.633469790E-2,-3.467069149E0,3.714784682E-1
5.980935410E-1,7.656086236E-2,-3.559920788E0,4.081303477E-1
6.005242700E-1,6.495442986E-2,-3.652772188E0,4.478365481E-1
6.029557290E-1,5.640232563E-2,-3.738903999E0,4.820449650E-1
6.053864060E-1,4.846108332E-2,-3.822592497E0,5.095338821E-1
6.078162500E-1,4.540675879E-2,-3.895896196E0,5.333575606E-1
6.102469790E-1,4.479589686E-2,-3.964924097E0,5.474074483E-1
6.126784370E-1,4.418503121E-2,-4.041281700E0,5.620682240E-1
6.151091140E-1,4.846108332E-2,-4.127413750E0,5.834484696E-1
6.175389060E-1,6.190010905E-2,-4.217821598E0,6.029961705E-1
6.199696350E-1,6.739789248E-2,-4.306396961E0,6.231546998E-1
6.224010930E-1,7.900431752E-2,-4.390085697E0,6.433132291E-1
6.248317700E-1,9.366507828E-2,-4.460335255E0,6.604174376E-1
6.272616140E-1,1.156562045E-1,-4.511647701E0,6.701912880E-1
6.296923430E-1,1.235974431E-1,-4.542191029E0,6.830194592E-1
6.321238020E-1,1.382581890E-1,-4.564793110E0,6.982910633E-1
6.345544270E-1,1.498646289E-1,-4.569068909E0,7.105083466E-1
6.369842700E-1,1.584167331E-1,-4.567236423E0,7.245582342E-1
6.394150000E-1,1.498646289E-1,-4.554408073E0,7.483819723E-1
6.418464580E-1,1.431451142E-1,-4.544634342E0,7.777034640E-1
6.442771350E-1,1.229865849E-1,-4.539136410E0,8.100792766E-1
6.467069790E-1,9.305420518E-2,-4.542191029E0,8.510072231E-1
6.491377080E-1,5.579145998E-2,-4.552575588E0,8.962112069E-1
6.515691140E-1,9.365744889E-3,-4.578231812E0,9.450803995E-1
6.539997910E-1,-4.255776107E-2,-4.610607624E0,9.982256293E-1
6.564296350E-1,-9.936818480E-2,-4.650924683E0,1.049538374E0
6.588603640E-1,-1.653415710E-1,-4.697961330E0,1.102683544E0
6.612918220E-1,-2.282606363E-1,-4.745608807E0,1.160104871E0
6.637225000E-1,-2.960666120E-1,-4.803640842E0,1.220580459E0
6.661522910E-1,-3.614291549E-1,-4.865949154E0,1.282888651E0
6.685830200E-1,-4.255699217E-1,-4.936809540E0,1.348862052E0
6.710144790E-1,-4.854346812E-1,-5.008280754E0,1.419111490E0
6.734451560E-1,-5.434668064E-1,-5.093191147E0,1.496080399E0
6.758750000E-1,-5.953903198E-1,-5.194594383E0,1.579768896E0
6.783057290E-1,-6.442594528E-1,-5.314323902E0,1.665900826E0
6.807371870E-1,-6.845766306E-1,-5.439551353E0,1.755087137E0
6.831678120E-1,-7.242827415E-1,-5.556837082E0,1.849771142E0
6.855976560E-1,-7.566586733E-1,-5.655797482E0,1.949342012E0
6.880283850E-1,-7.933105230E-1,-5.721159935E0,2.051356316E0
6.904598430E-1,-8.244645596E-1,-5.757811546E0,2.153981686E0
6.928905200E-1,-8.598947525E-1,-5.759033680E0,2.263326406E0
6.953203640E-1,-8.983792067E-1,-5.733376980E0,2.375725508E0
6.977510930E-1,-9.417506456E-1,-5.685729504E0,2.486292124E0
7.001825520E-1,-9.887871742E-1,-5.624032497E0,2.601134539E0
7.026131770E-1,-1.039488912E0,-5.555004597E0,2.709257603E0
7.050430200E-1,-1.091412425E0,-5.485365868E0,2.809439421E0
7.074737500E-1,-1.134783864E0,-5.420614243E0,2.904123545E0
7.099052080E-1,-1.145779371E0,-5.357695103E0,2.988422871E0
7.123358850E-1,-1.131118655E0,-5.290500164E0,3.067224503E0
7.147657290E-1,-1.121955633E0,-5.201924801E0,3.134419441E0
7.171964060E-1,-1.123788238E0,-5.082806110E0,3.174736500E0
7.196278640E-1,-1.135394692E0,-4.930089951E0,3.193673372E0
7.220585410E-1,-1.142725110E0,-4.748663425E0,3.199171066E0
7.244883850E-1,-1.142725110E0,-4.554408073E0,3.199171066E0
7.269191140E-1,-1.129896879E0,-4.360764027E0,3.191229820E0
7.293505720E-1,-1.106684089E0,-4.173228741E0,3.177790880E0
7.317812500E-1,-1.070643067E0,-3.997910738E0,3.161297560E0
7.342110930E-1,-1.033991218E0,-3.826257706E0,3.148469448E0
7.366417700E-1,-9.961175919E-1,-3.653383017E0,3.133197784E0
7.390732290E-1,-9.637417793E-1,-3.456684589E0,3.120369673E0
7.415039060E-1,-9.374744892E-1,-3.237384081E0,3.104487181E0
7.439337500E-1,-9.197595119E-1,-2.993649006E0,3.097767591E0
7.463644790E-1,-9.148725271E-1,-2.726090431E0,3.100211143E0
7.487959370E-1,-9.240355492E-1,-2.440816641E0,3.111817598E0
7.512266140E-1,-9.490809441E-1,-2.139049292E0,3.136862993E0
7.536564060E-1,-9.826785326E-1,-1.827508330E0,3.164962769E0
7.560871350E-1,-1.029715061E0,-1.514745593E0,3.190618992E0
7.585185930E-1,-1.087136388E0,-1.209924102E0,3.216886282E0
7.609492700E-1,-1.150666356E0,-9.167090654E-1,3.235823154E0
7.633791140E-1,-1.220915794E0,-6.265482903E-1,3.248651266E0
7.658098430E-1,-1.296663046E0,-3.418853283E-1,3.251094580E0
7.682413020E-1,-1.372410178E0,-6.149841845E-2,3.240710020E0
7.706719270E-1,-1.454266071E0,2.201102227E-1,3.219329596E0
7.731017700E-1,-1.548950076E0,5.078274608E-1,3.187564850E0
7.755325000E-1,-1.641801596E0,7.961556315E-1,3.143582582E0
7.779639580E-1,-1.745648623E0,1.084483743E0,3.092880726E0
7.803946350E-1,-1.851939082E0,1.376477122E0,3.028739929E0
7.828244790E-1,-1.958229423E0,1.668470502E0,2.960933924E0
7.852551560E-1,-2.065741777E0,1.959242105E0,2.889462709E0
7.876866140E-1,-2.174475670E0,2.246959448E0,2.810661316E0
7.901172910E-1,-2.274046659E0,2.518794060E0,2.728194475E0
7.925471350E-1,-2.372395992E0,2.774746418E0,2.643284321E0
7.949778640E-1,-2.465858221E0,3.008707762E0,2.555319786E0
7.974093220E-1,-2.550157547E0,3.222510338E0,2.474685669E0
7.998400000E-1,-2.630180836E0,3.408823967E0,2.386721134E0
8.022697910E-1,-2.703484535E0,3.576811790E0,2.306087017E0
8.047005200E-1,-2.765182018E0,3.725862741E0,2.229728937E0
8.071319790E-1,-2.820770502E0,3.843759775E0,2.157646894E0
8.095626560E-1,-2.864752769E0,3.944552422E0,2.092895269E0
8.119925000E-1,-2.895906925E0,4.020299911E0,2.031808615E0
8.144232290E-1,-2.910567760E0,4.078942776E0,1.970722318E0
8.168546870E-1,-2.911178589E0,4.124146938E0,1.917577147E0
8.192853640E-1,-2.896517754E0,4.148581505E0,1.860766649E0
8.217151560E-1,-2.872083187E0,4.159576893E0,1.813119173E0
8.241458850E-1,-2.833598852E0,4.158355236E0,1.767304420E0
8.265773430E-1,-2.784729481E0,4.130255699E0,1.726376414E0
8.290080200E-1,-2.729751825E0,4.093603611E0,1.683005095E0
8.314378640E-1,-2.671719551E0,4.042291164E0,1.640244484E0
8.338685930E-1,-2.614298344E0,3.972041368E0,1.598705769E0
8.363000520E-1,-2.554433584E0,3.896904945E0,1.557166934E0
8.387307290E-1,-2.498844862E0,3.811383963E0,1.515017271E0
8.411605200E-1,-2.444478035E0,3.716699839E0,1.471035004E0
8.435912500E-1,-2.393165350E0,3.615296364E0,1.424609303E0
8.460227080E-1,-2.349793911E0,3.516336203E0,1.378794432E0
8.484533850E-1,-2.311309338E0,3.417987108E0,1.328703523E0
8.508832290E-1,-2.272214174E0,3.318416119E0,1.273725629E0
8.533139580E-1,-2.248390436E0,3.240225315E0,1.210195780E0
8.557454160E-1,-2.230064392E0,3.159591198E0,1.138113737E0
8.581760930E-1,-2.217236280E0,3.077735424E0,1.059312224E0
8.606058850E-1,-2.210516691E0,3.000766516E0,9.798997045E-1
8.630366140E-1,-2.223344803E0,2.921354055E0,9.017090201E-1
8.654680720E-1,-2.237394810E0,2.840108871E0,8.265726566E-1
8.678987500E-1,-2.263661861E0,2.750311852E0,7.551015019E-1
8.703285930E-1,-2.302757263E0,2.659904003E0,6.866846085E-1
8.727593220E-1,-2.346739531E0,2.565219879E0,6.268199086E-1
8.751907810E-1,-2.406604290E0,2.471146584E0,5.706203580E-1
8.776214060E-1,-2.476242781E0,2.378295183E0,5.156425238E-1
8.800512500E-1,-2.548324823E0,2.287276506E0,4.576103985E-1
8.824819790E-1,-2.626515627E0,2.208474874E0,3.953021765E-1
8.849134370E-1,-2.707760572E0,2.136392832E0,3.262744844E-1
8.873441140E-1,-2.793892622E0,2.081414938E0,2.560250163E-1
8.897739580E-1,-2.871472359E0,2.031324148E0,1.705039591E-1
8.922046870E-1,-2.952717304E0,1.989174366E0,8.192857355E-2
8.946361450E-1,-3.033351421E0,1.937861800E0,-1.886410639E-2
8.970667700E-1,-3.098103285E0,1.873110175E0,-1.294306219E-1
8.994966140E-1,-3.146361589E0,1.776593447E0,-2.503818274E-1
9.019273430E-1,-3.187900305E0,1.658696651E0,-3.701113164E-1
9.043588020E-1,-3.223941326E0,1.510867357E0,-4.837321639E-1
9.067894790E-1,-3.269756079E0,1.351431608E0,-5.814705491E-1
9.092193220E-1,-3.316181898E0,1.192606807E0,-6.694350839E-1
9.116500000E-1,-3.351001263E0,1.050275326E0,-7.482365966E-1
9.140815100E-1,-3.376046658E0,9.195502996E-1,-8.245946765E-1
9.165121350E-1,-3.383377075E0,8.053185940E-1,-9.070614576E-1
9.189419790E-1,-3.371159792E0,6.855891347E-1,-9.931933284E-1
9.213727080E-1,-3.351612091E0,5.676922202E-1,-1.082379580E0
9.238041660E-1,-3.330842733E0,4.467410445E-1,-1.166678905E0
9.262348430E-1,-3.308851480E0,3.294550180E-1,-1.244869590E0
9.286646870E-1,-3.278308392E0,1.999516934E-1,-1.315729856E0
9.310953640E-1,-3.257538795E0,7.472441345E-2,-1.379259825E0
9.335268750E-1,-3.223330498E0,-5.355717614E-2,-1.421409488E0
9.359575000E-1,-3.184845924E0,-1.934451908E-1,-1.452563524E0
9.383873430E-1,-3.139642000E0,-3.339440823E-1,-1.462948322E0
9.408180720E-1,-3.082220793E0,-4.811624885E-1,-1.453785300E0
9.432495310E-1,-3.023577690E0,-6.351004243E-1,-1.423242092E0
9.456802080E-1,-2.957604408E0,-7.884274721E-1,-1.371318579E0
9.481100000E-1,-2.882467985E0,-9.283154607E-1,-1.304734349E0
9.505407290E-1,-2.798779488E0,-1.065760016E0,-1.232041359E0
9.529722390E-1,-2.708371401E0,-1.197095990E0,-1.146520376E0
9.554028640E-1,-2.615520000E0,-1.322323203E0,-1.066497087E0
9.578327080E-1,-2.504342794E0,-1.448772192E0,-9.834195375E-1
9.602634370E-1,-2.393165350E0,-1.568501711E0,-9.052288532E-1
9.626948950E-1,-2.274046659E0,-1.693118095E0,-8.349794149E-1
9.651255720E-1,-2.143932581E0,-1.828119159E0,-7.738929391E-1
9.675553640E-1,-2.011374950E0,-1.976559401E0,-7.274671793E-1
9.699860930E-1,-1.880038857E0,-2.121945143E0,-6.853175163E-1
9.724175520E-1,-1.753589869E0,-2.251448393E0,-6.425570250E-1
9.748482290E-1,-1.617977858E0,-2.360793352E0,-5.924661160E-1
9.772780720E-1,-1.472591996E0,-2.457920790E0,-5.197731853E-1
9.797075810E-1,-1.327206254E0,-2.523283243E0,-4.366955757E-1
9.821390390E-1,-1.192205191E0,-2.554437399E0,-3.285725117E-1
9.845697160E-1,-1.064534426E0,-2.564211130E0,-1.941822916E-1
9.869995600E-1,-9.545787573E-1,-2.547717810E0,-4.635301977E-2
9.894302370E-1,-8.617273569E-1,-2.516563654E0,1.069740281E-1
9.918616950E-1,-7.859801054E-1,-2.477468491E0,2.560250163E-1
9.942923720E-1,-7.328349352E-1,-2.429821014E0,4.111846685E-1
9.967222160E-1,-7.022916079E-1,-2.371788740E0,5.693985820E-1
9.991529450E-1,-7.047351599E-1,-2.280770063E0,7.202821970E-1
1.001584404E0,-7.419978380E-1,-2.162262201E0,8.528398275E-1
1.004015081E0,-8.189668655E-1,-1.999161363E0,9.725692868E-1
1.006444924E0,-9.222029448E-1,-1.802462935E0,1.075194597E0
1.008875601E0,-1.045597553E0,-1.559338689E0,1.172932982E0
1.011307060E0,-1.169603109E0,-1.283838749E0,1.266395330E0
1.013737737E0,-1.296663046E0,-9.729086161E-1,1.367187977E0
1.016167581E0,-1.410283804E0,-6.405981779E-1,1.461871982E0
1.018598310E0,-1.503746152E0,-3.095094860E-1,1.562664747E0
1.021029768E0,-1.584991097E0,2.035745420E-2,1.661013961E0
1.023460445E0,-1.642412424E0,3.325093389E-1,1.752643585E0
1.025890289E0,-1.688227296E0,6.098418832E-1,1.834499478E0
1.028320966E0,-1.723657489E0,8.670159578E-1,1.898029447E0
1.030752424E0,-1.744426847E0,1.107696652E0,1.944455147E0
1.033183101E0,-1.755422354E0,1.327607989E0,1.967668056E0
1.035612945E0,-1.764585376E0,1.534080267E0,1.976830959E0
1.038043674E0,-1.770694017E0,1.743606806E0,1.970111489E0
1.040475133E0,-1.775581002E0,1.947635651E0,1.957283258E0
1.042905810E0,-1.774359226E0,2.144944906E0,1.934070468E0
1.045335654E0,-1.773137450E0,2.341032505E0,1.905359864E0
1.047766383E0,-1.771915793E0,2.537120104E0,1.877259970E0
1.050197841E0,-1.765807152E0,2.733207703E0,1.849160194E0
1.052628466E0,-1.753589869E0,2.924408197E0,1.822282195E0
1.055058310E0,-1.738318205E0,3.110722065E0,1.789906383E0
1.057489039E0,-1.718159676E0,3.293370724E0,1.761195779E0
1.059920497E0,-1.689449072E0,3.468077898E0,1.737372041E0
1.062351174E0,-1.658294916E0,3.629346132E0,1.715380907E0
1.064781018E0,-1.619199634E0,3.788781881E0,1.701941848E0
1.067211747E0,-1.575217366E0,3.943330765E0,1.690335393E0
1.069643206E0,-1.527569890E0,4.102155685E0,1.686059356E0
1.072073831E0,-1.473202944E0,4.281138897E0,1.689113736E0
1.074503674E0,-1.429831505E0,4.503493786E0,1.700720072E0
1.076934404E0,-1.387071013E0,4.725237846E0,1.718435168E0
1.079365862E0,-1.322319269E0,4.832749844E0,1.725154757E0
1.081796539E0,-1.230689645E0,4.802817345E0,1.694611430E0
1.084226383E0,-1.117068768E0,4.725848675E0,1.628027201E0
1.086657112E0,-9.729046822E-1,4.599399567E0,1.541895270E0
1.089088570E0,-8.122472763E-1,4.436909676E0,1.461261153E0
1.091519195E0,-6.436486244E-1,4.249985218E0,1.391011715E0
1.093949039E0,-4.671087563E-1,4.027019501E0,1.339699030E0
1.096379768E0,-2.954557538E-1,3.771677732E0,1.296938539E0
1.098811226E0,-1.238027662E-1,3.496788502E0,1.264562726E0
1.101241904E0,2.036130801E-2,3.205406189E0,1.232186913E0
1.103671747E0,1.516972184E-1,2.904249668E0,1.198589325E0
1.106102476E0,2.659289241E-1,2.595763206E0,1.159493923E0
1.108533935E0,3.661107421E-1,2.291552544E0,1.120398641E0
1.110964612E0,4.540752470E-1,1.998337507E0,1.082525015E0
1.113394404E0,5.231029987E-1,1.740552425E0,1.051370978E0
1.115825133E0,5.793025494E-1,1.520030260E0,1.023271203E0
1.118256591E0,6.171761751E-1,1.330051422E0,9.982256293E-1
1.120687268E0,6.416107416E-1,1.172448277E0,9.780671000E-1
1.123117112E0,6.483302116E-1,1.039890647E0,9.579085708E-1
1.125547841E0,6.397781372E-1,9.250480533E-1,9.475238919E-1
1.127979299E0,6.300042868E-1,8.242554069E-1,9.401934743E-1
1.130409976E0,6.104565859E-1,7.326257229E-1,9.401934743E-1
1.132839768E0,5.805242062E-1,6.440503001E-1,9.469130039E-1
1.135270497E0,5.457049608E-1,5.493662953E-1,9.481347203E-1
1.137701956E0,5.005009770E-1,4.369671941E-1,9.438586831E-1
1.140132633E0,4.241428971E-1,3.239572346E-1,9.114828706E-1
1.142562476E0,3.453413248E-1,2.011734098E-1,8.681114316E-1
1.144993206E0,2.561550736E-1,1.144306213E-1,8.222966194E-1
1.147424664E0,1.663579792E-1,4.173772037E-2,7.770925760E-1
1.149855341E0,9.977371991E-2,-9.574918076E-3,7.300560474E-1
1.152285185E0,3.318946809E-2,-2.606826462E-2,6.781325340E-1
1.154715862E0,-5.905111134E-2,-1.385097019E-2,6.176568866E-1
1.157147320E0,-1.121963412E-1,-1.934875362E-2,5.522943735E-1
1.159577997E0,-1.909978986E-1,-4.011815414E-2,4.698276818E-1
1.162007841E0,-2.777406871E-1,-7.493744791E-2,3.849174976E-1
1.164438570E0,-3.553204834E-1,-1.561824381E-1,2.926768959E-1
1.166870029E0,-4.133526385E-1,-2.826314569E-1,2.034906447E-1
1.169300706E0,-5.092583895E-1,-4.041935205E-1,1.301868856E-1
1.171730549E0,-6.002773046E-1,-4.927689135E-1,7.215473801E-2
1.174161279E0,-6.570876837E-1,-5.660727024E-1,3.428112715E-2
1.176592737E0,-7.071785927E-1,-6.057789326E-1,1.351172291E-2
1.179023362E0,-7.181740999E-1,-6.577023864E-1,-1.149029471E-3
1.181453206E0,-7.310023308E-1,-7.004629374E-1,-1.275545917E-2
1.183883935E0,-7.328349352E-1,-7.065715790E-1,-1.580978185E-2
1.186315393E0,-7.108438015E-1,-6.876347661E-1,-9.701135568E-3
1.188746070E0,-6.876308918E-1,-6.265482903E-1,-5.425082520E-3
1.191175914E0,-6.583093405E-1,-5.416381359E-1,-5.381647497E-4
1.193606643E0,-6.357073784E-1,-4.451214671E-1,8.624805138E-3
1.196038101E0,-6.106619835E-1,-3.174507320E-1,1.900950633E-2
1.198468779E0,-6.253226995E-1,-1.708431989E-1,3.733544797E-2
1.200898570E0,-6.039423943E-1,-4.928112403E-2,4.588755220E-2
1.203329299E0,-6.008881330E-1,6.678316742E-2,4.527668655E-2
1.205760758E0,-5.819512606E-1,1.620780677E-1,3.122680075E-2
1.208191435E0,-5.550732613E-1,2.317166477E-1,1.351172291E-2
1.210621279E0,-5.257517099E-1,2.793641090E-1,6.835646927E-4
1.213052008E0,-4.713847935E-1,3.050204217E-1,1.294429414E-3
1.215483466E0,-4.151852429E-1,3.373962343E-1,1.656604744E-2
1.217914143E0,-3.547096252E-1,3.422831595E-1,4.038976878E-2
1.220343935E0,-2.997318208E-1,3.752698600E-1,7.643079013E-2
1.222774664E0,-2.594147325E-1,4.247499108E-1,1.216347739E-1
1.225206122E0,-2.239845693E-1,5.029405355E-1,1.723365486E-1
1.227636799E0,-2.270388901E-1,6.092309952E-1,2.395316660E-1
1.230066643E0,-1.989391148E-1,6.794804335E-1,2.859573960E-1
1.232497372E0,-1.665633023E-1,6.477155089E-1,2.993964255E-1
1.234928831E0,-1.537351310E-1,5.188230276E-1,2.981746793E-1
1.237359508E0,-1.225810349E-1,3.502244055E-1,2.780161500E-1
1.239789351E0,-8.776174486E-2,1.956756413E-1,2.444185764E-1
1.242220029E0,-4.561208189E-2,6.678316742E-2,2.041015178E-1
1.244651487E0,2.027750015E-4,-2.484653704E-2,1.625627130E-1
1.247082164E0,3.196773678E-2,-6.088755280E-2,1.320194751E-1
1.249512008E0,6.617616117E-2,-1.073132753E-1,1.155261323E-1
1.251942737E0,9.427593648E-2,-1.348021775E-1,9.720019251E-2
1.254374195E0,1.083258241E-1,-1.415216923E-1,8.864808828E-2
1.256804872E0,1.150453389E-1,-1.592367738E-1,7.948511839E-2
1.259234716E0,1.089366898E-1,-1.873365492E-1,7.093300670E-2
1.261665445E0,1.132127494E-1,-1.971103847E-1,4.527668655E-2
1.264096904E0,1.058823690E-1,-1.812278926E-1,2.389642410E-2
1.266527581E0,9.305420518E-2,-1.537389904E-1,3.127023578E-3
1.268957372E0,8.450210094E-2,-1.445760131E-1,-6.646811962E-3
1.271388101E0,7.167394459E-2,-1.225848943E-1,-9.701135568E-3
1.273819560E0,6.800875813E-2,-9.815030545E-2,-6.035947241E-3
1.276250237E0,6.923048198E-2,-7.249398530E-2,9.235670790E-3
1.278680081E0,7.167394459E-2,-3.828555718E-2,3.428112715E-2
1.281110810E0,7.533913106E-2,-1.018578187E-2,6.421349943E-2
1.283542268E0,7.717172801E-2,1.913572289E-2,1.002545133E-1
1.285972945E0,9.183248132E-2,4.479204491E-2,1.375172585E-1
1.288402737E0,1.016063169E-1,-2.423567139E-2,1.900516301E-1
1.290833466E0,8.877815306E-2,-1.231957600E-1,2.596902251E-1
1.293264924E0,1.058823690E-1,-2.050516307E-1,3.232201338E-1
1.295695601E0,9.610853344E-2,-3.290571570E-1,3.843066096E-1
1.298125445E0,1.388690621E-1,-4.658908546E-1,4.325649440E-1
1.300556174E0,1.193213910E-1,-5.886747241E-1,5.840593576E-1
1.302987633E0,1.058746874E-2,-6.638110876E-1,8.058032393E-1
1.305418310E0,-3.791442215E-1,6.654305458E-1,1.201643586E0
1.307848154E0,-7.902561426E-1,2.766805172E0,1.633525014E0
1.310278831E0,-1.077973485E0,2.929295301E0,1.778910756E0
1.312710289E0,-1.347975612E0,3.041083574E0,1.700720072E0
1.315140966E0,-1.495804906E0,2.766805172E0,1.421554923E0
1.317570810E0,-1.562389135E0,2.496803045E0,1.062366486E0
1.320001539E0,-1.554447889E0,2.458318472E0,7.416624427E-1
1.322432997E0,-1.484809279E0,2.516350746E0,4.679950774E-1
1.324863674E0,-1.375464559E0,2.404562473E0,2.285360992E-1
1.327293518E0,-1.173268318E0,2.520626783E0,1.240782365E-1
1.329724247E0,-9.411396980E-1,2.656849623E0,1.173587218E-1
1.332155706E0,-7.468848228E-1,2.739927053E0,1.136935428E-1
1.334586383E0,-5.575166941E-1,2.837665558E0,1.106392145E-1
1.337016174E0,-3.895289302E-1,2.919521332E0,1.063631624E-1
1.339446904E0,-2.343692780E-1,2.951286316E0,1.179695949E-1
1.341878362E0,-1.073094159E-1,2.945177794E0,1.570649296E-1
1.344309039E0,-1.018956304E-3,2.910358429E0,2.083775699E-1
1.346738883E0,3.563292325E-2,2.754587889E0,2.358664721E-1
1.349169612E0,3.257095814E-3,2.510241985E0,2.163188010E-1
1.351601070E0,-1.506884396E-2,2.179764271E0,1.546214670E-1
1.354031747E0,-6.699234247E-2,1.841956019E0,7.520905882E-2
1.356461539E0,-1.494590789E-1,1.447337389E0,3.428112715E-2
1.358892268E0,-1.555677354E-1,1.213987112E0,2.206383087E-2
1.361323726E0,-1.574003249E-1,1.021564722E0,3.183766454E-2
1.363754404E0,-1.457938999E-1,8.572421074E-1,6.115917116E-2
1.366184247E0,-8.776174486E-2,8.389161825E-1,8.742635697E-2
1.368614976E0,3.867961466E-3,9.006134868E-1,8.925895393E-2
1.371046435E0,8.938901871E-2,9.336001873E-1,9.170240909E-2
1.373477112E0,1.877382398E-1,9.500935078E-1,1.259108335E-1
1.375906956E0,2.824222744E-1,8.712919950E-1,1.668387651E-1
1.378337685E0,3.038025498E-1,7.643906474E-1,2.132644802E-1
1.380769143E0,3.147981167E-1,6.440503001E-1,2.462511808E-1
1.383199820E0,3.215176165E-1,5.377598405E-1,2.596902251E-1
1.385629612E0,3.105220497E-1,4.137543440E-1,2.493055016E-1
1.388060341E0,2.897526622E-1,2.860836089E-1,2.071558386E-1
1.390491799E0,2.335530967E-1,1.761279702E-1,1.595083922E-1
1.392922476E0,1.590276062E-1,5.884193256E-2,9.536759555E-2
1.395352320E0,6.495442986E-2,-8.165695518E-2,2.145296521E-2
1.397783049E0,-9.203779697E-2,-2.911835611E-1,-4.513128847E-2
1.400214508E0,-2.563604116E-1,-4.493975043E-1,-8.605922014E-2
1.402645185E0,-4.109091759E-1,-5.825660229E-1,-9.216786921E-2
1.405074976E0,-5.471320152E-1,-6.100549698E-1,-9.705478698E-2
1.407505706E0,-6.271553040E-1,-5.764573812E-1,-9.583305568E-2
1.409937164E0,-6.790788174E-1,-5.147600770E-1,-9.705478698E-2
1.412367841E0,-7.279479504E-1,-4.579496086E-1,-8.850268275E-2
1.414797685E0,-7.377218008E-1,-3.938088119E-1,-8.117230982E-2
1.417228414E0,-7.236719131E-1,-3.467722237E-1,-9.461133182E-2
1.419659872E0,-7.108438015E-1,-3.186724484E-1,-1.104938164E-1
1.422090549E0,-6.851874590E-1,-3.357766867E-1,-1.239328384E-1
1.424520393E0,-6.601419449E-1,-3.602112532E-1,-1.416479200E-1
1.426951122E0,-6.057749987E-1,-3.822023869E-1,-1.477565616E-1
1.429382581E0,-5.300277472E-1,-3.877001703E-1,-1.416479200E-1
1.431813206E0,-4.542805851E-1,-3.944196999E-1,-1.312632114E-1
1.434243049E0,-3.907506466E-1,-4.060261250E-1,-1.221002415E-1
1.436673779E0,-3.308859169E-1,-4.365693629E-1,-1.459239721E-1
1.439105237E0,-2.679668367E-1,-4.426780045E-1,-1.648607850E-1
1.441535914E0,-2.056586444E-1,-4.115239084E-1,-1.899062395E-1
1.443965758E0,-1.543460041E-1,-4.255737960E-1,-2.528252900E-1
1.446396487E0,-1.244136393E-1,-4.665017128E-1,-3.212421238E-1
1.448827945E0,-1.097528785E-1,-4.946014881E-1,-3.756090999E-1
1.451258622E0,-1.054768264E-1,-5.184252262E-1,-4.085958004E-1
1.453688414E0,-1.121963412E-1,-5.239230394E-1,-4.440259337E-1
1.456119143E0,-1.164723933E-1,-5.281990767E-1,-4.666279256E-1
1.458550601E0,-1.256353557E-1,-5.318642855E-1,-4.867864847E-1
1.460981279E0,-1.384635270E-1,-5.104840398E-1,-5.124428272E-1
1.463411122E0,-1.488482207E-1,-4.829950631E-1,-5.380991101E-1
1.465841851E0,-1.628981084E-1,-4.506192505E-1,-5.643663406E-1
1.468273310E0,-1.769480109E-1,-4.219085872E-1,-5.924661160E-1
1.470703987E0,-1.916087568E-1,-4.023609161E-1,-6.242310405E-1
1.473133831E0,-2.056586444E-1,-3.681524992E-1,-6.468330622E-1
1.475564560E0,-2.148216069E-1,-3.522700071E-1,-6.651589870E-1
1.477996018E0,-2.300932407E-1,-3.522700071E-1,-6.706568003E-1
1.480426695E0,-2.355910242E-1,-3.663199246E-1,-6.737111211E-1
1.482856487E0,-2.203193903E-1,-3.901436329E-1,-6.731002331E-1
1.485287216E0,-2.074912488E-1,-4.231303334E-1,-6.718785167E-1
1.487718674E0,-1.714502126E-1,-4.506192505E-1,-6.724894047E-1
1.490149351E0,-1.115854681E-1,-4.249629080E-1,-6.669915915E-1
1.492579195E0,-2.667527646E-2,-3.767046034E-1,-6.627155542E-1
1.495009924E0,6.495442986E-2,-3.455505073E-1,-6.382809281E-1
1.497441383E0,1.626927853E-1,-3.431070447E-1,-5.997964740E-1
1.499872060E0,2.628746033E-1,-3.174507320E-1,-5.484838486E-1
1.502301851E0,3.728302419E-1,-3.211159110E-1,-4.922842681E-1
1.504732581E0,4.937814772E-1,-3.394418657E-1,-4.354738295E-1
1.507164039E0,5.799133778E-1,-3.986957371E-1,-3.902698457E-1
1.509594716E0,6.581040621E-1,-4.035826623E-1,-3.249073327E-1
1.512024560E0,8.425852060E-1,-2.459795624E-1,-2.418297380E-1
1.514455289E0,1.056998730E0,-1.225848943E-1,-1.697476953E-1
1.516886747E0,1.284851313E0,-2.855405677E-3,-9.888738394E-2
1.519317424E0,1.469943285E0,6.372884661E-2,-1.153372973E-2
1.521747268E0,1.550577521E0,-2.851172350E-2,4.772014916E-2
1.524177945E0,1.510871291E0,-1.775627136E-1,8.437203616E-2
1.526609456E0,1.377702713E0,-3.779263496E-1,7.154387236E-2
1.529040133E0,1.189556360E0,-5.330860019E-1,3.367026150E-2
1.531469924E0,9.635363817E-1,-6.167744994E-1,-3.169226646E-2
1.533900654E0,7.692815065E-1,-5.715705156E-1,-8.728095144E-2
1.536332112E0,6.190087795E-1,-5.031536222E-1,-1.239328384E-1
1.538762789E0,5.005009770E-1,-4.084695876E-1,-1.428696513E-1
1.541192633E0,4.155907929E-1,-2.942378819E-1,-1.465348452E-1
1.543623362E0,3.416761458E-1,-1.574041694E-1,-1.392044574E-1
1.546054820E0,2.549333572E-1,-7.005053014E-2,-1.221002415E-1
1.548485497E0,1.822404563E-1,-1.934875362E-2,-1.013308391E-1
1.550915289E0,1.352038682E-1,-5.909729283E-3,-8.605922014E-2
1.553346018E0,1.077149659E-1,-3.466270398E-3,-8.300489932E-2
1.555777476E0,9.855198860E-2,-2.179221250E-2,-9.644392133E-2
1.558208154E0,9.794113040E-2,-6.638533622E-2,-1.147698686E-1
1.560637997E0,1.297060847E-1,-1.329695880E-1,-1.434805095E-1
1.563068726E0,1.590276062E-1,-1.977212429E-1,-1.666933745E-1
1.565500185E0,2.158380151E-1,-2.740793228E-1,-1.960148811E-1
1.567930862E0,2.775353491E-1,-3.565460742E-1,-2.216711938E-1
1.570360706E0,3.557260334E-1,-4.188542664E-1,-2.461057901E-1
1.572791383E0,4.278080761E-1,-4.988775551E-1,-2.564904690E-1
1.575222841E0,4.992792606E-1,-5.556880236E-1,-2.546578944E-1
1.577653518E0,5.927416086E-1,-5.868421197E-1,-2.363319546E-1
1.580083362E0,6.978102922E-1,-5.526337028E-1,-2.204494625E-1
1.582514091E0,8.315896988E-1,-4.774972796E-1,-2.051778585E-1
1.584945549E0,9.653689861E-1,-4.347367585E-1,-1.599738598E-1
1.587376226E0,1.079600811E0,-3.822023869E-1,-1.355392784E-1
1.589806070E0,1.154737115E0,-3.925870955E-1,-1.147698686E-1
1.592236799E0,1.113198280E0,-5.110948682E-1,-1.453131139E-1
1.594668258E0,9.525408745E-1,-6.619784832E-1,-2.222820669E-1
1.597098935E0,7.045297623E-1,-7.664363384E-1,-3.218530118E-1
1.599528726E0,4.827859104E-1,-7.603276968E-1,-4.085958004E-1
1.601959456E0,2.683723867E-1,-7.395582795E-1,-4.525780380E-1
1.604390914E0,7.533913106E-2,-6.992412210E-1,-4.623518884E-1
1.606821591E0,-9.753558040E-2,-6.497612000E-1,-4.458585382E-1
1.609251435E0,-2.300932407E-1,-5.593531728E-1,-4.281434715E-1
1.611682164E0,-3.247772753E-1,-4.622256756E-1,-4.043197334E-1
1.614113622E0,-4.060222805E-1,-4.561170340E-1,-3.548396826E-1
1.616544299E0,-4.878781140E-1,-5.514119267E-1,-2.503818274E-1
1.618974143E0,-5.281952620E-1,-6.112766862E-1,-1.611955911E-1
1.621404820E0,-5.434668064E-1,-5.880638361E-1,-1.349284053E-1
1.623836331E0,-5.434668064E-1,-5.672944188E-1,-1.337066740E-1
1.626266956E0,-5.226974487E-1,-5.019319057E-1,-1.538652182E-1
1.628696799E0,-4.860455692E-1,-3.620438576E-1,-2.161734104E-1
1.631127529E0,-4.469502270E-1,-2.533099353E-1,-2.693186402E-1
1.633558987E0,-4.145743847E-1,-2.233775705E-1,-3.084139824E-1
1.635989664E0,-3.944158256E-1,-2.490338832E-1,-3.206312656E-1
1.638419508E0,-3.577639461E-1,-2.679706812E-1,-3.340702951E-1
1.640850237E0,-3.394380212E-1,-2.765227854E-1,-3.640026748E-1
1.643281695E0,-3.125599623E-1,-3.284462988E-1,-3.743873537E-1
1.645712372E0,-2.795732617E-1,-3.571569324E-1,-3.902698457E-1
1.648142164E0,-2.453648448E-1,-3.461613655E-1,-4.202022254E-1
1.650572893E0,-2.142107487E-1,-3.559352160E-1,-4.373064339E-1
1.653004351E0,-1.720610857E-1,-3.327223361E-1,-4.544106424E-1
1.655435029E0,-1.341874599E-1,-3.150072694E-1,-4.684605300E-1
1.657864872E0,-1.097528785E-1,-3.009573817E-1,-4.690713882E-1
1.660295601E0,-5.966196954E-2,-2.178797871E-1,-4.922842681E-1
1.662727060E0,-2.911873162E-2,-1.922234595E-1,-5.161080360E-1
1.665157737E0,2.027750015E-4,-1.891691387E-1,-5.307687521E-1
1.667587581E0,2.219390124E-2,-2.068842202E-1,-5.435969234E-1
1.670018258E0,6.556529552E-2,-1.940560639E-1,-5.582576990E-1
1.672449716E0,9.122161567E-2,-2.203232348E-1,-5.778053403E-1
1.674880393E0,1.089366898E-1,-2.716358900E-1,-5.918552279E-1
1.677310237E0,1.266517639E-1,-3.278354406E-1,-6.065160036E-1
1.679740966E0,1.498646289E-1,-3.889219165E-1,-6.309505701E-1
1.682172424E0,1.804078668E-1,-4.335150421E-1,-6.559960246E-1
1.684603101E0,1.865165085E-1,-5.196470022E-1,-6.792088747E-1
1.687032945E0,2.201140672E-1,-5.801225901E-1,-7.018108964E-1
1.689463674E0,2.402726114E-1,-6.821370125E-1,-7.231911421E-1
1.691895133E0,2.757027745E-1,-7.334496379E-1,-7.506800890E-1
1.694325810E0,3.160198331E-1,-7.792645097E-1,-7.824450135E-1
1.696755601E0,3.483956754E-1,-8.366857767E-1,-8.038253188E-1
1.699186331E0,3.881018758E-1,-9.222068191E-1,-8.142099977E-1
1.701617789E0,4.247537553E-1,-1.023610353E0,-8.215403557E-1
1.704048466E0,4.662925601E-1,-1.147615910E0,-8.233729601E-1
1.706478310E0,5.169943571E-1,-1.291779995E0,-8.300924897E-1
1.708909039E0,5.829677582E-1,-1.442663550E0,-8.380337358E-1
1.711340497E0,6.611584425E-1,-1.599655867E0,-8.404771686E-1
1.713771174E0,7.417925596E-1,-1.763367534E0,-8.410880566E-1
1.716201018E0,8.309787512E-1,-1.927079320E0,-8.435314894E-1
1.718631747E0,9.128346443E-1,-2.079184532E0,-8.404771686E-1
1.721063154E0,9.959123135E-1,-2.211742163E0,-8.362011313E-1
1.723493883E0,1.064939976E0,-2.319254398E0,-8.288707733E-1
1.725923674E0,1.130913377E0,-2.402942896E0,-8.148208857E-1
1.728354404E0,1.186502099E0,-2.462196827E0,-7.922188640E-1
1.730785862E0,1.221321344E0,-2.494572639E0,-7.610647678E-1
1.733216539E0,1.254308105E0,-2.503735542E0,-7.274671793E-1
1.735646383E0,1.262860179E0,-2.489685774E0,-6.871501207E-1
1.738077112E0,1.261027575E0,-2.460364103E0,-6.413352489E-1
1.740508570E0,1.251864672E0,-2.411494970E0,-5.918552279E-1
1.742939247E0,1.230484366E0,-2.358960629E0,-5.442078114E-1
1.745369039E0,1.195665002E0,-2.310091496E0,-5.014472604E-1
1.747799768E0,1.157180548E0,-2.255113602E0,-4.605192840E-1
1.750231226E0,1.118696094E0,-2.179366350E0,-4.238674045E-1
1.752661904E0,1.080822468E0,-2.110338688E0,-3.841612041E-1
1.755091747E0,1.042338014E0,-2.035813332E0,-3.572831452E-1
1.757522476E0,1.017903447E0,-2.001604795E0,-3.426223993E-1
1.759953935E0,9.818624258E-1,-1.938074827E0,-3.200204074E-1
1.762384612E0,9.384909868E-1,-1.881264448E0,-2.949749529E-1
1.764814456E0,9.042825699E-1,-1.830562711E0,-2.760381401E-1
1.767245133E0,8.792370558E-1,-1.807349801E0,-2.674860358E-1
1.769676643E0,8.664089441E-1,-1.793910742E0,-2.711512148E-1
1.772107320E0,8.517482281E-1,-1.772530556E0,-2.766489983E-1
1.774537112E0,8.346439600E-1,-1.745652437E0,-2.809250653E-1
1.776967841E0,8.150962591E-1,-1.729159117E0,-2.876445651E-1
1.779399299E0,7.918834686E-1,-1.709000587E0,-2.998618782E-1
1.781829976E0,7.637836933E-1,-1.669905305E0,-3.010835946E-1
1.784259820E0,7.240774632E-1,-1.625923038E0,-3.004727364E-1
1.786690549E0,6.892582178E-1,-1.569112539E0,-2.931423485E-1
1.789122008E0,6.556606293E-1,-1.515356421E0,-2.797033191E-1
1.791552685E0,6.202304363E-1,-1.468319893E0,-2.601556778E-1
1.793982529E0,5.872437954E-1,-1.417007208E0,-2.546578944E-1
1.796413206E0,5.609766245E-1,-1.311327696E0,-2.680968940E-1
1.798844664E0,5.322659016E-1,-1.172661424E0,-2.864228487E-1
1.801275341E0,4.876728058E-1,-1.033384204E0,-3.023053408E-1
1.803705185E0,4.247537553E-1,-9.020482898E-1,-2.992509902E-1
1.806135914E0,3.618346751E-1,-7.646037340E-1,-2.839793861E-1
1.808567372E0,3.025808036E-1,-6.332678199E-1,-2.705403566E-1
1.810998049E0,2.298879027E-1,-5.000993013E-1,-2.632099986E-1
1.813427893E0,1.633036435E-1,-3.870893121E-1,-2.583230734E-1
1.815858622E0,1.016063169E-1,-3.076768816E-1,-2.613773942E-1
1.818290081E0,4.357416555E-2,-2.441469729E-1,-2.680968940E-1
1.820720758E0,-1.873403788E-2,-1.971103847E-1,-2.803142071E-1
1.823150549E0,-8.226396143E-2,-1.781735718E-1,-3.041379154E-1
1.825581279E0,-1.390743852E-1,-1.580150425E-1,-3.261290491E-1
1.828012737E0,-1.702284813E-1,-1.671780050E-1,-3.548396826E-1
1.830443414E0,-1.916087568E-1,-1.262500733E-1,-3.743873537E-1
1.832873258E0,-2.209302485E-1,-8.837646991E-2,-3.811068833E-1
1.835303987E0,-2.508626282E-1,-5.355717614E-2,-3.872155249E-1
1.837735445E0,-2.832384706E-1,2.031512093E-3,-3.994328082E-1
1.840166122E0,-3.150034249E-1,3.135301918E-2,-4.250891507E-1
1.842595914E0,-3.467683792E-1,7.777873427E-2,-4.428042173E-1
1.845026695E0,-3.791442215E-1,1.046567857E-1,-4.629627466E-1
1.847458154E0,-4.139634967E-1,1.382543445E-1,-4.690713882E-1
1.849888779E0,-4.481719434E-1,1.749062389E-1,-4.764017761E-1
1.852318622E0,-4.921542108E-1,2.097255290E-1,-4.727365971E-1
1.854749351E0,-5.452994108E-1,2.427122146E-1,-4.647953510E-1
1.857180810E0,-5.941685438E-1,2.677576840E-1,-4.580758214E-1
1.859611487E0,-6.509790421E-1,2.824184299E-1,-4.446368217E-1
1.862041331E0,-6.919069290E-1,3.001334965E-1,-4.385281503E-1
1.864472060E0,-7.316131592E-1,3.294550180E-1,-4.397498965E-1
1.866903518E0,-7.639889717E-1,3.428940177E-1,-4.415824711E-1
1.869334195E0,-8.030843735E-1,3.312875926E-1,-4.379172921E-1
1.871763987E0,-8.348493576E-1,3.062421381E-1,-4.324195087E-1
1.874194716E0,-8.629491329E-1,2.640924752E-1,-4.281434715E-1
1.876626174E0,-8.904379606E-1,2.225536853E-1,-4.257000089E-1
1.879056851E0,-9.319767952E-1,1.987299621E-1,-4.257000089E-1
1.881486695E0,-9.594656229E-1,1.626889408E-1,-4.336412549E-1
1.883917424E0,-9.826785326E-1,1.639106721E-1,-4.666279256E-1
1.886348883E0,-9.973392487E-1,1.694084555E-1,-4.788452387E-1
1.888779560E0,-9.869545698E-1,1.700193137E-1,-4.721257091E-1
1.891209404E0,-9.612982273E-1,1.718519032E-1,-4.617410302E-1
1.893640133E0,-9.441940784E-1,1.596346200E-1,-4.483020008E-1
1.896071591E0,-9.099856615E-1,1.437521279E-1,-4.440259337E-1
1.898502216E0,-8.708903790E-1,1.125980243E-1,-4.434150755E-1
1.900932060E0,-8.360710144E-1,6.678316742E-2,-4.348629713E-1
1.903362789E0,-8.024734259E-1,1.485967077E-2,-4.165370166E-1
1.905794247E0,-7.664324045E-1,-8.964052424E-3,-3.927133083E-1
1.908224924E0,-7.175632715E-1,-2.667913027E-2,-3.780525625E-1
1.910654768E0,-6.680831909E-1,-4.378334060E-2,-3.737764955E-1
1.913085497E0,-6.143271923E-1,-5.477890745E-2,-3.731656373E-1
1.915516956E0,-5.544624329E-1,-4.928112403E-2,-3.707221746E-1
1.917947633E0,-5.013171434E-1,-4.072901607E-2,-3.713330328E-1
1.920377424E0,-4.463393390E-1,-3.523123637E-2,-3.695004582E-1
1.922808154E0,-3.889180422E-1,-7.131458726E-3,-3.786634207E-1
1.925239664E0,-3.400488794E-1,2.463350631E-2,-3.896589875E-1
1.927670289E0,-2.942340374E-1,6.128538772E-2,-4.000436962E-1
1.930100133E0,-2.563604116E-1,8.877430111E-2,-4.073740542E-1
1.932530862E0,-2.307040989E-1,1.119871587E-1,-4.232565463E-1
1.934962320E0,-2.087129653E-1,1.242044494E-1,-4.342521131E-1
1.937392997E0,-1.885544360E-1,1.602454782E-1,-4.513563216E-1
1.939822841E0,-1.702284813E-1,2.005625516E-1,-4.684605300E-1
1.942253570E0,-1.574003249E-1,2.341601104E-1,-4.788452387E-1
1.944685029E0,-1.433504373E-1,2.628707588E-1,-4.794560969E-1
1.947115706E0,-1.372417957E-1,2.854727507E-1,-4.800669551E-1
1.949545497E0,-1.341874599E-1,3.007443547E-1,-4.849538803E-1
1.951976226E0,-1.299114078E-1,3.001334965E-1,-4.861755967E-1
1.954407685E0,-1.305222809E-1,2.793641090E-1,-4.843430221E-1
1.956838362E0,-1.262462288E-1,2.390470356E-1,-4.794560969E-1
1.959268206E0,-1.299114078E-1,1.871235222E-1,-4.757909179E-1
1.961698935E0,-1.280788183E-1,1.376434863E-1,-4.739583135E-1
1.964130393E0,-1.262462288E-1,9.427208453E-2,-4.702931345E-1
1.966561070E0,-1.256353557E-1,4.906809703E-2,-4.721257091E-1
1.968990914E0,-1.201375723E-1,1.608140022E-2,-4.739583135E-1
1.971421591E0,-1.213593036E-1,-7.131458726E-3,-4.788452387E-1
1.973853101E0,-1.183049828E-1,-3.584209830E-2,-4.873973429E-1
1.976283726E0,-1.115854681E-1,-7.249398530E-2,-4.953385890E-1
1.978713570E0,-1.024225056E-1,-1.158653796E-1,-5.008363724E-1
1.981144299E0,-8.592915535E-2,-1.580150425E-1,-5.026689768E-1
1.983575758E0,-6.882494688E-2,-2.001647055E-1,-5.063341856E-1
1.986006435E0,-3.950343281E-2,-2.203232348E-1,-5.057232976E-1
1.988436279E0,-1.384712011E-2,-2.178797871E-1,-4.959494472E-1
1.990867008E0,1.242006570E-2,-1.989429742E-1,-4.806778133E-1
1.993298466E0,3.502206132E-2,-1.726757884E-1,-4.641844928E-1
1.995729143E0,6.190010905E-2,-1.512955278E-1,-4.391390383E-1
1.998158935E0,8.816729486E-2,-1.354130507E-1,-4.147044420E-1
2.000589664E0,1.138236076E-1,-1.152545139E-1,-3.927133083E-1
2.003021122E0,1.413125247E-1,-1.122001931E-1,-3.664461374E-1
2.005451799E0,1.602493227E-1,-1.054806784E-1,-3.346811533E-1
2.007881643E0,1.834621876E-1,-9.570684284E-2,-3.004727364E-1
2.010312372E0,2.036207169E-1,-7.554831356E-2,-2.705403566E-1
2.012743831E0,2.201140672E-1,-4.744852707E-2,-2.381645441E-1
2.015174508E0,2.335530967E-1,-1.140751131E-2,-2.076213062E-1
2.017604351E0,2.549333572E-1,1.547053643E-2,-1.807432622E-1
2.020035081E0,2.720375657E-1,3.990512714E-2,-1.532543451E-1
2.022466539E0,2.915852368E-1,4.784636572E-2,-1.288197637E-1
2.024897216E0,3.221284747E-1,3.379647806E-2,-1.037743017E-1
2.027327008E0,3.557260334E-1,-5.909729283E-3,-7.872884721E-2
2.029757737E0,4.015409052E-1,-7.310485095E-2,-5.307252705E-2
2.032189195E0,4.565187097E-1,-1.519063860E-1,-2.558361739E-2
2.034619872E0,5.182160139E-1,-2.276536226E-1,5.570482463E-3
2.037049716E0,5.640308857E-1,-3.101203442E-1,3.305939585E-2
2.039480445E0,6.055697203E-1,-3.822023869E-1,4.955274612E-2
2.041911904E0,6.367237568E-1,-4.487866461E-1,7.032214850E-2
2.044342581E0,6.672670841E-1,-5.300316811E-1,1.057522967E-1
2.046772372E0,6.898690462E-1,-6.155527234E-1,1.479019523E-1
2.049203101E0,7.179688215E-1,-7.157345414E-1,2.034906447E-1
2.051634560E0,7.485120296E-1,-8.165272474E-1,2.706857920E-1
2.054065237E0,7.833313942E-1,-9.246503115E-1,3.433786929E-1
2.056495081E0,8.279244900E-1,-1.016890883E0,4.154607058E-1
2.058925810E0,8.804588318E-1,-1.121959567E0,4.905970991E-1
2.061357268E0,9.409344196E-1,-1.203815460E0,5.620682240E-1
2.063787945E0,1.009962201E0,-1.273454070E0,6.072722077E-1
2.066217789E0,1.080211639E0,-1.335762262E0,6.414806247E-1
2.068648518E0,1.125415564E0,-1.366916299E0,6.659152508E-1
2.071079976E0,1.171841383E0,-1.385242343E0,6.903498173E-1
2.073510654E0,1.202384591E0,-1.382798791E0,7.019562721E-1
2.075940445E0,1.230484366E0,-1.360196829E0,7.080649137E-1
2.078371174E0,1.243923426E0,-1.321101546E0,7.153952718E-1
2.080802633E0,1.253086329E0,-1.274064898E0,7.337211967E-1
2.083233310E0,1.264081955E0,-1.217254519E0,7.630426884E-1
2.085663154E0,1.261638403E0,-1.159833193E0,8.143553734E-1
2.088093883E0,1.246977687E0,-1.077977300E0,8.711657524E-1
2.090525341E0,1.223153949E0,-9.985648990E-1,9.291979074E-1
2.092956018E0,1.179782629E0,-8.861657977E-1,9.915061593E-1
2.095385810E0,1.134578586E0,-7.438343167E-1,1.036710143E0
2.097816591E0,1.082655072E0,-5.886747241E-1,1.072751164E0
2.100248049E0,1.020346880E0,-4.170216918E-1,1.105737925E0
2.102678674E0,9.427670240E-1,-2.502556145E-1,1.121009469E0
2.105108518E0,8.816806078E-1,-1.183088422E-1,1.128339887E0
2.107539247E0,8.144854307E-1,5.945279822E-2,1.136281133E0
2.109970706E0,7.252992392E-1,2.304949164E-1,1.138113737E0
2.112401383E0,6.526062489E-1,3.636634350E-1,1.124674678E0
2.114831226E0,5.872437954E-1,4.736190736E-1,1.094742298E0
2.117261956E0,5.279898643E-1,5.548640490E-1,1.068475127E0
2.119693414E0,4.895054102E-1,5.957919955E-1,1.042818785E0
2.122124091E0,4.565187097E-1,6.177831292E-1,1.022049427E0
2.124553883E0,4.271972179E-1,6.086201668E-1,9.988364577E-1
2.126984612E0,4.052060843E-1,5.847964287E-1,9.774562120E-1
2.129416070E0,3.905453384E-1,5.493662953E-1,9.554650784E-1
2.131846747E0,3.862692714E-1,4.937776029E-1,9.310305119E-1
2.134276591E0,3.844366670E-1,4.363563359E-1,9.114828706E-1
2.136707320E0,3.899344504E-1,3.587765098E-1,8.901025653E-1
2.139138779E0,3.960431218E-1,2.818075716E-1,8.717766404E-1
2.141569456E0,4.113147259E-1,1.981190890E-1,8.577267528E-1
2.143999299E0,4.241428971E-1,1.132088900E-1,8.406225443E-1
2.146430029E0,4.455231428E-1,1.730312966E-2,8.222966194E-1
2.148861487E0,4.711794853E-1,-8.226782084E-2,8.058032393E-1
2.151292164E0,5.163834691E-1,-1.855039597E-1,7.905316353E-1
2.153721956E0,5.487592816E-1,-2.673598230E-1,7.777034640E-1
2.156152685E0,5.939632654E-1,-3.443287909E-1,7.764817476E-1
2.158584143E0,6.361129284E-1,-4.157999456E-1,7.679296136E-1
2.161014820E0,6.715431213E-1,-4.787190259E-1,7.648752928E-1
2.163444664E0,7.081949711E-1,-5.306425691E-1,7.612101436E-1
2.165875393E0,7.466794252E-1,-5.654618144E-1,7.557123303E-1
2.168306851E0,7.735575438E-1,-5.874529481E-1,7.392190099E-1
2.170737529E0,8.028789759E-1,-5.978376865E-1,7.092866302E-1
2.173167372E0,8.267027140E-1,-6.027246118E-1,6.811868548E-1
2.175598049E0,8.517482281E-1,-6.100549698E-1,6.524761915E-1
2.178029560E0,8.792370558E-1,-6.222722530E-1,6.286524534E-1
2.180460185E0,8.920652866E-1,-6.387656331E-1,5.987201333E-1
2.182890029E0,9.061151743E-1,-6.540372372E-1,5.718420744E-1
2.185320758E0,9.140564203E-1,-6.625893116E-1,5.614573359E-1
2.187752216E0,9.262737036E-1,-6.625893116E-1,5.467966199E-1
2.190182893E0,9.183324575E-1,-6.491503119E-1,5.229728818E-1
2.192612737E0,9.122238159E-1,-6.405981779E-1,4.960948527E-1
2.195043466E0,9.073368311E-1,-6.308243871E-1,4.582212567E-1
2.197474924E0,8.981739283E-1,-6.241048574E-1,4.215693772E-1
2.199905549E0,8.884000778E-1,-6.082223654E-1,3.855283558E-1
2.202335393E0,8.670197725E-1,-5.770682693E-1,3.690350056E-1
2.204766122E0,8.444178104E-1,-5.556880236E-1,3.562068343E-1
2.207197581E0,8.218158484E-1,-5.220904350E-1,3.537633717E-1
2.209628258E0,7.949377298E-1,-4.597822130E-1,3.433786929E-1
2.212058101E0,7.460685968E-1,-3.864784539E-1,3.391026258E-1
2.214488831E0,6.935342550E-1,-2.765227854E-1,3.317722380E-1
2.216920289E0,6.367237568E-1,-1.543498486E-1,3.354374468E-1
2.219350966E0,5.658634901E-1,-2.851172350E-2,3.372700214E-1
2.221780810E0,5.011118650E-1,9.671553969E-2,3.439895511E-1
2.224211487E0,4.265863597E-1,2.158341706E-1,3.647589386E-1
2.226642945E0,3.459522128E-1,3.215137720E-1,3.806414306E-1
2.229073622E0,2.732592821E-1,4.186412692E-1,3.965239227E-1
2.231503466E0,1.816295981E-1,4.907232821E-1,4.270671606E-1
2.233934195E0,1.150453389E-1,5.450901985E-1,4.539451897E-1
2.236365654E0,3.929811344E-2,5.896833539E-1,4.747146070E-1
2.238796331E0,-2.362095565E-2,6.116744876E-1,4.820449650E-1
2.241226174E0,-1.115854681E-1,6.257243752E-1,4.808232486E-1
2.243656904E0,-1.781697273E-1,6.293895841E-1,4.643298984E-1
2.246088362E0,-2.569712698E-1,6.312221289E-1,4.374518394E-1
2.248519039E0,-3.339402378E-1,6.477155089E-1,3.989673853E-1
2.250948831E0,-4.219047427E-1,7.020824552E-1,3.500981927E-1
2.253379560E0,-5.013171434E-1,7.533950806E-1,3.036724627E-1
2.255811018E0,-5.831730366E-1,8.370835781E-1,2.749618292E-1
2.258241695E0,-6.686941385E-1,9.134416580E-1,2.352556139E-1
2.260671539E0,-7.633781433E-1,9.928540587E-1,2.059341073E-1
2.263102268E0,-8.598947525E-1,1.035003781E0,1.912733465E-1
2.265533726E0,-9.441940784E-1,1.070433855E0,1.869972944E-1
2.267964404E0,-1.033991218E0,1.105864048E0,1.900516301E-1
2.270394247E0,-1.106684089E0,1.129076958E0,1.845538467E-1
2.272824976E0,-1.154942393E0,1.124800801E0,1.833321154E-1
2.275256435E0,-1.195870280E0,1.097311974E0,1.821103841E-1
2.277687060E0,-1.218472362E0,1.047831893E0,1.747800112E-1
2.280116904E0,-1.216028810E0,9.788041711E-1,1.576757878E-1
2.282547633E0,-1.194037676E0,9.030569792E-1,1.222456470E-1
2.284979091E0,-1.154942393E0,8.004316688E-1,7.581992447E-2
2.287409768E0,-1.103018880E0,6.727609634E-1,3.122680075E-2
2.289839612E0,-1.041321516E0,5.279859900E-1,-2.008583583E-2
2.292270341E0,-9.582439661E-1,3.654960394E-1,-7.750711590E-2
2.294701799E0,-8.672251701E-1,1.761279702E-1,-1.288197637E-1
2.297132476E0,-7.707085609E-1,-4.687999841E-3,-1.844084561E-1
2.299562268E0,-6.424269676E-1,-1.989429742E-1,-2.387754172E-1
2.301992997E0,-4.970411360E-1,-4.060261250E-1,-2.705403566E-1
2.304424456E0,-3.382162750E-1,-6.045571566E-1,-2.992509902E-1
2.306855133E0,-1.830566525E-1,-7.621603012E-1,-3.304051161E-1
2.309284976E0,-2.850787342E-2,-8.928853273E-1,-3.420115411E-1
2.311715706E0,9.305420518E-2,-9.741303325E-1,-3.493418992E-1
2.314147164E0,1.804078668E-1,-1.016280055E0,-3.530071080E-1
2.316577841E0,2.549333572E-1,-1.022388697E0,-3.523962200E-1
2.319007685E0,3.093003035E-1,-9.973431826E-1,-3.548396826E-1
2.321438362E0,3.661107421E-1,-9.387001991E-1,-3.603374660E-1
2.323869872E0,4.223102927E-1,-8.843332529E-1,-3.749982417E-1
2.326300549E0,4.662925601E-1,-8.159163594E-1,-3.798851371E-1
2.328730341E0,4.858402312E-1,-7.291736007E-1,-3.737764955E-1
2.331161070E0,4.895054102E-1,-6.381547451E-1,-3.713330328E-1
2.333592529E0,5.102748275E-1,-5.752356648E-1,-3.621700704E-1
2.336023206E0,4.791207016E-1,-5.196470022E-1,-3.572831452E-1
2.338453049E0,4.528535306E-1,-4.561170340E-1,-3.493418992E-1
2.340883779E0,4.265863597E-1,-4.103021622E-1,-2.589339316E-1
2.343315237E0,4.235320091E-1,-4.041935205E-1,-2.088430375E-1
2.345745914E0,3.477847874E-1,-3.449396491E-1,-1.978474706E-1
2.348175706E0,2.921960950E-1,-3.229485154E-1,-1.996800750E-1
2.350606435E0,2.164488882E-1,-3.498265743E-1,-1.984583437E-1
2.353037893E0,1.883490980E-1,-3.284462988E-1,-1.874627769E-1
2.355468570E0,1.290952265E-1,-3.082877696E-1,-1.721911579E-1
2.357898414E0,1.046606377E-1,-3.198941946E-1,-1.538652182E-1
2.360329143E0,5.884578452E-2,-3.198941946E-1,-1.434805095E-1
2.362760601E0,3.867961466E-3,-3.143964112E-1,-1.483674347E-1
2.365191279E0,-3.522738069E-2,-3.186724484E-1,-1.679151058E-1
2.367621122E0,-5.782938004E-2,-3.333332241E-1,-2.063995749E-1
2.370051851E0,-8.531829715E-2,-3.516591489E-1,-2.509926856E-1
2.372483310E0,-9.203779697E-2,-3.852567077E-1,-3.078031242E-1
2.374913935E0,-7.187926769E-2,-4.469540417E-1,-3.756090999E-1
2.377343779E0,-4.866640270E-2,-5.336968899E-1,-4.421933591E-1
2.379774508E0,-2.362095565E-2,-6.393764615E-1,-4.983929098E-1
2.382205966E0,1.242006570E-2,-7.529972792E-1,-5.466512442E-1
2.384636643E0,3.746552020E-2,-8.660072684E-1,-5.607011318E-1
2.387066487E0,5.640232563E-2,-9.490848780E-1,-5.833031535E-1
2.389497216E0,8.083691448E-2,-9.930671453E-1,-6.242310405E-1
2.391928674E0,9.305420518E-2,-9.997866750E-1,-6.535525918E-1
2.394359351E0,9.366507828E-2,-9.875693321E-1,-6.749328375E-1
2.396789143E0,8.572383225E-2,-9.680216908E-1,-6.767654419E-1
2.399219872E0,6.190010905E-2,-9.222068191E-1,-6.523308158E-1
2.401651331E0,2.585908771E-2,-8.653964400E-1,-6.327831745E-1
2.404082008E0,-8.960202336E-3,-7.908709049E-1,-6.193441749E-1
2.406511851E0,-4.500121623E-2,-7.059607506E-1,-6.016290784E-1
2.408942581E0,-8.715088665E-2,-6.076114774E-1,-5.814705491E-1
2.411374039E0,-1.201375723E-1,-5.062079430E-1,-5.582576990E-1
2.413804716E0,-1.543460041E-1,-4.084695876E-1,-5.295470357E-1
2.416234560E0,-1.818349063E-1,-3.192833364E-1,-5.051124096E-1
2.418665289E0,-2.129890025E-1,-2.349839956E-1,-4.751800299E-1
2.421096747E0,-2.337584198E-1,-1.561824381E-1,-4.495237172E-1
2.423527424E0,-2.581930161E-1,-8.593300730E-2,-4.153153002E-1
2.425957216E0,-2.820167243E-1,-1.201837696E-2,-3.817177415E-1
2.428387945E0,-3.033969998E-1,6.067452952E-2,-3.511745036E-1
2.430819404E0,-3.217229247E-1,1.278696507E-1,-3.310159743E-1
2.433250081E0,-3.345510960E-1,1.962864995E-1,-3.114683032E-1
2.435679924E0,-3.412705958E-1,2.573729753E-1,-2.943640947E-1
2.438110654E0,-3.486009836E-1,3.086856008E-1,-2.772598863E-1
2.440542112E0,-3.516553044E-1,3.575547934E-1,-2.632099986E-1
2.442972789E0,-3.516553044E-1,3.911523521E-1,-2.454949170E-1
2.445402581E0,-3.516553044E-1,4.210847020E-1,-2.265581191E-1
2.447833310E0,-3.565422297E-1,4.662887156E-1,-1.996800750E-1
2.450264768E0,-3.577639461E-1,5.041623116E-1,-1.618064493E-1
2.452695445E0,-3.675377965E-1,5.585292578E-1,-1.135481372E-1
2.455125289E0,-3.712029755E-1,6.177831292E-1,-5.001820624E-2
2.457556018E0,-3.791442215E-1,6.617653966E-1,9.235670790E-3
2.459987476E0,-3.931941092E-1,7.008607388E-1,6.421349943E-2
2.462418154E0,-4.054113925E-1,7.521733642E-1,1.283542812E-1
2.464847997E0,-4.164069593E-1,7.955447435E-1,1.943276823E-1
2.467278726E0,-4.286242425E-1,8.438030481E-1,2.743509710E-1
2.469710185E0,-4.377872050E-1,9.134416580E-1,3.647589386E-1
2.472140810E0,-4.487827718E-1,9.788041711E-1,4.515017271E-1
2.474570654E0,-4.628326595E-1,1.052718759E0,5.260272026E-1
2.477001383E0,-4.701630771E-1,1.133352995E0,5.999418497E-1
2.479432841E0,-4.781043231E-1,1.210321903E0,6.579740047E-1
2.481863518E0,-4.829912484E-1,1.287901759E0,7.031779885E-1
2.484293362E0,-4.811586440E-1,1.374033689E0,7.447167635E-1
2.486724091E0,-4.750500023E-1,1.463830709E0,7.923642397E-1
2.489155549E0,-4.677195847E-1,1.543853998E0,8.473420739E-1
2.491586226E0,-4.713847935E-1,1.629375100E0,8.998764157E-1
2.494016018E0,-4.750500023E-1,1.728946090E0,9.517999291E-1
2.496446747E0,-4.799369276E-1,1.842566848E0,1.002501726E0
2.498878206E0,-4.890998900E-1,1.957409501E0,1.047705770E0
2.501308883E0,-4.988736808E-1,2.048428297E0,1.098407507E0
2.503738726E0,-5.147562027E-1,2.115012646E0,1.147276640E0
2.506169456E0,-5.245300531E-1,2.170601130E0,1.201032758E0
2.508600914E0,-5.263626575E-1,2.225579023E0,1.260286689E0
2.511031591E0,-5.123127699E-1,2.303158998E0,1.340309978E0
2.513461435E0,-4.878781140E-1,2.374019146E0,1.437437415E0
2.515892112E0,-4.610001147E-1,2.418612242E0,1.553501725E0
2.518323570E0,-4.243482053E-1,2.423499346E0,1.672009468E0
2.520754247E0,-3.956375718E-1,2.399064541E0,1.766693473E0
2.523184091E0,-3.675377965E-1,2.354471445E0,1.829001665E0
2.525614820E0,-3.278315961E-1,2.272004843E0,1.869318843E0
2.528046279E0,-2.905688286E-1,2.184040308E0,1.894975066E0
2.530476956E0,-2.533060908E-1,2.078971624E0,1.893142462E0
2.532906799E0,-2.154324651E-1,1.976957083E0,1.862599254E0
2.535337529E0,-1.714502126E-1,1.863336325E0,1.808232307E0
2.537768987E0,-1.256353557E-1,1.739941597E0,1.727598190E0
2.540199612E0,-7.554444671E-2,1.590890646E0,1.632914186E0
2.542629456E0,-2.911873162E-2,1.441839695E0,1.534564972E0
2.545060185E0,2.524822578E-2,1.283014774E0,1.439880848E0
2.547491643E0,7.289567590E-2,1.149235487E0,1.350083828E0
2.549922320E0,1.119910181E-1,1.021564722E0,1.278612614E0
2.552352164E0,1.547515392E-1,9.018352032E-1,1.220580459E0
2.554782893E0,1.907925606E-1,8.114272356E-1,1.179652572E0
2.557214351E0,2.176706195E-1,7.289605141E-1,1.152163625E0
2.559645029E0,2.390508801E-1,6.623762250E-1,1.127729058E0
2.562074820E0,2.512681782E-1,6.214483380E-1,1.115511775E0
2.564505549E0,2.659289241E-1,5.847964287E-1,1.112457395E0
2.566937008E0,2.744810283E-1,5.554749370E-1,1.116122603E0
2.569367685E0,2.824222744E-1,5.365381241E-1,1.127729058E0
2.571797529E0,2.824222744E-1,5.108817816E-1,1.149109244E0
2.574228258E0,2.903635204E-1,4.864472449E-1,1.181485057E0
2.576659716E0,2.909743786E-1,4.504062235E-1,1.217526078E0
2.579090393E0,2.830331326E-1,4.241390526E-1,1.245625854E0
2.581520237E0,2.848657370E-1,4.070348144E-1,1.257232308E0
2.583950914E0,2.726484537E-1,3.905414939E-1,1.253567100E0
2.586382424E0,2.726484537E-1,3.960392773E-1,1.234630346E0
2.588813049E0,2.695941329E-1,3.911523521E-1,1.210806608E0
2.591242893E0,2.683723867E-1,3.826002479E-1,1.166213512E0
2.593673622E0,2.708158493E-1,3.661068976E-1,1.108792186E0
2.596105081E0,2.598202825E-1,3.428940177E-1,1.044040561E0
2.598535758E0,2.695941329E-1,3.239572346E-1,9.896735549E-1
2.600965601E0,2.873091698E-1,2.928031385E-1,9.377500415E-1
2.603396331E0,3.068568707E-1,2.592055500E-1,8.754418492E-1
2.605827789E0,3.215176165E-1,1.938430369E-1,8.198531270E-1
2.608258466E0,3.306805789E-1,1.290913820E-1,7.630426884E-1
2.610688258E0,3.545043170E-1,5.884193256E-2,7.062323093E-1
2.613118987E0,3.654998839E-1,-2.301394194E-2,6.738564372E-1
2.615550445E0,3.807714880E-1,-1.085350066E-1,6.317067742E-1
2.617981122E0,3.826040924E-1,-1.934451908E-1,5.883353949E-1
2.620410966E0,3.807714880E-1,-2.722467482E-1,5.449640155E-1
2.622841695E0,3.661107421E-1,-3.400527239E-1,5.058686733E-1
2.625273154E0,3.441196084E-1,-3.950305581E-1,4.612755775E-1
2.627703831E0,3.044134080E-1,-4.463431835E-1,4.246236980E-1
2.630133674E0,2.653180659E-1,-4.829950631E-1,3.861392140E-1
2.632564351E0,2.164488882E-1,-5.184252262E-1,3.617046177E-1
2.634995810E0,1.657471061E-1,-5.453032851E-1,3.311613798E-1
2.637426487E0,1.016063169E-1,-5.709596276E-1,3.018398881E-1
2.639856331E0,2.585908771E-2,-5.911181569E-1,2.761835754E-1
2.642287060E0,-4.622294754E-2,-6.082223654E-1,2.493055016E-1
2.644718518E0,-1.268570870E-1,-6.308243871E-1,2.242600471E-1
2.647149195E0,-2.081021070E-1,-6.589241624E-1,2.028797865E-1
2.649579039E0,-2.905688286E-1,-6.919108629E-1,1.802777797E-1
2.652009716E0,-3.773116171E-1,-7.261192799E-1,1.533997357E-1
2.654441226E0,-4.634435475E-1,-7.633820176E-1,1.252999604E-1
2.656871904E0,-5.636253357E-1,-7.939252257E-1,9.536759555E-2
2.659301695E0,-6.534224749E-1,-8.275228143E-1,6.421349943E-2
2.661732424E0,-7.450522184E-1,-8.672289848E-1,3.367026150E-2
2.664163883E0,-8.507317305E-1,-9.124330282E-1,6.835646927E-4
2.666594560E0,-9.460266829E-1,-9.667999744E-1,-3.169226646E-2
2.669024404E0,-1.037045479E0,-1.037660241E0,-7.078760862E-2
2.671455133E0,-1.111570954E0,-1.109742284E0,-1.251545697E-1
2.673886591E0,-1.170824885E0,-1.189765573E0,-1.972366124E-1
2.676317268E0,-1.194648623E0,-1.277119279E0,-2.766489983E-1
2.678747060E0,-1.190983415E0,-1.341260076E0,-3.505636454E-1
2.681177789E0,-1.162272811E0,-1.393183589E0,-4.324195087E-1
2.683609247E0,-1.120123148E0,-1.410287738E0,-5.124428272E-1
2.686039924E0,-1.074308276E0,-1.395016074E0,-5.820813775E-1
2.688469768E0,-1.047430158E0,-1.380355358E0,-6.321722865E-1
2.690900497E0,-1.040099859E0,-1.321712375E0,-6.486656666E-1
2.693331956E0,-9.942849874E-1,-1.229471803E0,-6.651589870E-1
2.695762633E0,-9.478592873E-1,-1.115240097E0,-6.718785167E-1
2.698192424E0,-9.386962652E-1,-9.991757870E-1,-6.608829498E-1
2.700623154E0,-8.953249454E-1,-8.501247764E-1,-6.364483833E-1
2.703054612E0,-8.464556932E-1,-6.986303329E-1,-6.095703244E-1
2.705485289E0,-8.256863356E-1,-5.898964405E-1,-5.741401315E-1
2.707915133E0,-8.079712391E-1,-4.866602719E-1,-5.344339609E-1
2.710345862E0,-8.256863356E-1,-4.225194752E-1,-4.837321639E-1
2.712777320E0,-8.324058056E-1,-3.547134697E-1,-4.330303669E-1
2.715207997E0,-8.195776939E-1,-2.942378819E-1,-3.890481293E-1
2.717637841E0,-8.269081116E-1,-2.502556145E-1,-3.456767201E-1
2.720068570E0,-8.543969393E-1,-2.062733471E-1,-3.071922362E-1
2.722500029E0,-8.434014320E-1,-1.549607217E-1,-2.754272819E-1
2.724930706E0,-8.330167532E-1,-1.250283420E-1,-2.546578944E-1
2.727360497E0,-8.476774693E-1,-1.231957600E-1,-2.381645441E-1
2.729791226E0,-8.104146719E-1,-9.509598464E-2,-2.381645441E-1
2.732222685E0,-7.902561426E-1,-8.287868649E-2,-2.381645441E-1
2.734653362E0,-7.792606354E-1,-6.516360492E-2,-2.344993651E-1
2.737083206E0,-7.389435768E-1,-4.683766514E-2,-2.558796108E-1
2.739513935E0,-7.059568167E-1,-3.889642283E-2,-2.766489983E-1
2.741945393E0,-6.729701757E-1,-4.928112403E-2,-3.041379154E-1
2.744376070E0,-6.326531172E-1,-8.898733556E-2,-3.322376907E-1
2.746805862E0,-6.118836403E-1,-1.482412070E-1,-3.585048914E-1
2.749236591E0,-5.666797161E-1,-2.166580558E-1,-3.927133083E-1
2.751668049E0,-5.349147320E-1,-2.887400985E-1,-4.293651879E-1
2.754098726E0,-4.939868152E-1,-3.644873202E-1,-4.556323588E-1
2.756528570E0,-4.732173979E-1,-4.451214671E-1,-4.867864847E-1
2.758959299E0,-4.634435475E-1,-5.202578306E-1,-5.185514688E-1
2.761390758E0,-4.463393390E-1,-5.795117021E-1,-5.509272814E-1
2.763821435E0,-4.481719434E-1,-6.412090659E-1,-5.674206614E-1
2.766251279E0,-4.585566223E-1,-6.894673705E-1,-5.942987204E-1
2.768681956E0,-4.622218311E-1,-7.267301083E-1,-6.333940625E-1
2.771113466E0,-4.689413607E-1,-7.762101889E-1,-6.517199874E-1
2.773544091E0,-4.768825471E-1,-8.146946430E-1,-6.834849715E-1
2.775973935E0,-4.732173979E-1,-8.415727019E-1,-7.024217248E-1
2.778404664E0,-4.860455692E-1,-8.605095148E-1,-7.164716125E-1
2.780836122E0,-4.848237932E-1,-8.892201185E-1,-7.299106717E-1
2.783266799E0,-4.774934351E-1,-9.411436319E-1,-7.292997837E-1
2.785696643E0,-4.555023015E-1,-1.007727861E0,-7.347975969E-1
2.788127372E0,-4.304568470E-1,-1.078588247E0,-7.262454629E-1
2.790558831E0,-4.078548551E-1,-1.157389760E0,-7.158607841E-1
2.792989508E0,-3.950267136E-1,-1.212978482E0,-6.914261580E-1
2.795419299E0,-3.773116171E-1,-1.274064898E0,-6.663807034E-1
2.797850029E0,-3.650943339E-1,-1.329653621E0,-6.541634202E-1
2.800281487E0,-3.522661626E-1,-1.388296604E0,-6.388918161E-1
2.802712164E0,-3.308859169E-1,-1.435333252E0,-6.291179657E-1
2.805142008E0,-3.137817085E-1,-1.477482915E0,-6.230093241E-1
2.807572737E0,-2.978992164E-1,-1.515967369E0,-5.930769444E-1
2.810004195E0,-2.771297991E-1,-1.554451823E0,-5.716966987E-1
2.812434872E0,-2.691885829E-1,-1.596601486E0,-5.649771690E-1
2.814864716E0,-2.600255907E-1,-1.624701262E0,-5.600902438E-1
2.817295393E0,-2.624690533E-1,-1.645470619E0,-5.405426025E-1
2.819726851E0,-2.667451203E-1,-1.661964059E0,-5.209949017E-1
2.822157529E0,-2.850710452E-1,-1.672959566E0,-4.953385890E-1
2.824587372E0,-3.040078580E-1,-1.678457379E0,-4.403607547E-1
2.827018101E0,-3.351619542E-1,-1.699837685E0,-4.574649632E-1
2.829449560E0,-3.712029755E-1,-1.699226737E0,-4.855647385E-1
2.831880237E0,-3.999136090E-1,-1.684566021E0,-4.983929098E-1
2.834310081E0,-4.182395637E-1,-1.648525000E0,-4.886190593E-1
2.836740810E0,-4.249590933E-1,-1.599655867E0,-4.666279256E-1
2.839172268E0,-4.365654886E-1,-1.526962876E0,-4.544106424E-1
2.841602945E0,-4.555023015E-1,-1.459156871E0,-4.599084258E-1
2.844032737E0,-4.793260396E-1,-1.394405246E0,-4.605192840E-1
2.846463466E0,-4.890998900E-1,-1.316825390E0,-4.745691717E-1
2.848894924E0,-5.007063150E-1,-1.247797728E0,-4.861755967E-1
2.851325601E0,-4.988736808E-1,-1.181824327E0,-4.800669551E-1
2.853755445E0,-4.933759272E-1,-1.082253337E0,-4.641844928E-1
2.856186174E0,-4.658870399E-1,-9.991757870E-1,-4.586867094E-1
2.858617633E0,-4.530588686E-1,-9.246503115E-1,-4.305869043E-1
2.861048310E0,-4.322894514E-1,-8.605095148E-1,-3.994328082E-1
2.863478101E0,-3.993027508E-1,-8.317988515E-1,-3.554505706E-1
2.865908831E0,-3.791442215E-1,-8.208032846E-1,-3.071922362E-1
2.868340289E0,-3.504335880E-1,-8.385183811E-1,-2.516035736E-1
2.870770966E0,-3.119491041E-1,-8.653964400E-1,-1.954040229E-1
2.873200810E0,-2.771297991E-1,-9.130438566E-1,-1.520326287E-1
2.875631539E0,-2.307040989E-1,-9.765738249E-1,-1.227111071E-1
2.878062997E0,-1.867218316E-1,-1.038271189E0,-1.098829508E-1
2.880493674E0,-1.250244975E-1,-1.107909679E0,-1.031634361E-1
2.882923518E0,-6.149455905E-2,-1.181213498E0,-8.911354840E-2
2.885354247E0,2.646230161E-3,-1.245965123E0,-7.139847428E-2
2.887785706E0,6.495442986E-2,-1.289947391E0,-5.062907189E-2
2.890216383E0,1.297060847E-1,-1.335151434E0,-2.252929471E-2
2.892646174E0,1.767426729E-1,-1.382187963E0,1.839864068E-2
2.895076904E0,2.164488882E-1,-1.435333252E0,6.604608893E-2
2.897508362E0,2.500464320E-1,-1.500695705E0,1.222456470E-1
2.899939039E0,2.763136327E-1,-1.598434091E0,2.022689134E-1
2.902368883E0,3.013590574E-1,-1.705946326E0,2.731292546E-1
2.904799612E0,3.233501911E-1,-1.817734480E0,3.384917676E-1
2.907231070E0,3.233501911E-1,-1.924024940E0,4.026325643E-1
2.909661747E0,3.465630710E-1,-2.018098116E0,4.679950774E-1
2.912091539E0,3.575586379E-1,-2.044976234E0,5.467966199E-1
2.914522268E0,3.746628463E-1,-2.065134764E0,6.396480203E-1
2.916953726E0,3.771063089E-1,-2.048030615E0,7.520471215E-1
2.919384404E0,3.606129587E-1,-2.016265631E0,8.888808489E-1
2.921814247E0,3.355675042E-1,-1.942350864E0,1.048316598E0
2.924244976E0,2.854765952E-1,-1.869657993E0,1.212639213E0
2.926676435E0,2.335530967E-1,-1.762145877E0,1.400785565E0
2.929107112E0,1.859056503E-1,-1.648525000E0,1.587710142E0
2.931536904E0,1.205431223E-1,-1.478093743E0,1.761806607E0
2.933967633E0,4.418503121E-2,-1.278340936E0,1.936513901E0
2.936399143E0,-3.950343281E-2,-1.068814397E0,2.086786509E0
2.938829768E0,-8.470742404E-2,-8.446270227E-1,2.214457273E0
2.941259612E0,-1.494590789E-1,-6.405981779E-1,2.346404076E0
2.943690341E0,-2.722429037E-1,-4.377910793E-1,2.459414005E0
2.946121799E0,-2.569712698E-1,-2.496447414E-1,2.606021404E0
2.948552476E0,-2.948448956E-1,-6.577447057E-2,2.806996107E0
2.950982320E0,-3.113382459E-1,3.074215539E-2,3.000029325E0
2.953413049E0,-3.168360293E-1,1.303131133E-1,3.153967142E0
2.955844508E0,-2.612473369E-1,2.775315046E-1,3.222383976E0
2.958275133E0,-2.820167243E-1,4.314694107E-1,3.271253109E0
2.960704976E0,-2.875145078E-1,5.915159583E-1,3.340891838E0
2.963135706E0,-2.954557538E-1,7.613363266E-1,3.421525955E0
2.965567164E0,-2.862927914E-1,9.342110753E-1,3.521707773E0
2.967997841E0,-1.775588691E-1,1.008125663E0,3.703745365E0
2.970427685E0,-1.378526539E-1,1.046610117E0,3.850353003E0
2.972858414E0,-1.537351310E-1,1.104642272E0,3.938317537E0
2.975289872E0,-5.477505922E-2,1.148013711E0,3.973747730E0
2.977720549E0,-1.751230657E-2,1.174280882E0,3.937095642E0
2.980150341E0,3.135687113E-2,1.211543679E0,3.814311981E0
2.982581070E0,-2.851553261E-3,1.328218818E0,3.640826464E0
2.985012529E0,-5.905874074E-3,1.313558102E0,3.444128036E0
2.987443206E0,1.126018763E-1,1.126633406E0,3.321954966E0
2.989873049E0,1.150453389E-1,1.130298615E0,3.116093636E0
2.992303779E0,6.251097471E-2,1.229258657E0,2.957268715E0
2.994735237E0,-2.240687609E-3,1.217041373E0,2.860141277E0
2.997165914E0,-3.278392553E-2,1.191995978E0,2.856476068E0
2.999595758E0,3.624378890E-2,1.149235487E0,2.934666634E0
3.002026435E0,8.136332035E-4,1.272630095E0,3.005527020E0
3.004457893E0,-7.554444671E-2,1.504147887E0,3.182066917E0
3.006888570E0,-2.190976739E-1,1.635483742E0,3.532092333E0
3.009318414E0,-3.760899007E-1,1.537134528E0,4.143568039E0
3.011749143E0,-5.880599022E-1,1.322721004E0,4.962737560E0
3.014180601E0,-8.421796560E-1,1.036225438E0,5.766024590E0
3.016611279E0,-1.111570954E0,7.130780220E-1,6.379333019E0
3.019041122E0,-1.073086500E0,4.681212902E-1,6.516166687E0
3.021471851E0,-8.983792067E-1,2.194993645E-1,6.261435986E0
3.023903310E0,-5.984447002E-1,1.241621189E-2,5.706160069E0
3.026333987E0,-2.752972245E-1,-6.149841845E-2,4.961515903E0
3.028763779E0,8.938901871E-2,-7.371571660E-2,4.212595940E0
3.031194508E0,2.934178412E-1,-6.455274671E-2,3.770940542E0
3.033625966E0,1.083258241E-1,1.913995743E-1,3.726958275E0
3.036056643E0,-1.262538880E-2,4.424649775E-1,3.783157825E0
3.038486487E0,-4.866640270E-2,6.507698298E-1,4.133183479E0
3.040917216E0,6.678702682E-2,8.285314441E-1,4.648753166E0
3.043348674E0,2.708081901E-2,1.364870667E0,5.153327465E0
3.045779351E0,-4.512262642E-1,1.653198838E0,5.730594635E0
3.048209143E0,-8.177450895E-1,1.296453834E0,6.230892658E0
3.050639872E0,-1.038267255E0,2.103363872E-1,6.566868305E0
3.053071331E0,-9.845111370E-1,-1.291169167E0,6.648724079E0
3.055502008E0,-9.698504210E-1,-2.652175665E0,6.487455845E0
3.057931851E0,-5.251408815E-1,-4.066327095E0,6.185078144E0
3.060362581E0,-1.726719439E-1,-5.123123169E0,5.698218822E0
3.062794039E0,1.028280407E-1,-5.811567783E0,5.050091267E0
3.065224716E0,2.793679535E-1,-6.233675480E0,4.313999176E0
3.067654560E0,3.178524375E-1,-6.479853630E0,3.503381729E0
3.070085237E0,1.718557477E-1,-6.438314915E0,2.698261976E0
3.072516695E0,-1.677850336E-1,-6.182973385E0,1.968889713E0
3.074947372E0,-4.945976436E-1,-5.978333950E0,1.317097068E0
3.077377216E0,-8.116364479E-1,-5.854938984E0,7.569340467E-1
3.079807945E0,-1.209309340E0,-5.600208759E0,3.152789176E-1
3.082239404E0,-1.647910237E0,-5.286835194E0,-6.101377308E-2
3.084670081E0,-2.047415972E0,-4.999117851E0,-4.360846877E-1
3.087099924E0,-2.487238407E0,-4.789591312E0,-7.671734095E-1
3.089530654E0,-2.916065454E0,-4.690020084E0,-1.043895125E0
3.091962060E0,-3.284416914E0,-4.808527946E0,-1.235706568E0
3.094392737E0,-3.572134256E0,-5.085249901E0,-1.321838498E0
3.096822581E0,-3.809149742E0,-5.448103428E0,-1.323060274E0
3.099253310E0,-3.901390314E0,-5.879984856E0,-1.258919477E0
3.101684768E0,-4.008902073E0,-6.300259590E0,-1.102538109E0
3.104115445E0,-4.030893326E0,-6.705263138E0,-8.459749818E-1
3.106545289E0,-3.994241953E0,-6.961215019E0,-5.045015812E-1
3.108976018E0,-3.928268194E0,-6.873250484E0,-9.033527970E-2
3.111407476E0,-3.861073256E0,-6.399219513E0,3.965239227E-1
3.113838101E0,-3.743787289E0,-5.496361732E0,9.408043623E-1
3.116267945E0,-3.578242779E0,-4.204993725E0,1.504632592E0
3.118698674E0,-3.380322695E0,-2.789009333E0,2.102058172E0
3.121130133E0,-3.105433464E0,-1.508636951E0,2.796000481E0
3.123560810E0,-2.739525557E0,-3.907544911E-1,3.493607998E0
3.125990654E0,-2.314363718E0,6.403851509E-1,4.164337635E0
3.128421383E0,-1.849495530E0,1.607994795E0,4.789251804E0
3.130852841E0,-1.420057654E0,2.622641087E0,5.371406078E0
3.133283466E0,-9.857329130E-1,3.625680923E0,5.915686607E0
3.135713310E0,-5.880599022E-1,4.622001648E0,6.380554676E0
3.138144039E0,-2.307040989E-1,5.661082268E0,6.746462822E0
3.140575497E0,1.400907934E-1,6.800345421E0,7.015243053E0
3.143006174E0,5.169943571E-1,7.946327209E0,7.216828346E0
3.145436018E0,8.932869434E-1,9.088032722E0,7.367712021E0
3.147866747E0,1.336774826E0,1.020469379E1,7.456287384E0
3.150298206E0,1.841959953E0,1.139282608E1,7.458730698E0
3.152728883E0,2.865158319E0,1.376542473E1,6.901011467E0
3.155158674E0,3.957384348E0,1.562489605E1,6.468519211E0
3.157589404E0,4.714856625E0,1.682341385E1,6.221118927E0
3.160020862E0,5.478437901E0,1.791136360E1,5.989601135E0
3.162451539E0,6.268896580E0,1.888508224E1,5.830165386E0
3.164881383E0,7.118609428E0,1.957352638E1,5.767857552E0
3.167312112E0,7.517504215E0,1.994248772E1,5.687834263E0
3.169743570E0,6.694058418E0,2.000968361E1,5.227241993E0
3.172174247E0,4.796102047E0,2.000601768E1,4.399520397E0
3.174604039E0,3.433873177E0,1.991194534E1,3.668926239E0
3.177034768E0,3.086902142E0,1.946967888E1,3.098989248E0
3.179466279E0,3.441203594E0,1.744710541E1,2.676270962E0
3.181896904E0,4.191345692E0,1.474830532E1,2.362286568E0
3.184326747E0,4.802210331E0,1.221810436E1,2.086175680E0
3.186757476E0,5.128412247E0,1.022301960E1,1.833888650E0
3.189188935E0,5.302508831E0,8.870565414E0,1.522347569E0
3.191619612E0,4.815038681E0,8.051395416E0,1.233408570E0
3.194049456E0,4.452185154E0,7.891349792E0,9.566868544E-1
3.196480185E0,3.975710392E0,8.185174942E0,7.300560474E-1
3.198911643E0,3.204798937E0,8.697690964E0,5.883353949E-1
3.201342320E0,2.209700346E0,8.786266327E0,5.382444859E-1
3.203772112E0,1.394806981E0,7.851643562E0,4.857101738E-1
3.206202841E0,6.807060242E-1,5.945745468E0,3.372700214E-1
3.208634299E0,1.144344732E-1,3.151649952E0,9.658932686E-2
3.211064976E0,-4.383980930E-1,6.544350386E-1,-1.874627769E-1
3.213494820E0,-7.426087856E-1,-3.168398738E-1,-4.299760461E-1
3.215925549E0,-8.629491329E-1,-5.263664722E-1,-6.223984957E-1
3.218357008E0,-8.391253948E-1,-5.862312317E-1,-7.806124091E-1
3.220787685E0,-7.310023308E-1,-4.524518251E-1,-9.357720613E-1
3.223217476E0,-6.980155706E-1,-5.037645102E-1,-1.059166670E0
3.225648206E0,-6.919069290E-1,-6.412090659E-1,-1.150796413E0
3.228079664E0,-6.576985121E-1,-6.766391993E-1,-1.219213247E0
3.230510341E0,-6.137162447E-1,-6.234939694E-1,-1.261362910E0
3.232940185E0,-5.605710745E-1,-4.897145927E-1,-1.261362910E0
3.235370914E0,-4.744391143E-1,-3.589895368E-1,-1.210661173E0
3.237802372E0,-3.724247217E-1,-3.088986278E-1,-1.120253205E0
3.240233049E0,-2.588038743E-1,-3.351657987E-1,-9.944151044E-1
3.242662893E0,-1.659524292E-1,-4.151890874E-1,-8.502510190E-1
3.245093570E0,-9.264867008E-2,-5.336968899E-1,-6.859284043E-1
3.247525029E0,-3.217305988E-2,-6.864130497E-1,-5.264927149E-1
3.249955706E0,7.533147931E-3,-8.501247764E-1,-3.914915621E-1
3.252385549E0,4.235243797E-2,-1.026053786E0,-2.766489983E-1
3.254816279E0,6.739789248E-2,-1.212978482E0,-1.899062395E-1
3.257247737E0,8.022604883E-2,-1.398681283E0,-1.330958158E-1
3.259678414E0,7.961518317E-2,-1.580718994E0,-1.056068912E-1
3.262108258E0,6.739789248E-2,-1.726715684E0,-1.043851674E-1
3.264538987E0,6.312184036E-2,-1.837282181E0,-1.166024581E-1
3.266970445E0,5.273713917E-2,-1.916694641E0,-1.361501366E-1
3.269401122E0,4.540675879E-2,-1.966785550E0,-1.611955911E-1
3.271830914E0,4.418503121E-2,-1.985722303E0,-1.801324040E-1
3.274261643E0,4.174157232E-2,-1.990609288E0,-1.899062395E-1
3.276693101E0,3.135687113E-2,-1.979002833E0,-2.002909333E-1
3.279123779E0,1.180920005E-2,-1.950903058E0,-2.106756419E-1
3.281553622E0,-1.262538880E-2,-1.914862037E0,-2.167842835E-1
3.283984351E0,-4.927727580E-2,-1.864160180E0,-2.192277461E-1
3.286415810E0,-1.066985577E-1,-1.800019383E0,-2.210603356E-1
3.288846487E0,-1.720610857E-1,-1.715720057E0,-2.338884920E-1
3.291276331E0,-2.514734864E-1,-1.613094807E0,-2.473275214E-1
3.293707008E0,-3.437140584E-1,-1.517799973E0,-2.625991106E-1
3.296138466E0,-4.445067346E-1,-1.429224610E0,-2.772598863E-1
3.298569143E0,-5.520188808E-1,-1.344925165E0,-2.864228487E-1
3.300998987E0,-6.656397581E-1,-1.260625839E0,-2.998618782E-1
3.303429716E0,-7.829258442E-1,-1.186711311E0,-3.023053408E-1
3.305861174E0,-8.861619234E-1,-1.119516134E0,-2.974184155E-1
3.308291851E0,-9.643526077E-1,-1.052321076E0,-2.772598863E-1
3.310721695E0,-1.016886950E0,-9.771846533E-1,-2.454949170E-1
3.313152424E0,-1.033991218E0,-8.702833056E-1,-2.015126646E-1
3.315583883E0,-1.026660800E0,-7.212323546E-1,-1.556978077E-1
3.318014560E0,-1.001615286E0,-5.324751139E-1,-1.056068912E-1
3.320444351E0,-9.637417793E-1,-3.168398738E-1,-5.795944482E-2
3.322875081E0,-9.075422287E-1,-1.005937606E-1,-3.592488356E-3
3.325306539E0,-8.525643349E-1,8.877430111E-2,6.848955154E-2
3.327737216E0,-7.810932398E-1,2.488208711E-1,1.479019523E-1
3.330167060E0,-6.882417202E-1,3.654960394E-1,2.413642555E-1
3.332597789E0,-5.660687685E-1,4.442975819E-1,3.439895511E-1
3.335029247E0,-4.237373471E-1,5.096600652E-1,4.502800107E-1
3.337459924E0,-2.545278072E-1,5.719682574E-1,5.504617691E-1
3.339889716E0,-6.027284265E-2,6.196157336E-1,6.439241171E-1
3.342320445E0,1.596384645E-1,6.452720165E-1,7.361646891E-1
3.344751904E0,4.045952260E-1,6.623762250E-1,8.351247311E-1
3.347182581E0,6.703213453E-1,6.843673587E-1,9.548542500E-1
3.349612424E0,9.452104568E-1,7.075802684E-1,1.092298865E0
3.352043154E0,1.213991046E0,7.191866636E-1,1.240738988E0
3.354474612E0,1.473608494E0,7.130780220E-1,1.398342133E0
3.356905289E0,1.726506472E0,7.039150596E-1,1.552279949E0
3.359335081E0,1.968408942E0,6.959738135E-1,1.683005095E0
3.361765810E0,2.182211399E0,7.295713425E-1,1.802123666E0
3.364197268E0,2.344701529E0,7.949339151E-1,1.907192349E0
3.366627945E0,2.438163757E0,8.413596153E-1,1.998211265E0
3.369057789E0,2.455878973E0,8.664050698E-1,2.081288815E0
3.371488518E0,2.404566288E0,8.596855402E-1,2.146651268E0
3.373919976E0,2.292778015E0,8.444139361E-1,2.199185610E0
3.376350654E0,2.152889967E0,8.285314441E-1,2.227285385E0
3.378780497E0,1.997119546E0,8.224228024E-1,2.229728937E0
3.381211226E0,1.865172744E0,8.260880113E-1,2.201629162E0
3.383642685E0,1.733226061E0,8.517442942E-1,2.144818544E0
3.386073310E0,1.594559669E0,8.993917704E-1,2.069682360E0
3.388503154E0,1.451006532E0,9.726955295E-1,1.983550429E0
3.390933883E0,1.287905574E0,1.072877288E0,1.900472879E0
3.393365341E0,1.108922243E0,1.184665561E0,1.827780008E0
3.395796018E0,9.177216291E-1,1.301951647E0,1.766082644E0
3.398225862E0,7.155253887E-1,1.430233240E0,1.719656944E0
3.400656591E0,5.035552979E-1,1.517586827E0,1.689724565E0
3.403088049E0,3.007482290E-1,1.566456079E0,1.652461767E0
3.405518726E0,1.388690621E-1,1.625709891E0,1.601149201E0
3.407948518E0,-2.056662738E-2,1.658696651E0,1.538841009E0
3.410379247E0,-2.013825774E-1,1.672746539E0,1.483252287E0
3.412810706E0,-3.815876842E-1,1.675189972E0,1.436215758E0
3.415241383E0,-5.813404322E-1,1.686796427E0,1.404450774E0
3.417671226E0,-7.615455389E-1,1.699013710E0,1.377572656E0
3.420101956E0,-9.380854368E-1,1.712452650E0,1.352527261E0
3.422533414E0,-1.117068768E0,1.714285254E0,1.330536127E0
3.424964091E0,-1.272228360E0,1.612881780E0,1.303658009E0
3.427393883E0,-1.344310403E0,1.650144458E0,1.262119293E0
3.429824612E0,-1.392568707E0,1.641592383E0,1.218747854E0
3.432256070E0,-1.492139697E0,1.463830709E0,1.180874228E0
3.434686747E0,-1.514130831E0,1.507812977E0,1.119787812E0
3.437116591E0,-1.462818265E0,1.378309727E0,1.062366486E0
3.439547320E0,-1.448157430E0,1.253082395E0,1.001280069E0
3.441978779E0,-1.413338184E0,1.180389524E0,9.475238919E-1
3.444409456E0,-1.387681842E0,1.064936161E0,9.035416245E-1
3.446839247E0,-1.351029992E0,9.384871125E-1,8.656679988E-1
3.449269976E0,-1.285667419E0,8.291423321E-1,8.265726566E-1
3.451701435E0,-1.211141944E0,7.472864389E-1,7.795360684E-1
3.454132112E0,-1.117679596E0,6.678740382E-1,7.251691222E-1
3.456561956E0,-1.046208501E0,5.652487874E-1,6.708021164E-1
3.458992685E0,-9.863437414E-1,4.607909322E-1,6.194894910E-1
3.461424143E0,-9.313658476E-1,3.508352637E-1,5.742855072E-1
3.463854820E0,-8.782206774E-1,2.524860501E-1,5.241945982E-1
3.466284664E0,-8.488992453E-1,1.492499113E-1,4.850992858E-1
3.468715341E0,-8.256863356E-1,8.140159771E-3,4.490582645E-1
3.471146799E0,-8.183559179E-1,-1.488520652E-1,4.093520641E-1
3.473577476E0,-8.036952019E-1,-3.278354406E-1,3.629263639E-1
3.476007320E0,-7.707085609E-1,-5.092622638E-1,2.975638211E-1
3.478438049E0,-7.010699511E-1,-6.912999749E-1,2.193731219E-1
3.480869508E0,-6.014989614E-1,-8.397400975E-1,1.326303333E-1
3.483300185E0,-4.622218311E-1,-9.368675947E-1,6.665695459E-2
3.485730029E0,-3.040078580E-1,-9.881802201E-1,2.695074864E-2
3.488160758E0,-1.683958918E-1,-1.023610353E0,2.084209956E-2
3.490592216E0,-5.721850693E-2,-1.031551600E0,2.695074864E-2
3.493022841E0,2.402649447E-2,-1.037049413E0,4.100063443E-2
3.495452685E0,8.450210094E-2,-1.036438584E0,5.138533562E-2
3.497883414E0,1.425342560E-1,-1.010171413E0,5.260706693E-2
3.500314872E0,2.097293735E-1,-9.417545199E-1,4.038976878E-2
3.502745549E0,2.757027745E-1,-8.757811189E-1,4.222236574E-2
3.505175393E0,3.471739292E-1,-7.609385252E-1,4.344409704E-2
3.507606122E0,4.107038677E-1,-6.460959911E-1,5.138533562E-2
3.510037581E0,4.730120599E-1,-5.214796066E-1,5.749398470E-2
3.512468258E0,5.145508647E-1,-3.999174833E-1,6.604608893E-2
3.514898049E0,5.377637148E-1,-2.862966359E-1,7.093300670E-2
3.517328779E0,5.224921107E-1,-2.154363245E-1,8.376117051E-2
3.519760237E0,4.882836938E-1,-1.433542818E-1,8.925895393E-2
3.522190914E0,4.510209262E-1,-5.722236261E-2,7.398733497E-2
3.524620758E0,4.162016511E-1,4.418117926E-2,4.161150008E-2
3.527051487E0,3.691650629E-1,1.370326281E-1,3.737888299E-3
3.529482945E0,3.331240416E-1,2.414904833E-1,-3.902263939E-2
3.531913622E0,2.952504158E-1,3.532787263E-1,-7.384192944E-2
3.534343414E0,2.634854615E-1,4.565148652E-1,-1.031634361E-1
3.536774143E0,2.231683880E-1,5.395924449E-1,-1.263763011E-1
3.539205601E0,1.895708442E-1,6.238917708E-1,-1.575303972E-1
3.541636279E0,1.608601958E-1,7.039150596E-1,-1.782997996E-1
3.544066122E0,1.358147413E-1,7.656123638E-1,-2.039561272E-1
3.546496851E0,1.009954512E-1,7.973773479E-1,-2.467166483E-1
3.548928310E0,7.656086236E-2,8.376944065E-1,-2.913097739E-1
3.551358987E0,5.884578452E-2,8.578529358E-1,-3.530071080E-1
3.553788779E0,5.273713917E-2,8.664050698E-1,-4.183696210E-1
3.556219508E0,5.090454221E-2,8.596855402E-1,-4.849538803E-1
3.558650966E0,5.823491886E-2,8.676267862E-1,-5.497055650E-1
3.561081643E0,6.617616117E-2,8.633507490E-1,-6.156789660E-1
3.563511487E0,6.984134763E-2,8.493008614E-1,-6.859284043E-1
3.565942216E0,7.106307894E-2,8.205901980E-1,-7.396845222E-1
3.568373674E0,8.633469790E-2,8.114272356E-1,-7.757255435E-1
3.570804351E0,9.366507828E-2,7.637798190E-1,-8.233729601E-1
3.573234195E0,1.180996597E-1,6.709283590E-1,-8.838485479E-1
3.575664872E0,1.455885768E-1,6.031223536E-1,-9.229438901E-1
3.578096331E0,1.510863602E-1,5.133252740E-1,-1.018238783E0
3.580527008E0,1.290952265E-1,4.497953653E-1,-1.119031429E0
3.582956851E0,1.150453389E-1,4.681212902E-1,-1.200276494E0
3.585387581E0,1.095475554E-1,4.827820659E-1,-1.298014760E0
3.587819039E0,1.217648536E-1,4.785059988E-1,-1.451341867E0
3.590249716E0,1.235974431E-1,4.229173064E-1,-1.702407241E0
3.592679560E0,1.211539879E-1,3.001334965E-1,-1.930259824E0
3.595110237E0,1.535298228E-1,1.779605597E-1,-2.119017124E0
3.597541695E0,2.005663961E-1,-6.520594005E-3,-2.251574755E0
3.599972372E0,2.524898946E-1,-2.484230250E-1,-2.337706566E0
3.602402216E0,2.995264828E-1,-4.933797717E-1,-2.398182392E0
3.604832945E0,3.166306913E-1,-8.434053063E-1,-2.495309830E0
3.607264404E0,3.044134080E-1,-1.200761199E0,-2.610763311E0
3.609695081E0,2.891417742E-1,-1.481758952E0,-2.745153427E0
3.612124924E0,2.555442452E-1,-1.705335379E0,-2.876489401E0
3.614555654E0,2.292770445E-1,-1.933187962E0,-2.992553711E0
3.616987060E0,2.115619630E-1,-2.201357603E0,-3.083572388E0
3.619417737E0,2.115619630E-1,-2.428599119E0,-3.164817572E0
3.621847581E0,2.512681782E-1,-2.628351927E0,-3.244230032E0
3.624278310E0,3.239610791E-1,-2.814054966E0,-3.315090179E0
3.626709768E0,4.198668301E-1,-3.068785429E0,-3.379841805E0
3.629140445E0,5.542570353E-1,-3.349172354E0,-3.413439512E0
3.631570289E0,6.807060242E-1,-3.657659054E0,-3.374954939E0
3.634001018E0,8.059333563E-1,-3.909946203E0,-3.290655613E0
3.636432476E0,9.354366064E-1,-4.184834957E0,-3.158097982E0
3.638863101E0,1.091818094E0,-4.344881535E0,-3.103730917E0
3.641292945E0,1.265303612E0,-4.479882717E0,-3.070744276E0
3.643723674E0,1.456504345E0,-4.613051414E0,-3.035925150E0
3.646155133E0,1.650148392E0,-4.703459263E0,-3.007214308E0
3.648585810E0,1.846235991E0,-4.866559982E0,-2.970562458E0
3.651015654E0,2.044156075E0,-5.086471558E0,-2.934521437E0
3.653446331E0,2.218252420E0,-5.352197647E0,-2.892371893E0
3.655877841E0,2.377688169E0,-5.651521206E0,-2.842891693E0
3.658308518E0,2.500472069E0,-5.966116428E0,-2.811126709E0
3.660738310E0,2.588436604E0,-6.244670868E0,-2.794022560E0
3.663169039E0,2.650133848E0,-6.498790741E0,-2.814181089E0
3.665600497E0,2.675179243E0,-6.726643085E0,-2.845946074E0
3.668031174E0,2.664183617E0,-6.893409252E0,-2.886263132E0
3.670461018E0,2.641581774E0,-6.957550049E0,-2.927802086E0
3.672891747E0,2.601875544E0,-6.942889214E0,-2.935132265E0
3.675323206E0,2.522463083E0,-6.871417999E0,-2.885652304E0
3.677753883E0,2.407620430E0,-6.757797241E0,-2.798298597E0
3.680183674E0,2.241465330E0,-6.655782700E0,-2.638863087E0
3.682614404E0,2.014223814E0,-6.538496971E0,-2.455603600E0
3.685045862E0,1.791258216E0,-6.501844883E0,-2.297389507E0
3.687476539E0,1.582953334E0,-6.528723240E0,-2.154447317E0
3.689906383E0,1.363652825E0,-6.544605255E0,-2.000509262E0
3.692337112E0,1.104646206E0,-6.508564472E0,-1.834354043E0
3.694768570E0,8.309787512E-1,-6.450532436E0,-1.664533615E0
3.697199247E0,5.579222441E-1,-6.378450394E0,-1.503876209E0
3.699629039E0,2.903635204E-1,-6.285598755E0,-1.359712124E0
3.702059768E0,4.723935574E-2,-6.165258408E0,-1.232652307E0
3.704491226E0,-1.922196150E-1,-6.019872665E0,-1.110479355E0
3.706921904E0,-4.102983177E-1,-5.848219872E0,-9.901390076E-1
3.709351747E0,-6.179922819E-1,-5.647245407E0,-8.777399063E-1
3.711782476E0,-8.128582239E-1,-5.438329697E0,-7.592321634E-1
3.714213935E0,-9.997828007E-1,-5.197649002E0,-6.425570250E-1
3.716644612E0,-1.179987788E0,-4.945361614E0,-5.252709985E-1
3.719074404E0,-1.360803843E0,-4.675970078E0,-4.134826958E-1
3.721505133E0,-1.534289360E0,-4.406579018E0,-3.078031242E-1
3.723936591E0,-1.709607601E0,-4.133522511E0,-2.082321793E-1
3.726367268E0,-1.889201760E0,-3.832977295E0,-1.239328384E-1
3.728797112E0,-2.062076569E0,-3.473177910E0,-5.857031047E-2
3.731227841E0,-2.227010012E0,-3.077948332E0,-8.479406126E-3
3.733659299E0,-2.390110970E0,-2.625297785E0,3.305939585E-2
3.736089976E0,-2.540994644E0,-2.102397442E0,6.238090247E-2
3.738519768E0,-2.675384760E0,-1.526962876E0,6.543522328E-2
3.740950497E0,-2.802444696E0,-9.460305572E-1,5.016360432E-2
3.743381956E0,-2.913622141E0,-3.877001703E-1,1.717691310E-2
3.745812633E0,-3.018690825E0,1.339782923E-1,-3.841177747E-2
3.748242476E0,-3.105433464E0,6.153396964E-1,-1.190459207E-1
3.750673206E0,-3.174461365E0,1.054551363E0,-2.192277461E-1
3.753104664E0,-3.222108841E0,1.455278635E0,-3.340702951E-1
3.755535341E0,-3.262425900E0,1.795530319E0,-4.617410302E-1
3.757965133E0,-3.278919220E0,2.096686602E0,-6.065160036E-1
3.760395862E0,-3.267923594E0,2.369743109E0,-7.659516931E-1
3.762827320E0,-3.226384878E0,2.623251915E0,-9.376046658E-1
3.765257997E0,-3.167741776E0,2.836443901E0,-1.114144564E0
3.767687841E0,-3.082220793E0,3.003820658E0,-1.301679969E0
3.770118570E0,-2.974708557E0,3.133934975E0,-1.491048098E0
3.772550029E0,-2.846426964E0,3.226786375E0,-1.676750898E0
3.774980706E0,-2.702873707E0,3.283596754E0,-1.855734229E0
3.777410497E0,-2.545270681E0,3.317194223E0,-2.034717798E0
3.779841226E0,-2.379115343E0,3.329411507E0,-2.206981659E0
3.782272685E0,-2.203797340E0,3.287261963E0,-2.371304274E0
3.784703362E0,-2.032144308E0,3.207849503E0,-2.531961679E0
3.787133206E0,-1.861101985E0,3.114387274E0,-2.695673466E0
3.789563935E0,-1.696168542E0,3.000766516E0,-2.856330872E0
3.791995393E0,-1.535511136E0,2.871263027E0,-3.024929523E0
3.794426070E0,-1.379740596E0,2.728931665E0,-3.190473795E0
3.796855862E0,-1.231911302E0,2.582934856E0,-3.353574753E0
3.799286591E0,-1.096910238E0,2.421666622E0,-3.513010502E0
3.801718049E0,-9.741264582E-1,2.246348381E0,-3.668169975E0
3.804148726E0,-8.666142225E-1,2.072862864E0,-3.815999269E0
3.806578570E0,-7.652107477E-1,1.908540249E0,-3.962606907E0
3.809009299E0,-6.705267429E-1,1.756434917E0,-4.109825134E0
3.811440758E0,-5.801186562E-1,1.612270951E0,-4.254600048E0
3.813871435E0,-4.970411360E-1,1.479102373E0,-4.398153305E0
3.816301279E0,-4.249590933E-1,1.365481496E0,-4.538652420E0
3.818732008E0,-3.394380212E-1,1.287901759E0,-4.683427334E0
3.821163414E0,-2.746863663E-1,1.182832956E0,-4.818428516E0
3.823594091E0,-2.111564279E-1,1.095479369E0,-4.944266319E0
3.826023935E0,-1.549568623E-1,9.836910963E-1,-5.059109211E0
3.828454664E0,-9.936818480E-2,8.578529358E-1,-5.158069134E0
3.830886122E0,-4.622294754E-2,7.350691557E-1,-5.250309467E0
3.833316799E0,5.700550973E-3,6.025115252E-1,-5.329721928E0
3.835746591E0,6.312184036E-2,4.772842824E-1,-5.403025627E0
3.838177320E0,1.370364726E-1,3.587765098E-1,-5.470831871E0
3.840608779E0,2.121728361E-1,2.598164380E-1,-5.530085564E0
3.843039456E0,2.842548490E-1,2.207210809E-1,-5.580176830E0
3.845469299E0,3.630564213E-1,2.243862748E-1,-5.614385128E0
3.847900029E0,4.400253594E-1,2.549295127E-1,-5.633932590E0
3.850331487E0,5.163834691E-1,2.885270715E-1,-5.630267620E0
3.852762164E0,5.878546238E-1,3.428940177E-1,-5.605222225E0
3.855192008E0,6.666561365E-1,4.546822608E-1,-5.580787659E0
3.857622685E0,7.521772385E-1,5.970137119E-1,-5.540470600E0
3.860054143E0,8.267027140E-1,7.094128132E-1,-5.480605602E0
3.862484820E0,8.951195478E-1,8.114272356E-1,-5.409745216E0
3.864914664E0,9.635363817E-1,9.873563051E-1,-5.351102352E0
3.867345393E0,1.034396768E0,1.180389524E0,-5.279020309E0
3.869776851E0,1.085709453E0,1.324553609E0,-5.192888260E0
3.872207529E0,1.121750474E0,1.452224374E0,-5.104312897E0
3.874637372E0,1.172452211E0,1.621433854E0,-5.031009197E0
3.877068049E0,1.213380098E0,1.741163373E0,-4.941823006E0
3.879499560E0,1.227429986E0,1.823630095E0,-4.846528053E0
3.881930185E0,1.243312478E0,1.903653383E0,-4.759785175E0
3.884360029E0,1.250642896E0,1.989174366E0,-4.676096916E0
3.886790758E0,1.259194970E0,2.074695587E0,-4.599738598E0
3.889222216E0,1.264692783E0,2.160216570E0,-4.533765316E0
3.891652893E0,1.276299238E0,2.239018202E0,-4.480619907E0
3.894082737E0,1.295235991E0,2.315376282E0,-4.435416222E0
3.896513466E0,1.324557543E0,2.391734362E0,-4.404262066E0
3.898944924E0,1.363652825E0,2.465648890E0,-4.389601231E0
3.901375549E0,1.416798115E0,2.537730932E0,-4.388379574E0
3.903805393E0,1.477884531E0,2.612256527E0,-4.398764133E0
3.906236122E0,1.554242611E0,2.679451466E0,-4.417090416E0
3.908667581E0,1.634876847E0,2.733207703E0,-4.436027050E0
3.911098258E0,1.722230434E0,2.776579142E0,-4.453742027E0
3.913528101E0,1.816303611E0,2.805900574E0,-4.465959549E0
3.915958831E0,1.912820220E0,2.815674305E0,-4.469624519E0
3.918390289E0,2.012391090E0,2.809565783E0,-4.460461617E0
3.920820914E0,2.113183737E0,2.786352873E0,-4.434805393E0
3.923250758E0,2.215198278E0,2.744203329E0,-4.399374962E0
3.925681487E0,2.320266962E0,2.696555853E0,-4.360279560E0
3.928112945E0,2.432666063E0,2.642188787E0,-4.320573330E0
3.930543622E0,2.544454336E0,2.586600065E0,-4.284532547E0
3.932973466E0,2.658075094E0,2.522459269E0,-4.252156734E0
3.935404195E0,2.773528576E0,2.465038061E0,-4.224668026E0
3.937835654E0,2.887760162E0,2.409449339E0,-4.200232983E0
3.940266279E0,3.022150517E0,2.419223070E0,-4.193513870E0
3.942696122E0,3.150432110E0,2.378906012E0,-4.182518005E0
3.945126851E0,3.284822226E0,2.330647707E0,-4.176409245E0
3.947558310E0,3.406995296E0,2.245126724E0,-4.166635513E0
3.949988987E0,3.516950846E0,2.137614489E0,-4.147088051E0
3.952418831E0,3.626295567E0,2.056369543E0,-4.131816387E0
3.954849560E0,3.720979691E0,1.947635651E0,-4.104938507E0
3.957281018E0,3.799781322E0,1.823019266E0,-4.068897247E0
3.959711695E0,3.878582716E0,1.701457143E0,-4.037743092E0
3.962141487E0,3.954329967E0,1.589668870E0,-4.015751839E0
3.964572216E0,4.036797047E0,1.554849625E0,-4.011476040E0
3.967003674E0,4.136367798E0,1.570732117E0,-4.011476040E0
3.969434351E0,4.230441093E0,1.557293057E0,-4.003534794E0
3.971864195E0,4.319627285E0,1.524917245E0,-3.994371891E0
3.974294924E0,4.394152641E0,1.467495918E0,-3.970548153E0
3.976726383E0,4.452795982E0,1.409463763E0,-3.938172340E0
3.979157060E0,4.496167183E0,1.358151197E0,-3.897855282E0
3.981586851E0,4.507773876E0,1.311725497E0,-3.839823008E0
3.984017581E0,4.496778011E0,1.270797491E0,-3.784234285E0
3.986449039E0,4.476619720E0,1.242086887E0,-3.727423906E0
3.988879716E0,4.430804729E0,1.228037000E0,-3.661450624E0
3.991309560E0,4.377659321E0,1.217652321E0,-3.596698761E0
3.993740289E0,4.316573143E0,1.228037000E0,-3.530114651E0
3.996171747E0,4.254875660E0,1.252471566E0,-3.468417168E0
3.998602424E0,4.190124035E0,1.283625722E0,-3.401222229E0
4.001032216E0,4.121706963E0,1.329440475E0,-3.341357470E0
4.003462945E0,4.061842442E0,1.387472630E0,-3.284547091E0
4.005894404E0,3.993425369E0,1.432676673E0,-3.222849607E0
4.008325081E0,3.931117058E0,1.489487052E0,-3.163595676E0
4.010754924E0,3.870641470E0,1.531636715E0,-3.098233223E0
4.013185654E0,3.810776711E0,1.554849625E0,-3.029205561E0
4.015617112E0,3.759464264E0,1.574397326E0,-2.960177898E0
4.018047789E0,3.719147205E0,1.583560228E0,-2.874656677E0
4.020477581E0,3.681884289E0,1.579895020E0,-2.778750896E0
4.022908310E0,3.655617237E0,1.578673363E0,-2.679180145E0
4.025339768E0,3.640956402E0,1.583560228E0,-2.591826439E0
4.027770445E0,3.622630596E0,1.586614609E0,-2.512413979E0
4.030200289E0,3.613467455E0,1.607994795E0,-2.448884010E0
4.032631018E0,3.612245798E0,1.645257592E0,-2.409788609E0
4.035062476E0,3.618965387E0,1.688018084E0,-2.384743214E0
4.037493154E0,3.631182671E0,1.721615672E0,-2.364584684E0
4.039922945E0,3.640956402E0,1.736276388E0,-2.338928461E0
4.042353674E0,3.661725760E0,1.789421678E0,-2.327932835E0
4.044785133E0,3.693490744E0,1.845010400E0,-2.313882828E0
4.047215810E0,3.720979691E0,1.841345191E0,-2.292502642E0
4.049645654E0,3.749079466E0,1.845010400E0,-2.273565769E0
4.052076383E0,3.786342144E0,1.829738736E0,-2.256461620E0
4.054507841E0,3.813831091E0,1.797362924E0,-2.235081434E0
4.056938518E0,3.848039627E0,1.766208768E0,-2.220420599E0
4.059368310E0,3.877361059E0,1.738719940E0,-2.203927279E0
4.061799039E0,3.917678118E0,1.708176613E0,-2.187433958E0
4.064230497E0,3.953719139E0,1.668470502E0,-2.176438332E0
4.066661174E0,3.984262466E0,1.631207705E0,-2.161166668E0
4.069091018E0,4.016027451E0,1.585392833E0,-2.153836489E0
4.071521747E0,4.044127464E0,1.553627849E0,-2.156279802E0
4.073953206E0,4.072837830E0,1.522473812E0,-2.164831877E0
4.076383883E0,4.101548672E0,1.499871731E0,-2.183157921E0
4.078813674E0,4.121706963E0,1.491930485E0,-2.203927279E0
4.081244404E0,4.132702827E0,1.483989358E0,-2.223474979E0
4.083675862E0,4.141865730E0,1.498650074E0,-2.246687889E0
4.086106539E0,4.140033245E0,1.526139021E0,-2.266846418E0
4.088536383E0,4.136367798E0,1.576840758E0,-2.287004948E0
4.090967112E0,4.130870342E0,1.641592383E0,-2.304109097E0
4.093398570E0,4.116820335E0,1.711841822E0,-2.312661171E0
4.095829247E0,4.104602814E0,1.799806356E0,-2.315104723E0
4.098259039E0,4.088109493E0,1.893268704E0,-2.319380760E0
4.100689768E0,4.069172859E0,1.991617918E0,-2.310828686E0
4.103121226E0,4.047792435E0,2.088134527E0,-2.301054716E0
4.105551904E0,4.018470764E0,2.170601130E0,-2.279063702E0
4.107981747E0,3.981208086E0,2.245126724E0,-2.250963926E0
4.110412476E0,3.947610617E0,2.309878349E0,-2.214312077E0
4.112843935E0,3.904850006E0,2.363634586E0,-2.172162294E0
4.115274612E0,3.859646082E0,2.402118921E0,-2.124514818E0
4.117704404E0,3.806500673E0,2.430829525E0,-2.068315268E0
4.120135133E0,3.753966331E0,2.436938286E0,-2.007839680E0
4.122566591E0,3.696545124E0,2.421666622E0,-1.950418353E0
4.124997268E0,3.637902021E0,2.384403944E0,-1.897883892E0
4.127427112E0,3.577426434E0,2.326982498E0,-1.839240909E0
4.129857841E0,3.516340017E0,2.259176731E0,-1.784873962E0
4.132289299E0,3.456475258E0,2.174266338E0,-1.734783053E0
4.134719976E0,3.391723633E0,2.080804110E0,-1.680416107E0
4.137149768E0,3.326361179E0,1.985509276E0,-1.627881765E0
4.139580497E0,3.259776831E0,1.896322966E0,-1.574736476E0
4.142011956E0,3.192581654E0,1.814467072E0,-1.522202134E0
4.144442633E0,3.127219200E0,1.730778694E0,-1.467835188E0
4.146872476E0,3.061245918E0,1.653198838E0,-1.407970428E0
4.149303206E0,3.006878853E0,1.578673363E0,-1.351160049E0
4.151734664E0,2.952511787E0,1.517586827E0,-1.291295290E0
4.154165341E0,2.906086206E0,1.464441657E0,-1.233873963E0
4.156595133E0,2.862714767E0,1.422291994E0,-1.175230980E0
4.159025862E0,2.817510843E0,1.384418368E0,-1.112922788E0
4.161457320E0,2.772306681E0,1.352042556E0,-1.048171163E0
4.163887997E0,2.724659443E0,1.321499228E0,-9.846412539E-1
4.166317841E0,2.672735929E0,1.287901759E0,-9.174461365E-1
4.168748570E0,2.618979692E0,1.272630095E0,-8.490293026E-1
4.171180029E0,2.556060791E0,1.257358432E0,-7.916079760E-1
4.173610706E0,2.484589577E0,1.245752096E0,-7.390736341E-1
4.176040549E0,2.407620430E0,1.234756470E0,-6.957022548E-1
4.178471226E0,2.320266962E0,1.215819716E0,-6.559960246E-1
4.180902685E0,2.223139286E0,1.203602433E0,-6.211767197E-1
4.183333362E0,2.115016460E0,1.196882844E0,-5.875791907E-1
4.185763206E0,2.001395464E0,1.202380657E0,-5.594794154E-1
4.188193935E0,1.879833579E0,1.207878470E0,-5.362665653E-1
4.190625393E0,1.756438851E0,1.219484925E0,-5.197731853E-1
4.193056070E0,1.633044243E0,1.238421679E0,-5.087776184E-1
4.195485862E0,1.513314724E0,1.276295304E0,-4.990037680E-1
4.197916591E0,1.397861242E0,1.323331833E0,-4.947277009E-1
4.200348049E0,1.286073089E0,1.370368481E0,-4.983929098E-1
4.202778726E0,1.177339077E0,1.422902822E0,-5.038906932E-1
4.205208570E0,1.075324655E0,1.473604560E0,-5.106102228E-1
4.207639299E0,9.781972170E-1,1.529193282E0,-5.197731853E-1
4.210070758E0,8.877892494E-1,1.587836266E0,-5.283253193E-1
4.212501435E0,7.979921103E-1,1.642203212E0,-5.362665653E-1
4.214931279E0,7.179688215E-1,1.715507030E0,-5.484838486E-1
4.217361956E0,6.434433460E-1,1.794919491E0,-5.552033782E-1
4.219793414E0,5.738047361E-1,1.874331832E0,-5.619228482E-1
4.222224091E0,5.096639395E-1,1.955576897E0,-5.692532659E-1
4.224653935E0,4.461340308E-1,2.027048111E0,-5.704749823E-1
4.227084664E0,3.856584132E-1,2.098519325E0,-5.723075867E-1
4.229516122E0,3.239610791E-1,2.168157816E0,-5.747510195E-1
4.231946799E0,2.616528869E-1,2.234131098E0,-5.704749823E-1
4.234376591E0,2.017881274E-1,2.293995857E0,-5.686423779E-1
4.236807320E0,1.382581890E-1,2.355082512E0,-5.637554526E-1
4.239238779E0,7.350653410E-2,2.413725376E0,-5.588685274E-1
4.241669456E0,1.425265893E-2,2.469924927E0,-5.497055650E-1
4.244099299E0,-4.866640270E-2,2.527346134E0,-5.454295278E-1
4.246530029E0,-1.097528785E-1,2.590876102E0,-5.350447893E-1
4.248961487E0,-1.738936752E-1,2.661736488E0,-5.240492225E-1
4.251392164E0,-2.416996658E-1,2.744203329E0,-5.093885064E-1
4.253821956E0,-3.095056415E-1,2.833389521E0,-4.965603054E-1
4.256252685E0,-3.675377965E-1,2.936014652E0,-4.861755967E-1
4.258684143E0,-4.286242425E-1,3.044748545E0,-4.721257091E-1
4.261114820E0,-4.866563976E-1,3.155925989E0,-4.580758214E-1
4.263544664E0,-5.446885824E-1,3.278099060E0,-4.428042173E-1
4.265975393E0,-5.978337526E-1,3.400882721E0,-4.275325835E-1
4.268406851E0,-6.497572660E-1,3.512670994E0,-4.085958004E-1
4.270837529E0,-7.059568167E-1,3.615296364E0,-3.853829205E-1
4.273267372E0,-7.603237629E-1,3.703871727E0,-3.585048914E-1
4.275698049E0,-8.159124851E-1,3.793668747E0,-3.267399073E-1
4.278129508E0,-8.812750578E-1,3.882244110E0,-3.004727364E-1
4.280560185E0,-9.472483397E-1,3.961045742E0,-2.705403566E-1
4.282990029E0,-1.021773934E0,4.028851986E0,-2.418297380E-1
4.285420758E0,-1.093245029E0,4.086273193E0,-2.173951417E-1
4.287852216E0,-1.172046542E0,4.135142326E0,-1.935714185E-1
4.290282893E0,-1.254513383E0,4.180346489E0,-1.734128892E-1
4.292712737E0,-1.333925724E0,4.221274376E0,-1.544760764E-1
4.295143414E0,-1.413949013E0,4.265867710E0,-1.404261887E-1
4.297574872E0,-1.487863660E0,4.305573463E0,-1.306523532E-1
4.300005549E0,-1.558723927E0,4.342225552E0,-1.227111071E-1
4.302435393E0,-1.618588686E0,4.382542610E0,-1.202676520E-1
4.304866122E0,-1.669901371E0,4.413696766E0,-1.147698686E-1
4.307297581E0,-1.717548847E0,4.444240093E0,-1.153807268E-1
4.309728258E0,-1.752368093E0,4.466231346E0,-1.239328384E-1
4.312158101E0,-1.784133077E0,4.479059219E0,-1.324849427E-1
4.314588779E0,-1.802459002E0,4.493720055E0,-1.434805095E-1
4.317020237E0,-1.817119718E0,4.506548405E0,-1.636390537E-1
4.319450914E0,-1.823839307E0,4.518765450E0,-1.905170977E-1
4.321880758E0,-1.824450135E0,4.531593800E0,-2.180060148E-1
4.324311487E0,-1.819563150E0,4.538924217E0,-2.534361482E-1
4.326742945E0,-1.809789419E0,4.544421673E0,-2.906988859E-1
4.329173622E0,-1.794517756E0,4.550530434E0,-3.328485787E-1
4.331603466E0,-1.771304846E0,4.548697948E0,-3.713330328E-1
4.334034143E0,-1.745648623E0,4.537702084E0,-4.122609794E-1
4.336465601E0,-1.715716243E0,4.516322136E0,-4.501346052E-1
4.338896279E0,-1.680896878E0,4.469285488E0,-4.892299473E-1
4.341326122E0,-1.642412424E0,4.399646759E0,-5.301579237E-1
4.343756851E0,-1.600262761E0,4.296410561E0,-5.661989450E-1
4.346188310E0,-1.563610911E0,4.163242340E0,-5.997964740E-1
4.348618987E0,-1.530624151E0,4.010526180E0,-6.291179657E-1
4.351048779E0,-1.488474488E0,3.817492485E0,-6.535525918E-1
4.353479508E0,-1.450600863E0,3.579255342E0,-6.773762703E-1
4.355910966E0,-1.412727356E0,3.301311731E0,-6.938696504E-1
4.358341643E0,-1.383405805E0,2.981829643E0,-7.109738588E-1
4.360771487E0,-1.351640821E0,2.617143393E0,-7.189151049E-1
4.363202216E0,-1.329038858E0,2.217026949E0,-7.250237465E-1
4.365633674E0,-1.305825949E0,1.790643334E0,-7.189151049E-1
4.368064351E0,-1.283834815E0,1.351431608E0,-7.066978216E-1
4.370494195E0,-1.263676286E0,9.134416580E-1,-6.895936131E-1
4.372924872E0,-1.239241719E0,4.736190736E-1,-6.706568003E-1
4.375356331E0,-1.218472362E0,5.028982833E-2,-6.413352489E-1
4.377787008E0,-1.195259452E0,-3.315006196E-1,-6.010181904E-1
4.380216851E0,-1.187929034E0,-6.515937448E-1,-5.454295278E-1
4.382647581E0,-1.185485601E0,-9.222068191E-1,-4.776234925E-1
4.385079039E0,-1.177544355E0,-1.185489535E0,-4.147044420E-1
4.387509716E0,-1.157385826E0,-1.445717931E0,-3.523962200E-1
4.389939560E0,-1.128064394E0,-1.693728924E0,-2.980292737E-1
4.392370237E0,-1.096299410E0,-1.916083694E0,-2.479383796E-1
4.394801695E0,-1.054760575E0,-2.121945143E0,-1.996800750E-1
4.397232372E0,-1.016886950E0,-2.310091496E0,-1.477565616E-1
4.399662216E0,-9.802350998E-1,-2.479300976E0,-9.766565263E-2
4.402092945E0,-9.423614740E-1,-2.632017136E0,-4.390955716E-2
4.404524404E0,-8.983792067E-1,-2.772516012E0,2.516158856E-3
4.406955081E0,-8.574513197E-1,-2.897743464E0,5.260706693E-2
4.409384924E0,-8.201885223E-1,-3.004033804E0,9.903278947E-2
4.411815601E0,-7.804822922E-1,-3.088943958E0,1.399607211E-1
4.414247112E0,-7.523825169E-1,-3.153695583E0,1.784451902E-1
4.416677737E0,-7.242827415E-1,-3.201343060E0,2.102101594E-1
4.419107581E0,-7.071785927E-1,-3.226999521E0,2.401425391E-1
4.421538310E0,-6.967939138E-1,-3.232497215E0,2.578576207E-1
4.423969768E0,-7.029025555E-1,-3.211727858E0,2.621336877E-1
4.426400445E0,-7.181740999E-1,-3.173243284E0,2.584684789E-1
4.428830289E0,-7.401652336E-1,-3.120098114E0,2.431968600E-1
4.431261018E0,-7.719302177E-1,-3.062676907E0,2.236491889E-1
4.433692424E0,-8.110256195E-1,-2.998536110E0,2.010471821E-1
4.436123101E0,-8.586729765E-1,-2.927064896E0,1.650061756E-1
4.438552945E0,-9.130400419E-1,-2.832380772E0,1.234673783E-1
4.440983674E0,-9.741264582E-1,-2.726090431E0,6.971128285E-2
4.443415133E0,-1.035823822E0,-2.606971741E0,1.656604744E-2
4.445845810E0,-1.101797104E0,-2.464640141E0,-3.963350505E-2
4.448275654E0,-1.166548848E0,-2.313145876E0,-9.277873486E-2
4.450706331E0,-1.226413608E0,-2.149434090E0,-1.373718679E-1
4.453137789E0,-1.288721800E0,-1.972894192E0,-1.709694266E-1
4.455568466E0,-1.347364783E0,-1.792689085E0,-1.954040229E-1
4.457998310E0,-1.404786110E0,-1.605764508E0,-1.984583437E-1
4.460429039E0,-1.459763885E0,-1.423115849E0,-1.874627769E-1
4.462860497E0,-1.518406868E0,-1.246575952E0,-1.630281806E-1
4.465291174E0,-1.574606419E0,-1.068814397E0,-1.324849427E-1
4.467721018E0,-1.629584312E0,-8.959396482E-1,-9.155700356E-2
4.470151695E0,-1.680286050E0,-7.279518843E-1,-4.757475108E-2
4.472583154E0,-1.718159676E0,-5.721813440E-1,-4.203353077E-3
4.475013831E0,-1.743816018E0,-4.261846542E-1,3.977891058E-2
4.477443674E0,-1.767028809E0,-2.661381066E-1,8.803722262E-2
4.479874404E0,-1.776802659E0,-9.815030545E-2,1.375172585E-1
4.482305862E0,-1.776191831E0,8.571998030E-2,1.894407570E-1
4.484736539E0,-1.765196204E0,2.885270715E-1,2.413642555E-1
4.487166383E0,-1.740150809E0,5.114926696E-1,2.981746793E-1
4.489597060E0,-1.701666355E0,7.515624762E-1,3.598720431E-1
4.492028518E0,-1.659516692E0,1.012401700E0,4.270671606E-1
4.494459195E0,-1.600262761E0,1.280571342E0,4.893753529E-1
4.496889039E0,-1.553226233E0,1.562180042E0,5.571812987E-1
4.499319768E0,-1.498859167E0,1.846232057E0,6.286524534E-1
4.501751226E0,-1.440827131E0,2.127229929E0,6.934041381E-1
4.504181904E0,-1.382794976E0,2.397232056E0,7.551015019E-1
4.506611747E0,-1.335758328E0,2.656238794E0,8.113010526E-1
4.509042424E0,-1.299106479E0,2.897530317E0,8.638353944E-1
4.511473883E0,-1.253291607E0,3.104002476E0,9.059850574E-1
4.513904560E0,-1.224581003E0,3.273823023E0,9.487456083E-1
4.516334404E0,-1.196481228E0,3.400882721E0,9.756236672E-1
4.518765133E0,-1.166548848E0,3.472964764E0,9.970038533E-1
4.521196591E0,-1.136005521E0,3.492512465E0,1.007999539E0
4.523627268E0,-1.107294917E0,3.460747480E0,1.009832144E0
4.526057112E0,-1.085303783E0,3.372782946E0,1.004945159E0
4.528487789E0,-1.046208501E0,3.242668867E0,9.915061593E-1
4.530919247E0,-1.005280495E0,3.060020208E0,9.695149660E-1
4.533349924E0,-9.570221901E-1,2.851715326E0,9.383608699E-1
4.535779768E0,-8.904379606E-1,2.621419430E0,8.998764157E-1
4.538210497E0,-8.305732012E-1,2.386847258E0,8.571158648E-1
4.540641956E0,-7.444412708E-1,2.147999287E0,8.119118810E-1
4.543072633E0,-6.473138332E-1,1.906096816E0,7.673187852E-1
4.545502476E0,-5.434668064E-1,1.677633405E0,7.251691222E-1
4.547933154E0,-4.170178473E-1,1.460776448E0,6.842411757E-1
4.550364612E0,-2.856819332E-1,1.270797491E0,6.469784379E-1
4.552795289E0,-1.396852434E-1,1.086927176E0,6.139917374E-1
4.555225133E0,7.533147931E-3,9.177176952E-1,5.840593576E-1
4.557655862E0,1.590276062E-1,7.613363266E-1,5.669551492E-1
4.560087320E0,3.056351244E-1,6.287786961E-1,5.553486943E-1
4.562517997E0,4.430796802E-1,5.206556320E-1,5.529052615E-1
4.564947841E0,5.841894150E-1,4.369671941E-1,5.559595823E-1
4.567378518E0,7.014755011E-1,3.697720766E-1,5.669551492E-1
4.569809976E0,8.126528263E-1,3.202920258E-1,5.816158652E-1
4.572240654E0,9.036717415E-1,2.860836089E-1,6.036069989E-1
4.574670497E0,9.806406498E-1,2.616490126E-1,6.317067742E-1
4.577101226E0,1.041116238E0,2.488208711E-1,6.610283256E-1
4.579532685E0,1.084487677E0,2.414904833E-1,6.946258545E-1
4.581963362E0,1.117474318E0,2.408796251E-1,7.343320847E-1
4.584393206E0,1.133967757E0,2.457665503E-1,7.734274268E-1
4.586823883E0,1.144352436E0,2.518751919E-1,8.155770898E-1
4.589255393E0,1.138854623E0,2.726445794E-1,8.565050364E-1
4.591686018E0,1.127859116E0,3.025769591E-1,9.004873037E-1
4.594115862E0,1.104646206E0,3.404505849E-1,9.414151907E-1
4.596546591E0,1.080822468E0,3.911523521E-1,9.860083461E-1
4.598978049E0,1.050890088E0,4.522388279E-1,1.030601501E0
4.601408726E0,1.016070843E0,5.267642736E-1,1.078859806E0
4.603838570E0,9.775862694E-1,6.086201668E-1,1.129561663E0
4.606269247E0,9.384909868E-1,6.990281343E-1,1.180874228E0
4.608700706E0,8.987847567E-1,8.022642732E-1,1.235852122E0
4.611131383E0,8.548024893E-1,9.201611876E-1,1.293273330E0
4.613561226E0,8.077659607E-1,1.058827400E0,1.351305485E0
4.615991956E0,7.631728649E-1,1.197493792E0,1.416057110E0
4.618423414E0,7.161362171E-1,1.340436101E0,1.486917496E0
4.620854091E0,6.672670841E-1,1.497428298E0,1.554112554E0
4.623283883E0,6.116783619E-1,1.666637897E0,1.624972939E0
4.625714612E0,5.542570353E-1,1.843788624E0,1.702552676E0
4.628146070E0,4.864510894E-1,2.031324148E0,1.778910756E0
4.630576747E0,4.278080761E-1,2.217026949E0,1.854658008E0
4.633006591E0,3.618346751E-1,2.391123295E0,1.924296618E0
4.635437320E0,3.007482290E-1,2.553002596E0,1.989048243E0
4.637868779E0,2.280553132E-1,2.697166681E0,2.050134659E0
4.640299456E0,1.614710540E-1,2.834611177E0,2.106334209E0
4.642729247E0,1.040497720E-1,2.951897144E0,2.148483753E0
4.645159976E0,4.968281463E-2,3.066739798E0,2.182081461E0
4.647591435E0,-2.240687609E-3,3.173641205E0,2.210792065E0
4.650022112E0,-4.866640270E-2,3.276877165E0,2.230339766E0
4.652451956E0,-8.959434927E-2,3.371561289E0,2.245000362E0
4.654882685E0,-1.213593036E-1,3.449141026E0,2.250498295E0
4.657314143E0,-1.500699520E-1,3.518779755E0,2.253552675E0
4.659744820E0,-1.757262647E-1,3.564594507E0,2.249887466E0
4.662174612E0,-1.995500028E-1,3.597581148E0,2.244389534E0
4.664605341E0,-2.154324651E-1,3.614074469E0,2.232783079E0
4.667036799E0,-2.368127406E-1,3.625070095E0,2.227285385E0
4.669467476E0,-2.410888076E-1,3.612852812E0,2.216900587E0
4.671897320E0,-2.514734864E-1,3.595137835E0,2.211402893E0
4.674328049E0,-2.606364787E-1,3.574979305E0,2.204072475E0
4.676759508E0,-2.679668367E-1,3.549322844E0,2.199185610E0
4.679190185E0,-2.795732617E-1,3.518168926E0,2.196742058E0
4.681619976E0,-2.893471122E-1,3.488236427E0,2.193687916E0
4.684050706E0,-3.015643954E-1,3.452195406E0,2.193077087E0
4.686482164E0,-3.131708205E-1,3.424095631E0,2.191855192E0
4.688912841E0,-3.278315961E-1,3.392941475E0,2.191244364E0
4.691342685E0,-3.455466628E-1,3.366063595E0,2.188800812E0
4.693773414E0,-3.669269383E-1,3.342239857E0,2.186968327E0
4.696204872E0,-3.889180422E-1,3.309252977E0,2.182081461E0
4.698635549E0,-4.255699217E-1,3.286040306E0,2.177805424E0
4.701065393E0,-4.561131895E-1,3.260383844E0,2.168642282E0
4.703496070E0,-5.000954866E-1,3.228008032E0,2.164977074E0
4.705927529E0,-5.477428436E-1,3.199908257E0,2.147872925E0
4.708358206E0,-5.953903198E-1,3.174862862E0,2.134433985E0
4.710788049E0,-6.448704004E-1,3.155925989E0,2.119773149E0
4.713218779E0,-7.010699511E-1,3.140654325E0,2.105112553E0
4.715650237E0,-7.523825169E-1,3.117441654E0,2.088618994E0
4.718080914E0,-8.110256195E-1,3.089952707E0,2.077623606E0
4.720510706E0,-8.727228642E-1,3.049635649E0,2.064184427E0
4.722941435E0,-9.319767952E-1,3.011761904E0,2.051356316E0
4.725372893E0,-1.002837062E0,2.967168808E0,2.044025898E0
4.727803570E0,-1.075529933E0,2.885313034E0,2.038528204E0
4.730233414E0,-1.143946767E0,2.779633284E0,2.037917376E0
4.732664143E0,-1.213585377E0,2.648908377E0,2.040971756E0
4.735095601E0,-1.283834815E0,2.501689911E0,2.045247793E0
4.737526279E0,-1.345532179E0,2.360580206E0,2.053189039E0
4.739956070E0,-1.399899125E0,2.229244232E0,2.066017151E0
4.742386799E0,-1.441437960E0,2.116845131E0,2.070293188E0
4.744818258E0,-1.474424601E0,2.013608932E0,2.067849636E0
4.747248935E0,-1.492750525E0,1.916481495E0,2.057465076E0
4.749678779E0,-1.507411361E0,1.816910625E0,2.044636726E0
4.752109508E0,-1.509243965E0,1.722837448E0,2.022034883E0
4.754540966E0,-1.509854794E0,1.617768645E0,1.996989608E0
4.756971643E0,-1.500691772E0,1.488265395E0,1.970722318E0
4.759401435E0,-1.471370339E0,1.342268705E0,1.945065975E0
4.761832164E0,-1.429831505E0,1.197493792E0,1.921853185E0
4.764263622E0,-1.379740596E0,1.063103557E0,1.897418618E0
4.766694299E0,-1.319875836E0,9.415414333E-1,1.877870917E0
4.769124143E0,-1.255735040E0,8.303640485E-1,1.863821030E0
4.771554872E0,-1.184874773E0,7.210192680E-1,1.844884157E0
4.773986331E0,-1.113403559E0,6.055658460E-1,1.827780008E0
4.776417008E0,-1.041321516E0,5.053840280E-1,1.812508345E0
4.778846799E0,-9.686286449E-1,4.168086648E-1,1.800901890E0
4.781277529E0,-8.983792067E-1,3.288441300E-1,1.792349815E0
4.783708987E0,-8.256863356E-1,2.482100129E-1,1.780743361E0
4.786139664E0,-7.609347105E-1,1.846800745E-1,1.778299928E0
4.788569508E0,-6.992373466E-1,1.290913820E-1,1.772802114E0
4.791000237E0,-6.473138332E-1,8.510911465E-2,1.775856495E0
4.793431695E0,-6.027207375E-1,6.067452952E-2,1.777689099E0
4.795862372E0,-5.752317905E-1,6.006366387E-2,1.781965137E0
4.798292164E0,-5.532406569E-1,7.777873427E-2,1.785630345E0
4.800722893E0,-5.465211868E-1,1.229827181E-1,1.787462950E0
4.803154351E0,-5.538514853E-1,1.907887161E-1,1.792349815E0
4.805585029E0,-5.581276417E-1,2.653142214E-1,1.794793248E0
4.808014872E0,-5.709557533E-1,3.606091142E-1,1.800291061E0
4.810445601E0,-5.886708498E-1,4.803386033E-1,1.802123666E0
4.812877060E0,-6.124945879E-1,6.019006371E-1,1.803956270E0
4.815307737E0,-6.375399828E-1,7.088019848E-1,1.802123666E0
4.817737529E0,-6.583093405E-1,8.138707280E-1,1.800901890E0
4.820168258E0,-6.796896458E-1,9.543696046E-1,1.795404196E0
4.822599716E0,-7.053459883E-1,1.110140085E0,1.781965137E0
4.825030393E0,-7.322239876E-1,1.261023641E0,1.769747853E0
4.827460237E0,-7.621563673E-1,1.412518144E0,1.751421928E0
4.829890966E0,-7.975865602E-1,1.579895020E0,1.725765586E0
4.832322424E0,-8.415688276E-1,1.751548052E0,1.698887587E0
4.834753101E0,-8.910489082E-1,1.933585763E0,1.670176864E0
4.837182893E0,-9.454157352E-1,2.118066788E0,1.644520521E0
4.839613622E0,-1.007113099E0,2.312932730E0,1.616420746E0
4.842045081E0,-1.068199635E0,2.504744291E0,1.585266709E0
4.844475758E0,-1.136616468E0,2.682505846E0,1.556556106E0
4.846905601E0,-1.198313832E0,2.835222006E0,1.526012778E0
4.849336331E0,-1.260622025E0,2.973888397E0,1.493636966E0
4.851767789E0,-1.319265008E0,3.080789566E0,1.460039377E0
4.854198466E0,-1.377907991E0,3.166310787E0,1.424609303E0
4.856628258E0,-1.426166296E0,3.229229927E0,1.387346506E0
4.859058987E0,-1.478089809E0,3.265270710E0,1.348862052E0
4.861490445E0,-1.500080943E0,3.177306414E0,1.314042807E0
4.863921122E0,-1.421279430E0,2.815674305E0,1.304879785E0
4.866350966E0,-1.296052098E0,2.475422859E0,1.307934165E0
4.868781695E0,-1.222748399E0,2.429607868E0,1.296327710E0
4.871213154E0,-1.220915794E0,2.554835081E0,1.264562726E0
4.873643831E0,-1.242296100E0,2.716714382E0,1.207141399E0
4.876073622E0,-1.254513383E0,2.937236547E0,1.077027202E0
4.878504351E0,-1.168992281E0,3.247555733E0,8.620027900E-1
4.880935810E0,-9.832893610E-1,3.531607866E0,5.944440365E-1
4.883366487E0,-7.419978380E-1,3.633622169E0,3.446004093E-1
4.885796331E0,-4.958193600E-1,3.560929298E0,1.405715793E-1
4.888227060E0,-2.533060908E-1,3.385611296E0,-6.035947241E-3
4.890658518E0,-8.654001355E-2,3.085676670E0,-8.728095144E-2
4.893089195E0,-8.349336684E-3,2.651351690E0,-1.147698686E-1
4.895518987E0,-5.905874074E-3,2.169990301E0,-1.001091152E-1
4.897949716E0,-4.500121623E-2,1.703289747E0,-6.467895955E-2
4.900381174E0,-1.262462288E-1,1.403355122E0,-2.680534683E-2
4.902811851E0,-2.435322404E-1,1.286069155E0,1.905294135E-3
4.905241695E0,-3.308859169E-1,1.162063599E0,3.000507317E-2
4.907672424E0,-3.846420050E-1,1.025229931E0,4.222236574E-2
4.910103883E0,-4.066331387E-1,8.480791450E-1,3.733544797E-2
4.912534560E0,-4.084657133E-1,6.733717918E-1,1.290085912E-2
4.914964351E0,-4.035788178E-1,5.328729153E-1,-3.963350505E-2
