"Time (s)","Gyroscope x (rad/s)","Gyroscope y (rad/s)","Gyroscope z (rad/s)"
9.630650000E-2,-6.607118249E-2,-7.751268148E-2,-4.121324718E-1
1.061395000E-1,-3.858225048E-2,-2.742173709E-2,-4.548930228E-1
1.161265000E-1,1.639562100E-2,5.504507199E-2,-5.086491704E-1
1.261545000E-1,1.006950289E-1,1.216293722E-1,-5.569075346E-1
1.361775000E-1,1.935465336E-1,1.185750514E-1,-5.666813850E-1
1.462015000E-1,2.644069195E-1,1.210185140E-1,-5.281968713E-1
1.561835000E-1,2.918958366E-1,2.028744519E-1,-4.671103358E-1
1.661925000E-1,2.839545906E-1,3.586451113E-1,-4.329018891E-1
1.762315000E-1,2.625743151E-1,4.875376523E-1,-4.438974559E-1
1.861745000E-1,2.466918081E-1,4.942571819E-1,-4.750515819E-1
1.962955000E-1,2.411940247E-1,4.056817293E-1,-4.994861782E-1
2.061805000E-1,2.240898013E-1,2.694587708E-1,-4.982644618E-1
2.162725000E-1,1.685010642E-1,1.442313939E-1,-4.579473436E-1
2.262855000E-1,7.320608944E-2,9.841650724E-2,-3.773131371E-1
2.362535000E-1,-3.736051917E-2,9.108611941E-2,-3.174483478E-1
2.464215000E-1,-1.222707853E-1,6.420804560E-2,-2.966789305E-1
2.561785000E-1,-1.735834777E-1,6.719864905E-5,-2.844616175E-1
2.661755000E-1,-1.980180889E-1,-7.445836067E-2,-2.569727004E-1
2.762725000E-1,-1.955746263E-1,-1.294362396E-1,-2.209316343E-1
2.861775000E-1,-1.112752184E-1,-1.361557543E-1,-1.928318292E-1
2.961715000E-1,-5.018869042E-2,-7.384749502E-2,-2.154338509E-1
3.061525000E-1,1.211956516E-2,4.038430378E-2,-2.447553873E-1
3.164445000E-1,8.175820112E-2,2.297525257E-1,-3.033984303E-1
3.262845000E-1,1.727771163E-1,4.850942194E-1,-4.054129422E-1
3.362065000E-1,2.925066948E-1,7.306619883E-1,-5.440793633E-1
3.461505000E-1,4.378926456E-1,8.955956101E-1,-6.845783591E-1
3.561895000E-1,6.058806181E-1,9.096455574E-1,-7.707104087E-1
3.663995000E-1,7.628729939E-1,7.941920161E-1,-7.951449752E-1
3.762775000E-1,8.819916844E-1,6.640776992E-1,-7.896472216E-1
3.862995000E-1,9.968343377E-1,5.357959867E-1,-7.426105738E-1
3.962465000E-1,1.128170371E0,3.390974104E-1,-6.424286962E-1
4.062895000E-1,1.181926489E0,5.993199721E-2,-5.972246528E-1
4.164665000E-1,1.096405387E0,-1.080559492E-1,-5.825638771E-1
4.262935000E-1,8.630548716E-1,-5.246721208E-2,-5.489662886E-1
4.362295000E-1,5.301333070E-1,1.081903428E-1,-5.007079244E-1
4.462975000E-1,1.941574067E-1,2.877847552E-1,-4.518387020E-1
4.562205000E-1,-9.172752500E-2,4.227859676E-1,-4.170193672E-1
4.661525000E-1,-2.804848850E-1,4.295054674E-1,-3.815892041E-1
4.762095000E-1,-3.672277629E-1,3.586451113E-1,-3.345525861E-1
4.862235000E-1,-3.757798672E-1,2.682370543E-1,-3.015658557E-1
4.961605000E-1,-3.262997866E-1,1.564486921E-1,-2.801855505E-1
5.061275000E-1,-2.279504836E-1,5.382334068E-2,-2.710225880E-1
5.161645000E-1,-7.584502548E-2,-1.398270112E-2,-2.710225880E-1
5.265545000E-1,1.257404983E-1,-5.979759619E-2,-2.795746922E-1
5.362925000E-1,3.761952519E-1,-1.098885387E-1,-2.887376845E-1
5.461515000E-1,1.017603755E0,-1.190515161E-1,-2.661356628E-1
5.561625000E-1,1.272945404E0,-6.652317941E-3,-2.881268263E-1
5.662445000E-1,1.382290244E0,1.955440789E-1,-3.730370700E-1
5.761595000E-1,1.310208201E0,4.789855778E-1,-4.811602235E-1
5.861785000E-1,1.043260098E0,8.766587973E-1,-5.477445722E-1
5.961735000E-1,7.585968971E-1,1.056864142E0,-5.874508023E-1
6.061765000E-1,4.904270470E-1,1.022044778E0,-5.929486156E-1
6.164165000E-1,2.234789282E-1,8.241243958E-1,-5.666813850E-1
6.298535000E-1,-3.762930632E-3,4.356141388E-1,-5.459119678E-1
6.462055000E-1,-2.383351922E-1,-1.471513212E-1,-5.062057376E-1
6.562295000E-1,-2.762088478E-1,-4.525839388E-1,-4.329018891E-1
6.662025000E-1,-1.674748212E-1,-6.193501949E-1,-3.797565997E-1
6.763165000E-1,7.992560416E-2,-7.274733186E-1,-3.516567945E-1
6.861625000E-1,3.963538110E-1,-7.922250628E-1,-3.339416981E-1
6.962205000E-1,7.237775922E-1,-7.256407142E-1,-3.339416981E-1
7.062805000E-1,1.024323225E0,-5.167248249E-1,-3.699827492E-1
7.161675000E-1,1.241791248E0,-2.418354452E-1,-4.102998674E-1
7.262385000E-1,1.074414134E0,2.737348378E-1,-3.712044954E-1
7.362575000E-1,8.319007754E-1,4.062925875E-1,-3.333308399E-1
7.461775000E-1,6.235957146E-1,3.665863574E-1,-2.490314394E-1
7.561805000E-1,4.244535863E-1,2.639609873E-1,-1.244149283E-1
7.661495000E-1,2.699047029E-1,7.581448555E-2,1.486234553E-2
7.763875000E-1,1.648358703E-1,-1.899119020E-1,8.083579689E-2
7.861895000E-1,1.471207738E-1,-4.061581790E-1,3.502090275E-2
7.961745000E-1,2.283658534E-1,-4.727424979E-1,-1.696189493E-1
8.061855000E-1,3.719191849E-1,-1.679207534E-1,-9.448253363E-2
8.163175000E-1,5.582331419E-1,1.601138860E-1,1.706329882E-1
8.262005000E-1,6.400890350E-1,2.499110848E-1,4.186442792E-1
8.361535000E-1,5.881655216E-1,2.150917649E-1,5.560889244E-1
8.461605000E-1,4.281187952E-1,2.346394509E-1,5.835778713E-1
8.563185000E-1,2.173702866E-1,2.511328161E-1,5.603649616E-1
8.664695000E-1,-3.186273575E-2,1.601138860E-1,5.670844913E-1
8.766425000E-1,-2.377243340E-1,-1.178297997E-1,5.664736629E-1
8.861715000E-1,-3.116390109E-1,-4.696881771E-1,4.876720607E-1
8.961915000E-1,-3.708929420E-1,-6.352326870E-1,4.003183246E-1
9.062415000E-1,-4.319794774E-1,-5.863634348E-1,3.441187143E-1
9.162985000E-1,-4.674096704E-1,-4.996205568E-1,3.367883265E-1
9.261925000E-1,-4.802378118E-1,-5.038966537E-1,3.722185194E-1
9.361605000E-1,-5.095593333E-1,-6.022459269E-1,4.357484877E-1
9.461915000E-1,-5.553742051E-1,-8.239900470E-1,5.224913359E-1
9.562615000E-1,-5.058941245E-1,-9.229502082E-1,5.597541332E-1
9.662525000E-1,-2.933130562E-1,-6.217936277E-1,4.956133068E-1
9.762195000E-1,4.938234389E-2,-3.322434723E-1,2.628736496E-1
9.862185000E-1,3.969646692E-1,-2.320615947E-1,3.135570884E-2
9.963855000E-1,5.673961043E-1,-1.605903655E-1,-5.905234814E-2
1.006199500E0,5.948850513E-1,-2.681087144E-2,-1.158628166E-1
1.016224500E0,5.319659114E-1,5.199074373E-2,-1.714515537E-1
1.026171500E0,3.713083267E-1,6.786717102E-3,-2.459771186E-1
1.036142500E0,1.654467285E-1,-1.166080683E-1,-3.376069069E-1
1.046146500E0,-1.930335537E-3,-2.491658181E-1,-3.797565997E-1
1.056193500E0,-1.564792544E-1,-3.102523386E-1,-3.620415032E-1
1.066273500E0,-1.241033897E-1,-2.754330039E-1,-3.229461312E-1
1.076420500E0,-2.331061848E-2,-2.546636164E-1,-2.728551924E-1
1.086590500E0,1.037493572E-1,-3.157501221E-1,-2.417010516E-1
1.096336500E0,2.057638466E-1,-3.805018365E-1,-2.380358577E-1
1.106299500E0,2.998370826E-1,-4.434209466E-1,-2.496422976E-1
1.116265500E0,3.896342814E-1,-4.421992302E-1,-2.551400959E-1
1.126193500E0,4.580511749E-1,-2.888720632E-1,-2.508640289E-1
1.136258500E0,4.684358835E-1,-4.452596605E-2,-2.734660506E-1
1.146215500E0,3.597018719E-1,1.759963930E-1,-3.602088988E-1
1.156317500E0,1.165775210E-1,3.103867471E-1,-5.025405288E-1
1.166204500E0,-1.741943359E-1,3.849123120E-1,-6.809132099E-1
1.176416500E0,-4.814595878E-1,4.710443020E-1,-8.562315106E-1
1.186226500E0,-8.039963841E-1,6.408648491E-1,-9.680198431E-1
1.196229500E0,-1.105763912E0,8.064092994E-1,-9.900110364E-1
1.206172500E0,-1.349499106E0,8.644415140E-1,-9.234266877E-1
1.216566500E0,-1.519319654E0,8.974282146E-1,-7.853711247E-1
1.226181500E0,-1.590180039E0,1.019601345E0,-6.577003002E-1
1.236203500E0,-1.594456077E0,1.190032721E0,-5.782878399E-1
1.246289500E0,-1.588958263E0,1.297545075E0,-5.055948496E-1
1.256381500E0,-1.533369541E0,1.145439625E0,-4.041911960E-1
1.266632500E0,-1.370268464E0,9.084237814E-1,-3.052310348E-1
1.276193500E0,-1.252371550E0,1.027542591E0,-2.801855505E-1
1.286367500E0,-1.133252859E0,1.055031538E0,-1.830579937E-1
1.296243500E0,-9.652647972E-1,8.583328724E-1,3.196657449E-2
1.306298500E0,-7.166426778E-1,5.810000300E-1,3.331231475E-1
1.316496500E0,-3.067520857E-1,2.260873318E-1,9.781968594E-1
1.326167500E0,-2.230635583E-1,2.877847552E-1,1.198719144E0
1.336132500E0,-1.625878960E-1,5.706152916E-1,1.319670439E0
1.346132500E0,-7.462330163E-2,1.003108025E0,1.359376669E0
1.356196500E0,-2.541201189E-3,1.447206974E0,1.328833461E0
1.366200500E0,-2.541201189E-3,1.800897956E0,1.252475262E0
1.376176500E0,-5.996253341E-2,2.055628777E0,1.193221331E0
1.386322500E0,-1.277685761E-1,2.283481598E0,1.169397593E0
1.396239500E0,-1.803029925E-1,2.449636936E0,1.171230197E0
1.406225500E0,-1.845790446E-1,2.491175652E0,1.173673630E0
1.416192500E0,-6.912551075E-2,2.321355104E0,1.165121555E0
1.426190500E0,1.483425051E-1,2.044633150E0,1.099758983E0
1.436210500E0,3.511497676E-1,1.703159571E0,9.806402922E-1
1.446193500E0,5.203594565E-1,1.225462914E0,8.737388253E-1
1.456194500E0,6.895691752E-1,7.630378604E-1,8.816801310E-1
1.466206500E0,8.312898874E-1,4.673791230E-1,1.023400784E0
1.476196500E0,9.107023478E-1,3.574233651E-1,1.196275711E0
1.486257500E0,9.351369739E-1,3.671972156E-1,1.368539691E0
1.496205500E0,9.162001610E-1,4.203425050E-1,1.546912313E0
1.506142500E0,8.569462299E-1,5.125831366E-1,1.678859234E0
1.516192500E0,7.940270901E-1,6.341453195E-1,1.750330448E0
1.526217500E0,7.873075604E-1,6.371996403E-1,1.789425850E0
1.536221500E0,8.557245135E-1,5.205243826E-1,1.786982417E0
1.546189500E0,9.595716000E-1,3.720841408E-1,1.751552224E0
1.556307500E0,1.035929680E0,2.102048397E-1,1.681913614E0
1.566367500E0,1.032264471E0,-7.323662937E-2,1.531029820E0
1.576174500E0,1.031042814E0,-1.459295899E-1,1.530418992E0
1.586187500E0,1.065251231E0,-1.929662228E-1,1.571957827E0
1.596165500E0,1.164822221E0,-2.296181321E-1,1.598835945E0
1.606156500E0,1.375570774E0,-2.198442966E-1,1.543247104E0
1.616662500E0,1.570436716E0,-1.324905604E-1,1.435734868E0
1.626139500E0,1.676727295E0,-1.459356677E-2,1.306231499E0
1.636208500E0,1.644962311E0,1.491183192E-1,1.198719144E0
1.646179500E0,1.469643950E0,3.598668277E-1,1.099148154E0
1.656198500E0,1.215524077E0,5.364068747E-1,9.971336126E-1
1.666222500E0,9.760649204E-1,6.384213567E-1,9.311602116E-1
1.676146500E0,7.903619409E-1,6.500278115E-1,9.329927564E-1
1.686310500E0,6.993429661E-1,5.504567623E-1,9.916357994E-1
1.696197500E0,7.109494209E-1,3.702515364E-1,1.083265662E0
1.706515500E0,8.050226569E-1,1.356792748E-1,1.155347705E0
1.716160500E0,9.027611017E-1,-3.902817518E-2,1.173673630E0
1.726236500E0,1.017603755E0,-1.324905604E-1,1.052722335E0
1.736194500E0,1.106179237E0,-1.734185368E-1,8.706845045E-1
1.746193500E0,1.101903081E0,-1.801380515E-1,7.155247331E-1
1.756264500E0,1.022490621E0,-1.776945889E-1,5.994603634E-1
1.766274500E0,9.546846747E-1,-2.357267886E-1,5.267673731E-1
1.776319500E0,9.461325407E-1,-3.737823069E-1,4.895046651E-1
1.786138500E0,9.717888832E-1,-5.069509745E-1,5.408173203E-1
1.796195500E0,1.015771151E0,-6.407304406E-1,6.067907214E-1
1.806315500E0,1.077468514E0,-7.183103561E-1,6.361122727E-1
1.816282500E0,1.142220259E0,-6.957083344E-1,6.245058179E-1
1.826299500E0,1.235682607E0,-4.910684526E-1,3.911553323E-1
1.836149500E0,1.255841136E0,-3.707279861E-1,2.726474702E-1
1.846372500E0,1.291271329E0,-3.450716436E-1,2.928060293E-1
1.856192500E0,1.292493105E0,-4.611360431E-1,4.632374346E-1
1.866289500E0,1.235071778E0,-6.059111357E-1,6.782619953E-1
1.876216500E0,1.133668065E0,-6.761606336E-1,7.992132902E-1
1.886232500E0,1.005997300E0,-7.134234309E-1,7.295746803E-1
1.896576500E0,9.119241238E-1,-8.655288815E-1,6.593251228E-1
1.906193500E0,8.935981393E-1,-1.011525631E0,5.145500898E-1
1.916199500E0,9.510194659E-1,-9.840367436E-1,3.257927597E-1
1.926189500E0,1.043870926E0,-9.351674914E-1,4.784907401E-2
1.936386500E0,1.129392028E0,-9.846475720E-1,-2.343706787E-1
1.946147500E0,1.219189286E0,-1.049399257E0,-4.335127473E-1
1.956218500E0,1.254008532E0,-1.126368284E0,-4.719972610E-1
1.966203500E0,1.205750227E0,-1.177070141E0,-4.426757097E-1
1.976283500E0,1.077468514E0,-1.139196396E0,-4.292366803E-1
1.986237500E0,8.978741765E-1,-1.042679787E0,-4.249606431E-1
1.996294500E0,7.775337696E-1,-9.516608715E-1,-3.205026686E-1
2.006309500E0,6.669671535E-1,-9.198958874E-1,-1.946644336E-1
2.016232500E0,5.985502005E-1,-8.172705173E-1,8.124448359E-4
2.026212500E0,5.564005375E-1,-6.413413286E-1,1.388679892E-1
2.036285500E0,4.824858010E-1,-4.385340214E-1,2.219456732E-1
2.046163500E0,4.006298482E-1,-2.772656083E-1,2.408824861E-1
2.056154500E0,3.236608207E-1,-1.715859324E-1,2.378281653E-1
2.066267500E0,2.405831665E-1,-1.294362396E-1,2.408824861E-1
2.076223500E0,1.746097207E-1,-1.355448812E-1,2.378281653E-1
2.086213500E0,1.379577965E-1,-2.241203487E-1,2.085066289E-1
2.096124500E0,1.434555948E-1,-2.919263840E-1,1.266506910E-1
2.106147500E0,1.184101179E-1,-3.591215611E-1,3.379917145E-2
2.116349500E0,8.847772330E-2,-4.544165432E-1,-1.995697245E-2
2.126245500E0,1.116906032E-1,-5.472680926E-1,-6.821532547E-2
2.136241500E0,1.410121322E-1,-6.132415533E-1,-9.142820537E-2
2.146208500E0,1.575054824E-1,-6.358435154E-1,-9.936945140E-2
2.156274500E0,1.697227955E-1,-5.784221888E-1,-1.091432944E-1
2.166220500E0,1.495642364E-1,-4.684664309E-1,-1.024237797E-1
2.176434500E0,1.281839609E-1,-3.652302027E-1,-8.409782499E-2
2.186195500E0,1.177992523E-1,-2.687135041E-1,-6.210667640E-2
2.196193500E0,1.104688719E-1,-2.033509314E-1,-2.240043320E-2
2.206195500E0,9.580810368E-2,-1.612012237E-1,5.456858873E-2
2.216124500E0,8.603426069E-2,-1.178297997E-1,1.614700109E-1
2.226187500E0,8.847772330E-2,-6.773884594E-2,2.647062242E-1
2.236323500E0,7.870388031E-2,-2.681087144E-2,3.648881316E-1
2.246180500E0,5.121494085E-2,-9.706644341E-3,4.614048302E-1
2.256134500E0,3.349984810E-2,-1.092837472E-2,5.603649616E-1
2.266126500E0,1.944994740E-2,-1.948048919E-2,6.636012197E-1
2.276214500E0,-5.595527589E-3,-1.581529714E-2,7.772221565E-1
2.286212500E0,-4.163657874E-2,-7.263183594E-3,8.902322054E-1
2.296154500E0,-9.600358456E-2,3.549738228E-2,9.775859118E-1
2.306227500E0,-1.851899177E-1,8.253400028E-2,1.029509544E0
2.316110500E0,-2.792631686E-1,1.387336105E-1,1.035618186E0
2.326203500E0,-3.421822786E-1,1.772181243E-1,1.022789955E0
2.336296500E0,-3.232454658E-1,1.717203259E-1,9.342145324E-1
2.346217500E0,-2.383351922E-1,1.961549371E-1,8.560237885E-1
2.356125500E0,-1.729726046E-1,2.389155179E-1,7.564527392E-1
2.366197500E0,-1.656422317E-1,2.938933969E-1,6.116776466E-1
2.376129500E0,-1.772486717E-1,3.226040602E-1,4.229203463E-1
2.386132500E0,-1.638096273E-1,2.822869420E-1,2.243891209E-1
2.396263500E0,-9.783617407E-2,1.735529304E-1,2.585791983E-2
2.406138500E0,2.345720306E-3,1.350623369E-2,-1.580125093E-1
2.416193500E0,6.954089552E-2,-1.673098803E-1,-2.942354679E-1
2.426205500E0,7.198435813E-2,-3.444607854E-1,-3.461590111E-1
2.436171500E0,6.648657471E-2,-4.379231632E-1,-3.131722808E-1
2.446191500E0,6.282138079E-2,-4.452535510E-1,-2.581944168E-1
2.456185500E0,5.426926911E-2,-4.006603956E-1,-1.916100979E-1
2.466229500E0,3.594330698E-2,-3.298000097E-1,-1.525147259E-1
2.476169500E0,9.065238759E-3,-1.972422749E-1,-1.097541600E-1
2.486146500E0,-2.392148413E-2,-3.230866045E-2,-7.554571331E-2
2.496514500E0,-2.269975282E-2,1.136881262E-1,-5.599801987E-2
2.506160500E0,4.632801935E-2,2.010418624E-1,-4.133725539E-2
2.516148500E0,2.800206095E-2,2.578523457E-1,4.723820835E-2
2.526382500E0,-2.269975282E-2,3.714732826E-1,2.164478749E-1
2.536308500E0,-1.475850679E-2,4.319489300E-1,3.978748620E-1
2.546179500E0,1.734856516E-3,4.099577963E-1,5.799126625E-1
2.556182500E0,1.395216025E-2,4.075143337E-1,7.491223216E-1
2.566199500E0,1.211956516E-2,4.692117274E-1,8.822909594E-1
2.576242500E0,-2.514321543E-2,4.967006743E-1,8.975626230E-1
2.586106500E0,-7.462330163E-2,4.551618099E-1,8.199827075E-1
2.596147500E0,-1.473162770E-1,2.993911803E-1,6.214514971E-1
2.606147500E0,-1.167730018E-1,1.888245493E-1,4.943915904E-1
2.616215500E0,-6.668204814E-2,2.511267364E-2,3.129645884E-1
2.626683500E0,1.123990864E-3,-1.410426795E-1,7.228367776E-2
2.636265500E0,9.031032026E-2,-2.931481004E-1,-1.586233824E-1
2.646234500E0,2.014877796E-1,-4.159320295E-1,-3.321091235E-1
2.656283500E0,2.815111279E-1,-4.996205568E-1,-4.506169558E-1
2.666206500E0,3.083892167E-1,-5.491006970E-1,-5.233099461E-1
2.676173500E0,3.114435375E-1,-5.539876223E-1,-5.294185877E-1
2.686224500E0,3.090000749E-1,-5.374942422E-1,-4.500060976E-1
2.696328500E0,2.809002697E-1,-5.350507498E-1,-3.088962436E-1
2.706268500E0,2.118724883E-1,-4.421992302E-1,-1.653428972E-1
2.716155500E0,1.318491548E-1,-2.522201538E-1,-5.721975118E-2
2.726417500E0,4.999320954E-2,-1.013364345E-1,-1.995697245E-2
2.736372500E0,-9.774044156E-5,-3.291952237E-2,-4.439157993E-2
2.746225500E0,-1.903456263E-2,1.839315519E-2,-9.875858575E-2
2.756216500E0,-1.414764114E-2,5.382334068E-2,-1.085324287E-1
2.766228500E0,9.676103480E-3,6.176458672E-2,-6.943705678E-2
2.776579500E0,2.739119530E-2,1.063577533E-1,-5.296206102E-3
2.786227500E0,1.334129553E-2,2.389155179E-1,6.739675999E-2
2.796342500E0,1.517389156E-2,3.836905956E-1,1.272615492E-1
2.806206500E0,3.716503829E-2,4.881485403E-1,1.180985719E-1
2.816248500E0,-9.260719642E-3,6.060454845E-1,1.028269380E-1
2.826281500E0,-1.448728144E-1,6.891231537E-1,9.671828896E-2
2.836361500E0,-2.389460504E-1,7.874724865E-1,2.891224809E-2
2.846195500E0,-2.248961627E-1,9.169759154E-1,1.364245266E-1
2.856488500E0,-7.034724206E-2,6.891231537E-1,2.060631663E-1
2.866277500E0,3.533244506E-2,3.702515364E-1,1.846828908E-1
2.876294500E0,1.068036780E-1,-1.092837472E-2,1.327593476E-1
2.886253500E0,1.972117275E-1,-2.943698466E-1,1.974926703E-2
2.896356500E0,2.888415158E-1,-3.945517242E-1,-2.423303016E-2
2.906340500E0,3.096109331E-1,-3.768366575E-1,-4.194812104E-2
2.916291500E0,1.923248023E-1,-2.674917877E-1,-9.448253363E-2
2.926353500E0,-1.930335537E-3,-5.491067469E-2,-1.293018460E-1
2.936177500E0,-1.155512705E-1,1.417879313E-1,-8.959560841E-2
2.946232500E0,-7.095810771E-2,1.863811016E-1,-1.934610680E-2
2.956492500E0,8.725599200E-2,1.949332058E-1,9.916175157E-2
2.966304500E0,2.943392992E-1,2.224221379E-1,1.981219202E-1
2.976346500E0,4.653815627E-1,3.091650307E-1,2.091175020E-1
2.986349500E0,5.576222539E-1,3.952970207E-1,1.767416447E-1
2.996294500E0,5.948850513E-1,4.490531683E-1,8.511184901E-2
3.006722500E0,7.048407793E-1,5.040310025E-1,-8.959560841E-2
3.016328500E0,7.427144051E-1,4.985332787E-1,-2.746877670E-1
3.026246500E0,6.199305058E-1,4.453879893E-1,-3.369960189E-1
3.036369500E0,3.926886022E-1,3.421517611E-1,-2.679682672E-1
3.046330500E0,2.699047029E-1,1.955440789E-1,-1.274692565E-1
3.056301500E0,3.309912086E-1,8.436660469E-2,-5.296206102E-3
3.066351500E0,5.203594565E-1,6.719864905E-5,4.723820835E-2
3.076157500E0,7.268319130E-1,-7.690182328E-2,6.921097636E-3
3.086236500E0,8.380094171E-1,-8.056701720E-2,-8.043263108E-2
3.096180500E0,9.070371985E-1,-7.323662937E-2,-1.610668451E-1
3.107566500E0,8.551136255E-1,-1.153924037E-2,-2.368141264E-1
3.116470500E0,7.323297262E-1,-1.642616093E-2,-2.453662455E-1
3.126219500E0,5.710613132E-1,-1.398270112E-2,-2.392575890E-1
3.136242500E0,5.087530017E-1,5.015814677E-2,-2.148229778E-1
3.146236500E0,6.071023345E-1,2.383046299E-1,-1.781710684E-1
3.156515500E0,8.636657596E-1,5.559545755E-1,-1.775602102E-1
3.166419500E0,1.059142590E0,8.839892149E-1,-3.040093184E-1
3.176217500E0,1.081744552E0,1.163765550E0,-5.471336842E-1
3.186209500E0,9.247522950E-1,1.310984015E0,-8.348512650E-1
3.196244500E0,6.376456022E-1,1.379400969E0,-1.051097512E0
3.206376500E0,3.670322597E-1,1.279829979E0,-1.143949032E0
3.216169500E0,1.373469383E-1,1.029986024E0,-1.057206154E0
3.226369500E0,6.159964949E-2,6.738515496E-1,-8.061405420E-1
3.236557500E0,1.611706764E-1,2.749565840E-1,-5.507988930E-1
3.246171500E0,3.487063050E-1,-1.196623892E-1,-4.072455466E-1
3.256256500E0,5.429614782E-1,-4.134885669E-1,-3.883087039E-1
3.266251500E0,7.011755705E-1,-6.101871729E-1,-4.903232157E-1
3.276446500E0,8.050226569E-1,-7.341928482E-1,-6.937413812E-1
3.286216500E0,8.764939308E-1,-7.598491907E-1,-8.977703452E-1
3.296217500E0,9.216979146E-1,-6.999843717E-1,-9.967305064E-1
3.307095500E0,9.107023478E-1,-5.772004724E-1,-9.417526722E-1
3.316232500E0,8.056335449E-1,-4.507513344E-1,-6.595329046E-1
3.326198500E0,6.119892597E-1,-3.554563522E-1,-3.046201766E-1
3.336210500E0,3.713083267E-1,-2.033509314E-1,-4.316985235E-2
3.346277500E0,1.966008693E-1,4.954122007E-3,7.289454341E-2
3.356409500E0,8.542339504E-2,4.551618099E-1,-1.018312853E-2
3.366216500E0,4.266282916E-2,5.614523292E-1,-4.561331123E-2
3.376153500E0,3.567451611E-3,6.182628274E-1,-7.432398200E-2
3.386262500E0,-2.514321543E-2,6.640776992E-1,-9.509339929E-2
3.396315500E0,-5.263214558E-2,6.726298332E-1,-1.036455110E-1
3.406912500E0,-9.356012195E-2,6.036020517E-1,-1.042563766E-1
3.416235500E0,-1.149403974E-1,4.441662431E-1,-5.844148248E-2
3.426216500E0,-5.751907080E-2,2.450241596E-1,3.990782052E-2
3.436310500E0,5.610186607E-2,6.176458672E-2,1.297050118E-1
3.446168500E0,1.281839609E-1,-6.468451768E-2,1.688003838E-1
3.456316500E0,1.532294303E-1,-1.080559492E-1,2.408824861E-1
3.466329500E0,1.715553850E-1,-1.123320013E-1,3.752728403E-1
3.476242500E0,1.501751095E-1,-1.538708508E-1,4.724004269E-1
3.486141500E0,4.510628805E-2,-1.355448812E-1,5.273782611E-1
3.496205500E0,-7.086060941E-4,-1.941879541E-1,7.240768671E-1
3.506172500E0,-3.430619091E-2,-2.009074688E-1,8.871778846E-1
3.516128500E0,-5.507560819E-2,-1.874684393E-1,1.093650341E0
3.526153500E0,-1.858007759E-1,1.711094677E-1,1.082654715E0
3.536201500E0,-4.069339931E-1,7.050056458E-1,8.774040341E-1
3.546127500E0,-6.543343663E-1,1.249897480E0,6.086233258E-1
3.556235500E0,-8.876849413E-1,1.682390094E0,4.235312045E-1
3.566171500E0,-1.034292579E0,1.948116541E0,2.976929545E-1
3.576206500E0,-1.039790392E0,1.993320465E0,1.150442511E-1
3.586169500E0,-9.249476790E-1,1.871147513E0,-2.252076864E-1
3.596183500E0,-7.832269669E-1,1.615805864E0,-6.118854284E-1
3.606224500E0,-6.292889118E-1,1.196752310E0,-8.030862212E-1
3.616171500E0,-1.204381958E-1,8.070201874E-1,-1.321710825E0
3.626172500E0,1.898813397E-1,1.130772680E-1,-1.581328511E0
3.636190500E0,4.476664662E-1,-2.448897660E-1,-1.702279925E0
3.646138500E0,5.618982911E-1,-3.933300078E-1,-1.533070207E0
3.656301500E0,5.203594565E-1,-2.314507365E-1,-1.144559860E0
3.666174500E0,3.389324546E-1,5.564987659E-3,-8.128600717E-1
3.676152500E0,1.330708861E-1,2.566305995E-1,-7.700995207E-1
3.686175500E0,5.131252110E-4,5.559545755E-1,-8.959377408E-1
3.696174500E0,-6.546031684E-2,8.180157542E-1,-9.710741639E-1
3.706251500E0,-7.828848809E-2,7.941920161E-1,-9.729067683E-1
3.716228500E0,1.273042988E-2,5.089179277E-1,-9.063224792E-1
3.726155500E0,2.308093160E-1,3.421517611E-1,-7.682669163E-1
3.736109500E0,4.757662714E-1,3.103867471E-1,-6.332657337E-1
3.746223500E0,7.042298913E-1,2.425806969E-1,-5.746226311E-1
3.756192500E0,8.783265352E-1,1.472857147E-1,-5.202556252E-1
3.766177500E0,8.679417968E-1,7.031670213E-2,-4.084672630E-1
3.776138500E0,8.319007754E-1,-9.950383008E-2,-2.991223931E-1
3.786251500E0,8.600005507E-1,-2.894829214E-1,-1.818362623E-1
3.796130500E0,9.840061665E-1,-3.194153011E-1,-3.339600936E-2
3.806281500E0,1.082966328E0,-1.984640062E-1,1.028269380E-1
3.816111500E0,1.075635910E0,-2.314567938E-2,1.950675994E-1
3.826256500E0,9.009284973E-1,1.912680119E-1,2.738692164E-1
3.836238500E0,6.223739982E-1,2.804543674E-1,3.312905431E-1
3.846127500E0,3.554258347E-1,2.517437041E-1,3.551142812E-1
3.856174500E0,1.513968408E-1,2.883956134E-1,3.166297674E-1
3.866216500E0,2.189340815E-2,4.496640265E-1,2.640953660E-1
3.876243500E0,-3.613878787E-2,8.204591870E-1,3.398426473E-1
3.886196500E0,-4.713436216E-2,8.827674389E-1,4.168116748E-1
3.896175500E0,-6.790377945E-2,8.448938131E-1,5.738040209E-1
3.906200500E0,-2.697581239E-2,7.624270320E-1,7.668374181E-1
3.916199500E0,1.068036780E-1,6.555255651E-1,8.792366385E-1
3.926211500E0,2.601308525E-1,5.962716341E-1,9.470427036E-1
3.936240500E0,4.366708994E-1,5.742805004E-1,9.226080775E-1
3.946105500E0,5.252463818E-1,5.889412761E-1,8.108197451E-1
3.956690500E0,5.832785964E-1,7.086708546E-1,6.428318024E-1
3.966225500E0,5.875546336E-1,6.439191699E-1,4.656808972E-1
3.976276500E0,4.934813678E-1,4.233968258E-1,2.317195237E-1
3.986203500E0,3.560366929E-1,3.244366646E-1,8.144666255E-2
3.996253500E0,2.509678900E-1,2.547980249E-1,-1.323561817E-1
4.006148500E0,1.947682649E-1,2.040961832E-1,-1.250257939E-1
4.016124500E0,1.416229904E-1,2.297525257E-1,2.341446094E-2
4.026137500E0,1.428447217E-1,2.034853250E-1,1.700221151E-1
4.036242500E0,1.165775210E-1,1.711094677E-1,1.584156752E-1
4.046174500E0,1.068036780E-1,5.137987807E-2,2.140044123E-1
4.056176500E0,1.513968408E-1,-1.447078586E-1,3.435078561E-1
4.066191500E0,2.454700768E-1,-2.784873545E-1,4.510201216E-1
4.076142500E0,3.706974685E-1,-3.444607854E-1,4.846177399E-1
4.086175500E0,4.684358835E-1,-4.287602007E-1,4.149790704E-1
4.096123500E0,5.246355534E-1,-4.531947970E-1,2.934168875E-1
4.106172500E0,5.716721416E-1,-3.218587637E-1,1.975110620E-1
4.116243500E0,5.276898742E-1,-2.314567938E-2,1.590265483E-1
4.126315500E0,4.189558029E-1,1.454531252E-1,1.211529076E-1
4.136211500E0,1.898813397E-1,3.916257247E-2,1.144333780E-1
4.146135500E0,1.440664530E-1,-1.886962354E-2,1.779633760E-1
4.156192500E0,1.349034756E-1,-2.436741069E-2,1.920132637E-1
4.166173500E0,1.220753118E-1,-2.925433218E-2,2.207239419E-1
4.176277500E0,4.999320954E-2,2.144748345E-2,2.824213207E-1
4.186181500E0,-7.951021940E-2,5.809940025E-2,3.343448639E-1
4.196143500E0,-1.693074256E-1,1.173533201E-1,3.612229526E-1
4.206141500E0,-2.670458555E-1,1.014708281E-1,3.929879367E-1
4.216182500E0,-3.873863220E-1,7.337102294E-2,4.076487124E-1
4.226136500E0,-4.698531330E-1,9.963823855E-2,3.954313993E-1
4.236283500E0,-5.260527134E-1,6.237545237E-2,3.606120646E-1
4.246147500E0,-6.017999649E-1,-8.789739013E-2,2.683714330E-1
4.256137500E0,-6.922080517E-1,-2.632157207E-1,2.243891209E-1
4.266169500E0,-7.984985709E-1,-5.087835789E-1,2.152261436E-1
4.276163500E0,-8.675263524E-1,-6.107980609E-1,2.647062242E-1
4.286176500E0,-8.913500905E-1,-5.900286436E-1,3.410643935E-1
4.296170500E0,-9.029565454E-1,-6.547803879E-1,4.516310096E-1
4.308659500E0,-7.917791009E-1,-5.075618029E-1,6.153428555E-1
4.326138500E0,-3.317975700E-1,-1.685316116E-1,5.121066570E-1
4.336245500E0,-2.120679915E-1,-4.758028686E-2,5.102740526E-1
4.346134500E0,-1.289903075E-1,-2.253481373E-2,4.186442792E-1
4.356156500E0,-1.659110002E-2,-5.857586488E-2,3.031907380E-1
4.366124500E0,1.281839609E-1,-1.129428744E-1,2.561541200E-1
4.376274500E0,2.931175828E-1,-2.149573714E-1,2.946386337E-1
4.386204500E0,4.519425333E-1,-2.112921774E-1,4.192551374E-1
4.396182500E0,5.044769645E-1,-2.015183419E-1,5.011110306E-1
4.406154500E0,5.655634999E-1,-2.314507365E-1,5.707497001E-1
4.416239500E0,6.645236611E-1,-3.224696517E-1,6.471078396E-1
4.426165500E0,8.099095821E-1,-4.342579842E-1,7.045291662E-1
4.436102500E0,9.198653698E-1,-4.525839388E-1,7.057508826E-1
4.446197500E0,9.241414070E-1,-2.235094905E-1,7.479006052E-1
4.456168500E0,8.502267003E-1,4.343863204E-2,7.601178885E-1
4.466106500E0,6.956778169E-1,1.961549371E-1,7.100269794E-1
4.476165500E0,4.940922260E-1,1.228511035E-1,6.177862883E-1
4.486175500E0,3.090000749E-1,-1.318796873E-1,5.359303951E-1
4.496259500E0,2.130942196E-1,-3.377412558E-1,5.176044106E-1
4.506175500E0,2.350853682E-1,-3.377412558E-1,5.566998124E-1
4.516120500E0,3.206064999E-1,-2.833742499E-1,6.067907214E-1
4.526174500E0,4.293405116E-1,-2.418354452E-1,6.037364006E-1
4.536186500E0,5.026443601E-1,-2.216768861E-1,5.664736629E-1
4.546187500E0,5.631200671E-1,-1.434861273E-1,5.255456567E-1
4.556207500E0,6.126001477E-1,5.199074373E-2,5.102740526E-1
4.566286500E0,6.535280943E-1,2.847304046E-1,5.139392018E-1
4.576174500E0,7.280536294E-1,4.533292353E-1,4.907263815E-1
4.586213500E0,7.952488065E-1,4.148447216E-1,4.412463009E-1
4.596131500E0,7.964705825E-1,2.493002266E-1,3.410643935E-1
4.606202500E0,7.072842121E-1,6.909497082E-2,2.201130688E-1
4.616309500E0,6.736866236E-1,3.427565470E-2,1.962893307E-1
4.626181500E0,6.736866236E-1,1.222402453E-1,1.877372116E-1
4.636135500E0,5.863329172E-1,1.759963930E-1,1.126007885E-1
4.646194500E0,1.923248023E-1,9.352958202E-2,-8.348695934E-2
4.656230500E0,-1.930335537E-3,5.382334068E-2,-1.231931970E-1
4.666189500E0,-1.277685761E-1,1.106277481E-2,-1.470169425E-1
4.676157500E0,-1.699182838E-1,-4.941288382E-2,-1.293018460E-1
4.686219500E0,-1.625878960E-1,-1.202732474E-1,-7.371311635E-2
4.696658500E0,-1.448728144E-1,-1.031690240E-1,3.074484132E-2
4.706185500E0,-1.454836726E-1,-9.706036747E-2,1.382571310E-1
4.716132500E0,-1.906877011E-1,-1.074450910E-1,2.152261436E-1
4.726188500E0,-2.670458555E-1,-1.001147032E-1,2.653171122E-1
4.736148500E0,-3.660060167E-1,-1.086668074E-1,2.793669999E-1
4.746316500E0,-4.826813042E-1,-1.355448812E-1,2.549324036E-1
4.756218500E0,-6.030217409E-1,-1.831923723E-1,2.396607697E-1
4.766181500E0,-6.702169180E-1,-2.400028408E-1,2.610410452E-1
4.776250500E0,-5.956913233E-1,-3.426281810E-1,2.903625667E-1
4.786154500E0,-4.252599478E-1,-2.528310120E-1,2.665388286E-1
4.796217500E0,-2.664349973E-1,-1.642616093E-2,2.097283602E-1
4.806272500E0,-2.004615515E-1,2.541871667E-1,1.394788623E-1
4.816211500E0,-2.157331705E-1,5.571762919E-1,5.334685743E-2
4.826185500E0,-2.743762434E-1,7.624270320E-1,-5.721975118E-2
4.836146500E0,-3.556213081E-1,7.337163687E-1,-1.751167476E-1
4.846400500E0,-4.118209183E-1,4.686008394E-1,-2.991223931E-1
4.856429500E0,-3.495126665E-1,9.536217153E-2,-3.663175702E-1
4.866159500E0,-7.645589113E-2,-1.404318064E-1,-3.363851607E-1
4.876258500E0,3.413759172E-1,-1.569251716E-1,-2.392575890E-1
4.886233500E0,7.042298913E-1,-1.660881490E-1,-1.219714656E-1
4.896426500E0,9.980561137E-1,-3.261348307E-1,6.921097636E-3
4.906266500E0,1.035929680E0,-4.134885669E-1,1.974926703E-2
4.916190500E0,1.016992927E0,-3.585107028E-1,4.968166351E-2
4.926338500E0,9.149784446E-1,-2.418354452E-1,1.107681990E-1
4.936271500E0,7.543208599E-1,-2.772656083E-1,2.195022106E-1
4.946409500E0,5.637308955E-1,-3.304108977E-1,3.380100727E-1
4.956242500E0,3.896342814E-1,-3.927191496E-1,4.137573540E-1
4.966205500E0,2.436374873E-1,-4.855706692E-1,3.966531157E-1
4.976246500E0,1.477316469E-1,-3.273565471E-1,3.007472754E-1
4.986184500E0,1.611706764E-1,2.022575215E-2,1.523070335E-1
4.996184500E0,1.471207738E-1,7.397582754E-3,-4.011552781E-2
5.006184500E0,1.092471406E-1,-1.062233597E-1,-1.506821364E-1
5.016177500E0,1.061928123E-1,-4.269336909E-2,-1.213606000E-1
5.026257500E0,8.603426069E-2,7.276016474E-2,-4.561331123E-2
5.036206500E0,4.693888128E-2,5.015814677E-2,-3.889379650E-2
5.046131500E0,4.693888128E-2,-6.407365203E-2,-8.409782499E-2
5.056437500E0,7.198435813E-2,-8.850826323E-2,-9.998031706E-2
5.066140500E0,5.060407519E-2,3.977343813E-2,-1.128084883E-1
5.076171500E0,-2.697581239E-2,8.436660469E-2,-9.936945140E-2
5.086224500E0,-1.405967474E-1,1.185750514E-1,-8.165436238E-2
5.096177500E0,-1.998506784E-1,1.149098575E-1,-6.760445982E-2
5.106187500E0,-1.870225072E-1,7.214929163E-2,-7.554571331E-2
5.116142500E0,-1.173838601E-1,5.932113156E-2,-9.448253363E-2
5.126162500E0,-4.346916825E-2,9.719477594E-2,-7.737830281E-2
5.136228500E0,-1.781283133E-2,6.665150821E-2,-1.079399418E-2
5.146233500E0,-3.736051917E-2,1.350623369E-2,6.739675999E-2
5.156288500E0,-5.629733950E-2,-6.163018942E-2,8.389011770E-2
5.166164500E0,1.761735231E-2,-6.590624154E-2,4.112955183E-2
5.176165500E0,1.037493572E-1,2.694527060E-2,2.830138244E-2
5.186139500E0,1.794966310E-1,-1.092837472E-2,6.922935694E-2
5.196166500E0,2.815111279E-1,-1.331014186E-1,1.278724223E-1
5.206157500E0,4.055167735E-1,-2.784873545E-1,1.969001889E-1
5.216239500E0,5.521244407E-1,-3.371303976E-1,2.011762410E-1
5.226118500E0,6.382564902E-1,-3.316326141E-1,1.474201083E-1
5.236166500E0,5.661743879E-1,-2.803199291E-1,7.594887167E-2
5.246241500E0,3.884125650E-1,-2.503875494E-1,1.486234553E-2
5.256227500E0,1.856052876E-1,-2.253420800E-1,-4.988937080E-2
5.266157500E0,2.067167871E-2,-1.098885387E-1,-9.203907102E-2
5.276164500E0,-1.265468448E-1,-1.862467080E-1,-7.982176542E-2
5.286235500E0,-2.090136558E-1,-2.247312218E-1,-7.554571331E-2
5.296134500E0,-2.071810663E-1,-1.691424698E-1,-4.194812104E-2
5.306136500E0,-2.108462602E-1,-1.679207534E-1,6.310233846E-3
5.316235500E0,-2.719327807E-1,-1.550925821E-1,5.273599178E-2
5.326166500E0,-3.812776506E-1,-1.416535378E-1,1.009943485E-1
5.336183500E0,-5.040615201E-1,-1.947988123E-1,1.394788623E-1
5.346151500E0,-6.182933450E-1,-3.340760767E-1,1.639134735E-1
5.356225500E0,-6.806015968E-1,-3.976060748E-1,1.804068238E-1
5.366194500E0,-6.641082168E-1,-3.371303976E-1,1.663569361E-1
5.376326500E0,-5.956913233E-1,-2.534418702E-1,1.364245266E-1
5.386227500E0,-4.826813042E-1,-1.764728576E-1,1.095464677E-1
5.396254500E0,-3.537887335E-1,-1.092776805E-1,8.877704293E-2
5.406151500E0,-2.890370190E-1,-8.423220366E-2,7.045108825E-2
5.416306500E0,-2.084027976E-1,-1.459295899E-1,8.999877423E-2
5.426158500E0,-1.198273227E-1,-1.538708508E-1,1.248180866E-1
5.436332500E0,3.567451611E-3,-1.104994118E-1,1.425331831E-1
5.446269500E0,1.269622296E-1,-4.452596605E-2,1.077138633E-1
5.456240500E0,2.020986527E-1,4.710382596E-2,3.318830580E-2
5.466194500E0,2.295875847E-1,1.142989993E-1,-3.217427805E-2
5.476232500E0,2.350853682E-1,1.197967827E-1,-6.882619113E-2
5.486352500E0,2.161485553E-1,6.848411262E-2,-7.737830281E-2
5.496321500E0,1.788857728E-1,2.328008041E-2,-7.371311635E-2
5.506198500E0,1.391795278E-1,1.656056195E-2,-6.332840770E-2
5.516229500E0,9.886243194E-2,-2.742173709E-2,-4.255898669E-2
5.526180500E0,6.343224645E-2,-2.436741069E-2,-2.240043320E-2
5.536374500E0,2.800206095E-2,-1.337183546E-2,-3.034168109E-2
5.546212500E0,-1.842369698E-2,-2.497827634E-2,-5.599801987E-2
5.556240500E0,-6.607118249E-2,-4.208250344E-2,-7.065878808E-2
5.566213500E0,-1.106643453E-1,-6.712797284E-2,-7.615657151E-2
5.576159500E0,-1.399858892E-1,-6.651711464E-2,-8.531955630E-2
5.586432500E0,-1.405967474E-1,-1.153924037E-2,-9.936945140E-2
5.596228500E0,-1.198273227E-1,2.083661780E-2,-1.280801296E-1
5.606145500E0,-4.591263086E-2,2.572353929E-2,-2.117686570E-1
5.616297500E0,4.938234389E-2,9.658390284E-2,-2.893485427E-1
5.626179500E0,1.110797375E-1,1.503400505E-1,-3.406612277E-1
5.636527500E0,1.452881843E-1,1.503400505E-1,-3.858652413E-1
5.646159500E0,1.911030710E-1,1.356792748E-1,-4.182411134E-1
5.656182500E0,2.625743151E-1,1.497291774E-1,-4.316801429E-1
5.666208500E0,3.407650590E-1,1.839376390E-1,-4.390105307E-1
5.676226500E0,4.879835844E-1,2.077613771E-1,-4.414539933E-1
5.686452500E0,5.447940826E-1,2.022635937E-1,-4.432865977E-1
5.696423500E0,5.985502005E-1,1.888245493E-1,-4.432865977E-1
5.706228500E0,6.333695650E-1,1.753855199E-1,-4.353453517E-1
5.716133500E0,6.333695650E-1,1.570595652E-1,-3.876978457E-1
5.726210500E0,5.808351040E-1,1.295706332E-1,-3.052310348E-1
5.736213500E0,4.794314802E-1,9.475131333E-2,-1.958861649E-1
5.746186500E0,3.450411260E-1,7.214929163E-2,-8.531955630E-2
5.756217500E0,2.045421153E-1,5.504507199E-2,2.645041794E-3
5.766154500E0,8.725599200E-2,3.366478905E-2,4.112955183E-2
5.776200500E0,-2.541201189E-3,5.932113156E-2,4.418388009E-2
5.786239500E0,2.555860020E-2,5.260160938E-2,1.559722126E-1
5.796388500E0,1.941574067E-1,-7.323662937E-2,3.172406554E-1
5.806251500E0,2.674612403E-1,-3.536298499E-2,4.986676276E-1
5.816198500E0,2.473026812E-1,7.337102294E-2,5.542563200E-1
5.826182500E0,1.709445268E-1,7.520362735E-2,3.496164978E-1
5.836245500E0,2.983465791E-2,-5.491067469E-2,4.601647705E-2
5.846195500E0,-6.179513037E-2,2.938872948E-2,-1.158628166E-1
5.856266500E0,-1.106643453E-1,2.450180799E-2,-1.158628166E-1
5.866163500E0,-1.583118439E-1,-1.508165151E-1,-9.387166798E-2
5.876223500E0,-2.077919245E-1,-2.247312218E-1,-6.699359417E-2
5.886192500E0,-2.572720051E-1,-1.343231499E-1,-4.255898669E-2
5.896179500E0,-2.872044146E-1,-4.269336909E-2,-2.362216450E-2
5.906189500E0,-3.525669873E-1,-5.429980904E-2,-1.690264605E-2
5.916136500E0,-4.674096704E-1,-1.172189265E-1,-3.339600936E-2
5.926287500E0,-5.743110180E-1,-1.813597828E-1,-1.574016511E-1
5.936260500E0,-5.590394139E-1,-1.434861273E-1,-2.478097081E-1
5.946158500E0,-5.517090559E-1,-1.440970004E-1,-2.429227829E-1
5.956177500E0,-4.979529083E-1,-1.813597828E-1,-1.604559720E-1
5.966228500E0,-3.886080384E-1,-1.630338281E-1,-5.416542664E-2
5.976236500E0,-3.189693987E-1,-1.673098803E-1,4.479474574E-2
5.986217500E0,-2.939239144E-1,-2.180116922E-1,1.235963553E-1
5.996428500E0,-2.762088478E-1,-2.393919826E-1,1.914024055E-1
6.006241500E0,-2.615480721E-1,-2.760438919E-1,2.256108522E-1
6.016123500E0,-2.694893181E-1,-3.377412558E-1,2.072848976E-1
6.026137500E0,-2.682676017E-1,-4.018821120E-1,1.504744291E-1
6.036220500E0,-2.591046095E-1,-3.230805099E-1,6.739675999E-2
6.046346500E0,-2.804848850E-1,-2.039617896E-1,1.423310488E-3
6.056172500E0,-3.208020031E-1,-1.037798971E-1,-7.432398200E-2
6.066162500E0,-4.112100601E-1,-1.166080683E-1,-1.274692565E-1
6.076316500E0,-5.187222958E-1,-2.326724678E-1,-2.044382691E-1
6.086287500E0,-6.195150614E-1,-4.324253798E-1,-2.606378794E-1
6.096169500E0,-6.579995751E-1,-5.503224134E-1,-2.655248046E-1
6.106155500E0,-6.366193295E-1,-5.118378997E-1,-2.276511490E-1
6.116218500E0,-5.828631520E-1,-3.591215611E-1,-1.586233824E-1
6.126206500E0,-5.175005794E-1,-2.571070790E-1,-8.654128015E-2
6.136168500E0,-4.722965658E-1,-2.955915630E-1,-6.882619113E-2
6.146176500E0,-4.600792825E-1,-3.890539408E-1,-8.287609369E-2
6.156213500E0,-4.716857076E-1,-5.045074821E-1,-9.203907102E-2
6.166318500E0,-4.826813042E-1,-6.230153441E-1,-1.409082860E-1
6.176175500E0,-4.686313868E-1,-6.382870078E-1,-1.909992397E-1
6.186216500E0,-3.879971802E-1,-4.495296180E-1,-3.027875721E-1
6.196374500E0,-3.812776506E-1,-3.713388443E-1,-3.253895938E-1
6.206159500E0,-3.947166800E-1,-3.866104782E-1,-3.186700642E-1
6.216198500E0,-4.044905305E-1,-3.756149113E-1,-2.771312296E-1
6.226291500E0,-3.922732472E-1,-2.974241674E-1,-2.081034631E-1
6.236215500E0,-3.794450760E-1,-2.711569667E-1,-1.494604051E-1
6.246223500E0,-3.708929420E-1,-2.919263840E-1,-1.225823313E-1
6.256280500E0,-3.372953534E-1,-2.601613998E-1,-8.531955630E-2
6.266213500E0,-2.823174894E-1,-1.960205436E-1,-7.982176542E-2
6.276385500E0,-2.383351922E-1,-2.271746695E-1,-1.066998392E-1
6.286186500E0,-1.858007759E-1,-2.400028408E-1,-1.268583983E-1
6.296255500E0,-1.405967474E-1,-2.228986174E-1,-1.439626217E-1
6.306165500E0,-7.523415983E-2,-1.862467080E-1,-1.103650257E-1
6.316303500E0,-1.659110002E-2,-2.137356400E-1,-8.104349673E-2
6.326177500E0,-4.984661937E-3,-2.577179372E-1,-5.477628857E-2
6.336193500E0,-3.369532526E-2,-4.324253798E-1,-5.172196776E-2
6.346219500E0,-1.069991514E-1,-5.429919958E-1,-1.176954135E-1
6.356151500E0,-1.735834777E-1,-4.202080667E-1,-2.056600004E-1
6.366321500E0,-1.748052090E-1,-2.790982127E-1,-2.258185595E-1
6.376235500E0,-1.289903075E-1,-1.276036352E-1,-2.197099030E-1
6.386213500E0,-7.462330163E-2,-1.703702658E-2,-2.221533656E-1
6.396212500E0,-1.720196567E-2,-2.314567938E-2,-2.001622170E-1
6.406203500E0,2.678032964E-2,-4.880201817E-2,-1.751167476E-1
6.416283500E0,4.999320954E-2,9.841043502E-3,-1.347996444E-1
6.426196500E0,8.664512634E-2,1.075794846E-1,-9.081733972E-2
6.436221500E0,1.666684598E-1,9.841650724E-2,-4.805677384E-2
6.446195500E0,1.813292354E-1,-7.140403241E-2,-8.165436238E-2
6.456163500E0,1.513968408E-1,-1.239384413E-1,-1.470169425E-1
6.466204500E0,1.287948191E-1,-1.679207534E-1,-1.757276058E-1
6.476197500E0,1.275730878E-1,-2.442789078E-1,-1.958861649E-1
6.486212500E0,1.275730878E-1,-2.894829214E-1,-2.074926049E-1
6.496281500E0,1.318491548E-1,-3.084197342E-1,-2.276511490E-1
6.506161500E0,1.043602154E-1,-3.304108977E-1,-2.355923951E-1
6.516283500E0,7.748214900E-2,-2.723786831E-1,-2.691899836E-1
6.526204500E0,5.854532123E-2,-2.045726627E-1,-2.514749169E-1
6.536479500E0,3.899763525E-2,-2.955915630E-1,-1.885557771E-1
6.546230500E0,5.854532123E-2,-3.371303976E-1,-1.036455110E-1
6.556140500E0,1.452881843E-1,-3.255239725E-1,-2.852745354E-3
6.566208500E0,2.100398988E-1,-3.811126947E-1,7.533800602E-2
6.576431500E0,2.173702866E-1,-4.128777087E-1,1.290941536E-1
6.586154500E0,2.179811448E-1,-3.554563522E-1,1.419223249E-1
6.596180500E0,2.008769214E-1,-2.277855426E-1,9.916175157E-2
6.606279500E0,1.654467285E-1,-5.430588499E-3,8.022493124E-2
6.616322500E0,1.483425051E-1,1.821050346E-1,6.861849129E-2
6.626416500E0,2.179811448E-1,2.486893386E-1,9.427483380E-2
6.636216500E0,3.065566123E-1,1.973766685E-1,1.559722126E-1
6.646222500E0,3.028914034E-1,4.099516943E-2,1.009943485E-1
6.656240500E0,2.381397039E-1,-8.728653193E-2,-4.255898669E-2
6.666191500E0,1.587272137E-1,-1.495947838E-1,-1.830579937E-1
6.676149500E0,6.709744036E-2,-1.697533429E-1,-3.107288182E-1
6.686193500E0,-1.353677548E-2,-1.819706410E-1,-3.498241901E-1
6.696292500E0,-1.204381958E-1,-2.070161253E-1,-4.958209991E-1
6.706159500E0,-2.010724097E-1,-2.235094905E-1,-5.220882297E-1
6.716148500E0,-2.554394305E-1,-2.100704461E-1,-4.567256272E-1
6.726179500E0,-2.707110345E-1,-2.387811095E-1,-3.406612277E-1
6.736235500E0,-2.951456606E-1,-2.937589586E-1,-2.557509542E-1
6.746361500E0,-3.220237195E-1,-2.455006391E-1,-1.873340458E-1
6.756231500E0,-2.810957730E-1,-1.563143134E-1,-1.329670399E-1
6.766214500E0,-2.181766331E-1,-1.343231499E-1,-9.203907102E-2
6.776315500E0,-1.063882932E-1,-3.304108977E-1,-7.615657151E-2
6.786450500E0,-5.874080211E-2,-5.118378997E-1,-1.024237797E-1
6.796150500E0,-7.951021940E-2,-4.983988404E-1,-1.958861649E-1
6.806207500E0,-3.552792221E-2,-3.817235529E-1,-1.983296275E-1
6.816189500E0,6.221051514E-2,-3.181935847E-1,-1.708406806E-1
6.826250500E0,1.526185721E-1,-3.585107028E-1,-1.543473303E-1
6.836243500E0,1.556728929E-1,-2.839851379E-1,-1.525147259E-1
6.846290500E0,9.214291722E-2,-2.283964008E-1,-1.665646285E-1
6.856181500E0,2.345720306E-3,-2.760438919E-1,-2.026056796E-1
6.866251500E0,-5.079955608E-2,-2.571070790E-1,-2.490314394E-1
6.876182500E0,-9.844703972E-2,-1.447078586E-1,-2.930137217E-1
6.886287500E0,-1.454836726E-1,-6.529538333E-2,-3.082853556E-1
6.896266500E0,-2.004615515E-1,-1.795271933E-1,-2.728551924E-1
6.906304500E0,-3.293541074E-1,-4.476970136E-1,-1.659537703E-1
6.916303500E0,-3.843319714E-1,-4.666338265E-1,-2.013839483E-1
6.926589500E0,-3.415714204E-1,-3.664519489E-1,-1.909992397E-1
6.936316500E0,-2.762088478E-1,-2.674917877E-1,-2.001622170E-1
6.946349500E0,-1.974072158E-1,-2.021292001E-1,-2.203207761E-1
6.956208500E0,-9.722531587E-2,-1.593686342E-1,-1.366322339E-1
6.966257500E0,-7.279070467E-2,-2.980350256E-1,-1.091432944E-1
6.976251500E0,-1.112752184E-1,-4.538056552E-1,-1.244149283E-1
6.986400500E0,-1.497597247E-1,-4.336471260E-1,-1.775602102E-1
6.996207500E0,-1.442619413E-1,-3.731714487E-1,-2.313163429E-1
7.006187500E0,-1.124969497E-1,-3.059762716E-1,-2.588052750E-1
7.016258500E0,-5.202128738E-2,-2.693243623E-1,-2.337598056E-1
7.026236500E0,2.345720306E-3,-2.748221457E-1,-2.282620221E-1
7.036243500E0,6.010912359E-3,-2.375593781E-1,-2.087143362E-1
7.046381500E0,-9.260719642E-3,-2.051835209E-1,-1.800036579E-1
7.056535500E0,-3.858225048E-2,-1.838032454E-1,-1.641211659E-1
7.066189500E0,-3.247360140E-2,-1.159971952E-1,-1.512929946E-1
7.076283500E0,-7.645589113E-2,-1.282145083E-1,-1.409082860E-1
7.086172500E0,-7.401243597E-2,-2.864346653E-2,-1.488495320E-1
7.096200500E0,-7.279070467E-2,-9.706644341E-3,-1.280801296E-1
7.106190500E0,-9.844703972E-2,-4.574769363E-2,-1.256366670E-1
7.116205500E0,-6.118426472E-2,1.717142761E-2,-9.936945140E-2
7.126227500E0,-6.607118249E-2,-6.163018942E-2,-5.050023645E-2
7.136380500E0,-2.541201189E-3,2.328008041E-2,-4.988937080E-2
7.146319500E0,-9.774044156E-5,-1.764789224E-2,2.015810460E-4
7.156215500E0,4.571715370E-2,5.382334068E-2,3.441003710E-2
7.166634500E0,4.877147824E-2,2.999959514E-2,1.913840137E-2
7.176386500E0,1.275730878E-1,2.321959883E-1,8.389011770E-2
7.186288500E0,9.336464107E-2,1.784398407E-1,1.022160798E-1
7.196324500E0,2.128254436E-2,9.597304463E-2,5.701205134E-2
7.206340500E0,1.110797375E-1,9.414044023E-2,2.127826810E-1
7.216222500E0,1.605598181E-1,3.097758889E-1,3.123537302E-1
7.226214500E0,5.854532123E-2,2.755674422E-1,1.492526978E-1
7.237264500E0,6.010912359E-3,1.625573486E-1,1.437549144E-1
7.246208500E0,-2.758667432E-2,8.436660469E-2,2.011762410E-1
7.256163500E0,-6.057339907E-2,9.108611941E-2,2.311086357E-1
7.266161500E0,-3.430619091E-2,5.809940025E-2,2.665388286E-1
7.276167500E0,5.060407519E-2,9.841650724E-2,3.264036179E-1
7.286190500E0,1.538403034E-1,9.963823855E-2,4.204768836E-1
7.296121500E0,3.267151713E-1,2.028744519E-1,5.035545230E-1
7.306170500E0,6.394782066E-1,5.315199494E-1,5.854104757E-1
7.316254500E0,7.280536294E-1,7.746443152E-1,5.359303951E-1
7.326281500E0,7.201123834E-1,9.866145253E-1,4.717895389E-1
7.336405500E0,8.428963423E-1,1.183924079E0,4.198659956E-1
7.346214500E0,8.752721548E-1,1.237680197E0,3.209058344E-1
7.356250500E0,7.702033520E-1,1.135054827E0,2.311086357E-1
7.366177500E0,6.871256828E-1,9.841710925E-1,2.164478749E-1
7.376206500E0,4.207884073E-1,7.447119355E-1,3.257927597E-1
7.386275500E0,8.053646982E-2,4.490531683E-1,3.948205411E-1
7.396344500E0,1.006950289E-1,3.726949990E-1,3.881010115E-1
7.406209500E0,4.342274368E-1,6.304801106E-1,3.331231475E-1
7.416140500E0,8.227377534E-1,8.809348941E-1,3.245710135E-1
7.426155500E0,6.009936929E-1,7.960246205E-1,3.129645884E-1
7.436438500E0,2.192028761E-1,5.199134946E-1,2.451585531E-1
7.446330500E0,9.031032026E-2,2.590740621E-1,1.571939439E-1
7.456265500E0,1.031384915E-1,1.100229472E-1,8.450098336E-2
7.466170500E0,-5.446474254E-2,-7.874049246E-3,4.540561140E-2
7.476271500E0,-4.652349651E-2,-4.208857194E-3,5.212512612E-2
7.486256500E0,-4.591263086E-2,-4.208857194E-3,5.823378265E-2
7.496219500E0,-5.812993646E-2,1.900402084E-2,4.479474574E-2
7.506229500E0,-3.308445960E-2,1.900402084E-2,2.158186398E-2
7.516277500E0,1.822821796E-2,1.167364046E-2,9.975424036E-3
7.526214500E0,5.182580650E-2,-4.819722846E-3,1.364061423E-2
7.536249500E0,7.687128335E-2,-1.581529714E-2,-1.079399418E-2
7.546281500E0,1.184101179E-1,3.305392340E-2,-4.255898669E-2
7.556267500E0,1.349034756E-1,1.057468802E-1,-4.683504254E-2
7.566292500E0,1.177992523E-1,8.619919419E-2,-8.409782499E-2
7.576392500E0,8.847772330E-2,6.176458672E-2,-1.183062717E-1
7.587622500E0,4.327369481E-2,5.565593764E-2,-9.203907102E-2
7.596337500E0,5.182580650E-2,4.038430378E-2,-6.638272852E-2
7.606153500E0,6.098878384E-2,3.427565470E-2,-3.461773694E-2
7.616129500E0,4.510628805E-2,5.137987807E-2,-2.850908600E-2
7.626193500E0,3.716503829E-2,4.466036335E-2,-2.117870376E-2
7.636201500E0,-3.152066842E-3,9.841043502E-3,-2.056783810E-2
7.646199500E0,-4.835609347E-2,1.656056195E-2,-3.095254675E-2
7.656383500E0,-8.256454766E-2,3.732390702E-3,-4.744590819E-2
7.666164500E0,-1.118860766E-1,1.717142761E-2,-3.645033389E-2
7.676198500E0,-1.186055914E-1,-4.269336909E-2,4.479474574E-2
7.686411500E0,-1.289903075E-1,-4.635855928E-2,4.907080531E-2
7.696167500E0,-1.387641579E-1,-4.941288382E-2,1.547321118E-2
7.706175500E0,-1.375424266E-1,-7.568009198E-2,3.257744014E-2
7.716272500E0,-1.515923291E-1,-4.819115251E-2,6.006637961E-2
7.726314500E0,-1.723617464E-1,-1.276097074E-2,5.762291700E-2
7.736372500E0,-1.473162770E-1,-2.987125888E-3,6.617502868E-2
7.746189500E0,-1.473162770E-1,-4.819722846E-3,9.060963988E-2
7.756341500E0,-1.302120388E-1,2.205834910E-2,1.058812737E-1
7.766260500E0,-1.283794492E-1,-6.652317941E-3,1.694112569E-1
7.776185500E0,-1.925202906E-1,-1.215010509E-2,2.879191041E-1
7.786176500E0,-2.719327807E-1,1.411709934E-2,2.720366120E-1
7.796490500E0,-2.908695936E-1,-1.948048919E-2,2.158370167E-1
7.806180500E0,-2.578828931E-1,-2.558914013E-2,1.859046221E-1
7.816274500E0,-2.413895130E-1,1.472796500E-2,1.449766457E-1
7.826215500E0,-2.505525053E-1,5.993199721E-2,1.272615492E-1
7.836314500E0,-2.328374088E-1,6.665150821E-2,1.254289597E-1
7.846206500E0,-1.754160672E-1,3.427565470E-2,1.162659824E-1
7.856346500E0,-1.149403974E-1,-8.484913968E-3,8.999877423E-2
7.866134500E0,-8.561887592E-2,-3.597385064E-2,6.434243172E-2
7.876325500E0,-8.256454766E-2,-2.864346653E-2,5.579032004E-2
7.886269500E0,-8.989492804E-2,-7.874049246E-3,4.907080531E-2
7.896118500E0,-1.063882932E-1,6.719864905E-5,4.479474574E-2
7.906252500E0,-9.600358456E-2,7.397582754E-3,4.235128313E-2
7.916273500E0,-7.156897336E-2,1.717142761E-2,4.479474574E-2
7.926432500E0,-3.064100258E-2,2.755613625E-2,5.090339482E-2
7.936260500E0,-4.984661937E-3,-1.825875789E-2,8.755531162E-2
7.946211500E0,3.227811679E-2,1.717142761E-2,7.533800602E-2
7.956441500E0,8.114733547E-2,1.167364046E-2,7.167281955E-2
7.966290500E0,1.385686696E-1,1.288929954E-3,8.755531162E-2
7.976145500E0,2.705155611E-1,3.732390702E-3,1.217637658E-1
7.986413500E0,3.297694921E-1,-1.703702658E-2,1.431440562E-1
7.996178500E0,3.908559978E-1,-3.658471629E-2,1.712438464E-1
8.006233500E0,4.458338916E-1,-5.491067469E-2,2.103392333E-1
8.016217500E0,4.653815627E-1,-1.147754639E-1,2.378281653E-1
8.026206500E0,4.372817576E-1,-1.563143134E-1,2.439368069E-1
8.036187500E0,4.036841691E-1,-1.831923723E-1,2.414933443E-1
8.046176500E0,3.529823720E-1,-1.575360447E-1,2.500454783E-1
8.056135500E0,3.090000749E-1,-1.037798971E-1,2.934168875E-1
8.066196500E0,3.010588288E-1,-9.278431535E-2,3.373991847E-1
8.076399500E0,3.090000749E-1,-8.484306931E-2,3.245710135E-1
8.086283500E0,3.248825669E-1,-1.037798971E-1,2.042305768E-1
8.096144500E0,3.309912086E-1,-6.040845811E-2,7.717060298E-2
8.106172500E0,3.407650590E-1,-1.703702658E-2,3.255907446E-3
8.116208500E0,3.316020966E-1,1.778229326E-2,-3.034168109E-2
8.126323500E0,3.022805452E-1,2.999959514E-2,-5.538715422E-2
8.136493500E0,2.778459489E-1,3.488652036E-2,-7.554571331E-2
8.146168500E0,2.253115326E-1,6.665150821E-2,-6.332840770E-2
8.156375500E0,1.025276259E-1,1.094120741E-1,-2.240043320E-2
8.166260500E0,5.400046706E-3,1.204076558E-1,1.180802099E-2
8.176217500E0,-4.224744439E-2,1.142989993E-1,2.891224809E-2
8.186225500E0,-5.629733950E-2,1.136881262E-1,3.746435791E-2
8.196227500E0,-5.996253341E-2,1.094120741E-1,4.296214879E-2
8.206902500E0,-5.874080211E-2,1.069686115E-1,4.601647705E-2
8.216214500E0,-6.057339907E-2,9.291872382E-2,3.379917145E-2
8.226138500E0,-6.057339907E-2,6.726238132E-2,1.730580814E-2
8.236321500E0,-6.179513037E-2,3.977343813E-2,8.142828941E-3
8.246269500E0,-8.012108505E-2,6.359718740E-2,1.486234553E-2
8.256371500E0,1.517389156E-2,6.054285541E-2,2.280359529E-2
8.266263500E0,1.513968408E-1,-5.674326792E-2,9.364558384E-3
8.276230500E0,1.996551901E-1,-9.400604665E-2,-1.079399418E-2
8.286252500E0,1.495642364E-1,-6.896057725E-2,-2.484389395E-2
8.296198500E0,7.626041770E-2,-3.597385064E-2,-2.056783810E-2
8.306184500E0,2.616946585E-2,-1.581529714E-2,-1.323745493E-2
8.316336500E0,1.089783479E-2,-1.092837472E-2,-1.629178226E-2
8.326221500E0,1.028696913E-2,-1.092837472E-2,-2.850908600E-2
8.336356500E0,1.578475535E-2,-1.520443149E-2,-4.316985235E-2
8.346216500E0,2.372600511E-2,-2.681087144E-2,-5.477628857E-2
8.356218500E0,3.594330698E-2,-5.368894339E-2,-6.027407944E-2
8.366235500E0,4.205196351E-2,-7.812355459E-2,-5.599801987E-2
8.376197500E0,3.594330698E-2,-9.583865106E-2,-4.866763949E-2
8.386319500E0,2.555860020E-2,-1.001147032E-1,-4.133725539E-2
8.396300500E0,1.639562100E-2,-1.062233597E-1,-3.889379650E-2
8.406307500E0,9.065238759E-3,-1.056124866E-1,-4.133725539E-2
8.416211500E0,4.178317264E-3,-1.062233597E-1,-4.378071800E-2
8.426239500E0,6.010912359E-3,-1.068342179E-1,-5.050023645E-2
8.436226500E0,7.232642733E-3,-1.074450910E-1,-4.988937080E-2
8.446166500E0,8.454373106E-3,-1.104994118E-1,-4.744590819E-2
8.456201500E0,9.676103480E-3,-1.153863370E-1,-4.500244558E-2
8.466241500E0,9.065238759E-3,-1.184406579E-1,-4.439157993E-2
8.476218500E0,9.065238759E-3,-1.233275831E-1,-4.622417688E-2
8.486248500E0,1.089783479E-2,-1.343231499E-1,-5.721975118E-2
8.496223500E0,1.700648665E-2,-1.502056569E-1,-6.332840770E-2
8.506320500E0,2.128254436E-2,-1.593686342E-1,-7.065878808E-2
8.516336500E0,2.250427380E-2,-1.648664176E-1,-7.493484765E-2
8.526211500E0,2.250427380E-2,-1.697533429E-1,-7.737830281E-2
8.536339500E0,2.189340815E-2,-1.770837307E-1,-7.921089977E-2
8.546178500E0,2.494773455E-2,-1.862467080E-1,-8.593041450E-2
8.556177500E0,2.433687076E-2,-1.954096854E-1,-9.203907102E-2
8.566227500E0,2.189340815E-2,-2.015183419E-1,-9.753685445E-2
8.576240500E0,1.883908175E-2,-2.015183419E-1,-1.060889736E-1
8.586230500E0,1.456302591E-2,-1.941879541E-1,-1.176954135E-1
8.596439500E0,1.578475535E-2,-1.838032454E-1,-1.305235773E-1
8.606203500E0,2.128254436E-2,-1.838032454E-1,-1.384648383E-1
8.616218500E0,2.189340815E-2,-1.862467080E-1,-1.402974278E-1
8.626222500E0,2.372600511E-2,-1.825815141E-1,-1.329670399E-1
8.636195500E0,2.616946585E-2,-1.886901706E-1,-1.176954135E-1
8.646235500E0,2.861292660E-2,-1.880792975E-1,-1.012020484E-1
8.656318500E0,2.678032964E-2,-1.801380515E-1,-8.531955630E-2
8.666226500E0,2.739119530E-2,-1.685316116E-1,-7.310225070E-2
8.676229500E0,3.105638735E-2,-1.587577611E-1,-6.088494509E-2
8.686202500E0,3.533244506E-2,-1.459295899E-1,-4.927850515E-2
8.696285500E0,3.960850090E-2,-1.294362396E-1,-3.828293085E-2
8.706597500E0,4.266282916E-2,-1.123320013E-1,-2.850908600E-2
8.716149500E0,4.510628805E-2,-9.339518845E-2,-2.056783810E-2
8.726291500E0,4.571715370E-2,-7.751268148E-2,-1.507005095E-2
8.736278500E0,4.510628805E-2,-7.079316676E-2,-1.201572455E-2
8.746130500E0,3.533244506E-2,-6.834970415E-2,-9.572263807E-3
8.756210500E0,2.678032964E-2,-7.568009198E-2,-4.074476659E-3
8.766413500E0,1.578475535E-2,-7.629095763E-2,8.753692731E-3
8.776311500E0,5.400046706E-3,-7.018230855E-2,2.280359529E-2
8.786235500E0,-6.817257032E-3,-5.307807773E-2,3.441003710E-2
8.796196500E0,-1.842369698E-2,-3.780644387E-2,4.601647705E-2
8.806320500E0,-2.025629394E-2,-2.864346653E-2,5.517945439E-2
8.816344500E0,-8.649853989E-3,-2.497827634E-2,5.884464830E-2
8.826279500E0,7.232642733E-3,-2.558914013E-2,5.945551395E-2
8.836290500E0,2.189340815E-2,-2.925433218E-2,5.762291700E-2
8.846783500E0,3.105638735E-2,-2.803260088E-2,5.945551395E-2
8.856240500E0,3.716503829E-2,-2.009135298E-2,6.556416303E-2
8.866370500E0,4.205196351E-2,-4.819722846E-3,7.167281955E-2
8.876197500E0,4.266282916E-2,8.619312197E-3,7.655973732E-2
8.886542500E0,3.960850090E-2,1.961488649E-2,8.266839385E-2
8.896286500E0,3.288898245E-2,2.877786756E-2,8.572271466E-2
8.906272500E0,2.616946585E-2,3.488652036E-2,8.633358032E-2
8.916483500E0,1.822821796E-2,4.160603508E-2,8.389011770E-2
8.926184500E0,1.089783479E-2,4.221690074E-2,7.533800602E-2
8.936178500E0,6.621778011E-3,3.244305775E-2,6.495329738E-2
8.946189500E0,2.345720306E-3,1.472796500E-2,5.640118569E-2
8.956178500E0,-2.541201189E-3,3.732390702E-3,4.662734270E-2
8.966134500E0,-5.595527589E-3,-7.874049246E-3,4.296214879E-2
8.976212500E0,-6.206393242E-3,-1.520443149E-2,3.990782052E-2
8.986216500E0,-5.595527589E-3,-1.825875789E-2,4.051868618E-2
8.996251500E0,-6.206393242E-3,-1.581529714E-2,4.296214879E-2
9.006209500E0,-2.541201189E-3,-1.825875789E-2,4.357301444E-2
9.016140500E0,-7.086060941E-4,-1.337183546E-2,4.112955183E-2
9.026222500E0,1.734856516E-3,-1.398270112E-2,3.807522357E-2
9.039100500E0,2.956585959E-3,-1.276097074E-2,3.807522357E-2
9.056372500E0,5.131252110E-4,6.780643016E-4,6.006637961E-2
9.066185500E0,1.734856516E-3,9.841043502E-3,7.961406559E-2
9.076370500E0,5.131252110E-4,2.450180799E-2,1.046595424E-1
9.086187500E0,5.131252110E-4,2.938872948E-2,1.339810640E-1
9.096226500E0,4.178317264E-3,4.466036335E-2,1.620808691E-1
9.106261500E0,7.843508385E-3,4.404949769E-2,1.834611595E-1
9.116181500E0,1.639562100E-2,5.076901242E-2,1.956784576E-1
9.126183500E0,2.250427380E-2,5.076901242E-2,2.005653828E-1
9.136214500E0,2.800206095E-2,6.726238132E-2,1.956784576E-1
9.146316500E0,2.983465791E-2,8.253400028E-2,1.852937490E-1
9.156313500E0,2.983465791E-2,8.681006730E-2,1.736873090E-1
9.166173500E0,3.349984810E-2,9.414044023E-2,1.651352048E-1
9.176634500E0,3.105638735E-2,8.986438811E-2,1.626917422E-1
9.186225500E0,2.494773455E-2,9.169699252E-2,1.633026004E-1
9.196679500E0,1.456302591E-2,1.069686115E-1,1.626917422E-1
9.206214500E0,5.400046706E-3,1.216293722E-1,1.571939439E-1
9.216262500E0,5.400046706E-3,1.204076558E-1,1.474201083E-1
9.226224500E0,1.150869951E-2,1.271271706E-1,1.321484745E-1
9.236266500E0,1.639562100E-2,1.204076558E-1,1.168768406E-1
9.246265500E0,1.944994740E-2,1.094120741E-1,1.083247364E-1
9.256225500E0,1.517389156E-2,1.033034176E-1,9.671828896E-2
9.266172500E0,-6.206393242E-3,8.314487338E-2,9.183137119E-2
9.276569500E0,-1.048244908E-2,6.909497082E-2,8.389011770E-2
9.286229500E0,-1.048244908E-2,6.115372106E-2,7.717060298E-2
9.296356500E0,-4.373796284E-3,6.176458672E-2,7.289454341E-2
9.306244500E0,-4.984661937E-3,6.481891870E-2,7.228367776E-2
9.316225500E0,-6.206393242E-3,7.398189604E-2,6.312070042E-2
9.326185500E0,-6.817257032E-3,6.115372106E-2,5.579032004E-2
9.336212500E0,-7.086060941E-4,4.832555726E-2,3.929695487E-2
9.346182500E0,6.621778011E-3,3.732997924E-2,2.402532659E-2
9.356216500E0,1.334129553E-2,2.999959514E-2,1.364061423E-2
9.366224500E0,1.883908175E-2,2.450180799E-2,3.866771236E-3
9.376248500E0,2.433687076E-2,1.778229326E-2,-3.463611007E-3
9.386238500E0,3.044552356E-2,5.564987659E-3,-1.079399418E-2
9.396308500E0,3.899763525E-2,-7.263183594E-3,-1.384832058E-2
9.406222500E0,4.693888128E-2,-1.948048919E-2,-1.201572455E-2
9.416252500E0,5.121494085E-2,-2.925433218E-2,-8.350532502E-3
9.426204500E0,5.243667215E-2,-3.108692914E-2,-4.074476659E-3
9.436419500E0,4.877147824E-2,-2.986519784E-2,3.255907446E-3
9.446224500E0,4.449542239E-2,-2.986519784E-2,8.753692731E-3
9.456292500E0,4.083023220E-2,-1.764789224E-2,8.753692731E-3
9.466348500E0,3.777590394E-2,-1.153924037E-2,5.088502541E-3
9.476359500E0,3.288898245E-2,6.175851449E-3,2.645041794E-3
9.486210500E0,2.433687076E-2,-1.215010509E-2,-9.572263807E-3
9.496235500E0,1.395216025E-2,-1.642616093E-2,-1.690264605E-2
9.506210500E0,4.178317264E-3,-2.009135298E-2,-2.789822035E-2
9.516321500E0,-1.842369698E-2,-1.031750999E-2,-3.400687128E-2
9.526240500E0,-2.819753997E-2,1.288929954E-3,-3.156341240E-2
9.536246500E0,-3.858225048E-2,1.717142761E-2,-2.545475960E-2
9.546162500E0,-4.530176520E-2,3.122132644E-2,-1.995697245E-2
9.556264500E0,-4.713436216E-2,3.549738228E-2,-1.568091661E-2
9.566427500E0,-4.285830259E-2,3.366478905E-2,-1.140485890E-2
9.576180500E0,-3.247360140E-2,2.816700190E-2,-7.128803059E-3
9.586213500E0,-2.025629394E-2,2.083661780E-2,-4.685342312E-3
9.596218500E0,-6.817257032E-3,1.350623369E-2,-5.296206102E-3
9.606239500E0,2.956585959E-3,1.228450611E-2,-8.350532502E-3
9.616203500E0,1.150869951E-2,1.289536804E-2,-1.445918530E-2
9.626128500E0,1.150869951E-2,9.841043502E-3,-1.812437735E-2
9.636348500E0,2.555860020E-2,6.175851449E-3,-1.873524114E-2
9.646224500E0,2.861292660E-2,-2.376262099E-3,-1.568091661E-2
9.656189500E0,2.616946585E-2,-9.095778689E-3,-1.079399418E-2
9.666189500E0,2.067167871E-2,-1.642616093E-2,-5.296206102E-3
9.676550500E0,1.395216025E-2,-1.948048919E-2,-2.852745354E-3
9.686259500E0,7.843508385E-3,-1.948048919E-2,-5.907071754E-3
9.696203500E0,4.789181985E-3,-2.070221864E-2,-1.384832058E-2
9.706518500E0,5.400046706E-3,-2.436741069E-2,-2.423303016E-2
9.716159500E0,5.400046706E-3,-2.803260088E-2,-3.461773694E-2
9.726343500E0,2.956585959E-3,-3.047606349E-2,-4.194812104E-2
9.737298500E0,-7.086060941E-4,-3.169779480E-2,-4.805677384E-2
9.746225500E0,-2.541201189E-3,-3.414125368E-2,-5.294369534E-2
9.756189500E0,-9.774044156E-5,-4.024990648E-2,-5.844148248E-2
9.766904500E0,5.400046706E-3,-5.491067469E-2,-6.638272852E-2
9.776268500E0,8.454373106E-3,-5.857586488E-2,-6.943705678E-2
9.786147500E0,1.334129553E-2,-6.407365203E-2,-6.882619113E-2
9.796139500E0,1.578475535E-2,-6.896057725E-2,-6.577186286E-2
9.806185500E0,1.578475535E-2,-7.384749502E-2,-6.332840770E-2
9.816190500E0,1.273042988E-2,-7.812355459E-2,-6.332840770E-2
9.826212500E0,1.089783479E-2,-8.178874850E-2,-6.393927336E-2
9.836191500E0,1.028696913E-2,-8.423220366E-2,-6.638272852E-2
9.846167500E0,1.211956516E-2,-8.667565882E-2,-7.188051939E-2
9.856598500E0,1.639562100E-2,-8.789739013E-2,-7.921089977E-2
9.866138500E0,2.433687076E-2,-9.278431535E-2,-8.409782499E-2
9.876214500E0,3.411071375E-2,-1.007255614E-1,-8.715214580E-2
9.886133500E0,4.327369481E-2,-1.123320013E-1,-8.593041450E-2
9.896114500E0,4.754974693E-2,-1.178297997E-1,-8.226522803E-2
9.906122500E0,4.693888128E-2,-1.159971952E-1,-7.982176542E-2
9.916238500E0,4.144109786E-2,-1.080559492E-1,-8.043263108E-2
9.926277500E0,3.777590394E-2,-9.156258404E-2,-8.348695934E-2
9.936136500E0,3.777590394E-2,-7.873441279E-2,-8.898474276E-2
9.946113500E0,3.655417264E-2,-7.201489806E-2,-9.326080233E-2
9.956182500E0,3.288898245E-2,-7.384749502E-2,-9.448253363E-2
9.966132500E0,2.922379225E-2,-8.178874850E-2,-9.203907102E-2
9.976123500E0,2.861292660E-2,-9.217345715E-2,-8.654128015E-2
9.986156500E0,2.800206095E-2,-1.001147032E-1,-7.982176542E-2
9.996283500E0,2.922379225E-2,-1.037798971E-1,-6.943705678E-2
1.000658950E1,3.044552356E-2,-9.828209877E-2,-6.149581075E-2
1.001615650E1,3.105638735E-2,-8.728653193E-2,-5.477628857E-2
1.002619850E1,2.922379225E-2,-7.506922632E-2,-4.805677384E-2
1.003634950E1,2.555860020E-2,-5.613240227E-2,-4.866763949E-2
1.004620550E1,2.250427380E-2,-5.307807773E-2,-4.927850515E-2
1.005623650E1,2.189340815E-2,-5.979759619E-2,-4.927850515E-2
1.006625950E1,2.311513945E-2,-7.079316676E-2,-4.988937080E-2
1.007627650E1,2.616946585E-2,-7.690182328E-2,-4.866763949E-2
1.008631750E1,2.922379225E-2,-7.934528589E-2,-4.866763949E-2
1.009623450E1,3.166725487E-2,-7.812355459E-2,-4.439157993E-2
1.010617750E1,2.800206095E-2,-7.201489806E-2,-4.194812104E-2
1.011637850E1,2.433687076E-2,-6.285192072E-2,-3.889379650E-2
1.012638850E1,2.311513945E-2,-5.429980904E-2,-3.522860259E-2
1.013620150E1,2.433687076E-2,-4.696942493E-2,-3.339600936E-2
1.014639650E1,2.250427380E-2,-3.963904083E-2,-3.156341240E-2
1.015649550E1,1.822821796E-2,-3.414125368E-2,-3.156341240E-2
1.016625050E1,1.517389156E-2,-3.047606349E-2,-3.278514370E-2
1.017621650E1,1.639562100E-2,-2.986519784E-2,-3.339600936E-2
1.018621950E1,1.578475535E-2,-2.497827634E-2,-3.217427805E-2
1.019634150E1,1.211956516E-2,-1.825875789E-2,-2.973081544E-2
1.020627150E1,8.454373106E-3,-9.095778689E-3,-2.728735656E-2
1.021637550E1,9.676103480E-3,-4.819722846E-3,-2.240043320E-2
1.022630950E1,1.211956516E-2,1.899795607E-3,-1.568091661E-2
1.023631150E1,1.028696913E-2,1.289536804E-2,-8.350532502E-3
1.024624050E1,5.400046706E-3,2.450180799E-2,-4.092846066E-4
1.025644350E1,2.956585959E-3,2.938872948E-2,6.310233846E-3
1.026629050E1,-9.774044156E-5,3.488652036E-2,9.364558384E-3
1.027621850E1,-7.086060941E-4,4.160603508E-2,1.180802099E-2
1.028621550E1,7.232642733E-3,5.565593764E-2,1.852753945E-2
1.029634550E1,8.454373106E-3,6.665150821E-2,2.097099833E-2
1.030622550E1,7.232642733E-3,7.642535865E-2,2.219272964E-2
1.031626350E1,2.345720306E-3,8.803179860E-2,1.852753945E-2
1.032625350E1,-3.152066842E-3,9.597304463E-2,1.241888665E-2
1.033631350E1,-1.048244908E-2,9.902736545E-2,4.477636889E-3
1.034614050E1,-1.353677548E-2,9.719477594E-2,-4.685342312E-3
1.035615650E1,-1.170417853E-2,9.169699252E-2,-1.323745493E-2
1.036630350E1,-9.260719642E-3,8.619919419E-2,-1.445918530E-2
1.037636950E1,-6.206393242E-3,7.581448555E-2,-9.572263807E-3
1.038619250E1,-3.762930632E-3,6.970584393E-2,8.124448359E-4
1.039642450E1,-1.319469884E-3,6.970584393E-2,1.364061423E-2
1.040625050E1,-2.541201189E-3,7.703621686E-2,2.524705417E-2
1.041633750E1,-5.595527589E-3,8.619919419E-2,3.196657449E-2
1.042620850E1,-3.152066842E-3,9.230785072E-2,3.318830580E-2
1.043617150E1,3.567451611E-3,8.925352991E-2,3.318830580E-2
1.044621650E1,1.150869951E-2,7.642535865E-2,3.441003710E-2
1.045642850E1,1.395216025E-2,6.420804560E-2,3.929695487E-2
1.046645850E1,1.211956516E-2,5.748853460E-2,4.174041748E-2
1.047622550E1,7.232642733E-3,5.565593764E-2,3.990782052E-2
1.048624950E1,4.789181985E-3,5.687766895E-2,3.441003710E-2
1.049623650E1,6.010912359E-3,5.993199721E-2,2.830138244E-2
1.050623050E1,6.621778011E-3,6.359718740E-2,2.402532659E-2
1.051620250E1,4.178317264E-3,6.542977691E-2,2.036013268E-2
1.052618950E1,-9.774044156E-5,6.237545237E-2,1.730580814E-2
1.053632450E1,-5.595527589E-3,5.504507199E-2,1.425147988E-2
1.054626250E1,-8.038988337E-3,3.794084489E-2,6.921097636E-3
1.055622150E1,-6.206393242E-3,3.549738228E-2,5.088502541E-3
1.056627650E1,-2.541201189E-3,3.671911359E-2,5.699368194E-3
1.057617750E1,-9.774044156E-5,4.221690074E-2,6.310233846E-3
1.058618950E1,2.956585959E-3,4.771469161E-2,6.310233846E-3
1.059621550E1,6.621778011E-3,5.076901242E-2,6.310233846E-3
1.060640650E1,9.065238759E-3,5.260160938E-2,5.699368194E-3
1.061639850E1,1.089783479E-2,5.260160938E-2,5.699368194E-3
1.062618650E1,1.211956516E-2,4.893641546E-2,6.310233846E-3
1.063618750E1,1.456302591E-2,4.221690074E-2,9.975424036E-3
1.064620250E1,1.211956516E-2,4.038430378E-2,1.486234553E-2
1.065629150E1,4.789181985E-3,4.160603508E-2,1.852753945E-2
1.066631450E1,-4.373796284E-3,4.282776639E-2,1.913840137E-2
1.067619250E1,-8.649853989E-3,3.794084489E-2,1.547321118E-2
1.068622550E1,-9.871583432E-3,2.694527060E-2,1.119715534E-2
1.069616750E1,-8.038988337E-3,1.472796500E-2,5.699368194E-3
1.070619850E1,-3.762930632E-3,1.899795607E-3,2.034176141E-3
1.071615350E1,2.345720306E-3,-1.337183546E-2,-3.463611007E-3
1.072616950E1,8.454373106E-3,-2.681087144E-2,-8.961398154E-3
1.073630250E1,1.150869951E-2,-3.658471629E-2,-1.384832058E-2
1.074624850E1,1.578475535E-2,-4.330423474E-2,-2.117870376E-2
1.075619350E1,2.128254436E-2,-5.185634643E-2,-2.606562525E-2
1.076621050E1,2.433687076E-2,-6.285192072E-2,-2.911995165E-2
1.077633450E1,2.189340815E-2,-7.079316676E-2,-2.667649090E-2
1.078621750E1,1.395216025E-2,-7.201489806E-2,-1.934610680E-2
1.079624050E1,1.734856516E-3,-6.407365203E-2,-1.079399418E-2
1.080645750E1,4.178317264E-3,-6.163018942E-2,-8.961398154E-3
1.081634950E1,1.028696913E-2,-5.979759619E-2,-7.128803059E-3
1.082622950E1,1.761735231E-2,-5.613240227E-2,-5.907071754E-3
1.083616150E1,2.555860020E-2,-5.552153662E-2,-4.074476659E-3
1.084613250E1,3.044552356E-2,-5.735413358E-2,2.034176141E-3
1.085617950E1,3.166725487E-2,-6.040845811E-2,8.753692731E-3
1.086616750E1,2.922379225E-2,-6.101932377E-2,1.486234553E-2
1.087615450E1,2.800206095E-2,-5.368894339E-2,1.974926703E-2
1.088617050E1,2.678032964E-2,-4.147163779E-2,2.463618852E-2
1.089633650E1,2.678032964E-2,-2.803260088E-2,3.013397567E-2
1.090616950E1,2.800206095E-2,-1.581529714E-2,3.318830580E-2
1.091613350E1,2.739119530E-2,-3.597991541E-3,3.257744014E-2
1.092624350E1,2.678032964E-2,6.175851449E-3,2.830138244E-2
1.093614450E1,2.861292660E-2,8.619312197E-3,2.097099833E-2
1.094622050E1,3.227811679E-2,7.397582754E-3,1.302975230E-2
1.095617650E1,3.716503829E-2,4.343256354E-3,9.364558384E-3
1.096622350E1,3.655417264E-2,3.732390702E-3,1.241888665E-2
1.097622750E1,3.105638735E-2,3.732390702E-3,1.974926703E-2
1.098616950E1,2.433687076E-2,5.564987659E-3,3.013397567E-2
1.099613150E1,1.944994740E-2,8.619312197E-3,4.051868618E-2
1.100623150E1,1.639562100E-2,1.411709934E-2,4.845993966E-2
1.101627650E1,1.395216025E-2,2.328008041E-2,5.701205134E-2
1.102631450E1,1.150869951E-2,2.999959514E-2,6.250983477E-2
1.103637350E1,1.089783479E-2,2.999959514E-2,6.373156607E-2
1.104652350E1,1.089783479E-2,2.389094234E-2,5.579032004E-2
1.105636750E1,1.089783479E-2,1.717142761E-2,4.907080531E-2
1.106628150E1,9.676103480E-3,1.411709934E-2,4.235128313E-2
1.107623050E1,9.676103480E-3,8.619312197E-3,3.685349226E-2
1.108621750E1,9.676103480E-3,4.343256354E-3,3.379917145E-2
1.109619250E1,6.621778011E-3,1.899795607E-3,3.196657449E-2
1.110627450E1,2.956585959E-3,-2.376262099E-3,2.646878548E-2
1.111626450E1,1.734856516E-3,-6.041452289E-3,1.913840137E-2
1.112623250E1,1.734856516E-3,-1.459356677E-2,1.302975230E-2
1.113627050E1,5.400046706E-3,-2.253481373E-2,8.142828941E-3
1.114625150E1,9.676103480E-3,-2.986519784E-2,4.477636889E-3
1.115644950E1,1.334129553E-2,-3.291952237E-2,3.255907446E-3
1.116628850E1,1.700648665E-2,-3.353038803E-2,1.423310488E-3
1.117629550E1,2.067167871E-2,-3.108692914E-2,-1.631015912E-3
1.118635750E1,2.311513945E-2,-2.620000578E-2,-4.074476659E-3
1.119633350E1,2.128254436E-2,-2.131308429E-2,-5.907071754E-3
1.120630150E1,1.578475535E-2,-1.948048919E-2,-4.685342312E-3
1.121627550E1,1.028696913E-2,-2.009135298E-2,-3.463611007E-3
1.122634350E1,5.400046706E-3,-2.558914013E-2,-2.241879702E-3
1.123629350E1,3.567451611E-3,-3.047606349E-2,8.124448359E-4
1.124661350E1,1.123990864E-3,-3.169779480E-2,4.477636889E-3
1.125655350E1,-7.086060941E-4,-2.925433218E-2,7.531963289E-3
1.126625050E1,-9.774044156E-5,-2.864346653E-2,6.310233846E-3
1.127645150E1,2.956585959E-3,-2.497827634E-2,3.866771236E-3
1.128624450E1,7.232642733E-3,-2.070221864E-2,-1.020150259E-3
1.129626250E1,1.211956516E-2,-1.581529714E-2,-5.296206102E-3
1.130623850E1,1.578475535E-2,-1.153924037E-2,-7.739667781E-3
1.131618550E1,1.273042988E-2,-7.263183594E-3,-1.201572455E-2
1.132618150E1,1.089783479E-2,-1.092837472E-2,-1.507005095E-2
1.133616250E1,1.150869951E-2,-1.642616093E-2,-1.445918530E-2
1.134622650E1,9.676103480E-3,-2.009135298E-2,-1.201572455E-2
1.135634050E1,5.400046706E-3,-2.253481373E-2,-9.572263807E-3
1.136670750E1,2.345720306E-3,-2.497827634E-2,-7.739667781E-3
1.137627850E1,1.734856516E-3,-2.742173709E-2,-8.961398154E-3
1.138621950E1,2.956585959E-3,-2.742173709E-2,-8.350532502E-3
1.139624950E1,2.956585959E-3,-2.864346653E-2,-7.128803059E-3
1.140614850E1,1.734856516E-3,-3.108692914E-2,-7.128803059E-3
1.141613950E1,4.789181985E-3,-4.086077213E-2,-8.350532502E-3
1.142618750E1,9.065238759E-3,-5.124548078E-2,-1.079399418E-2
1.143617150E1,1.273042988E-2,-5.918673053E-2,-1.323745493E-2
1.144620450E1,1.334129553E-2,-6.407365203E-2,-1.507005095E-2
1.145620750E1,1.273042988E-2,-6.590624154E-2,-1.812437735E-2
1.146623750E1,1.211956516E-2,-6.590624154E-2,-1.995697245E-2
1.147638550E1,1.028696913E-2,-6.224105507E-2,-2.056783810E-2
1.148628950E1,7.232642733E-3,-5.735413358E-2,-2.056783810E-2
1.149623850E1,4.178317264E-3,-5.063461512E-2,-1.812437735E-2
1.150626850E1,5.131252110E-4,-4.391510040E-2,-1.445918530E-2
1.151644050E1,-1.930335537E-3,-3.963904083E-2,-1.323745493E-2
1.152626050E1,-9.774044156E-5,-3.719557822E-2,-1.140485890E-2
1.153621950E1,3.567451611E-3,-3.414125368E-2,-1.201572455E-2
1.154627050E1,7.843508385E-3,-2.925433218E-2,-1.507005095E-2
1.155635150E1,9.676103480E-3,-1.948048919E-2,-1.568091661E-2
1.156626950E1,9.676103480E-3,6.780643016E-4,-1.262658928E-2
1.157623050E1,8.454373106E-3,7.397582754E-3,-4.074476659E-3
1.158623250E1,5.400046706E-3,1.228450611E-2,4.477636889E-3
1.159634750E1,-9.774044156E-5,1.533883065E-2,1.241888665E-2
1.160631450E1,-3.152066842E-3,1.411709934E-2,1.852753945E-2
1.161621550E1,-3.762930632E-3,1.045190915E-2,2.280359529E-2
1.162619650E1,-3.152066842E-3,9.841043502E-3,2.402532659E-2
1.163636250E1,-1.930335537E-3,9.841043502E-3,2.280359529E-2
1.164622550E1,1.123990864E-3,1.106277481E-2,1.852753945E-2
1.165616350E1,3.567451611E-3,1.289536804E-2,1.486234553E-2
1.166623150E1,3.567451611E-3,1.656056195E-2,1.180802099E-2
1.167628250E1,1.123990864E-3,1.778229326E-2,9.364558384E-3
1.168615050E1,-1.319469884E-3,1.717142761E-2,7.531963289E-3
1.169612850E1,-1.930335537E-3,1.350623369E-2,5.088502541E-3
1.170615350E1,-4.373796284E-3,8.619312197E-3,5.088502541E-3
1.171650550E1,-6.817257032E-3,4.343256354E-3,5.088502541E-3
1.172626350E1,-7.428122684E-3,-5.436651409E-4,3.866771236E-3
1.173634850E1,-4.373796284E-3,-1.154530793E-3,3.255907446E-3
1.174625350E1,-1.319469884E-3,6.780643016E-4,8.124448359E-4
1.175623650E1,1.123990864E-3,6.719864905E-5,-2.852745354E-3
1.176621150E1,4.789181985E-3,-2.376262099E-3,-7.128803059E-3
1.177625750E1,6.621778011E-3,-2.376262099E-3,-9.572263807E-3
1.178623150E1,6.010912359E-3,-4.208857194E-3,-8.961398154E-3
1.179622050E1,4.178317264E-3,-6.652317941E-3,-7.128803059E-3
1.180628450E1,1.123990864E-3,-1.215010509E-2,-6.517937407E-3
1.181622050E1,-1.930335537E-3,-1.825875789E-2,-5.296206102E-3
1.182626650E1,-3.152066842E-3,-2.558914013E-2,-7.128803059E-3
1.183619550E1,-3.152066842E-3,-2.620000578E-2,-1.079399418E-2
1.184709150E1,-3.152066842E-3,-2.742173709E-2,-1.445918530E-2
1.185623950E1,-2.541201189E-3,-3.230866045E-2,-1.873524114E-2
1.186636550E1,-7.086060941E-4,-3.963904083E-2,-2.240043320E-2
1.187623450E1,2.345720306E-3,-4.819115251E-2,-2.240043320E-2
1.188616750E1,2.345720306E-3,-5.368894339E-2,-2.117870376E-2
1.189624550E1,-3.762930632E-3,-5.063461512E-2,-1.690264605E-2
1.190616150E1,-1.109331474E-2,-4.086077213E-2,-1.445918530E-2
1.191627750E1,-1.536937244E-2,-3.047606349E-2,-1.384832058E-2
1.192620650E1,-1.231504418E-2,-2.253481373E-2,-1.445918530E-2
1.193618350E1,-8.038988337E-3,-1.642616093E-2,-1.507005095E-2
1.194641450E1,-3.152066842E-3,-1.215010509E-2,-1.384832058E-2
1.195628550E1,1.734856516E-3,-9.706644341E-3,-1.140485890E-2
1.196643750E1,3.567451611E-3,-1.031750999E-2,-4.074476659E-3
1.197627350E1,4.178317264E-3,-1.092837472E-2,3.255907446E-3
1.198620150E1,3.567451611E-3,-3.597991541E-3,9.364558384E-3
1.199624350E1,-9.774044156E-5,6.786717102E-3,1.547321118E-2
1.200623750E1,-3.152066842E-3,1.778229326E-2,1.852753945E-2
1.201637950E1,-3.762930632E-3,2.572353929E-2,1.730580814E-2
1.202616850E1,-4.373796284E-3,3.244305775E-2,1.364061423E-2
1.203637450E1,-6.206393242E-3,3.488652036E-2,7.531963289E-3
1.204621650E1,-5.595527589E-3,3.244305775E-2,2.645041794E-3
1.205621850E1,-3.152066842E-3,2.572353929E-2,2.015810460E-4
1.206641850E1,-1.930335537E-3,2.144748345E-2,-4.092846066E-4
1.207630450E1,-1.319469884E-3,1.778229326E-2,5.699368194E-3
1.208616950E1,-2.541201189E-3,1.411709934E-2,8.142828941E-3
1.209624350E1,-4.373796284E-3,1.656056195E-2,7.531963289E-3
1.210627850E1,-6.206393242E-3,1.778229326E-2,3.866771236E-3
1.211621350E1,-6.206393242E-3,1.839315519E-2,-4.092846066E-4
1.212630550E1,-4.984661937E-3,1.533883065E-2,-3.463611007E-3
1.213615450E1,-6.206393242E-3,9.841043502E-3,-5.296206102E-3
1.214617550E1,-8.649853989E-3,7.397582754E-3,-5.907071754E-3
1.215616250E1,-9.871583432E-3,5.564987659E-3,-6.517937407E-3
1.216759650E1,-1.109331474E-2,3.732390702E-3,-6.517937407E-3
1.217616450E1,-1.048244908E-2,1.288929954E-3,-8.350532502E-3
1.218615750E1,-8.038988337E-3,-1.765396446E-3,-1.018312853E-2
1.219619050E1,-8.038988337E-3,-2.987125888E-3,-1.018312853E-2
1.220616450E1,-9.260719642E-3,-1.765396446E-3,-1.079399418E-2
1.221642250E1,-1.048244908E-2,6.719864905E-5,-9.572263807E-3
1.222609950E1,-9.871583432E-3,6.719864905E-5,-7.739667781E-3
1.223620650E1,-7.428122684E-3,-5.436651409E-4,-5.296206102E-3
1.224620450E1,-6.817257032E-3,-1.765396446E-3,-1.631015912E-3
1.225618950E1,-4.373796284E-3,-4.819722846E-3,-4.092846066E-4
1.226637950E1,-7.086060941E-4,-7.263183594E-3,1.423310488E-3
1.227620150E1,5.131252110E-4,-6.041452289E-3,2.645041794E-3
1.228617850E1,-7.086060941E-4,-2.376262099E-3,2.015810460E-4
1.229626950E1,-7.086060941E-4,-1.765396446E-3,-4.074476659E-3
1.230626550E1,-9.774044156E-5,-4.208857194E-3,-8.961398154E-3
1.231645650E1,-7.086060941E-4,-4.819722846E-3,-1.323745493E-2
1.232614550E1,-2.541201189E-3,-4.208857194E-3,-1.445918530E-2
1.233621650E1,-6.817257032E-3,-3.597991541E-3,-1.323745493E-2
1.234618350E1,-6.817257032E-3,-6.041452289E-3,-1.018312853E-2
1.235610850E1,-8.038988337E-3,-1.215010509E-2,-6.517937407E-3
1.236672550E1,-9.871583432E-3,-1.642616093E-2,-3.463611007E-3
1.237630650E1,-1.048244908E-2,-1.886962354E-2,-1.631015912E-3
1.238618250E1,-8.649853989E-3,-2.009135298E-2,-3.463611007E-3
1.239613150E1,-6.206393242E-3,-2.131308429E-2,-8.350532502E-3
1.240627850E1,-1.930335537E-3,-2.192394994E-2,-1.384832058E-2
1.241648250E1,-9.774044156E-5,-1.886962354E-2,-1.812437735E-2
1.242616750E1,-9.774044156E-5,-1.825875789E-2,-2.178956755E-2
1.243683950E1,-1.930335537E-3,-1.948048919E-2,-2.484389395E-2
1.244622750E1,-4.984661937E-3,-1.886962354E-2,-2.484389395E-2
1.245638550E1,-9.260719642E-3,-1.825875789E-2,-2.484389395E-2
1.246629450E1,-1.231504418E-2,-1.520443149E-2,-2.056783810E-2
1.247619950E1,-1.414764114E-2,-1.092837472E-2,-1.568091661E-2
1.248719650E1,-1.231504418E-2,-8.484913968E-3,-1.018312853E-2
1.249620250E1,-8.038988337E-3,-6.041452289E-3,-6.517937407E-3
1.250618150E1,-6.206393242E-3,-2.987125888E-3,-4.685342312E-3
1.251626150E1,-6.206393242E-3,3.121525049E-3,-3.463611007E-3
1.252621550E1,-8.649853989E-3,8.619312197E-3,-4.074476659E-3
1.253628250E1,-6.206393242E-3,8.619312197E-3,-8.350532502E-3
1.254617350E1,-1.930335537E-3,9.230177850E-3,-1.262658928E-2
1.255626250E1,5.131252110E-4,8.619312197E-3,-1.323745493E-2
1.256643550E1,-7.086060941E-4,6.786717102E-3,-1.262658928E-2
1.257632050E1,-2.541201189E-3,5.564987659E-3,-1.140485890E-2
1.258627850E1,-5.595527589E-3,3.732390702E-3,-9.572263807E-3
1.259613050E1,-1.598023809E-2,4.343256354E-3,-4.074476659E-3
1.260622750E1,-1.842369698E-2,8.008446544E-3,-2.852745354E-3
1.261620250E1,-1.598023809E-2,1.106277481E-2,-4.092846066E-4
1.262615950E1,-1.292590983E-2,1.045190915E-2,8.124448359E-4
1.263621450E1,-9.260719642E-3,8.008446544E-3,1.423310488E-3
1.264668850E1,-6.817257032E-3,6.175851449E-3,8.124448359E-4
1.265625850E1,-7.428122684E-3,6.175851449E-3,2.015810460E-4
1.266623950E1,-8.038988337E-3,7.397582754E-3,-2.241879702E-3
1.267621350E1,-8.038988337E-3,6.786717102E-3,-4.074476659E-3
1.268632250E1,-6.817257032E-3,8.008446544E-3,-4.685342312E-3
1.269621250E1,-5.595527589E-3,9.230177850E-3,-4.074476659E-3
1.270620550E1,-4.984661937E-3,1.167364046E-2,-2.852745354E-3
1.271641950E1,-6.817257032E-3,1.289536804E-2,-4.092846066E-4
1.272621750E1,-6.206393242E-3,1.411709934E-2,2.645041794E-3
1.273615350E1,-7.428122684E-3,1.411709934E-2,6.310233846E-3
1.274617350E1,-8.649853989E-3,1.228450611E-2,9.364558384E-3
1.275618150E1,-1.048244908E-2,1.289536804E-2,9.975424036E-3
1.276625150E1,-1.048244908E-2,1.350623369E-2,6.921097636E-3
1.277629850E1,-8.038988337E-3,1.411709934E-2,4.477636889E-3
1.278624950E1,-4.984661937E-3,1.167364046E-2,2.034176141E-3
1.279618550E1,-7.086060941E-4,9.230177850E-3,-1.020150259E-3
1.280646950E1,2.956585959E-3,6.786717102E-3,-1.020150259E-3
1.281624050E1,3.567451611E-3,4.343256354E-3,-4.092846066E-4
1.282612150E1,2.345720306E-3,6.175851449E-3,2.645041794E-3
1.283682250E1,-3.152066842E-3,9.230177850E-3,6.921097636E-3
1.284619150E1,-4.373796284E-3,9.230177850E-3,7.531963289E-3
1.285632350E1,-4.373796284E-3,5.564987659E-3,3.866771236E-3
1.286625250E1,-4.373796284E-3,3.121525049E-3,8.124448359E-4
1.287638850E1,-3.762930632E-3,-5.436651409E-4,-2.241879702E-3
1.288619450E1,-2.541201189E-3,-3.597991541E-3,-7.739667781E-3
1.289626850E1,-7.086060941E-4,-7.263183594E-3,-1.323745493E-2
1.290631050E1,-1.319469884E-3,-1.092837472E-2,-1.629178226E-2
1.291617550E1,-7.086060941E-4,-1.215010509E-2,-1.873524114E-2
1.292619150E1,-1.319469884E-3,-1.581529714E-2,-1.690264605E-2
1.293632750E1,-9.774044156E-5,-1.825875789E-2,-1.384832058E-2
1.294620550E1,-1.319469884E-3,-2.131308429E-2,-7.739667781E-3
1.295645950E1,-3.762930632E-3,-2.253481373E-2,-1.631015912E-3
1.296630750E1,-6.817257032E-3,-1.948048919E-2,3.255907446E-3
1.297627050E1,-8.038988337E-3,-1.398270112E-2,3.866771236E-3
1.298617950E1,-5.595527589E-3,-1.031750999E-2,3.866771236E-3
1.299622850E1,-1.319469884E-3,-7.874049246E-3,-4.092846066E-4
1.300616550E1,4.789181985E-3,-6.041452289E-3,-3.463611007E-3
1.301623050E1,1.028696913E-2,-6.652317941E-3,-5.296206102E-3
1.302632450E1,1.028696913E-2,-7.263183594E-3,-5.907071754E-3
1.303619650E1,9.065238759E-3,-6.652317941E-3,-7.128803059E-3
1.304621050E1,6.621778011E-3,-8.484913968E-3,-7.739667781E-3
1.305619150E1,4.178317264E-3,-7.874049246E-3,-9.572263807E-3
1.306627350E1,2.956585959E-3,-7.874049246E-3,-8.961398154E-3
1.307620650E1,1.123990864E-3,-7.874049246E-3,-7.739667781E-3
1.308620550E1,-1.930335537E-3,-6.652317941E-3,-7.128803059E-3
1.309625150E1,-6.206393242E-3,-6.041452289E-3,-6.517937407E-3
1.310624650E1,-1.930335537E-3,-1.337183546E-2,-6.517937407E-3
1.311625050E1,2.345720306E-3,-1.703702658E-2,-5.907071754E-3
1.312624250E1,3.567451611E-3,-1.520443149E-2,-5.907071754E-3
1.313617850E1,3.567451611E-3,-1.459356677E-2,-5.907071754E-3
1.314623350E1,2.345720306E-3,-1.459356677E-2,-6.517937407E-3
1.315633850E1,2.345720306E-3,-1.581529714E-2,-7.128803059E-3
1.316635750E1,3.567451611E-3,-1.703702658E-2,-8.961398154E-3
1.317626850E1,4.789181985E-3,-1.703702658E-2,-8.961398154E-3
1.318797450E1,5.400046706E-3,-1.642616093E-2,-6.517937407E-3
1.319623850E1,4.178317264E-3,-1.459356677E-2,-6.517937407E-3
1.320625350E1,4.789181985E-3,-1.337183546E-2,-4.074476659E-3
1.321629850E1,7.843508385E-3,-1.276097074E-2,-1.631015912E-3
1.322619350E1,1.150869951E-2,-1.092837472E-2,8.124448359E-4
1.323615750E1,1.211956516E-2,-5.430588499E-3,3.255907446E-3
1.324613850E1,1.273042988E-2,-1.154530793E-3,2.034176141E-3
1.325635450E1,1.395216025E-2,6.719864905E-5,2.015810460E-4
1.326645350E1,1.395216025E-2,1.288929954E-3,-4.092846066E-4
1.327615750E1,1.334129553E-2,6.780643016E-4,1.423310488E-3
1.328619750E1,1.273042988E-2,2.510661259E-3,3.255907446E-3
1.329636550E1,1.089783479E-2,4.343256354E-3,3.255907446E-3
1.330623950E1,9.676103480E-3,6.175851449E-3,5.088502541E-3
1.331619150E1,7.232642733E-3,8.619312197E-3,5.699368194E-3
1.332622650E1,7.843508385E-3,9.230177850E-3,6.310233846E-3
1.333634950E1,9.676103480E-3,6.175851449E-3,4.477636889E-3
1.334641650E1,9.676103480E-3,2.510661259E-3,2.645041794E-3
1.335616350E1,9.676103480E-3,1.288929954E-3,-4.092846066E-4
1.336623850E1,6.621778011E-3,-5.436651409E-4,-5.907071754E-3
1.337623250E1,4.789181985E-3,-1.765396446E-3,-7.739667781E-3
1.338628050E1,5.400046706E-3,-1.154530793E-3,-8.961398154E-3
1.339623650E1,6.010912359E-3,-1.765396446E-3,-8.350532502E-3
1.340620350E1,7.232642733E-3,-2.376262099E-3,-5.296206102E-3
1.341617950E1,7.843508385E-3,-3.597991541E-3,-2.241879702E-3
1.342621050E1,6.010912359E-3,-3.597991541E-3,-2.241879702E-3
1.343620550E1,2.956585959E-3,-1.154530793E-3,-5.296206102E-3
1.344611750E1,1.123990864E-3,6.780643016E-4,-8.350532502E-3
1.345628250E1,2.956585959E-3,-1.765396446E-3,-1.079399418E-2
1.346628750E1,7.232642733E-3,-4.819722846E-3,-8.961398154E-3
1.347619750E1,7.843508385E-3,-4.819722846E-3,-4.074476659E-3
1.348614450E1,7.232642733E-3,-2.376262099E-3,1.423310488E-3
1.349632150E1,8.454373106E-3,-5.436651409E-4,3.866771236E-3
1.350644450E1,1.089783479E-2,-1.765396446E-3,5.699368194E-3
1.351623850E1,1.517389156E-2,-4.208857194E-3,8.753692731E-3
1.352620250E1,1.761735231E-2,-4.819722846E-3,9.364558384E-3
1.353624350E1,1.761735231E-2,-4.819722846E-3,8.753692731E-3
1.354623050E1,1.761735231E-2,-5.430588499E-3,8.753692731E-3
1.355621950E1,1.700648665E-2,-6.652317941E-3,8.142828941E-3
1.356634350E1,1.639562100E-2,-6.652317941E-3,1.058628969E-2
1.357641350E1,1.395216025E-2,-4.208857194E-3,1.058628969E-2
1.358630250E1,1.028696913E-2,-5.436651409E-4,9.975424036E-3
1.359620250E1,7.843508385E-3,1.899795607E-3,6.921097636E-3
1.360623650E1,8.454373106E-3,3.121525049E-3,5.088502541E-3
1.361629250E1,9.065238759E-3,1.288929954E-3,8.124448359E-4
1.362621350E1,8.454373106E-3,6.719864905E-5,2.034176141E-3
1.363696250E1,7.232642733E-3,6.719864905E-5,3.866771236E-3
1.364617150E1,5.400046706E-3,6.780643016E-4,4.477636889E-3
1.365619150E1,4.789181985E-3,3.121525049E-3,6.921097636E-3
1.366654850E1,1.123990864E-3,6.786717102E-3,1.180802099E-2
1.367625950E1,-3.762930632E-3,9.841043502E-3,1.547321118E-2
1.368624550E1,-6.206393242E-3,1.045190915E-2,1.547321118E-2
1.369615250E1,-5.595527589E-3,6.786717102E-3,1.486234553E-2
1.370626350E1,-4.373796284E-3,4.954122007E-3,1.425147988E-2
1.371632650E1,-4.984661937E-3,5.564987659E-3,1.730580814E-2
1.372622150E1,-6.817257032E-3,6.786717102E-3,2.158186398E-2
1.373637250E1,-6.817257032E-3,3.732390702E-3,2.524705417E-2
1.374621250E1,-6.206393242E-3,-1.765396446E-3,2.463618852E-2
1.375669650E1,-5.595527589E-3,-6.041452289E-3,2.280359529E-2
1.376618450E1,-3.152066842E-3,-7.874049246E-3,1.913840137E-2
1.377622350E1,-3.152066842E-3,-2.376262099E-3,1.852753945E-2
1.378645550E1,-4.373796284E-3,4.954122007E-3,1.608407684E-2
1.379623850E1,-8.649853989E-3,1.289536804E-2,1.180802099E-2
1.380620250E1,-8.038988337E-3,1.594969630E-2,2.034176141E-3
1.381620350E1,-1.319469884E-3,1.167364046E-2,-8.961398154E-3
1.382639050E1,9.065238759E-3,2.510661259E-3,-1.873524114E-2
1.383638350E1,1.089783479E-2,-6.041452289E-3,-1.873524114E-2
1.384623350E1,5.400046706E-3,-1.031750999E-2,-2.056783810E-2
1.385621250E1,5.131252110E-4,-9.706644341E-3,-1.690264605E-2
1.386647250E1,-5.595527589E-3,-1.215010509E-2,-1.631015912E-3
1.387630550E1,-6.206393242E-3,-1.215010509E-2,8.753692731E-3
1.388624650E1,-1.109331474E-2,-9.095778689E-3,2.219272964E-2
1.389615750E1,-1.659110002E-2,-4.208857194E-3,3.318830580E-2
1.390616250E1,-1.720196567E-2,-1.154530793E-3,3.990782052E-2
1.391619550E1,-1.720196567E-2,-2.376262099E-3,4.540561140E-2
1.392619650E1,-1.475850679E-2,-3.597991541E-3,4.968166351E-2
1.393628150E1,-1.170417853E-2,-4.208857194E-3,5.395772308E-2
1.394617050E1,-1.414764114E-2,-3.597991541E-3,5.823378265E-2
1.395631250E1,-1.475850679E-2,-4.208857194E-3,6.128810346E-2
1.396620350E1,-1.231504418E-2,-6.041452289E-3,6.495329738E-2
1.397613450E1,-9.871583432E-3,-9.706644341E-3,6.922935694E-2
1.398615350E1,-8.649853989E-3,-1.520443149E-2,7.411627471E-2
1.399620650E1,-9.871583432E-3,-2.314567938E-2,7.717060298E-2
1.400625550E1,-1.170417853E-2,-2.803260088E-2,7.717060298E-2
1.401620750E1,-1.170417853E-2,-3.230866045E-2,7.289454341E-2
1.402633150E1,-8.038988337E-3,-3.780644387E-2,6.739675999E-2
1.403626550E1,-1.930335537E-3,-4.758028686E-2,6.312070042E-2
1.404625350E1,2.956585959E-3,-5.429980904E-2,6.006637961E-2
1.405614750E1,5.400046706E-3,-5.735413358E-2,5.945551395E-2
1.406619350E1,6.010912359E-3,-5.613240227E-2,5.762291700E-2
1.407632950E1,1.028696913E-2,-5.429980904E-2,5.212512612E-2
1.408624650E1,1.456302591E-2,-5.185634643E-2,4.845993966E-2
1.409623850E1,1.944994740E-2,-5.124548078E-2,4.662734270E-2
1.410617750E1,2.678032964E-2,-5.491067469E-2,4.601647705E-2
1.411844550E1,4.816061258E-2,-6.468451768E-2,5.640118569E-2
1.413628450E1,5.732358992E-2,-6.407365203E-2,8.389011770E-2
1.414619750E1,5.854532123E-2,-6.712797284E-2,9.427483380E-2
1.415627550E1,5.793445557E-2,-7.262576371E-2,1.028269380E-1
1.416638450E1,6.098878384E-2,-7.995614409E-2,1.089355946E-1
1.417626050E1,6.648657471E-2,-8.850826323E-2,1.162659824E-1
1.418628150E1,7.015176117E-2,-9.644950926E-2,1.229854971E-1
1.419632650E1,7.137349248E-2,-9.950383008E-2,1.327593476E-1
1.420627550E1,6.831916422E-2,-9.095172584E-2,1.407005936E-1
1.421621650E1,6.221051514E-2,-7.995614409E-2,1.443657875E-1
1.422617650E1,5.854532123E-2,-7.873441279E-2,1.437549144E-1
1.423628050E1,6.709744036E-2,-8.606480062E-2,1.376462579E-1
1.424629750E1,8.053646982E-2,-9.889297187E-2,1.309267431E-1
1.425625850E1,8.969945461E-2,-1.050016284E-1,1.278724223E-1
1.426620750E1,8.542339504E-2,-1.208841205E-1,1.309267431E-1
1.427614750E1,7.931473851E-2,-1.428752691E-1,1.352027953E-1
1.428636350E1,7.198435813E-2,-1.587577611E-1,1.400897205E-1
1.429620750E1,5.732358992E-2,-1.789163202E-1,1.468092352E-1
1.430629150E1,4.083023220E-2,-2.045726627E-1,1.523070335E-1
1.431621450E1,1.700648665E-2,-2.094595879E-1,1.486418396E-1
1.432623750E1,7.232642733E-3,-2.455006391E-1,1.364245266E-1
1.433721750E1,2.345720306E-3,-2.852068543E-1,1.174877137E-1
1.434621250E1,-4.373796284E-3,-3.071980178E-1,9.549655765E-2
1.435630450E1,-1.414764114E-2,-3.469042480E-1,7.839233428E-2
1.436621250E1,-2.392148413E-2,-3.725605905E-1,6.556416303E-2
1.437616750E1,-4.285830259E-2,-3.823344409E-1,5.762291700E-2
1.438627850E1,-4.530176520E-2,-4.263167381E-1,4.601647705E-2
1.439614850E1,-3.919311613E-2,-3.908865452E-1,2.585791983E-2
1.440621950E1,-3.613878787E-2,-4.006603956E-1,1.425147988E-2
1.441617850E1,-4.163657874E-2,-4.092124999E-1,-3.463611007E-3
1.442624450E1,-3.919311613E-2,-4.623577893E-1,-2.850908600E-2
1.443614750E1,-2.880840562E-2,-5.185573697E-1,-6.027407944E-2
1.444622050E1,-4.373796284E-3,-5.998024940E-1,-1.048672423E-1
1.445642850E1,1.883908175E-2,-6.236262321E-1,-1.525147259E-1
1.446619650E1,3.594330698E-2,-7.146451473E-1,-1.897775084E-1
1.447622350E1,3.105638735E-2,-7.885598540E-1,-2.081034631E-1
1.448639150E1,4.789181985E-3,-8.294878006E-1,-2.087143362E-1
1.449621550E1,-4.984661937E-3,-8.630853891E-1,-1.983296275E-1
1.450612650E1,-9.260719642E-3,-8.484246731E-1,-1.916100979E-1
1.451618750E1,4.789181985E-3,-8.136053085E-1,-1.836688519E-1
1.452613250E1,2.250427380E-2,-7.586274743E-1,-1.653428972E-1
1.453618950E1,4.144109786E-2,-6.700519919E-1,-1.690080911E-1
1.454621850E1,6.465397775E-2,-6.731063128E-1,-1.671755016E-1
1.455619450E1,8.542339504E-2,-6.914322972E-1,-1.555690616E-1
1.456619550E1,9.214291722E-2,-7.097582221E-1,-1.464060843E-1
1.457629850E1,1.031384915E-1,-7.262516022E-1,-1.427408904E-1
1.458622050E1,1.190209836E-1,-6.865453720E-1,-1.427408904E-1
1.459621950E1,1.422338635E-1,-6.621107459E-1,-1.421300173E-1
1.460622450E1,1.709445268E-1,-6.162958741E-1,-1.574016511E-1
1.461633350E1,1.941574067E-1,-5.759787560E-1,-1.848905832E-1
1.462629850E1,2.008769214E-1,-5.497115254E-1,-2.081034631E-1
1.463632550E1,2.014877796E-1,-5.619288683E-1,-2.245968282E-1
1.464630250E1,1.807183623E-1,-5.155030489E-1,-2.307054847E-1
1.465620050E1,1.617815495E-1,-4.794619977E-1,-2.209316343E-1
1.466626850E1,1.440664530E-1,-4.947336316E-1,-1.995513588E-1
1.467635350E1,1.342926174E-1,-4.733533561E-1,-1.665646285E-1
1.468618950E1,1.257404983E-1,-3.866104782E-1,-1.207497343E-1
1.469623850E1,9.336464107E-2,-4.043255746E-1,-7.860003412E-2
1.470623250E1,7.931473851E-2,-4.751859605E-1,-5.660888553E-2
1.471626150E1,1.208535805E-1,-4.299819171E-1,-4.927850515E-2
1.472616950E1,1.715553850E-1,-4.024930000E-1,-5.477628857E-2
1.473617850E1,2.124833614E-1,-5.112270117E-1,-8.043263108E-2
1.474624450E1,2.705155611E-1,-5.814765096E-1,-1.036455110E-1
1.475632050E1,3.364889920E-1,-6.065220237E-1,-1.225823313E-1
1.476620750E1,3.816930354E-1,-6.608890295E-1,-1.347996444E-1
1.477621750E1,4.110145569E-1,-7.042604685E-1,-1.390756965E-1
1.478617350E1,4.342274368E-1,-7.250298858E-1,-1.360213757E-1
1.479622650E1,4.769880176E-1,-7.103691101E-1,-1.299127191E-1
1.480620550E1,5.136399269E-1,-7.457993031E-1,-1.341887712E-1
1.481622350E1,5.405180454E-1,-8.087183833E-1,-1.439626217E-1
1.482623550E1,5.637308955E-1,-8.417051435E-1,-1.525147259E-1
1.483617650E1,5.704504251E-1,-8.600310683E-1,-1.702298224E-1
1.484620150E1,5.405180454E-1,-8.502572179E-1,-1.879449189E-1
1.485630550E1,4.647707045E-1,-7.842838168E-1,-1.928318292E-1
1.486621850E1,3.768061101E-1,-6.407304406E-1,-1.732841432E-1
1.487617050E1,3.059457541E-1,-4.702990353E-1,-1.128084883E-1
1.488638050E1,2.589091361E-1,-3.633975983E-1,-4.011552781E-2
1.489620550E1,2.619634569E-1,-2.491658181E-1,4.784907401E-2
1.490623850E1,2.918958366E-1,-4.269336909E-2,5.029252917E-2
1.491651250E1,2.143159509E-1,8.986438811E-2,4.723820835E-2
1.492624250E1,7.259522378E-2,2.132591605E-1,1.425147988E-2
1.493619450E1,-1.033339649E-1,3.696406782E-1,-7.310225070E-2
1.494620650E1,-3.018651903E-1,5.278547406E-1,-2.227642387E-1
1.495617850E1,-4.735183120E-1,7.117251754E-1,-3.852543831E-1
1.496622650E1,-5.773653984E-1,8.919304609E-1,-5.135360956E-1
1.497618650E1,-6.091303825E-1,1.029986024E0,-6.131071448E-1
1.498615250E1,-5.908043981E-1,1.137498379E0,-6.711393595E-1
1.499618750E1,-5.462112427E-1,1.230960727E0,-6.974065304E-1
1.500619250E1,-5.034506917E-1,1.326866508E0,-7.053477764E-1
1.501616850E1,-4.881790578E-1,1.390396595E0,-7.102347016E-1
1.502621950E1,-4.796269536E-1,1.437433124E0,-7.010717392E-1
1.503620750E1,-4.661879241E-1,1.487524152E0,-6.815240383E-1
1.504629550E1,-4.460293651E-1,1.508904338E0,-6.900761724E-1
1.505632750E1,-4.246490896E-1,1.449650526E0,-7.365019321E-1
1.506620850E1,-4.246490896E-1,1.315260172E0,-7.810950875E-1
1.507622750E1,-4.429750443E-1,1.150937319E0,-7.676560879E-1
1.508624250E1,-4.399207234E-1,1.016546965E0,-6.906870604E-1
1.509622850E1,-4.344229400E-1,9.829493165E-1,-6.124963164E-1
1.510620550E1,-4.674096704E-1,1.047701120E0,-6.558676958E-1
1.511617850E1,-5.700349808E-1,1.175372005E0,-7.468866706E-1
1.512618150E1,-6.390627623E-1,1.240734577E0,-7.603256702E-1
1.513611450E1,-6.066868901E-1,1.166208982E0,-7.297824025E-1
1.514624950E1,-5.327721834E-1,1.011049271E0,-6.992391348E-1
1.515647050E1,-6.622756124E-1,6.775167584E-1,-5.007079244E-1
1.516620950E1,-7.783400416E-1,6.469734907E-1,-4.719972610E-1
1.517623150E1,-8.595851064E-1,7.031731009E-1,-4.408431351E-1
1.518628950E1,-8.809654117E-1,8.015223742E-1,-4.298475385E-1
1.519616850E1,-8.467569351E-1,8.485590219E-1,-4.212954342E-1
1.520620450E1,-8.131593466E-1,7.642595768E-1,-4.109107256E-1
1.521626750E1,-8.009420633E-1,6.335344315E-1,-4.292366803E-1
1.522622150E1,-7.887247205E-1,5.455698371E-1,-4.738298357E-1
1.523625550E1,-7.740640044E-1,4.154555798E-1,-4.933775365E-1
1.524614350E1,-7.276382446E-1,3.781928122E-1,-5.007079244E-1
1.525619150E1,-6.726603508E-1,4.447771013E-1,-5.013188124E-1
1.526615950E1,-6.378410459E-1,4.282837510E-1,-4.945992529E-1
1.527626550E1,-5.810305476E-1,3.983513415E-1,-5.019296408E-1
1.528622850E1,-5.229983926E-1,3.781928122E-1,-5.208665133E-1
1.529633650E1,-4.503054321E-1,4.472205639E-1,-5.617944598E-1
1.530643450E1,-3.837211132E-1,5.150265694E-1,-5.898942947E-1
1.531627750E1,-3.287432492E-1,5.229678154E-1,-5.990572572E-1
1.532634150E1,-2.920913398E-1,4.795964062E-1,-6.027224660E-1
1.533619250E1,-2.755979598E-1,3.794145286E-1,-5.929486156E-1
1.534632150E1,-2.847609520E-1,2.279199213E-1,-5.758443475E-1
1.535627750E1,-2.951456606E-1,8.314487338E-2,-5.318620801E-1
1.536624950E1,-2.841500938E-1,2.511267364E-2,-4.677211940E-1
1.537618950E1,-2.481090426E-1,5.564987659E-3,-3.828109205E-1
1.538618950E1,-2.163440436E-1,-3.047606349E-2,-2.899594009E-1
1.539651250E1,-2.151223123E-1,-1.948048919E-2,-1.971078962E-1
1.540657150E1,-2.297830731E-1,1.167364046E-2,-6.149581075E-2
1.541620250E1,-2.187875062E-1,1.491183192E-1,-1.812437735E-2
1.542618750E1,-1.931311637E-1,2.242547423E-1,1.180802099E-2
1.543634550E1,-1.515923291E-1,2.871738672E-1,2.769051678E-2
1.544632550E1,-1.063882932E-1,3.525364697E-1,3.624262661E-2
1.545623450E1,-6.484945118E-2,4.087360501E-1,4.784907401E-2
1.546622150E1,-1.048244908E-2,4.539400935E-1,6.800762564E-2
1.547624450E1,4.693888128E-2,4.337815344E-1,7.533800602E-2
1.548667850E1,9.702983499E-2,3.873557746E-1,8.327925205E-2
1.549655850E1,1.379577965E-1,3.824688494E-1,7.778146863E-2
1.550625450E1,1.666684598E-1,3.910209537E-1,6.556416303E-2
1.551626950E1,1.776640415E-1,4.435553849E-1,5.029252917E-2
1.552615850E1,1.678901911E-1,4.557726979E-1,6.006637961E-2
1.553616850E1,1.458990425E-1,3.164954185E-1,1.187094450E-1
1.554625950E1,1.049710810E-1,1.399553418E-1,2.042305768E-1
1.555624450E1,8.664512634E-2,4.221690074E-2,3.074668050E-1
1.556616550E1,1.428447217E-1,-6.834970415E-2,3.990965784E-1
1.557627950E1,2.827328742E-1,-1.740293950E-1,4.607939720E-1
1.558612150E1,4.751554132E-1,-2.009074688E-1,4.424680173E-1
1.559630250E1,6.523063779E-1,-2.070221864E-2,3.141863048E-1
1.560620950E1,7.011755705E-1,4.160603508E-2,6.800762564E-2
1.561618750E1,5.631200671E-1,-2.968133092E-1,-2.942354679E-1
1.562627550E1,3.236608207E-1,-8.972938657E-1,-6.344874501E-1
1.563629250E1,1.520076990E-1,-1.486167908E0,-7.273389697E-1
1.564641850E1,9.825156629E-2,-1.951036334E0,-4.426757097E-1
1.565624550E1,1.037493572E-1,-2.007846832E0,-1.631015912E-3
1.566615350E1,1.605598181E-1,-1.801374316E0,3.716076612E-1
1.567628550E1,1.208535805E-1,-1.280917168E0,5.273782611E-1
1.568619450E1,4.938234389E-2,-9.064568281E-1,6.287819147E-1
1.569622250E1,9.458637238E-2,-5.472680926E-1,5.628084540E-1
1.570620150E1,2.589091361E-1,-3.627867401E-1,3.740511239E-1
1.571616850E1,4.403361082E-1,-3.615650237E-1,1.645243317E-1
1.572621050E1,4.873727262E-1,-5.057291985E-1,8.511184901E-2
1.573628450E1,4.421686828E-1,-8.252117634E-1,1.565830857E-1
1.574623850E1,4.721010923E-1,-1.144083381E0,2.793669999E-1
1.575622650E1,5.295224786E-1,-1.287636638E0,3.997074664E-1
1.576625750E1,5.264680982E-1,-1.451959491E0,4.950024188E-1
1.577639650E1,5.246355534E-1,-1.541756630E0,5.402064323E-1
1.578627150E1,5.466266870E-1,-1.491665721E0,5.426498652E-1
1.579621950E1,5.991610885E-1,-1.404922843E0,5.059979558E-1
1.580635650E1,6.480302811E-1,-1.277251959E0,4.418571591E-1
1.581629650E1,6.138218641E-1,-1.192341685E0,4.015400410E-1
1.582633650E1,5.490701199E-1,-1.141029000E0,3.465621769E-1
1.583642050E1,4.953139722E-1,-1.108042359E0,2.537106574E-1
1.584627050E1,4.800423384E-1,-9.608238339E-1,1.797959656E-1
1.585637750E1,3.810821772E-1,-1.042679787E0,2.213348001E-1
1.586631250E1,3.474845886E-1,-1.065281749E0,2.329412401E-1
1.587619650E1,3.267151713E-1,-1.025575519E0,2.225565314E-1
1.588620450E1,3.022805452E-1,-9.852584600E-1,2.414933443E-1
1.589622050E1,3.083892167E-1,-9.241719246E-1,2.714257538E-1
1.590620250E1,3.511497676E-1,-8.227683306E-1,2.970820963E-1
1.591615350E1,4.195666909E-1,-7.268624902E-1,3.062450588E-1
1.592622050E1,5.588439703E-1,-5.118378997E-1,2.909734249E-1
1.593646750E1,6.266500354E-1,-3.927191496E-1,2.879191041E-1
1.594636650E1,6.846822500E-1,-3.084197342E-1,2.958603501E-1
1.595630150E1,7.201123834E-1,-2.619939744E-1,3.129645884E-1
1.596624750E1,7.274428010E-1,-2.357267886E-1,3.306796849E-1
1.597653650E1,7.085059881E-1,-2.387811095E-1,3.404535353E-1
1.598674950E1,6.700214744E-1,-3.212479055E-1,3.221275806E-1
1.599624650E1,6.498628855E-1,-4.079907835E-1,2.824213207E-1
1.600612550E1,6.284826398E-1,-5.680375099E-1,2.109500915E-1
1.601616550E1,6.156544685E-1,-7.085365057E-1,1.571939439E-1
1.602619050E1,6.016045213E-1,-8.368182182E-1,1.278724223E-1
1.603619150E1,6.016045213E-1,-9.040133953E-1,1.077138633E-1
1.604620850E1,5.967176557E-1,-9.547151923E-1,7.167281955E-2
1.605616050E1,5.686178207E-1,-9.828150272E-1,2.280359529E-2
1.606620950E1,5.240246654E-1,-9.626564384E-1,-2.545475960E-2
1.607626650E1,4.586620629E-1,-9.021807909E-1,-6.455013901E-2
1.608619750E1,3.798604310E-1,-8.221574426E-1,-1.048672423E-1
1.609614250E1,2.857871950E-1,-7.280842066E-1,-1.598451138E-1
1.610632050E1,1.556728929E-1,-5.924721360E-1,-2.300946116E-1
1.611637050E1,-3.552792221E-2,-4.086016417E-1,-3.082853556E-1
1.612619250E1,-2.536068261E-1,-1.605903655E-1,-3.834217787E-1
1.613631150E1,-4.301468730E-1,1.766072512E-1,-4.072455466E-1
1.614620550E1,-5.419352055E-1,5.761131048E-1,-3.394394815E-1
1.615630050E1,-6.256237030E-1,9.469082952E-1,-2.893485427E-1
1.616625450E1,-7.001492977E-1,1.224241138E0,-3.137831390E-1
1.617613450E1,-7.893356085E-1,1.485080600E0,-3.883087039E-1
1.618621250E1,-1.170515537E0,2.105108976E0,-5.599618554E-1
1.619622450E1,-1.328729630E0,2.255381823E0,-6.497590542E-1
1.620612650E1,-1.344001293E0,2.105719805E0,-7.853711247E-1
1.621614550E1,-1.219995618E0,1.808839202E0,-8.867747784E-1
1.622614850E1,-1.012912393E0,1.523565173E0,-8.843313456E-1
1.623620950E1,-8.009420633E-1,1.252341032E0,-7.755973339E-1
1.624655250E1,-6.262345910E-1,1.132611394E0,-5.666813850E-1
1.625614250E1,-5.071158409E-1,1.138720036E0,-3.492133319E-1
1.626630850E1,-4.564140737E-1,1.158878565E0,-2.636922002E-1
1.627621450E1,-3.831102550E-1,1.197363138E0,-2.716334462E-1
1.628621050E1,-2.212309688E-1,1.169263363E0,-3.437155485E-1
1.629636650E1,-1.414764114E-2,1.036094666E0,-4.438974559E-1
1.630617350E1,1.923248023E-1,9.047586322E-1,-4.982644618E-1
1.631636550E1,3.346564174E-1,9.114781022E-1,-4.475626349E-1
1.632629650E1,3.120543957E-1,1.018990517E0,-3.186700642E-1
1.633617450E1,9.458637238E-2,1.332975149E0,-1.366322339E-1
1.634631650E1,-2.560502887E-1,1.658566356E0,9.794002026E-2
1.635618950E1,-6.079086065E-1,1.816780448E0,2.946386337E-1
1.636616950E1,-8.430917263E-1,1.818613052E0,3.679424524E-1
1.637628450E1,-9.408301711E-1,1.616416693E0,3.343448639E-1
1.638614050E1,-9.212825298E-1,1.270666957E0,2.439368069E-1
1.639631250E1,-8.223223090E-1,9.096455574E-1,1.242072284E-1
1.640622850E1,-7.038145065E-1,6.042128801E-1,1.913840137E-2
1.641618250E1,-6.195150614E-1,3.464277983E-1,-7.798916847E-2
1.642617550E1,-5.822523236E-1,1.607247591E-1,-1.396865696E-1
1.643620850E1,-5.810305476E-1,1.521726400E-1,-1.433517486E-1
1.644763150E1,-5.565959811E-1,2.260873318E-1,-1.164736822E-1
1.645629050E1,-4.820704162E-1,3.452060819E-1,-8.348695934E-2
1.646619850E1,-3.751690090E-1,5.932173133E-1,-2.423303016E-2
1.647626850E1,-2.658241391E-1,7.398250103E-1,1.241888665E-2
1.648622750E1,-1.729726046E-1,7.538748980E-1,4.418388009E-2
1.649617950E1,-1.247142479E-1,7.269968390E-1,6.312070042E-2
1.650618650E1,-1.112752184E-1,6.549147367E-1,7.411627471E-2
1.651636850E1,-1.051665619E-1,5.388503075E-1,7.167281955E-2
1.652631050E1,-8.561887592E-2,3.818579912E-1,5.884464830E-2
1.653623850E1,-5.018869042E-2,2.285308093E-1,5.029252917E-2
1.654622750E1,-8.038988337E-3,1.521726400E-1,4.357301444E-2
1.655631250E1,3.838676959E-2,1.570595652E-1,4.540561140E-2
1.656618750E1,8.969945461E-2,1.094120741E-1,5.090339482E-2
1.657620550E1,1.165775210E-1,9.658390284E-2,7.655973732E-2
1.658616150E1,1.208535805E-1,1.301814914E-1,1.284832805E-1
1.659624950E1,1.074145436E-1,2.071505189E-1,2.091175020E-1
1.660642950E1,6.893002987E-2,3.128302097E-1,2.989147007E-1
1.661618550E1,1.028696913E-2,4.099577963E-1,3.874901533E-1
1.662619250E1,-5.202128738E-2,5.284656286E-1,4.614048302E-1
1.663626250E1,-8.989492804E-2,6.518604159E-1,4.919480979E-1
1.664642350E1,-9.539271891E-2,7.343271971E-1,4.809525311E-1
1.665617450E1,-7.828848809E-2,7.514314055E-1,4.357484877E-1
1.666616950E1,-4.346916825E-2,6.995078921E-1,3.593903482E-1
1.667622150E1,2.345720306E-3,5.938282013E-1,2.720366120E-1
1.668621150E1,4.388455674E-2,4.698225856E-1,1.865154803E-1
1.669654950E1,7.198435813E-2,2.370829135E-1,7.350540906E-2
1.670616350E1,3.838676959E-2,1.595030278E-1,6.861849129E-2
1.671620250E1,-1.903456263E-2,1.240728348E-1,7.411627471E-2
1.672623950E1,-8.134281635E-2,1.020816863E-1,5.212512612E-2
1.673629350E1,-1.473162770E-1,3.305392340E-2,-2.911995165E-2
1.674641950E1,-1.967963576E-1,-7.629095763E-2,-1.873340458E-1
1.675622850E1,-2.224527001E-1,-2.216768861E-1,-4.182411134E-1
1.676640350E1,-2.279504836E-1,-4.195972085E-1,-6.937413812E-1
1.677619550E1,-2.004615515E-1,-7.848946452E-1,-8.556206822E-1
1.678614950E1,-8.500801027E-2,-1.169739723E0,-7.279497981E-1
1.679629050E1,1.517389156E-2,-1.295578003E0,-3.528785408E-1
1.680616350E1,1.517389156E-2,-1.150802851E0,3.255907446E-3
1.681616350E1,-7.706675678E-2,-1.004195213E0,2.628736496E-1
1.682622150E1,-2.444438338E-1,-8.319312930E-1,5.121066570E-1
1.683621750E1,-4.160969853E-1,-5.588745475E-1,7.338507175E-1
1.684641250E1,-5.541524887E-1,-2.491658181E-1,8.450281620E-1
1.685635950E1,-4.973420799E-1,-6.163018942E-2,8.059328198E-1
1.686619150E1,-2.474981844E-1,-9.889297187E-2,6.281710267E-1
1.687631050E1,-2.514321543E-2,-3.517911732E-1,4.088704288E-1
1.688616650E1,1.886596084E-1,-6.602781415E-1,1.914024055E-1
1.689620950E1,4.409469664E-1,-8.808004856E-1,1.107681990E-1
1.690618050E1,7.170580626E-1,-1.111096621E0,2.170587480E-1
1.691626850E1,8.740504384E-1,-1.495941758E0,3.789380491E-1
1.692625850E1,8.300681710E-1,-1.875289083E0,5.285999775E-1
1.693632450E1,7.249993086E-1,-1.841080666E0,6.373339891E-1
1.694649750E1,6.284826398E-1,-1.604064941E0,7.399593592E-1
1.695646450E1,6.333695650E-1,-1.478226662E0,6.990314126E-1
1.696625350E1,6.626910567E-1,-1.385375142E0,6.141211390E-1
1.697632150E1,6.425325274E-1,-1.243654370E0,4.919480979E-1
1.698621050E1,5.673961043E-1,-1.170961380E0,3.734402359E-1
1.699632150E1,4.794314802E-1,-1.146526814E0,2.836430669E-1
1.700623750E1,4.262861907E-1,-1.147748590E0,1.846828908E-1
1.701631550E1,4.305622578E-1,-1.177680969E0,1.003834829E-1
1.702644050E1,4.904270470E-1,-1.222885013E0,4.784907401E-2
1.703628450E1,5.753373504E-1,-1.248541355E0,3.868608922E-2
1.704760750E1,6.394782066E-1,-1.232047915E0,7.717060298E-2
1.705628650E1,6.529172063E-1,-1.141639948E0,1.425331831E-1
1.706632250E1,6.272608638E-1,-9.736520052E-1,1.834611595E-1
1.707617250E1,5.832785964E-1,-8.081075549E-1,2.115609646E-1
1.708614750E1,5.618982911E-1,-6.205719113E-1,2.500454783E-1
1.709740950E1,5.722830296E-1,-4.415883720E-1,2.750909328E-1
1.710636950E1,5.924415588E-1,-3.389630020E-1,3.001364172E-1
1.711622150E1,6.205413938E-1,-2.662700415E-1,3.178515136E-1
1.712621750E1,6.425325274E-1,-2.711569667E-1,3.147971928E-1
1.713627050E1,6.596367359E-1,-3.566780984E-1,2.879191041E-1
1.714621850E1,6.865147948E-1,-5.100052953E-1,2.311086357E-1
1.715621950E1,7.225558758E-1,-6.321783662E-1,1.688003838E-1
1.716617750E1,7.439361811E-1,-7.708447576E-1,1.071030051E-1
1.717624650E1,7.445470095E-1,-8.643071651E-1,7.350540906E-2
1.718630750E1,7.219449878E-1,-9.119546413E-1,5.701205134E-2
1.719638950E1,6.749083996E-1,-9.082894325E-1,4.601647705E-2
1.720621050E1,4.403361082E-1,-9.101220369E-1,1.974926703E-2
1.721643150E1,2.686829567E-1,-8.551441431E-1,-1.445918530E-2
1.722641850E1,8.908858895E-2,-7.855055332E-1,-5.050023645E-2
1.723617950E1,-8.561887592E-2,-6.957083344E-1,-1.005911827E-1
1.724619550E1,-2.517742217E-1,-5.100052953E-1,-1.598451138E-1
1.725635550E1,-4.405315816E-1,-2.687135041E-1,-2.331489474E-1
1.726657150E1,-6.250128746E-1,9.291872382E-2,-3.137831390E-1
1.727618650E1,-7.539054155E-1,5.871086717E-1,-4.139650464E-1
1.728620950E1,-8.351504803E-1,1.147272229E0,-5.208665133E-1
1.729616650E1,-9.353324175E-1,1.570601821E0,-6.662524343E-1
1.730615850E1,-1.061170697E0,1.901079893E0,-8.537880778E-1
1.731616050E1,-1.194950223E0,2.130765200E0,-1.068812609E0
1.732618050E1,-1.263978004E0,2.241942644E0,-1.271619916E0
1.733644250E1,-1.212665319E0,2.205901623E0,-1.410286307E0
1.734621050E1,-1.064835906E0,1.883364797E0,-1.507413864E0
1.735633450E1,-8.889066577E-1,1.412387729E0,-1.490309596E0
1.736618450E1,-7.422989607E-1,1.023877382E0,-1.272841573E0
1.737612050E1,-6.561669707E-1,7.905268073E-1,-8.916617036E-1
1.738634150E1,-6.347867250E-1,7.734225988E-1,-4.774950445E-1
1.739623550E1,-6.463931203E-1,8.137397170E-1,-2.539183795E-1
1.740621950E1,-6.176824570E-1,9.194193482E-1,-1.903883815E-1
1.741623650E1,-4.918442667E-1,9.945557714E-1,-2.197099030E-1
1.742619450E1,-2.719327807E-1,9.798950553E-1,-3.223352730E-1
1.743632250E1,-4.102571309E-2,8.742153645E-1,-4.206845760E-1
1.744625150E1,9.458637238E-2,7.276076674E-1,-4.414539933E-1
1.745623950E1,1.312382817E-1,6.249822974E-1,-4.243497550E-1
1.746626550E1,-8.500801027E-2,9.786732793E-1,-2.429227829E-1
1.747621650E1,-3.000325859E-1,1.222408652E0,-6.516099721E-2
1.748623250E1,-5.339939594E-1,1.314649224E0,1.150442511E-1
1.749623650E1,-7.209187150E-1,1.273110390E0,2.500454783E-1
1.750647750E1,-8.162136674E-1,1.191865325E0,3.129645884E-1
1.751621250E1,-8.211005926E-1,1.053809762E0,2.860865295E-1
1.752627850E1,-7.087013721E-1,9.224737287E-1,2.054523081E-1
1.753622550E1,-5.437678099E-1,7.398250103E-1,1.217637658E-1
1.754619250E1,-3.910515010E-1,5.785565972E-1,4.540561140E-2
1.755623350E1,-2.951456606E-1,4.594378769E-1,3.255907446E-3
1.756621550E1,-2.676567137E-1,3.983513415E-1,-2.241879702E-3
1.757628650E1,-2.780414224E-1,3.971296251E-1,7.531963289E-3
1.758621450E1,-2.658241391E-1,3.983513415E-1,2.769051678E-2
1.759628950E1,-1.833573133E-1,4.612704813E-1,3.074484132E-2
1.760622050E1,-7.523415983E-2,5.474024415E-1,3.379917145E-2
1.761628550E1,2.616946585E-2,6.378104687E-1,4.051868618E-2
1.762626950E1,9.886243194E-2,6.927883625E-1,7.045108825E-2
1.763651150E1,1.171883866E-1,7.007296085E-1,1.187094450E-1
1.764654350E1,8.359079808E-2,6.310909986E-1,1.804068238E-1
1.765651450E1,2.189340815E-2,5.186917782E-1,2.463802695E-1
1.766626550E1,-4.652349651E-2,3.818579912E-1,2.940277755E-1
1.767624050E1,-1.027230993E-1,2.047070563E-1,3.215166926E-1
1.768627150E1,-1.454836726E-1,1.094120741E-1,3.483947814E-1
1.769657950E1,-1.668639630E-1,7.092757523E-2,3.789380491E-1
1.770629450E1,-1.631987691E-1,8.192314208E-2,4.162008166E-1
1.771621450E1,-1.418184787E-1,1.399553418E-1,4.607939720E-1
1.772625550E1,-1.405967474E-1,3.122193515E-1,4.504092634E-1
1.773636950E1,-1.387641579E-1,3.665863574E-1,4.223094583E-1
1.774643350E1,-1.222707853E-1,4.233968258E-1,3.850466907E-1
1.775636250E1,-9.050579369E-2,4.783746898E-1,3.435078561E-1
1.776627350E1,-6.240599602E-2,5.199134946E-1,2.842539251E-1
1.777634250E1,-4.224744439E-2,5.119722486E-1,2.170587480E-1
1.778628050E1,-1.536937244E-2,4.502748847E-1,1.547504961E-1
1.779644150E1,2.250427380E-2,3.287127018E-1,1.156551093E-1
1.780623350E1,3.777590394E-2,2.450241596E-1,1.235963553E-1
1.781620850E1,4.178317264E-3,2.199786901E-1,1.706329882E-1
1.782619150E1,-8.256454766E-2,2.517437041E-1,2.262217253E-1
1.783626950E1,-1.864116490E-1,2.847304046E-1,2.683714330E-1
1.784624950E1,-2.603263259E-1,2.719022334E-1,3.068559468E-1
1.785620450E1,-2.725436389E-1,1.833267659E-1,3.410643935E-1
1.786626650E1,-2.444438338E-1,9.047526121E-2,3.581686020E-1
1.787623750E1,-2.212309688E-1,-2.009135298E-2,3.227384388E-1
1.788620850E1,-1.974072158E-1,-1.978531480E-1,2.066740394E-1
1.789631150E1,-1.589227021E-1,-4.702990353E-1,-4.500244558E-2
1.790625850E1,-1.467054039E-1,-7.690121531E-1,-4.066346586E-1
1.791621850E1,-1.894659698E-1,-8.362073302E-1,-7.151216269E-1
1.792641750E1,-2.438329756E-1,-6.028568149E-1,-8.653944731E-1
1.793625450E1,-2.920913398E-1,-4.996205568E-1,-7.792624831E-1
1.794633650E1,-2.053484619E-1,-7.274733186E-1,-3.742588162E-1
1.795642050E1,4.144109786E-2,-9.266154170E-1,9.549655765E-2
1.796631650E1,1.367360801E-1,-8.954612613E-1,5.023328066E-1
1.797622350E1,-4.564140737E-1,-5.148922205E-1,1.003853202E0
1.798621950E1,-6.555561423E-1,-3.139175177E-1,9.195537567E-1
1.799620750E1,-6.396736503E-1,-3.010893464E-1,7.582853436E-1
1.800639750E1,-4.967311919E-1,-5.875852108E-1,4.614048302E-1
1.801626050E1,-1.460945457E-1,-1.035960197E0,1.113790572E-1
1.802633250E1,3.334346712E-1,-1.427524805E0,-8.348695934E-2
1.803619550E1,7.866967320E-1,-1.616893053E0,-9.753685445E-2
1.804621550E1,9.778975248E-1,-1.794654846E0,-4.500244558E-2
1.805618450E1,8.905438185E-1,-1.864293456E0,4.662734270E-2
1.806620950E1,7.396600842E-1,-1.731735706E0,1.510853022E-1
1.807627050E1,6.229848266E-1,-1.524652362E0,2.549324036E-1
1.808641550E1,5.680069327E-1,-1.373157859E0,3.270144761E-1
1.809634550E1,5.722830296E-1,-1.345668912E0,3.654989898E-1
1.810614550E1,6.431434155E-1,-1.301075697E0,3.734402359E-1
1.811627350E1,7.048407793E-1,-1.337727666E0,3.600012064E-1
1.812619150E1,6.523063779E-1,-1.551530480E0,3.654989898E-1
1.813618550E1,6.028262973E-1,-1.445239902E0,3.654989898E-1
1.814620750E1,6.223739982E-1,-1.268089056E0,3.422861099E-1
1.815634950E1,5.961067677E-1,-1.230826259E0,3.276253641E-1
1.816620650E1,6.003828049E-1,-1.072612166E0,3.380100727E-1
1.817619550E1,6.058806181E-1,-9.534934759E-1,3.349557221E-1
1.818614850E1,6.113783717E-1,-9.229502082E-1,3.092994094E-1
1.819634650E1,6.370347142E-1,-8.991264701E-1,2.561541200E-1
1.820626150E1,6.706323028E-1,-8.936286569E-1,1.981219202E-1
1.821620750E1,7.109494209E-1,-8.270443678E-1,1.578048170E-1
1.822620650E1,7.494339347E-1,-7.482427359E-1,1.407005936E-1
1.823635550E1,8.428963423E-1,-6.016350985E-1,1.706329882E-1
1.824625650E1,8.813808560E-1,-5.698701143E-1,1.889589429E-1
1.825619750E1,9.003176689E-1,-5.900286436E-1,1.901806742E-1
1.826641450E1,9.143675566E-1,-6.853235960E-1,1.755199134E-1
1.827631750E1,9.131458402E-1,-7.732881904E-1,1.431440562E-1
1.828629250E1,9.174218774E-1,-7.457993031E-1,1.327593476E-1
1.829631950E1,8.917655349E-1,-6.944866180E-1,1.278724223E-1
1.830639850E1,8.227377534E-1,-6.920431256E-1,1.266506910E-1
1.831626350E1,7.341623306E-1,-7.048712969E-1,1.101573259E-1
1.832626750E1,6.126001477E-1,-7.219755650E-1,7.655973732E-2
1.833623850E1,4.482773542E-1,-7.793968916E-1,1.974926703E-2
1.834627850E1,2.546330690E-1,-8.013880253E-1,-6.638272852E-2
1.835619650E1,4.571715370E-2,-7.396906018E-1,-1.457952112E-1
1.836622750E1,-1.882442385E-1,-5.998024940E-1,-2.044382691E-1
1.837662050E1,-4.313686192E-1,-3.774475157E-1,-2.514749169E-1
1.838623650E1,-6.543343663E-1,-4.208250344E-2,-2.960680723E-1
1.839640350E1,-8.308744431E-1,3.781928122E-1,-3.510459363E-1
1.840630450E1,-9.255585670E-1,9.004825354E-1,-4.261823595E-1
1.841647450E1,-9.750386477E-1,1.453926563E0,-5.391924381E-1
1.842642450E1,-1.053840280E0,1.910242915E0,-6.931304932E-1
1.843626650E1,-1.134474516E0,2.248662233E0,-9.112094045E-1
1.844630250E1,-1.195561051E0,2.497284412E0,-1.165329337E0
1.845626850E1,-1.195561051E0,2.658552885E0,-1.349810600E0
1.846629850E1,-1.102098703E0,2.547375202E0,-1.435942650E0
1.847628250E1,-9.573235512E-1,2.084950209E0,-1.432277441E0
1.848618350E1,-8.363722563E-1,1.545556307E0,-9.454178214E-1
1.849624150E1,-7.319142818E-1,8.613871932E-1,-5.379707217E-1
1.850624150E1,-6.799907088E-1,8.345091343E-1,-2.142121196E-1
1.851628750E1,-5.743110180E-1,9.664559960E-1,-8.898474276E-2
1.852623050E1,-4.264816940E-1,1.052588105E0,-9.448253363E-2
1.853614650E1,-1.888551116E-1,1.018990517E0,-1.934427023E-1
1.854632350E1,1.013058946E-1,8.736044765E-1,-3.321091235E-1
1.855638550E1,3.407650590E-1,6.585798860E-1,-4.603908062E-1
1.856619550E1,4.739336967E-1,5.131939650E-1,-5.196447372E-1
1.857620550E1,4.684358835E-1,6.176519394E-1,-4.799385071E-1
1.858652950E1,2.918958366E-1,9.762298465E-1,-3.302765191E-1
1.859624950E1,-9.774044156E-5,1.363518476E0,-1.366322339E-1
1.860630950E1,-3.501235247E-1,1.593814611E0,4.296214879E-2
1.861622450E1,-6.586104631E-1,1.602977633E0,1.724655777E-1
1.862631150E1,-8.473678231E-1,1.486913204E0,2.500454783E-1
1.863622550E1,-8.901283741E-1,1.311594963E0,2.885299921E-1
1.864757050E1,-8.039963841E-1,1.069081426E0,2.512671947E-1
1.865635850E1,-6.347867250E-1,8.326765299E-1,1.681895256E-1
1.866622850E1,-4.851247370E-1,6.182628274E-1,1.187094450E-1
1.867624850E1,-3.653951585E-1,4.973115027E-1,6.984022260E-2
1.868626250E1,-2.774305642E-1,4.264511466E-1,4.907080531E-2
1.869632550E1,-2.371134460E-1,4.258402884E-1,6.984022260E-2
1.870617250E1,-2.200092375E-1,4.716551900E-1,9.916175157E-2
1.871704850E1,-2.139005810E-1,5.260221362E-1,1.315376163E-1
1.872623050E1,-1.980180889E-1,5.944390893E-1,1.608591378E-1
1.873628450E1,-1.674748212E-1,6.652994156E-1,1.828502864E-1
1.874623750E1,-1.057774201E-1,7.850289941E-1,2.353847027E-1
1.875638950E1,-8.806233108E-2,7.825855613E-1,2.592084408E-1
1.876625850E1,-7.706675678E-2,7.135577798E-1,2.769235373E-1
1.877618850E1,-6.912551075E-2,5.932173133E-1,2.775343955E-1
1.878620050E1,-5.324301124E-2,4.215642214E-1,2.604301870E-1
1.879647450E1,-2.514321543E-2,2.297525257E-1,2.268325835E-1
1.880630750E1,1.150869951E-2,9.963823855E-2,1.944567263E-1
1.881626650E1,4.816061258E-2,3.122132644E-2,1.761307716E-1
1.882614050E1,6.648657471E-2,1.228450611E-2,1.865154803E-1
1.883625850E1,5.671272427E-2,3.977343813E-2,2.121718228E-1
1.884620250E1,3.227811679E-2,1.081903428E-1,2.378281653E-1
1.885620050E1,6.010912359E-3,1.967658103E-1,2.811996043E-1
1.886616950E1,-4.224744439E-2,2.877847552E-1,3.361774683E-1
1.887622550E1,-1.247142479E-1,3.720841408E-1,3.838249445E-1
1.888632650E1,-2.200092375E-1,4.374467134E-1,3.990965784E-1
1.889618350E1,-2.951456606E-1,4.362249970E-1,3.783271611E-1
1.890615850E1,-2.994217277E-1,4.172881842E-1,3.288470805E-1
1.891639650E1,-2.383351922E-1,3.788036704E-1,2.695931494E-1
1.892628650E1,-1.485379934E-1,3.299344480E-1,2.256108522E-1
1.893631450E1,-6.301686168E-2,2.792326212E-1,1.981219202E-1
1.894617350E1,-9.774044156E-5,2.511328161E-1,1.852937490E-1
1.895627750E1,3.044552356E-2,2.486893386E-1,1.871263534E-1
1.896620350E1,4.021936655E-2,2.334177047E-1,1.859046221E-1
1.897616350E1,3.288898245E-2,2.273090631E-1,1.810176969E-1
1.898616850E1,1.123990864E-3,2.053179145E-1,1.730764508E-1
1.899619350E1,-8.806233108E-2,2.089831084E-1,1.400897205E-1
1.900621050E1,-3.635625541E-1,7.581448555E-2,-2.074926049E-1
1.901616550E1,-4.564140737E-1,-1.996857375E-1,-5.410250425E-1
1.902617850E1,-4.942876995E-1,-5.735352635E-1,-8.018645048E-1
1.903614450E1,-3.592865169E-1,-1.046344876E0,-7.523844242E-1
1.904624750E1,4.205196351E-2,-1.437298656E0,-3.382177651E-1
1.905644850E1,2.637960613E-1,-1.259536862E0,1.425331831E-1
1.906623350E1,2.033203840E-1,-8.355965018E-1,5.041653514E-1
1.907620350E1,1.700648665E-2,-5.307747126E-1,7.924937606E-1
1.908623050E1,-2.310048044E-1,-2.228986174E-1,1.013016105E0
1.909640450E1,-5.089484453E-1,-1.886962354E-2,1.123582721E0
1.910628250E1,-6.579995751E-1,-1.172189265E-1,1.121750116E0
1.911619050E1,-5.217766166E-1,-5.313856006E-1,9.299384356E-1
1.912637550E1,-5.568647385E-2,-9.687650800E-1,6.269493103E-1
1.913618850E1,5.594548583E-1,-1.366438270E0,3.080776632E-1
1.914616250E1,1.099459648E0,-1.641938567E0,8.266839385E-2
1.915619450E1,1.356633902E0,-1.834971905E0,1.423310488E-3
1.916627050E1,1.287606120E0,-1.875899911E0,3.685349226E-2
1.917617150E1,1.048146963E0,-1.720740199E0,1.425331831E-1
1.918621250E1,8.337333202E-1,-1.523430705E0,2.622627616E-1
1.919620450E1,7.341623306E-1,-1.474561453E0,3.734402359E-1
1.920616050E1,7.091168165E-1,-1.502661228E0,4.601831138E-1
1.921618450E1,7.133929133E-1,-1.517932892E0,5.176044106E-1
1.922621650E1,6.901800036E-1,-1.495330930E0,5.469259620E-1
1.923623450E1,6.150435805E-1,-1.422026992E0,5.646410584E-1
1.924638050E1,4.757662714E-1,-1.491054773E0,5.224913359E-1
1.925643450E1,3.847473562E-1,-1.586960673E0,3.380100727E-1
1.926618350E1,4.140688777E-1,-1.524652362E0,2.787561417E-1
1.927614750E1,4.702684879E-1,-1.444018245E0,2.182804793E-1
1.928641050E1,5.484592915E-1,-1.335895061E0,1.797959656E-1
1.929618350E1,6.541389823E-1,-1.179513574E0,1.303158849E-1
1.930623650E1,7.439361811E-1,-1.026797295E0,8.816617727E-2
1.931616150E1,8.056335449E-1,-8.893526196E-1,6.556416303E-2
1.932633750E1,8.441180587E-1,-7.018169761E-1,8.205752820E-2
1.933645250E1,8.667200804E-1,-5.038966537E-1,1.321484745E-1
1.934630850E1,8.771047592E-1,-3.853887618E-1,1.846828908E-1
1.935620350E1,8.917655349E-1,-3.328543603E-1,2.280543149E-1
1.936626550E1,8.984850645E-1,-3.401847184E-1,2.543215156E-1
1.937648650E1,8.850460052E-1,-3.951626122E-1,2.610410452E-1
1.938629850E1,8.483940959E-1,-4.727424979E-1,2.421042323E-1
1.939620750E1,7.757011652E-1,-5.918612480E-1,2.091175020E-1
1.940617150E1,6.779627204E-1,-6.853235960E-1,1.626917422E-1
1.941634850E1,5.380745530E-1,-7.103691101E-1,1.278724223E-1
1.942631050E1,3.548149765E-1,-6.938757300E-1,9.916175157E-2
1.943621650E1,1.452881843E-1,-6.798258424E-1,4.357301444E-2
1.944619950E1,-7.706675678E-2,-6.028568149E-1,-4.316985235E-2
1.945638650E1,-3.189693987E-1,-4.629686475E-1,-1.537364572E-1
1.946624750E1,-5.914152861E-1,-3.126958013E-1,-2.404793203E-1
1.947623150E1,-8.705806732E-1,-1.801380515E-1,-3.143940270E-1
1.948626850E1,-1.100266099E0,9.291872382E-2,-4.066346586E-1
1.949633250E1,-1.238321662E0,7.282185555E-1,-5.312511921E-1
1.950630150E1,-1.372101068E0,1.666507602E0,-7.279497981E-1
1.951625450E1,-1.623166680E0,2.861970901E0,-1.278950214E0
1.952617450E1,-1.478391647E0,2.665883064E0,-1.661351919E0
1.953623750E1,-1.236489058E0,2.379387379E0,-1.902643681E0
1.954622650E1,-1.050786018E0,2.011646509E0,-1.937463045E0
1.955620050E1,-9.096760750E-1,1.695218325E0,-1.756036043E0
1.956615550E1,-8.314853311E-1,1.471030712E0,-1.332706451E0
1.957622550E1,-9.084543586E-1,1.246232390E0,-7.639908791E-1
1.958619250E1,-1.065446734E0,1.034873009E0,-2.581944168E-1
1.959659650E1,-1.053840280E0,9.682886004E-1,4.479474574E-2
1.960617150E1,-7.862812877E-1,1.005551457E0,1.486418396E-1
1.961638050E1,-3.684494793E-1,9.640125632E-1,6.067724526E-2
1.962640350E1,5.060407519E-2,9.188085198E-1,-1.256366670E-1
1.963629550E1,4.079602361E-1,9.310258031E-1,-3.541002572E-1
1.964626250E1,7.170580626E-1,8.876543641E-1,-6.253244877E-1
1.965639850E1,8.807699680E-1,7.605944276E-1,-7.713212371E-1
1.966659550E1,8.618331552E-1,8.351199627E-1,-8.177469969E-1
1.967660950E1,5.924415588E-1,1.077633500E0,-8.049188256E-1
1.968623550E1,7.870388031E-2,1.202250004E0,-5.813421607E-1
1.969624150E1,-5.144462585E-1,1.282884240E0,-1.787819415E-1
1.970624350E1,-1.018410087E0,1.232793331E0,2.433259487E-1
1.971627650E1,-1.328729630E0,1.212023854E0,5.285999775E-1
1.972626950E1,-1.409974813E0,1.218743443E0,5.970168710E-1
1.973623450E1,-1.317123294E0,1.090461731E0,5.487585664E-1
1.974643050E1,-1.140583158E0,8.852109313E-1,4.595722556E-1
1.975640650E1,-9.469388723E-1,6.451408863E-1,3.441187143E-1
1.976620750E1,-7.612358332E-1,4.160664380E-1,2.237782627E-1
1.977621850E1,-4.362555444E-1,2.065396458E-1,7.228367776E-2
1.978615550E1,-3.965492845E-1,2.315851301E-1,5.640118569E-2
1.979638450E1,-3.397388160E-1,3.983513415E-1,3.624262661E-2
1.980631750E1,-2.242852896E-1,6.207062602E-1,5.699368194E-3
1.981623150E1,-5.812993646E-2,8.167940378E-1,-1.384832058E-2
1.982620950E1,1.098580062E-1,9.377453327E-1,-1.934610680E-2
1.983630050E1,2.271441221E-1,9.786732793E-1,-2.852745354E-3
1.984623350E1,2.674612403E-1,9.212519526E-1,3.807522357E-2
1.985614650E1,2.393614352E-1,7.416576147E-1,9.549655765E-2
1.986616950E1,1.660576016E-1,4.777638614E-1,1.694112569E-1
1.987618750E1,7.381695509E-2,1.979875416E-1,2.549324036E-1
1.988644050E1,-2.636494674E-2,8.008446544E-3,3.428969979E-1
1.989622950E1,-1.247142479E-1,-5.857586488E-2,4.345267713E-1
1.990620950E1,-2.022941411E-1,-5.002374947E-2,5.163826942E-1
1.991621350E1,-2.407786548E-1,3.549738228E-2,5.713605285E-1
1.992652950E1,-2.340591252E-1,1.766072512E-1,5.927408338E-1
1.993616350E1,-1.851899177E-1,3.262692392E-1,5.817452669E-1
1.994618850E1,-1.027230993E-1,4.453879893E-1,5.469259620E-1
1.995629750E1,-6.206393242E-3,5.205243826E-1,5.005002022E-1
1.996624150E1,7.198435813E-2,5.590088964E-1,4.400245547E-1
1.997626350E1,1.190209836E-1,5.516784787E-1,3.416752517E-1
1.998629250E1,1.452881843E-1,5.009766817E-1,2.133935541E-1
1.999623950E1,1.599489450E-1,4.124012589E-1,8.633358032E-2
2.000627150E1,1.532294303E-1,2.651827335E-1,5.088502541E-3
