"Time (s)","Acceleration x (m/s^2)","Acceleration y (m/s^2)","Acceleration z (m/s^2)"
0.000000000E0,-2.320020914E0,-6.595950127E0,-2.830257893E0
2.511667000E-3,-2.344574690E0,-6.749859810E0,-3.231500626E0
5.023282000E-3,-2.185275316E0,-7.072051525E0,-3.768686533E0
7.534948000E-3,-1.309727907E0,-7.481079578E0,-3.420144558E0
1.004661500E-2,-1.612755895E0,-8.169180870E0,-1.849309444E0
1.255828200E-2,-1.324100733E0,-1.116053486E1,-8.024852872E-1
1.506994800E-2,-1.910992980E0,-1.446988773E1,-3.084777594E0
1.758161500E-2,-2.594902039E0,-1.581674576E1,-4.443612576E0
2.009328200E-2,-3.023093939E0,-1.676415825E1,-2.485907793E0
2.260494800E-2,-1.290564060E0,-1.825953484E1,-7.078639269E-1
2.511661500E-2,6.779204011E-1,-1.947643852E1,3.108133376E-1
2.762828200E-2,1.154021740E0,-1.978904915E1,1.697196603E0
3.013994800E-2,6.635475755E-1,-1.913508224E1,2.428416491E0
3.265161500E-2,6.647452712E-2,-1.786068726E1,2.074484348E0
3.516328200E-2,-7.132537365E-1,-1.640783119E1,1.136055708E0
3.767489600E-2,-1.531309605E0,-1.467170715E1,-1.497174054E-2
4.018656300E-2,-2.200247049E0,-1.292540359E1,-1.019276142E0
4.269822900E-2,-2.869184494E0,-1.152584457E1,-1.821162581E0
4.520989600E-2,-3.249466658E0,-1.046285152E1,-2.212823391E0
4.772156300E-2,-3.403376102E0,-9.654975891E0,-2.349365473E0
5.023322900E-2,-3.336302757E0,-9.231575012E0,-2.528427601E0
5.274489600E-2,-3.172212362E0,-8.977055550E0,-2.636822939E0
5.525656300E-2,-2.897930145E0,-8.707564354E0,-2.990754843E0
5.776822900E-2,-2.590111256E0,-8.601564407E0,-3.349477768E0
6.027989600E-2,-2.397874117E0,-8.399745941E0,-3.486020088E0
6.279156300E-2,-2.239173651E0,-8.202118874E0,-3.330314159E0
6.530322900E-2,-2.046337605E0,-8.231463432E0,-3.335104942E0
6.781484400E-2,-1.930755734E0,-8.414118767E0,-3.405771732E0
7.032651100E-2,-1.800801039E0,-8.923756599E0,-3.387206554E0
7.283817700E-2,-1.536100626E0,-9.967586517E0,-3.467455149E0
7.534984400E-2,-1.521727800E0,-1.095811653E1,-3.518958092E0
7.786151100E-2,-1.497772932E0,-1.158812714E1,-3.618370295E0
8.037317700E-2,-1.772055268E0,-1.189115524E1,-3.420144558E0
8.288484400E-2,-2.003218889E0,-1.210794640E1,-2.901523352E0
8.539651100E-2,-2.243964434E0,-1.213669205E1,-2.703297615E0
8.790817700E-2,-2.340382576E0,-1.272358418E1,-2.901523352E0
9.041984400E-2,-2.205636978E0,-1.340150452E1,-3.188980818E0
9.293151100E-2,-2.421828747E0,-1.346438599E1,-3.217127800E0
9.544317700E-2,-2.513455868E0,-1.347875881E1,-2.557173252E0
9.795479200E-2,-2.758992434E0,-1.330029583E1,-1.797806621E0
1.004664590E-1,-2.898529053E0,-1.308889484E1,-1.561851978E0
1.029781250E-1,-2.946438551E0,-1.293019390E1,-1.387580991E0
1.054897920E-1,-2.999737978E0,-1.297810364E1,-1.283377647E0
1.080014590E-1,-2.888947010E0,-1.299726772E1,-1.439083695E0
1.105131250E-1,-2.807500839E0,-1.276670265E1,-1.439083695E0
1.130247920E-1,-2.908110857E0,-1.254032993E1,-1.439083695E0
1.155364590E-1,-3.023692846E0,-1.222772026E1,-1.660665512E0
1.180481250E-1,-3.076992273E0,-1.192469215E1,-1.778642774E0
1.205597920E-1,-3.375229359E0,-1.169412708E1,-1.458247542E0
1.230714590E-1,-3.625556707E0,-1.144859123E1,-1.325897336E0
1.255831250E-1,-3.620765924E0,-1.116472626E1,-1.552270055E0
1.280947920E-1,-3.384811163E0,-1.095332527E1,-1.731930971E0
1.306064070E-1,-3.086574078E0,-1.087128067E1,-1.887038231E0
1.331180730E-1,-2.764382124E0,-1.074132538E1,-2.005015612E0
1.356297400E-1,-2.465546370E0,-1.062634277E1,-1.991241574E0
1.381414070E-1,-2.152936459E0,-1.046285152E1,-2.057117224E0
1.406530730E-1,-1.907399774E0,-1.028917885E1,-2.184676409E0
1.431647400E-1,-1.686416864E0,-1.004424191E1,-2.151738644E0
1.456764070E-1,-1.479207993E0,-9.813077927E0,-2.184676409E0
1.481880730E-1,-1.219298601E0,-9.438185692E0,-2.363738537E0
1.506997400E-1,-1.108507752E0,-9.173484802E0,-2.250552177E0
1.532114070E-1,-1.041434288E0,-8.856083870E0,-2.071490049E0
1.557230730E-1,-8.875247836E-1,-8.451847076E0,-2.094846010E0
1.582347400E-1,-9.162705541E-1,-7.956582069E0,-2.193659544E0
1.607463540E-1,-9.839428067E-1,-7.629599094E0,-2.146947622E0
1.632580210E-1,-9.641801119E-1,-7.220571041E0,-2.179885387E0
1.657696880E-1,-1.098925829E0,-6.720515251E0,-2.260133982E0
1.682813540E-1,-1.137852311E0,-6.171950340E0,-2.250552177E0
1.707930210E-1,-1.334880471E0,-5.570685387E0,-2.189467430E0
1.733046880E-1,-1.494179726E0,-4.945465565E0,-2.349365473E0
1.758163540E-1,-1.580416918E0,-4.248381138E0,-2.557173252E0
1.783280210E-1,-1.739117384E0,-3.671070814E0,-2.524235487E0
1.808396880E-1,-1.936744452E0,-3.435116291E0,-2.203241348E0
1.833513540E-1,-1.898416758E0,-3.497997522E0,-2.151738644E0
1.858630210E-1,-2.071490049E0,-3.517161369E0,-2.373320341E0
1.883746880E-1,-2.403862715E0,-3.463861942E0,-1.943930864E0
1.908863020E-1,-3.168619156E0,-3.425534248E0,-1.212710977E0
1.933979690E-1,-4.016019821E0,-3.574652910E0,-8.497959971E-1
1.959096360E-1,-4.275928974E0,-4.084290981E0,-6.563611031E-1
1.984213020E-1,-4.444211483E0,-4.834674358E0,-3.168020248E-1
2.009329690E-1,-4.708911896E0,-6.018041134E0,-1.137852296E-1
2.034446360E-1,-4.742448807E0,-6.860051632E0,-1.143840998E-1
2.059563020E-1,-4.521465778E0,-7.566717625E0,-4.114234447E-1
2.084679690E-1,-4.718493938E0,-7.927237511E0,-6.940898895E-1
2.109796360E-1,-4.477748394E0,-8.345847130E0,-1.236665845E0
2.134913020E-1,-4.198675156E0,-9.014185905E0,-1.868473291E0
2.160029690E-1,-3.765692234E0,-9.923270226E0,-2.227196217E0
2.185146360E-1,-3.573455095E0,-1.054848957E1,-2.297862768E0
2.210262500E-1,-3.578246117E0,-1.096709919E1,-2.321218729E0
2.235379170E-1,-3.212336779E0,-1.161627388E1,-2.212823391E0
2.260495840E-1,-2.981173038E0,-1.217442036E1,-2.349964380E0
2.285612500E-1,-2.875771999E0,-1.228042030E1,-2.637421846E0
2.310729170E-1,-2.668563128E0,-1.216483879E1,-2.944043159E0
2.335845840E-1,-2.702099800E0,-1.185222912E1,-3.094958305E0
2.360962500E-1,-2.702099800E0,-1.186660194E1,-2.967399120E0
2.386079170E-1,-2.408653736E0,-1.204925728E1,-2.255342960E0
2.411195840E-1,-2.009207726E0,-1.210195732E1,-1.991241574E0
2.436312500E-1,-1.807388544E0,-1.210195732E1,-1.920574903E0
2.461429170E-1,-1.581015825E0,-1.227083874E1,-1.755286932E0
2.486545840E-1,-1.268405914E0,-1.246307564E1,-1.698993206E0
2.511662500E-1,-8.258412480E-1,-1.278047657E1,-2.014597416E0
2.536778650E-1,-5.270052552E-1,-1.299666882E1,-1.972676635E0
2.561895320E-1,-3.683048189E-1,-1.302541447E1,-1.825953484E0
2.587011980E-1,-3.491410017E-1,-1.288587761E1,-1.595388651E0
2.612128650E-1,-3.108133376E-1,-1.287150478E1,-1.331287146E0
2.637245320E-1,-2.383501083E-1,-1.295355034E1,-1.198937058E0
2.662361980E-1,-2.048134208E-1,-1.291522217E1,-9.821462035E-1
2.687478650E-1,-2.431410700E-1,-1.289066887E1,-8.120672107E-1
2.712595320E-1,-1.760676801E-1,-1.311225033E1,-6.186323166E-1
2.737711980E-1,-2.629037797E-1,-1.329011536E1,-6.377961636E-1
2.762828650E-1,-2.964404821E-1,-1.341527843E1,-8.545869589E-1
2.787945320E-1,-3.928584754E-1,-1.336677074E1,-1.019874930E0
2.813061980E-1,-6.527678967E-1,-1.317932415E1,-1.123479486E0
2.838178130E-1,-9.030954242E-1,-1.282838631E1,-1.430100679E0
2.863294790E-1,-1.158213854E0,-1.232353973E1,-1.897219062E0
2.888411980E-1,-1.297750473E0,-1.192409325E1,-2.146947622E0
2.913530730E-1,-1.403151512E0,-1.137073803E1,-2.250552177E0
2.938650000E-1,-1.513942480E0,-1.090421867E1,-2.203840256E0
2.963769270E-1,-1.461241961E0,-1.047602654E1,-2.284088850E0
2.988888540E-1,-1.403750420E0,-1.004364300E1,-2.260133982E0
3.014008340E-1,-1.244451046E0,-9.831643105E0,-2.166111469E0
3.039127610E-1,-1.134259105E0,-9.586705208E0,-2.161320448E0
3.064246880E-1,-9.803496003E-1,-9.345959663E0,-2.284088850E0
3.089366150E-1,-8.695586920E-1,-9.119586945E0,-2.448777914E0
3.114485420E-1,-7.539768815E-1,-8.841112137E0,-2.472732782E0
3.139604690E-1,-6.671407819E-1,-8.687203407E0,-2.420631170E0
3.164724480E-1,-6.575588584E-1,-8.566829681E0,-2.425421953E0
3.189843750E-1,-7.252311110E-1,-8.422502518E0,-2.515252352E0
3.214963020E-1,-7.443949580E-1,-8.287756920E0,-2.769772053E0
3.240082290E-1,-7.348130345E-1,-8.138638496E0,-2.963207006E0
3.265201570E-1,-7.396039963E-1,-8.056592941E0,-3.114122152E0
3.290321360E-1,-7.779316306E-1,-8.066175461E0,-3.118913174E0
3.315440630E-1,-8.887225389E-1,-7.965565205E0,-3.123105049E0
3.340559900E-1,-1.081558585E0,-7.767938137E0,-3.217726469E0
3.365679170E-1,-1.134259105E0,-7.777520180E0,-3.420743465E0
3.390798440E-1,-1.331886053E0,-7.772728920E0,-3.453681231E0
3.415917710E-1,-1.533705115E0,-7.676909924E0,-3.524347782E0
3.441037500E-1,-1.807987452E0,-7.537373066E0,-3.604596376E0
3.466156770E-1,-1.991241574E0,-7.523000240E0,-3.524347782E0
3.491276040E-1,-2.145151138E0,-7.672119141E0,-3.161432743E0
3.516395320E-1,-2.299060583E0,-7.748774052E0,-2.760190248E0
3.541514590E-1,-2.679342747E0,-7.960175037E0,-2.241569042E0
3.566634380E-1,-3.295579672E0,-8.421903610E0,-1.651682496E0
3.591753650E-1,-3.935172319E0,-8.840513229E0,-1.222891808E0
3.616872920E-1,-4.440618515E0,-9.047722816E0,-1.161208272E0
3.641992190E-1,-4.652618408E0,-9.350152016E0,-1.270202518E0
3.667111460E-1,-4.599917889E0,-9.831643105E0,-1.222891808E0
3.692230730E-1,-4.426245689E0,-1.013467121E1,-1.270202518E0
3.717350520E-1,-4.050754070E0,-1.069221878E1,-1.307931304E0
3.742469790E-1,-3.589025736E0,-1.119227505E1,-1.406744719E0
3.767589070E-1,-3.343489170E0,-1.120185661E1,-1.406744719E0
3.792708340E-1,-3.136879206E0,-1.101441002E1,-1.510349274E0
3.817827610E-1,-2.506269455E0,-1.114915562E1,-1.836134315E0
3.842947400E-1,-2.005614519E0,-1.097608280E1,-2.146947622E0
3.868066670E-1,-1.678631544E0,-1.055268192E1,-2.081072092E0
3.893185940E-1,-1.274394631E0,-1.045686245E1,-2.194258451E0
3.918305210E-1,-8.024852872E-1,-1.060538197E1,-2.448777914E0
3.943424480E-1,-3.886663914E-1,-1.073533726E1,-2.571546316E0
3.968543750E-1,-2.778755128E-1,-1.051435375E1,-2.566755295E0
3.993663540E-1,-4.180110097E-1,-9.845417023E0,-2.293670654E0
4.018782820E-1,-7.018752098E-1,-8.970468521E0,-2.057716131E0
4.043902090E-1,-6.970842481E-1,-8.724931717E0,-1.939738750E0
4.069021360E-1,-4.563386738E-1,-8.917168617E0,-2.142755508E0
4.094140630E-1,-6.485758424E-1,-8.426694870E0,-1.944529653E0
4.119260420E-1,-9.617846608E-1,-8.118875504E0,-1.840925217E0
4.144379690E-1,-1.212112188E0,-7.917056561E0,-1.501366138E0
4.169498960E-1,-1.616349101E0,-7.551147461E0,-9.444174170E-1
4.194618230E-1,-1.789422512E0,-7.657146931E0,-5.767114758E-1
4.219737500E-1,-1.722349048E0,-8.220084190E0,-7.372085452E-1
4.244857290E-1,-2.025377035E0,-8.272785187E0,-2.700901926E-1
4.269976570E-1,-2.184077501E0,-8.349440575E0,3.431523144E-1
4.295095840E-1,-1.958303690E0,-9.056705475E0,1.778642833E-1
4.320215110E-1,-1.967885613E0,-9.460942268E0,3.479432464E-1
4.345334380E-1,-2.039749861E0,-9.913088799E0,2.958416045E-1
4.370453650E-1,-1.741512895E0,-1.058621883E1,-1.124078274E0
4.395573440E-1,-1.601976275E0,-1.100482845E1,-4.788561821E0
4.420692710E-1,-2.963805914E0,-8.488977432E0,-3.359658718E0
4.445811980E-1,-4.547217369E0,-5.526369095E0,-2.123591661E0
4.470931250E-1,-5.322154522E0,-4.915522099E0,-1.552868962E0
4.496050520E-1,-5.129917145E0,-5.766515732E0,-1.124078274E0
4.521170320E-1,-5.822809696E0,-5.607815266E0,-1.690010071E0
4.546289590E-1,-6.125837326E0,-5.810233116E0,-2.533817530E0
4.571408860E-1,-5.861136913E0,-5.992888451E0,-3.232099533E0
4.596528130E-1,-5.476063728E0,-6.050379753E0,-3.783658266E0
4.621647400E-1,-5.312572479E0,-5.382041454E0,-5.213160038E0
4.646766670E-1,-5.259871960E0,-3.943556547E0,-7.594864845E0
4.671886460E-1,-5.047872066E0,-4.780776501E0,-1.263195705E1
4.697005730E-1,-6.934910297E0,-7.339746475E0,-8.429689407E0
4.722125000E-1,-7.545757294E0,-9.566343307E0,-2.454167843E0
4.747244270E-1,-5.062843800E0,-1.300026226E1,-5.067036152E0
4.772363540E-1,-1.958303690E0,-1.611737823E1,-5.670696735E0
4.797483340E-1,-1.101920158E-1,-1.794991875E1,-4.529251099E0
4.822602610E-1,1.246846557E0,-1.864700317E1,-4.250776768E0
4.847721880E-1,2.045738697E0,-1.832960320E1,-2.651794672E0
4.872841150E-1,3.017704010E0,-1.774750137E1,-1.185163021E0
4.897960420E-1,3.946550846E0,-1.690129852E1,-4.072313607E-1
4.923079690E-1,4.562787533E0,-1.561672306E1,2.203840315E-1
4.948199480E-1,4.731070042E0,-1.423632908E1,5.270052552E-1
4.973318750E-1,4.499906540E0,-1.294756126E1,8.521915078E-1
4.998438020E-1,4.038177967E0,-1.199535847E1,1.361829519E0
5.023557290E-1,3.363850832E0,-1.134558487E1,1.785829306E0
5.048676570E-1,2.541003942E0,-1.094194698E1,1.955908179E0
5.073796360E-1,1.809784055E0,-1.080241013E1,1.710371733E0
5.098915630E-1,1.058801532E0,-1.081199265E1,1.177377701E0
5.124034900E-1,4.521465898E-1,-1.088864803E1,3.617172539E-1
5.149154170E-1,2.874574251E-2,-1.105693054E1,-6.521690488E-1
5.174273440E-1,-2.311636806E-1,-1.123060226E1,-1.539094925E0
5.199392710E-1,-3.515364826E-1,-1.141325760E1,-2.246360064E0
5.224512500E-1,-3.802822232E-1,-1.152824020E1,-2.755998135E0
5.249631770E-1,-3.467455208E-1,-1.158633041E1,-3.194370747E0
5.274751040E-1,-2.742823064E-1,-1.158154011E1,-3.538720608E0
5.299870320E-1,-2.119998485E-1,-1.150907707E1,-3.699217796E0
5.324989590E-1,-1.443275809E-1,-1.138391304E1,-3.722573757E0
5.350109380E-1,-5.329939723E-2,-1.126413918E1,-3.557884455E0
5.375228650E-1,-5.809035525E-2,-1.116292953E1,-3.387805462E0
5.400347920E-1,-4.850843921E-2,-1.107130337E1,-3.123703957E0
5.425467190E-1,-1.976269856E-2,-1.097069263E1,-2.826664686E0
5.450586460E-1,-9.162705392E-2,-1.090781116E1,-2.567354202E0
5.475706250E-1,-1.155818403E-1,-1.084552956E1,-2.392484188E0
5.500825520E-1,-2.024179399E-1,-1.075869274E1,-2.321817636E0
5.525944790E-1,-3.036268950E-1,-1.072994709E1,-2.303252697E0
5.551064070E-1,-3.371635973E-1,-1.070599270E1,-2.223004103E0
5.576183340E-1,-4.048358798E-1,-1.072515583E1,-2.170902491E0
5.601302610E-1,-4.575363994E-1,-1.068203735E1,-2.223004103E0
5.626422400E-1,-4.479544759E-1,-1.069161987E1,-2.265523911E0
5.651541670E-1,-4.287906587E-1,-1.070599270E1,-2.288879633E0
5.676660940E-1,-4.623273611E-1,-1.077785683E1,-2.326608419E0
5.701780210E-1,-4.964629412E-1,-1.078743839E1,-2.402065992E0
5.726899480E-1,-5.156267285E-1,-1.083594704E1,-2.454167843E0
5.752019270E-1,-5.779091716E-1,-1.087427521E1,-2.463749647E0
5.777138540E-1,-6.455814838E-1,-1.088864803E1,-2.439794779E0
5.802257820E-1,-6.455814838E-1,-1.080181122E1,-2.439794779E0
5.827377090E-1,-6.695362329E-1,-1.072515583E1,-2.543998241E0
5.852496360E-1,-6.647452712E-1,-1.064311123E1,-2.491896629E0
5.877615630E-1,-6.839091182E-1,-1.049399281E1,-2.562563181E0
5.902735420E-1,-6.887000799E-1,-1.035445595E1,-2.511060476E0
5.927854690E-1,-6.695362329E-1,-1.017659187E1,-2.487105608E0
5.952973960E-1,-6.455814838E-1,-9.955608368E0,-2.506269455E0
5.978093230E-1,-5.832990408E-1,-9.772355080E0,-2.487105608E0
6.003212500E-1,-6.024628282E-1,-9.628026962E0,-2.487105608E0
6.028332290E-1,-6.312085986E-1,-9.329790115E0,-2.539207220E0
6.053451570E-1,-5.976719260E-1,-9.118389130E0,-2.609873772E0
6.078570840E-1,-5.443724990E-1,-8.935733795E0,-2.657184601E0
6.103690110E-1,-5.641351938E-1,-8.733315468E0,-2.624246836E0
6.128809380E-1,-5.641351938E-1,-8.579406738E0,-2.670958519E0
6.153928650E-1,-5.156267285E-1,-8.430288315E0,-2.746416092E0
6.179048440E-1,-5.060448647E-1,-8.296140671E0,-2.727851152E0
6.204167710E-1,-5.641351938E-1,-8.166186333E0,-2.746416092E0
6.229286980E-1,-6.312085986E-1,-8.098514557E0,-2.779952765E0
6.254406250E-1,-6.216266751E-1,-8.017067909E0,-2.727851152E0
6.279525520E-1,-6.216266751E-1,-7.978141308E0,-2.652393579E0
6.304645320E-1,-6.605532169E-1,-7.973350525E0,-2.360145330E0
6.329764590E-1,-6.701351404E-1,-7.944604397E0,-1.831942201E0
6.354883860E-1,-5.545532703E-1,-7.906276703E0,-1.143242121E0
6.380003130E-1,-4.677171707E-1,-7.867949486E0,-9.635812640E-1
6.405122400E-1,-5.401803851E-1,-7.882322311E0,-1.600778580E0
6.430242190E-1,-6.988808513E-1,-7.992514133E0,-2.345772266E0
6.455361460E-1,-8.527903557E-1,-8.146423340E0,-3.015308619E0
6.480480730E-1,-1.021671653E0,-8.382378578E0,-3.411760330E0
6.505600000E-1,-1.185163021E0,-8.536288261E0,-3.633342028E0
6.530719270E-1,-1.310326815E0,-8.656661034E0,-3.623760223E0
6.555838540E-1,-1.421117663E0,-8.796196938E0,-3.439907074E0
6.580958340E-1,-1.473818183E0,-8.915970802E0,-3.072201252E0
6.606077610E-1,-1.502563953E0,-9.036343575E0,-2.600291967E0
6.631196880E-1,-1.459445357E0,-9.209417343E0,-2.232585907E0
6.656316150E-1,-1.469027162E0,-9.291461945E0,-1.907399774E0
6.681435420E-1,-1.421117663E0,-9.445371628E0,-1.671445131E0
6.706555210E-1,-1.387580991E0,-9.618445396E0,-1.600778580E0
6.731674480E-1,-1.367818236E0,-9.666355133E0,-1.614552498E0
6.756793750E-1,-1.363027334E0,-9.738818169E0,-1.605569482E0
6.781913020E-1,-1.319908619E0,-9.815473557E0,-1.737320781E0
6.807032290E-1,-1.310326815E0,-9.844219208E0,-1.864880085E0
6.832151570E-1,-1.271999121E0,-9.897518158E0,-2.006213188E0
6.857271360E-1,-1.262417197E0,-9.945427895E0,-1.992439270E0
6.882390630E-1,-1.224089503E0,-9.993337631E0,-2.034360170E0
6.907509900E-1,-1.194744945E0,-1.000771046E1,-2.147546530E0
6.932629170E-1,-1.161208272E0,-1.001250172E1,-2.157128334E0
6.957748440E-1,-1.137253404E0,-9.945427895E0,-2.128981590E0
6.982868230E-1,-1.142044425E0,-9.892128944E0,-2.171501398E0
7.007987500E-1,-1.127671480E0,-9.858592033E0,-2.246958971E0
7.033106770E-1,-1.084552884E0,-9.877756119E0,-2.218811989E0
7.058226040E-1,-9.641801119E-1,-9.882546425E0,-2.214020967E0
7.083345320E-1,-9.210615158E-1,-9.810682297E0,-2.204439163E0
7.108464590E-1,-9.018976688E-1,-9.791518211E0,-2.294269562E0
7.133584380E-1,-9.018976688E-1,-9.714263916E0,-2.289478540E0
7.158703650E-1,-8.725530505E-1,-9.690309525E0,-2.279896736E0
7.183822920E-1,-8.533892035E-1,-9.728637695E0,-2.289478540E0
7.208942190E-1,-8.485983014E-1,-9.805891037E0,-2.256540775E0
7.234061460E-1,-8.198525310E-1,-9.882546425E0,-2.204439163E0
7.259181250E-1,-7.527791262E-1,-9.944828987E0,-2.194857121E0
7.284300520E-1,-7.431972027E-1,-1.005082893E1,-2.194857121E0
7.309419790E-1,-7.431972027E-1,-1.002687454E1,-2.299060583E0
7.334539070E-1,-7.431972027E-1,-1.000291920E1,-2.336789370E0
7.359658340E-1,-7.767339349E-1,-1.001250172E1,-2.331998348E0
7.384777610E-1,-8.150615692E-1,-1.006520176E1,-2.218811989E0
7.409897400E-1,-8.683609962E-1,-1.006999302E1,-2.181083202E0
7.435016670E-1,-8.731519580E-1,-1.016162014E1,-2.176292181E0
7.460135940E-1,-8.342254162E-1,-1.014245605E1,-2.232585907E0
7.485255210E-1,-7.815248966E-1,-1.014724731E1,-2.100834608E0
7.510374480E-1,-7.863158584E-1,-1.013766479E1,-1.992439270E0
7.535494270E-1,-8.252423406E-1,-1.009873867E1,-1.997230291E0
7.560613540E-1,-7.048695683E-1,-1.011311150E1,-1.997230291E0
7.585732820E-1,-6.419882774E-1,-1.018557453E1,-2.058315039E0
7.610852090E-1,-6.707339883E-1,-1.032032013E1,-2.072687864E0
7.635971360E-1,-8.635700345E-1,-1.045506573E1,-2.081670761E0
7.661091150E-1,-8.204513788E-1,-1.050776672E1,-2.100834608E0
7.686210420E-1,-7.431972027E-1,-1.045446682E1,-2.110416651E0
7.711329690E-1,-7.575700879E-1,-1.023827553E1,-2.143354416E0
7.736448960E-1,-6.569600105E-1,-1.010352993E1,-2.312834501E0
7.761568230E-1,-5.270052552E-1,-9.930456161E0,-2.511060476E0
7.786687500E-1,-4.832877815E-1,-9.670546532E0,-2.694913387E0
7.811807290E-1,-4.784968495E-1,-9.406445503E0,-2.681139469E0
7.836926570E-1,-5.222142935E-1,-9.237564087E0,-2.732642174E0
7.862045840E-1,-4.880787432E-1,-9.160908699E0,-2.718868256E0
7.887165110E-1,-4.784968495E-1,-9.136954308E0,-2.610472679E0
7.912283860E-1,-4.593330026E-1,-9.006999016E0,-2.535015106E0
7.937402090E-1,-5.078414679E-1,-8.997417450E0,-2.454766750E0
7.962520840E-1,-4.838866591E-1,-8.958491325E0,-2.364936113E0
7.987639590E-1,-4.982595444E-1,-8.910581589E0,-2.256540775E0
8.012758340E-1,-6.138413548E-1,-8.843507767E0,-2.233184814E0
8.037876570E-1,-5.605419874E-1,-8.939327240E0,-2.161919355E0
8.062995320E-1,-5.749148726E-1,-8.934535980E0,-2.185874224E0
8.088114070E-1,-5.797058344E-1,-8.905790329E0,-2.256540775E0
8.113232820E-1,-6.138413548E-1,-8.881835938E0,-2.246958971E0
8.138351040E-1,-6.665419340E-1,-8.910581589E0,-2.223603010E0
8.163469790E-1,-7.000786066E-1,-8.987236977E0,-2.270913601E0
8.188588540E-1,-7.342141867E-1,-9.112400055E0,-2.397874117E0
8.213707290E-1,-7.485870719E-1,-9.227982521E0,-2.454766750E0
8.238826040E-1,-7.150503397E-1,-9.353145599E0,-2.596099854E0
8.263944270E-1,-6.569600105E-1,-9.299846649E0,-2.723659039E0
8.289063020E-1,-6.473780870E-1,-9.247145653E0,-2.539806128E0
8.314181770E-1,-6.138413548E-1,-9.050117493E0,-2.548789263E0
8.339300520E-1,-7.677508593E-1,-8.968072891E0,-2.497286320E0
8.364418750E-1,-9.216603637E-1,-8.992027283E0,-2.449975729E0
8.389537500E-1,-1.119287372E0,-9.145936966E0,-2.360145330E0
8.414656250E-1,-1.230078220E0,-9.377100945E0,-2.379309177E0
8.439775000E-1,-9.557959437E-1,-9.511846542E0,-2.313433409E0
8.464893230E-1,-3.395590782E-1,-8.915371895E0,-3.511172771E0
8.490011980E-1,-6.282142401E-1,-8.636299133E0,-4.605307579E0
8.515130730E-1,-1.518733382E0,-9.117191315E0,-3.492008924E0
8.540249480E-1,-2.370924950E0,-9.949021339E0,-1.426507473E0
8.565367710E-1,-2.327207327E0,-1.000711155E1,-8.084740043E-1
8.590486460E-1,-1.206123471E0,-1.031013966E1,-3.323726356E-1
8.615605210E-1,-4.024403989E-1,-1.045446682E1,-7.994909883E-1
8.640723960E-1,-3.880675137E-1,-1.006460285E1,-1.808586359E0
8.665842190E-1,-5.228132010E-1,-9.973574638E0,-2.454766750E0
8.690960940E-1,-7.294232249E-1,-1.008376694E1,-2.827263594E0
8.716079690E-1,-7.635588050E-1,-1.031013966E1,-2.864992380E0
8.741198440E-1,-6.575588584E-1,-1.047363091E1,-2.676348448E0
8.766316670E-1,-5.467679501E-1,-1.055507755E1,-2.397874117E0
8.791435420E-1,-6.048583388E-1,-1.053591347E1,-2.105625629E0
8.816554170E-1,-6.048583388E-1,-1.043470478E1,-1.888834834E0
8.841672920E-1,-6.144402623E-1,-1.031493092E1,-1.813377261E0
8.866791150E-1,-6.671407819E-1,-1.024246693E1,-1.969083309E0
8.891909900E-1,-6.815136671E-1,-1.024725819E1,-2.185874224E0
8.917028650E-1,-6.671407819E-1,-1.017060280E1,-2.308642387E0
8.942147400E-1,-7.491859198E-1,-1.019455814E1,-2.355953217E0
8.967265630E-1,-8.018864393E-1,-1.014125824E1,-2.393682003E0
8.992384380E-1,-8.599767685E-1,-1.005981255E1,-2.431410789E0
9.017503130E-1,-8.312310576E-1,-1.006460285E1,-2.360145330E0
9.042621880E-1,-8.551858664E-1,-9.977766991E0,-2.289478540E0
9.067740110E-1,-7.635588050E-1,-9.944230080E0,-2.284687757E0
9.092858860E-1,-7.396039963E-1,-9.925066948E0,-2.318224430E0
9.117977610E-1,-8.360220194E-1,-9.934648514E0,-2.242766857E0
9.143096360E-1,-9.516038299E-1,-9.891530037E0,-2.124789476E0
9.168214590E-1,-1.004304409E0,-9.843021393E0,-2.063105822E0
9.193333340E-1,-1.052812815E0,-9.843021393E0,-2.058913708E0
9.218452090E-1,-9.803496003E-1,-9.809484482E0,-1.983456254E0
9.243570840E-1,-9.420219660E-1,-9.660366058E0,-2.039749861E0
9.268689070E-1,-1.013886333E0,-9.593292236E0,-2.100834608E0
9.293807820E-1,-1.139050007E0,-9.612456322E0,-2.011603117E0
9.318926570E-1,-1.206722260E0,-9.674738884E0,-1.945727468E0
9.344045320E-1,-1.187558532E0,-9.689111710E0,-2.039749861E0
9.369163540E-1,-1.158812761E0,-9.660366058E0,-2.054122925E0
9.394282290E-1,-1.129468083E0,-9.665157318E0,-2.021184921E0
9.419401040E-1,-1.149230838E0,-9.674738884E0,-2.030168056E0
9.444519790E-1,-1.149230838E0,-9.617247581E0,-2.087060690E0
9.469638540E-1,-1.091140509E0,-9.607666016E0,-2.152936459E0
9.494756770E-1,-1.081558585E0,-9.617247581E0,-2.167309284E0
9.519875520E-1,-1.071976662E0,-9.617247581E0,-2.152936459E0
9.544994270E-1,-1.048021913E0,-9.568738937E0,-2.157727242E0
9.570113020E-1,-1.048021913E0,-9.544784546E0,-2.157727242E0
9.595231250E-1,-1.038439989E0,-9.563947678E0,-2.205038071E0
9.620350000E-1,-1.028858066E0,-9.568738937E0,-2.233184814E0
9.645468750E-1,-1.019276142E0,-9.607067108E0,-2.299060583E0
9.670587500E-1,-9.953213334E-1,-9.645993233E0,-2.285286427E0
9.695705730E-1,-9.809484482E-1,-9.655574799E0,-2.275704622E0
9.720824480E-1,-8.941123486E-1,-9.635812759E0,-2.436201572E0
9.745943230E-1,-9.084852338E-1,-9.602275848E0,-2.336789370E0
9.771061980E-1,-8.222479820E-1,-9.578320503E0,-2.275704622E0
9.796180210E-1,-6.875023246E-1,-9.472320557E0,-2.464348555E0
9.821298960E-1,-7.497847676E-1,-9.357337952E0,-2.511659145E0
9.846417710E-1,-7.833214998E-1,-9.362129211E0,-2.449975729E0
9.871536460E-1,-7.785305381E-1,-9.419620514E0,-2.355953217E0
9.896654690E-1,-7.258300185E-1,-9.520829201E0,-2.408054829E0
9.921773440E-1,-7.306209803E-1,-9.684320450E0,-2.351162195E0
9.946892190E-1,-7.018752098E-1,-9.794512749E0,-2.308642387E0
9.972010940E-1,-6.342029572E-1,-9.847812653E0,-2.261331797E0
9.997129170E-1,-5.719205141E-1,-9.934049606E0,-2.228394032E0
1.002224792E0,-5.587453842E-1,-1.000172138E1,-2.377512455E0
1.004736667E0,-5.252086520E-1,-9.968185425E0,-2.405659437E0
1.007248542E0,-5.635363460E-1,-1.003046799E1,-2.443388224E0
1.009760365E0,-5.299996138E-1,-9.938840866E0,-2.387094259E0
1.012272240E0,-5.252086520E-1,-9.890931129E0,-2.344574690E0
1.014784115E0,-5.779091716E-1,-9.895721436E0,-2.316427708E0
1.017295990E0,-6.162368655E-1,-9.881348610E0,-2.387094259E0
1.019807813E0,-7.078639269E-1,-9.833439827E0,-2.462551832E0
1.022319688E0,-6.210278273E-1,-9.789721489E0,-2.476325989E0
1.024831563E0,-6.599543095E-1,-9.689111710E0,-2.505071640E0
1.027343438E0,-7.126548886E-1,-9.626230240E0,-2.523636580E0
1.029855261E0,-7.653554082E-1,-9.592694283E0,-2.523636580E0
1.032367136E0,-7.030729651E-1,-9.525620461E0,-2.452970028E0
1.034879011E0,-7.030729651E-1,-9.501666069E0,-2.481117010E0
1.037390886E0,-7.899090648E-1,-9.438784599E0,-2.495489836E0
1.039902709E0,-8.186547756E-1,-9.395666122E0,-2.509862661E0
1.042414584E0,-7.701463699E-1,-9.347756386E0,-2.467342854E0
1.044926459E0,-7.605644464E-1,-9.366919518E0,-2.462551832E0
1.047438334E0,-7.222367525E-1,-9.381293297E0,-2.424823046E0
1.049950157E0,-7.318186760E-1,-9.448366165E0,-2.400868416E0
1.052462032E0,-7.557734847E-1,-9.448366165E0,-2.452970028E0
1.054973907E0,-7.270277143E-1,-9.496275902E0,-2.387094259E0
1.057485782E0,-6.791181564E-1,-9.597484589E0,-2.391885281E0
1.059997604E0,-6.934910417E-1,-9.645394325E0,-2.377512455E0
1.062509479E0,-7.270277143E-1,-9.713067055E0,-2.391885281E0
1.065021354E0,-6.743271947E-1,-9.765767097E0,-2.462551832E0
1.067533229E0,-6.018639803E-1,-9.770558357E0,-2.467342854E0
1.070045104E0,-4.814911783E-1,-9.760975838E0,-2.448179007E0
1.072556927E0,-3.856720328E-1,-9.708275795E0,-2.434405088E0
1.075068802E0,-4.527454376E-1,-9.621439934E0,-2.372721434E0
1.077580677E0,-6.114459038E-1,-9.592694283E0,-2.500280619E0
1.080092552E0,-6.018639803E-1,-9.602275848E0,-2.438597202E0
1.082604375E0,-4.767002165E-1,-9.602275848E0,-2.420032263E0
1.085116250E0,-5.635363460E-1,-9.611857414E0,-2.354156494E0
1.087628125E0,-5.443724990E-1,-9.693902969E0,-2.334992647E0
1.090140000E0,-4.767002165E-1,-9.655574799E0,-2.269117117E0
1.092651823E0,-5.443724990E-1,-9.660366058E0,-2.363139629E0
1.095163698E0,-5.587453842E-1,-9.592694283E0,-2.396676302E0
1.097675573E0,-4.479544759E-1,-9.616648674E0,-2.367930651E0
1.100187448E0,-4.623273611E-1,-9.583111763E0,-2.302054882E0
1.102699271E0,-4.287906587E-1,-9.501666069E0,-2.245761156E0
1.105211146E0,-4.767002165E-1,-9.433993340E0,-2.208032370E0
1.107723021E0,-4.671183228E-1,-9.414829254E0,-2.188868523E0
1.110234896E0,-4.910731018E-1,-9.342965126E0,-2.198450327E0
1.112746719E0,-5.491634607E-1,-9.251338005E0,-2.184077501E0
1.115258594E0,-5.252086520E-1,-9.217801094E0,-2.193659544E0
1.117770469E0,-5.347905755E-1,-9.169293404E0,-2.203241348E0
1.120282344E0,-4.862821400E-1,-9.107010841E0,-2.203241348E0
1.122794167E0,-4.623273611E-1,-9.102219582E0,-2.193659544E0
1.125306042E0,-4.383725822E-1,-9.068682671E0,-2.226597309E0
1.127817917E0,-4.671183228E-1,-9.059101105E0,-2.170303583E0
1.130329792E0,-4.383725822E-1,-9.130965233E0,-2.212224483E0
1.132841615E0,-4.335816205E-1,-9.150129318E0,-2.208032370E0
1.135353490E0,-4.239996970E-1,-9.183666229E0,-2.203241348E0
1.137865365E0,-4.239996970E-1,-9.265710831E0,-2.165512562E0
1.140377240E0,-4.000449181E-1,-9.289666176E0,-2.231388330E0
1.142889063E0,-4.000449181E-1,-9.376502037E0,-2.240970135E0
1.145400938E0,-4.287906587E-1,-9.506456375E0,-2.236179113E0
1.147912813E0,-4.479544759E-1,-9.525620461E0,-2.226597309E0
1.150424688E0,-4.527454376E-1,-9.535202026E0,-2.184077501E0
1.152936511E0,-4.527454376E-1,-9.602275848E0,-2.151139736E0
1.155448386E0,-5.539544225E-1,-9.650784492E0,-2.141557932E0
1.157960261E0,-6.599543095E-1,-9.737021446E0,-2.217015505E0
1.160472136E0,-6.599543095E-1,-9.823857307E0,-2.165512562E0
1.162983959E0,-6.210278273E-1,-9.828648567E0,-2.146348715E0
1.165495834E0,-7.126548886E-1,-9.843021393E0,-2.170303583E0
1.168007709E0,-7.557734847E-1,-9.852602959E0,-2.141557932E0
1.170519584E0,-8.474005461E-1,-9.919676781E0,-2.174495697E0
1.173031407E0,-7.749373317E-1,-9.857394218E0,-2.165512562E0
1.175543282E0,-8.042819500E-1,-9.852602959E0,-2.283489943E0
1.178055157E0,-8.330276608E-1,-9.833439827E0,-2.273907900E0
1.180567032E0,-8.521915078E-1,-9.809484482E0,-2.297263861E0
1.183078854E0,-9.048920274E-1,-9.819067001E0,-2.311636686E0
1.185590729E0,-9.001010656E-1,-9.862185478E0,-2.339783669E0
1.188102604E0,-9.342366457E-1,-9.953812599E0,-2.410450220E0
1.190614479E0,-9.342366457E-1,-9.953812599E0,-2.391885281E0
1.193126302E0,-9.821462035E-1,-1.003525829E1,-2.410450220E0
1.195638177E0,-1.025264859E0,-1.010233212E1,-2.462551832E0
1.198150052E0,-1.039637685E0,-1.018437672E1,-2.462551832E0
1.200661927E0,-1.068982244E0,-1.038140488E1,-2.472133875E0
1.203173802E0,-9.342366457E-1,-1.031912231E1,-2.420032263E0
1.205685625E0,-9.048920274E-1,-1.026642227E1,-2.344574690E0
1.208197500E0,-9.821462035E-1,-1.029516792E1,-2.325410843E0
1.210709375E0,-1.068982244E0,-1.035745049E1,-2.330201864E0
1.213221250E0,-1.034846783E0,-1.037661457E1,-2.249953270E0
1.215733073E0,-9.821462035E-1,-1.036703205E1,-2.316427708E0
1.218244948E0,-9.534004331E-1,-1.023707771E1,-2.278698921E0
1.220756823E0,-9.581913948E-1,-1.021312237E1,-2.273907900E0
1.223268698E0,-9.150727987E-1,-1.016521358E1,-2.278698921E0
1.225780521E0,-9.048920274E-1,-9.968185425E0,-2.264326096E0
1.228292396E0,-8.474005461E-1,-9.823857307E0,-2.208032370E0
1.230804271E0,-8.617734313E-1,-9.780139923E0,-2.174495697E0
1.233316146E0,-1.088146091E0,-9.737021446E0,-2.226597309E0
1.235827969E0,-1.227682710E0,-9.727439880E0,-2.217015505E0
1.238339844E0,-1.160010457E0,-9.698693275E0,-2.179286718E0
1.240851719E0,-1.203727961E0,-9.616648674E0,-2.269117117E0
1.243363594E0,-1.174383402E0,-9.520829201E0,-2.302054882E0
1.245875417E0,-1.140846610E0,-9.477111816E0,-2.269117117E0
1.248387292E0,-1.102519035E0,-9.438784599E0,-2.240970135E0
1.250899167E0,-1.145637631E0,-9.332784653E0,-2.245761156E0
1.253411042E0,-1.136055708E0,-9.251338005E0,-2.165512562E0
1.255922865E0,-1.155219555E0,-9.193846703E0,-2.236179113E0
1.258434740E0,-1.140846610E0,-9.193846703E0,-2.203241348E0
1.260946615E0,-1.092937112E0,-9.145338058E0,-2.217015505E0
1.263458490E0,-1.088146091E0,-9.087846756E0,-2.203241348E0
1.265970313E0,-9.965190887E-1,-9.145338058E0,-2.160721540E0
1.268482188E0,-9.150727987E-1,-9.203428268E0,-2.203241348E0
1.270994063E0,-9.048920274E-1,-9.222592354E0,-2.231388330E0
1.273505938E0,-9.390276074E-1,-9.178874969E0,-2.217015505E0
1.276017761E0,-8.905191422E-1,-9.164502144E0,-2.245761156E0
1.278529636E0,-8.378186226E-1,-9.169293404E0,-2.208032370E0
1.281041511E0,-7.797282934E-1,-9.183666229E0,-2.170303583E0
1.283553386E0,-7.653554082E-1,-9.174083710E0,-2.208032370E0
1.286065209E0,-7.222367525E-1,-9.203428268E0,-2.208032370E0
1.288577084E0,-7.078639269E-1,-9.260919571E0,-2.240970135E0
1.291088907E0,-6.695362329E-1,-9.289666176E0,-2.278698921E0
1.293600834E0,-6.306097507E-1,-9.362129211E0,-2.231388330E0
1.296112761E0,-6.258187890E-1,-9.400456429E0,-2.245761156E0
1.298624688E0,-6.066549420E-1,-9.429202080E0,-2.217015505E0
1.301136615E0,-5.731182694E-1,-9.419620514E0,-2.287682056E0
1.303648542E0,-5.970730186E-1,-9.433993340E0,-2.264326096E0
1.306160469E0,-5.827001333E-1,-9.462738991E0,-2.287682056E0
1.308672396E0,-5.827001333E-1,-9.486694336E0,-2.283489943E0
1.311184323E0,-5.683273077E-1,-9.525620461E0,-2.287682056E0
1.313696250E0,-6.162368655E-1,-9.554366112E0,-2.306845903E0
1.316208125E0,-6.599543095E-1,-9.592694283E0,-2.302054882E0
1.318720052E0,-6.839091182E-1,-9.703484535E0,-2.358947515E0
1.321231979E0,-6.647452712E-1,-9.717857361E0,-2.354156494E0
1.323743907E0,-6.934910417E-1,-9.784931183E0,-2.363139629E0
1.326255834E0,-6.695362329E-1,-9.775348663E0,-2.363139629E0
1.328767761E0,-6.354007125E-1,-9.780139923E0,-2.382303476E0
1.331279688E0,-6.839091182E-1,-9.756185532E0,-2.462551832E0
1.333791615E0,-7.366096377E-1,-9.741812706E0,-2.481117010E0
1.336303542E0,-7.078639269E-1,-9.689111710E0,-2.505071640E0
1.338815469E0,-6.647452712E-1,-9.665157318E0,-2.570947409E0
1.341327344E0,-6.354007125E-1,-9.631021500E0,-2.580529213E0
1.343839271E0,-6.449825764E-1,-9.573530197E0,-2.646404982E0
1.346351198E0,-6.887000799E-1,-9.554366112E0,-2.660777807E0
1.348863125E0,-6.887000799E-1,-9.626230240E0,-2.726653337E0
1.351375052E0,-6.599543095E-1,-9.635812759E0,-2.782947302E0
1.353886979E0,-6.497735381E-1,-9.708275795E0,-2.731444359E0
1.356398907E0,-6.066549420E-1,-9.775348663E0,-2.820676088E0
1.358910834E0,-5.587453842E-1,-9.838230133E0,-2.867986679E0
1.361422761E0,-4.862821400E-1,-9.886139870E0,-2.863195658E0
1.363934688E0,-5.102369189E-1,-9.943631172E0,-2.882359505E0
1.366446563E0,-5.006549954E-1,-9.963394165E0,-2.953026056E0
1.368958490E0,-5.395815372E-1,-9.905303955E0,-2.966800213E0
1.371470417E0,-5.970730186E-1,-9.910094261E0,-2.887150526E0
1.373982344E0,-2.119998485E-1,-8.818355560E0,-6.371973157E-1
1.376494271E0,2.209828943E-1,-7.158887863E0,2.673952818E0
1.379006198E0,-1.640902758E-1,-8.756072998E0,-2.028371572E0
1.381518125E0,-5.102369189E-1,-1.015563107E1,-5.990492821E0
1.384030052E0,-6.934910417E-1,-1.016042233E1,-5.919826508E0
1.386541979E0,-9.965190887E-1,-1.024665928E1,-5.080211163E0
1.389053907E0,-1.092937112E0,-1.042512226E1,-4.542426109E0
1.391565782E0,-1.039637685E0,-1.048740482E1,-3.976494312E0
1.394077709E0,-9.821462035E-1,-1.052094173E1,-3.476438284E0
1.396589636E0,-9.773552418E-1,-1.044907761E1,-3.202754736E0
1.399101563E0,-9.821462035E-1,-1.039098740E1,-3.136879206E0
1.401613490E0,-7.653554082E-1,-1.032391357E1,-2.660777807E0
1.404125417E0,-6.258187890E-1,-1.020354080E1,-2.334992647E0
1.406637344E0,-4.958640635E-1,-1.015563107E1,-2.198450327E0
1.409149271E0,-3.659093380E-1,-1.007837677E1,-1.957704782E0
1.411661198E0,-1.928360164E-1,-1.006400394E1,-1.731332064E0
1.414173125E0,-1.059999242E-1,-9.943631172E0,-1.580416918E0
1.416685000E0,-1.592993289E-1,-9.890931129E0,-1.712767124E0
1.419196927E0,-1.353445351E-1,-9.914885521E0,-1.967286706E0
1.421708854E0,-1.107908860E-1,-9.819067001E0,-2.198450327E0
1.424220782E0,-5.809035525E-2,-9.708275795E0,-2.505071640E0
1.426732709E0,-1.784631461E-1,-9.602275848E0,-2.745218515E0
1.429244636E0,-2.988359630E-1,-9.424411774E0,-2.920088291E0
1.431756563E0,-4.671183228E-1,-9.332784653E0,-2.877568483E0
1.434268490E0,-5.347905755E-1,-9.357337952E0,-2.717071533E0
1.436780417E0,-6.114459038E-1,-9.313620567E0,-2.585320234E0
1.439292344E0,-6.162368655E-1,-9.352546692E0,-2.434405088E0
1.441804219E0,-5.395815372E-1,-9.390874863E0,-2.311636686E0
1.444316146E0,-5.198188424E-1,-9.467530251E0,-2.212224483E0
1.446828073E0,-4.767002165E-1,-9.539993286E0,-2.066100359E0
1.449340000E0,-3.952539563E-1,-9.669947624E0,-1.990642667E0
1.451851927E0,-3.707002997E-1,-9.732230186E0,-1.962495804E0
1.454363854E0,-3.419545591E-1,-9.809484482E0,-1.887038231E0
1.456875782E0,-3.323726356E-1,-9.809484482E0,-1.934348941E0
1.459387709E0,-3.036268950E-1,-9.789721489E0,-2.056518316E0
1.461899636E0,-2.455365509E-1,-9.737021446E0,-2.000224590E0
1.464411563E0,-1.832541078E-1,-9.765767097E0,-1.834936619E0
1.466923490E0,-1.353445351E-1,-9.866975784E0,-1.788224697E0
1.469435365E0,3.353669867E-2,-9.982558250E0,-1.665456414E0
1.471947292E0,1.197739244E-1,-1.009274960E1,-1.778642774E0
1.474459219E0,1.437287126E-2,-1.008795929E1,-1.962495804E0
1.476971146E0,-7.246322930E-2,-1.004963112E1,-2.080473185E0
1.479483073E0,-1.257626265E-1,-9.938840866E0,-2.146348715E0
1.481995000E0,-1.545083672E-1,-9.876558304E0,-2.136766911E0
1.484506927E0,-2.652992606E-1,-9.819067001E0,-2.165512562E0
1.487018854E0,-3.275817037E-1,-9.713067055E0,-2.103829145E0
1.489530782E0,-3.802822232E-1,-9.616648674E0,-1.952913880E0
1.492042709E0,-4.910731018E-1,-9.520829201E0,-1.882247210E0
1.494554584E0,-5.970730186E-1,-9.433993340E0,-1.877456307E0
1.497066511E0,-6.258187890E-1,-9.251338005E0,-1.929557920E0
1.499578438E0,-7.030729651E-1,-9.184265137E0,-1.929557920E0
1.502090365E0,-7.461915612E-1,-9.116592407E0,-1.854100347E0
1.504602292E0,-8.426095843E-1,-9.083055496E0,-1.924767017E0
1.507114219E0,-9.144739509E-1,-8.991428375E0,-1.981060743E0
1.509626146E0,-9.144739509E-1,-8.929145813E0,-2.042744398E0
1.512138073E0,-9.534004331E-1,-8.895609856E0,-2.188868523E0
1.514650000E0,-9.677733183E-1,-8.895609856E0,-2.264326096E0
1.517161927E0,-1.020473838E0,-8.933937073E0,-2.198450327E0
1.519673802E0,-9.965190887E-1,-8.977055550E0,-2.179286718E0
1.522185729E0,-1.010891914E0,-8.972265244E0,-2.240970135E0
1.524697657E0,-9.581913948E-1,-9.078265190E0,-2.273907900E0
1.527209584E0,-9.048920274E-1,-9.145338058E0,-2.330201864E0
1.529721511E0,-9.096829891E-1,-9.189055443E0,-2.344574690E0
1.532233438E0,-9.342366457E-1,-9.227383614E0,-2.424823046E0
1.534745365E0,-8.521915078E-1,-9.333383560E0,-2.448179007E0
1.537257292E0,-7.701463699E-1,-9.333383560E0,-2.462551832E0
1.539769219E0,-7.414005995E-1,-9.390874863E0,-2.415241241E0
1.542281146E0,-7.222367525E-1,-9.429202080E0,-2.443388224E0
1.544793021E0,-6.258187890E-1,-9.429202080E0,-2.405659437E0
1.547304948E0,-6.162368655E-1,-9.386083603E0,-2.330201864E0
1.549816875E0,-5.970730186E-1,-9.366919518E0,-2.302054882E0
1.552328802E0,-5.006549954E-1,-9.481903076E0,-2.231388330E0
1.554840729E0,-4.575363994E-1,-9.516038895E0,-2.184077501E0
1.557352657E0,-3.952539563E-1,-9.462738991E0,-2.269117117E0
1.559864584E0,-2.940450013E-1,-9.506456375E0,-2.391885281E0
1.562376511E0,-2.551184595E-1,-9.520829201E0,-2.424823046E0
1.564888438E0,-2.407455891E-1,-9.520829201E0,-2.405659437E0
1.567400365E0,-2.024179399E-1,-9.481903076E0,-2.405659437E0
1.569912240E0,-1.688812375E-1,-9.477111816E0,-2.438597202E0
1.572424167E0,-1.449264586E-1,-9.419620514E0,-2.551783562E0
1.574936094E0,-2.605082989E-1,-9.140546799E0,-2.528427601E0
1.577448021E0,-3.323726356E-1,-8.780027390E0,-2.636822939E0
1.579959948E0,-3.036268950E-1,-8.789609909E0,-2.698506594E0
1.582471875E0,-2.892540395E-1,-8.871055603E0,-2.702698708E0
1.584983802E0,-3.036268950E-1,-9.078265190E0,-2.759591341E0
1.587495729E0,-5.395815372E-1,-8.933937073E0,-2.712280512E0
1.590007657E0,-7.749373317E-1,-8.842309952E0,-2.472133875E0
1.592519584E0,-7.994909883E-1,-8.784818649E0,-2.438597202E0
1.595031459E0,-8.569824696E-1,-8.803982735E0,-2.400868416E0
1.597543386E0,-7.994909883E-1,-8.957892418E0,-2.339783669E0
1.600055313E0,-6.743271947E-1,-9.193846703E0,-2.405659437E0
1.602567240E0,-5.635363460E-1,-9.472320557E0,-2.316427708E0
1.605079167E0,-6.114459038E-1,-9.583111763E0,-2.292473078E0
1.607591094E0,-5.347905755E-1,-9.804693222E0,-2.382303476E0
1.610103021E0,-4.048358798E-1,-9.968185425E0,-2.542800426E0
1.612614948E0,-4.000449181E-1,-1.000172138E1,-2.702698708E0
1.615126875E0,-4.479544759E-1,-1.012688541E1,-2.769173145E0
1.617638802E0,-4.767002165E-1,-1.017958641E1,-2.910506487E0
1.620150677E0,-4.335816205E-1,-1.019874954E1,-3.056630611E0
1.622662604E0,-4.096268415E-1,-1.028558636E1,-3.146461010E0
1.625174532E0,-4.096268415E-1,-1.035745049E1,-3.197963953E0
1.627686459E0,-6.066549420E-1,-1.020354080E1,-3.132088184E0
1.630198386E0,-5.827001333E-1,-1.025204945E1,-3.094359398E0
1.632710313E0,-4.048358798E-1,-1.059340477E1,-2.962608099E0
1.635222240E0,-4.192087352E-1,-1.040595913E1,-2.688924551E0
1.637734167E0,-9.342366457E-1,-9.025564194E0,-2.131975889E0
1.640246094E0,-1.194146037E0,-7.866152763E0,-1.948122978E0
1.642758021E0,-1.010891914E0,-7.476288319E0,-2.174495697E0
1.645269896E0,-9.486095309E-1,-7.260096550E0,-2.287682056E0
1.647781823E0,-9.438185692E-1,-7.380469322E0,-2.236179113E0
1.650293750E0,-1.588202238E0,-7.293633461E0,-1.990642667E0
1.652805677E0,-1.622337818E0,-7.625407219E0,-1.716959238E0
1.655317604E0,-1.497174144E0,-8.087135315E0,-1.769060850E0
1.657829532E0,-1.443874717E0,-8.356626511E0,-2.042744398E0
1.660341459E0,-1.405547023E0,-8.592581749E0,-2.193659544E0
1.662853386E0,-1.275592327E0,-8.837519646E0,-2.254744291E0
1.665365313E0,-1.246846557E0,-9.049519539E0,-2.400868416E0
1.667877240E0,-1.088146091E0,-9.414829254E0,-2.485907793E0
1.670389115E0,-9.342366457E-1,-9.703484535E0,-2.570947409E0
1.672901042E0,-7.701463699E-1,-1.000651264E1,-2.509862661E0
1.675412969E0,-7.030729651E-1,-1.030474949E1,-2.396676302E0
1.677924896E0,-6.114459038E-1,-1.054010582E1,-2.448179007E0
1.680436823E0,-4.479544759E-1,-1.079043293E1,-2.490698814E0
1.682948750E0,-4.144177735E-1,-1.109825230E1,-2.415241241E0
1.685460677E0,-3.611183763E-1,-1.134857941E1,-2.443388224E0
1.687972604E0,-4.144177735E-1,-1.151686192E1,-2.533218622E0
1.690484532E0,-4.048358798E-1,-1.163244343E1,-2.641613960E0
1.692996459E0,-3.707002997E-1,-1.168514442E1,-2.721862555E0
1.695508334E0,-4.096268415E-1,-1.167077160E1,-2.815885067E0
1.698020261E0,-3.898641467E-1,-1.163244343E1,-2.915297270E0
1.700532188E0,-3.898641467E-1,-1.153602600E1,-3.018901825E0
1.703044115E0,-3.659093380E-1,-1.145398045E1,-2.933862448E0
1.705556042E0,-3.850731850E-1,-1.135337067E1,-2.953026056E0
1.708067969E0,-4.910731018E-1,-1.126653481E1,-2.962608099E0
1.710579896E0,-4.287906587E-1,-1.128090763E1,-2.943444252E0
1.713091823E0,-4.383725822E-1,-1.120425224E1,-2.896133661E0
1.715603750E0,-4.623273611E-1,-1.108387947E1,-2.806901932E0
1.718115677E0,-4.144177735E-1,-1.104555130E1,-2.717071533E0
1.720627552E0,-3.707002997E-1,-1.103596973E1,-2.702698708E0
1.723139479E0,-3.275817037E-1,-1.107908821E1,-2.632032156E0
1.725651407E0,-2.599094212E-1,-1.107429695E1,-2.585320234E0
1.728163334E0,-2.167908102E-1,-1.113178921E1,-2.589512348E0
1.730675261E0,-1.401354969E-1,-1.122341537E1,-2.603885174E0
1.733187188E0,1.916382834E-2,-1.163723469E1,-2.589512348E0
1.735699115E0,1.293558478E-1,-1.229599094E1,-2.594303370E0
1.738211042E0,5.533555150E-1,-1.363326740E1,-2.806901932E0
1.740722969E0,1.000711203E0,-1.520589924E1,-3.193172932E0
1.743234896E0,1.352247596E0,-1.690369415E1,-3.570460796E0
1.745746771E0,1.231874824E0,-1.818288040E1,-2.995545864E0
1.748258698E0,-5.150278807E-1,-1.500407982E1,-4.283115864E0
1.750770625E0,-1.737919688E0,-1.095871544E1,-4.320844650E0
1.753282552E0,-1.742710590E0,-9.107010841E0,-3.184189796E0
1.755794479E0,-1.631919742E0,-7.726615906E0,-1.976868629E0
1.758306407E0,-1.703784108E0,-6.812740803E0,-1.910394192E0
1.760818334E0,-1.554665565E0,-6.192312241E0,-1.712767124E0
1.763330261E0,-7.557734847E-1,-6.485758305E0,-9.246547222E-1
1.765842188E0,-1.251637489E-1,-7.236141682E0,-2.928472459E-1
1.768354115E0,2.161919326E-1,-8.150016785E0,-3.353669867E-2
1.770865990E0,1.443275809E-1,-8.837519646E0,-3.353669867E-2
1.773377917E0,-5.198188424E-1,-9.448366165E0,-8.114683628E-1
1.775889844E0,-1.010891914E0,-8.693191528E0,-4.767002165E-1
1.778401771E0,-8.090728521E-1,-7.870943546E0,-4.731070250E-2
1.780913698E0,-7.461915612E-1,-7.717034340E0,-1.323501915E-1
1.783425625E0,-6.982820034E-1,-7.553542614E0,-5.803046823E-1
1.785937552E0,-6.114459038E-1,-7.366096497E0,-5.473668575E-1
1.788449479E0,-5.731182694E-1,-7.370887280E0,-4.862821400E-1
1.790961407E0,-6.982820034E-1,-7.058277607E0,-1.288168550E0
1.793473438E0,-6.210278273E-1,-6.966650486E0,-1.943331957E0
1.795985469E0,-5.587453842E-1,-7.399633408E0,-2.448179007E0
1.798497500E0,-6.497735381E-1,-7.745779991E0,-2.938653231E0
1.801009532E0,-7.701463699E-1,-8.010479927E0,-3.051839590E0
1.803521563E0,-8.713552952E-1,-8.202717781E0,-3.207545757E0
1.806033594E0,-8.713552952E-1,-8.568626404E0,-3.221918583E0
1.808545625E0,-8.186547756E-1,-8.837519646E0,-3.212336779E0
1.811057709E0,-7.941011190E-1,-8.967473984E0,-3.302167177E0
1.813569740E0,-6.982820034E-1,-9.087846756E0,-3.250065565E0
1.816081771E0,-6.354007125E-1,-9.203428268E0,-2.995545864E0
1.818593802E0,-6.258187890E-1,-9.256129265E0,-2.910506487E0
1.821105834E0,-6.114459038E-1,-9.308829308E0,-2.962608099E0
1.823617865E0,-5.395815372E-1,-9.496874809E0,-2.764382124E0
1.826129896E0,-5.006549954E-1,-9.655574799E0,-2.443388224E0
1.828641927E0,-5.587453842E-1,-9.679530144E0,-2.387094259E0
1.831153959E0,-5.587453842E-1,-9.760975838E0,-2.325410843E0
1.833665990E0,-5.102369189E-1,-9.770558357E0,-2.269117117E0
1.836178021E0,-4.096268415E-1,-9.780139923E0,-2.127783775E0
1.838690052E0,-3.659093380E-1,-9.823857307E0,-2.066100359E0
1.841202084E0,-3.467455208E-1,-9.871767044E0,-2.099038124E0
1.843714115E0,-3.371635973E-1,-1.011730385E1,-1.872665405E0
1.846226146E0,-4.335816205E-1,-1.013646698E1,-1.754688025E0
1.848738177E0,-6.258187890E-1,-9.972975731E0,-1.844518423E0
1.851250209E0,-5.395815372E-1,-9.905303955E0,-1.887038231E0
1.853762240E0,-5.102369189E-1,-9.914885521E0,-1.863682270E0
1.856274271E0,-4.862821400E-1,-9.914885521E0,-1.731332064E0
1.858786302E0,-5.491634607E-1,-9.843021393E0,-1.608563900E0
1.861298334E0,-6.449825764E-1,-9.814275742E0,-1.533106327E0
1.863810365E0,-6.887000799E-1,-9.727439880E0,-1.472021580E0
1.866322448E0,-6.354007125E-1,-9.708275795E0,-1.462439656E0
1.868834479E0,-7.222367525E-1,-9.611857414E0,-1.434292793E0
1.871346511E0,-8.521915078E-1,-9.472320557E0,-1.443874717E0
1.873858542E0,-8.521915078E-1,-9.443574905E0,-1.288168550E0
1.876370573E0,-8.426095843E-1,-9.520829201E0,-1.132462502E0
1.878882604E0,-8.521915078E-1,-9.573530197E0,-1.070778966E0
1.881394636E0,-9.144739509E-1,-9.362129211E0,-1.448665619E0
1.883906667E0,-8.186547756E-1,-9.241756439E0,-1.580416918E0
1.886418698E0,-8.426095843E-1,-9.092638016E0,-1.684021473E0
1.888930729E0,-7.893101573E-1,-9.054309845E0,-1.754688025E0
1.891442761E0,-6.689373851E-1,-9.284874916E0,-1.580416918E0
1.893954792E0,-6.018639803E-1,-9.520829201E0,-1.339671373E0
1.896466823E0,-5.922820568E-1,-9.703484535E0,-1.334880471E0
1.898978854E0,-6.210278273E-1,-9.799902916E0,-1.486394405E0
1.901490886E0,-6.593554616E-1,-9.919676781E0,-1.547479153E0
1.904002917E0,-7.126548886E-1,-1.001130390E1,-1.457648635E0
1.906514948E0,-6.934910417E-1,-1.014604950E1,-1.170191288E0
1.909026979E0,-6.018639803E-1,-1.025684071E1,-1.104315639E0
1.911539011E0,-5.294007659E-1,-1.013167667E1,-1.524123192E0
1.914051042E0,-4.096268415E-1,-1.017958641E1,-1.759479046E0
1.916563073E0,-3.275817037E-1,-1.024186897E1,-1.811580658E0
1.919075104E0,-2.167908102E-1,-1.027600384E1,-1.896620154E0
1.921587188E0,-7.246322930E-2,-1.037661457E1,-1.995433569E0
1.924099219E0,-1.976269856E-2,-1.041074944E1,-2.033162355E0
1.926611250E0,7.186435908E-2,-1.046824169E1,-1.967286706E0
1.929123282E0,8.144626766E-2,-1.043470478E1,-1.981060743E0
1.931635313E0,1.101920158E-1,-1.045386791E1,-2.023580551E0
1.934147344E0,1.101920158E-1,-1.046345043E1,-1.939139843E0
1.936659375E0,6.228244305E-2,-1.034786797E1,-2.005015612E0
1.939171407E0,6.707339734E-2,-1.024725819E1,-2.042744398E0
1.941683438E0,7.665531337E-2,-1.030474949E1,-2.108619928E0
1.944195469E0,-1.018078346E-2,-1.030474949E1,-2.141557932E0
1.946707500E0,3.353669867E-2,-1.030474949E1,-2.203241348E0
1.949219532E0,4.311861470E-2,-1.021312237E1,-2.231388330E0
1.951731563E0,-3.413556889E-2,-1.021312237E1,-2.273907900E0
1.954243594E0,-1.251637489E-1,-1.016042233E1,-2.278698921E0
1.956755625E0,-1.203727946E-1,-1.006879520E1,-2.344574690E0
1.959267657E0,-1.880450696E-1,-9.992139816E0,-2.349365473E0
1.961779688E0,-2.647003829E-1,-9.977766991E0,-2.452970028E0
1.964291719E0,-3.563274443E-1,-9.895721436E0,-2.547591448E0
1.966803750E0,-3.898641467E-1,-9.843021393E0,-2.585320234E0
1.969315782E0,-4.623273611E-1,-9.795111656E0,-2.533218622E0
1.971827813E0,-5.246098042E-1,-9.645993233E0,-2.344574690E0
1.974339844E0,-5.341917276E-1,-9.602275848E0,-2.254744291E0
1.976851927E0,-4.862821400E-1,-9.492083549E0,-2.400868416E0
1.979363959E0,-6.114459038E-1,-9.477710724E0,-2.467342854E0
1.981875990E0,-6.593554616E-1,-9.390874863E0,-2.514054775E0
1.984388021E0,-6.839091182E-1,-9.318411827E0,-2.599094152E0
1.986900052E0,-7.222367525E-1,-9.342965126E0,-2.613466978E0
1.989412084E0,-8.036830425E-1,-9.386083603E0,-2.500280619E0
1.991924115E0,-8.809372187E-1,-9.366919518E0,-2.481117010E0
1.994436146E0,-9.096829891E-1,-9.371710777E0,-2.396077394E0
1.996948177E0,-8.905191422E-1,-9.366919518E0,-2.316427708E0
1.999460209E0,-9.240558743E-1,-9.395666122E0,-2.231388330E0
2.001972240E0,-9.048920274E-1,-9.410038948E0,-2.273907900E0
2.004484271E0,-9.150727987E-1,-9.559157372E0,-2.236179113E0
2.006996302E0,-9.731631875E-1,-9.602275848E0,-2.165512562E0
2.009508334E0,-9.635812640E-1,-9.548975945E0,-2.099637032E0
2.012020365E0,-9.150727987E-1,-9.597484589E0,-2.037953377E0
2.014532396E0,-8.336265087E-1,-9.645394325E0,-1.745705009E0
2.017044427E0,-7.036718130E-1,-9.732230186E0,-1.660665512E0
2.019556459E0,-6.264176369E-1,-9.717857361E0,-1.783433795E0
2.022068490E0,-6.988808513E-1,-9.650185585E0,-1.952913880E0
2.024580521E0,-7.659542561E-1,-9.559157372E0,-2.113410950E0
2.027092552E0,-7.707452178E-1,-9.515439987E0,-2.245761156E0
2.029604584E0,-8.288355470E-1,-9.534603119E0,-2.259535074E0
2.032116667E0,-8.959089518E-1,-9.635812759E0,-2.188868523E0
2.034628698E0,-9.390276074E-1,-9.607067108E0,-2.066100359E0
2.037140729E0,-8.719542027E-1,-9.457947731E0,-1.929557920E0
2.039652761E0,-9.683722258E-1,-9.380694389E0,-1.962495804E0
2.042164792E0,-1.093535900E0,-9.424411774E0,-2.009806395E0
2.044676823E0,-1.117490768E0,-9.429202080E0,-1.995433569E0
2.047188854E0,-1.078564167E0,-9.351947784E0,-1.939139843E0
2.049700886E0,-9.539993405E-1,-9.304039001E0,-1.858891368E0
2.052212917E0,-8.911179900E-1,-9.361530304E0,-1.773851871E0
2.054724948E0,-8.192536831E-1,-9.453157425E0,-1.717558146E0
2.057236979E0,-7.228356600E-1,-9.534603119E0,-1.665456414E0
2.059749011E0,-6.359995604E-1,-9.563947678E0,-1.755286932E0
2.062261042E0,-5.641351938E-1,-9.563947678E0,-1.830744505E0
2.064773073E0,-5.880900025E-1,-9.553767204E0,-1.976868629E0
2.067285104E0,-5.785080791E-1,-9.616648674E0,-2.033162355E0
2.069797136E0,-5.156267285E-1,-9.621439934E0,-2.047535181E0
2.072309167E0,-4.868810177E-1,-9.688512802E0,-1.962495804E0
2.074821198E0,-4.144177735E-1,-9.732230186E0,-2.009806395E0
2.077333229E0,-3.617172539E-1,-9.702885628E0,-2.005015612E0
2.079845261E0,-3.521353602E-1,-9.737021446E0,-1.995433569E0
2.082357292E0,-3.185986578E-1,-9.732230186E0,-2.005015612E0
2.084869323E0,-3.090167344E-1,-9.707676888E0,-2.075682163E0
2.087381407E0,-2.557173371E-1,-9.765767097E0,-2.037953377E0
2.089893438E0,-2.652992606E-1,-9.794512749E0,-2.052326202E0
2.092405469E0,-2.748811543E-1,-9.799304008E0,-2.028371572E0
2.094917500E0,-2.557173371E-1,-9.813676834E0,-1.986450553E0
2.097429532E0,-2.652992606E-1,-9.828049660E0,-2.066100359E0
2.099941563E0,-2.413444668E-1,-9.804095268E0,-2.118201971E0
2.102453594E0,-3.090167344E-1,-9.780139923E0,-2.094846010E0
2.104965625E0,-2.413444668E-1,-9.794512749E0,-2.118201971E0
2.107477657E0,-2.413444668E-1,-9.756185532E0,-2.122992754E0
2.109989688E0,-2.461354136E-1,-9.746603012E0,-2.226597309E0
2.112501719E0,-2.509263754E-1,-9.722648621E0,-2.226597309E0
2.115013750E0,-2.898529172E-1,-9.775348663E0,-2.236179113E0
2.117525782E0,-2.748811543E-1,-9.770558357E0,-2.259535074E0
2.120037813E0,-2.605082989E-1,-9.751394272E0,-2.283489943E0
2.122549844E0,-2.898529172E-1,-9.765767097E0,-2.297263861E0
2.125061875E0,-2.850619555E-1,-9.760975838E0,-2.283489943E0
2.127573907E0,-3.138076961E-1,-9.775348663E0,-2.184077501E0
2.130085938E0,-3.042257726E-1,-9.737021446E0,-2.240970135E0
2.132597969E0,-3.377624750E-1,-9.784931183E0,-2.269117117E0
2.135110000E0,-3.233895898E-1,-9.775348663E0,-2.273907900E0
2.137622032E0,-3.473443985E-1,-9.760975838E0,-2.259535074E0
2.140134063E0,-3.712991774E-1,-9.789721489E0,-2.231388330E0
2.142646146E0,-4.000449181E-1,-9.804095268E0,-2.231388330E0
2.145158177E0,-4.150166512E-1,-9.823258400E0,-2.250552177E0
2.147670209E0,-4.533443153E-1,-9.804095268E0,-2.188868523E0
2.150182240E0,-4.820900559E-1,-9.828049660E0,-2.165512562E0
2.152694271E0,-4.820900559E-1,-9.852004051E0,-2.122992754E0
2.155206302E0,-4.772990942E-1,-9.847213745E0,-2.170303583E0
2.157718334E0,-5.156267285E-1,-9.837631226E0,-2.132574797E0
2.160230365E0,-4.964629412E-1,-9.828049660E0,-2.118201971E0
2.162742396E0,-5.545532703E-1,-9.832840919E0,-2.141557932E0
2.165254427E0,-5.689261556E-1,-9.876558304E0,-2.090054989E0
2.167766459E0,-5.449713469E-1,-9.842422485E0,-2.047535181E0
2.170278490E0,-5.156267285E-1,-9.832840919E0,-2.000224590E0
2.172790521E0,-5.347905755E-1,-9.808885574E0,-2.014597416E0
2.175302552E0,-5.689261556E-1,-9.847213745E0,-2.019388437E0
2.177814584E0,-5.689261556E-1,-9.871767044E0,-1.910992980E0
2.180326615E0,-5.299996138E-1,-9.832840919E0,-1.896620154E0
2.182838646E0,-5.785080791E-1,-9.775348663E0,-1.952913880E0
2.185350677E0,-6.024628282E-1,-9.799304008E0,-1.967286706E0
2.187862709E0,-6.072537899E-1,-9.789721489E0,-1.910992980E0
2.190374740E0,-6.120447516E-1,-9.813676834E0,-1.952913880E0
2.192886771E0,-6.503724456E-1,-9.808885574E0,-1.948721766E0
2.195398802E0,-6.359995604E-1,-9.775348663E0,-1.981659651E0
2.197910886E0,-6.503724456E-1,-9.784931183E0,-1.957704782E0
2.200422917E0,-6.647452712E-1,-9.770558357E0,-1.915185094E0
2.202934948E0,-6.455814838E-1,-9.751394272E0,-1.948721766E0
2.205446979E0,-7.084627748E-1,-9.784931183E0,-1.967286706E0
2.207959011E0,-7.180446982E-1,-9.737021446E0,-2.019388437E0
2.210471042E0,-6.988808513E-1,-9.702885628E0,-2.014597416E0
2.212983073E0,-7.707452178E-1,-9.712468147E0,-2.052326202E0
2.215495104E0,-7.899090648E-1,-9.702885628E0,-2.103829145E0
2.218007136E0,-7.803271413E-1,-9.702885628E0,-2.146348715E0
2.220519167E0,-7.659542561E-1,-9.688512802E0,-2.113410950E0
2.223031198E0,-7.947000265E-1,-9.702885628E0,-2.132574797E0
2.225543229E0,-8.144627213E-1,-9.635812759E0,-2.208032370E0
2.228055261E0,-7.947000265E-1,-9.659767151E0,-2.193659544E0
2.230567292E0,-7.563723326E-1,-9.645394325E0,-2.188868523E0
2.233079323E0,-7.994909883E-1,-9.669348717E0,-2.245761156E0
2.235591354E0,-8.192536831E-1,-9.674139977E0,-2.254744291E0
2.238103386E0,-7.994909883E-1,-9.621439934E0,-2.250552177E0
2.240615417E0,-8.048807979E-1,-9.631021500E0,-2.273907900E0
2.243127448E0,-7.994909883E-1,-9.645394325E0,-2.254744291E0
2.245639479E0,-7.755361795E-1,-9.664558411E0,-2.221806288E0
2.248151511E0,-7.467904091E-1,-9.674139977E0,-2.259535074E0
2.250663542E0,-7.803271413E-1,-9.678931236E0,-2.264326096E0
2.253175625E0,-7.419995070E-1,-9.678931236E0,-2.254744291E0
2.255687657E0,-7.707452178E-1,-9.712468147E0,-2.288280964E0
2.258199688E0,-7.036718130E-1,-9.737021446E0,-2.236179113E0
2.260711719E0,-6.551634073E-1,-9.717258453E0,-2.193659544E0
2.263223750E0,-6.264176369E-1,-9.659767151E0,-2.240970135E0
2.265735782E0,-6.120447516E-1,-9.688512802E0,-2.326009750E0
2.268247813E0,-5.737171173E-1,-9.727439880E0,-2.264326096E0
2.270759844E0,-5.641351938E-1,-9.702885628E0,-2.221806288E0
2.273271875E0,-5.880900025E-1,-9.693304062E0,-2.236179113E0
2.275783907E0,-5.204176903E-1,-9.698095322E0,-2.236179113E0
2.278295938E0,-5.689261556E-1,-9.640603065E0,-2.264326096E0
2.280807969E0,-5.737171173E-1,-9.678931236E0,-2.221806288E0
2.283320000E0,-5.497623086E-1,-9.669348717E0,-2.250552177E0
2.285832032E0,-5.449713469E-1,-9.645394325E0,-2.226597309E0
2.288344063E0,-5.497623086E-1,-9.621439934E0,-2.221806288E0
2.290855990E0,-5.449713469E-1,-9.659767151E0,-2.264326096E0
2.293367969E0,-5.449713469E-1,-9.650185585E0,-2.264326096E0
2.295879896E0,-5.497623086E-1,-9.659767151E0,-2.236179113E0
2.298391823E0,-5.689261556E-1,-9.635812759E0,-2.240970135E0
2.300903750E0,-6.168357134E-1,-9.645394325E0,-2.254744291E0
2.303415677E0,-6.120447516E-1,-9.654975891E0,-2.245761156E0
2.305927604E0,-5.976719260E-1,-9.674139977E0,-2.297263861E0
2.308439584E0,-6.264176369E-1,-9.664558411E0,-2.288280964E0
2.310951511E0,-6.024628282E-1,-9.688512802E0,-2.264326096E0
2.313463438E0,-6.264176369E-1,-9.702885628E0,-2.311636686E0
2.315975365E0,-6.503724456E-1,-9.669348717E0,-2.245761156E0
2.318487292E0,-6.653441787E-1,-9.683721542E0,-2.269117117E0
2.320999219E0,-6.653441787E-1,-9.688512802E0,-2.278698921E0
2.323511146E0,-6.940898895E-1,-9.712468147E0,-2.245761156E0
2.326023125E0,-6.797170639E-1,-9.722049713E0,-2.264326096E0
2.328535052E0,-6.988808513E-1,-9.712468147E0,-2.292473078E0
2.331046979E0,-6.940898895E-1,-9.698095322E0,-2.283489943E0
2.333558907E0,-6.940898895E-1,-9.712468147E0,-2.278698921E0
2.336070834E0,-7.467904091E-1,-9.741812706E0,-2.288280964E0
2.338582761E0,-7.228356600E-1,-9.674139977E0,-2.254744291E0
2.341094740E0,-7.228356600E-1,-9.688512802E0,-2.283489943E0
2.343606667E0,-7.803271413E-1,-9.702885628E0,-2.288280964E0
2.346118594E0,-7.851181030E-1,-9.688512802E0,-2.316427708E0
2.348630521E0,-7.563723326E-1,-9.683721542E0,-2.278698921E0
2.351142448E0,-7.803271413E-1,-9.678931236E0,-2.221806288E0
2.353654375E0,-7.803271413E-1,-9.698095322E0,-2.264326096E0
2.356166302E0,-7.755361795E-1,-9.712468147E0,-2.269117117E0
2.358678282E0,-7.467904091E-1,-9.712468147E0,-2.179286718E0
2.361190209E0,-7.324175835E-1,-9.717258453E0,-2.240970135E0
2.363702136E0,-7.563723326E-1,-9.746603012E0,-2.198450327E0
2.366214063E0,-7.707452178E-1,-9.717258453E0,-2.208032370E0
2.368725990E0,-7.515813708E-1,-9.737021446E0,-2.240970135E0
2.371237917E0,-7.132537365E-1,-9.732230186E0,-2.179286718E0
2.373749844E0,-6.892989278E-1,-9.698095322E0,-2.151139736E0
2.376261823E0,-6.653441787E-1,-9.746603012E0,-2.137365818E0
2.378773750E0,-6.653441787E-1,-9.717258453E0,-2.165512562E0
2.381285677E0,-6.455814838E-1,-9.726840973E0,-2.198450327E0
2.383797604E0,-6.455814838E-1,-9.717258453E0,-2.155930758E0
2.386309532E0,-6.216266751E-1,-9.726840973E0,-2.108619928E0
2.388821459E0,-6.312085986E-1,-9.712468147E0,-2.108619928E0
2.391333438E0,-6.216266751E-1,-9.688512802E0,-2.132574797E0
2.393845365E0,-6.120447516E-1,-9.722049713E0,-2.085263968E0
2.396357292E0,-5.976719260E-1,-9.746603012E0,-2.141557932E0
2.398869219E0,-5.737171173E-1,-9.722049713E0,-2.103829145E0
2.401381146E0,-5.976719260E-1,-9.741812706E0,-2.122992754E0
2.403893073E0,-5.641351938E-1,-9.741812706E0,-2.113410950E0
2.406405000E0,-5.785080791E-1,-9.751394272E0,-2.146348715E0
2.408916979E0,-5.641351938E-1,-9.746603012E0,-2.132574797E0
2.411428907E0,-5.593442321E-1,-9.756185532E0,-2.146348715E0
2.413940834E0,-5.832990408E-1,-9.775348663E0,-2.141557932E0
2.416452761E0,-5.497623086E-1,-9.737021446E0,-2.118201971E0
2.418964688E0,-5.204176903E-1,-9.722049713E0,-2.090054989E0
2.421476615E0,-5.593442321E-1,-9.756185532E0,-2.122992754E0
2.423988594E0,-5.593442321E-1,-9.741812706E0,-2.193659544E0
2.426500521E0,-5.156267285E-1,-9.707676888E0,-2.179286718E0
2.429012448E0,-5.353894830E-1,-9.765767097E0,-2.151139736E0
2.431524375E0,-5.012539029E-1,-9.746603012E0,-2.165512562E0
2.434036302E0,-5.060448647E-1,-9.702885628E0,-2.184077501E0
2.436548229E0,-5.060448647E-1,-9.726840973E0,-2.193659544E0
2.439060157E0,-5.401803851E-1,-9.737021446E0,-2.175094604E0
2.441572136E0,-5.880900025E-1,-9.698095322E0,-2.175094604E0
2.444084063E0,-5.353894830E-1,-9.712468147E0,-2.259535074E0
2.446595990E0,-5.593442321E-1,-9.693304062E0,-2.254744291E0
2.449107917E0,-5.353894830E-1,-9.717258453E0,-2.245761156E0
2.451619844E0,-6.024628282E-1,-9.746603012E0,-2.292473078E0
2.454131771E0,-5.785080791E-1,-9.698095322E0,-2.254744291E0
2.456643698E0,-5.737171173E-1,-9.669348717E0,-2.203241348E0
2.459155677E0,-5.785080791E-1,-9.669348717E0,-2.259535074E0
2.461667604E0,-6.168357134E-1,-9.722049713E0,-2.283489943E0
2.464179532E0,-5.976719260E-1,-9.688512802E0,-2.259535074E0
2.466691459E0,-6.359995604E-1,-9.726840973E0,-2.231388330E0
2.469203386E0,-5.880900025E-1,-9.775348663E0,-2.193659544E0
2.471715313E0,-6.120447516E-1,-9.784931183E0,-2.217015505E0
2.474227292E0,-6.701351404E-1,-9.804095268E0,-2.269117117E0
2.476739219E0,-6.312085986E-1,-9.780139923E0,-2.203241348E0
2.479251146E0,-6.216266751E-1,-9.784931183E0,-2.217015505E0
2.481763073E0,-6.359995604E-1,-9.789721489E0,-2.203241348E0
2.484275000E0,-5.880900025E-1,-9.832840919E0,-2.160721540E0
2.486786927E0,-6.312085986E-1,-9.818468094E0,-2.193659544E0
2.489298854E0,-6.312085986E-1,-9.828049660E0,-2.193659544E0
2.491810834E0,-6.072537899E-1,-9.780139923E0,-2.193659544E0
2.494322761E0,-6.120447516E-1,-9.784931183E0,-2.212823391E0
2.496834688E0,-6.359995604E-1,-9.799304008E0,-2.170303583E0
2.499346615E0,-5.785080791E-1,-9.726840973E0,-2.146348715E0
2.501858542E0,-5.593442321E-1,-9.722049713E0,-2.151139736E0
2.504370469E0,-5.976719260E-1,-9.722049713E0,-2.151139736E0
2.506882396E0,-6.024628282E-1,-9.717258453E0,-2.113410950E0
2.509394375E0,-5.928809643E-1,-9.722049713E0,-2.127783775E0
2.511906302E0,-5.880900025E-1,-9.722049713E0,-2.103829145E0
2.514418229E0,-6.264176369E-1,-9.645394325E0,-2.099637032E0
2.516930157E0,-5.880900025E-1,-9.688512802E0,-2.127783775E0
2.519442084E0,-5.928809643E-1,-9.683721542E0,-2.122992754E0
2.521954011E0,-5.689261556E-1,-9.650185585E0,-2.066100359E0
2.524465990E0,-5.449713469E-1,-9.654975891E0,-2.066100359E0
2.526977917E0,-5.497623086E-1,-9.631021500E0,-2.108619928E0
2.529489844E0,-5.449713469E-1,-9.650185585E0,-2.037953377E0
2.532001771E0,-4.916719794E-1,-9.650185585E0,-1.990642667E0
2.534513698E0,-5.593442321E-1,-9.664558411E0,-2.070891142E0
2.537025625E0,-5.641351938E-1,-9.664558411E0,-2.075682163E0
2.539537552E0,-5.641351938E-1,-9.678931236E0,-2.099637032E0
2.542049532E0,-5.210165977E-1,-9.664558411E0,-2.047535181E0
2.544561459E0,-5.785080791E-1,-9.674139977E0,-2.066100359E0
2.547073386E0,-5.785080791E-1,-9.688512802E0,-2.132574797E0
2.549585313E0,-5.353894830E-1,-9.654975891E0,-2.127783775E0
2.552097240E0,-5.353894830E-1,-9.631021500E0,-2.118201971E0
2.554609167E0,-5.880900025E-1,-9.683721542E0,-2.155930758E0
2.557121146E0,-6.072537899E-1,-9.678931236E0,-2.175094604E0
2.559633073E0,-6.120447516E-1,-9.683721542E0,-2.160721540E0
2.562145000E0,-5.928809643E-1,-9.693304062E0,-2.132574797E0
2.564656927E0,-6.072537899E-1,-9.688512802E0,-2.127783775E0
2.567168854E0,-6.461803317E-1,-9.717258453E0,-2.122992754E0
2.569680782E0,-6.605532169E-1,-9.688512802E0,-2.184077501E0
2.572192709E0,-6.461803317E-1,-9.756185532E0,-2.118201971E0
2.574704688E0,-6.461803317E-1,-9.789721489E0,-2.137365818E0
2.577216615E0,-6.024628282E-1,-9.765767097E0,-2.127783775E0
2.579728542E0,-5.832990408E-1,-9.804095268E0,-2.118201971E0
2.582240469E0,-5.832990408E-1,-9.852004051E0,-2.080473185E0
2.584752396E0,-5.832990408E-1,-9.861586571E0,-2.070891142E0
2.587264323E0,-5.689261556E-1,-9.847213745E0,-2.165512562E0
2.589776250E0,-5.737171173E-1,-9.871168137E0,-2.099637032E0
2.592288229E0,-5.497623086E-1,-9.871168137E0,-2.066100359E0
2.594800157E0,-5.401803851E-1,-9.861586571E0,-2.099637032E0
2.597312084E0,-5.497623086E-1,-9.895721436E0,-2.090054989E0
2.599824011E0,-5.785080791E-1,-9.875959396E0,-2.085263968E0
2.602335938E0,-5.305985212E-1,-9.861586571E0,-2.151139736E0
2.604847865E0,-5.401803851E-1,-9.861586571E0,-2.151139736E0
2.607359844E0,-5.785080791E-1,-9.852004051E0,-2.070891142E0
2.609871771E0,-5.545532703E-1,-9.832840919E0,-2.094846010E0
2.612383698E0,-5.305985212E-1,-9.856795311E0,-2.103829145E0
2.614895625E0,-5.593442321E-1,-9.828049660E0,-2.066100359E0
2.617407552E0,-5.305985212E-1,-9.847213745E0,-2.103829145E0
2.619919479E0,-5.401803851E-1,-9.847213745E0,-2.113410950E0
2.622431407E0,-5.258075595E-1,-9.799304008E0,-2.118201971E0
2.624943386E0,-4.964629412E-1,-9.842422485E0,-2.113410950E0
2.627455313E0,-5.305985212E-1,-9.823258400E0,-2.094846010E0
2.629967240E0,-5.545532703E-1,-9.765767097E0,-2.118201971E0
2.632479167E0,-5.305985212E-1,-9.784931183E0,-2.090054989E0
2.634991094E0,-5.258075595E-1,-9.818468094E0,-2.090054989E0
2.637503021E0,-5.497623086E-1,-9.770558357E0,-2.137365818E0
2.640014948E0,-5.258075595E-1,-9.760975838E0,-2.085263968E0
2.642526927E0,-5.258075595E-1,-9.775348663E0,-2.066100359E0
2.645038854E0,-5.832990408E-1,-9.751394272E0,-2.099637032E0
2.647550782E0,-5.497623086E-1,-9.756185532E0,-2.108619928E0
2.650062709E0,-5.545532703E-1,-9.731631279E0,-2.142156601E0
2.652574636E0,-5.545532703E-1,-9.707676888E0,-2.075682163E0
2.655086563E0,-5.593442321E-1,-9.726840973E0,-2.070891142E0
2.657598542E0,-5.449713469E-1,-9.702885628E0,-2.070891142E0
2.660110469E0,-5.641351938E-1,-9.698095322E0,-2.122992754E0
2.662622396E0,-5.305985212E-1,-9.698095322E0,-2.104427814E0
2.665134323E0,-5.832990408E-1,-9.683721542E0,-2.075682163E0
2.667646250E0,-5.976719260E-1,-9.678931236E0,-2.085263968E0
2.670158177E0,-6.264176369E-1,-9.698095322E0,-2.066100359E0
2.672670104E0,-6.072537899E-1,-9.654975891E0,-2.090054989E0
2.675182084E0,-6.024628282E-1,-9.631021500E0,-2.099637032E0
2.677694011E0,-5.785080791E-1,-9.645394325E0,-2.108619928E0
2.680205938E0,-5.880900025E-1,-9.669348717E0,-2.070891142E0
2.682717865E0,-6.024628282E-1,-9.683721542E0,-2.090054989E0
2.685229792E0,-6.168357134E-1,-9.678931236E0,-2.090054989E0
2.687741719E0,-5.928809643E-1,-9.693304062E0,-2.094846010E0
2.690253698E0,-5.785080791E-1,-9.683721542E0,-2.037953377E0
2.692765625E0,-6.413893700E-1,-9.650185585E0,-2.099637032E0
2.695277552E0,-5.976719260E-1,-9.722049713E0,-2.118201971E0
2.697789479E0,-5.737171173E-1,-9.693304062E0,-2.070891142E0
2.700301407E0,-5.401803851E-1,-9.674139977E0,-2.080473185E0
2.702813334E0,-5.689261556E-1,-9.659767151E0,-2.080473185E0
2.705325261E0,-5.689261556E-1,-9.674139977E0,-2.047535181E0
2.707837240E0,-5.737171173E-1,-9.698095322E0,-2.118201971E0
2.710349167E0,-5.545532703E-1,-9.702885628E0,-2.057117224E0
2.712861094E0,-5.449713469E-1,-9.712468147E0,-2.066699028E0
2.715373021E0,-5.449713469E-1,-9.707676888E0,-2.057117224E0
2.717884948E0,-5.880900025E-1,-9.746603012E0,-2.066699028E0
2.720396875E0,-5.305985212E-1,-9.726840973E0,-2.104427814E0
2.722908802E0,-5.353894830E-1,-9.770558357E0,-2.070891142E0
2.725420782E0,-5.162256360E-1,-9.770558357E0,-2.057117224E0
2.727932709E0,-5.066437125E-1,-9.760975838E0,-2.037953377E0
2.730444636E0,-5.449713469E-1,-9.751394272E0,-2.052326202E0
2.732956563E0,-5.114346743E-1,-9.741213799E0,-2.099637032E0
2.735468490E0,-5.114346743E-1,-9.760975838E0,-2.146348715E0
2.737980417E0,-5.114346743E-1,-9.760975838E0,-2.137365818E0
2.740492396E0,-5.162256360E-1,-9.751394272E0,-2.080473185E0
2.743004323E0,-4.916719794E-1,-9.751394272E0,-2.075682163E0
2.745516250E0,-5.162256360E-1,-9.770558357E0,-2.122992754E0
2.748028177E0,-4.916719794E-1,-9.726840973E0,-2.099637032E0
2.750540104E0,-5.258075595E-1,-9.746004105E0,-2.057117224E0
2.753052032E0,-5.641351938E-1,-9.765767097E0,-2.066699028E0
2.755563959E0,-5.497623086E-1,-9.756185532E0,-2.061908245E0
2.758075938E0,-5.641351938E-1,-9.804095268E0,-2.061908245E0
2.760587865E0,-5.449713469E-1,-9.832840919E0,-2.113410950E0
2.763099792E0,-5.545532703E-1,-9.804095268E0,-2.047535181E0
2.765611719E0,-5.737171173E-1,-9.804095268E0,-2.057117224E0
2.768123646E0,-5.832990408E-1,-9.780139923E0,-2.090054989E0
2.770635573E0,-5.928809643E-1,-9.775348663E0,-2.127783775E0
2.773147552E0,-5.401803851E-1,-9.789721489E0,-2.066699028E0
2.775659479E0,-5.449713469E-1,-9.818468094E0,-2.052326202E0
2.778171407E0,-5.497623086E-1,-9.789721489E0,-2.061908245E0
2.780683334E0,-5.593442321E-1,-9.751394272E0,-2.047535181E0
2.783195261E0,-5.305985212E-1,-9.780139923E0,-2.075682163E0
2.785707188E0,-5.305985212E-1,-9.746004105E0,-2.118201971E0
2.788219115E0,-5.401803851E-1,-9.760975838E0,-2.090054989E0
2.790731042E0,-4.970617890E-1,-9.702885628E0,-2.042744398E0
2.793242865E0,-5.401803851E-1,-9.736422539E0,-2.085263968E0
2.795754740E0,-5.593442321E-1,-9.698095322E0,-2.099637032E0
2.798266615E0,-5.305985212E-1,-9.707676888E0,-2.066699028E0
2.800778490E0,-5.210165977E-1,-9.741213799E0,-2.085263968E0
2.803290365E0,-5.545532703E-1,-9.717258453E0,-2.075682163E0
2.805802240E0,-5.449713469E-1,-9.698095322E0,-2.075682163E0
2.808314063E0,-5.497623086E-1,-9.688512802E0,-2.019388437E0
2.810825938E0,-5.545532703E-1,-9.750795364E0,-2.070891142E0
2.813337813E0,-5.449713469E-1,-9.736422539E0,-2.094846010E0
2.815849688E0,-5.689261556E-1,-9.726840973E0,-2.042744398E0
2.818361563E0,-5.162256360E-1,-9.741213799E0,-2.080473185E0
2.820873438E0,-5.258075595E-1,-9.726840973E0,-2.066699028E0
2.823385261E0,-5.066437125E-1,-9.731631279E0,-2.075682163E0
2.825897136E0,-5.641351938E-1,-9.736422539E0,-2.028970242E0
2.828409011E0,-5.162256360E-1,-9.712468147E0,-2.000224590E0
2.830920886E0,-4.677171707E-1,-9.669348717E0,-2.066699028E0
2.833432761E0,-5.066437125E-1,-9.731631279E0,-2.070891142E0
2.835944636E0,-5.114346743E-1,-9.702885628E0,-1.995433569E0
2.838456459E0,-5.641351938E-1,-9.698095322E0,-2.024179459E0
2.840968334E0,-5.114346743E-1,-9.674139977E0,-2.052326202E0
2.843480209E0,-5.497623086E-1,-9.678931236E0,-2.066699028E0
2.845992084E0,-5.210165977E-1,-9.669348717E0,-2.024179459E0
2.848503959E0,-5.305985212E-1,-9.645394325E0,-2.075682163E0
2.851015834E0,-5.497623086E-1,-9.669348717E0,-2.090054989E0
2.853527657E0,-5.449713469E-1,-9.702885628E0,-2.118201971E0
2.856039532E0,-5.162256360E-1,-9.678931236E0,-2.066699028E0
2.858551407E0,-5.305985212E-1,-9.717258453E0,-2.090054989E0
2.861063282E0,-5.210165977E-1,-9.693304062E0,-2.061908245E0
2.863575157E0,-5.210165977E-1,-9.722049713E0,-2.108619928E0
2.866087032E0,-5.401803851E-1,-9.736422539E0,-2.070891142E0
2.868598907E0,-5.018527508E-1,-9.698095322E0,-2.127783775E0
2.871110729E0,-4.874798954E-1,-9.693304062E0,-2.122992754E0
2.873622604E0,-5.353894830E-1,-9.722049713E0,-2.094846010E0
2.876134479E0,-5.689261556E-1,-9.760975838E0,-2.094846010E0
2.878646354E0,-5.210165977E-1,-9.726840973E0,-2.090054989E0
2.881158229E0,-5.114346743E-1,-9.741213799E0,-2.113410950E0
2.883670104E0,-4.970617890E-1,-9.736422539E0,-2.104427814E0
2.886181927E0,-4.922708273E-1,-9.726840973E0,-2.142156601E0
2.888693802E0,-5.210165977E-1,-9.707676888E0,-2.122992754E0
2.891205677E0,-5.210165977E-1,-9.722049713E0,-2.099637032E0
2.893717552E0,-5.018527508E-1,-9.775348663E0,-2.075682163E0
2.896229427E0,-5.066437125E-1,-9.755586624E0,-2.070891142E0
2.898741302E0,-5.449713469E-1,-9.722049713E0,-2.057117224E0
2.901253125E0,-5.689261556E-1,-9.750795364E0,-2.080473185E0
2.903765000E0,-5.593442321E-1,-9.746004105E0,-2.047535181E0
2.906276875E0,-4.874798954E-1,-9.722049713E0,-2.070891142E0
2.908788750E0,-5.353894830E-1,-9.750795364E0,-2.066699028E0
2.911300625E0,-5.976719260E-1,-9.780139923E0,-2.052326202E0
2.913812500E0,-5.689261556E-1,-9.741213799E0,-2.099637032E0
2.916324323E0,-5.593442321E-1,-9.722049713E0,-2.080473185E0
2.918836198E0,-5.258075595E-1,-9.726840973E0,-2.024179459E0
2.921348073E0,-5.737171173E-1,-9.750795364E0,-2.005015612E0
2.923859948E0,-6.024628282E-1,-9.770558357E0,-2.080473185E0
2.926371823E0,-5.880900025E-1,-9.755586624E0,-2.099637032E0
2.928883698E0,-5.497623086E-1,-9.707676888E0,-2.094846010E0
2.931395521E0,-5.593442321E-1,-9.722049713E0,-2.061908245E0
2.933907396E0,-5.641351938E-1,-9.702885628E0,-2.052326202E0
2.936419271E0,-5.976719260E-1,-9.746004105E0,-2.028970242E0
2.938931146E0,-6.174346209E-1,-9.731631279E0,-2.057117224E0
2.941443021E0,-6.174346209E-1,-9.726840973E0,-2.033162355E0
2.943954896E0,-6.024628282E-1,-9.712468147E0,-2.028970242E0
2.946466719E0,-6.222255230E-1,-9.717258453E0,-2.024179459E0
2.948978594E0,-5.976719260E-1,-9.702885628E0,-2.061908245E0
2.951490469E0,-6.318074465E-1,-9.726840973E0,-2.070891142E0
2.954002344E0,-6.222255230E-1,-9.707676888E0,-2.080473185E0
2.956514219E0,-6.318074465E-1,-9.669348717E0,-2.099637032E0
2.959026094E0,-6.365984082E-1,-9.654975891E0,-2.037953377E0
2.961537917E0,-6.557622552E-1,-9.678931236E0,-2.033162355E0
2.964049792E0,-6.988808513E-1,-9.659767151E0,-2.052326202E0
2.966561667E0,-6.845079660E-1,-9.626230240E0,-2.094846010E0
2.969073542E0,-6.988808513E-1,-9.664558411E0,-2.080473185E0
2.971585417E0,-7.425983548E-1,-9.669348717E0,-2.085263968E0
2.974097292E0,-6.797170639E-1,-9.640603065E0,-2.052326202E0
2.976609167E0,-7.036718130E-1,-9.596885681E0,-2.085263968E0
2.979120990E0,-7.180446982E-1,-9.693304062E0,-2.080473185E0
2.981632865E0,-7.036718130E-1,-9.698095322E0,-2.094846010E0
2.984144740E0,-7.372085452E-1,-9.664558411E0,-2.170303583E0
2.986656615E0,-7.228356600E-1,-9.688512802E0,-2.118201971E0
2.989168490E0,-7.372085452E-1,-9.698095322E0,-2.108619928E0
2.991680365E0,-7.425983548E-1,-9.669348717E0,-2.104427814E0
2.994192188E0,-7.228356600E-1,-9.664558411E0,-2.127783775E0
2.996704063E0,-7.569712400E-1,-9.726840973E0,-2.122992754E0
2.999215938E0,-7.228356600E-1,-9.650185585E0,-2.094846010E0
3.001727813E0,-7.084627748E-1,-9.616648674E0,-2.127783775E0
3.004239688E0,-6.940898895E-1,-9.664558411E0,-2.132574797E0
3.006751563E0,-7.228356600E-1,-9.626230240E0,-2.137365818E0
3.009263386E0,-7.521802783E-1,-9.688512802E0,-2.075682163E0
3.011775261E0,-7.419995070E-1,-9.678931236E0,-2.146348715E0
3.014287136E0,-7.132537365E-1,-9.626230240E0,-2.165512562E0
3.016799011E0,-6.892989278E-1,-9.674139977E0,-2.142156601E0
3.019310886E0,-6.988808513E-1,-9.674139977E0,-2.155930758E0
3.021822761E0,-6.845079660E-1,-9.674139977E0,-2.151139736E0
3.024334584E0,-7.324175835E-1,-9.664558411E0,-2.155930758E0
3.026846459E0,-7.324175835E-1,-9.722049713E0,-2.193659544E0
3.029358334E0,-7.228356600E-1,-9.722049713E0,-2.127783775E0
3.031870209E0,-6.749261022E-1,-9.746004105E0,-2.104427814E0
3.034382084E0,-6.701351404E-1,-9.726840973E0,-2.127783775E0
3.036893959E0,-6.988808513E-1,-9.717258453E0,-2.142156601E0
3.039405782E0,-6.701351404E-1,-9.789721489E0,-2.122992754E0
3.041917657E0,-6.653441787E-1,-9.770558357E0,-2.146348715E0
3.044429532E0,-6.653441787E-1,-9.794512749E0,-2.094846010E0
3.046941407E0,-6.749261022E-1,-9.804095268E0,-2.108619928E0
3.049453282E0,-6.653441787E-1,-9.775348663E0,-2.099637032E0
3.051965157E0,-6.701351404E-1,-9.741213799E0,-2.108619928E0
3.054476979E0,-6.461803317E-1,-9.784931183E0,-2.080473185E0
3.056988854E0,-6.509712934E-1,-9.780139923E0,-2.057117224E0
3.059500729E0,-6.318074465E-1,-9.823258400E0,-2.075682163E0
3.062012604E0,-6.892989278E-1,-9.828049660E0,-2.090054989E0
3.064524479E0,-6.701351404E-1,-9.784931183E0,-2.080473185E0
3.067036354E0,-6.749261022E-1,-9.780139923E0,-2.042744398E0
3.069548229E0,-7.036718130E-1,-9.823258400E0,-2.094846010E0
3.072060052E0,-6.701351404E-1,-9.784931183E0,-2.052326202E0
3.074571927E0,-6.845079660E-1,-9.804095268E0,-2.061908245E0
3.077083802E0,-6.988808513E-1,-9.794512749E0,-2.080473185E0
3.079595677E0,-7.761350274E-1,-9.832840919E0,-2.042744398E0
3.082107552E0,-7.857169509E-1,-9.832840919E0,-2.057117224E0
3.084619427E0,-8.000898361E-1,-9.852004051E0,-2.057117224E0
3.087131250E0,-7.569712400E-1,-9.837631226E0,-2.070891142E0
3.089643125E0,-7.952988744E-1,-9.847213745E0,-2.118201971E0
3.092155000E0,-8.000898361E-1,-9.852004051E0,-2.122992754E0
3.094666875E0,-7.905079126E-1,-9.890332222E0,-2.057117224E0
3.097178750E0,-8.048807979E-1,-9.847213745E0,-2.118201971E0
3.099690625E0,-8.336265087E-1,-9.885540962E0,-2.132574797E0
3.102202448E0,-8.096717596E-1,-9.871168137E0,-2.108619928E0
3.104714323E0,-8.623722792E-1,-9.895122528E0,-2.151139736E0
3.107226198E0,-8.384174705E-1,-9.919676781E0,-2.132574797E0
3.109738073E0,-8.192536831E-1,-9.904705048E0,-2.132574797E0
3.112249948E0,-8.575813174E-1,-9.885540962E0,-2.080473185E0
3.114761823E0,-8.821349740E-1,-9.852004051E0,-2.113410950E0
3.117273646E0,-8.527903557E-1,-9.852004051E0,-2.137365818E0
3.119785521E0,-8.384174705E-1,-9.875959396E0,-2.099637032E0
3.122297396E0,-8.917168975E-1,-9.866376877E0,-2.052326202E0
3.124809271E0,-8.773440123E-1,-9.842422485E0,-2.024179459E0
3.127321146E0,-8.527903557E-1,-9.808885574E0,-2.080473185E0
3.129833021E0,-8.575813174E-1,-9.818468094E0,-2.014597416E0
3.132344844E0,-8.773440123E-1,-9.794512749E0,-2.037953377E0
3.134856719E0,-8.821349740E-1,-9.760376930E0,-2.066699028E0
3.137368594E0,-8.869259357E-1,-9.760376930E0,-2.019388437E0
3.139880469E0,-8.240446448E-1,-9.717258453E0,-1.986450553E0
3.142392344E0,-8.432084322E-1,-9.726840973E0,-1.995433569E0
3.144904219E0,-8.096717596E-1,-9.707676888E0,-1.981659651E0
3.147416042E0,-8.000898361E-1,-9.664558411E0,-2.009806395E0
3.149927917E0,-8.432084322E-1,-9.669348717E0,-2.000224590E0
3.152439792E0,-8.288355470E-1,-9.582512856E0,-2.024179459E0
3.154951667E0,-8.144627213E-1,-9.534603119E0,-2.047535181E0
3.157463542E0,-8.192536831E-1,-9.501067162E0,-2.005015612E0
3.159975417E0,-8.623722792E-1,-9.529812813E0,-2.042744398E0
3.162487292E0,-8.869259357E-1,-9.501067162E0,-1.995433569E0
3.164999115E0,-8.527903557E-1,-9.452558517E0,-2.047535181E0
3.167510990E0,-8.288355470E-1,-9.481903076E0,-2.009806395E0
3.170022865E0,-8.240446448E-1,-9.505857468E0,-2.033162355E0
3.172534740E0,-8.144627213E-1,-9.496275902E0,-2.057117224E0
3.175046615E0,-8.240446448E-1,-9.477111816E0,-2.057117224E0
3.177558490E0,-8.240446448E-1,-9.481903076E0,-2.042744398E0
3.180070313E0,-8.336265087E-1,-9.520230293E0,-2.094846010E0
3.182582188E0,-8.288355470E-1,-9.496275902E0,-2.047535181E0
3.185094063E0,-8.677620888E-1,-9.520230293E0,-2.085263968E0
3.187605938E0,-8.917168975E-1,-9.486694336E0,-2.108619928E0
3.190117813E0,-8.869259357E-1,-9.529812813E0,-2.085263968E0
3.192629688E0,-8.288355470E-1,-9.496275902E0,-2.142156601E0
3.195141511E0,-8.575813174E-1,-9.568140030E0,-2.094846010E0
3.197653386E0,-8.725530505E-1,-9.553767204E0,-2.155930758E0
3.200165261E0,-9.012988210E-1,-9.572931290E0,-2.108619928E0
3.202677136E0,-9.204626083E-1,-9.548975945E0,-2.127783775E0
3.205189011E0,-9.348354936E-1,-9.577722549E0,-2.142156601E0
3.207700886E0,-9.683722258E-1,-9.650185585E0,-2.155930758E0
3.210212709E0,-9.923269749E-1,-9.659767151E0,-2.203241348E0
3.212724584E0,-9.779540896E-1,-9.596885681E0,-2.137365818E0
3.215236459E0,-1.007298708E0,-9.616049767E0,-2.137365818E0
3.217748334E0,-1.074372172E0,-9.650185585E0,-2.203241348E0
3.220260209E0,-1.161208272E0,-9.640603065E0,-2.231388330E0
3.222772084E0,-1.170790195E0,-9.631021500E0,-2.259535074E0
3.225283907E0,-1.185163021E0,-9.592095375E0,-2.273907900E0
3.227795782E0,-1.189953923E0,-9.693304062E0,-2.302054882E0
3.230307657E0,-1.247445464E0,-9.693304062E0,-2.326009750E0
3.232819532E0,-1.267208099E0,-9.645394325E0,-2.297263861E0
3.235331407E0,-1.286371946E0,-9.717258453E0,-2.354156494E0
3.237843282E0,-1.267208099E0,-9.707676888E0,-2.387094259E0
3.240355104E0,-1.300744891E0,-9.741213799E0,-2.410450220E0
3.242866979E0,-1.305535793E0,-9.755586624E0,-2.457761049E0
3.245378854E0,-1.305535793E0,-9.760376930E0,-2.519444466E0
3.247890729E0,-1.300744891E0,-9.780139923E0,-2.594902039E0
3.250402604E0,-1.281581044E0,-9.765168190E0,-2.542800426E0
3.252914479E0,-1.300744891E0,-9.794512749E0,-2.533218622E0
3.255426302E0,-1.315117717E0,-9.760376930E0,-2.547591448E0
3.257938177E0,-1.377400160E0,-9.746004105E0,-2.561964273E0
3.260450052E0,-1.382191062E0,-9.765168190E0,-2.495489836E0
3.262961927E0,-1.372609258E0,-9.775348663E0,-2.523636580E0
3.265473802E0,-1.348654389E0,-9.799304008E0,-2.505071640E0
3.267985677E0,-1.267208099E0,-9.852004051E0,-2.557173252E0
3.270497552E0,-1.334281564E0,-9.784931183E0,-2.623049021E0
3.273009375E0,-1.397162914E0,-9.750795364E0,-2.580529213E0
3.275521250E0,-1.406744719E0,-9.755586624E0,-2.481715679E0
3.278033125E0,-1.353445411E0,-9.741213799E0,-2.519444466E0
3.280545000E0,-1.353445411E0,-9.702885628E0,-2.514653683E0
3.283056875E0,-1.353445411E0,-9.712468147E0,-2.490698814E0
3.285568750E0,-1.305535793E0,-9.726840973E0,-2.462551832E0
3.288080573E0,-1.315117717E0,-9.717258453E0,-2.505071640E0
3.290592448E0,-1.324699640E0,-9.693304062E0,-2.481715679E0
3.293104323E0,-1.305535793E0,-9.650185585E0,-2.528427601E0
3.295616146E0,-1.262417197E0,-9.621439934E0,-2.542800426E0
3.298128021E0,-1.271999121E0,-9.582512856E0,-2.594902039E0
3.300639896E0,-1.295953870E0,-9.539394379E0,-2.594902039E0
3.303151771E0,-1.291162968E0,-9.491484642E0,-2.594902039E0
3.305663594E0,-1.324699640E0,-9.356739044E0,-2.585320234E0
3.308175469E0,-1.401953816E0,-9.198039055E0,-2.575738192E0
3.310687344E0,-1.546281457E0,-8.914174080E0,-2.528427601E0
3.313199219E0,-1.575027108E0,-8.895010948E0,-2.363738537E0
3.315711042E0,-1.483400106E0,-9.193247795E0,-2.297263861E0
3.318222917E0,-1.353445411E0,-9.399857521E0,-2.684133768E0
3.320734792E0,-1.300744891E0,-9.371111870E0,-2.924879313E0
3.323246667E0,-1.339072466E0,-9.404648781E0,-3.009918690E0
3.325758490E0,-1.343863487E0,-9.337574959E0,-2.990754843E0
3.328270365E0,-1.392371893E0,-9.202829361E0,-3.085376263E0
3.330782240E0,-1.464236259E0,-9.169293404E0,-3.033274651E0
3.333294115E0,-1.517535686E0,-9.115993500E0,-2.967399120E0
3.335805938E0,-1.657072306E0,-8.957293510E0,-2.962608099E0
3.338317813E0,-1.762473345E0,-8.895010948E0,-2.939252138E0
3.340829688E0,-1.810981750E0,-8.784219742E0,-2.920088291E0
3.343341563E0,-1.878055215E0,-8.697383881E0,-2.877568483E0
3.345853386E0,-1.969682217E0,-8.606355667E0,-2.839839697E0
3.348365261E0,-2.027173758E0,-8.490774155E0,-2.859003544E0
3.350877136E0,-2.017591715E0,-8.447654724E0,-2.882359505E0
3.353389011E0,-2.056518316E0,-8.356027603E0,-2.854212761E0
3.355900834E0,-2.090054989E0,-8.226073265E0,-2.901523352E0
3.358412709E0,-2.114009857E0,-8.168581963E0,-2.953026056E0
3.360924584E0,-2.152337551E0,-8.144626617E0,-3.066212654E0
3.363436459E0,-2.166710377E0,-8.076954842E0,-3.127896070E0
3.365948282E0,-2.253546476E0,-7.971553802E0,-3.306958199E0
3.368460157E0,-2.340382576E0,-7.942808151E0,-3.457873344E0
3.370972032E0,-2.407455921E0,-7.851181030E0,-3.453082323E0
3.373483907E0,-2.561365366E0,-7.759553909E0,-3.457873344E0
3.375995729E0,-2.681738138E0,-7.735599041E0,-3.457873344E0
3.378507604E0,-2.691320181E0,-7.721226215E0,-3.471647263E0
3.381019479E0,-2.730246782E0,-7.745181084E0,-3.505183935E0
3.383531354E0,-2.806901932E0,-7.706853390E0,-3.481229305E0
3.386043177E0,-2.879365206E0,-7.740389824E0,-3.518958092E0
3.388555052E0,-2.985365152E0,-7.711644173E0,-3.608788490E0
3.391066927E0,-3.081184387E0,-7.793689251E0,-3.712392807E0
3.393578802E0,-3.110528946E0,-7.769135952E0,-3.693827868E0
3.396090625E0,-3.129692793E0,-7.822435379E0,-3.669873238E0
3.398602500E0,-3.201557159E0,-7.903881550E0,-3.623161316E0
3.401114375E0,-3.442302704E0,-7.740389824E0,-3.863307953E0
3.403626250E0,-3.754912615E0,-7.596062660E0,-4.089680672E0
3.406138073E0,-4.207658291E0,-7.370288372E0,-4.490923405E0
3.408649948E0,-4.467567444E0,-7.394243240E0,-5.042482376E0
3.411161823E0,-4.477149487E0,-7.572107792E0,-5.353894711E0
3.413673698E0,-4.520267963E0,-7.832016945E0,-5.627577782E0
3.416185521E0,-4.457985401E0,-8.173373222E0,-5.537747383E0
3.418697396E0,-4.072912216E0,-8.558445930E0,-5.070629120E0
3.421209271E0,-3.639929533E0,-8.832129478E0,-4.377737045E0
3.423721146E0,-3.293184042E0,-9.188456535E0,-3.698618889E0
3.426232969E0,-3.028483629E0,-9.553767204E0,-3.250065565E0
3.428744844E0,-2.821274757E0,-9.895122528E0,-2.948235273E0
3.431256719E0,-2.605082989E0,-1.017419624E1,-2.764382124E0
3.433768594E0,-2.436201572E0,-1.035685158E1,-2.594902039E0
3.436280417E0,-2.489500999E0,-1.055447865E1,-2.594902039E0
3.438792292E0,-2.479919195E0,-1.083774376E1,-2.476924896E0
3.441304167E0,-2.523037672E0,-1.107848930E1,-2.175094604E0
3.443816042E0,-2.609873772E0,-1.115035343E1,-1.953512788E0
3.446327865E0,-2.715873718E0,-1.108807087E1,-1.882247210E0
3.448839740E0,-2.811692953E0,-1.109765339E1,-1.948721766E0
3.451351615E0,-2.797320127E0,-1.114077187E1,-1.957704782E0
3.453863490E0,-2.782947302E0,-1.117490768E1,-1.981659651E0
3.456375313E0,-2.830856800E0,-1.121323490E1,-1.934348941E0
3.458887188E0,-2.841037512E0,-1.132881737E1,-1.910992980E0
3.461399063E0,-2.782947302E0,-1.137672615E1,-1.962495804E0
3.463910938E0,-2.758992434E0,-1.139589024E1,-2.047535181E0
3.466422761E0,-2.686529160E0,-1.146296406E1,-2.075682163E0
3.468934636E0,-2.576337099E0,-1.154021835E1,-2.080473185E0
3.471446511E0,-2.503874063E0,-1.163663578E1,-2.033162355E0
3.473958386E0,-2.421828747E0,-1.168933678E1,-2.047535181E0
3.476470209E0,-2.311636686E0,-1.168933678E1,-2.066699028E0
3.478982084E0,-2.172100067E0,-1.161687279E1,-2.019388437E0
3.481493959E0,-2.094846010E0,-1.155459118E1,-2.080473185E0
3.484005834E0,-1.979264140E0,-1.150668144E1,-2.104427814E0
3.486517657E0,-1.897219062E0,-1.139109898E1,-2.142156601E0
3.489029532E0,-1.839727521E0,-1.125156307E1,-2.208032370E0
3.491541407E0,-1.815772772E0,-1.111681747E1,-2.193659544E0
3.494053282E0,-1.820563674E0,-1.089583397E1,-2.217614174E0
3.496565104E0,-1.782235980E0,-1.073234272E1,-2.288280964E0
3.499076979E0,-1.719354749E0,-1.054908848E1,-2.240970135E0
3.501588854E0,-1.738518596E0,-1.037122440E1,-2.264326096E0
3.504100729E0,-1.738518596E0,-1.013586903E1,-2.293071747E0
3.506612552E0,-1.733727574E0,-9.923869133E0,-2.344574690E0
3.509124427E0,-1.767264247E0,-9.765168190E0,-2.387094259E0
3.511636302E0,-1.844518423E0,-9.625631332E0,-2.377512455E0
3.514148177E0,-1.882846117E0,-9.438185692E0,-2.452970028E0
3.516660000E0,-1.974473238E0,-9.245947838E0,-2.528427601E0
3.519171875E0,-2.037354469E0,-9.120784760E0,-2.570947409E0
3.521683750E0,-2.075682163E0,-8.923756599E0,-2.703297615E0
3.524195625E0,-2.152337551E0,-8.784219742E0,-2.797320127E0
3.526707448E0,-2.267919302E0,-8.687801361E0,-2.887150526E0
3.529219323E0,-2.316427708E0,-8.644682884E0,-2.934461117E0
3.531731198E0,-2.345173597E0,-8.601564407E0,-2.981173038E0
3.534243073E0,-2.397874117E0,-8.568027496E0,-3.023692846E0
3.536754896E0,-2.431410789E0,-8.457237244E0,-3.066212654E0
3.539266771E0,-2.451173306E0,-8.452445984E0,-3.071003437E0
3.541778646E0,-2.479919195E0,-8.428491592E0,-3.103941441E0
3.544290521E0,-2.489500999E0,-8.462027550E0,-3.146461010E0
3.546802344E0,-2.503874063E0,-8.433281898E0,-3.188980818E0
3.549314219E0,-2.532619715E0,-8.370400429E0,-3.118314266E0
3.551826094E0,-2.619455814E0,-8.428491592E0,-3.000336885E0
3.554337969E0,-2.691320181E0,-8.428491592E0,-2.920088291E0
3.556849792E0,-2.648201466E0,-8.379982948E0,-2.887150526E0
3.559361667E0,-2.638619661E0,-8.394355774E0,-2.806901932E0
3.561873542E0,-2.590710163E0,-8.442864418E0,-2.688924551E0
3.564385417E0,-2.585919142E0,-8.447654724E0,-2.603885174E0
3.566897240E0,-2.556574583E0,-8.418909073E0,-2.561964273E0
3.569409115E0,-2.518246889E0,-8.418909073E0,-2.613466978E0
3.571920990E0,-2.494292021E0,-8.452445984E0,-2.561964273E0
3.574432865E0,-2.421828747E0,-8.389564514E0,-2.585320234E0
3.576944688E0,-2.407455921E0,-8.442864418E0,-2.603885174E0
3.579456563E0,-2.359546423E0,-8.457237244E0,-2.675150633E0
3.581968438E0,-2.316427708E0,-8.375191689E0,-2.741026402E0
3.584480313E0,-2.311636686E0,-8.365610123E0,-2.708088398E0
3.586992136E0,-2.229591608E0,-8.356027603E0,-2.783545971E0
3.589504011E0,-2.267919302E0,-8.346446037E0,-2.867986679E0
3.592015886E0,-2.224800587E0,-8.317700386E0,-2.929670334E0
3.594527761E0,-2.152337551E0,-8.293745995E0,-2.967399120E0
3.597039584E0,-2.181682110E0,-8.288954735E0,-3.085376263E0
3.599551459E0,-2.133173704E0,-8.298536301E0,-3.071003437E0
3.602063334E0,-2.142755508E0,-8.298536301E0,-3.113523245E0
3.604575209E0,-2.147546530E0,-8.274581909E0,-3.174607992E0
3.607087032E0,-2.104427814E0,-8.274581909E0,-3.254856586E0
3.609598907E0,-2.128382683E0,-8.245237350E0,-3.302167177E0
3.612110782E0,-2.109218836E0,-8.240446091E0,-3.325523138E0
3.614622657E0,-2.099637032E0,-8.211700439E0,-3.354268789E0
3.617134479E0,-2.075682163E0,-8.192536354E0,-3.462664127E0
3.619646354E0,-2.147546530E0,-8.226073265E0,-3.443500519E0
3.622158229E0,-2.215218782E0,-8.230864525E0,-3.476438284E0
3.624670104E0,-2.186473131E0,-8.226073265E0,-3.481229305E0
3.627181927E0,-2.191263914E0,-8.235654831E0,-3.509974957E0
3.629693802E0,-2.196054935E0,-8.192536354E0,-3.509974957E0
3.632205677E0,-2.263128281E0,-8.149417877E0,-3.505183935E0
3.634717552E0,-2.248755455E0,-8.178163528E0,-3.472246170E0
3.637229375E0,-2.292473078E0,-8.144626617E0,-3.509974957E0
3.639741250E0,-2.345173597E0,-8.206909180E0,-3.589624643E0
3.642253125E0,-2.451173306E0,-8.158999443E0,-3.599206448E0
3.644765000E0,-2.494292021E0,-8.115880966E0,-3.566268682E0
3.647276823E0,-2.475128174E0,-8.100909233E0,-3.571059704E0
3.649788698E0,-2.475128174E0,-8.135045052E0,-3.627353430E0
3.652300573E0,-2.475128174E0,-8.149417877E0,-3.641726255E0
3.654812448E0,-2.494292021E0,-8.115880966E0,-3.636935234E0
3.657324271E0,-2.475128174E0,-8.149417877E0,-3.665082216E0
3.659836146E0,-2.489500999E0,-8.168581963E0,-3.712392807E0
3.662348021E0,-2.499083042E0,-8.158999443E0,-3.707602024E0
3.664859896E0,-2.532619715E0,-8.135045052E0,-3.660890102E0
3.667371719E0,-2.551783562E0,-8.192536354E0,-3.815997362E0
3.669883594E0,-2.576337099E0,-8.245237350E0,-3.849534035E0
3.672395469E0,-2.609873772E0,-8.274581909E0,-3.863307953E0
3.674907344E0,-2.624246836E0,-8.303327560E0,-3.835161209E0
3.677419167E0,-2.652992487E0,-8.332073212E0,-3.820788383E0
3.679931042E0,-2.701500893E0,-8.332073212E0,-3.811805248E0
3.682442917E0,-2.725455761E0,-8.384774208E0,-3.844743013E0
3.684954792E0,-2.768574238E0,-8.462027550E0,-3.858517170E0
3.687466615E0,-2.773365259E0,-8.423700333E0,-3.825579166E0
3.689978490E0,-2.754201412E0,-8.442864418E0,-3.830370188E0
3.692490365E0,-2.758992434E0,-8.462027550E0,-3.891454935E0
3.695002240E0,-2.778156281E0,-8.529101372E0,-3.872889996E0
3.697514063E0,-2.806901932E0,-8.635101318E0,-3.844743013E0
3.700025938E0,-2.816483974E0,-8.625519753E0,-3.901036739E0
3.702537813E0,-2.893738031E0,-8.649474144E0,-3.957929373E0
3.705049688E0,-2.869783401E0,-8.644682884E0,-3.981285334E0
3.707561511E0,-2.879365206E0,-8.692592621E0,-4.004641056E0
3.710073386E0,-2.932065725E0,-8.706965446E0,-3.962720394E0
3.712585261E0,-2.966201305E0,-8.692592621E0,-3.981285334E0
3.715097136E0,-2.985365152E0,-8.683011055E0,-4.000449181E0
3.717608959E0,-3.028483629E0,-8.635101318E0,-3.938765526E0
3.720120834E0,-3.066811323E0,-8.673428535E0,-3.872889996E0
3.722632709E0,-3.139274597E0,-8.659055710E0,-3.920200586E0
3.725144584E0,-3.172811270E0,-8.683011055E0,-3.905827761E0
3.727656407E0,-3.191975117E0,-8.683011055E0,-3.792641401E0
3.730168282E0,-3.226110697E0,-8.644682884E0,-3.783059597E0
3.732680157E0,-3.297975063E0,-8.596773148E0,-3.820788383E0
3.735192032E0,-3.341093779E0,-8.582400322E0,-3.844743013E0
3.737703854E0,-3.370438337E0,-8.620728493E0,-3.820788383E0
3.740215729E0,-3.375229359E0,-8.587191582E0,-3.797432423E0
3.742727604E0,-3.408766031E0,-8.490774155E0,-3.736347675E0
3.745239479E0,-3.461466551E0,-8.495564461E0,-3.815997362E0
3.747751302E0,-3.509974957E0,-8.447654724E0,-3.731556654E0
3.750263177E0,-3.490811110E0,-8.476400375E0,-3.660890102E0
3.752775052E0,-3.495602131E0,-8.423700333E0,-3.632144451E0
3.755286927E0,-3.524347782E0,-8.399147034E0,-3.636935234E0
3.757798750E0,-3.533929825E0,-8.394355774E0,-3.679455042E0
3.760310625E0,-3.538720608E0,-8.365610123E0,-3.679455042E0
3.762822500E0,-3.610584974E0,-8.360818863E0,-3.627353430E0
3.765334375E0,-3.659093380E0,-8.308118820E0,-3.684246063E0
3.767846198E0,-3.659093380E0,-8.293745995E0,-3.669873238E0
3.770358073E0,-3.721375942E0,-8.303327560E0,-3.689036846E0
3.772869948E0,-3.750720501E0,-8.269790649E0,-3.684246063E0
3.775381823E0,-3.750720501E0,-8.288954735E0,-3.656099081E0
3.777893646E0,-3.735748768E0,-8.341654778E0,-3.731556654E0
3.780405521E0,-3.730957747E0,-8.351237297E0,-3.731556654E0
3.782917396E0,-3.765093327E0,-8.428491592E0,-3.707602024E0
3.785429271E0,-3.760302544E0,-8.466818810E0,-3.702811003E0
3.787941094E0,-3.745929480E0,-8.476400375E0,-3.707602024E0
3.790452969E0,-3.798629999E0,-8.548265457E0,-3.641726255E0
3.792964844E0,-3.798629999E0,-8.572219849E0,-3.702811003E0
3.795476667E0,-3.865703583E0,-8.625519753E0,-3.707602024E0
3.797988542E0,-3.808212042E0,-8.678219795E0,-3.802223206E0
3.800500417E0,-3.735748768E0,-8.774638176E0,-3.849534035E0
3.803012292E0,-3.735748768E0,-8.789011002E0,-3.853726149E0
3.805524167E0,-3.730957747E0,-8.899801254E0,-3.853726149E0
3.808035990E0,-3.726166964E0,-8.966875076E0,-3.849534035E0
3.810547865E0,-3.740539789E0,-9.029157639E0,-3.896245956E0
3.813059740E0,-3.784257174E0,-9.058502197E0,-3.948347569E0
3.815571615E0,-3.798629999E0,-9.077666283E0,-3.920200586E0
3.818083438E0,-3.798629999E0,-9.144739151E0,-3.933974743E0
3.820595313E0,-3.779466152E0,-9.187857628E0,-3.948347569E0
3.823107188E0,-3.808212042E0,-9.212411880E0,-4.028595924E0
3.825619063E0,-3.793839216E0,-9.212411880E0,-4.019014359E0
3.828130886E0,-3.774675369E0,-9.231575012E0,-4.009432316E0
3.830642761E0,-3.760302544E0,-9.293857574E0,-3.971703529E0
3.833154636E0,-3.702212095E0,-9.289067268E0,-4.019014359E0
3.835666511E0,-3.721375942E0,-9.269903183E0,-3.990867138E0
3.838178334E0,-3.784257174E0,-9.250739098E0,-4.108844757E0
3.840690209E0,-3.730957747E0,-9.289067268E0,-4.080098629E0
3.843202084E0,-3.745929480E0,-9.274694443E0,-4.132200718E0
3.845713959E0,-3.765093327E0,-9.284276009E0,-4.151364326E0
3.848225834E0,-3.760302544E0,-9.265111923E0,-4.212449074E0
3.850737657E0,-3.822584867E0,-9.279484749E0,-4.231612682E0
3.853249532E0,-3.808212042E0,-9.322603226E0,-4.245387077E0
3.855761407E0,-3.846539736E0,-9.341767311E0,-4.235805035E0
3.858273282E0,-3.923793793E0,-9.332185745E0,-4.217239857E0
3.860785104E0,-3.962121487E0,-9.269903183E0,-4.202867031E0
3.863296979E0,-3.952539682E0,-9.265111923E0,-4.198076248E0
3.865808854E0,-3.986076355E0,-9.298648834E0,-4.108844757E0
3.868320729E0,-4.015420914E0,-9.260321617E0,-4.104053497E0
3.870832552E0,-4.044166565E0,-9.289067268E0,-4.075906754E0
3.873344427E0,-4.116031170E0,-9.260321617E0,-4.061533928E0
3.875856302E0,-4.145375729E0,-9.298648834E0,-4.019014359E0
3.878368177E0,-4.125612736E0,-9.245947838E0,-3.948347569E0
3.880880000E0,-4.154957294E0,-9.236366272E0,-3.915409565E0
3.883391875E0,-4.236403942E0,-9.198039055E0,-3.915409565E0
3.885903750E0,-4.183703423E0,-9.168694496E0,-3.887262821E0
3.888415625E0,-4.183703423E0,-9.139948845E0,-3.887262821E0
3.890927500E0,-4.178912163E0,-9.130366325E0,-3.825579166E0
3.893439323E0,-4.212449074E0,-9.183067322E0,-3.754912615E0
3.895951198E0,-4.183703423E0,-9.159111977E0,-3.721974850E0
3.898463073E0,-4.159748554E0,-9.202829361E0,-3.684246063E0
3.900974948E0,-4.106449127E0,-9.250739098E0,-3.594415665E0
3.903486771E0,-4.039375782E0,-9.293857574E0,-3.603997469E0
3.905998646E0,-3.962121487E0,-9.336976051E0,-3.500392914E0
3.908510521E0,-3.933375835E0,-9.351947784E0,-3.410562515E0
3.911022396E0,-3.832166910E0,-9.466931343E0,-3.354268789E0
3.913534219E0,-3.692630291E0,-9.558558464E0,-3.316540003E0
3.916046094E0,-3.649511576E0,-9.683721542E0,-3.339895964E0
3.918557969E0,-3.500392914E0,-9.755586624E0,-3.241082430E0
3.921069844E0,-3.437511683E0,-9.852004051E0,-3.217127800E0
3.923581667E0,-3.370438337E0,-9.938241959E0,-3.221918583E0
3.926093542E0,-3.240483522E0,-9.996332169E0,-3.123105049E0
3.928605417E0,-3.105737925E0,-1.001070499E1,-3.118314266E0
3.931117292E0,-3.052438498E0,-1.010652351E1,-3.103941441E0
3.933629167E0,-2.912901878E0,-1.007298756E1,-3.090167284E0
3.936140990E0,-2.778156281E0,-1.009694195E1,-3.103941441E0
3.938652865E0,-2.672755241E0,-1.008736038E1,-3.061421633E0
3.941164740E0,-2.547591448E0,-1.012628651E1,-3.193771839E0
3.943676615E0,-2.369128227E0,-1.012149525E1,-3.203353643E0
3.946188438E0,-2.316427708E0,-1.007777786E1,-3.254856586E0
3.948700313E0,-2.253546476E0,-1.003945065E1,-3.321331024E0
3.951212188E0,-2.181682110E0,-1.005861473E1,-3.481229305E0
3.953724063E0,-2.210427761E0,-1.010652351E1,-3.627353430E0
3.956235886E0,-2.239173651E0,-1.013107777E1,-3.769285440E0
3.958747761E0,-2.258337498E0,-1.015982342E1,-3.872889996E0
3.961259636E0,-2.287682056E0,-1.030415058E1,-3.835161209E0
3.963771511E0,-2.412845850E0,-1.041913414E1,-3.872889996E0
3.966283334E0,-2.475128174E0,-1.054908848E1,-4.047161102E0
3.968795209E0,-2.542800426E0,-1.072695255E1,-3.976494312E0
3.971307084E0,-2.609873772E0,-1.089104366E1,-3.933974743E0
3.973818959E0,-2.739828587E0,-1.104495239E1,-4.009432316E0
3.976330782E0,-2.817082882E0,-1.126593590E1,-3.986076355E0
3.978842657E0,-2.922483921E0,-1.150668144E1,-4.028595924E0
3.981354532E0,-3.062020540E0,-1.180491829E1,-3.971703529E0
3.983866407E0,-3.182393312E0,-1.203069210E1,-4.005239964E0
3.986378282E0,-3.250065565E0,-1.228101921E1,-4.028595924E0
3.988890104E0,-3.269229412E0,-1.251158428E1,-3.905827761E0
3.991401979E0,-3.264438391E0,-1.274274826E1,-3.802223206E0
3.993913854E0,-3.172811270E0,-1.295894051E1,-3.707602024E0
3.996425729E0,-3.033274651E0,-1.322843170E1,-3.556686878E0
3.998937552E0,-2.912901878E0,-1.340629578E1,-3.391997576E0
4.001449427E0,-2.817082882E0,-1.345420551E1,-3.184189796E0
4.003961302E0,-2.581128120E0,-1.339671421E1,-3.028483629E0
4.006473177E0,-2.388292074E0,-1.332005882E1,-2.854212761E0
4.008985000E0,-2.152337551E0,-1.314159489E1,-2.764382124E0
4.011496875E0,-1.916981697E0,-1.279544830E1,-2.566156387E0
4.014008750E0,-1.681027055E0,-1.235288429E1,-2.363738537E0
4.016520625E0,-1.503162742E0,-1.180491829E1,-2.222405195E0
4.019032448E0,-1.373208046E0,-1.124677181E1,-2.099637032E0
4.021544323E0,-1.339072466E0,-1.070299816E1,-2.052326202E0
4.024056198E0,-1.334281564E0,-1.015982342E1,-2.009806395E0
4.026568073E0,-1.406744719E0,-9.606468201E0,-2.165512562E0
4.029079948E0,-1.445072412E0,-9.178276062E0,-2.330800533E0
4.031591771E0,-1.373208046E0,-8.798592567E0,-2.481715679E0
4.034103646E0,-1.363626122E0,-8.462027550E0,-2.745817184E0
4.036615521E0,-1.406744719E0,-8.168581963E0,-2.901523352E0
4.039127396E0,-1.339072466E0,-7.889508724E0,-3.108732224E0
4.041639219E0,-1.276790023E0,-7.702062607E0,-3.269229412E0
4.044151094E0,-1.165999174E0,-7.567316532E0,-3.438709497E0
4.046662969E0,-1.122880578E0,-7.375079632E0,-3.599206448E0
4.049174844E0,-1.161208272E0,-7.158288956E0,-3.707602024E0
4.051686667E0,-1.180372000E0,-7.033124924E0,-3.754912615E0
4.054198542E0,-1.199535847E0,-6.985215664E0,-3.825579166E0
4.056710417E0,-1.363626122E0,-6.855260849E0,-3.858517170E0
4.059222292E0,-1.469027162E0,-6.764232635E0,-3.896245956E0
4.061734115E0,-1.613354802E0,-6.677396297E0,-3.778268576E0
4.064245990E0,-1.733727574E0,-6.658232689E0,-3.787850380E0
4.066757865E0,-1.801399827E0,-6.643859863E0,-3.769285440E0
4.069269740E0,-1.830145597E0,-6.653441429E0,-3.769285440E0
4.071781615E0,-1.902608871E0,-6.715723991E0,-3.585432529E0
4.074293438E0,-1.888235927E0,-6.821723938E0,-3.429726362E0
4.076805313E0,-1.709772825E0,-6.903769016E0,-3.316540003E0
4.079317188E0,-1.594190955E0,-7.062469482E0,-3.136879206E0
4.081829063E0,-1.498371840E0,-7.202006340E0,-2.995545864E0
4.084340886E0,-1.271999121E0,-7.470898628E0,-3.094958305E0
4.086852761E0,-1.127671480E0,-7.678107738E0,-3.179399014E0
4.089364636E0,-8.246434927E-1,-7.956582069E0,-3.372833729E0
4.091876511E0,-5.791069269E-1,-8.125463486E0,-3.396788597E0
4.094388334E0,-4.778979719E-1,-8.202118874E0,-3.033274651E0
4.096900209E0,-3.048246503E-1,-8.351237297E0,-2.509862661E0
4.099412084E0,-1.652880162E-1,-8.543474197E0,-1.962495804E0
4.101923959E0,6.587565690E-2,-8.827338219E0,-1.679829359E0
4.104435782E0,2.922483683E-1,-9.072875023E0,-1.882247210E0
4.106947657E0,4.988583922E-1,-9.423812866E0,-2.179885387E0
4.109459532E0,6.096493006E-1,-9.702885628E0,-2.486506701E0
4.111971407E0,8.360220194E-1,-1.003945065E1,-2.863794565E0
4.114483282E0,1.018677235E0,-1.039038849E1,-2.995545864E0
4.116995104E0,1.081558585E0,-1.075150681E1,-2.976980925E0
4.119506979E0,1.095931411E0,-1.091978931E1,-2.816483974E0
4.122018854E0,1.119886160E0,-1.128030872E1,-2.557173252E0
4.124530729E0,1.124677181E0,-1.155938148E1,-2.208032370E0
4.127042552E0,1.013886333E0,-1.167017269E1,-1.825953484E0
4.129554427E0,1.067185640E0,-1.188636494E1,-1.207920074E0
4.132066302E0,1.418123245E0,-1.228101921E1,-2.317625433E-1
4.134578177E0,1.538496137E0,-1.265591240E1,7.725418210E-1
4.137090000E0,1.398959517E0,-1.273795700E1,1.334281564E0
4.139601875E0,1.230677128E0,-1.296852207E1,1.584010243E0
4.142113750E0,1.095931411E0,-1.313680458E1,1.777445078E0
4.144625625E0,8.312310576E-1,-1.308889484E1,1.951716185E0
4.147137448E0,4.174121320E-1,-1.278107548E1,1.876258612E0
4.149649323E0,3.593217814E-3,-1.243013859E1,1.518134475E0
4.152161198E0,-4.395703077E-1,-1.216543770E1,1.136055708E0
4.154673073E0,-8.048807979E-1,-1.180012703E1,6.126436591E-1
4.157184948E0,-1.118089557E0,-1.135277176E1,-3.353669867E-2
4.159696771E0,-1.281581044E0,-1.090541649E1,-9.252535701E-1
4.162208646E0,-1.329490542E0,-1.040476131E1,-1.745705009E0
4.164720521E0,-1.469027162E0,-9.904705048E0,-2.420032263E0
4.167232396E0,-1.517535686E0,-9.433394432E0,-2.905715466E0
4.169744219E0,-1.623535633E0,-9.068083763E0,-3.203353643E0
4.172256094E0,-1.681027055E0,-8.697383881E0,-3.344686985E0
4.174767969E0,-1.695399880E0,-8.500355721E0,-3.330314159E0
4.177279844E0,-1.637908459E0,-8.303327560E0,-3.170415878E0
4.179791667E0,-1.579818130E0,-8.240446091E0,-3.241082430E0
4.182303542E0,-1.435490489E0,-8.110491753E0,-3.292585373E0
4.184815417E0,-1.276790023E0,-8.009881020E0,-3.226709604E0
4.187327292E0,-1.113298655E0,-7.870344639E0,-3.306958199E0
4.189839115E0,-9.545981884E-1,-7.730808258E0,-3.400980711E0
4.192350990E0,-7.138525844E-1,-7.730808258E0,-3.448291302E0
4.194862865E0,-4.731070101E-1,-7.764344692E0,-3.518958092E0
4.197374740E0,-2.323614210E-1,-7.846389771E0,-3.669873238E0
4.199886615E0,2.275704592E-2,-8.029045105E0,-3.797432423E0
4.202398438E0,2.587116957E-1,-8.144626617E0,-3.995658159E0
4.204910313E0,3.209941387E-1,-8.197327614E0,-4.155556202E0
4.207422188E0,5.617397428E-1,-8.298536301E0,-4.136991501E0
4.209934063E0,8.551858664E-1,-8.524310112E0,-4.174720287E0
4.212445886E0,1.057603836E0,-8.668638229E0,-4.136991501E0
4.214957761E0,1.182168603E0,-8.711756706E0,-3.971703529E0
4.217469636E0,1.259422898E0,-8.875247955E0,-3.792641401E0
4.219981511E0,1.211513281E0,-8.918965340E0,-3.684246063E0
4.222493334E0,1.197140455E0,-9.068083763E0,-3.556686878E0
4.225005209E0,1.221095204E0,-9.241157532E0,-3.405771732E0
4.227517084E0,1.182168603E0,-9.380694389E0,-3.193771839E0
4.230028959E0,1.167795777E0,-9.428603172E0,-3.052438498E0
4.232540782E0,1.163004875E0,-9.548975945E0,-2.910506487E0
4.235052657E0,1.187558532E0,-9.726840973E0,-2.863794565E0
4.237564532E0,1.148631930E0,-9.852004051E0,-3.123105049E0
4.240076407E0,1.081558585E0,-9.947823524E0,-3.311748981E0
4.242588282E0,9.563947916E-1,-9.986749649E0,-3.476438284E0
4.245100104E0,8.983044624E-1,-1.014065933E1,-3.538121700E0
4.247611979E0,7.881124616E-1,-1.025085163E1,-3.486020088E0
4.250123854E0,6.000673771E-1,-1.027540493E1,-3.382415771E0
4.252635729E0,4.413669109E-1,-1.024606037E1,-3.198562622E0
4.255147552E0,2.054122835E-1,-1.021252346E1,-2.981771946E0
4.257659427E0,5.629374459E-2,-1.019815063E1,-2.953026056E0
4.260171302E0,5.150279030E-2,-1.018377781E1,-3.057229519E0
4.262683177E0,-4.491522163E-2,-1.015503216E1,-3.208144665E0
4.265195000E0,-1.167795807E-1,-1.003945065E1,-3.259647369E0
4.267706875E0,-1.119886190E-1,-1.005861473E1,-3.311748981E0
4.270218750E0,-1.461241841E-1,-1.000112247E1,-3.269229412E0
4.272730625E0,-1.167795807E-1,-9.977168083E0,-3.193771839E0
4.275242448E0,-7.366096228E-2,-9.962795258E0,-3.061421633E0
4.277754323E0,3.712991625E-2,-9.967586517E0,-2.967399120E0
4.280266198E0,4.192087427E-2,-9.986749649E0,-2.901523352E0
4.282778073E0,-4.491522163E-2,-9.938241959E0,-2.684133768E0
4.285289948E0,-7.366096228E-2,-9.880749702E0,-2.547591448E0
4.287801771E0,-1.748699397E-1,-9.765168190E0,-2.472133875E0
4.290313594E0,-2.856608033E-1,-9.635213852E0,-2.411049128E0
4.292825469E0,-2.754800320E-1,-9.582512856E0,-2.420032263E0
4.295337292E0,-2.227794975E-1,-9.501067162E0,-2.486506701E0
4.297849167E0,-3.096156120E-1,-9.361530304E0,-2.452970028E0
4.300360990E0,-4.006437957E-1,-9.255530357E0,-2.457761049E0
4.302872813E0,-4.156155288E-1,-9.077666283E0,-2.391885281E0
4.305384688E0,-4.108245671E-1,-8.957293510E0,-2.415241241E0
4.307896511E0,-2.904517651E-1,-8.918965340E0,-2.358947515E0
4.310408386E0,-2.227794975E-1,-8.880039215E0,-2.288280964E0
4.312920209E0,-2.323614210E-1,-8.880039215E0,-2.193659544E0
4.315432032E0,-1.892428100E-1,-8.880039215E0,-2.198450327E0
4.317943907E0,-1.461241841E-1,-8.962083817E0,-2.184676409E0
4.320455729E0,-5.928809568E-2,-8.995620728E0,-2.151139736E0
4.322967604E0,-8.803384006E-2,-9.000411987E0,-2.113410950E0
4.325479427E0,-1.071976647E-1,-8.957293510E0,-2.160721540E0
4.327991302E0,-5.449713767E-2,-8.923756599E0,-2.118201971E0
4.330503125E0,5.629374459E-2,-9.096829414E0,-2.203241348E0
4.333014948E0,8.983044326E-2,-9.187857628E0,-2.401467323E0
4.335526823E0,7.066661865E-2,-9.298648834E0,-2.641613960E0
4.338038646E0,1.042033136E-1,-9.351947784E0,-2.651195765E0
4.340550521E0,1.233671457E-1,-9.313021660E0,-2.557173252E0
4.343062344E0,9.941235930E-2,-9.317812920E0,-2.387094259E0
4.345574167E0,-5.928809568E-2,-9.298648834E0,-2.401467323E0
4.348086042E0,-7.366096228E-2,-9.269903183E0,-2.264326096E0
4.350597865E0,-4.970617965E-2,-9.241157532E0,-2.231388330E0
4.353109740E0,-1.604970694E-1,-9.298648834E0,-2.283489943E0
4.355621563E0,-1.557061076E-1,-9.279484749E0,-2.306845903E0
4.358133438E0,-1.509151459E-1,-9.336976051E0,-2.415241241E0
4.360645261E0,-1.844518483E-1,-9.371111870E0,-2.533218622E0
4.363157084E0,-1.940337569E-1,-9.457348824E0,-2.651195765E0
4.365668959E0,-2.856608033E-1,-9.505857468E0,-2.783545971E0
4.368180782E0,-2.323614210E-1,-9.544185638E0,-2.859003544E0
4.370692657E0,-1.359434128E-1,-9.572931290E0,-2.910506487E0
4.373204479E0,-1.413332373E-1,-9.654376984E0,-2.891941547E0
4.375716302E0,-5.928809568E-2,-9.683721542E0,-2.891941547E0
4.378228177E0,6.587565690E-2,-9.644795418E0,-2.929670334E0
4.380740000E0,2.197851539E-1,-9.698095322E0,-2.915297270E0
4.383251875E0,2.437399477E-1,-9.746004105E0,-2.906314373E0
4.385763698E0,2.293670774E-1,-9.736422539E0,-2.924879313E0
4.388275521E0,3.497398794E-1,-9.755586624E0,-2.901523352E0
4.390787396E0,4.988583922E-1,-9.755586624E0,-2.953026056E0
4.393299219E0,5.084403157E-1,-9.712468147E0,-2.934461117E0
4.395811094E0,5.521578193E-1,-9.722049713E0,-2.835048914E0
4.398322917E0,5.473668575E-1,-9.649586678E0,-2.651195765E0
4.400834792E0,6.144402623E-1,-9.596885681E0,-2.486506701E0
4.403346615E0,6.677396297E-1,-9.611258507E0,-2.382303476E0
4.405858438E0,6.383950114E-1,-9.611258507E0,-2.514653683E0
4.408370313E0,6.096493006E-1,-9.495676994E0,-2.670359612E0
4.410882136E0,6.629486680E-1,-9.356739044E0,-2.806901932E0
4.413394011E0,7.108582854E-1,-9.265111923E0,-2.769173145E0
4.415905834E0,5.904854536E-1,-9.014784813E0,-2.552382469E0
4.418417657E0,5.228132010E-1,-8.803383827E0,-2.476924896E0
4.420929532E0,5.425758958E-1,-8.706965446E0,-2.467342854E0
4.423441354E0,5.180222392E-1,-8.625519753E0,-2.373320341E0
4.425953229E0,5.665307045E-1,-8.668638229E0,-2.349365473E0
4.428465052E0,5.084403157E-1,-8.726129532E0,-2.269117117E0
4.430976927E0,3.880675137E-1,-8.687801361E0,-2.326009750E0
4.433488750E0,3.736946583E-1,-8.716547966E0,-2.302054882E0
4.436000573E0,3.066212535E-1,-8.755474091E0,-2.349365473E0
4.438512448E0,2.197851539E-1,-8.856083870E0,-2.382303476E0
4.441024271E0,1.527117640E-1,-8.914174080E0,-2.382303476E0
4.443536146E0,1.814575046E-1,-9.000411987E0,-2.278698921E0
4.446047969E0,1.718755811E-1,-9.101620674E0,-2.236179113E0
4.448559792E0,1.862484515E-1,-9.178276062E0,-2.297862768E0
4.451071667E0,2.197851539E-1,-9.168694496E0,-2.411049128E0
4.453583490E0,3.066212535E-1,-9.303440094E0,-2.486506701E0
4.456095365E0,3.066212535E-1,-9.322603226E0,-2.623049021E0
4.458607188E0,3.305760324E-1,-9.395067215E0,-2.651195765E0
4.461119063E0,5.180222392E-1,-9.457348824E0,-2.684133768E0
4.463630886E0,8.839315772E-1,-9.548975945E0,-2.679342747E0
4.466142709E0,1.432496190E0,-9.520230293E0,-2.623049021E0
4.468654584E0,6.575588584E-1,-9.269903183E0,-2.731444359E0
4.471166407E0,-9.498072267E-1,-9.120784760E0,-2.906314373E0
4.473678282E0,-5.455702543E-1,-9.395067215E0,-2.773964167E0
4.476190104E0,-2.515252531E-1,-9.664558411E0,-2.745817184E0
4.478701927E0,-2.952427268E-1,-9.674139977E0,-2.826065779E0
4.481213802E0,-3.910618722E-1,-9.582512856E0,-2.821274757E0
4.483725625E0,-4.060336053E-1,-9.577722549E0,-2.816483974E0
4.486237500E0,-4.012426436E-1,-9.596885681E0,-2.788336992E0
4.488749323E0,-3.958528340E-1,-9.525021553E0,-2.906314373E0
4.491261198E0,-4.204064906E-1,-9.553767204E0,-2.863794565E0
4.493773021E0,-5.305985212E-1,-9.452558517E0,-2.811692953E0
4.496284844E0,-6.126436591E-1,-9.356739044E0,-2.806901932E0
4.498796719E0,-5.599430799E-1,-9.395067215E0,-2.929670334E0
4.501308542E0,-6.078526974E-1,-9.409440041E0,-3.000336885E0
4.503820417E0,-7.425983548E-1,-9.346558571E0,-2.967399120E0
4.506332240E0,-7.330164313E-1,-9.371111870E0,-2.995545864E0
4.508844063E0,-5.982707739E-1,-9.399857521E0,-3.075794458E0
4.511355938E0,-6.557622552E-1,-9.327394485E0,-3.071003437E0
4.513867761E0,-8.294344544E-1,-9.250739098E0,-3.033274651E0
4.516379636E0,-7.521802783E-1,-9.163903236E0,-3.226709604E0
4.518891459E0,-5.599430799E-1,-9.217202187E0,-3.396788597E0
4.521403282E0,-5.982707739E-1,-9.111202240E0,-3.363251925E0
4.523915157E0,-6.270164847E-1,-9.038739204E0,-3.321331024E0
4.526426979E0,-5.407792926E-1,-8.976456642E0,-3.462664127E0
4.528938854E0,-5.934798121E-1,-8.832129478E0,-3.274020195E0
4.531450677E0,-4.922708273E-1,-8.740502357E0,-3.269229412E0
4.533962552E0,-1.988247186E-1,-8.779428482E0,-3.712392807E0
4.536474375E0,-5.928809568E-2,-8.765055656E0,-3.943556547E0
4.538986198E0,-2.515252531E-1,-8.562638283E0,-3.702811003E0
4.541498073E0,-1.616948098E-2,-8.524310112E0,-3.825579166E0
4.544009896E0,1.089942753E-1,-8.495564461E0,-3.778268576E0
4.546521771E0,1.042033136E-1,-8.413519859E0,-3.669873238E0
4.549033594E0,1.862484515E-1,-8.240446091E0,-3.736347675E0
4.551545417E0,2.629037797E-1,-8.144626617E0,-3.811805248E0
4.554057292E0,4.509488344E-1,-8.144626617E0,-3.910618782E0
4.556569115E0,7.779316306E-1,-8.235654831E0,-4.108844757E0
4.559080990E0,8.456039429E-1,-8.029045105E0,-4.000449181E0
4.561592813E0,9.078863859E-1,-7.970954895E0,-3.868098974E0
4.564104688E0,1.321705341E0,-8.124864578E0,-4.028595924E0
4.566616511E0,1.524123192E0,-8.105700493E0,-4.141782284E0
4.569128334E0,1.418123245E0,-7.889508724E0,-3.938765526E0
4.571640209E0,1.451660037E0,-7.769135952E0,-3.868098974E0
4.574152032E0,1.841524124E0,-7.851181030E0,-4.009432316E0
4.576663907E0,1.890032530E0,-7.721226215E0,-3.849534035E0
4.579175729E0,1.736123085E0,-7.413407326E0,-3.684246063E0
4.581687552E0,1.740913987E0,-7.254706860E0,-3.505183935E0
4.584199427E0,1.875659704E0,-7.105588436E0,-3.481229305E0
4.586711250E0,1.966687918E0,-7.167870522E0,-3.391997576E0
4.589223125E0,2.015196323E0,-7.206198215E0,-3.377624750E0
4.591734948E0,2.005614519E0,-7.264288902E0,-3.354268789E0
4.594246823E0,2.106224537E0,-7.321780205E0,-3.363251925E0
4.596758646E0,2.294269562E0,-7.518808365E0,-3.400980711E0
4.599270469E0,2.448179007E0,-7.697271347E0,-3.486020088E0
4.601782344E0,2.405060530E0,-7.932627201E0,-3.481229305E0
4.604294167E0,2.255342960E0,-7.970954895E0,-3.518958092E0
4.606806042E0,2.221806288E0,-8.048209190E0,-3.769285440E0
4.609317865E0,2.154732943E0,-8.336864471E0,-3.915409565E0
4.611829688E0,2.115806341E0,-8.557847023E0,-3.967511415E0
4.614341563E0,2.039151192E0,-8.755474091E0,-4.061533928E0
4.616853386E0,1.899614453E0,-8.971666336E0,-4.179511070E0
4.619365261E0,1.730733275E0,-9.231575012E0,-4.264550686E0
4.621877084E0,1.595987558E0,-9.414230347E0,-4.434031010E0
4.624388907E0,1.567241788E0,-9.904705048E0,-4.707714081E0
4.626900782E0,1.774450779E0,-1.053471565E1,-5.009544373E0
4.629412604E0,1.355840802E0,-1.050117874E1,-4.981397629E0
4.631924479E0,1.167795777E0,-1.058801556E1,-4.971815586E0
4.634436302E0,1.172586799E0,-1.064550686E1,-5.014335632E0
4.636948177E0,1.042631984E0,-1.073174381E1,-4.971815586E0
4.639460000E0,8.983044624E-1,-1.090062523E1,-5.014335632E0
4.641971823E0,7.731407285E-1,-1.097728062E1,-5.113149166E0
4.644483698E0,7.491859198E-1,-1.089104366E1,-5.255081177E0
4.646995521E0,6.240221858E-1,-1.095332527E1,-5.410188198E0
4.649507396E0,4.509488344E-1,-1.106411648E1,-5.325747490E0
4.652019219E0,1.766665429E-1,-1.114556313E1,-5.104166031E0
4.654531042E0,-3.054235131E-2,-1.110723495E1,-5.009544373E0
4.657042917E0,-9.761574864E-2,-1.109286213E1,-4.967024803E0
4.659554740E0,-2.515252531E-1,-1.100123501E1,-4.981397629E0
4.662066615E0,-4.683160484E-1,-1.091499805E1,-4.990979671E0
4.664578438E0,-7.282254696E-1,-1.081378937E1,-4.995171547E0
4.667090313E0,-1.012089729E0,-1.068862534E1,-4.929296017E0
4.669602136E0,-1.281581044E0,-1.058801556E1,-4.877194405E0
4.672113959E0,-1.382789969E0,-1.051555157E1,-4.886776447E0
4.674625834E0,-1.435490489E0,-1.025564289E1,-4.981397629E0
4.677137657E0,-1.488789916E0,-1.006340504E1,-4.901149273E0
4.679649532E0,-1.483999014E0,-9.923869133E0,-4.853838444E0
4.682161354E0,-1.483999014E0,-9.702885628E0,-4.806527615E0
4.684673177E0,-1.430699587E0,-9.486095428E0,-4.722086906E0
4.687185052E0,-1.363626122E0,-9.289067268E0,-4.561590195E0
4.689696875E0,-1.295953870E0,-9.101620674E0,-4.377737045E0
4.692208750E0,-1.219298601E0,-8.942920685E0,-4.174720287E0
4.694720573E0,-1.248044372E0,-8.784219742E0,-3.971703529E0
4.697232448E0,-1.185163021E0,-8.581801414E0,-3.726765633E0
4.699744271E0,-1.165999174E0,-8.447654724E0,-3.547703743E0
4.702256094E0,-1.156417251E0,-8.408728600E0,-3.264438391E0
4.704767969E0,-1.113298655E0,-8.336864471E0,-3.061421633E0
4.707279792E0,-9.977167845E-1,-8.423101425E0,-2.811692953E0
4.709791667E0,-8.917168975E-1,-8.505146980E0,-2.660777807E0
4.712303490E0,-6.851068735E-1,-8.533892632E0,-2.505071640E0
4.714815313E0,-4.731070101E-1,-8.625519753E0,-2.358947515E0
4.717327188E0,-4.251974523E-1,-8.683011055E0,-2.193659544E0
4.719839011E0,-2.856608033E-1,-8.745293617E0,-2.042744398E0
4.722350886E0,-1.748699397E-1,-8.841711044E0,-2.033761263E0
4.724862709E0,-1.221694052E-1,-8.740502357E0,-2.179885387E0
4.727374532E0,-6.407905370E-2,-8.726129532E0,-2.137365818E0
4.729886407E0,-3.054235131E-2,-8.740502357E0,-2.127783775E0
4.732398229E0,-1.413332373E-1,-8.668638229E0,-2.113410950E0
4.734910104E0,-1.940337569E-1,-8.519519806E0,-2.217614174E0
4.737421927E0,-3.239884675E-1,-8.418310165E0,-2.401467323E0
4.739933802E0,-5.407792926E-1,-8.327281952E0,-2.519444466E0
4.742445625E0,-7.378073931E-1,-8.245237350E0,-2.476924896E0
4.744957448E0,-9.450162649E-1,-8.076954842E0,-2.452970028E0
4.747469323E0,-1.137253404E0,-7.913463593E0,-2.293071747E0
4.749981146E0,-1.334880471E0,-7.855971813E0,-2.085263968E0
4.752493021E0,-1.455253243E0,-7.735599041E0,-1.845117331E0
4.755004844E0,-1.647490382E0,-7.620017052E0,-1.491185427E0
4.757516667E0,-1.825354695E0,-7.615226269E0,-1.207920074E0
4.760028542E0,-1.955309391E0,-7.629599094E0,-9.348354936E-1
4.762540365E0,-2.080473185E0,-7.687689304E0,-6.186323166E-1
4.765052240E0,-2.186473131E0,-7.759553909E0,-3.922595978E-1
4.767564063E0,-2.321218729E0,-7.778717518E0,-1.377400160E-1
4.770075938E0,-2.316427708E0,-7.865553856E0,-5.270052701E-2
4.772587761E0,-2.302054882E0,-7.932627201E0,-1.377400160E-1
4.775099584E0,-2.349964380E0,-8.009881020E0,-1.377400160E-1
4.777611459E0,-2.297263861E0,-8.086536407E0,-1.892428100E-1
4.780123282E0,-2.200845957E0,-8.115282059E0,-2.269715965E-1
4.782635157E0,-2.128981590E0,-8.110491753E0,-2.461354136E-1
4.785146979E0,-2.066100359E0,-8.168581963E0,-3.168020248E-1
4.787658802E0,-2.075682163E0,-8.293745995E0,-1.988247186E-1
4.790170677E0,-2.018190622E0,-8.500355721E0,-1.233671457E-1
4.792682709E0,-2.022981644E0,-8.798592567E0,-2.694913447E-1
4.795194688E0,-2.104427814E0,-9.077666283E0,-3.072201312E-1
4.797706719E0,-2.152936459E0,-9.505258560E0,-2.647003829E-1
4.800218698E0,-2.085263968E0,-1.013586903E1,-2.317625433E-1
4.802730729E0,-1.709772825E0,-1.081857967E1,-3.778867424E-1
4.805242761E0,-1.469626069E0,-1.156896400E1,-5.809035301E-1
4.807754740E0,-1.411535740E0,-1.220855618E1,-8.450050354E-1
4.810266771E0,-1.401953816E0,-1.274753952E1,-1.118688464E0
4.812778750E0,-1.411535740E0,-1.338234043E1,-1.358835220E0
4.815290782E0,-1.224089503E0,-1.436808014E1,-2.071490049E0
4.817802761E0,-7.761350274E-1,-1.556581974E1,-2.604484081E0
4.820314792E0,-5.551521778E-1,-1.657132149E1,-3.061421633E0
4.822826823E0,-2.904517651E-1,-1.749956894E1,-3.184189796E0
4.825338802E0,5.150279030E-2,-1.859130859E1,-3.368042946E0
4.827850834E0,4.168132544E-1,-1.960579491E1,-3.665681124E0
4.830362813E0,6.623498201E-1,-2.042864037E1,-4.118426323E0
4.832874844E0,8.066774011E-1,-2.094306946E1,-4.499906540E0
4.835386823E0,9.030954242E-1,-2.124609756E1,-4.632256508E0
4.837898854E0,1.004304409E0,-2.138563538E1,-4.755024910E0
4.840410886E0,1.033050179E0,-2.132335281E1,-4.580154896E0
4.842922865E0,1.033050179E0,-2.110177040E1,-4.405883789E0
4.845434896E0,9.222592115E-1,-2.069813156E1,-3.929782629E0
4.847946875E0,9.078863859E-1,-2.004356766E1,-3.368042946E0
4.850458907E0,7.156491876E-1,-1.925006485E1,-2.924879313E0
4.852970886E0,5.713216066E-1,-1.840865326E1,-2.665568829E0
4.855482917E0,3.880675137E-1,-1.763431549E1,-2.642212868E0
4.857994948E0,1.622936726E-1,-1.685937881E1,-2.453568935E0
4.860506927E0,-1.173784509E-1,-1.617187500E1,-2.155930758E0
4.863018959E0,-2.084066272E-1,-1.550353718E1,-1.858891368E0
4.865530938E0,-9.761574864E-2,-1.476273537E1,-1.660665512E0
4.868042969E0,3.233896196E-2,-1.418063450E1,-1.594789863E0
4.870554948E0,2.389489859E-1,-1.364165115E1,-1.576224923E0
4.873066979E0,3.209941387E-1,-1.305056667E1,-1.552270055E0
4.875579011E0,3.449489176E-1,-1.254032993E1,-1.543287039E0
4.878090990E0,3.401579559E-1,-1.199715519E1,-1.509750366E0
4.880603021E0,3.353669941E-1,-1.140547180E1,-1.566643000E0
4.883115000E0,2.197851539E-1,-1.089523506E1,-1.594789863E0
4.885627032E0,7.066661865E-2,-1.050117874E1,-1.481603503E0
4.888139011E0,-1.221694052E-1,-1.007298756E1,-1.406145930E0
4.890651042E0,-2.419433296E-1,-9.755586624E0,-1.227083921E0
4.893163021E0,-3.916607499E-1,-9.360931396E0,-1.089942694E0
4.895675052E0,-4.491522312E-1,-8.971666336E0,-9.438185692E-1
4.898187084E0,-2.952427268E-1,-8.673428535E0,-8.779428601E-1
4.900699063E0,-4.012426734E-2,-8.538682938E0,-7.695474625E-1
4.903211094E0,6.587565690E-2,-8.273983002E0,-6.467791796E-1
4.905723073E0,-4.970617965E-2,-7.932627201E0,-5.713216066E-1
4.908235104E0,-3.191975057E-1,-7.600853443E0,-4.677171707E-1
4.910747084E0,-7.090616226E-1,-7.374480724E0,-1.185761914E-1
4.913259115E0,-8.581801653E-1,-7.249915600E0,4.521465898E-1
4.915771146E0,-1.238462448E0,-6.816933155E0,5.653329492E-1
4.918283125E0,-2.422427654E0,-5.821012974E0,5.569487438E-2
4.920795157E0,-3.745929480E0,-5.027510643E0,-7.174458504E-1
4.923307136E0,-4.178912163E0,-5.191001892E0,-1.538496137E0
4.925819167E0,-4.193284988E0,-5.715611935E0,-2.391885281E0
4.928331146E0,-4.159748554E0,-6.013848782E0,-2.915297270E0
4.930843177E0,-3.899839163E0,-6.210876942E0,-2.788336992E0
4.933355209E0,-3.481229305E0,-6.461204529E0,-2.505071640E0
4.935867188E0,-3.192574024E0,-6.802560329E0,-2.580529213E0
4.938379219E0,-3.062619209E0,-6.975633621E0,-2.566755295E0
4.940891198E0,-2.821873665E0,-6.903170109E0,-2.887150526E0
4.943403229E0,-2.624246836E0,-6.970842361E0,-3.359059811E0
4.945915209E0,-2.436800480E0,-7.139124870E0,-3.745330811E0
4.948427240E0,-2.287682056E0,-7.316989422E0,-4.005239964E0
4.950939271E0,-2.157727242E0,-7.494853497E0,-4.014223099E0
4.953451250E0,-2.075682163E0,-7.639181137E0,-3.872889996E0
4.955963282E0,-1.912190795E0,-7.711644173E0,-3.854325056E0
4.958475261E0,-1.628326535E0,-7.879926682E0,-3.830370188E0
4.960987292E0,-1.512744665E0,-7.980536938E0,-3.669873238E0
4.963499271E0,-1.349253297E0,-8.110491753E0,-3.523748875E0
4.966011302E0,-1.185761929E0,-8.221282005E0,-3.354268789E0
4.968523334E0,-1.079761982E0,-8.283564568E0,-3.193771839E0
4.971035313E0,-9.210615158E-1,-8.341654778E0,-3.066212654E0
4.973547344E0,-7.863158584E-1,-8.452445984E0,-3.038065672E0
4.976059323E0,-6.898978353E-1,-8.562638283E0,-3.071003437E0
4.978571354E0,-5.455702543E-1,-8.586592674E0,-3.057229519E0
4.981083334E0,-4.970617890E-1,-8.625519753E0,-3.005127907E0
4.983595365E0,-4.443612695E-1,-8.663846970E0,-2.882359505E0
4.986107396E0,-3.431523144E-1,-8.711756706E0,-2.736235380E0
4.988619375E0,-2.952427268E-1,-8.663846970E0,-2.802110910E0
4.991131407E0,-2.179885507E-1,-8.630310059E0,-2.981771946E0
4.993643386E0,-2.131975889E-1,-8.663846970E0,-3.057229519E0
4.996155417E0,-1.700789779E-1,-8.789011002E0,-3.014709711E0
4.998667396E0,-1.413332373E-1,-8.851293564E0,-2.939252138E0
5.001179427E0,-1.509151459E-1,-8.933338165E0,-2.924879313E0
5.003691459E0,-1.077965349E-1,-9.009993553E0,-2.887150526E0
5.006203438E0,-8.384174854E-2,-9.062694550E0,-2.835647821E0
5.008715469E0,-1.898416728E-1,-9.096230507E0,-2.642212868E0
5.011227448E0,-2.664969862E-1,-8.976456642E0,-2.411049128E0
5.013739479E0,-3.341692686E-1,-8.894412041E0,-2.264925003E0
5.016251459E0,-3.048246503E-1,-8.841711044E0,-2.090054989E0
5.018763490E0,-1.652880162E-1,-8.793202400E0,-2.000823498E0
5.021275469E0,-6.946887821E-2,-8.702175140E0,-1.840326428E0
5.023787500E0,-1.365422755E-1,-8.654265404E0,-1.769659758E0
5.026299532E0,-1.557061076E-1,-8.610548019E0,-1.712767124E0
5.028811511E0,-1.317513138E-1,-8.509937286E0,-1.740913987E0
5.031323542E0,-9.821461886E-2,-8.495564461E0,-1.830744505E0
5.033835521E0,-5.509600788E-2,-8.379982948E0,-1.868473291E0
5.036347552E0,7.006774843E-2,-8.283564568E0,-2.009806395E0
