"Time (s)","Gyroscope x (rad/s)","Gyroscope y (rad/s)","Gyroscope z (rad/s)"
0.000000000E0,1.061734855E-1,-2.152498066E-2,-7.487470657E-2
2.503073000E-3,1.051082239E-1,-2.578603476E-2,-7.487470657E-2
5.006042000E-3,1.051082239E-1,-3.217761591E-2,-7.700523734E-2
7.509063000E-3,9.978190809E-2,-4.389551654E-2,-7.593997568E-2
1.001203100E-2,9.552085400E-2,-5.241762847E-2,-7.380944490E-2
1.251505200E-2,8.912927657E-2,-6.093973294E-2,-6.954838336E-2
1.501802100E-2,7.847663760E-2,-7.691868395E-2,-6.954838336E-2
1.752104200E-2,7.208505273E-2,-8.757131547E-2,-6.635259837E-2
2.002401000E-2,6.675873697E-2,-9.396289289E-2,-5.996102095E-2
2.253296900E-2,5.823662505E-2,-1.056808010E-1,-5.569996685E-2
2.503593800E-2,4.971451685E-2,-1.131376401E-1,-4.824312031E-2
2.753895800E-2,3.586609289E-2,-1.216597483E-1,-4.504732788E-2
3.004192700E-2,2.521345578E-2,-1.301818639E-1,-3.759048507E-2
3.254494800E-2,1.775661111E-2,-1.365734488E-1,-3.332943097E-2
3.504796900E-2,2.842921996E-3,-1.461608112E-1,-3.119890578E-2
3.755093800E-2,-1.313603111E-2,-1.536176503E-1,-2.906837873E-2
4.005390600E-2,-2.165813930E-2,-1.621397585E-1,-2.267679758E-2
4.255692700E-2,-3.124551103E-2,-1.674660891E-1,-1.948100701E-2
4.505989600E-2,-4.296340793E-2,-1.717271358E-1,-1.841574349E-2
4.756291700E-2,-5.042025447E-2,-1.781187207E-1,-1.841574349E-2
5.006588500E-2,-5.787709728E-2,-1.855755597E-1,-1.735047996E-2
5.258161500E-2,-6.320340931E-2,-1.877060980E-1,-1.628521644E-2
5.508458300E-2,-6.746446341E-2,-1.909018755E-1,-1.628521644E-2
5.758760400E-2,-7.385604829E-2,-1.909018755E-1,-1.948100701E-2
6.009057300E-2,-7.918236405E-2,-1.877060980E-1,-1.735047996E-2
6.259359400E-2,-8.344341815E-2,-1.845102906E-1,-1.735047996E-2
6.509656300E-2,-8.450867981E-2,-1.802492440E-1,-2.267679758E-2
6.759958300E-2,-9.090025723E-2,-1.749229282E-1,-2.693785168E-2
7.010255200E-2,-9.409605712E-2,-1.685313433E-1,-3.013364226E-2
7.260557300E-2,-9.622658044E-2,-1.695966125E-1,-3.332943097E-2
7.510859400E-2,-9.409605712E-2,-1.674660891E-1,-3.545995802E-2
7.761156300E-2,-9.622658044E-2,-1.685313433E-1,-3.652521968E-2
8.011453100E-2,-9.090025723E-2,-1.706618667E-1,-4.291680455E-2
8.259833300E-2,-8.983499557E-2,-1.717271358E-1,-4.611259326E-2
8.510130200E-2,-8.983499557E-2,-1.749229282E-1,-4.930838197E-2
8.760432300E-2,-8.983499557E-2,-1.802492440E-1,-5.569996685E-2
9.010729200E-2,-8.983499557E-2,-1.855755597E-1,-5.783049390E-2
9.261026000E-2,-9.303078800E-2,-1.909018755E-1,-6.528733671E-2
9.511328100E-2,-9.196551889E-2,-1.951629370E-1,-6.848312914E-2
9.761625000E-2,-8.983499557E-2,-1.962282062E-1,-7.380944490E-2
1.001192710E-1,-8.983499557E-2,-1.951629370E-1,-8.126629144E-2
1.026222920E-1,-8.770447224E-2,-1.983587295E-1,-8.446207643E-2
1.051252600E-1,-8.770447224E-2,-1.951629370E-1,-9.191892296E-2
1.076282810E-1,-8.557394147E-2,-1.940976679E-1,-9.831050038E-2
1.101312500E-1,-8.131288737E-2,-1.940976679E-1,-1.047020853E-1
1.127474480E-1,-7.918236405E-2,-1.951629370E-1,-1.100284085E-1
1.152504690E-1,-7.811710238E-2,-1.951629370E-1,-1.153547242E-1
1.177534380E-1,-7.811710238E-2,-1.962282062E-1,-1.249420941E-1
1.202564060E-1,-7.811710238E-2,-1.972934604E-1,-1.302684098E-1
1.227594270E-1,-7.918236405E-2,-1.983587295E-1,-1.387905180E-1
1.252624480E-1,-7.705183327E-2,-1.951629370E-1,-1.419863105E-1
1.277654170E-1,-7.705183327E-2,-1.962282062E-1,-1.537041962E-1
1.302683850E-1,-7.811710238E-2,-1.930323988E-1,-1.675526202E-1
1.327714060E-1,-7.705183327E-2,-1.898366213E-1,-1.771399975E-1
1.352743750E-1,-7.598657161E-2,-1.887713522E-1,-1.835315824E-1
1.377773960E-1,-7.385604829E-2,-1.877060980E-1,-1.952494979E-1
1.402804170E-1,-7.598657161E-2,-1.877060980E-1,-2.059021294E-1
1.426751040E-1,-7.705183327E-2,-1.877060980E-1,-2.144242227E-1
1.451780730E-1,-7.598657161E-2,-1.898366213E-1,-2.250768542E-1
1.476810940E-1,-7.918236405E-2,-1.972934604E-1,-2.346642315E-1
1.501840630E-1,-8.557394147E-2,-2.058155686E-1,-2.431863546E-1
1.526870830E-1,-8.770447224E-2,-2.164682001E-1,-2.538389862E-1
1.551900520E-1,-8.663920313E-2,-2.260555774E-1,-2.591652870E-1
1.576930730E-1,-9.622658044E-2,-2.399040014E-1,-2.644915879E-1
1.601960420E-1,-1.036834270E-1,-2.505566180E-1,-2.719484270E-1
1.626990630E-1,-1.047486886E-1,-2.612093091E-1,-2.762095034E-1
1.652020830E-1,-1.132707968E-1,-2.686661482E-1,-2.804705501E-1
1.677050520E-1,-1.185971126E-1,-2.761229575E-1,-2.836663723E-1
1.702080210E-1,-1.281844974E-1,-2.921019197E-1,-2.847315967E-1
1.727131250E-1,-1.313802749E-1,-3.112766743E-1,-2.879274189E-1
1.752160940E-1,-1.420329064E-1,-3.315166533E-1,-2.943189740E-1
1.777191150E-1,-1.580118686E-1,-3.496261537E-1,-2.996453047E-1
1.802220830E-1,-1.665339768E-1,-3.698661625E-1,-3.017758429E-1
1.827251040E-1,-1.750560850E-1,-3.911714256E-1,-3.039063513E-1
1.852280730E-1,-1.825129241E-1,-4.092809260E-1,-3.028410971E-1
1.877310940E-1,-1.921003014E-1,-4.327166975E-1,-3.017758429E-1
1.902341150E-1,-2.016876638E-1,-4.540219903E-1,-2.996453047E-1
1.927370830E-1,-2.070139945E-1,-4.710662067E-1,-2.964495122E-1
1.952400520E-1,-2.070139945E-1,-4.870451391E-1,-2.964495122E-1
1.977430730E-1,-2.134055793E-1,-5.030241013E-1,-2.911231816E-1
2.002460420E-1,-2.112750411E-1,-5.147420168E-1,-2.879274189E-1
2.027867710E-1,-2.155361027E-1,-5.232641101E-1,-2.879274189E-1
2.052897400E-1,-2.155361027E-1,-5.317862034E-1,-2.868621349E-1
2.077927600E-1,-2.155361027E-1,-5.392430425E-1,-2.857968807E-1
2.102957290E-1,-2.134055793E-1,-5.445693731E-1,-2.836663723E-1
2.127986980E-1,-2.112750411E-1,-5.466998816E-1,-2.836663723E-1
2.153017190E-1,-2.048834711E-1,-5.445693731E-1,-2.836663723E-1
2.178047400E-1,-2.027529478E-1,-5.403083563E-1,-2.847315967E-1
2.203077080E-1,-1.984918863E-1,-5.445693731E-1,-2.826010883E-1
2.228106770E-1,-1.878392547E-1,-5.243293643E-1,-2.889926434E-1
2.253136980E-1,-1.857087314E-1,-4.902409315E-1,-2.975147665E-1
2.278166670E-1,-1.825129241E-1,-4.668051600E-1,-2.996453047E-1
2.303197400E-1,-1.718602926E-1,-4.401735663E-1,-3.007105589E-1
2.327946350E-1,-1.622729152E-1,-4.156724811E-1,-3.028410971E-1
2.352976560E-1,-1.516202837E-1,-3.869103789E-1,-3.071021438E-1
2.378006250E-1,-1.367066056E-1,-3.570830226E-1,-3.092326820E-1
2.403036460E-1,-1.271192282E-1,-3.261903822E-1,-3.113631904E-1
2.428066670E-1,-1.175318509E-1,-2.952977121E-1,-3.166895211E-1
2.453096350E-1,-1.122055352E-1,-2.569482327E-1,-3.188200593E-1
2.478126040E-1,-1.068792120E-1,-2.207292467E-1,-3.252116144E-1
2.503156250E-1,-1.058139503E-1,-1.823797673E-1,-3.337337375E-1
2.528185940E-1,-1.015528962E-1,-1.418997496E-1,-3.379947841E-1
2.553216670E-1,-8.983499557E-2,-1.078113243E-1,-3.358642757E-1
2.578245830E-1,-8.024762571E-2,-6.413552165E-2,-3.358642757E-1
2.603276040E-1,-7.705183327E-2,-1.406813599E-2,-3.443863690E-1
2.627875520E-1,-8.024762571E-2,3.919503465E-2,-3.529084921E-1
2.652905730E-1,-7.811710238E-2,9.032768756E-2,-3.656916320E-1
2.677935940E-1,-7.279077917E-2,1.350687444E-1,-3.784748018E-1
2.702965630E-1,-6.746446341E-2,1.691571921E-1,-3.880621791E-1
2.727995310E-1,-6.320340931E-2,2.021803558E-1,-4.029758573E-1
2.753025520E-1,-6.000762433E-2,2.341382504E-1,-4.125632346E-1
2.778055210E-1,-5.361604318E-2,2.629003525E-1,-4.274769127E-1
2.803085420E-1,-5.148551613E-2,2.884666920E-1,-4.402600825E-1
2.828115100E-1,-4.615919665E-2,3.108372092E-1,-4.519779682E-1
2.853145310E-1,-4.935498908E-2,3.321424723E-1,-4.658263922E-1
2.878175520E-1,-5.148551613E-2,3.491866887E-1,-4.754137695E-1
2.903205210E-1,-5.361604318E-2,3.672961891E-1,-4.956537783E-1
2.928353650E-1,-5.681183189E-2,3.875361979E-1,-5.169590712E-1
2.953384380E-1,-5.468130484E-2,4.152330458E-1,-5.393296480E-1
2.978413540E-1,-5.042025447E-2,4.429298937E-1,-5.542433262E-1
3.003443750E-1,-4.296340793E-2,4.642351568E-1,-5.766138434E-1
3.028473960E-1,-3.657182679E-2,4.887362421E-1,-6.032453775E-1
3.053503650E-1,-1.952761225E-2,5.121720433E-1,-6.330727935E-1
3.078533850E-1,-3.548658919E-3,5.334773064E-1,-6.629002094E-1
3.103563540E-1,1.775661111E-2,5.718267560E-1,-6.905969977E-1
3.128593230E-1,4.225767031E-2,6.272204518E-1,-7.161633968E-1
3.153623440E-1,8.060716093E-2,7.007237077E-1,-7.427949905E-1
3.178653650E-1,1.328050643E-1,7.880752683E-1,-7.651655078E-1
3.203683850E-1,1.913945675E-1,8.903405666E-1,-7.875359654E-1
3.228766150E-1,2.606366873E-1,1.009650111E0,-8.131023645E-1
3.253796350E-1,3.437272310E-1,1.152395487E0,-8.354728818E-1
3.278826560E-1,4.321441054E-1,1.312184930E0,-8.621044755E-1
3.303856250E-1,5.408009887E-1,1.483692408E0,-8.898013234E-1
3.328886460E-1,6.622410417E-1,1.664787173E0,-9.121718407E-1
3.353916150E-1,7.953990102E-1,1.846947312E0,-9.388034344E-1
3.378946350E-1,9.306874871E-1,2.049347639E0,-9.665002823E-1
3.403976560E-1,1.068106413E0,2.253878117E0,-1.010176063E0
3.429005730E-1,1.206590652E0,2.456278086E0,-1.058112860E0
3.454035940E-1,1.349335790E0,2.654417038E0,-1.107115149E0
3.479066150E-1,1.484624386E0,2.831250906E0,-1.166769862E0
3.504096350E-1,1.612455964E0,2.994236231E0,-1.233881474E0
3.529106250E-1,1.734961390E0,3.133785725E0,-1.299927711E0
3.554136980E-1,1.844683409E0,3.249899626E0,-1.367039442E0
3.579166670E-1,1.937361360E0,3.352164745E0,-1.429889917E0
3.604196880E-1,2.015125751E0,3.443777561E0,-1.487414122E0
3.629226040E-1,2.075845718E0,3.523672342E0,-1.539612055E0
3.654256770E-1,2.114195347E0,3.587588072E0,-1.581157327E0
3.679285940E-1,2.141892195E0,3.639785767E0,-1.618441463E0
3.704316670E-1,2.151479483E0,3.676004648E0,-1.644007921E0
3.729346350E-1,2.151479483E0,3.690918684E0,-1.665313125E0
3.754376560E-1,2.138696432E0,3.686657429E0,-1.682357430E0
3.779406250E-1,2.110999584E0,3.665352106E0,-1.695140481E0
3.804436460E-1,2.077976465E0,3.621676445E0,-1.705793142E0
3.829475520E-1,2.030039549E0,3.560956478E0,-1.716445804E0
3.854506250E-1,1.977841377E0,3.482126713E0,-1.716445804E0
3.879535420E-1,1.918186665E0,3.384122610E0,-1.714315295E0
3.904566150E-1,1.859597087E0,3.270139456E0,-1.713249922E0
3.929595310E-1,1.796746612E0,3.150830030E0,-1.704727888E0
3.954626040E-1,1.728569746E0,3.018737078E0,-1.687683702E0
3.979655730E-1,1.650805473E0,2.888775110E0,-1.665313125E0
4.004685940E-1,1.573041320E0,2.775856972E0,-1.636551023E0
4.029715630E-1,1.485689640E0,2.668265581E0,-1.602462649E0
4.054745830E-1,1.394076943E0,2.567065477E0,-1.563047886E0
4.079775520E-1,1.305660009E0,2.476518154E0,-1.520437360E0
4.104805210E-1,1.212982178E0,2.387036085E0,-1.477826715E0
4.129753650E-1,1.125630498E0,2.305010557E0,-1.435216308E0
4.154784380E-1,1.043605208E0,2.232572794E0,-1.390475154E0
4.179813540E-1,9.647759199E-1,2.166526556E0,-1.349995136E0
4.204844270E-1,8.955338001E-1,2.106871605E0,-1.310580373E0
4.229873960E-1,8.305526972E-1,2.055739164E0,-1.276491880E0
4.254904170E-1,7.740937471E-1,2.009932756E0,-1.245599389E0
4.279933330E-1,7.314831614E-1,1.972648263E0,-1.217902422E0
4.304964060E-1,6.963294744E-1,1.935364127E0,-1.196597099E0
4.329993230E-1,6.707631350E-1,1.902340889E0,-1.181683540E0
4.355023960E-1,6.537189484E-1,1.871448398E0,-1.169965625E0
4.380053650E-1,6.430662870E-1,1.842686176E0,-1.165704608E0
4.405083330E-1,6.313484311E-1,1.817119837E0,-1.160378218E0
4.430006250E-1,6.228263378E-1,1.794749379E0,-1.159312963E0
4.455036980E-1,6.100431085E-1,1.771313548E0,-1.158247709E0
4.480066150E-1,6.036515832E-1,1.735094547E0,-1.159312963E0
4.505096880E-1,6.057820916E-1,1.682896733E0,-1.168900371E0
4.530126040E-1,6.015210152E-1,1.630698681E0,-1.182748795E0
4.555156770E-1,5.940641761E-1,1.592349291E0,-1.191270828E0
4.580185940E-1,5.834115744E-1,1.557195544E0,-1.198727727E0
4.605216670E-1,5.610410571E-1,1.535890341E0,-1.204053998E0
4.630246350E-1,5.290830731E-1,1.519911408E0,-1.202988744E0
4.655276560E-1,4.949946702E-1,1.494345069E0,-1.198727727E0
4.680306250E-1,4.683630764E-1,1.459191442E0,-1.191270828E0
4.705336460E-1,4.449272752E-1,1.412319660E0,-1.181683540E0
4.730683330E-1,4.214914739E-1,1.362252355E0,-1.174226642E0
4.755713540E-1,4.097735882E-1,1.311119795E0,-1.165704608E0
4.780743230E-1,3.980557024E-1,1.258921742E0,-1.157182455E0
4.805773960E-1,3.863377571E-1,1.205658674E0,-1.147595048E0
4.830803130E-1,3.831419945E-1,1.150264859E0,-1.138007641E0
4.855833850E-1,3.959251344E-1,1.091675401E0,-1.128420353E0
4.880863540E-1,4.150998890E-1,1.037347078E0,-1.118832946E0
4.905893750E-1,4.438619912E-1,9.830185175E-1,-1.108180285E0
4.930922920E-1,4.790157080E-1,9.436037540E-1,-1.093266726E0
4.955953650E-1,5.152347088E-1,9.254942536E-1,-1.080483556E0
4.980982810E-1,5.471925735E-1,9.222984314E-1,-1.076222420E0
5.006013020E-1,5.791504979E-1,9.340163469E-1,-1.070896149E0
5.031060420E-1,6.153694987E-1,9.553216696E-1,-1.060243487E0
5.056090630E-1,6.590452790E-1,9.744963646E-1,-1.053851962E0
5.081119790E-1,7.080473900E-1,9.883447886E-1,-1.051721454E0
5.106150520E-1,7.613105774E-1,1.002193332E0,-1.052786589E0
5.131180210E-1,8.262916803E-1,1.011780739E0,-1.050656080E0
5.156210420E-1,9.008600712E-1,1.020302773E0,-1.058112860E0
5.181239580E-1,9.743632674E-1,1.026694298E0,-1.065569758E0
5.206270310E-1,1.048931599E0,1.030955434E0,-1.078353047E0
5.231299480E-1,1.114977956E0,1.035216451E0,-1.091136098E0
5.256330210E-1,1.177828550E0,1.036281705E0,-1.107115149E0
5.281359900E-1,1.237483144E0,1.049064994E0,-1.119898200E0
5.306390100E-1,1.290746331E0,1.063978672E0,-1.132681370E0
5.331435420E-1,1.338683248E0,1.070370078E0,-1.148660421E0
5.356466150E-1,1.372771740E0,1.077826977E0,-1.161443472E0
5.381495310E-1,1.401533842E0,1.077826977E0,-1.171030879E0
5.406525520E-1,1.426034808E0,1.076761723E0,-1.181683540E0
5.431555210E-1,1.427100182E0,1.084218621E0,-1.195531964E0
5.456585940E-1,1.436687589E0,1.069304943E0,-1.198727727E0
5.481615100E-1,1.449470758E0,1.051195383E0,-1.196597099E0
5.506645830E-1,1.442013860E0,1.044803858E0,-1.198727727E0
5.531675520E-1,1.442013860E0,1.024563789E0,-1.193401456E0
5.556705730E-1,1.436687589E0,1.009650111E0,-1.187009811E0
5.581734900E-1,1.428165436E0,9.968668818E-1,-1.180618286E0
5.606765630E-1,1.416447520E0,9.819532633E-1,-1.176357150E0
5.631761980E-1,1.397272706E0,9.691700339E-1,-1.166769862E0
5.656792190E-1,1.375967383E0,9.553216696E-1,-1.153986692E0
5.681821880E-1,1.352531672E0,9.436037540E-1,-1.141203523E0
5.706852600E-1,1.330161214E0,9.329510927E-1,-1.128420353E0
5.731881770E-1,1.304594874E0,9.201679826E-1,-1.114571929E0
5.756912500E-1,1.282224298E0,9.063194990E-1,-1.098592997E0
5.781942190E-1,1.258788466E0,8.871447444E-1,-1.080483556E0
5.806972400E-1,1.233222246E0,8.647742271E-1,-1.063439369E0
5.832001560E-1,1.207655907E0,8.424037099E-1,-1.040003538E0
5.857032290E-1,1.184219956E0,8.125763535E-1,-1.020828724E0
5.882061460E-1,1.161849499E0,7.838141918E-1,-1.002719164E0
5.907091670E-1,1.143740058E0,7.529215813E-1,-9.878056049E-1
5.931960940E-1,1.125630498E0,7.252247334E-1,-9.728918672E-1
5.956991670E-1,1.103260040E0,6.953973174E-1,-9.633044600E-1
5.982020830E-1,1.079824209E0,6.698310375E-1,-9.558476210E-1
6.007051560E-1,1.055323124E0,6.474605203E-1,-9.419992566E-1
6.032080730E-1,1.031887412E0,6.261551976E-1,-9.281507730E-1
6.057111460E-1,1.006321073E0,5.984583497E-1,-9.164329171E-1
6.082140630E-1,9.828854203E-1,5.675657392E-1,-9.057802558E-1
6.107171350E-1,9.562538266E-1,5.377383232E-1,-8.908665776E-1
6.132200520E-1,9.264264107E-1,5.036499500E-1,-8.716918230E-1
6.157231250E-1,9.019253254E-1,4.738225341E-1,-8.525170684E-1
6.182260940E-1,8.710326552E-1,4.407993853E-1,-8.333423138E-1
6.207291150E-1,8.422706127E-1,4.056456983E-1,-8.120371103E-1
6.232492190E-1,8.103126884E-1,3.672961891E-1,-7.886012793E-1
6.257522920E-1,7.751589417E-1,3.268162012E-1,-7.672960162E-1
6.282552080E-1,7.389400601E-1,2.884666920E-1,-7.417297363E-1
6.307582290E-1,7.101779580E-1,2.554435134E-1,-7.193591595E-1
6.332611980E-1,6.771547794E-1,2.170940489E-1,-7.023149133E-1
6.357642710E-1,6.494579315E-1,1.755487621E-1,-6.756833196E-1
6.382671880E-1,6.228263378E-1,1.318729669E-1,-6.533128619E-1
6.407702600E-1,5.961947441E-1,8.713190258E-2,-6.320075393E-1
6.432732290E-1,5.748894215E-1,4.239082709E-2,-6.107022762E-1
6.457762500E-1,5.535842180E-1,-3.415501444E-3,-5.851359367E-1
6.482791670E-1,5.418663025E-1,-4.283025488E-2,-5.627654195E-1
6.507822400E-1,5.301483870E-1,-8.650605381E-2,-5.425254107E-1
6.532848440E-1,5.205609798E-1,-1.291165948E-1,-5.222854018E-1
6.557878650E-1,5.184305310E-1,-1.727923900E-1,-5.063064694E-1
6.582908330E-1,5.184305310E-1,-2.185987234E-1,-4.945885241E-1
6.607939060E-1,5.173652172E-1,-2.622745335E-1,-4.850011468E-1
6.632968230E-1,5.184305310E-1,-3.016892970E-1,-4.786095619E-1
6.657998960E-1,5.226915479E-1,-3.368429840E-1,-4.754137695E-1
6.683028650E-1,5.194957852E-1,-3.634745777E-1,-4.732832313E-1
6.708058850E-1,5.194957852E-1,-3.794535398E-1,-4.636958838E-1
6.733088020E-1,5.173652172E-1,-3.890408874E-1,-4.583695829E-1
6.758118750E-1,5.120388865E-1,-3.858451247E-1,-4.498474598E-1
6.783147920E-1,5.088431239E-1,-3.773230016E-1,-4.391948283E-1
6.808178650E-1,5.056473613E-1,-3.656051159E-1,-4.338684976E-1
6.833100000E-1,5.088431239E-1,-3.592135310E-1,-4.296074510E-1
6.858130730E-1,5.152347088E-1,-3.464303613E-1,-4.274769127E-1
6.883159900E-1,5.216262341E-1,-3.315166533E-1,-4.221506119E-1
6.908190630E-1,5.333442092E-1,-3.187335134E-1,-4.253463745E-1
6.933219790E-1,5.397357345E-1,-3.006240427E-1,-4.274769127E-1
6.958250520E-1,5.525189042E-1,-2.814492881E-1,-4.264116585E-1
6.983279690E-1,5.716936588E-1,-2.622745335E-1,-4.338684976E-1
7.008310420E-1,5.898031592E-1,-2.388387322E-1,-4.370642900E-1
7.033339580E-1,6.047168374E-1,-2.058155686E-1,-4.391948283E-1
7.058370310E-1,6.249568462E-1,-1.717271358E-1,-4.413253665E-1
7.083400000E-1,6.451968551E-1,-1.376387030E-1,-4.423905909E-1
7.108430210E-1,6.643716097E-1,-9.715869278E-2,-4.413253665E-1
7.133569270E-1,6.856768727E-1,-5.028710142E-2,-4.434558749E-1
7.158600000E-1,7.133736610E-1,1.910816412E-3,-4.423905909E-1
7.183629170E-1,7.325484157E-1,5.730451271E-2,-4.370642900E-1
7.208659380E-1,7.474621534E-1,1.105676964E-1,-4.274769127E-1
7.233689060E-1,7.762242556E-1,1.617003381E-1,-4.157590270E-1
7.258719790E-1,8.049863577E-1,2.138982415E-1,-4.008453488E-1
7.283748960E-1,8.348137736E-1,2.671613991E-1,-3.880621791E-1
7.308779690E-1,8.625105619E-1,3.129677474E-1,-3.710179627E-1
7.333809380E-1,8.880769610E-1,3.513172269E-1,-3.561042547E-1
7.358839580E-1,9.157737494E-1,3.864709437E-1,-3.443863690E-1
7.383868750E-1,9.466664195E-1,4.141677916E-1,-3.358642757E-1
7.408899480E-1,9.722327590E-1,4.482562244E-1,-3.337337375E-1
7.433921880E-1,9.956685305E-1,4.802141190E-1,-3.358642757E-1
7.458952080E-1,1.020169497E0,5.217593908E-1,-3.411906064E-1
7.483981770E-1,1.045735717E0,5.611741543E-1,-3.529084921E-1
7.509012500E-1,1.072367311E0,5.952625871E-1,-3.603653014E-1
7.534041670E-1,1.100064278E0,6.197636724E-1,-3.763442934E-1
7.559072400E-1,1.119239092E0,6.293510199E-1,-3.976495564E-1
7.584101560E-1,1.109651685E0,6.005889177E-1,-4.264116585E-1
7.609131770E-1,1.047866344E0,5.313467979E-1,-4.700874686E-1
7.634161460E-1,9.402748346E-1,4.269509614E-1,-5.212201476E-1
7.659192190E-1,8.007253408E-1,3.097719550E-1,-5.798096061E-1
7.684221880E-1,6.718284488E-1,2.288119495E-1,-6.245507002E-1
7.709252080E-1,5.802158117E-1,1.947235018E-1,-6.554433107E-1
7.734050000E-1,5.386704803E-1,1.936582476E-1,-6.692917943E-1
7.759080210E-1,5.354747176E-1,2.266814262E-1,-6.703570485E-1
7.784109380E-1,5.578452349E-1,2.714224756E-1,-6.597043872E-1
7.809140100E-1,5.770199895E-1,3.214898705E-1,-6.405296326E-1
7.834169270E-1,5.908683538E-1,3.694267273E-1,-6.213548779E-1
7.859199480E-1,5.983252525E-1,4.067109227E-1,-5.936580896E-1
7.884229690E-1,5.898031592E-1,4.450604320E-1,-5.638306737E-1
7.909259900E-1,5.684978962E-1,4.748878181E-1,-5.318728089E-1
7.934289060E-1,5.461273789E-1,4.823446274E-1,-5.063064694E-1
7.959319790E-1,5.280178785E-1,4.770183265E-1,-4.764790535E-1
7.984349480E-1,5.120388865E-1,4.557130635E-1,-4.498474598E-1
8.009379690E-1,4.960599244E-1,4.173635840E-1,-4.296074510E-1
8.034631250E-1,4.779504538E-1,3.683614433E-1,-4.221506119E-1
8.059661460E-1,4.641020298E-1,3.065761626E-1,-4.189548194E-1
8.084691150E-1,4.470578134E-1,2.298772037E-1,-4.232158661E-1
8.109721350E-1,4.342746139E-1,1.531782299E-1,-4.349337518E-1
8.134751040E-1,4.396009445E-1,8.926242590E-2,-4.519779682E-1
8.159781770E-1,4.598409832E-1,4.026029631E-2,-4.786095619E-1
8.184810940E-1,4.470578134E-1,-6.626604497E-2,-4.903274775E-1
8.209841670E-1,4.268178046E-1,-1.759881973E-1,-4.988496006E-1
8.234871350E-1,4.129693508E-1,-2.793187499E-1,-5.073717237E-1
8.259901560E-1,3.969904184E-1,-3.847798407E-1,-5.116327405E-1
8.284930730E-1,3.799462020E-1,-4.870451391E-1,-5.116327405E-1
8.309961460E-1,3.714241087E-1,-5.743967295E-1,-5.020453930E-1
8.335001040E-1,3.597061932E-1,-6.553567648E-1,-4.871316552E-1
8.360031770E-1,3.597061932E-1,-7.299252152E-1,-4.732832313E-1
8.385061460E-1,3.607714474E-1,-7.874494791E-1,-4.594348371E-1
8.410091670E-1,3.607714474E-1,-8.385820985E-1,-4.477169216E-1
8.435121350E-1,3.575756550E-1,-8.769316077E-1,-4.381295443E-1
8.460151560E-1,3.554451168E-1,-8.961063027E-1,-4.317379892E-1
8.485181250E-1,3.490535617E-1,-8.982368708E-1,-4.317379892E-1
8.510211460E-1,3.373356760E-1,-8.929105401E-1,-4.338684976E-1
8.535241150E-1,3.277482986E-1,-8.694747090E-1,-4.391948283E-1
8.560271350E-1,3.202914298E-1,-8.321905136E-1,-4.509127438E-1
8.585301040E-1,3.149651289E-1,-7.874494791E-1,-4.690221846E-1
8.610331250E-1,3.501188457E-1,-6.873146892E-1,-5.073717237E-1
8.635413020E-1,4.044472575E-1,-5.658746362E-1,-5.531780124E-1
8.660443230E-1,4.630367458E-1,-4.763925076E-1,-5.968538523E-1
8.685472400E-1,5.269526243E-1,-3.794535398E-1,-6.373338699E-1
8.710503130E-1,5.961947441E-1,-2.889061272E-1,-6.810097098E-1
8.735532810E-1,6.601105928E-1,-1.994239837E-1,-7.204244137E-1
8.760562500E-1,7.293527126E-1,-1.003544852E-1,-7.609044313E-1
8.785592710E-1,8.028558493E-1,8.455526549E-4,-7.939276099E-1
8.810622920E-1,8.657063842E-1,9.458874166E-2,-8.248202205E-1
8.835652600E-1,9.242958426E-1,1.862014085E-1,-8.471907973E-1
8.860682810E-1,9.807548523E-1,2.692919672E-1,-8.674307466E-1
8.885712500E-1,1.025495768E0,3.374688029E-1,-8.834096789E-1
8.910742710E-1,1.061714768E0,3.896667063E-1,-9.015191793E-1
8.935723960E-1,1.091542125E0,4.258856773E-1,-9.143023491E-1
8.960754170E-1,1.116043210E0,4.578436017E-1,-9.356076717E-1
8.985783850E-1,1.133087397E0,4.844751954E-1,-9.526518583E-1
9.010813540E-1,1.156523228E0,5.036499500E-1,-9.696961045E-1
9.035843750E-1,1.172502160E0,5.132372975E-1,-9.835444689E-1
9.060873960E-1,1.188481092E0,5.217593908E-1,-9.963276982E-1
9.085903650E-1,1.208721161E0,5.313467979E-1,-1.005915046E0
9.110933330E-1,1.224700093E0,5.388035774E-1,-1.010176063E0
9.135963540E-1,1.247070551E0,5.494562387E-1,-1.010176063E0
9.160993750E-1,1.258788466E0,5.526520610E-1,-1.005915046E0
9.186023440E-1,1.270506382E0,5.526520610E-1,-9.995234609E-1
9.211053650E-1,1.283289552E0,5.451951623E-1,-9.878056049E-1
9.236170830E-1,1.289681196E0,5.292162299E-1,-9.707613587E-1
9.261201560E-1,1.288615823E0,5.068457127E-1,-9.419992566E-1
9.286231250E-1,1.276898026E0,4.834099114E-1,-8.951275945E-1
9.311261460E-1,1.246005416E0,4.557130635E-1,-8.322770596E-1
9.336290630E-1,1.210851550E0,4.237551391E-1,-7.545128465E-1
9.361321350E-1,1.163980007E0,3.758182824E-1,-6.692917943E-1
9.386350520E-1,1.113912582E0,3.161635399E-1,-5.862011909E-1
9.411381250E-1,1.063845277E0,2.511824667E-1,-5.190895796E-1
9.436410940E-1,1.012712598E0,1.744834930E-1,-4.615653455E-1
9.461441150E-1,9.541232586E-1,9.032768756E-2,-4.232158661E-1
9.486470830E-1,9.029906392E-1,1.362871565E-2,-3.997800648E-1
9.511500520E-1,8.614453673E-1,-5.667867884E-2,-3.869968951E-1
9.537160940E-1,8.284221292E-1,-1.184639558E-1,-3.997800648E-1
9.562190630E-1,7.858116031E-1,-1.951629370E-1,-4.274769127E-1
9.587220830E-1,7.378748059E-1,-2.644050717E-1,-4.423905909E-1
9.612250520E-1,6.878073812E-1,-3.208640516E-1,-4.477169216E-1
9.637280730E-1,6.281526089E-1,-3.794535398E-1,-4.466516376E-1
9.662310420E-1,5.663673282E-1,-4.209988117E-1,-4.466516376E-1
9.687340630E-1,5.067125559E-1,-4.518914521E-1,-4.445211291E-1
9.712370310E-1,4.555799365E-1,-4.561524987E-1,-4.370642900E-1
9.737400520E-1,4.044472575E-1,-4.284556508E-1,-4.285421968E-1
9.762430210E-1,3.447925150E-1,-3.815840483E-1,-4.178895354E-1
9.787460420E-1,3.021819890E-1,-3.325819373E-1,-4.125632346E-1
9.812490100E-1,2.627672255E-1,-2.931671739E-1,-4.136284888E-1
9.837028130E-1,2.276135236E-1,-2.494913638E-1,-4.200201035E-1
9.862058850E-1,1.956556141E-1,-1.983587295E-1,-4.178895354E-1
9.887088540E-1,1.658282280E-1,-1.472260803E-1,-4.146937728E-1
9.912118230E-1,1.434577107E-1,-9.928921610E-2,-4.072369039E-1
9.937148440E-1,1.296092868E-1,-5.774394423E-2,-4.019106030E-1
9.962178130E-1,1.221524402E-1,-3.004708886E-2,-3.997800648E-1
9.987208330E-1,1.178913862E-1,-5.546028726E-3,-4.008453488E-1
1.001223802E0,1.221524402E-1,1.256345212E-2,-4.008453488E-1
1.003726823E0,1.306745410E-1,2.428135090E-2,-3.965842724E-1
1.006229844E0,1.413271725E-1,3.812977299E-2,-3.933885098E-1
1.008732813E0,1.530450732E-1,5.091293529E-2,-3.859316409E-1
1.011235781E0,1.658282280E-1,6.369610131E-2,-3.763442934E-1
1.013747292E0,1.807419360E-1,7.541399449E-2,-3.646263778E-1
1.016250313E0,1.892640442E-1,8.074031770E-2,-3.507779539E-1
1.018753385E0,1.999166757E-1,7.860978693E-2,-3.347989917E-1
1.021256354E0,2.126998305E-1,7.541399449E-2,-3.241463602E-1
1.023759375E0,2.190914154E-1,6.689189374E-2,-3.156242371E-1
1.026262344E0,2.244177312E-1,4.771714285E-2,-3.017758429E-1
1.028765365E0,2.361356169E-1,2.321608737E-2,-2.889926434E-1
1.031268438E0,2.403966784E-1,-9.807081893E-3,-2.772747576E-1
1.033771406E0,2.425272018E-1,-4.922183231E-2,-2.708832026E-1
1.036274427E0,2.414619476E-1,-8.650605381E-2,-2.762095034E-1
1.038777448E0,2.350703627E-1,-1.248555407E-1,-2.868621349E-1
1.041280469E0,2.254829854E-1,-1.632050276E-1,-3.017758429E-1
1.043927031E0,2.095040381E-1,-2.111418843E-1,-3.198852837E-1
1.046430000E0,1.903292984E-1,-2.548176944E-1,-3.347989917E-1
1.048933021E0,1.636977047E-1,-3.016892970E-1,-3.497126997E-1
1.051436042E0,1.328050643E-1,-3.506914079E-1,-3.614305854E-1
1.053939063E0,1.072387546E-1,-3.933019340E-1,-3.774095178E-1
1.056442083E0,7.847663760E-2,-4.209988117E-1,-3.923232257E-1
1.058945052E0,4.864925519E-2,-4.465651214E-1,-4.125632346E-1
1.061448073E0,2.201766521E-2,-4.678703845E-1,-4.296074510E-1
1.063951094E0,1.777658705E-3,-4.891756773E-1,-4.498474598E-1
1.066454115E0,-7.809713483E-3,-5.062198639E-1,-4.732832313E-1
1.068957135E0,-1.207076758E-2,-5.147420168E-1,-4.977843165E-1
1.071460156E0,-1.952761225E-2,-5.221988559E-1,-5.233507156E-1
1.073801094E0,-1.526655816E-2,-5.264599323E-1,-5.510475039E-1
1.076304115E0,-9.940239601E-3,-5.285903811E-1,-5.819401741E-1
1.078807135E0,-2.483395394E-3,-5.264599323E-1,-6.128327847E-1
1.081310156E0,1.562608406E-2,-5.190030336E-1,-6.362686157E-1
1.083813177E0,3.053977713E-2,-5.104809403E-1,-6.565085649E-1
1.086316146E0,3.906188160E-2,-4.976978004E-1,-6.799443960E-1
1.088819167E0,4.971451685E-2,-4.817188084E-1,-7.001844049E-1
1.091322188E0,6.143241748E-2,-4.678703845E-1,-7.214896679E-1
1.093825208E0,7.528084517E-2,-4.572177827E-1,-7.395991683E-1
1.096328229E0,8.806400746E-2,-4.508261681E-1,-7.534475923E-1
1.098831250E0,1.008471698E-1,-4.518914521E-1,-7.641001940E-1
1.101334271E0,1.146955937E-1,-4.433693588E-1,-7.758181095E-1
1.103792344E0,1.360008568E-1,-4.401735663E-1,-7.832749486E-1
1.106295365E0,1.541103423E-1,-4.348472357E-1,-7.854055166E-1
1.108798438E0,1.700892895E-1,-4.220640659E-1,-7.832749486E-1
1.111301458E0,1.839377135E-1,-4.199335277E-1,-7.747528553E-1
1.113804427E0,1.967208683E-1,-4.156724811E-1,-7.619696856E-1
1.116307448E0,2.084387839E-1,-4.167377651E-1,-7.513170838E-1
1.118810417E0,2.148303539E-1,-4.209988117E-1,-7.406644225E-1
1.121313490E0,2.212219387E-1,-4.337819815E-1,-7.257506847E-1
1.123816510E0,2.169608921E-1,-4.465651214E-1,-7.172285914E-1
1.126319531E0,2.180261612E-1,-4.657398760E-1,-7.033802271E-1
1.128822500E0,2.158956081E-1,-4.795883000E-1,-6.969886422E-1
1.131325521E0,2.084387839E-1,-4.902409315E-1,-6.874012351E-1
1.133866250E0,2.052429765E-1,-5.083504319E-1,-6.724876165E-1
1.136369219E0,2.031124532E-1,-5.190030336E-1,-6.618349552E-1
1.138872240E0,1.956556141E-1,-5.232641101E-1,-6.490517259E-1
1.141375260E0,1.924598217E-1,-5.264599323E-1,-6.362686157E-1
1.143878281E0,1.828724593E-1,-5.264599323E-1,-6.245507002E-1
1.146381302E0,1.796766669E-1,-5.243293643E-1,-6.170938611E-1
1.148884323E0,1.764808595E-1,-5.264599323E-1,-6.053759456E-1
1.151387292E0,1.754156053E-1,-5.221988559E-1,-5.957885981E-1
1.153890313E0,1.786113977E-1,-5.211336017E-1,-5.872664452E-1
1.156393333E0,1.839377135E-1,-5.168725252E-1,-5.766138434E-1
1.158896354E0,1.860682368E-1,-5.072851777E-1,-5.670264959E-1
1.161399375E0,1.956556141E-1,-5.030241013E-1,-5.606348515E-1
1.163884375E0,2.084387839E-1,-4.913061857E-1,-5.510475039E-1
1.166387396E0,2.116345614E-1,-4.785230458E-1,-5.403949022E-1
1.168890417E0,2.148303539E-1,-4.710662067E-1,-5.340032578E-1
1.171393438E0,2.126998305E-1,-4.668051600E-1,-5.371990800E-1
1.173896510E0,2.063082457E-1,-4.636093378E-1,-5.457212329E-1
1.176399479E0,1.935250908E-1,-4.657398760E-1,-5.521127582E-1
1.178902448E0,1.732850820E-1,-4.678703845E-1,-5.638306737E-1
1.181405469E0,1.434577107E-1,-4.700009227E-1,-5.787443519E-1
1.183908490E0,1.093692780E-1,-4.689356685E-1,-5.915275216E-1
1.186411510E0,6.995452940E-2,-4.646746218E-1,-6.053759456E-1
1.188914531E0,3.053977713E-2,-4.710662067E-1,-6.202896237E-1
1.191417552E0,-1.207076758E-2,-4.668051600E-1,-6.362686157E-1
1.193927708E0,-5.574657023E-2,-4.550872445E-1,-6.522475481E-1
1.196430729E0,-1.047486886E-1,-4.497609437E-1,-6.682264805E-1
1.198933802E0,-1.462939680E-1,-4.454998970E-1,-6.842054725E-1
1.201436771E0,-1.825129241E-1,-4.529567361E-1,-6.991190910E-1
1.203939792E0,-2.123403102E-1,-4.721314609E-1,-7.193591595E-1
1.206442813E0,-2.315150648E-1,-4.902409315E-1,-7.438601851E-1
1.208945781E0,-2.485592663E-1,-4.987630248E-1,-7.672960162E-1
1.211448854E0,-2.677340209E-1,-4.998283088E-1,-7.896665335E-1
1.213951823E0,-2.847782373E-1,-4.849146307E-1,-8.056454659E-1
1.216454844E0,-3.039529622E-1,-4.561524987E-1,-8.237549663E-1
1.218957865E0,-3.209971786E-1,-4.156724811E-1,-8.376033902E-1
1.221460885E0,-3.295192719E-1,-3.751924932E-1,-8.493213058E-1
1.223954479E0,-3.263235092E-1,-3.411040306E-1,-8.503865600E-1
1.226457500E0,-3.071487844E-1,-3.176682591E-1,-8.535823822E-1
1.228960521E0,-2.709298134E-1,-2.984935045E-1,-8.525170684E-1
1.231463542E0,-2.208624035E-1,-2.931671739E-1,-8.461255431E-1
1.233966563E0,-1.622729152E-1,-3.016892970E-1,-8.386687040E-1
1.236469531E0,-9.090025723E-2,-3.006240427E-1,-8.226897120E-1
1.238972552E0,-2.059287578E-2,-2.899714112E-1,-8.077760339E-1
1.241475573E0,4.438820109E-2,-2.686661482E-1,-7.886012793E-1
1.243978594E0,1.104345396E-1,-2.345776856E-1,-7.662307620E-1
1.246481667E0,1.700892895E-1,-2.079460919E-1,-7.470560074E-1
1.248984635E0,2.308093160E-1,-1.813144982E-1,-7.236202359E-1
1.251487656E0,2.957903743E-1,-1.568134576E-1,-6.948580742E-1
1.253980365E0,3.533146083E-1,-1.472260803E-1,-6.639654040E-1
1.256483385E0,4.065777957E-1,-1.536176503E-1,-6.320075393E-1
1.258986406E0,4.609062076E-1,-1.632050276E-1,-5.947232842E-1
1.261489427E0,5.184305310E-1,-1.717271358E-1,-5.542433262E-1
1.263992500E0,5.834115744E-1,-1.727923900E-1,-5.148285627E-1
1.266495469E0,6.473273635E-1,-1.834450215E-1,-4.754137695E-1
1.268998438E0,7.112432122E-1,-2.036850303E-1,-4.338684976E-1
1.271501458E0,7.900726795E-1,-2.388387322E-1,-3.891274333E-1
1.274004479E0,8.561190367E-1,-3.315166533E-1,-3.284074068E-1
1.276507500E0,9.147085547E-1,-4.391082823E-1,-2.719484270E-1
1.279010521E0,9.701021910E-1,-5.296556950E-1,-2.389253080E-1
1.281513542E0,1.027626395E0,-6.159420013E-1,-2.154894769E-1
1.284032708E0,1.087280989E0,-6.937062144E-1,-1.899231672E-1
1.286535781E0,1.135217905E0,-7.831884027E-1,-1.675526202E-1
1.289038802E0,1.168241143E0,-9.024979472E-1,-1.355947256E-1
1.291541771E0,1.193807364E0,-9.994369149E-1,-1.078978777E-1
1.294044792E0,1.230026364E0,-1.029264212E0,-9.085366130E-2
1.296547760E0,1.275832653E0,-1.082527399E0,-7.061365247E-2
1.299050781E0,1.328030705E0,-1.160291672E0,-4.291680455E-2
1.301553802E0,1.396207571E0,-1.246577978E0,-1.308942493E-2
1.304056875E0,1.479297996E0,-1.328603268E0,1.886847988E-2
1.306559844E0,1.566649675E0,-1.392518997E0,5.721797049E-2
1.309062865E0,1.659327507E0,-1.431933880E0,8.704534918E-2
1.311565885E0,1.764788747E0,-1.443651795E0,1.179379895E-1
1.314076406E0,1.879837155E0,-1.438325405E0,1.381779909E-1
1.316579479E0,2.002342463E0,-1.420215964E0,1.520264149E-1
1.319082448E0,2.130174160E0,-1.388258100E0,1.594832540E-1
1.321585469E0,2.262266874E0,-1.347777963E0,1.594832540E-1
1.324088490E0,2.397555113E0,-1.305167437E0,1.658748388E-1
1.326591458E0,2.530713081E0,-1.268948436E0,1.807885468E-1
1.329094479E0,2.659610033E0,-1.223142266E0,1.988980174E-1
1.331597500E0,2.765071392E0,-1.163487434E0,2.138116956E-1
1.334100521E0,2.850292206E0,-1.072940111E0,2.106159329E-1
1.336603542E0,2.873728037E0,-9.280642271E-1,1.786580086E-1
1.339106563E0,2.880119562E0,-8.641484380E-1,1.733317077E-1
1.341609583E0,2.881184816E0,-8.726705313E-1,2.010285556E-1
1.344115052E0,2.860944748E0,-9.142158031E-1,2.329864502E-1
1.346618125E0,2.828987122E0,-9.664136767E-1,2.681401670E-1
1.349121094E0,2.784245968E0,-1.019676805E0,2.990328074E-1
1.351624115E0,2.733113289E0,-1.069744229E0,3.182075322E-1
1.354127135E0,2.672393322E0,-1.105963111E0,3.320559561E-1
1.356630104E0,2.601020575E0,-1.120876789E0,3.427086174E-1
1.359133125E0,2.531778574E0,-1.117681026E0,3.480348885E-1
1.361636146E0,2.466797352E0,-1.097441077E0,3.565570414E-1
1.364139167E0,2.401816368E0,-1.064417839E0,3.565570414E-1
1.366642188E0,2.341096401E0,-1.020742178E0,3.554917574E-1
1.369145208E0,2.283571959E0,-9.610874057E-1,3.533612192E-1
1.371648177E0,2.235635281E0,-8.897147179E-1,3.480348885E-1
1.374149948E0,2.187698603E0,-8.151463270E-1,3.373822868E-1
1.376652969E0,2.137631178E0,-7.309904695E-1,3.267296255E-1
1.379155990E0,2.099281549E0,-6.447041631E-1,3.128812015E-1
1.381659010E0,2.060932159E0,-5.626788139E-1,2.990328074E-1
1.384162031E0,2.027908802E0,-4.849146307E-1,2.862496376E-1
1.386665000E0,2.003407955E0,-4.124766886E-1,2.745317221E-1
1.389168021E0,1.983167648E0,-3.453651071E-1,2.638791203E-1
1.391671042E0,1.967188716E0,-2.739924490E-1,2.553569973E-1
1.394174063E0,1.946948767E0,-2.058155686E-1,2.425738275E-1
1.396677083E0,1.935230851E0,-1.291165948E-1,2.255296111E-1
1.399180104E0,1.929904580E0,-5.028710142E-2,1.978327334E-1
1.401683125E0,1.921382308E0,3.386871889E-2,1.616137922E-1
1.404187552E0,1.917121410E0,1.095024273E-1,1.211337671E-1
1.406690625E0,1.922447681E0,1.734182388E-1,7.639271021E-2
1.409193594E0,1.922447681E0,2.213550955E-1,3.378216922E-2
1.411696615E0,1.920317173E0,2.586393058E-1,-1.308942493E-2
1.414199635E0,1.917121410E0,2.788793147E-1,-5.250417441E-2
1.416702604E0,1.911795020E0,2.842056155E-1,-8.872313052E-2
1.419205677E0,1.909664512E0,2.810098529E-1,-1.164199859E-1
1.421708646E0,1.897946596E0,2.639656365E-1,-1.387905180E-1
1.424211667E0,1.884098172E0,2.341382504E-1,-1.568999887E-1
1.426714688E0,1.868119240E0,2.043108791E-1,-1.622263193E-1
1.429217708E0,1.843618155E0,1.627656072E-1,-1.686179042E-1
1.431720729E0,1.820182443E0,1.095024273E-1,-1.696831584E-1
1.434221458E0,1.794615984E0,5.410872400E-2,-1.654221117E-1
1.436724479E0,1.765853882E0,-3.415501444E-3,-1.611610651E-1
1.439227500E0,1.732830763E0,-5.667867884E-2,-1.547694802E-1
1.441730521E0,1.695546508E0,-1.056808010E-1,-1.505084038E-1
1.444233542E0,1.659327507E0,-1.472260803E-1,-1.505084038E-1
1.446736510E0,1.618847609E0,-2.004892528E-1,-1.579652727E-1
1.449239531E0,1.584759235E0,-2.676008642E-1,-1.718136966E-1
1.451742552E0,1.541083336E0,-3.421693146E-1,-1.888578832E-1
1.454245573E0,1.500603318E0,-4.252598584E-1,-2.037715912E-1
1.456748594E0,1.464384317E0,-5.168725252E-1,-2.208158076E-1
1.459251615E0,1.423904300E0,-6.148767471E-1,-2.325337231E-1
1.461754583E0,1.387685299E0,-7.139462829E-1,-2.442516088E-1
1.464258750E0,1.356792808E0,-8.119505048E-1,-2.474474013E-1
1.466761771E0,1.326965332E0,-9.046283960E-1,-2.538389862E-1
1.469264792E0,1.303529620E0,-9.919800758E-1,-2.602305412E-1
1.471767813E0,1.283289552E0,-1.069744229E0,-2.634263337E-1
1.474270833E0,1.271571636E0,-1.143247485E0,-2.687526643E-1
1.476773802E0,1.264114738E0,-1.205032706E0,-2.730137110E-1
1.479276823E0,1.257723331E0,-1.260426402E0,-2.815358043E-1
1.481779844E0,1.250266433E0,-1.309428453E0,-2.911231816E-1
1.484282917E0,1.247070551E0,-1.346712828E0,-2.985800207E-1
1.486785885E0,1.248135924E0,-1.378670692E0,-3.039063513E-1
1.489288906E0,1.243874788E0,-1.405302286E0,-3.124284744E-1
1.491791927E0,1.243874788E0,-1.423411727E0,-3.209505677E-1
1.494293177E0,1.249201059E0,-1.437260151E0,-3.273421526E-1
1.496796250E0,1.253462195E0,-1.450043321E0,-3.337337375E-1
1.499299219E0,1.261984229E0,-1.453239083E0,-3.401253223E-1
1.501802240E0,1.274767518E0,-1.452173829E0,-3.475821614E-1
1.504305260E0,1.286485434E0,-1.439390659E0,-3.529084921E-1
1.506808229E0,1.299268484E0,-1.427672744E0,-3.593000472E-1
1.509311302E0,1.317377925E0,-1.409563184E0,-3.635610938E-1
1.511814271E0,1.334422231E0,-1.386127472E0,-3.646263778E-1
1.514317292E0,1.358923197E0,-1.364822268E0,-3.688874245E-1
1.516820313E0,1.384489655E0,-1.333929539E0,-3.699526787E-1
1.519323333E0,1.407925487E0,-1.301971674E0,-3.688874245E-1
1.521826354E0,1.436687589E0,-1.264687538E0,-3.699526787E-1
1.524329635E0,1.465449572E0,-1.222076893E0,-3.731484711E-1
1.526832656E0,1.498472810E0,-1.178401113E0,-3.816705942E-1
1.529335677E0,1.525104403E0,-1.131529570E0,-3.944537342E-1
1.531838698E0,1.551735997E0,-1.082527399E0,-4.104327261E-1
1.534341719E0,1.582628608E0,-1.039916873E0,-4.296074510E-1
1.536844688E0,1.612455964E0,-9.962410927E-1,-4.498474598E-1
1.539347708E0,1.636957049E0,-9.621526599E-1,-4.679569602E-1
1.541850729E0,1.657196999E0,-9.280642271E-1,-4.892622232E-1
1.544353750E0,1.677437067E0,-8.929105401E-1,-5.095022321E-1
1.546856771E0,1.694481254E0,-8.641484380E-1,-5.340032578E-1
1.549359792E0,1.704068661E0,-8.343210220E-1,-5.553085804E-1
1.551862813E0,1.713656068E0,-8.023631573E-1,-5.744833350E-1
1.554365938E0,1.717917085E0,-7.704052329E-1,-5.989843607E-1
1.556868958E0,1.720047593E0,-7.427083850E-1,-6.192244291E-1
1.559371979E0,1.725373983E0,-7.160767913E-1,-6.415948868E-1
1.561875052E0,1.722178102E0,-6.905105114E-1,-6.639654040E-1
1.564378021E0,1.715786576E0,-6.724010110E-1,-6.799443960E-1
1.566880990E0,1.705133915E0,-6.510956883E-1,-6.863359809E-1
1.569384010E0,1.690220237E0,-6.319209933E-1,-6.905969977E-1
1.571887031E0,1.672110796E0,-6.127462387E-1,-6.927275658E-1
1.574390104E0,1.649740219E0,-5.893104076E-1,-6.895318031E-1
1.576893073E0,1.628435016E0,-5.626788139E-1,-6.852707267E-1
1.579396094E0,1.601803422E0,-5.360472202E-1,-6.831401587E-1
1.581899115E0,1.571975946E0,-5.083504319E-1,-6.799443960E-1
1.584401927E0,1.545344353E0,-4.806535840E-1,-6.714223027E-1
1.586905000E0,1.512321234E0,-4.572177827E-1,-6.629002094E-1
1.589408021E0,1.479297996E0,-4.327166975E-1,-6.554433107E-1
1.591910990E0,1.443079114E0,-4.103461802E-1,-6.405296326E-1
1.594414010E0,1.407925487E0,-3.922367096E-1,-6.288117170E-1
1.596916979E0,1.364249587E0,-3.826493323E-1,-6.149633527E-1
1.599420052E0,1.320573807E0,-3.815840483E-1,-5.957885981E-1
1.601923021E0,1.277963281E0,-3.826493323E-1,-5.787443519E-1
1.604426042E0,1.231091738E0,-3.879756629E-1,-5.595695972E-1
1.606929063E0,1.183154821E0,-3.986282647E-1,-5.403949022E-1
1.609432083E0,1.133087397E0,-4.231293499E-1,-5.180243850E-1
1.611935104E0,1.076628447E0,-4.593482912E-1,-4.913927317E-1
1.614449635E0,1.013777971E0,-5.072851777E-1,-4.647611380E-1
1.616952656E0,9.477316737E-1,-5.616136193E-1,-4.381295443E-1
1.619455677E0,8.784895539E-1,-6.180725694E-1,-4.157590270E-1
1.621958698E0,8.081821799E-1,-6.734662652E-1,-3.944537342E-1
1.624461719E0,7.368094921E-1,-7.245988846E-1,-3.795400560E-1
1.626964740E0,6.601105928E-1,-7.746663094E-1,-3.614305854E-1
1.629467708E0,5.887379050E-1,-8.140810728E-1,-3.465168774E-1
1.631970729E0,5.237568021E-1,-8.449736834E-1,-3.358642757E-1
1.634473750E0,4.513188601E-1,-8.620178699E-1,-3.209505677E-1
1.636976771E0,3.884683251E-1,-8.705399632E-1,-3.102979362E-1
1.639479792E0,3.288135827E-1,-8.737357855E-1,-3.017758429E-1
1.641982813E0,2.723545730E-1,-8.630831838E-1,-2.911231816E-1
1.644473073E0,2.254829854E-1,-8.492347598E-1,-2.804705501E-1
1.646976094E0,1.818071902E-1,-8.247337341E-1,-2.687526643E-1
1.649479115E0,1.466534883E-1,-7.949063182E-1,-2.570347488E-1
1.651982135E0,1.157608554E-1,-7.618831396E-1,-2.463821173E-1
1.654485156E0,9.232506156E-2,-7.245988846E-1,-2.346642315E-1
1.656988125E0,7.634610683E-2,-6.873146892E-1,-2.197505534E-1
1.659491146E0,6.675873697E-2,-6.489652395E-1,-2.005757987E-1
1.661994167E0,5.823662505E-2,-6.138115525E-1,-1.803357899E-1
1.664497240E0,6.143241748E-2,-5.786578059E-1,-1.547694802E-1
1.667000208E0,7.101979107E-2,-5.488304496E-1,-1.281378865E-1
1.669503229E0,8.273769170E-2,-5.179378390E-1,-1.057673544E-1
1.672006250E0,9.978190809E-2,-4.902409315E-1,-7.593997568E-2
1.674509323E0,1.178913862E-1,-4.646746218E-1,-4.824312031E-2
1.677012396E0,1.381313801E-1,-4.401735663E-1,-2.587258816E-2
1.679515365E0,1.573061198E-1,-4.146072567E-1,3.954790998E-3
1.682018385E0,1.743503362E-1,-3.890408874E-1,3.271690756E-2
1.684521406E0,1.945903450E-1,-3.666703701E-1,5.934849381E-2
1.687024375E0,2.095040381E-1,-3.496261537E-1,9.024114162E-2
1.689527448E0,2.212219387E-1,-3.368429840E-1,1.190032437E-1
1.692030469E0,2.340050936E-1,-3.283208907E-1,1.477653682E-1
1.694533438E0,2.457229942E-1,-3.155377209E-1,1.722664237E-1
1.697036458E0,2.542451322E-1,-3.070156276E-1,1.988980174E-1
1.699539479E0,2.521145642E-1,-2.963629961E-1,2.255296111E-1
1.702042500E0,2.563756406E-1,-2.803840339E-1,2.479001284E-1
1.704493698E0,2.553103566E-1,-2.612093091E-1,2.638791203E-1
1.706996719E0,2.531798482E-1,-2.356429547E-1,2.798580527E-1
1.709499740E0,2.521145642E-1,-2.026197761E-1,2.937064767E-1
1.712002760E0,2.510493100E-1,-1.695966125E-1,3.022285998E-1
1.714505781E0,2.435924709E-1,-1.344429106E-1,3.118159771E-1
1.717008750E0,2.361356169E-1,-9.715869278E-2,3.224685788E-1
1.719511771E0,2.265482694E-1,-5.241762847E-2,3.363170028E-1
1.722014792E0,2.222872078E-1,-6.611291785E-3,3.533612192E-1
1.724517813E0,2.201566845E-1,3.812977299E-2,3.672096431E-1
1.727020833E0,2.201566845E-1,8.180557936E-2,3.831886053E-1
1.729523854E0,2.190914154E-1,1.233508661E-1,3.959717751E-1
1.732026875E0,2.212219387E-1,1.617003381E-1,4.034286141E-1
1.734584010E0,2.244177312E-1,1.925929785E-1,4.076896608E-1
1.737087031E0,2.244177312E-1,2.192245722E-1,4.098201990E-1
1.739590104E0,2.297440469E-1,2.373340577E-1,4.055591226E-1
1.742093125E0,2.308093160E-1,2.511824667E-1,4.002328515E-1
1.744596094E0,2.297440469E-1,2.511824667E-1,3.906454742E-1
1.747099063E0,2.382661551E-1,2.437256277E-1,3.863843977E-1
1.749602083E0,2.425272018E-1,2.277466804E-1,3.767970204E-1
1.752105104E0,2.435924709E-1,2.064414173E-1,3.672096431E-1
1.754608177E0,2.457229942E-1,1.776793003E-1,3.554917574E-1
1.757111146E0,2.478535175E-1,1.446561217E-1,3.469696641E-1
1.759614167E0,2.510493100E-1,1.052413806E-1,3.363170028E-1
1.762117188E0,2.542451322E-1,6.369610131E-2,3.277949095E-1
1.764630833E0,2.595714033E-1,1.469397917E-2,3.182075322E-1
1.767133854E0,2.648977339E-1,-3.324288130E-2,3.086201549E-1
1.769636875E0,2.723545730E-1,-8.757131547E-2,2.979675233E-1
1.772139896E0,2.830072343E-1,-1.387039721E-1,2.883801460E-1
1.774642917E0,2.893988192E-1,-1.887713522E-1,2.787927687E-1
1.777145885E0,2.989861667E-1,-2.399040014E-1,2.670748830E-1
1.779648906E0,3.107040823E-1,-2.867756188E-1,2.585527897E-1
1.782151927E0,3.202914298E-1,-3.304514289E-1,2.457696199E-1
1.784654948E0,3.256177604E-1,-3.741272092E-1,2.340517044E-1
1.787157969E0,3.298788071E-1,-4.071503878E-1,2.223338187E-1
1.789661042E0,3.320093453E-1,-4.359125197E-1,2.106159329E-1
1.792164010E0,3.320093453E-1,-4.604135454E-1,1.946369708E-1
1.794715990E0,3.330746293E-1,-4.774577618E-1,1.829190552E-1
1.797218958E0,3.320093453E-1,-4.891756773E-1,1.712011695E-1
1.799721979E0,3.298788071E-1,-4.987630248E-1,1.509611607E-1
1.802225000E0,3.277482986E-1,-5.040893555E-1,1.392432451E-1
1.804728021E0,3.288135827E-1,-5.104809403E-1,1.275253594E-1
1.807231042E0,3.234872520E-1,-5.211336017E-1,1.136769280E-1
1.809734010E0,3.181609213E-1,-5.339167714E-1,1.062200889E-1
1.812237031E0,3.117693365E-1,-5.456346273E-1,9.130640328E-2
1.814740052E0,3.043124974E-1,-5.584177971E-1,7.745797187E-2
1.817243073E0,2.957903743E-1,-5.733314753E-1,6.787060201E-2
1.819746146E0,2.872682810E-1,-5.861146450E-1,5.082638562E-2
1.822249115E0,2.755503953E-1,-6.063546538E-1,3.591270000E-2
1.824716979E0,2.638324797E-1,-6.223336458E-1,2.099900506E-2
1.827220000E0,2.542451322E-1,-6.436388493E-1,1.141163614E-2
1.829723021E0,2.403966784E-1,-6.692051888E-1,-1.371526509E-3
1.832226094E0,2.297440469E-1,-6.969020367E-1,-1.308942493E-2
1.834729063E0,2.180261612E-1,-7.214031219E-1,-2.161153406E-2
1.837232031E0,2.009819299E-1,-7.490999699E-1,-2.693785168E-2
1.839735052E0,1.892640442E-1,-7.767968178E-1,-3.226416558E-2
1.842238073E0,1.743503362E-1,-8.002325892E-1,-3.545995802E-2
1.844741094E0,1.551755965E-1,-8.215379119E-1,-3.972101212E-2
1.847244115E0,1.402619183E-1,-8.353862762E-1,-4.398206621E-2
1.849747188E0,1.242829561E-1,-8.460389376E-1,-4.611259326E-2
1.852250156E0,1.061734855E-1,-8.492347598E-1,-4.824312031E-2
1.854800104E0,9.125979990E-2,-8.524305224E-1,-4.717785493E-2
1.857303073E0,7.847663760E-2,-8.439084291E-1,-4.824312031E-2
1.859806094E0,6.675873697E-2,-8.321905136E-1,-4.291680455E-2
1.862309115E0,6.462821364E-2,-8.108852506E-1,-3.972101212E-2
1.864812135E0,6.462821364E-2,-7.885147333E-1,-3.119890578E-2
1.867315104E0,7.421558350E-2,-7.650789022E-1,-2.161153406E-2
1.869818125E0,8.699873835E-2,-7.384473085E-1,-1.308942493E-2
1.872321146E0,1.072387546E-1,-7.139462829E-1,1.824264065E-3
1.874824167E0,1.317398101E-1,-6.883799434E-1,1.780321635E-2
1.877327188E0,1.573061198E-1,-6.628136039E-1,3.165164217E-2
1.879830208E0,1.903292984E-1,-6.372473240E-1,4.763059691E-2
1.882333229E0,2.265482694E-1,-6.095504761E-1,6.574007869E-2
1.884745677E0,2.627672255E-1,-5.786578059E-1,8.491481841E-2
1.887248646E0,3.043124974E-1,-5.488304496E-1,9.876324236E-2
1.889751719E0,3.469230235E-1,-5.158072710E-1,1.158074662E-1
1.892254688E0,3.884683251E-1,-4.849146307E-1,1.264601052E-1
1.894757708E0,4.289483428E-1,-4.518914521E-1,1.371127367E-1
1.897260729E0,4.704935849E-1,-4.209988117E-1,1.477653682E-1
1.899763698E0,5.109736919E-1,-3.933019340E-1,1.584179997E-1
1.902266719E0,5.514536500E-1,-3.624092937E-1,1.690706313E-1
1.904769740E0,5.855420828E-1,-3.389735222E-1,1.754622161E-1
1.907272760E0,6.196305156E-1,-3.176682591E-1,1.829190552E-1
1.909775833E0,6.483926177E-1,-2.931671739E-1,1.861148477E-1
1.912278802E0,6.728937030E-1,-2.761229575E-1,1.893106401E-1
1.914809583E0,6.941989660E-1,-2.612093091E-1,1.957022250E-1
1.917312604E0,7.144389749E-1,-2.441650629E-1,1.957022250E-1
1.919815625E0,7.293527126E-1,-2.239250541E-1,2.031590641E-1
1.922318646E0,7.368094921E-1,-2.079460919E-1,2.074201107E-1
1.924821667E0,7.400052547E-1,-1.877060980E-1,2.106159329E-1
1.927324635E0,7.421358228E-1,-1.642702818E-1,2.148769796E-1
1.929827656E0,7.410705686E-1,-1.440302730E-1,2.191380262E-1
1.932330677E0,7.400052547E-1,-1.227250099E-1,2.287253737E-1
1.934833698E0,7.357442379E-1,-1.024850085E-1,2.351169586E-1
1.937336719E0,7.304179668E-1,-9.396289289E-2,2.415085733E-1
1.939839740E0,7.272221446E-1,-9.183236957E-2,2.479001284E-1
1.942342760E0,7.229610682E-1,-9.609343112E-2,2.532264590E-1
1.944803750E0,7.208305597E-1,-1.120723784E-1,2.564222515E-1
1.947306771E0,7.187000513E-1,-1.323123872E-1,2.617485523E-1
1.949809844E0,7.155042291E-1,-1.600092351E-1,2.681401670E-1
1.952312813E0,7.155042291E-1,-1.909018755E-1,2.628138363E-1
1.954815833E0,7.165694833E-1,-2.217945158E-1,2.649443448E-1
1.957318854E0,7.144389749E-1,-2.516218722E-1,2.628138363E-1
1.959821823E0,7.144389749E-1,-2.825145721E-1,2.553569973E-1
1.962324896E0,7.123084664E-1,-3.112766743E-1,2.489654124E-1
1.964827865E0,7.133736610E-1,-3.453651071E-1,2.393780351E-1
1.967330885E0,7.176347375E-1,-3.826493323E-1,2.223338187E-1
1.969833906E0,7.197653055E-1,-4.199335277E-1,2.042243183E-1
1.972336927E0,7.218958139E-1,-4.561524987E-1,1.807885468E-1
1.974848906E0,7.272221446E-1,-4.934367537E-1,1.594832540E-1
1.977351875E0,7.314831614E-1,-5.275251269E-1,1.339169443E-1
1.979854896E0,7.314831614E-1,-5.541567206E-1,1.083506122E-1
1.982357917E0,7.389400601E-1,-5.839841366E-1,7.745797187E-2
1.984860938E0,7.474621534E-1,-6.127462387E-1,4.230427742E-2
1.987363958E0,7.559842467E-1,-6.404431462E-1,9.281109087E-3
1.989866979E0,7.645063996E-1,-6.660094261E-1,-2.693785168E-2
1.992369948E0,7.730284929E-1,-6.915757656E-1,-6.741786003E-2
1.994872969E0,7.879421711E-1,-7.160767913E-1,-1.057673544E-1
1.997375990E0,8.049863577E-1,-7.384473085E-1,-1.451821029E-1
1.999879010E0,8.177695870E-1,-7.554915547E-1,-1.835315824E-1
2.002382083E0,8.348137736E-1,-7.597526312E-1,-2.197505534E-1
2.004897708E0,8.550537229E-1,-7.533610463E-1,-2.570347488E-1
2.007400729E0,8.784895539E-1,-7.405778766E-1,-2.932537198E-1
2.009903750E0,9.029906392E-1,-7.192726135E-1,-3.252116144E-1
2.012406771E0,9.296222329E-1,-6.937062144E-1,-3.561042547E-1
2.014909792E0,9.605148435E-1,-6.617483497E-1,-3.795400560E-1
2.017412813E0,9.924727678E-1,-6.340515018E-1,-4.040411115E-1
2.019915781E0,1.026561022E0,-5.999630690E-1,-4.200201035E-1
2.022418854E0,1.056388497E0,-5.594830513E-1,-4.306727052E-1
2.024921875E0,1.090476871E0,-5.211336017E-1,-4.413253665E-1
2.027424844E0,1.120304227E0,-4.838493764E-1,-4.498474598E-1
2.029927865E0,1.143740058E0,-4.412387908E-1,-4.551737905E-1
2.032430885E0,1.167175770E0,-4.028893113E-1,-4.626306295E-1
2.034925052E0,1.185285330E0,-3.773230016E-1,-4.711527228E-1
2.037428073E0,1.198068500E0,-3.528219461E-1,-4.775443077E-1
2.039931094E0,1.204460144E0,-3.400388062E-1,-4.903274775E-1
2.042434010E0,1.208721161E0,-3.400388062E-1,-5.063064694E-1
2.044937031E0,1.212982178E0,-3.517566919E-1,-5.201548934E-1
2.047440052E0,1.215112686E0,-3.719966710E-1,-5.340032578E-1
2.049943021E0,1.214047432E0,-4.028893113E-1,-5.435906649E-1
2.052445990E0,1.215112686E0,-4.359125197E-1,-5.563738346E-1
2.054949010E0,1.218308449E0,-4.646746218E-1,-5.659612417E-1
2.057451979E0,1.227895856E0,-4.881104231E-1,-5.723527670E-1
2.059955000E0,1.238548517E0,-5.136767030E-1,-5.808749199E-1
2.062457917E0,1.248135924E0,-5.339167714E-1,-5.862011909E-1
2.065016719E0,1.263049603E0,-5.466998816E-1,-5.936580896E-1
2.067519740E0,1.276898026E0,-5.573525429E-1,-5.957885981E-1
2.070022656E0,1.285420060E0,-5.616136193E-1,-5.947232842E-1
2.072525677E0,1.300333738E0,-5.658746362E-1,-5.957885981E-1
2.075028646E0,1.310986400E0,-5.626788139E-1,-5.915275216E-1
2.077531667E0,1.326965332E0,-5.530915260E-1,-5.851359367E-1
2.080034583E0,1.341879010E0,-5.381777883E-1,-5.798096061E-1
2.082537656E0,1.355727434E0,-5.158072710E-1,-5.744833350E-1
2.085040573E0,1.366380215E0,-4.838493764E-1,-5.691570044E-1
2.087543594E0,1.372771740E0,-4.423040748E-1,-5.553085804E-1
2.090046615E0,1.379163265E0,-3.890408874E-1,-5.457212329E-1
2.092549583E0,1.387685299E0,-3.251250982E-1,-5.340032578E-1
2.094989583E0,1.395142198E0,-2.473608404E-1,-5.254811645E-1
2.097492604E0,1.397272706E0,-1.632050276E-1,-5.180243850E-1
2.099995573E0,1.401533842E0,-7.904920727E-2,-5.137633085E-1
2.102498594E0,1.403664351E0,5.106606986E-3,-5.116327405E-1
2.105001563E0,1.406860113E0,9.032768756E-2,-5.126980543E-1
2.107504531E0,1.408990622E0,1.723529696E-1,-5.158938169E-1
2.110007500E0,1.408990622E0,2.458561510E-1,-5.126980543E-1
2.112510521E0,1.413251758E0,3.204245865E-1,-5.105674863E-1
2.115013490E0,1.413251758E0,4.024498761E-1,-5.009801388E-1
2.117516510E0,1.419643402E0,4.908667505E-1,-4.924579859E-1
2.120019479E0,1.427100182E0,5.846099257E-1,-4.860664308E-1
2.122522500E0,1.431361198E0,6.794183850E-1,-4.786095619E-1
2.125022240E0,1.442013860E0,7.667700052E-1,-4.679569602E-1
2.127525260E0,1.459058046E0,8.541216254E-1,-4.530432522E-1
2.130028229E0,1.473971725E0,9.297553301E-1,-4.338684976E-1
2.132531250E0,1.491015911E0,9.926058650E-1,-4.136284888E-1
2.135034219E0,1.509125352E0,1.042673349E0,-3.944537342E-1
2.137537240E0,1.526169538E0,1.075696468E0,-3.720832169E-1
2.140040208E0,1.538952827E0,1.092740774E0,-3.454516530E-1
2.142543177E0,1.548540235E0,1.108719587E0,-3.220158517E-1
2.145046146E0,1.561323404E0,1.117241859E0,-3.156242371E-1
2.147549167E0,1.569845438E0,1.126829147E0,-3.134937286E-1
2.150052135E0,1.576237082E0,1.124698639E0,-3.145590127E-1
2.152555156E0,1.580498099E0,1.104458570E0,-3.209505677E-1
2.155087865E0,1.583693862E0,1.066109180E0,-3.252116144E-1
2.157590885E0,1.584759235E0,1.020302773E0,-3.262768984E-1
2.160093854E0,1.582628608E0,9.691700339E-1,-3.294726610E-1
2.162596875E0,1.575171828E0,9.148415923E-1,-3.305379450E-1
2.165099844E0,1.564519048E0,8.658395410E-1,-3.273421526E-1
2.167602865E0,1.540018082E0,8.306857944E-1,-3.294726610E-1
2.170105833E0,1.511255980E0,8.093805313E-1,-3.305379450E-1
2.172608854E0,1.475036979E0,7.965974212E-1,-3.326684535E-1
2.175111771E0,1.436687589E0,7.997931242E-1,-3.390600383E-1
2.177614792E0,1.396207571E0,8.168373704E-1,-3.454516530E-1
2.180117760E0,1.349335790E0,8.424037099E-1,-3.539737463E-1
2.182620781E0,1.302464247E0,8.743616343E-1,-3.635610938E-1
2.185090156E0,1.261984229E0,9.148415923E-1,-3.731484711E-1
2.187593229E0,1.220438957E0,9.659742713E-1,-3.816705942E-1
2.190096146E0,1.186350584E0,1.020302773E0,-3.923232257E-1
2.192599167E0,1.149066329E0,1.083153367E0,-3.987147808E-1
2.195102188E0,1.116043210E0,1.148134351E0,-3.997800648E-1
2.197605156E0,1.083020091E0,1.210984945E0,-4.083021581E-1
2.200108073E0,1.055323124E0,1.269574404E0,-4.114979804E-1
2.202611146E0,1.028691530E0,1.316446066E0,-4.146937728E-1
2.205114063E0,1.007386327E0,1.350534439E0,-4.210853279E-1
2.207617083E0,9.871464372E-1,1.368643880E0,-4.232158661E-1
2.210120052E0,9.722327590E-1,1.376100779E0,-4.210853279E-1
2.212623073E0,9.647759199E-1,1.384622931E0,-4.232158661E-1
2.215151719E0,9.573190808E-1,1.388883948E0,-4.296074510E-1
2.217654740E0,9.498622417E-1,1.397405982E0,-4.391948283E-1
2.220157708E0,9.477316737E-1,1.416580796E0,-4.551737905E-1
2.222660677E0,9.381443262E-1,1.449604034E0,-4.732832313E-1
2.225163698E0,9.242958426E-1,1.485823035E0,-4.903274775E-1
2.227666667E0,9.104474783E-1,1.528433442E0,-5.063064694E-1
2.230169583E0,8.923379779E-1,1.575305104E0,-5.212201476E-1
2.232672656E0,8.752937913E-1,1.614719868E0,-5.233507156E-1
2.235175573E0,8.593147993E-1,1.658395648E0,-5.276117325E-1
2.237678594E0,8.433358669E-1,1.707397699E0,-5.254811645E-1
2.240181563E0,8.358789682E-1,1.753204107E0,-5.212201476E-1
2.242684583E0,8.252263665E-1,1.794749379E0,-5.190895796E-1
2.245161042E0,8.167042732E-1,1.835229397E0,-5.190895796E-1
2.247664063E0,8.167042732E-1,1.865056753E0,-5.212201476E-1
2.250167031E0,8.135084510E-1,1.886362076E0,-5.222854018E-1
2.252670052E0,8.071169257E-1,1.895949364E0,-5.276117325E-1
2.255173021E0,8.071169257E-1,1.901275754E0,-5.340032578E-1
2.257676042E0,8.060516715E-1,1.890623093E0,-5.446559191E-1
2.260179010E0,8.039211035E-1,1.872513533E0,-5.553085804E-1
2.262682031E0,7.996600866E-1,1.854404092E0,-5.712875128E-1
2.265184948E0,7.879421711E-1,1.836294651E0,-5.925928354E-1
2.267687969E0,7.772895098E-1,1.813924074E0,-6.117675304E-1
2.270190938E0,7.581147552E-1,1.790488243E0,-6.383991241E-1
2.272693958E0,7.346789837E-1,1.757465124E0,-6.756833196E-1
2.275196667E0,7.165694833E-1,1.713789344E0,-7.161633968E-1
2.277699740E0,7.037863731E-1,1.657330275E0,-7.566433549E-1
2.280202656E0,6.931337118E-1,1.593414545E0,-7.917971015E-1
2.282705625E0,6.888726354E-1,1.503932357E0,-8.162981272E-1
2.285208698E0,6.878073812E-1,1.410189152E0,-8.322770596E-1
2.287711667E0,6.920684576E-1,1.308989167E0,-8.418644667E-1
2.290214583E0,7.027211189E-1,1.202462912E0,-8.471907973E-1
2.292717656E0,7.091126442E-1,1.094871163E0,-8.557128906E-1
2.295220573E0,7.155042291E-1,9.904753566E-1,-8.695613146E-1
2.297723594E0,7.176347375E-1,8.946016431E-1,-8.802139759E-1
2.300226563E0,7.208305597E-1,8.104457855E-1,-8.940623403E-1
2.302729531E0,7.261568904E-1,7.326815724E-1,-9.068455696E-1
2.305247292E0,7.282873988E-1,6.687657237E-1,-9.153676629E-1
2.307750365E0,7.346789837E-1,6.080456972E-1,-9.260203242E-1
2.310253281E0,7.442663312E-1,5.547825694E-1,-9.409339428E-1
2.312756302E0,7.495926619E-1,5.164331198E-1,-9.483907819E-1
2.315259323E0,7.613105774E-1,4.823446274E-1,-9.590434432E-1
2.317762292E0,7.740937471E-1,4.578436017E-1,-9.665002823E-1
2.320265208E0,7.826158404E-1,4.397341013E-1,-9.707613587E-1
2.322768281E0,7.953990102E-1,4.312120080E-1,-9.718265533E-1
2.325271250E0,8.049863577E-1,4.312120080E-1,-9.707613587E-1
2.327774219E0,8.113779426E-1,4.429298937E-1,-9.718265533E-1
2.330277188E0,8.199000359E-1,4.653004408E-1,-9.750223756E-1
2.332780156E0,8.316179514E-1,4.961930513E-1,-9.728918672E-1
2.335270000E0,8.486621976E-1,5.409341455E-1,-9.728918672E-1
2.337773021E0,8.710326552E-1,5.867404938E-1,-9.665002823E-1
2.340275990E0,8.934032321E-1,6.368078589E-1,-9.622392654E-1
2.342778958E0,9.221653938E-1,6.868752241E-1,-9.558476210E-1
2.345281979E0,9.509274364E-1,7.273553014E-1,-9.494560957E-1
2.347784948E0,9.796895981E-1,7.518563271E-1,-9.462602735E-1
2.350287969E0,1.004190564E0,7.731615305E-1,-9.451950192E-1
2.352790938E0,1.027626395E0,7.902057767E-1,-9.451950192E-1
2.355293958E0,1.053192616E0,8.157721758E-1,-9.419992566E-1
2.357796927E0,1.074497938E0,8.551868796E-1,-9.356076717E-1
2.360299896E0,1.098998904E0,9.052542448E-1,-9.356076717E-1
2.362802917E0,1.122434735E0,9.649090171E-1,-9.398686886E-1
2.365306771E0,1.137348413E0,1.036281705E0,-9.419992566E-1
2.367809844E0,1.154392719E0,1.106589079E0,-9.462602735E-1
2.370312760E0,1.169306397E0,1.170504928E0,-9.483907819E-1
2.372815781E0,1.186350584E0,1.221637607E0,-9.526518583E-1
2.375318750E0,1.195937991E0,1.263182878E0,-9.451950192E-1
2.377821771E0,1.209786415E0,1.299401879E0,-9.324118495E-1
2.380324688E0,1.228961110E0,1.328163981E0,-9.068455696E-1
2.382827760E0,1.237483144E0,1.352665067E0,-8.780834079E-1
2.385330677E0,1.227895856E0,1.376100779E0,-8.376033902E-1
2.387833698E0,1.212982178E0,1.405928254E0,-7.800791860E-1
2.390336719E0,1.185285330E0,1.446408153E0,-7.023149133E-1
2.392839688E0,1.140544176E0,1.490083933E0,-6.170938611E-1
2.395376771E0,1.091542125E0,1.513519764E0,-5.457212329E-1
2.397879792E0,1.039344311E0,1.515650272E0,-4.988496006E-1
2.400382760E0,9.871464372E-1,1.523107171E0,-4.690221846E-1
2.402885781E0,9.253611565E-1,1.546543002E0,-4.466516376E-1
2.405388802E0,8.561190367E-1,1.578500867E0,-4.232158661E-1
2.407891771E0,7.826158404E-1,1.618980885E0,-4.008453488E-1
2.410394740E0,6.995252967E-1,1.677570343E0,-3.827358484E-1
2.412897760E0,6.132389307E-1,1.747877836E0,-3.646263778E-1
2.415400729E0,5.226915479E-1,1.814989328E0,-3.443863690E-1
2.417903698E0,4.332093894E-1,1.875709295E0,-3.369295001E-1
2.420406719E0,3.384009302E-1,1.935364127E0,-3.284074068E-1
2.422909688E0,2.372009009E-1,1.995018959E0,-3.113631904E-1
2.425379531E0,1.338703334E-1,2.060000181E0,-2.879274189E-1
2.427882500E0,2.521345578E-2,2.132438183E0,-2.506431937E-1
2.430385521E0,-8.557394147E-2,2.193158150E0,-2.122937143E-1
2.432888438E0,-1.931655705E-1,2.219789743E0,-1.750094891E-1
2.435391510E0,-2.933003306E-1,2.227246523E0,-1.387905180E-1
2.437894427E0,-3.881087899E-1,2.224050760E0,-1.089631394E-1
2.440397448E0,-4.786562026E-1,2.208071709E0,-8.126629144E-2
2.442900469E0,-5.596162081E-1,2.197419167E0,-4.824312031E-2
2.445403438E0,-6.416414380E-1,2.216593981E0,-1.628521644E-2
2.447906406E0,-7.343194485E-1,2.283705473E0,1.886847988E-2
2.450409427E0,-8.291278481E-1,2.396623373E0,5.402217805E-2
2.452912396E0,-9.090226293E-1,2.486105680E0,9.130640328E-2
2.455422500E0,-9.889174104E-1,2.555347443E0,1.243295670E-1
2.457925521E0,-1.070942879E0,2.609676123E0,1.467001140E-1
2.460428490E0,-1.151902795E0,2.640568733E0,1.594832540E-1
2.462931458E0,-1.215818524E0,2.650156021E0,1.712011695E-1
2.465434427E0,-1.283995509E0,2.686375141E0,1.797232628E-1
2.467937448E0,-1.343650222E0,2.697027683E0,1.680053771E-1
2.470440417E0,-1.391587138E0,2.675722361E0,1.669400930E-1
2.472943438E0,-1.454437733E0,2.667200327E0,1.690706313E-1
2.475446406E0,-1.516222954E0,2.645895243E0,1.680053771E-1
2.477949375E0,-1.582269311E0,2.610741377E0,1.594832540E-1
2.480452396E0,-1.628075600E0,2.510606527E0,1.392432451E-1
2.482955365E0,-1.654707193E0,2.343360186E0,1.211337671E-1
2.485450104E0,-1.657902956E0,2.127111673E0,1.083506122E-1
2.487953073E0,-1.621684074E0,1.858665109E0,7.426217943E-2
2.490456094E0,-1.542854548E0,1.548673511E0,6.085318048E-3
2.492959063E0,-1.426740766E0,1.241877556E0,-9.191892296E-2
2.495462083E0,-1.296778679E0,1.000062823E0,-2.005757987E-1
2.497965000E0,-1.162555456E0,8.317511082E-1,-2.953842580E-1
2.500468021E0,-1.030462742E0,7.081805468E-1,-3.784748018E-1
2.502970990E0,-8.951741457E-1,6.027194262E-1,-4.573042989E-1
2.505473958E0,-7.545593977E-1,5.132372975E-1,-5.233507156E-1
2.507976979E0,-6.107488275E-1,4.216246307E-1,-5.766138434E-1
2.510480000E0,-4.594814479E-1,3.300119638E-1,-6.224201322E-1
2.512982917E0,-3.071487844E-1,2.437256277E-1,-6.543781161E-1
2.515525365E0,-1.537508219E-1,1.755487621E-1,-6.756833196E-1
2.518028333E0,1.777658705E-3,1.371992826E-1,-6.874012351E-1
2.520531302E0,1.615671813E-1,1.265466362E-1,-6.927275658E-1
2.523034271E0,3.202914298E-1,1.435908675E-1,-6.884665489E-1
2.525537292E0,4.704935849E-1,1.830056161E-1,-6.788791418E-1
2.528040260E0,6.249568462E-1,2.352035344E-1,-6.671612263E-1
2.530543281E0,7.677021623E-1,2.895319462E-1,-6.511822939E-1
2.533046250E0,9.061864614E-1,3.555782735E-1,-6.415948868E-1
2.535549271E0,1.039344311E0,4.216246307E-1,-6.341381073E-1
2.538052188E0,1.165045381E0,4.866057038E-1,-6.256159544E-1
2.540555260E0,1.277963281E0,5.441299677E-1,-6.245507002E-1
2.543058177E0,1.385554790E0,6.027194262E-1,-6.245507002E-1
2.545525052E0,1.488885403E0,6.495909691E-1,-6.234854460E-1
2.548028021E0,1.580498099E0,6.911363006E-1,-6.288117170E-1
2.550531042E0,1.660392880E0,7.305510044E-1,-6.394643784E-1
2.553033958E0,1.732830763E0,7.646394372E-1,-6.490517259E-1
2.555536979E0,1.793550849E0,7.848795056E-1,-6.682264805E-1
2.558040000E0,1.846814036E0,7.934015989E-1,-6.895318031E-1
2.560542969E0,1.892620325E0,7.912710309E-1,-7.140328288E-1
2.563045938E0,1.932035089E0,7.678352594E-1,-7.385339141E-1
2.565548958E0,1.965058208E0,7.230941653E-1,-7.598391771E-1
2.568051927E0,1.987428784E0,6.570478678E-1,-7.736876011E-1
2.570554896E0,2.001277208E0,5.739573240E-1,-7.949928641E-1
2.573057865E0,2.010864735E0,4.823446274E-1,-8.131023645E-1
2.575597500E0,2.010864735E0,3.854056597E-1,-8.322770596E-1
2.578100469E0,1.997016191E0,2.969887853E-1,-8.589086533E-1
2.580603490E0,1.978906631E0,2.149635255E-1,-8.855402470E-1
2.583106458E0,1.954405546E0,1.350687444E-1,-9.143023491E-1
2.585609427E0,1.923512936E0,6.582662463E-2,-9.388034344E-1
2.588112396E0,1.888359308E0,7.237134036E-3,-9.569129348E-1
2.590615417E0,1.859597087E0,-3.856920078E-2,-9.696961045E-1
2.593118385E0,1.828704476E0,-8.331026137E-2,-9.718265533E-1
2.595621354E0,1.805268764E0,-1.291165948E-1,-9.718265533E-1
2.598124323E0,1.785028696E0,-1.813144982E-1,-9.633044600E-1
2.600627396E0,1.770115018E0,-2.367082089E-1,-9.515866041E-1
2.603130313E0,1.756266475E0,-2.931671739E-1,-9.313465953E-1
2.605662552E0,1.749875069E0,-3.496261537E-1,-9.089760780E-1
2.608165521E0,1.749875069E0,-4.018240571E-1,-8.823444843E-1
2.610668542E0,1.748809695E0,-4.444346130E-1,-8.535823822E-1
2.613171458E0,1.753070831E0,-4.763925076E-1,-8.269507885E-1
2.615674479E0,1.759462357E0,-4.870451391E-1,-8.035150170E-1
2.618177448E0,1.765853882E0,-4.795883000E-1,-7.790138721E-1
2.620680469E0,1.772245526E0,-4.508261681E-1,-7.587739229E-1
2.623183438E0,1.771180153E0,-3.986282647E-1,-7.406644225E-1
2.625686458E0,1.767984390E0,-3.229945600E-1,-7.268159986E-1
2.628189375E0,1.763723373E0,-2.249903232E-1,-7.150981426E-1
2.630692448E0,1.766919255E0,-1.195292249E-1,-7.076413035E-1
2.633195365E0,1.770115018E0,-9.807081893E-3,-7.055107355E-1
2.635838958E0,1.778637171E0,9.778453410E-2,-7.001844049E-1
2.638341927E0,1.796746612E0,1.957887858E-1,-6.927275658E-1
2.640844948E0,1.819117069E0,2.884666920E-1,-6.842054725E-1
2.643347865E0,1.840422392E0,3.726224899E-1,-6.714223027E-1
2.645850885E0,1.863858223E0,4.461256862E-1,-6.543781161E-1
2.648353906E0,1.888359308E0,5.079109669E-1,-6.394643784E-1
2.650856875E0,1.910729766E0,5.611741543E-1,-6.266812682E-1
2.653359844E0,1.925643444E0,6.080456972E-1,-6.202896237E-1
2.655862865E0,1.940557122E0,6.421341300E-1,-6.149633527E-1
2.658365781E0,1.951209784E0,6.687657237E-1,-6.096370220E-1
2.660868802E0,1.958666682E0,6.847446561E-1,-6.138980389E-1
2.663371771E0,1.965058208E0,6.932668686E-1,-6.213548779E-1
2.665727969E0,1.969319224E0,6.953973174E-1,-6.245507002E-1
2.668230938E0,1.959731817E0,7.017889619E-1,-6.309422851E-1
2.670733958E0,1.941622496E0,7.220289111E-1,-6.362686157E-1
2.673236927E0,1.912860274E0,7.603784204E-1,-6.362686157E-1
2.675739948E0,1.879837155E0,8.179026246E-1,-6.330727935E-1
2.678242865E0,1.835096121E0,8.882099986E-1,-6.288117170E-1
2.680745885E0,1.789289713E0,9.734311700E-1,-6.213548779E-1
2.683248854E0,1.745613933E0,1.052260756E0,-6.107022762E-1
2.685751875E0,1.690220237E0,1.112980723E0,-5.925928354E-1
2.688254844E0,1.629500151E0,1.156656504E0,-5.712875128E-1
2.690757865E0,1.562388539E0,1.181157589E0,-5.435906649E-1
2.693260781E0,1.492081165E0,1.197136521E0,-5.105674863E-1
2.695808438E0,1.417512774E0,1.202462912E0,-4.732832313E-1
2.698311406E0,1.340813756E0,1.201397538E0,-4.381295443E-1
2.700814427E0,1.261984229E0,1.200332284E0,-3.976495564E-1
2.703317396E0,1.173567414E0,1.198201776E0,-3.593000472E-1
2.705820365E0,1.075563192E0,1.200332284E0,-3.273421526E-1
2.708323385E0,9.796895981E-1,1.208854318E0,-2.943189740E-1
2.710826354E0,8.763590455E-1,1.229094505E0,-2.666221559E-1
2.713329375E0,7.602453232E-1,1.258921742E0,-2.389253080E-1
2.715832344E0,6.313484311E-1,1.297271252E0,-2.080326378E-1
2.718335260E0,4.981904328E-1,1.328163981E0,-1.835315824E-1
2.720838333E0,3.554451168E-1,1.338816524E0,-1.558347344E-1
2.723341250E0,2.190914154E-1,1.327098608E0,-1.302684098E-1
2.725938594E0,1.019124314E-1,1.274900794E0,-1.036368236E-1
2.728441563E0,-9.940239601E-3,1.189679623E0,-7.807049900E-2
2.730944583E0,-1.154013202E-1,1.087414384E0,-5.676522851E-2
2.733447500E0,-2.176666260E-1,9.670395255E-1,-3.972101212E-2
2.735950573E0,-3.146056235E-1,8.445342183E-1,-2.800311521E-2
2.738453542E0,-4.147403836E-1,7.380078435E-1,-2.480732463E-2
2.740956510E0,-5.138098598E-1,6.506562829E-1,-2.587258816E-2
2.743459479E0,-6.160751581E-1,5.824794173E-1,-3.119890578E-2
2.745962500E0,-7.183403969E-1,5.292162299E-1,-4.291680455E-2
2.748465469E0,-8.142141700E-1,4.844751954E-1,-5.783049390E-2
2.750968438E0,-9.005005360E-1,4.439951777E-1,-6.954838336E-2
2.753471406E0,-9.740036726E-1,4.013846219E-1,-7.913576066E-2
2.755817969E0,-1.032593369E0,3.598393500E-1,-7.913576066E-2
2.758320938E0,-1.079464912E0,3.278814256E-1,-6.954838336E-2
2.760823958E0,-1.108227015E0,3.087067008E-1,-5.356943607E-2
2.763326927E0,-1.130597472E0,3.076414466E-1,-3.332943097E-2
2.765829948E0,-1.145511150E0,3.395993412E-1,-1.521995198E-2
2.768332865E0,-1.148707032E0,4.067109227E-1,8.215845563E-3
2.770835885E0,-1.146576524E0,4.983236194E-1,2.739058621E-2
2.773338854E0,-1.142315388E0,6.027194262E-1,5.082638562E-2
2.775841875E0,-1.131662846E0,7.103110552E-1,7.213165611E-2
2.778344844E0,-1.106096506E0,8.136416078E-1,9.450218827E-2
2.780847865E0,-1.075203776E0,9.105805755E-1,1.168727204E-1
2.783350781E0,-1.034723878E0,9.872795343E-1,1.371127367E-1
2.785881823E0,-9.889174104E-1,1.043738484E0,1.498958766E-1
2.788384792E0,-9.399152398E-1,1.084218621E0,1.626790464E-1
2.790887813E0,-8.877173066E-1,1.109784961E0,1.722664237E-1
2.793390729E0,-8.429762721E-1,1.126829147E0,1.871801019E-1
2.795893802E0,-7.971699238E-1,1.139612317E0,1.903759241E-1
2.798396719E0,-7.545593977E-1,1.133220673E0,1.861148477E-1
2.800899740E0,-7.172752023E-1,1.110850215E0,1.775927544E-1
2.803402760E0,-6.767951846E-1,1.077826977E0,1.616137922E-1
2.805905729E0,-6.416414380E-1,1.028824925E0,1.424390674E-1
2.808408698E0,-6.096835732E-1,9.670395255E-1,1.179379895E-1
2.810911719E0,-5.809214711E-1,8.956668377E-1,8.278429508E-2
2.813414635E0,-5.574856400E-1,8.200331926E-1,4.656533152E-2
2.815918229E0,-5.361803770E-1,7.465299964E-1,1.034637261E-2
2.818421198E0,-5.148751140E-1,6.783531308E-1,-2.374206111E-2
2.820924219E0,-4.935698807E-1,6.123068333E-1,-5.889575556E-2
2.823427188E0,-4.743951261E-1,5.505214930E-1,-9.191892296E-2
2.825930208E0,-4.498940706E-1,5.036499500E-1,-1.281378865E-1
2.828433177E0,-4.349803627E-1,4.738225341E-1,-1.568999887E-1
2.830936198E0,-4.168709219E-1,4.684962034E-1,-1.814010739E-1
2.833439167E0,-4.019572139E-1,4.844751954E-1,-1.941842139E-1
2.835942135E0,-3.913045526E-1,5.196288228E-1,-1.995105445E-1
2.838445104E0,-3.763909042E-1,5.515868068E-1,-1.995105445E-1
2.840948125E0,-3.699992895E-1,5.728920102E-1,-1.931189597E-1
2.843451094E0,-3.614771962E-1,5.835446715E-1,-1.824663281E-1
2.845900938E0,-3.625424504E-1,5.867404938E-1,-1.696831584E-1
2.848403958E0,-3.572161496E-1,5.835446715E-1,-1.600957811E-1
2.850906927E0,-3.476287723E-1,5.696962476E-1,-1.483778954E-1
2.853409896E0,-3.444329798E-1,5.451951623E-1,-1.398557723E-1
2.855912917E0,-3.433677256E-1,5.153678060E-1,-1.377252638E-1
2.858415885E0,-3.412371874E-1,4.780835807E-1,-1.409210265E-1
2.860918854E0,-3.412371874E-1,4.258856773E-1,-1.515736878E-1
2.863421875E0,-3.476287723E-1,3.609046042E-1,-1.632915735E-1
2.865924844E0,-3.540203571E-1,2.820751071E-1,-1.771399975E-1
2.868427865E0,-3.593466878E-1,1.904624552E-1,-1.941842139E-1
2.870930833E0,-3.678687811E-1,8.926242590E-2,-2.122937143E-1
2.873433802E0,-3.731951118E-1,-2.578603476E-2,-2.229463458E-1
2.875947760E0,-3.806519508E-1,-1.504218727E-1,-2.304031849E-1
2.878450729E0,-3.795866668E-1,-2.633398175E-1,-2.314684391E-1
2.880953698E0,-3.689340651E-1,-3.645398319E-1,-2.293379307E-1
2.883456667E0,-3.550856411E-1,-4.444346130E-1,-2.293379307E-1
2.885959740E0,-3.423024714E-1,-5.094156861E-1,-2.410558164E-1
2.888462708E0,-3.337803781E-1,-5.530915260E-1,-2.517084479E-1
2.890965677E0,-3.327150941E-1,-5.807883143E-1,-2.602305412E-1
2.893468646E0,-3.316498101E-1,-5.839841366E-1,-2.623610795E-1
2.895971667E0,-3.391066492E-1,-5.562872887E-1,-2.549042404E-1
2.898474688E0,-3.476287723E-1,-5.072851777E-1,-2.421210706E-1
2.900977656E0,-3.540203571E-1,-4.412387908E-1,-2.282726467E-1
2.903480625E0,-3.540203571E-1,-3.506914079E-1,-2.048368454E-1
2.906046875E0,-3.582814038E-1,-2.473608404E-1,-1.771399975E-1
2.908549844E0,-3.604119122E-1,-1.365734488E-1,-1.558347344E-1
2.911052865E0,-3.593466878E-1,-1.406813599E-2,-1.238768250E-1
2.913555781E0,-3.582814038E-1,9.778453410E-2,-9.298418462E-2
2.916058802E0,-3.550856411E-1,2.075066715E-1,-6.741786003E-2
2.918561771E0,-3.497593105E-1,2.959235311E-1,-4.398206621E-2
2.921064792E0,-3.518898189E-1,3.609046042E-1,-2.374206111E-2
2.923567760E0,-3.572161496E-1,4.056456983E-1,-1.735047996E-2
2.926070781E0,-3.625424504E-1,4.429298937E-1,-1.202416141E-2
2.928573750E0,-3.614771962E-1,4.706267416E-1,-1.308942493E-2
2.931076719E0,-3.604119122E-1,4.961930513E-1,-1.521995198E-2
2.933579740E0,-3.497593105E-1,5.164331198E-1,-1.948100701E-2
2.936002708E0,-3.327150941E-1,5.260204673E-1,-2.267679758E-2
2.938505677E0,-3.167361319E-1,5.345425606E-1,-2.800311521E-2
2.941008698E0,-3.018224537E-1,5.419993997E-1,-3.119890578E-2
2.943511667E0,-2.837129533E-1,5.505214930E-1,-4.078627378E-2
2.946014635E0,-2.666687667E-1,5.579783320E-1,-4.291680455E-2
2.948517656E0,-2.549508512E-1,5.654351711E-1,-5.037364736E-2
2.951020625E0,-2.453634739E-1,5.622394085E-1,-5.037364736E-2
2.953523646E0,-2.293845266E-1,5.441299677E-1,-4.930838197E-2
2.956026615E0,-2.219276875E-1,5.132372975E-1,-4.824312031E-2
2.958529583E0,-2.187318802E-1,4.706267416E-1,-4.824312031E-2
2.961032604E0,-2.112750411E-1,4.205593467E-1,-4.930838197E-2
2.963535573E0,-2.070139945E-1,3.630351126E-1,-5.569996685E-2
2.966066146E0,-2.016876638E-1,3.065761626E-1,-6.209154427E-2
2.968569167E0,-1.899697781E-1,2.426603585E-1,-7.061365247E-2
2.971072135E0,-1.803824008E-1,1.862014085E-1,-8.020102233E-2
2.973575104E0,-1.718602926E-1,1.318729669E-1,-9.298418462E-2
2.976078125E0,-1.675992459E-1,9.032768756E-2,-1.004410312E-1
2.978581094E0,-1.654687226E-1,7.008767873E-2,-1.089631394E-1
2.981084063E0,-1.686645001E-1,6.582662463E-2,-1.164199859E-1
2.983587031E0,-1.729255617E-1,7.541399449E-2,-1.174852476E-1
2.986090052E0,-1.825129241E-1,9.032768756E-2,-1.185505092E-1
2.988593073E0,-1.952960938E-1,9.884979576E-2,-1.174852476E-1
2.991095990E0,-2.123403102E-1,1.031108499E-1,-1.185505092E-1
2.993599010E0,-2.261887342E-1,9.778453410E-2,-1.217463017E-1
2.996133333E0,-2.389718890E-1,9.671927243E-2,-1.228115633E-1
2.998636302E0,-2.496245205E-1,1.041761115E-1,-1.185505092E-1
3.001139323E0,-2.656034827E-1,1.190897971E-1,-1.100284085E-1
3.003642292E0,-2.762561440E-1,1.393298060E-1,-1.025715619E-1
3.006145260E0,-2.858434916E-1,1.553087533E-1,-9.511471540E-2
3.008648281E0,-2.943656147E-1,1.787445694E-1,-8.765786886E-2
3.011151250E0,-2.986266613E-1,2.011150867E-1,-8.126629144E-2
3.013654219E0,-2.975614071E-1,2.234856188E-1,-7.274418324E-2
3.016157240E0,-2.996919155E-1,2.373340577E-1,-6.422206759E-2
3.018660208E0,-2.954308689E-1,2.426603585E-1,-5.356943607E-2
3.021163177E0,-2.911697924E-1,2.383993119E-1,-4.398206621E-2
3.023666198E0,-2.869087458E-1,2.256161571E-1,-3.759048507E-2
3.026125260E0,-2.773213685E-1,2.107024640E-1,-3.013364226E-2
3.028628281E0,-2.698645294E-1,1.947235018E-1,-2.267679758E-2
3.031131198E0,-2.570813596E-1,1.776793003E-1,-1.202416141E-2
3.033634219E0,-2.506898046E-1,1.595698148E-1,-4.567317199E-3
3.036137240E0,-2.421676964E-1,1.510477066E-1,3.954790998E-3
3.038640208E0,-2.368413657E-1,1.457213908E-1,1.141163614E-2
3.041143177E0,-2.379066348E-1,1.489171833E-1,2.206427045E-2
3.043646198E0,-2.400371581E-1,1.531782299E-1,3.058637865E-2
3.046149167E0,-2.421676964E-1,1.553087533E-1,3.910848871E-2
3.048652135E0,-2.549508512E-1,1.542434990E-1,4.443480447E-2
3.051155104E0,-2.613424361E-1,1.425255984E-1,5.295691639E-2
3.053658125E0,-2.719950676E-1,1.180245355E-1,6.041375548E-2
3.056137865E0,-2.826476991E-1,7.541399449E-2,6.254428625E-2
3.058640885E0,-2.901045382E-1,1.682450622E-2,6.254428625E-2
3.061143854E0,-2.996919155E-1,-5.454815552E-2,5.828323215E-2
3.063646875E0,-3.135403395E-1,-1.259208024E-1,4.976112023E-2
3.066149844E0,-3.295192719E-1,-1.940976679E-1,4.017375410E-2
3.068652865E0,-3.486940265E-1,-2.558829784E-1,3.058637865E-2
3.071155781E0,-3.742603660E-1,-3.080808818E-1,2.099900506E-2
3.073658802E0,-3.998266757E-1,-3.506914079E-1,1.141163614E-2
3.076161771E0,-4.403066933E-1,-3.847798407E-1,-3.062629839E-4
3.078664792E0,-4.818519950E-1,-4.124766886E-1,-1.095889788E-2
3.081167708E0,-5.159404278E-1,-4.284556508E-1,-2.161153406E-2
3.083670781E0,-5.457677245E-1,-4.401735663E-1,-2.693785168E-2
3.086225417E0,-5.915740728E-1,-4.508261681E-1,-2.480732463E-2
3.088728385E0,-6.224666834E-1,-4.508261681E-1,-2.374206111E-2
3.091231354E0,-6.522940993E-1,-4.454998970E-1,-1.948100701E-2
3.093734375E0,-6.789256930E-1,-4.241946042E-1,-8.828370832E-3
3.096237292E0,-6.938393712E-1,-3.869103789E-1,-1.371526509E-3
3.098740365E0,-7.108835578E-1,-3.347124755E-1,2.889527474E-3
3.101243281E0,-7.215362191E-1,-2.761229575E-1,1.673795283E-2
3.103746250E0,-7.268625498E-1,-2.154029459E-1,2.845585160E-2
3.106249271E0,-7.247320414E-1,-1.621397585E-1,3.910848871E-2
3.108752240E0,-7.162099481E-1,-1.216597483E-1,4.656533152E-2
3.111255208E0,-7.023614645E-1,-9.289763123E-2,4.763059691E-2
3.113758229E0,-6.874477863E-1,-8.117973804E-2,4.656533152E-2
3.116246510E0,-6.704035997E-1,-8.544079214E-2,4.443480447E-2
3.118749479E0,-6.522940993E-1,-1.056808010E-1,4.123901576E-2
3.121252500E0,-6.341845989E-1,-1.376387030E-1,4.336954281E-2
3.123755469E0,-6.182056665E-1,-1.909018755E-1,4.123901576E-2
3.126258438E0,-6.118141413E-1,-2.707966566E-1,3.058637865E-2
3.128761458E0,-6.139445901E-1,-3.677356243E-1,1.673795283E-2
3.131264427E0,-6.171404123E-1,-4.795883000E-1,7.590005407E-4
3.133767396E0,-6.341845989E-1,-6.116809845E-1,-1.841574349E-2
3.136270417E0,-6.629467607E-1,-7.490999699E-1,-3.865575045E-2
3.138773438E0,-6.949046254E-1,-8.716052771E-1,-6.315681338E-2
3.141276354E0,-7.300583124E-1,-9.632179737E-1,-8.765786886E-2
3.143779375E0,-7.801256776E-1,-1.019676805E0,-1.121589318E-1
3.146290469E0,-8.333888650E-1,-1.026068449E0,-1.355947256E-1
3.148793438E0,-8.887826204E-1,-9.983716607E-1,-1.547694802E-1
3.151296458E0,-9.367194772E-1,-9.419126511E-1,-1.718136966E-1
3.153799427E0,-9.793300033E-1,-8.673442602E-1,-1.856621206E-1
3.156302396E0,-1.017679572E0,-7.778620720E-1,-1.931189597E-1
3.158805417E0,-1.053898573E0,-6.734662652E-1,-1.995105445E-1
3.161308438E0,-1.075203776E0,-5.530915260E-1,-1.995105445E-1
3.163811354E0,-1.083725929E0,-4.146072567E-1,-1.931189597E-1
3.166314375E0,-1.081595421E0,-2.718619108E-1,-1.856621206E-1
3.168817344E0,-1.066681743E0,-1.355081648E-1,-1.771399975E-1
3.171320313E0,-1.040050149E0,-9.807081893E-3,-1.643568575E-1
3.173823333E0,-9.995700121E-1,1.009803265E-1,-1.483778954E-1
3.176319219E0,-9.526984096E-1,1.872666776E-1,-1.366599798E-1
3.178822188E0,-8.973047137E-1,2.543782592E-1,-1.238768250E-1
3.181325208E0,-8.269973397E-1,3.087067008E-1,-1.100284085E-1
3.183828177E0,-7.662773132E-1,3.353382945E-1,-1.068326160E-1
3.186331198E0,-7.012962103E-1,3.491866887E-1,-1.057673544E-1
3.188834167E0,-6.373804212E-1,3.438603878E-1,-1.036368236E-1
3.191337188E0,-5.894435644E-1,3.076414466E-1,-1.132241935E-1
3.193840104E0,-5.489635468E-1,2.554435134E-1,-1.260073632E-1
3.196343125E0,-5.116792917E-1,1.862014085E-1,-1.430515647E-1
3.198846094E0,-4.861130416E-1,9.565401077E-2,-1.643568575E-1
3.201349063E0,-4.669382870E-1,-1.619866304E-2,-1.814010739E-1
3.203852083E0,-4.541551173E-1,-1.429650187E-1,-1.952494979E-1
3.206317604E0,-4.552204013E-1,-2.718619108E-1,-2.133589685E-1
3.208820625E0,-4.743951261E-1,-3.943672180E-1,-2.304031849E-1
3.211323594E0,-4.957004189E-1,-5.019588470E-1,-2.410558164E-1
3.213826563E0,-5.138098598E-1,-5.871799588E-1,-2.474474013E-1
3.216329583E0,-5.553551316E-1,-6.500304341E-1,-2.517084479E-1
3.218832552E0,-6.064877510E-1,-6.798578501E-1,-2.463821173E-1
3.221335521E0,-6.512288451E-1,-6.787925959E-1,-2.378600240E-1
3.223838542E0,-7.002310157E-1,-6.510956883E-1,-2.250768542E-1
3.226341510E0,-7.534941435E-1,-5.829188824E-1,-2.069673836E-1
3.228844531E0,-8.003657460E-1,-4.774577618E-1,-1.824663281E-1
3.231347500E0,-8.419110179E-1,-3.400388062E-1,-1.547694802E-1
3.233850469E0,-8.802605271E-1,-1.802492440E-1,-1.206810400E-1
3.236393177E0,-9.079573750E-1,-3.415501444E-3,-8.339681476E-2
3.238896146E0,-9.175447226E-1,1.712877154E-1,-3.865575045E-2
3.241399167E0,-9.122183919E-1,3.321424723E-1,3.954790998E-3
3.243902135E0,-8.962394595E-1,4.823446274E-1,4.976112023E-2
3.246405156E0,-8.685425520E-1,6.080456972E-1,8.917587250E-2
3.248908177E0,-8.312584162E-1,7.198984027E-1,1.296558678E-1
3.251411146E0,-7.790604830E-1,8.264247179E-1,1.658748388E-1
3.253914063E0,-7.247320414E-1,9.254942536E-1,1.946369708E-1
3.256417083E0,-6.661425233E-1,1.016041756E0,2.202032804E-1
3.258920052E0,-6.075530648E-1,1.107654452E0,2.393780351E-1
3.261423073E0,-5.447024703E-1,1.192875504E0,2.500306666E-1
3.263926042E0,-4.786562026E-1,1.265313387E0,2.585527897E-1
3.266400156E0,-4.147403836E-1,1.314315557E0,2.617485523E-1
3.268903125E0,-3.540203571E-1,1.335620761E0,2.521611750E-1
3.271406146E0,-3.007571697E-1,1.322837591E0,2.404432893E-1
3.273909063E0,-2.517550588E-1,1.281292319E0,2.255296111E-1
3.276412083E0,-2.219276875E-1,1.220572233E0,2.010285556E-1
3.278915052E0,-2.027529478E-1,1.149199724E0,1.743969619E-1
3.281418073E0,-2.059487253E-1,1.057587028E0,1.403085291E-1
3.283920990E0,-2.442982197E-1,9.457342625E-1,9.556745738E-2
3.286424063E0,-3.103445470E-1,8.264247179E-1,5.189164728E-2
3.288927031E0,-3.881087899E-1,7.039194107E-1,1.673795283E-2
3.291429948E0,-4.637424946E-1,5.707615018E-1,-4.567317199E-3
3.293932969E0,-5.361803770E-1,4.354730546E-1,-1.415468846E-2
3.296473073E0,-5.958350897E-1,3.129677474E-1,-7.763107773E-3
3.298976042E0,-6.373804212E-1,2.170940489E-1,-5.632580724E-3
3.301479010E0,-6.565551162E-1,1.563740373E-1,-2.436790615E-3
3.303981979E0,-6.629467607E-1,1.350687444E-1,-2.436790615E-3
3.306485000E0,-6.597509384E-1,1.521129757E-1,7.590005407E-4
3.308988021E0,-6.469678283E-1,1.936582476E-1,2.889527474E-3
3.311490990E0,-6.256625056E-1,2.575740218E-1,6.085318048E-3
3.313993958E0,-6.043572426E-1,3.268162012E-1,1.567268930E-2
3.316496927E0,-5.862478018E-1,3.917972445E-1,3.165164217E-2
3.318999896E0,-5.585509539E-1,4.493214786E-1,4.869585857E-2
3.321502917E0,-5.297887921E-1,4.898014665E-1,6.254428625E-2
3.324005885E0,-5.063530207E-1,5.079109669E-1,7.426217943E-2
3.326503281E0,-4.893088043E-1,5.047151446E-1,8.491481841E-2
3.329006198E0,-4.754603803E-1,4.929972887E-1,9.024114162E-2
3.331509271E0,-4.616119564E-1,4.748878181E-1,9.876324236E-2
3.334012240E0,-4.498940706E-1,4.567783177E-1,1.051548272E-1
3.336515208E0,-4.477635622E-1,4.429298937E-1,1.072853506E-1
3.339018177E0,-4.456330240E-1,4.322772324E-1,1.136769280E-1
3.341521198E0,-4.498940706E-1,4.237551391E-1,1.179379895E-1
3.344024115E0,-4.573509097E-1,4.205593467E-1,1.200685129E-1
3.346527135E0,-4.711993337E-1,4.216246307E-1,1.211337671E-1
3.349030104E0,-4.978309274E-1,4.290814698E-1,1.243295670E-1
3.351533125E0,-5.180708766E-1,4.461256862E-1,1.317864060E-1
3.354036094E0,-5.276582837E-1,4.653004408E-1,1.445695758E-1
3.356536875E0,-5.361803770E-1,4.791488647E-1,1.541569531E-1
3.359039896E0,-5.393761992E-1,4.866057038E-1,1.616137922E-1
3.361542917E0,-5.372456312E-1,4.929972887E-1,1.669400930E-1
3.364045833E0,-5.393761992E-1,4.887362421E-1,1.573527455E-1
3.366548854E0,-5.510941148E-1,4.844751954E-1,1.381779909E-1
3.369051823E0,-5.713340640E-1,4.748878181E-1,1.147421971E-1
3.371554792E0,-5.969004035E-1,4.642351568E-1,8.598008752E-2
3.374057760E0,-6.150098443E-1,4.493214786E-1,6.467480958E-2
3.376560781E0,-6.288583279E-1,4.141677916E-1,4.336954281E-2
3.379063750E0,-6.437720060E-1,3.683614433E-1,1.673795283E-2
3.381566771E0,-6.490982771E-1,3.140330017E-1,-7.763107773E-3
3.384069740E0,-6.618815064E-1,2.479866743E-1,-4.078627378E-2
3.386553073E0,-6.842520237E-1,1.862014085E-1,-7.913576066E-2
3.389056042E0,-7.034267187E-1,1.350687444E-1,-1.132241935E-1
3.391559063E0,-7.140793800E-1,1.031108499E-1,-1.441168487E-1
3.394061979E0,-7.183403969E-1,8.606663346E-2,-1.739442050E-1
3.396565000E0,-7.279278040E-1,8.180557936E-2,-1.888578832E-1
3.399068021E0,-7.396457195E-1,9.778453410E-2,-1.920537055E-1
3.401570990E0,-7.375151515E-1,1.371992826E-1,-1.803357899E-1
3.404073906E0,-7.396457195E-1,1.862014085E-1,-1.707484424E-1
3.406576979E0,-7.502983809E-1,2.437256277E-1,-1.632915735E-1
3.409079896E0,-7.460373044E-1,3.012498319E-1,-1.409210265E-1
3.411582917E0,-7.204709649E-1,3.545130193E-1,-1.110936701E-1
3.414085885E0,-7.023614645E-1,3.917972445E-1,-8.659260720E-2
3.416619948E0,-6.853172779E-1,4.131025076E-1,-5.463469774E-2
3.419122865E0,-6.586856842E-1,4.280161858E-1,-2.374206111E-2
3.421625938E0,-6.416414380E-1,4.269509614E-1,-6.697844248E-3
3.424128906E0,-6.267278194E-1,4.237551391E-1,8.215845563E-3
3.426631875E0,-6.054224968E-1,4.280161858E-1,2.845585160E-2
3.429134844E0,-5.894435644E-1,4.173635840E-1,4.123901576E-2
3.431637865E0,-5.819867253E-1,4.045804143E-1,4.443480447E-2
3.434140781E0,-5.766603947E-1,3.854056597E-1,5.615270883E-2
3.436643802E0,-5.830519795E-1,3.577088118E-1,5.508743972E-2
3.439146771E0,-5.894435644E-1,3.321424723E-1,5.934849381E-2
3.441649792E0,-6.022267342E-1,3.044456542E-1,6.360954791E-2
3.444152760E0,-6.277930737E-1,2.863361537E-1,6.680534035E-2
3.446676302E0,-6.522940993E-1,2.778140604E-1,8.384955674E-2
3.449179271E0,-6.831867099E-1,2.767487764E-1,1.019590348E-1
3.451682292E0,-7.130141258E-1,2.884666920E-1,1.190032437E-1
3.454185208E0,-7.460373044E-1,3.108372092E-1,1.360474825E-1
3.456688229E0,-7.747994065E-1,3.353382945E-1,1.584179997E-1
3.459191198E0,-7.971699238E-1,3.513172269E-1,1.818538010E-1
3.461694219E0,-8.216710091E-1,3.641003966E-1,2.052896023E-1
3.464197135E0,-8.344541788E-1,3.736877739E-1,2.297906578E-1
3.466700156E0,-8.440415263E-1,3.736877739E-1,2.500306666E-1
3.469203125E0,-8.504331112E-1,3.715572357E-1,2.724012136E-1
3.471706146E0,-8.525636196E-1,3.768835664E-1,2.937064767E-1
3.474209115E0,-8.557594419E-1,3.907319903E-1,3.128812015E-1
3.476715365E0,-8.472373486E-1,4.226898849E-1,3.341864944E-1
3.479218333E0,-8.397805095E-1,4.674309492E-1,3.576222658E-1
3.481721354E0,-8.344541788E-1,5.164331198E-1,3.874496520E-1
3.484224271E0,-8.291278481E-1,5.654351711E-1,4.140812457E-1
3.486727292E0,-8.269973397E-1,6.048499942E-1,4.471044242E-1
3.489230260E0,-8.216710091E-1,6.378731132E-1,4.822581112E-1
3.491733229E0,-8.163446784E-1,6.836794615E-1,5.269991755E-1
3.494236198E0,-8.195405006E-1,7.390731573E-1,5.760012865E-1
3.496739219E0,-8.259320259E-1,8.157721758E-1,6.356559992E-1
3.499242188E0,-8.344541788E-1,8.977974057E-1,7.017023563E-1
3.501745208E0,-8.440415263E-1,9.872795343E-1,7.741402984E-1
3.504248177E0,-8.536289334E-1,1.070370078E0,8.519045115E-1
3.506751615E0,-8.728036880E-1,1.133220673E0,9.349950552E-1
3.509254531E0,-8.930436969E-1,1.172635436E0,1.025542498E0
3.511757604E0,-9.132836461E-1,1.196071267E0,1.116089821E0
3.514260573E0,-9.281973839E-1,1.202462912E0,1.195984602E0
3.516763542E0,-9.484373331E-1,1.193940759E0,1.272683620E0
3.519266510E0,-9.729384184E-1,1.185418606E0,1.341925621E0
3.521769479E0,-9.931784272E-1,1.188614368E0,1.405841589E0
3.524272448E0,-1.020875335E0,1.204593420E0,1.469757318E0
3.526775469E0,-1.050702691E0,1.236551285E0,1.540064692E0
3.529278438E0,-1.077334285E0,1.278096557E0,1.623155236E0
3.531781406E0,-1.105031252E0,1.328163981E0,1.712637424E0
3.534284427E0,-1.129532337E0,1.383557558E0,1.820229053E0
3.536776979E0,-1.155098557E0,1.436820745E0,1.941669106E0
3.539280000E0,-1.170012355E0,1.476235628E0,2.067370176E0
3.541783021E0,-1.182795525E0,1.503932357E0,2.190940857E0
3.544285938E0,-1.201970220E0,1.529498816E0,2.299597502E0
3.546788958E0,-1.223275423E0,1.556130409E0,2.390144825E0
3.549291927E0,-1.242450118E0,1.589153409E0,2.457256794E0
3.551794896E0,-1.266951203E0,1.621111393E0,2.496671200E0
3.554297865E0,-1.291452408E0,1.642416596E0,2.523302794E0
3.556800885E0,-1.310626984E0,1.650938749E0,2.517976761E0
3.559303854E0,-1.320214391E0,1.622176647E0,2.497736692E0
3.561806875E0,-1.325540781E0,1.551869273E0,2.488149405E0
3.564309844E0,-1.330867052E0,1.461321950E0,2.490279675E0
3.566777292E0,-1.334062815E0,1.363317609E0,2.488149405E0
3.569280313E0,-1.334062815E0,1.268509150E0,2.481757641E0
3.571783281E0,-1.329801798E0,1.205658674E0,2.483888388E0
3.574286198E0,-1.329801798E0,1.179027081E0,2.465778589E0
3.576789219E0,-1.328736544E0,1.197136521E0,2.446604013E0
3.579292240E0,-1.324475527E0,1.251464963E0,2.444473505E0
3.581795156E0,-1.302104950E0,1.357991338E0,2.426363945E0
3.584298177E0,-1.255233407E0,1.526302934E0,2.402928114E0
3.586801146E0,-1.206231236E0,1.692484021E0,2.384818792E0
3.589304115E0,-1.150837541E0,1.824576735E0,2.373100758E0
3.591807135E0,-1.090117574E0,1.932168365E0,2.369904995E0
3.594310104E0,-1.024071217E0,2.019520044E0,2.378427029E0
3.596795573E0,-9.665468335E-1,2.061065197E0,2.386949301E0
3.599298594E0,-9.196752906E-1,2.052543402E0,2.390144825E0
3.601801563E0,-8.855867982E-1,2.006736994E0,2.396536589E0
3.604304583E0,-8.589552045E-1,1.951343179E0,2.393340826E0
3.606807552E0,-8.461720943E-1,1.868252516E0,2.367774487E0
3.609310521E0,-8.461720943E-1,1.777705073E0,2.354991436E0
3.611813490E0,-8.514983654E-1,1.685027242E0,2.340077639E0
3.614316458E0,-8.674772978E-1,1.595545053E0,2.318772316E0
3.616819479E0,-8.951741457E-1,1.510324001E0,2.286814451E0
3.619322448E0,-9.186100364E-1,1.417646170E0,2.250595570E0
3.621825469E0,-9.431110620E-1,1.315380692E0,2.211180925E0
3.624328438E0,-9.676120877E-1,1.190744996E0,2.169635296E0
3.626842448E0,-9.803953171E-1,1.051195383E0,2.113176346E0
3.629345469E0,-9.665468335E-1,8.701005578E-1,2.023694277E0
3.631848438E0,-9.036962986E-1,6.186983585E-1,1.859643817E0
3.634351406E0,-8.280625939E-1,3.438603878E-1,1.693462610E0
3.636854427E0,-7.950394154E-1,8.180557936E-2,1.580544829E0
3.639357448E0,-8.227363229E-1,-1.546829194E-1,1.508106828E0
3.641860417E0,-8.823910356E-1,-3.528219461E-1,1.475083590E0
3.644363385E0,-9.558941722E-1,-4.998283088E-1,1.466561556E0
3.646866354E0,-1.014483809E0,-5.957020521E-1,1.463365793E0
3.649369375E0,-1.048572183E0,-6.393778324E-1,1.460169911E0
3.651872344E0,-1.064551234E0,-6.372473240E-1,1.459104776E0
3.654375313E0,-1.061355472E0,-6.010283232E-1,1.459104776E0
3.656883750E0,-1.045376420E0,-5.488304496E-1,1.459104776E0
3.659386719E0,-1.024071217E0,-4.806535840E-1,1.466561556E0
3.661889740E0,-9.974395037E-1,-4.103461802E-1,1.485736370E0
3.664392656E0,-9.729384184E-1,-3.538872004E-1,1.507041574E0
3.666895729E0,-9.463068247E-1,-3.027545512E-1,1.527281642E0
3.669398646E0,-9.313931465E-1,-2.644050717E-1,1.546456337E0
3.671901615E0,-9.207404852E-1,-2.335124314E-1,1.567761660E0
3.674404635E0,-9.271321297E-1,-1.994239837E-1,1.580544829E0
3.676907604E0,-9.420458078E-1,-1.546829194E-1,1.583740473E0
3.679410573E0,-9.601552486E-1,-1.067460626E-1,1.578414202E0
3.681913594E0,-9.782647491E-1,-4.602604359E-2,1.563500524E0
3.684416563E0,-9.931784272E-1,1.043292321E-2,1.544325829E0
3.686915781E0,-1.005961657E0,5.943504348E-2,1.520889997E0
3.689418802E0,-1.012353301E0,9.884979576E-2,1.501715183E0
3.691921771E0,-1.018744946E0,1.212203354E-1,1.480410099E0
3.694424792E0,-1.027266979E0,1.222855896E-1,1.466561556E0
3.696927760E0,-1.031527996E0,1.137634814E-1,1.454843640E0
3.699430729E0,-1.041115403E0,9.139295667E-2,1.437799454E0
3.701933698E0,-1.052833319E0,6.156557426E-2,1.422885776E0
3.704436667E0,-1.065616369E0,2.960766666E-2,1.410102606E0
3.706939688E0,-1.076269150E0,-2.152498066E-2,1.403711081E0
3.709442656E0,-1.090117574E0,-6.946183741E-2,1.382405758E0
3.711945677E0,-1.109292269E0,-9.928921610E-2,1.355774164E0
3.714448646E0,-1.139119625E0,-1.195292249E-1,1.333403587E0
3.716957292E0,-1.164685965E0,-1.418997496E-1,1.308902621E0
3.719460313E0,-1.191317558E0,-1.738576591E-1,1.282271028E0
3.721963333E0,-1.215818524E0,-2.079460919E-1,1.254574060E0
3.724466250E0,-1.242450118E0,-2.356429547E-1,1.221550941E0
3.726969271E0,-1.263755441E0,-2.548176944E-1,1.197049975E0
3.729472292E0,-1.278669119E0,-2.697314024E-1,1.172548890E0
3.731975208E0,-1.286126018E0,-2.857103348E-1,1.155504704E0
3.734478229E0,-1.286126018E0,-3.016892970E-1,1.138460398E0
3.736981250E0,-1.280799627E0,-3.123419285E-1,1.124611974E0
3.739484167E0,-1.287191272E0,-3.166030049E-1,1.104372025E0
3.741987135E0,-1.294648170E0,-3.070156276E-1,1.087327838E0
3.744490156E0,-1.303170204E0,-2.942324579E-1,1.068153024E0
3.747005729E0,-1.313822865E0,-2.782535255E-1,1.040456176E0
3.749508750E0,-1.318084002E0,-2.697314024E-1,1.021281362E0
3.752011667E0,-1.317018628E0,-2.665355802E-1,1.007433057E0
3.754514688E0,-1.311692357E0,-2.750577033E-1,9.978456497E-1
3.757017656E0,-1.299974442E0,-2.963629961E-1,9.925192595E-1
3.759520677E0,-1.281865001E0,-3.336471915E-1,9.839972258E-1
3.762023646E0,-1.268016577E0,-3.773230016E-1,9.744098186E-1
3.764526615E0,-1.249907017E0,-4.071503878E-1,9.626919031E-1
3.767029635E0,-1.233928084E0,-4.305861890E-1,9.435171485E-1
3.769532604E0,-1.225405931E0,-4.582830369E-1,9.222119451E-1
3.772035573E0,-1.213688135E0,-4.657398760E-1,8.998413682E-1
3.774538594E0,-1.198774338E0,-4.529567361E-1,8.785361052E-1
3.777010833E0,-1.189186931E0,-4.316514432E-1,8.668181896E-1
3.779513854E0,-1.192382812E0,-3.933019340E-1,8.561655283E-1
3.782016823E0,-1.210492253E0,-3.411040306E-1,8.593613505E-1
3.784519844E0,-1.229667068E0,-2.729271948E-1,8.817318678E-1
3.787022813E0,-1.244580746E0,-1.972934604E-1,9.328645468E-1
3.789525833E0,-1.259494424E0,-1.195292249E-1,1.017020464E0
3.792028750E0,-1.282930255E0,-2.472077124E-2,1.124611974E0
3.794531771E0,-1.302104950E0,9.884979576E-2,1.241790891E0
3.797034740E0,-1.308496594E0,2.522477508E-1,1.381340504E0
3.799537760E0,-1.306366086E0,4.184288383E-1,1.535803676E0
3.802040677E0,-1.282930255E0,5.952625871E-1,1.699854255E0
3.804543750E0,-1.249907017E0,7.763573527E-1,1.872426987E0
3.807045260E0,-1.195578575E0,9.499952793E-1,2.051391363E0
3.809548281E0,-1.119944930E0,1.097001672E0,2.220768213E0
3.812051250E0,-1.025136471E0,1.231225014E0,2.388014555E0
3.814554219E0,-9.164794683E-1,1.353730202E0,2.550999880E0
3.817057188E0,-8.152794242E-1,1.452799797E0,2.711854696E0
3.819560208E0,-7.140793800E-1,1.535890341E0,2.856730461E0
3.822063125E0,-6.032919884E-1,1.623241901E0,2.994149446E0
3.824566146E0,-5.052877665E-1,1.704201937E0,3.104936838E0
3.827069115E0,-4.083487988E-1,1.795814514E0,3.155004263E0
3.829572135E0,-3.039529622E-1,1.873578906E0,3.145416975E0
3.832075052E0,-2.016876638E-1,1.911928296E0,3.096414804E0
3.834578073E0,-1.079444811E-1,1.904471397E0,3.012259007E0
3.837128333E0,-2.911498398E-2,1.840555668E0,2.895080090E0
3.839631354E0,3.160503879E-2,1.730833530E0,2.761922121E0
3.842134271E0,7.954189926E-2,1.592349291E0,2.617046118E0
3.844637240E0,1.168261170E-1,1.444277644E0,2.462582827E0
3.847140260E0,1.445229650E-1,1.308989167E0,2.291075468E0
3.849643229E0,1.658282280E-1,1.187549233E0,2.101458549E0
3.852146198E0,1.732850820E-1,1.082087994E0,1.897993326E0
3.854649219E0,1.775461286E-1,1.002193332E0,1.700919628E0
3.857152188E0,1.828724593E-1,9.393426776E-1,1.502780557E0
3.859655208E0,1.850029826E-1,8.701005578E-1,1.306771994E0
3.862158125E0,1.892640442E-1,7.880752683E-1,1.115024567E0
3.864661198E0,1.977861524E-1,6.932668686E-1,9.317992926E-1
3.867120781E0,2.169608921E-1,5.941973329E-1,7.645529509E-1
3.869623802E0,2.350703627E-1,4.876709580E-1,6.132854819E-1
3.872126771E0,2.553103566E-1,3.619698882E-1,4.801275730E-1
3.874629792E0,2.830072343E-1,2.383993119E-1,3.565570414E-1
3.877132708E0,3.064430356E-1,1.169592738E-1,2.425738275E-1
3.879635781E0,3.384009302E-1,9.367661551E-3,1.467001140E-1
3.882138698E0,3.735546172E-1,-1.078113243E-1,5.934849381E-2
3.884641719E0,4.076430798E-1,-2.281861007E-1,-2.161153406E-2
3.887144688E0,4.449272752E-1,-3.464303613E-1,-8.339681476E-2
3.889647708E0,4.736894071E-1,-4.540219903E-1,-1.430515647E-1
3.892150625E0,4.960599244E-1,-5.403083563E-1,-1.782052517E-1
3.894653646E0,5.088431239E-1,-6.063546538E-1,-1.931189597E-1
3.897198542E0,5.141694546E-1,-6.681399345E-1,-2.059021294E-1
3.899701563E0,5.035167933E-1,-7.416431308E-1,-2.208158076E-1
3.902204583E0,4.779504538E-1,-8.215379119E-1,-2.335989773E-1
3.904707552E0,4.513188601E-1,-8.790621161E-1,-2.453168631E-1
3.907210469E0,4.236220121E-1,-8.939758539E-1,-2.272073925E-1
3.909713542E0,3.852725327E-1,-8.929105401E-1,-1.814010739E-1
3.912216458E0,3.607714474E-1,-8.577568531E-1,-1.398557723E-1
3.914719479E0,3.384009302E-1,-7.831884027E-1,-8.659260720E-2
3.917222448E0,3.011167049E-1,-7.043588758E-1,-3.545995802E-2
3.919725469E0,2.563756406E-1,-6.212683916E-1,7.150581572E-3
3.922228385E0,2.190914154E-1,-5.211336017E-1,5.615270883E-2
3.924731406E0,1.775461286E-1,-4.124766886E-1,1.104811430E-1
3.927227292E0,1.370661110E-1,-2.878408730E-1,1.743969619E-1
3.929730260E0,1.083040163E-1,-1.461608112E-1,2.479001284E-1
3.932233229E0,7.847663760E-2,5.106606986E-3,3.309907019E-1
3.934736198E0,6.249767914E-2,1.670266688E-1,4.076896608E-1
3.937239167E0,3.906188160E-2,3.353382945E-1,4.907802045E-1
3.939742240E0,1.669134758E-2,4.972583055E-1,5.621528625E-1
3.942245156E0,-1.633182168E-2,6.282857656E-1,6.218075752E-1
3.944748125E0,-5.255078152E-2,7.337468266E-1,6.729402542E-1
3.947251146E0,-8.131288737E-2,7.987279296E-1,7.070286870E-1
3.949754167E0,-1.100750044E-1,8.658395410E-1,7.475087047E-1
3.952257083E0,-1.367066056E-1,9.329510927E-1,7.922497988E-1
3.954760156E0,-1.580118686E-1,9.862142801E-1,8.380560875E-1
3.957260729E0,-1.771866083E-1,1.028824925E0,8.859929442E-1
3.959763750E0,-2.016876638E-1,1.054391265E0,9.307340384E-1
3.962266719E0,-2.197971493E-1,1.078892350E0,9.701487422E-1
3.964769688E0,-2.347108424E-1,1.106589079E0,1.006367803E0
3.967272708E0,-2.464287430E-1,1.143873334E0,1.039390922E0
3.969775677E0,-2.624076903E-1,1.175831318E0,1.068153024E0
3.972278646E0,-2.719950676E-1,1.207789183E0,1.090523601E0
3.974781615E0,-2.933003306E-1,1.256791234E0,1.107567787E0
3.977284635E0,-3.156708777E-1,1.290879726E0,1.127807736E0
3.979787656E0,-3.305845559E-1,1.284488201E0,1.145917296E0
3.982290573E0,-3.561508656E-1,1.281292319E0,1.162961483E0
3.984793594E0,-3.699992895E-1,1.267444015E0,1.172548890E0
3.987298281E0,-3.699992895E-1,1.258921742E0,1.187462568E0
3.989801302E0,-3.678687811E-1,1.241877556E0,1.201310992E0
3.992304271E0,-3.657382429E-1,1.215245962E0,1.219420433E0
3.994807240E0,-3.710645735E-1,1.191810131E0,1.246052027E0
3.997310208E0,-3.742603660E-1,1.180092335E0,1.268422484E0
3.999813229E0,-3.806519508E-1,1.176896453E0,1.287597299E0
4.002316198E0,-3.923698366E-1,1.160917640E0,1.301445723E0
4.004819219E0,-3.966308832E-1,1.150264859E0,1.311033130E0
4.007322188E0,-4.062182605E-1,1.137481809E0,1.313163638E0
4.009825156E0,-4.158056378E-1,1.116176486E0,1.311033130E0
4.012328125E0,-4.275235236E-1,1.083153367E0,1.304641485E0
4.014831146E0,-4.403066933E-1,1.035216451E0,1.287597299E0
4.017331979E0,-4.626772404E-1,9.649090171E-1,1.249247789E0
4.019834948E0,-4.893088043E-1,8.850142956E-1,1.198115110E0
4.022337969E0,-5.138098598E-1,8.029889464E-1,1.142721415E0
4.024840938E0,-5.404414535E-1,7.177678943E-1,1.087327838E0
4.027343906E0,-5.606814027E-1,6.176331043E-1,1.037260413E0
4.029846927E0,-5.819867253E-1,4.961930513E-1,9.754751325E-1
4.032349948E0,-5.947698951E-1,3.779488206E-1,9.158203602E-1
4.034852865E0,-6.011614799E-1,2.788793147E-1,8.657529354E-1
4.037355885E0,-6.054224968E-1,1.989845634E-1,8.284686804E-1
4.039858906E0,-6.032919884E-1,1.446561217E-1,8.082287312E-1
4.042361823E0,-5.958350897E-1,9.458874166E-2,7.997066379E-1
4.044864844E0,-5.862478018E-1,3.386871889E-2,7.869234085E-1
4.047368958E0,-5.787909031E-1,-2.791656181E-2,7.773360610E-1
4.049871927E0,-5.755951405E-1,-1.205944866E-1,7.645529509E-1
4.052374948E0,-5.745298862E-1,-2.185987234E-1,7.400518656E-1
4.054877969E0,-5.734646320E-1,-3.006240427E-1,7.017023563E-1
4.057380938E0,-5.830519795E-1,-3.634745777E-1,6.580265760E-1
4.059883906E0,-5.969004035E-1,-3.911714256E-1,6.143507957E-1
4.062386875E0,-6.107488275E-1,-3.751924932E-1,5.791970491E-1
4.064889844E0,-6.288583279E-1,-3.474956453E-1,5.515002012E-1
4.067392865E0,-6.427067518E-1,-3.411040306E-1,5.280644298E-1
4.069895885E0,-6.480330229E-1,-3.560177386E-1,5.003675818E-1
4.072398802E0,-6.490982771E-1,-3.773230016E-1,4.801275730E-1
4.074901823E0,-6.427067518E-1,-4.103461802E-1,4.652138948E-1
4.077403646E0,-6.245972514E-1,-4.508261681E-1,4.577570558E-1
4.079906667E0,-6.011614799E-1,-5.062198639E-1,4.492349327E-1
4.082409688E0,-5.755951405E-1,-5.584177971E-1,4.375170469E-1
4.084912656E0,-5.585509539E-1,-5.914409757E-1,4.311254919E-1
4.087415677E0,-5.542898774E-1,-6.031588912E-1,4.226033390E-1
4.089918698E0,-5.500288606E-1,-5.946367979E-1,4.204728305E-1
4.092421719E0,-5.383109450E-1,-5.765272975E-1,4.119507372E-1
4.094924688E0,-5.233972669E-1,-5.466998816E-1,3.959717751E-1
4.097427708E0,-4.999614656E-1,-5.083504319E-1,3.757317662E-1
4.099930729E0,-4.711993337E-1,-4.700009227E-1,3.597528040E-1
4.102433750E0,-4.509593546E-1,-4.305861890E-1,3.491001725E-1
4.104936771E0,-4.392414093E-1,-3.933019340E-1,3.480348885E-1
4.107442656E0,-4.658730030E-1,-3.485608995E-1,3.821233511E-1
4.109945729E0,-5.372456312E-1,-2.782535255E-1,4.652138948E-1
4.112448698E0,-6.629467607E-1,-1.653355658E-1,5.451086164E-1
4.114951719E0,-7.652120590E-1,-3.963446245E-2,5.504349470E-1
4.117454688E0,-7.726688981E-1,1.149818860E-2,4.833233953E-1
4.119957708E0,-7.055572867E-1,-1.832919009E-2,3.874496520E-1
4.122460781E0,-6.214014292E-1,-7.265762985E-2,3.043591082E-1
4.124963698E0,-5.638772249E-1,-1.056808010E-1,2.638791203E-1
4.127466719E0,-5.351151228E-1,-1.056808010E-1,2.670748830E-1
4.129969740E0,-5.372456312E-1,-8.544079214E-2,2.937064767E-1
4.132472760E0,-5.585509539E-1,-4.815657064E-2,3.107506931E-1
4.134975781E0,-5.766603947E-1,7.237134036E-3,3.160770237E-1
4.137477031E0,-5.883783102E-1,6.582662463E-2,3.011633158E-1
4.139980052E0,-5.990309119E-1,9.884979576E-2,2.649443448E-1
4.142483073E0,-6.011614799E-1,1.020455882E-1,2.255296111E-1
4.144986094E0,-5.979656577E-1,8.926242590E-2,1.882453859E-1
4.147489115E0,-5.894435644E-1,7.115294784E-2,1.509611607E-1
4.149992083E0,-5.787909031E-1,5.197819695E-2,1.200685129E-1
4.152495104E0,-5.681383014E-1,2.976079006E-3,9.024114162E-2
4.154998125E0,-5.500288606E-1,-6.839657575E-2,7.000112534E-2
4.157501094E0,-5.095487833E-1,-1.067460626E-1,7.958849519E-2
4.160004167E0,-4.477635622E-1,-1.110071167E-1,9.769798070E-2
4.162507188E0,-3.806519508E-1,-1.216597483E-1,1.030242965E-1
4.165010156E0,-3.092792928E-1,-1.472260803E-1,9.876324236E-2
4.167513854E0,-2.453634739E-1,-1.727923900E-1,8.491481841E-2
4.170016875E0,-1.899697781E-1,-1.578787118E-1,6.787060201E-2
4.172519948E0,-1.505550295E-1,-1.142029092E-1,5.189164728E-2
4.175022917E0,-1.164665818E-1,-6.946183741E-2,4.017375410E-2
4.177525885E0,-1.058139503E-1,-8.331026137E-2,4.230427742E-2
4.180028906E0,-1.122055352E-1,-1.546829194E-1,5.295691639E-2
4.182531927E0,-1.185971126E-1,-2.132724077E-1,5.615270883E-2
4.185034948E0,-1.260539591E-1,-2.441650629E-1,5.721797049E-2
4.187537917E0,-1.441634446E-1,-2.494913638E-1,5.508743972E-2
4.190040938E0,-1.707950234E-1,-2.367082089E-1,5.508743972E-2
4.192543958E0,-1.942308396E-1,-2.164682001E-1,5.508743972E-2
4.195046979E0,-2.176666260E-1,-1.962282062E-1,6.041375548E-2
4.197549531E0,-2.347108424E-1,-1.823797673E-1,6.574007869E-2
4.200052604E0,-2.506898046E-1,-1.759881973E-1,7.000112534E-2
4.202555573E0,-2.634729743E-1,-1.695966125E-1,7.213165611E-2
4.205058542E0,-2.645381987E-1,-1.642702818E-1,7.000112534E-2
4.207561563E0,-2.645381987E-1,-1.546829194E-1,7.000112534E-2
4.210064583E0,-2.645381987E-1,-1.323123872E-1,7.106639445E-2
4.212567656E0,-2.602771521E-1,-1.046155393E-1,7.319691777E-2
4.215070625E0,-2.474939972E-1,-8.437552303E-2,7.426217943E-2
4.217573594E0,-2.336455882E-1,-7.478815317E-2,8.065376431E-2
4.220076615E0,-2.134055793E-1,-7.052710652E-2,8.704534918E-2
4.222579635E0,-1.931655705E-1,-7.052710652E-2,9.130640328E-2
4.225082656E0,-1.697297692E-1,-5.987447128E-2,9.024114162E-2
4.227586354E0,-1.409676522E-1,-4.815657064E-2,8.598008752E-2
4.230089375E0,-1.132707968E-1,-4.283025488E-2,8.384955674E-2
4.232592396E0,-9.303078800E-2,-4.496078193E-2,8.491481841E-2
4.235095417E0,-6.746446341E-2,-5.028710142E-2,8.384955674E-2
4.237598438E0,-4.509393498E-2,-5.774394423E-2,8.278429508E-2
4.240101406E0,-2.485392801E-2,-6.093973294E-2,7.639271021E-2
4.242604427E0,-1.313603111E-2,-6.307025999E-2,7.106639445E-2
4.245107448E0,-2.483395394E-3,-6.733131409E-2,6.680534035E-2
4.247610417E0,3.908185288E-3,-7.052710652E-2,6.680534035E-2
4.250113438E0,6.038712338E-3,-6.946183741E-2,6.787060201E-2
4.252616458E0,7.123951800E-4,-6.733131409E-2,6.574007869E-2
4.255119479E0,-8.874977008E-3,-7.052710652E-2,7.213165611E-2
4.257635677E0,-1.952761225E-2,-7.904920727E-2,7.958849519E-2
4.260138698E0,-2.698445693E-2,-7.691868395E-2,7.958849519E-2
4.262641719E0,-3.337603435E-2,-7.052710652E-2,7.319691777E-2
4.265144740E0,-4.083288088E-2,-6.733131409E-2,6.893586367E-2
4.267647708E0,-4.828972742E-2,-7.478815317E-2,7.106639445E-2
4.270150729E0,-4.828972742E-2,-7.372289151E-2,6.787060201E-2
4.272653750E0,-4.189814255E-2,-6.520078331E-2,6.360954791E-2
4.275156771E0,-3.124551103E-2,-5.880920589E-2,6.041375548E-2
4.277659740E0,-1.633182168E-2,-5.987447128E-2,6.574007869E-2
4.280162760E0,8.169239387E-3,-6.200499833E-2,6.893586367E-2
4.282665781E0,3.480082750E-2,-6.200499833E-2,6.787060201E-2
4.285168802E0,5.397557095E-2,-6.093973294E-2,6.787060201E-2
4.287688958E0,7.741136849E-2,-5.348289013E-2,7.000112534E-2
4.290192031E0,9.552085400E-2,-4.496078193E-2,7.106639445E-2
4.292695000E0,1.093692780E-1,-3.856920078E-2,6.574007869E-2
4.295198021E0,1.189566478E-1,-3.111235239E-2,5.189164728E-2
4.297700990E0,1.242829561E-1,-2.578603476E-2,3.484743088E-2
4.300204010E0,1.285440028E-1,-2.578603476E-2,1.993374154E-2
4.302707031E0,1.338703334E-1,-1.939445361E-2,-3.062629839E-4
4.305210000E0,1.360008568E-1,-2.350237919E-3,-2.267679758E-2
4.307713021E0,1.423924416E-1,9.367661551E-3,-3.439469635E-2
4.310216042E0,1.402619183E-1,4.041343462E-3,-2.374206111E-2
4.312719063E0,1.285440028E-1,-5.546028726E-3,-5.632580724E-3
4.315222083E0,1.093692780E-1,-5.546028726E-3,1.673795283E-2
4.317698542E0,8.167242259E-2,5.106606986E-3,3.804322705E-2
4.320201563E0,5.291030928E-2,9.367661551E-3,4.976112023E-2
4.322704583E0,2.947450988E-2,-1.726392657E-2,5.295691639E-2
4.325207604E0,1.349555701E-2,-5.667867884E-2,6.680534035E-2
4.327710573E0,-1.420129463E-2,-7.372289151E-2,8.384955674E-2
4.330213594E0,-6.213814765E-2,-7.691868395E-2,1.019590348E-1
4.332716615E0,-1.217928976E-1,-7.904920727E-2,1.275253594E-1
4.335219635E0,-1.974266171E-1,-1.142029092E-1,1.861148477E-1
4.337722604E0,-2.869087458E-1,-1.919671446E-1,2.819885910E-1
4.340225625E0,-3.657382429E-1,-2.622745335E-1,3.725359738E-1
4.342728646E0,-4.435025156E-1,-3.283208907E-1,4.801275730E-1
4.345231667E0,-5.020919442E-1,-3.879756629E-1,5.994371176E-1
4.347756927E0,-5.532245636E-1,-4.039545953E-1,7.080939412E-1
4.350259948E0,-5.915740728E-1,-3.698661625E-1,8.007718921E-1
4.352762969E0,-6.150098443E-1,-3.080808818E-1,8.881235123E-1
4.355265938E0,-6.277930737E-1,-2.303166240E-1,9.701487422E-1
4.357768958E0,-6.245972514E-1,-1.632050276E-1,1.038325548E0
4.360271979E0,-6.118141413E-1,-8.970184624E-2,1.096915126E0
4.362775000E0,-5.905088186E-1,-1.939445361E-2,1.144851923E0
4.365278021E0,-5.574856400E-1,5.730451271E-2,1.187462568E0
4.367781042E0,-5.233972669E-1,1.371992826E-1,1.221550941E0
4.370284010E0,-4.893088043E-1,2.117677182E-1,1.253508806E0
4.372787031E0,-4.541551173E-1,2.703571916E-1,1.290793061E0
4.375290052E0,-4.126098752E-1,3.193593323E-1,1.341925621E0
4.377783385E0,-3.614771962E-1,3.704919815E-1,1.412233233E0
4.380286406E0,-3.178013861E-1,4.290814698E-1,1.448451996E0
4.382789427E0,-2.677340209E-1,4.770183265E-1,1.458039403E0
4.385292448E0,-2.144708335E-1,4.759530723E-1,1.451647878E0
4.387795417E0,-1.622729152E-1,4.322772324E-1,1.426081538E0
4.390298438E0,-1.111402661E-1,3.449256420E-1,1.403711081E0
4.392801510E0,-8.450867981E-2,2.607698441E-1,1.406906724E0
4.395304479E0,-6.639920175E-2,1.915277243E-1,1.431407809E0
4.397807448E0,-4.296340793E-2,1.286771744E-1,1.461235285E0
4.400310469E0,-1.313603111E-2,5.517398566E-2,1.487866879E0
4.402813490E0,3.480082750E-2,-2.898182534E-2,1.505976319E0
4.405316510E0,8.699873835E-2,-1.291165948E-1,1.509172082E0
4.407822760E0,1.530450732E-1,-2.303166240E-1,1.505976319E0
4.410325781E0,2.244177312E-1,-3.283208907E-1,1.491062641E0
4.412828802E0,2.936598659E-1,-4.135419726E-1,1.466561556E0
4.415331823E0,3.618367314E-1,-4.742619991E-1,1.434603691E0
4.417834792E0,4.161651731E-1,-4.945019782E-1,1.403711081E0
4.420337813E0,4.545146525E-1,-4.742619991E-1,1.371753097E0
4.422840833E0,4.502536058E-1,-3.869103789E-1,1.350447893E0
4.425343854E0,4.193609655E-1,-2.995587885E-1,1.364296317E0
4.427846823E0,4.065777957E-1,-3.261903822E-1,1.381340504E0
4.430349844E0,4.087083042E-1,-4.082156420E-1,1.384536266E0
4.432852865E0,4.087083042E-1,-4.689356685E-1,1.387732029E0
4.435355885E0,4.172304273E-1,-5.243293643E-1,1.393058419E0
4.437825313E0,4.364051819E-1,-5.893104076E-1,1.389862537E0
4.440328333E0,4.566451609E-1,-6.287252307E-1,1.387732029E0
4.442831354E0,4.736894071E-1,-6.425735950E-1,1.389862537E0
4.445334375E0,4.768851995E-1,-6.447041631E-1,1.398384690E0
4.447837344E0,4.768851995E-1,-6.553567648E-1,1.402645826E0
4.450340365E0,4.800809622E-1,-6.787925959E-1,1.395188808E0
4.452843385E0,4.832767546E-1,-6.851841211E-1,1.374948859E0
4.455346406E0,4.896683395E-1,-6.606830955E-1,1.349382639E0
4.457849427E0,4.907336235E-1,-6.478999853E-1,1.314228892E0
4.460352396E0,4.928641319E-1,-6.542915106E-1,1.256704569E0
4.462855417E0,4.928641319E-1,-6.734662652E-1,1.186397195E0
4.465358438E0,4.949946702E-1,-6.947715282E-1,1.133134007E0
4.467862083E0,4.949946702E-1,-7.096852660E-1,1.089458227E0
4.470365156E0,4.907336235E-1,-7.128809690E-1,1.043652058E0
4.472868125E0,4.864725769E-1,-6.894451976E-1,9.989108443E-1
4.475371146E0,4.768851995E-1,-6.606830955E-1,9.584308863E-1
4.477874115E0,4.715588689E-1,-6.383125782E-1,9.254077077E-1
4.480377135E0,4.694283307E-1,-6.191378236E-1,8.881235123E-1
4.482880156E0,4.619714916E-1,-5.988978148E-1,8.519045115E-1
4.485383177E0,4.641020298E-1,-5.903757215E-1,8.092939854E-1
4.487886146E0,4.630367458E-1,-5.743967295E-1,7.581613660E-1
4.490389167E0,4.598409832E-1,-5.296556950E-1,7.187466025E-1
4.492892188E0,4.630367458E-1,-4.721314609E-1,6.857234240E-1
4.495395208E0,4.694283307E-1,-4.178030193E-1,6.644181609E-1
4.497920208E0,4.854072928E-1,-3.698661625E-1,6.548307538E-1
4.500423177E0,5.109736919E-1,-3.336471915E-1,6.345908046E-1
4.502926198E0,5.397357345E-1,-2.995587885E-1,6.068939567E-1
4.505429219E0,5.599757433E-1,-2.622745335E-1,5.802623630E-1
4.507932188E0,5.695631504E-1,-2.367082089E-1,5.515002012E-1
4.510435260E0,5.791504979E-1,-2.122071385E-1,5.174117684E-1
4.512938229E0,5.802158117E-1,-2.004892528E-1,4.918454587E-1
4.515441250E0,5.716936588E-1,-2.090113610E-1,4.566918015E-1
4.517944219E0,5.621063113E-1,-2.047503144E-1,4.194075763E-1
4.520447240E0,5.386704803E-1,-1.940976679E-1,3.810580969E-1
4.522950313E0,5.088431239E-1,-1.909018755E-1,3.395127952E-1
4.525453281E0,4.736894071E-1,-2.068808377E-1,3.075549006E-1
4.527948229E0,4.332093894E-1,-2.239250541E-1,2.755970061E-1
4.530451250E0,3.895335793E-1,-2.271208465E-1,2.340517044E-1
4.532954271E0,3.490535617E-1,-2.345776856E-1,1.988980174E-1
4.535457292E0,3.107040823E-1,-2.430997789E-1,1.690706313E-1
4.537960313E0,2.776809037E-1,-2.367082089E-1,1.360474825E-1
4.540463281E0,2.329398394E-1,-2.079460919E-1,9.663271904E-2
4.542966302E0,1.658282280E-1,-1.578787118E-1,5.615270883E-2
4.545469323E0,9.445559233E-2,-9.289763123E-2,2.312953584E-2
4.547972344E0,2.095240168E-2,-2.898182534E-2,-1.371526509E-3
4.550475365E0,-4.615919665E-2,1.682450622E-2,-8.828370832E-3
4.552978333E0,-1.026181653E-1,5.836978182E-2,-9.893634357E-3
4.555481354E0,-1.494897604E-1,1.116329581E-1,-1.308942493E-2
4.557977031E0,-1.867739856E-1,1.478519291E-1,-1.841574349E-2
4.560480104E0,-2.155361027E-1,1.670266688E-1,-1.308942493E-2
4.562983073E0,-2.389718890E-1,1.755487621E-1,-1.202416141E-2
4.565486094E0,-2.613424361E-1,1.744834930E-1,-1.521995198E-2
4.567989063E0,-2.879740298E-1,1.702224463E-1,-2.587258816E-2
4.570492135E0,-3.220624328E-1,1.627656072E-1,-4.291680455E-2
4.572995104E0,-3.529550731E-1,1.595698148E-1,-5.569996685E-2
4.575498125E0,-3.838477433E-1,1.499824524E-1,-6.102628261E-2
4.578001094E0,-4.019572139E-1,1.350687444E-1,-5.889575556E-2
4.580504167E0,-4.190014303E-1,1.254813820E-1,-5.889575556E-2
4.583007135E0,-4.307193160E-1,1.169592738E-1,-6.315681338E-2
4.585510208E0,-4.456330240E-1,1.201550663E-1,-5.996102095E-2
4.588013177E0,-4.626772404E-1,1.297424436E-1,-5.783049390E-2
4.590516198E0,-4.711993337E-1,1.393298060E-1,-5.037364736E-2
4.593019167E0,-4.743951261E-1,1.371992826E-1,-3.972101212E-2
4.595522240E0,-4.754603803E-1,1.286771744E-1,-3.759048507E-2
4.598025208E0,-4.765256643E-1,1.148287430E-1,-3.759048507E-2
4.600528229E0,-4.797214270E-1,9.565401077E-2,-3.652521968E-2
4.603031198E0,-4.765256643E-1,8.713190258E-2,-3.545995802E-2
4.605534271E0,-4.743951261E-1,8.926242590E-2,-4.078627378E-2
4.608037240E0,-4.733298719E-1,8.926242590E-2,-4.291680455E-2
4.610540260E0,-4.669382870E-1,8.500136435E-2,-3.972101212E-2
4.613043229E0,-4.520246089E-1,6.902241707E-2,-2.693785168E-2
4.615546302E0,-4.339151382E-1,5.410872400E-2,-1.841574349E-2
4.618023854E0,-4.062182605E-1,3.706450760E-2,-7.763107773E-3
4.620526927E0,-3.731951118E-1,1.788976789E-2,1.824264065E-3
4.623029896E0,-3.412371874E-1,-1.284974394E-3,8.215845563E-3
4.625532917E0,-3.082140088E-1,-9.807081893E-3,1.567268930E-2
4.628035885E0,-2.751908600E-1,-9.807081893E-3,1.780321635E-2
4.630538958E0,-2.432329506E-1,-6.611291785E-3,2.206427045E-2
4.633041927E0,-2.080792487E-1,-1.284974394E-3,2.632532455E-2
4.635544948E0,-1.729255617E-1,6.171870511E-3,2.739058621E-2
4.638047917E0,-1.367066056E-1,1.043292321E-2,2.312953584E-2
4.640550990E0,-1.068792120E-1,1.043292321E-2,1.780321635E-2
4.643053958E0,-8.344341815E-2,1.256345212E-2,1.886847988E-2
4.645556979E0,-5.361604318E-2,8.302398026E-3,2.206427045E-2
4.648089323E0,-2.165813930E-2,5.106606986E-3,1.567268930E-2
4.650592396E0,1.136502996E-2,1.788976789E-2,1.824264065E-3
4.653095365E0,4.864925519E-2,3.067292832E-2,-8.828370832E-3
4.655598385E0,8.380295336E-2,3.173819184E-2,-2.587258816E-2
4.658101354E0,1.210871711E-1,2.747714147E-2,-3.332943097E-2
4.660604427E0,1.530450732E-1,1.895503327E-2,-3.972101212E-2
4.663107396E0,1.775461286E-1,7.237134036E-3,-5.037364736E-2
4.665610417E0,2.052429765E-1,-1.284974394E-3,-6.209154427E-2
4.668113385E0,2.254829854E-1,-1.406813599E-2,-7.380944490E-2
4.670616458E0,2.361356169E-1,-2.898182534E-2,-8.339681476E-2
4.673119427E0,2.457229942E-1,-4.496078193E-2,-9.298418462E-2
4.675622448E0,2.521145642E-1,-6.520078331E-2,-9.937576205E-2
4.678147500E0,2.531798482E-1,-8.011447638E-2,-1.047020853E-1
4.680650521E0,2.457229942E-1,-9.609343112E-2,-1.142894551E-1
4.683153490E0,2.382661551E-1,-1.131376401E-1,-1.142894551E-1
4.685656510E0,2.286787927E-1,-1.195292249E-1,-1.121589318E-1
4.688159479E0,2.180261612E-1,-1.248555407E-1,-1.121589318E-1
4.690662552E0,2.041777223E-1,-1.248555407E-1,-1.089631394E-1
4.693165521E0,1.903292984E-1,-1.248555407E-1,-1.078978777E-1
4.695668594E0,1.754156053E-1,-1.333776414E-1,-1.078978777E-1
4.698171563E0,1.636977047E-1,-1.504218727E-1,-9.617997706E-2
4.700674583E0,1.370661110E-1,-1.802492440E-1,-7.380944490E-2
4.703177552E0,1.093692780E-1,-2.196639925E-1,-3.759048507E-2
4.705680625E0,7.954189926E-2,-2.377734780E-1,-7.763107773E-3
4.708167344E0,4.438820109E-2,-2.526871562E-1,2.206427045E-2
4.710670417E0,8.169239387E-3,-2.516218722E-1,3.910848871E-2
4.713173385E0,-1.952761225E-2,-2.484261096E-1,5.508743972E-2
4.715676406E0,-3.870235384E-2,-2.345776856E-1,4.763059691E-2
4.718179375E0,-3.870235384E-2,-2.335124314E-1,4.017375410E-2
4.720682396E0,-3.124551103E-2,-2.420345247E-1,2.952111326E-2
4.723185417E0,-2.059287578E-2,-2.484261096E-1,2.526005916E-2
4.725688438E0,-9.940239601E-3,-2.580134869E-1,2.312953584E-2
4.728191406E0,6.038712338E-3,-2.633398175E-1,1.247689780E-2
4.730694479E0,1.882187463E-2,-2.633398175E-1,7.590005407E-4
4.733197448E0,3.053977713E-2,-2.612093091E-1,-9.893634357E-3
4.735700469E0,3.906188160E-2,-2.601440251E-1,-2.480732463E-2
4.738202865E0,4.545346648E-2,-2.558829784E-1,-3.332943097E-2
4.740705938E0,5.077978224E-2,-2.462955862E-1,-4.078627378E-2
4.743208906E0,5.610609800E-2,-2.228597701E-1,-5.356943607E-2
4.745711927E0,5.930188671E-2,-2.004892528E-1,-7.061365247E-2
4.748214896E0,5.930188671E-2,-1.813144982E-1,-8.020102233E-2
4.750717917E0,5.823662505E-2,-1.685313433E-1,-8.339681476E-2
4.753220938E0,4.971451685E-2,-1.642702818E-1,-8.659260720E-2
4.755723958E0,4.012714699E-2,-1.408344954E-1,-7.274418324E-2
4.758226927E0,2.521345578E-2,-1.046155393E-1,-5.569996685E-2
4.760730000E0,1.243029255E-2,-6.520078331E-2,-3.759048507E-2
4.763232969E0,-2.483395394E-3,-2.472077124E-2,-1.521995198E-2
4.765735990E0,-1.420129463E-2,5.106606986E-3,1.824264065E-3
4.768283958E0,-2.485392801E-2,2.428135090E-2,1.141163614E-2
4.770786979E0,-3.231077269E-2,3.280345351E-2,1.247689780E-2
4.773289948E0,-3.870235384E-2,3.280345351E-2,1.141163614E-2
4.775792969E0,-4.722445831E-2,3.599924594E-2,1.354216319E-2
4.778295938E0,-5.894235894E-2,4.239082709E-2,1.993374154E-2
4.780799010E0,-7.279077917E-2,4.132556543E-2,2.206427045E-2
4.783301979E0,-8.237814903E-2,3.706450760E-2,2.419479750E-2
4.785805000E0,-9.090025723E-2,2.854240686E-2,2.632532455E-2
4.788307969E0,-9.835711122E-2,9.367661551E-3,2.952111326E-2
4.790810990E0,-1.090097427E-1,-1.284974394E-3,3.271690756E-2
4.793314010E0,-1.175318509E-1,-1.513339952E-2,3.378216922E-2
4.795817083E0,-1.260539591E-1,-3.217761591E-2,3.910848871E-2
4.798274896E0,-1.345760822E-1,-3.963446245E-2,4.123901576E-2
4.800777917E0,-1.430981755E-1,-4.815657064E-2,4.550006986E-2
4.803280938E0,-1.537508219E-1,-5.880920589E-2,5.082638562E-2
4.805783958E0,-1.644034535E-1,-6.626604497E-2,5.721797049E-2
4.808286927E0,-1.729255617E-1,-7.265762985E-2,5.934849381E-2
4.810789948E0,-1.825129241E-1,-8.544079214E-2,5.721797049E-2
4.813292969E0,-1.899697781E-1,-9.822395444E-2,5.828323215E-2
4.815795990E0,-1.931655705E-1,-1.067460626E-1,5.721797049E-2
4.818298958E0,-1.931655705E-1,-1.173986942E-1,5.402217805E-2
4.820802031E0,-1.921003014E-1,-1.227250099E-1,4.976112023E-2
4.823305000E0,-1.921003014E-1,-1.248555407E-1,4.550006986E-2
4.825808021E0,-1.899697781E-1,-1.216597483E-1,4.336954281E-2
4.828296719E0,-1.835781932E-1,-1.205944866E-1,4.230427742E-2
4.830799740E0,-1.899697781E-1,-1.248555407E-1,5.295691639E-2
4.833302813E0,-2.400371581E-1,-1.930323988E-1,1.296558678E-1
4.835805781E0,-2.986266613E-1,-2.676008642E-1,2.010285556E-1
4.838308750E0,-3.295192719E-1,-2.516218722E-1,1.712011695E-1
4.840811771E0,-3.316498101E-1,-2.068808377E-1,1.413737833E-1
4.843314792E0,-3.028877079E-1,-1.791839749E-1,1.317864060E-1
4.845817813E0,-2.560161054E-1,-1.770534515E-1,1.179379895E-1
4.848320781E0,-1.952960938E-1,-1.994239837E-1,1.030242965E-1
4.850823802E0,-1.356413364E-1,-2.026197761E-1,8.491481841E-2
4.853326823E0,-9.835711122E-2,-1.845102906E-1,6.360954791E-2
4.855829896E0,-7.066025585E-2,-1.642702818E-1,4.230427742E-2
4.858342969E0,-4.402866960E-2,-1.536176503E-1,2.739058621E-2
4.860845938E0,-2.911498398E-2,-1.504218727E-1,2.312953584E-2
4.863348958E0,-1.952761225E-2,-1.504218727E-1,2.099900506E-2
4.865851979E0,-1.420129463E-2,-1.450955421E-1,1.780321635E-2
4.868354948E0,-1.420129463E-2,-1.397692263E-1,1.247689780E-2
4.870857969E0,-1.526655816E-2,-1.355081648E-1,1.034637261E-2
4.873360990E0,-1.526655816E-2,-1.291165948E-1,1.247689780E-2
4.875864010E0,-2.272340283E-2,-1.163334325E-1,1.141163614E-2
4.878366979E0,-2.485392801E-2,-1.067460626E-1,1.354216319E-2
4.880870000E0,-3.444129974E-2,-9.609343112E-2,1.460742671E-2
4.883373021E0,-4.722445831E-2,-8.970184624E-2,1.780321635E-2
4.885876042E0,-5.894235894E-2,-1.024850085E-1,2.099900506E-2
4.888349323E0,-8.344341815E-2,-1.525523961E-1,3.165164217E-2
4.890852344E0,-1.750560850E-1,-4.146072567E-1,7.106639445E-2
4.893355365E0,-3.859782815E-1,-9.845231771E-1,1.392432451E-1
4.895858385E0,-6.395109296E-1,-9.483042359E-1,1.765274704E-1
4.898361406E0,-6.735994220E-1,-7.320557237E-1,1.882453859E-1
4.900864375E0,-5.809214711E-1,-5.349820256E-1,1.648095846E-1
4.903367396E0,-4.935698807E-1,-3.123419285E-1,1.285906136E-1
4.905870417E0,-4.264582694E-1,-1.376387030E-1,9.024114162E-2
4.908373385E0,-3.486940265E-1,-1.087234542E-2,6.147902459E-2
4.910876458E0,-2.368413657E-1,6.171870511E-3,4.230427742E-2
4.913379427E0,-1.367066056E-1,-1.939445361E-2,2.739058621E-2
4.915882448E0,-7.811710238E-2,-5.348289013E-2,2.099900506E-2
4.918383594E0,-4.935498908E-2,-5.880920589E-2,1.567268930E-2
4.920886615E0,-2.165813930E-2,-5.987447128E-2,8.215845563E-3
4.923389635E0,-3.548658919E-3,-6.733131409E-2,7.150581572E-3
4.925892656E0,-9.940239601E-3,-7.904920727E-2,8.215845563E-3
4.928395625E0,-3.231077269E-2,-7.904920727E-2,8.215845563E-3
4.930898646E0,-4.296340793E-2,-8.117973804E-2,1.034637261E-2
4.933401667E0,-4.083288088E-2,-9.076710790E-2,1.460742671E-2
4.935904688E0,-3.870235384E-2,-1.003544852E-1,1.354216319E-2
4.938407656E0,-4.296340793E-2,-1.014197469E-1,1.247689780E-2
4.940910729E0,-3.763708845E-2,-9.609343112E-2,1.034637261E-2
4.943413698E0,-3.337603435E-2,-9.822395444E-2,1.141163614E-2
4.945916771E0,-3.018024750E-2,-9.928921610E-2,1.034637261E-2
4.948421094E0,-2.485392801E-2,-9.396289289E-2,1.034637261E-2
4.950924115E0,-2.165813930E-2,-8.757131547E-2,9.281109087E-3
4.953427083E0,-1.952761225E-2,-7.691868395E-2,9.281109087E-3
4.955930104E0,-1.739708334E-2,-6.946183741E-2,9.281109087E-3
4.958433073E0,-1.739708334E-2,-5.987447128E-2,8.215845563E-3
4.960936094E0,-1.100550406E-2,-4.815657064E-2,8.215845563E-3
4.963439115E0,-8.874977008E-3,-4.176498950E-2,3.954790998E-3
4.965942135E0,-7.809713483E-3,-2.898182534E-2,5.020053592E-3
4.968445104E0,-4.613922443E-3,-2.365550771E-2,8.215845563E-3
4.970948125E0,-5.679186434E-3,-2.152498066E-2,6.085318048E-3
4.973451146E0,-6.744449958E-3,-1.832919009E-2,2.889527474E-3
4.975954167E0,-7.809713483E-3,-1.939445361E-2,5.020053592E-3
4.978457083E0,-9.940239601E-3,-2.152498066E-2,6.085318048E-3
4.980960104E0,-1.207076758E-2,-2.259024419E-2,8.215845563E-3
4.983463125E0,-1.739708334E-2,-2.152498066E-2,8.215845563E-3
4.985966146E0,-2.165813930E-2,-2.259024419E-2,3.954790998E-3
