"Time (s)","Acceleration x (m/s^2)","Acceleration y (m/s^2)","Acceleration z (m/s^2)"
0.000000000E0,-2.519316912E0,4.594194889E0,8.474368095E0
1.005255200E-2,-2.639091969E0,4.335481167E0,9.164272308E0
1.255703200E-2,-2.663047075E0,4.292362213E0,9.298419952E0
1.506145900E-2,-2.701375008E0,4.263616085E0,9.308002472E0
1.756593800E-2,-2.720539093E0,4.249242783E0,9.303211212E0
2.003994800E-2,-2.720539093E0,4.306735039E0,9.341539383E0
2.254442700E-2,-2.730120897E0,4.316317081E0,9.365493774E0
2.504890700E-2,-2.773240089E0,4.340271950E0,9.341539383E0
2.755338600E-2,-2.734911919E0,4.340271950E0,9.293628693E0
3.005786500E-2,-2.682210922E0,4.345063210E0,9.240927696E0
3.256234400E-2,-2.672629118E0,4.369018078E0,9.221763611E0
3.506682300E-2,-2.634300947E0,4.354644775E0,9.087615967E0
3.757130200E-2,-2.528898954E0,4.369018078E0,9.001378059E0
4.007573000E-2,-2.428287983E0,4.359436035E0,8.905557632E0
4.258020900E-2,-2.303721905E0,4.359436035E0,8.886393547E0
4.508468800E-2,-2.145618916E0,4.388182163E0,8.872020721E0
4.758916700E-2,-2.025844097E0,4.388182163E0,8.886393547E0
4.960500000E-2,-1.858158946E0,4.330689907E0,8.867230415E0
5.210948000E-2,-1.690474033E0,4.297152996E0,8.852856636E0
5.461395900E-2,-1.527580023E0,4.210915089E0,8.862439156E0
5.711838600E-2,-1.359894991E0,4.134259224E0,8.824110985E0
5.962286500E-2,-1.201792002E0,4.071976185E0,8.828902245E0
6.212739600E-2,-1.034106970E0,3.990529060E0,8.872020721E0
6.463182300E-2,-9.239140153E-1,3.971364975E0,8.895976067E0
6.713630200E-2,-8.089299798E-1,4.000111103E0,9.001378059E0
6.964078200E-2,-6.412450075E-1,3.985738039E0,9.068451881E0
7.214526100E-2,-5.358430147E-1,3.976155996E0,9.101988792E0
7.464974000E-2,-4.400230050E-1,3.933037043E0,9.121152878E0
7.715416700E-2,-3.298299909E-1,3.913872957E0,9.169062614E0
7.912843800E-2,-2.435919940E-1,3.913872957E0,9.202599525E0
8.163291700E-2,-1.238169968E-1,3.894709110E0,9.226554871E0
8.413734400E-2,-5.674299970E-2,3.846798897E0,9.221763611E0
8.664182300E-2,-1.362400036E-2,3.865962982E0,9.284047127E0
8.914630200E-2,7.261399925E-2,3.933037043E0,9.288838387E0
9.165078200E-2,1.109419987E-1,3.933037043E0,9.331956863E0
9.415526100E-2,7.740499824E-2,3.923455000E0,9.403821945E0
9.665974000E-2,9.177800268E-2,3.985738039E0,9.485268593E0
9.916416700E-2,1.109419987E-1,4.014483929E0,9.494851112E0
1.016686460E-1,1.253149956E-1,3.976155996E0,9.566716194E0
1.041731770E-1,1.109419987E-1,3.990529060E0,9.490059853E0
1.066776050E-1,1.348969936E-1,3.947410107E0,9.480478287E0
1.086950520E-1,1.205239967E-1,3.923455000E0,9.514015198E0
1.111994800E-1,1.396880001E-1,3.956991911E0,9.514015198E0
1.137039590E-1,1.348969936E-1,3.976155996E0,9.480478287E0
1.162084380E-1,1.636430025E-1,4.004901886E0,9.509223938E0
1.187129170E-1,1.588519961E-1,4.033648014E0,9.466105461E0
1.212173960E-1,1.492699981E-1,4.105513096E0,9.537969589E0
1.237218750E-1,1.301060021E-1,4.129467964E0,9.490059853E0
1.262263550E-1,1.348969936E-1,4.153422832E0,9.451731682E0
1.287307820E-1,1.253149956E-1,4.186960220E0,9.379866600E0
1.312352610E-1,8.698700368E-2,4.196541786E0,9.375076294E0
1.337397400E-1,1.157329977E-1,4.191751003E0,9.327165604E0
1.362442190E-1,1.205239967E-1,4.230079174E0,9.250510216E0
1.382636980E-1,8.698700368E-2,4.206123829E0,9.260091782E0
1.407681770E-1,4.386800155E-2,4.206123829E0,9.221763611E0
1.432726570E-1,1.991299912E-2,4.230079174E0,9.193017960E0
1.457771360E-1,1.991299912E-2,4.230079174E0,9.188226700E0
1.482815630E-1,-4.042000044E-3,4.206123829E0,9.121152878E0
1.507860940E-1,-2.799700014E-2,4.230079174E0,9.101988792E0
1.532905210E-1,-3.278800100E-2,4.225287914E0,9.106780052E0
1.557950000E-1,-4.236999899E-2,4.234869957E0,9.068451881E0
1.582994800E-1,-8.548899740E-2,4.277988911E0,9.111571312E0
1.608039590E-1,-9.986200184E-2,4.273198128E0,9.159481049E0
1.633084380E-1,-1.190259978E-1,4.316317081E0,9.178645134E0
1.658128650E-1,-1.525630057E-1,4.301943779E0,9.173853874E0
1.678223440E-1,-1.525630057E-1,4.297152996E0,9.221763611E0
1.703267710E-1,-9.027999640E-2,4.292362213E0,9.236137390E0
1.728312500E-1,-1.381900012E-1,4.268406868E0,9.255301476E0
1.753357300E-1,-9.027999640E-2,4.297152996E0,9.322375298E0
1.778402090E-1,2.470399998E-2,4.273198128E0,9.351120949E0
1.803446880E-1,3.907699883E-2,4.210915089E0,9.375076294E0
1.828491670E-1,1.205239967E-1,4.210915089E0,9.379866600E0
1.853536460E-1,1.828069985E-1,4.206123829E0,9.370285034E0
1.878581250E-1,2.546719909E-1,4.134259224E0,9.432567596E0
1.903625520E-1,3.457010090E-1,4.081558228E0,9.442150116E0
1.928670320E-1,3.984020054E-1,4.009693146E0,9.561924934E0
1.953715110E-1,4.031929970E-1,3.861171961E0,1.017038155E1
1.973702090E-1,5.565050244E-1,3.731815100E0,1.063990021E1
1.998746880E-1,9.062479734E-1,3.487473965E0,1.083633137E1
2.023791670E-1,1.596151948E0,3.204804897E0,1.108067226E1
2.048835940E-1,2.405831099E0,2.979628086E0,1.128189373E1
2.073880730E-1,2.520814896E0,2.922136068E0,1.086986828E1
2.098926050E-1,1.874029994E0,3.080239058E0,1.006497955E1
2.123970320E-1,1.150588989E0,3.338953018E0,9.331956863E0
2.149015110E-1,8.248010278E-1,3.578502893E0,8.881603241E0
2.174059900E-1,8.822929859E-1,3.770143032E0,8.675589561E0
2.199104690E-1,1.093096972E0,3.808470964E0,8.570187569E0
2.224149480E-1,1.414093971E0,3.808470964E0,8.498323441E0
2.249193750E-1,1.778210044E0,3.837217093E0,8.402503014E0
2.269224480E-1,2.075252056E0,3.794097900E0,8.388130188E0
2.294269270E-1,2.199817896E0,3.808470964E0,8.321056366E0
2.319314070E-1,2.185445070E0,3.789307117E0,8.086297035E0
2.344358340E-1,2.080043077E0,3.851589918E0,7.861120224E0
2.369403130E-1,1.883612037E0,3.846798897E0,7.650316238E0
2.394447920E-1,1.730299950E0,3.856380939E0,7.468257904E0
2.419492710E-1,1.596151948E0,3.875545025E0,7.382019997E0
2.444537500E-1,1.538660049E0,3.889918089E0,7.396392822E0
2.469582300E-1,1.581779003E0,3.832426071E0,7.458675861E0
2.494627090E-1,1.668017030E0,3.856380939E0,7.501794815E0
2.519671880E-1,1.696763039E0,3.827635050E0,7.525750160E0
2.544716150E-1,1.768628001E0,3.832426071E0,7.544913769E0
2.564783860E-1,1.792582989E0,3.818053007E0,7.554495811E0
2.589828650E-1,1.826120019E0,3.813261986E0,7.602406025E0
2.614873440E-1,1.854866028E0,3.808470964E0,7.616778851E0
2.639917710E-1,1.859657049E0,3.794097900E0,7.616778851E0
2.664962500E-1,1.845283985E0,3.784516096E0,7.645524979E0
2.690007300E-1,1.840492964E0,3.607249022E0,7.746136189E0
2.715052090E-1,1.816537976E0,3.506638050E0,7.784463882E0
2.740096880E-1,1.744673014E0,3.487473965E0,7.712598801E0
2.765141670E-1,1.447631001E0,3.578502893E0,7.597614765E0
2.790186460E-1,1.131425023E0,3.755769968E0,7.463467121E0
2.815231250E-1,8.870840073E-1,4.000111103E0,7.420348167E0
2.840276050E-1,7.193989754E-1,4.153422832E0,7.353273869E0
2.860027610E-1,6.044149995E-1,4.268406868E0,7.362855911E0
2.885072400E-1,5.085949898E-1,4.369018078E0,7.382019997E0
2.910116670E-1,4.606850147E-1,4.373808861E0,7.482631207E0
2.935161460E-1,4.463120103E-1,4.287570953E0,7.578451157E0
2.960206250E-1,5.181769729E-1,4.196541786E0,7.693435192E0
2.985251050E-1,6.762800217E-1,4.076766968E0,7.822792053E0
3.010295840E-1,8.248010278E-1,3.923455000E0,8.009640694E0
3.035340630E-1,9.397850037E-1,3.755769968E0,8.134206772E0
3.060385420E-1,1.002068043E0,3.655158997E0,8.292309761E0
3.085429690E-1,1.016440988E0,3.602458000E0,8.268355370E0
3.110474480E-1,1.021232009E0,3.597666979E0,8.244400024E0
3.135519270E-1,9.924860001E-1,3.564130068E0,8.143789291E0
3.155816670E-1,1.083515048E0,3.583293915E0,8.062341690E0
3.180861460E-1,1.126634002E0,3.621622086E0,7.928194046E0
3.205906250E-1,1.160171032E0,3.626413107E0,7.918612003E0
3.230950520E-1,1.308691978E0,3.659950018E0,7.899447918E0
3.255995320E-1,1.409302950E0,3.679114103E0,7.952148914E0
3.281040110E-1,1.471585989E0,3.635994911E0,8.095878601E0
3.306084900E-1,1.567406058E0,3.592875957E0,8.340220451E0
3.331129690E-1,1.696763039E0,3.521011114E0,8.560606003E0
3.356174480E-1,1.811746955E0,3.463519096E0,8.757037163E0
3.381218750E-1,1.931522012E0,3.348535061E0,8.881603241E0
3.406264070E-1,2.041714907E0,3.223968983E0,8.982213974E0
3.431308340E-1,2.166280985E0,3.118566990E0,9.106780052E0
3.451362500E-1,2.329174995E0,3.013164997E0,9.207390785E0
3.476407300E-1,2.535187960E0,2.994000912E0,9.308002472E0
3.501452090E-1,2.678917885E0,2.989209890E0,9.399030685E0
3.526496360E-1,2.774738073E0,2.926927090E0,9.470895767E0
3.551541150E-1,2.913676977E0,2.950881958E0,9.504432678E0
3.576585940E-1,3.100526094E0,2.955672979E0,9.590670586E0
3.601630730E-1,3.244256020E0,2.941299915E0,9.825429916E0
3.626675520E-1,3.426314116E0,2.950881958E0,1.012247181E1
3.651720320E-1,3.512552023E0,3.022747040E0,1.042909622E1
3.676765110E-1,3.546088934E0,3.037120104E0,1.085549545E1
3.701809380E-1,3.397567987E0,3.061074972E0,1.118128300E1
3.726854170E-1,3.138854027E0,3.113775969E0,1.109983635E1
3.747152090E-1,2.985542059E0,3.195223093E0,1.074051094E1
3.772196880E-1,2.851393938E0,3.267087936E0,1.039076805E1
3.797241670E-1,2.611844063E0,3.372489929E0,1.035723114E1
3.822285940E-1,2.386667013E0,3.458728075E0,1.020870972E1
3.847330730E-1,2.185445070E0,3.568921089E0,9.983532906E0
3.872375520E-1,2.089624882E0,3.794097900E0,9.806265831E0
3.897420320E-1,1.921939969E0,4.076766968E0,9.739192009E0
3.922465110E-1,1.854866028E0,4.263616085E0,9.523596764E0
3.947509900E-1,1.869238973E0,4.407345772E0,9.221763611E0
3.972554690E-1,1.811746955E0,4.565449238E0,8.977422714E0
3.997599480E-1,1.663226008E0,4.522329807E0,8.531860352E0
4.022644270E-1,1.629688978E0,4.436091900E0,8.167743683E0
4.042508340E-1,1.725509048E0,4.603776932E0,8.100669861E0
4.067553130E-1,1.874029994E0,4.646895885E0,7.913821220E0
4.092597920E-1,2.242937088E0,4.575030804E0,7.722180843E0
4.117642710E-1,2.616635084E0,4.517539024E0,7.659897804E0
4.142686980E-1,2.913676977E0,4.369018078E0,7.626360893E0
4.167732300E-1,3.124480963E0,4.234869957E0,7.468257904E0
4.192776570E-1,3.273001909E0,4.134259224E0,7.549705029E0
4.217821360E-1,3.368822098E0,3.956991911E0,7.429930210E0
4.242866150E-1,3.392776966E0,3.774934053E0,7.348483086E0
4.267910940E-1,3.359240055E0,3.597666979E0,7.300572872E0
4.292955730E-1,3.459851027E0,3.473100901E0,7.195170879E0
4.318000000E-1,3.502969980E0,3.367698908E0,7.199962139E0
4.338169800E-1,3.498178959E0,3.286252022E0,7.338901043E0
4.363214070E-1,3.479015112E0,3.247924089E0,7.564077854E0
4.388258860E-1,3.407150030E0,3.195223093E0,7.698225975E0
4.413303650E-1,3.196346045E0,3.176059008E0,7.880283833E0
4.438348440E-1,2.841811895E0,3.214386940E0,8.311473846E0
4.463393230E-1,2.516024113E0,3.252715111E0,8.642052650E0
4.488438020E-1,2.290847063E0,3.343744040E0,9.082824707E0
4.513482820E-1,2.123162031E0,3.521011114E0,9.475687027E0
4.538527610E-1,1.936313033E0,3.707859993E0,9.787101746E0
4.563571880E-1,1.830911040E0,3.755769968E0,9.969160080E0
4.588616670E-1,1.725509048E0,3.779725075E0,1.006977081E1
4.613661460E-1,1.663226008E0,3.813261986E0,1.000269699E1
4.633623440E-1,1.634480000E0,3.798888922E0,9.705655098E0
4.658668230E-1,1.596151948E0,3.798888922E0,9.432567596E0
4.683713020E-1,1.524286985E0,3.798888922E0,9.169062614E0
4.708757300E-1,1.543450952E0,3.774934053E0,8.747454643E0
4.733802090E-1,1.634480000E0,3.750978947E0,8.287519455E0
4.758847400E-1,1.725509048E0,3.750978947E0,7.909029961E0
4.783891670E-1,1.854866028E0,3.736605883E0,7.568869114E0
4.808936460E-1,1.993805051E0,3.707859993E0,7.314946175E0
4.833981250E-1,2.506442070E0,3.540174961E0,7.319736958E0
4.859026050E-1,3.153227091E0,3.166476965E0,7.559287071E0
4.884070840E-1,2.587888956E0,3.415608883E0,7.152051926E0
4.909115110E-1,2.190236092E0,3.703068972E0,6.840637207E0
4.929081770E-1,2.132744074E0,3.870754004E0,6.730443954E0
4.954126570E-1,2.161489964E0,4.009693146E0,6.677742958E0
4.979171360E-1,2.305219889E0,4.081558228E0,6.663370132E0
5.004215630E-1,2.535187960E0,4.043230057E0,6.768772125E0
5.029260420E-1,2.750782967E0,4.019275188E0,6.874174118E0
5.054305210E-1,3.110107899E0,3.923455000E0,7.142469883E0
5.079350000E-1,3.483805895E0,3.813261986E0,7.477839947E0
5.104394800E-1,3.718564987E0,3.765352011E0,7.827582836E0
5.129439590E-1,3.919786930E0,3.693486929E0,8.172534943E0
5.154484380E-1,4.025188923E0,3.588084936E0,8.503113747E0
5.179529170E-1,4.092263222E0,3.482682943E0,8.675589561E0
5.204573440E-1,4.121008873E0,3.353326082E0,8.809738159E0
5.224702090E-1,4.135382175E0,3.204804897E0,8.819319725E0
5.249663550E-1,3.886250019E0,3.319788933E0,8.771409988E0
5.274625520E-1,3.608371973E0,3.492264986E0,8.824110985E0
5.299587500E-1,3.919786930E0,3.142522097E0,8.790574074E0
5.324549480E-1,4.226410866E0,2.692167997E0,8.622888565E0
5.349511460E-1,4.485125065E0,2.356797934E0,8.469576836E0
5.374473440E-1,4.758212090E0,2.169949055E0,8.349802017E0
5.399435420E-1,4.834867954E0,2.078919888E0,8.388130188E0
5.424397400E-1,4.935479164E0,1.954354048E0,8.598934174E0
5.449358860E-1,5.026507854E0,1.959144950E0,8.785782814E0
5.474320840E-1,4.945061207E0,2.136411905E0,8.709127426E0
5.499282820E-1,4.892360210E0,2.256186962E0,8.483949661E0
5.520244270E-1,4.820495129E0,2.342425108E0,8.258772850E0
5.545205730E-1,4.734257221E0,2.390335083E0,8.043177605E0
5.570167710E-1,4.595317841E0,2.553229094E0,7.904239178E0
5.595129690E-1,4.384513855E0,2.735286951E0,7.937776089E0
5.620091670E-1,4.073099136E0,3.013164997E0,8.043177605E0
5.645053650E-1,3.776057005E0,3.262296915E0,8.129416466E0
5.670015630E-1,3.421523094E0,3.487473965E0,8.225235939E0
5.694977610E-1,3.090944052E0,3.808470964E0,8.330637932E0
5.719939070E-1,2.774738073E0,4.019275188E0,8.392921448E0
5.744901050E-1,2.482486963E0,4.163004875E0,8.359383583E0
5.769863020E-1,2.281265020E0,4.301943779E0,8.253981590E0
5.794825000E-1,2.180654049E0,4.416927814E0,8.177326202E0
5.815706770E-1,2.089624882E0,4.440883160E0,8.138998032E0
5.840668750E-1,2.056087971E0,4.464838028E0,8.043177605E0
5.865630730E-1,2.017760038E0,4.455255985E0,8.033596039E0
5.890592710E-1,2.046505928E0,4.402554989E0,8.038387299E0
5.915554690E-1,2.080043077E0,4.364226818E0,8.043177605E0
5.940516670E-1,2.132744074E0,4.254034042E0,8.076715469E0
5.965478650E-1,2.171072006E0,4.196541786E0,8.253981590E0
5.990440630E-1,2.233355045E0,4.182168961E0,8.330637932E0
6.015402610E-1,2.439368010E0,4.071976185E0,8.340220451E0
6.040364070E-1,2.645380974E0,3.947410107E0,8.311473846E0
6.065326050E-1,2.846602917E0,3.851589918E0,8.450412750E0
6.090288020E-1,3.086153030E0,3.798888922E0,8.598934174E0
6.111278130E-1,3.340075970E0,3.956991911E0,8.852856636E0
6.136239590E-1,3.565253019E0,3.573712111E0,8.383338928E0
6.161201570E-1,3.919786930E0,3.200014114E0,8.052760124E0
6.186163550E-1,4.283903122E0,2.855062008E0,7.889865875E0
6.211125520E-1,4.547408104E0,2.567601919E0,7.664689064E0
6.236087500E-1,4.801331043E0,2.328052044E0,7.554495811E0
6.261049480E-1,4.916315079E0,2.270560026E0,7.640734196E0
6.286011460E-1,4.969016075E0,2.265769005E0,7.765299797E0
6.310973440E-1,5.103164196E0,2.294514894E0,7.813210011E0
6.335934900E-1,4.992970943E0,2.462199926E0,8.210863113E0
6.360896880E-1,4.901941776E0,2.610721111E0,8.464785576E0
6.385858860E-1,4.825285912E0,2.692167997E0,8.555814743E0
6.407047920E-1,4.662392139E0,3.027538061E0,8.972632408E0
6.432009380E-1,4.125800133E0,4.848117828E0,1.043867779E1
6.456971360E-1,3.349658012E0,6.414774895E0,1.171787453E1
6.481933340E-1,3.306539059E0,5.581140995E0,1.163642788E1
6.506895320E-1,3.416732073E0,4.776253223E0,1.074051094E1
6.531857300E-1,3.445477962E0,4.215705872E0,9.456522942E0
6.556819270E-1,3.431104898E0,3.746187925E0,8.138998032E0
6.581781250E-1,3.378403902E0,3.463519096E0,7.463467121E0
6.606743230E-1,3.244256020E0,3.372489929E0,7.099350929E0
6.631704690E-1,3.090944052E0,3.372489929E0,7.013113022E0
6.656666670E-1,2.928050041E0,3.468310118E0,7.300572872E0
6.681628650E-1,2.813066006E0,3.655158997E0,7.818000793E0
6.702386460E-1,3.014287949E0,4.139050007E0,8.527069092E0
6.727347920E-1,3.239464998E0,4.603776932E0,9.193017960E0
6.752309900E-1,3.129271984E0,4.541493893E0,9.533179283E0
6.777271880E-1,3.134063005E0,4.440883160E0,9.763147354E0
6.802233860E-1,3.052615881E0,4.263616085E0,9.815848351E0
6.827195840E-1,3.019078970E0,4.038438797E0,9.801474571E0
6.852157820E-1,2.995124102E0,3.837217093E0,9.676909447E0
6.877119800E-1,2.990333080E0,3.626413107E0,9.600253105E0
6.902081770E-1,3.071779966E0,3.391654015E0,9.566716194E0
6.927043230E-1,3.239464998E0,3.171267986E0,9.547552109E0
6.952005210E-1,3.301748037E0,2.994000912E0,9.576297760E0
6.976967190E-1,3.316121101E0,2.855062008E0,9.605044365E0
6.998030730E-1,3.349658012E0,2.701750040E0,9.667326927E0
7.022992710E-1,3.368822098E0,2.601139069E0,9.724819183E0
7.047954170E-1,3.407150030E0,2.543647051E0,9.782311440E0
7.072916150E-1,3.402359009E0,2.466990948E0,9.839802742E0
7.097878130E-1,3.435895920E0,2.423871994E0,9.830221176E0
7.122840110E-1,3.474224091E0,2.361588955E0,9.777520180E0
7.147802090E-1,3.493387938E0,2.337634087E0,9.796684265E0
7.172764070E-1,3.641908884E0,2.299305916E0,9.743983269E0
7.197726050E-1,3.646699905E0,2.241813898E0,9.628998756E0
7.222688020E-1,3.646699905E0,2.256186962E0,9.648162842E0
7.247649480E-1,3.651490927E0,2.217859030E0,9.652954102E0
7.272611460E-1,3.570044041E0,2.208276987E0,9.628998756E0
7.293480730E-1,3.459851027E0,2.313678980E0,9.705655098E0
7.318442190E-1,3.282583952E0,2.395126104E0,9.791893005E0
7.343404170E-1,3.062197924E0,2.471781969E0,9.815848351E0
7.368366150E-1,2.990333080E0,2.529273987E0,9.758356094E0
7.393328130E-1,2.851393938E0,2.634675980E0,9.681699753E0
7.418290110E-1,2.726828098E0,2.735286951E0,9.552343369E0
7.443252090E-1,2.568725109E0,2.787987947E0,9.375076294E0
7.468214070E-1,2.420203924E0,2.893389940E0,9.245718956E0
7.493176050E-1,2.257309914E0,3.022747040E0,9.063660622E0
7.518137500E-1,2.060878992E0,3.065865993E0,8.876811981E0
7.543099480E-1,1.864447951E0,3.185641050E0,8.685172081E0
7.568061460E-1,1.735090971E0,3.291043043E0,8.507905006E0
7.589050000E-1,1.687180996E0,3.291043043E0,8.263564110E0
7.614011460E-1,1.672808051E0,3.348535061E0,8.009640694E0
7.638973440E-1,1.586570024E0,3.367698908E0,7.789255142E0
7.663935420E-1,1.663226008E0,3.439563990E0,7.774881840E0
7.688897400E-1,1.730299950E0,3.516220093E0,7.717390060E0
7.713859380E-1,1.792582989E0,3.645576954E0,7.688643932E0
7.738821360E-1,1.878821015E0,3.703068972E0,7.683853149E0
7.763783340E-1,1.960268021E0,3.842008114E0,7.731762886E0
7.788744800E-1,2.032133102E0,3.980947018E0,7.856328964E0
7.813706770E-1,2.108788967E0,4.052812099E0,7.899447918E0
7.838668750E-1,2.127953053E0,4.172586918E0,7.880283833E0
7.863630730E-1,2.161489964E0,4.263616085E0,7.846746922E0
7.884617190E-1,2.175863028E0,4.311525822E0,7.861120224E0
7.909578650E-1,2.190236092E0,4.244452000E0,7.894657135E0
7.934540630E-1,2.161489964E0,4.234869957E0,7.923402786E0
7.959502610E-1,2.204608917E0,4.139050007E0,7.813210011E0
7.984464590E-1,2.209399939E0,3.956991911E0,7.679061890E0
8.009426570E-1,2.218981981E0,3.774934053E0,7.554495811E0
8.034388550E-1,2.142326117E0,3.717442036E0,7.487421989E0
8.059350520E-1,2.180654049E0,3.602458000E0,7.473049164E0
8.084312500E-1,2.247728109E0,3.468310118E0,7.300572872E0
8.109273960E-1,2.324383974E0,3.382071972E0,7.243081093E0
8.134235940E-1,2.367502928E0,3.314997911E0,7.281408787E0
8.159197920E-1,2.415412903E0,3.314997911E0,7.343691826E0
8.179863020E-1,2.535187960E0,3.252715111E0,7.420348167E0
8.204825000E-1,2.592679977E0,3.267087936E0,7.544913769E0
8.229786460E-1,2.645380974E0,3.281461000E0,7.655107021E0
8.254748440E-1,2.698081970E0,3.291043043E0,7.832374096E0
8.279710420E-1,2.765156031E0,3.286252022E0,7.937776089E0
8.304672400E-1,2.822648048E0,3.343744040E0,7.952148914E0
8.329634380E-1,2.932841063E0,3.449146032E0,8.033596039E0
8.354596360E-1,2.999914885E0,3.511429071E0,8.076715469E0
8.379557820E-1,3.273001909E0,3.592875957E0,8.076715469E0
8.404520320E-1,3.780848026E0,3.722233057E0,7.990477085E0
8.429481770E-1,3.977278948E0,3.933037043E0,8.081505775E0
8.454443750E-1,3.728147030E0,4.062394142E0,8.378547668E0
8.475613020E-1,3.416732073E0,4.110303879E0,8.531860352E0
8.500575000E-1,3.239464998E0,4.052812099E0,8.397711754E0
8.525536980E-1,3.052615881E0,4.081558228E0,8.253981590E0
8.550498960E-1,2.769947052E0,4.100721836E0,8.201280594E0
8.575460940E-1,2.310010910E0,4.071976185E0,8.105461121E0
8.600422920E-1,1.869238973E0,4.057602882E0,8.009640694E0
8.625384900E-1,1.615316033E0,4.004901886E0,7.784463882E0
8.650346880E-1,1.370975018E0,3.971364975E0,7.549705029E0
8.675308860E-1,1.217663050E0,3.956991911E0,7.348483086E0
8.700270320E-1,1.275154948E0,4.014483929E0,7.094560146E0
8.725232300E-1,1.423676014E0,4.086349010E0,6.878964901E0
8.750194270E-1,1.519495964E0,4.234869957E0,6.687325001E0
8.771155730E-1,1.610525012E0,4.388182163E0,6.562758923E0
8.796117190E-1,1.749464035E0,4.498374939E0,6.385491848E0
8.821079170E-1,1.816537976E0,4.642105103E0,6.351954937E0
8.846041150E-1,1.989014030E0,4.704388142E0,6.236970901E0
8.871003130E-1,2.089624882E0,4.752297878E0,6.256134987E0
8.895965110E-1,2.190236092E0,4.776253223E0,6.246552944E0
8.920927090E-1,2.233355045E0,4.814580917E0,6.294463158E0
8.945889070E-1,2.281265020E0,4.790626049E0,6.280089855E0
8.970851050E-1,2.338757038E0,4.747507095E0,6.337582111E0
8.995812500E-1,2.319592953E0,4.661269188E0,6.399865150E0
9.020774480E-1,2.338757038E0,4.603776932E0,6.404655933E0
9.045736460E-1,2.424994946E0,4.512747765E0,6.423820019E0
9.066962500E-1,2.573515892E0,4.488792896E0,6.328000069E0
9.091923960E-1,2.793901920E0,4.345063210E0,6.236970901E0
9.116885940E-1,2.923259020E0,4.311525822E0,6.179479122E0
9.141847920E-1,2.990333080E0,4.301943779E0,6.131568909E0
9.166809900E-1,3.114898920E0,4.158214092E0,6.083659172E0
9.191771880E-1,3.119689941E0,4.076766968E0,6.088449955E0
9.216733860E-1,3.105317116E0,3.966573954E0,6.030958176E0
9.241695840E-1,3.086153030E0,3.865962982E0,6.026166916E0
9.266657820E-1,3.038243055E0,3.707859993E0,6.007002831E0
9.291619270E-1,3.081362009E0,3.511429071E0,5.877645969E0
9.316581250E-1,3.158018112E0,3.377280951E0,5.887228012E0
9.341543230E-1,3.273001909E0,3.166476965E0,5.906392097E0
9.362236460E-1,3.445477962E0,2.850270987E0,5.815362930E0
9.387197920E-1,3.589207888E0,2.629884958E0,5.939929008E0
9.412159900E-1,3.680237055E0,2.466990948E0,6.112404823E0
9.437121880E-1,3.771265984E0,2.294514894E0,6.299253941E0
9.462083860E-1,3.895832062E0,2.141202927E0,6.529222012E0
9.487045840E-1,3.905414104E0,2.016637087E0,6.744816780E0
9.512007820E-1,3.881458998E0,1.887279987E0,6.955620766E0
9.536969800E-1,3.924577951E0,1.762714028E0,7.199962139E0
9.561931770E-1,3.843131065E0,1.671684980E0,7.329319000E0
9.586893230E-1,3.747311115E0,1.614192963E0,7.554495811E0
9.611855210E-1,3.622745037E0,1.513581991E0,7.726972103E0
9.636817190E-1,3.522134066E0,1.470463037E0,7.798837185E0
9.657865110E-1,3.541297913E0,1.317150950E0,7.645524979E0
9.682827090E-1,3.493387938E0,1.283614039E0,7.813210011E0
9.707788550E-1,3.330493927E0,1.288404942E0,8.033596039E0
9.732750520E-1,3.325702906E0,1.250077009E0,7.837164879E0
9.757712500E-1,3.162808895E0,1.283614039E0,8.110252380E0
9.782674480E-1,3.105317116E0,1.341106057E0,8.191699028E0
9.807636460E-1,3.009496927E0,1.331524014E0,8.052760124E0
9.832598440E-1,2.937632084E0,1.283614039E0,7.923402786E0
9.857560420E-1,2.980751038E0,1.321941972E0,7.956940174E0
9.882522400E-1,3.124480963E0,1.288404942E0,7.818000793E0
9.907483860E-1,3.162808895E0,1.226122022E0,7.674271107E0
9.932445840E-1,3.191555023E0,1.163838983E0,7.568869114E0
9.953356250E-1,3.234673977E0,1.259659052E0,7.703017235E0
9.978317710E-1,3.344866991E0,1.264449954E0,7.650316238E0
1.000327969E0,3.459851027E0,1.221331000E0,7.679061890E0
1.002824167E0,3.689819098E0,1.154257059E0,7.827582836E0
1.005320365E0,3.982069969E0,1.120720029E0,7.956940174E0
1.007816563E0,4.336604118E0,1.029690981E0,7.913821220E0
1.010312761E0,4.628855228E0,1.034482002E0,7.846746922E0
1.012808959E0,4.945061207E0,1.020109057E0,7.966522217E0
1.015305157E0,5.112745762E0,1.034482002E0,8.153370857E0
1.017801302E0,5.246893883E0,1.178212047E0,8.196490288E0
1.020297500E0,5.313968182E0,1.278823018E0,8.469576836E0
1.022793698E0,5.328341007E0,1.417762041E0,8.646843910E0
1.024889011E0,5.352295876E0,1.532745957E0,8.689963341E0
1.027378542E0,5.333131790E0,1.657312036E0,8.666007996E0
1.029868073E0,5.251685143E0,1.805832982E0,8.661216736E0
1.032357605E0,5.175028801E0,1.911234975E0,8.584561348E0
1.034847136E0,5.002552986E0,2.016637087E0,8.436039925E0
1.037336615E0,4.911523819E0,2.078919888E0,8.182117462E0
1.039826146E0,4.734257221E0,2.145993948E0,8.115042686E0
1.042315677E0,4.552198887E0,2.141202927E0,7.990477085E0
1.044805209E0,4.365349770E0,2.222650051E0,7.937776089E0
1.047294740E0,4.135382175E0,2.237023115E0,7.932984829E0
1.049784219E0,3.914995909E0,2.304096937E0,7.961730957E0
1.052273750E0,3.694610119E0,2.289724112E0,7.976103783E0
1.054446823E0,3.483805895E0,2.232232094E0,8.019223213E0
1.056936355E0,3.277792931E0,2.294514894E0,8.062341690E0
1.059425886E0,3.081362009E0,2.208276987E0,8.047968864E0
1.061915417E0,2.928050041E0,2.150784969E0,8.186907768E0
1.064404948E0,2.755573988E0,2.102874994E0,8.282728195E0
1.066894427E0,2.583097935E0,2.088501930E0,8.407294273E0
1.069383959E0,2.472904921E0,2.107666016E0,8.589351654E0
1.071873490E0,2.295638084E0,2.131620884E0,8.704336166E0
1.074363021E0,2.238146067E0,2.040591955E0,8.819319725E0
1.076852552E0,2.151907921E0,1.997473001E0,8.939094543E0
1.079342032E0,2.027342081E0,2.002264023E0,9.111571312E0
1.081831563E0,1.888403058E0,1.920817018E0,9.159481049E0
1.084002709E0,1.691972017E0,1.844161034E0,9.245718956E0
1.086492240E0,1.466794968E0,1.796251059E0,9.221763611E0
1.088981771E0,1.275154948E0,1.695639968E0,9.226554871E0
1.091471302E0,1.059559941E0,1.604611039E0,9.216973305E0
1.093960834E0,8.391739726E-1,1.561491966E0,9.173853874E0
1.096450313E0,6.906530261E-1,1.494418025E0,9.221763611E0
1.098939844E0,5.229679942E-1,1.489627004E0,9.312792778E0
1.101429375E0,3.696559966E-1,1.494418025E0,9.355912209E0
1.103918907E0,2.977910042E-1,1.542328000E0,9.427777290E0
1.106408438E0,2.690449953E-1,1.547119021E0,9.504432678E0
1.108897917E0,2.355079949E-1,1.599820018E0,9.571507454E0
1.111387448E0,1.828069985E-1,1.609401941E0,9.609834671E0
1.113549271E0,1.492699981E-1,1.676476002E0,9.753564835E0
1.116038802E0,1.061509997E-1,1.762714028E0,9.887713432E0
1.118528334E0,1.348969936E-1,1.896862030E0,1.003144264E1
1.121017865E0,1.253149956E-1,1.963935971E0,1.016079998E1
1.123507396E0,1.588519961E-1,2.021428108E0,1.028536606E1
1.125996875E0,1.923889965E-1,2.069338083E0,1.035723114E1
1.128486407E0,2.307170033E-1,2.155575991E0,1.038118553E1
1.130975938E0,2.498809993E-1,2.294514894E0,1.043388653E1
1.133465469E0,2.977910042E-1,2.356797934E0,1.052012539E1
1.135954948E0,3.792380095E-1,2.375962019E0,1.050096130E1
1.138444480E0,4.463120103E-1,2.428663015E0,1.050575161E1
1.140934011E0,4.846400023E-1,2.438245058E0,1.057282639E1
1.143108855E0,5.708780289E-1,2.428663015E0,1.051533413E1
1.145598386E0,6.954439878E-1,2.447827101E0,1.050096130E1
1.148087917E0,8.104280233E-1,2.462199926E0,1.038597679E1
1.150577448E0,9.541580081E-1,2.419080973E0,1.028536606E1
1.153066980E0,1.136216044E0,2.352006912E0,1.015121841E1
1.155556459E0,1.289528012E0,2.318470001E0,9.983532906E0
1.158045990E0,1.452422023E0,2.256186962E0,9.739192009E0
1.160535521E0,1.615316033E0,2.217859030E0,9.451731682E0
1.163025052E0,1.687180996E0,2.203485966E0,9.130735397E0
1.165514584E0,1.749464035E0,2.141202927E0,8.915140152E0
1.168004063E0,1.835701942E0,2.088501930E0,8.661216736E0
1.170493594E0,1.974640965E0,2.035800934E0,8.527069092E0
1.172681563E0,2.056087971E0,1.853742957E0,8.297101021E0
1.175171094E0,2.209399939E0,1.777086973E0,8.162953377E0
1.177660625E0,2.338757038E0,1.724385977E0,8.024014473E0
1.180150157E0,2.463323116E0,1.633357048E0,7.832374096E0
1.182639688E0,2.578306913E0,1.547119021E0,7.712598801E0
1.185129167E0,2.707664013E0,1.494418025E0,7.554495811E0
1.187618698E0,2.760365009E0,1.432134986E0,7.492212772E0
1.190108230E0,2.736409903E0,1.379433990E0,7.506586075E0
1.192597761E0,2.726828098E0,1.297986984E0,7.477839947E0
1.195087292E0,2.611844063E0,1.259659052E0,7.468257904E0
1.197576771E0,2.506442070E0,1.183002949E0,7.458675861E0
1.200066302E0,2.386667013E0,1.115929008E0,7.425138950E0
1.202210677E0,2.271682978E0,1.048854947E0,7.468257904E0
1.204700209E0,2.127953053E0,9.578260183E-1,7.415556908E0
1.207189740E0,2.046505928E0,8.236780167E-1,7.286200047E0
1.209679271E0,1.917148948E0,7.709770203E-1,7.199962139E0
1.212168802E0,1.816537976E0,6.559929848E-1,7.056231976E0
1.214658282E0,1.677598953E0,4.978899956E-1,6.960412025E0
1.217147813E0,1.543450952E0,4.308159947E-1,6.840637207E0
1.219637344E0,1.438048959E0,3.254140019E-1,6.754398823E0
1.222126823E0,1.303900957E0,1.673109978E-1,6.668160915E0
1.224616355E0,1.188917041E0,3.795399889E-2,6.567550182E0
1.227105938E0,1.112261057E0,-3.870199993E-2,6.428610802E0
1.229595469E0,1.126634002E0,-8.661200106E-2,6.304045200E0
1.231786719E0,1.112261057E0,-2.063869983E-1,6.136360168E0
1.234276250E0,1.045186996E0,-2.830429971E-1,5.968675137E0
1.236765782E0,1.059559941E0,-4.459370077E-1,5.786616802E0
1.239255313E0,1.006858945E0,-6.088309884E-1,5.638095856E0
1.241744792E0,9.637399912E-1,-7.142329812E-1,5.460828781E0
1.244234323E0,1.054769039E0,-7.190240026E-1,5.273980141E0
1.246723855E0,1.073933005E0,-7.669339776E-1,5.125459194E0
1.249213386E0,1.150588989E0,-8.819180131E-1,5.010475159E0
1.251702917E0,1.313483000E0,-8.819180131E-1,4.818834782E0
1.254192396E0,1.533869028E0,-9.585739970E-1,4.694269180E0
1.256681927E0,1.715927005E0,-9.585739970E-1,4.464301109E0
1.259171459E0,1.945894957E0,-8.962910175E-1,4.253497124E0
1.261305105E0,2.142326117E0,-9.585739970E-1,4.104976177E0
1.263794688E0,2.329174995E0,-9.010819793E-1,3.932499886E0
1.266284219E0,2.592679977E0,-8.387989998E-1,3.716905117E0
1.268773698E0,2.908885956E0,-7.429789901E-1,3.462981939E0
1.271263230E0,3.201137066E0,-7.142329812E-1,3.118030071E0
1.273752761E0,3.445477962E0,-6.519500017E-1,2.806615114E0
1.276242292E0,3.737729073E0,-6.375769973E-1,2.552691936E0
1.278731771E0,4.121008873E0,-6.471589804E-1,2.346678972E0
1.281221302E0,4.518661976E0,-7.238150239E-1,2.183784962E0
1.283710834E0,4.810913086E0,-7.956799865E-1,2.068800926E0
1.286200365E0,5.131909847E0,-8.914999962E-1,1.963399053E0
1.288689896E0,5.357087135E0,-9.777380228E-1,1.810086966E0
1.290899636E0,5.524772167E0,-1.035230041E0,1.656774998E0
1.293389167E0,5.596636772E0,-1.092722058E0,1.489089966E0
1.295878698E0,5.620592117E0,-1.140632033E0,1.330986977E0
1.298368230E0,5.611010075E0,-1.198124051E0,1.211212039E0
1.300857709E0,5.539144993E0,-1.222079039E0,1.172883987E0
1.303347240E0,5.505608082E0,-1.250825047E0,1.316614032E0
1.305836771E0,5.395414829E0,-1.241243005E0,1.273494959E0
1.308326302E0,5.175028801E0,-1.284361959E0,1.225584984E0
1.310815834E0,5.002552986E0,-1.327481031E0,1.263913035E0
1.313305261E0,4.758212090E0,-1.461629033E0,1.278285980E0
1.315794844E0,4.465960979E0,-1.696388006E0,1.359732985E0
1.318284375E0,4.188083172E0,-1.945520043E0,1.455553055E0
1.320444896E0,3.800012112E0,-2.117995977E0,1.575327992E0
1.322934427E0,3.426314116E0,-2.395874023E0,1.690312028E0
1.325423959E0,3.004705906E0,-2.558768034E0,1.757385969E0
1.327913542E0,2.587888956E0,-2.769572020E0,1.881952047E0
1.330403021E0,2.209399939E0,-3.004331112E0,2.016099930E0
1.332892500E0,1.854866028E0,-3.085777998E0,2.155039072E0
1.335382084E0,1.591361046E0,-3.124105930E0,2.212531090E0
1.337871563E0,1.241618037E0,-3.210344076E0,2.303560019E0
1.340361094E0,8.104280233E-1,-3.210344076E0,2.432917118E0
1.342850573E0,5.038040280E-1,-3.138478994E0,2.715585947E0
1.345340157E0,2.834179997E-1,-3.138478994E0,2.878479958E0
1.347829636E0,1.396880001E-1,-3.200762033E0,3.022209883E0
1.349992240E0,6.303200126E-2,-3.234298944E0,3.108448029E0
1.352481771E0,-6.632500142E-2,-3.306164026E0,3.146775961E0
1.354971302E0,-9.986200184E-2,-3.430730104E0,3.055747032E0
1.357460834E0,-9.986200184E-2,-3.555295944E0,2.969508886E0
1.359950365E0,-1.333989948E-1,-3.722980976E0,2.864106894E0
1.362439844E0,1.512200013E-2,-3.914621115E0,2.701212883E0
1.364929375E0,4.654760063E-1,-4.043978214E0,2.610183954E0
1.367418907E0,1.227244973E0,-4.403303146E0,2.437707901E0
1.369908438E0,2.022551060E0,-4.829701900E0,2.169411898E0
1.372397917E0,2.722037077E0,-5.045297146E0,2.169411898E0
1.374887448E0,3.311330080E0,-5.217772961E0,2.274813890E0
1.377376980E0,3.785639048E0,-5.284846783E0,2.365843058E0
1.379547552E0,4.240784168E0,-5.548351765E0,2.533528090E0
1.382037084E0,4.734257221E0,-5.754364967E0,2.777868986E0
1.384526615E0,5.227729797E0,-6.008287907E0,3.074911118E0
1.387016146E0,5.764321804E0,-6.276584148E0,3.386326075E0
1.389505677E0,6.219467163E0,-6.439477921E0,3.673785925E0
1.391995157E0,6.636283875E0,-6.616744995E0,3.980410099E0
1.394484688E0,6.890206814E0,-6.798802853E0,4.363689899E0
1.396974271E0,7.048309803E0,-6.942533016E0,4.699059963E0
1.399463750E0,7.101010799E0,-7.100636005E0,5.029638767E0
1.401953230E0,7.172875881E0,-7.258738995E0,5.297935009E0
1.404442761E0,7.206412792E0,-7.507871151E0,5.513529778E0
1.406932292E0,7.220786095E0,-7.728257179E0,5.642887115E0
1.409099375E0,7.206412792E0,-7.910315037E0,5.671632767E0
1.411588907E0,7.441172123E0,-7.857614040E0,6.093241215E0
1.414078438E0,7.436380863E0,-8.044463158E0,5.810572147E0
1.416567969E0,7.345352173E0,-8.279221535E0,5.647677898E0
1.419057500E0,7.316606045E0,-8.375041962E0,5.686006069E0
1.421546980E0,7.239950180E0,-8.470862389E0,5.686006069E0
1.424036511E0,7.254323006E0,-8.600218773E0,5.657259941E0
1.426526042E0,7.345352173E0,-8.719993591E0,5.542275906E0
1.429015573E0,7.513037205E0,-8.825395584E0,5.427291870E0
1.431505052E0,7.747796059E0,-8.858933449E0,5.307517052E0
1.433994584E0,7.934645176E0,-8.897260666E0,5.168578148E0
1.436484115E0,8.087957382E0,-8.969125748E0,5.111085892E0
1.438655105E0,8.236477852E0,-9.021826744E0,5.149414062E0
1.441144636E0,8.428117752E0,-9.151184082E0,5.297935009E0
1.443634167E0,8.648504257E0,-9.333242416E0,5.508738995E0
1.446123698E0,8.921590805E0,-9.510508537E0,5.753079891E0
1.448613230E0,9.280916214E0,-9.572792053E0,6.016584873E0
1.451102709E0,9.611495018E0,-9.644657135E0,6.390283108E0
1.453592240E0,9.898955345E0,-9.706939697E0,6.802309036E0
1.456081771E0,1.029181671E1,-9.750059128E0,7.166425228E0
1.458571302E0,1.070863438E1,-9.879416466E0,7.573659897E0
1.461060834E0,1.120210743E1,-1.002793694E1,7.913821220E0
1.463550313E0,1.167162514E1,-1.018124866E1,8.282728195E0
1.466039844E0,1.214114285E1,-1.032977009E1,8.622888565E0
1.468222917E0,1.265377998E1,-1.042079926E1,9.058870316E0
1.470712396E0,1.328619194E1,-1.048308182E1,9.499642372E0
1.473201927E0,1.400963306E1,-1.054057407E1,9.973951340E0
1.475691459E0,1.493908691E1,-1.062681198E1,1.061594486E1
1.478180990E0,1.593561459E1,-1.067951298E1,1.123877525E1
1.480670469E0,1.692735291E1,-1.081366062E1,1.188076878E1
1.483160000E0,1.792867088E1,-1.101488304E1,1.242694283E1
1.485649532E0,1.879105186E1,-1.130234337E1,1.290125179E1
1.488139063E0,1.954802895E1,-1.151314735E1,1.328932285E1
1.490628542E0,2.015169525E1,-1.163292217E1,1.355282784E1
1.493118073E0,2.068828773E1,-1.173832417E1,1.366781235E1
1.495607605E0,2.104761124E1,-1.172874165E1,1.369176674E1
1.497766198E0,2.129674339E1,-1.157063866E1,1.357199192E1
1.500255730E0,2.148359299E1,-1.125443268E1,1.325578594E1
1.502745261E0,2.166086006E1,-1.090468979E1,1.276710415E1
1.505234792E0,2.169439697E1,-1.054057407E1,1.214427376E1
1.507724323E0,2.168960571E1,-1.016687584E1,1.140166855E1
1.510213802E0,2.174709892E1,-9.759640694E0,1.060636330E1
1.512703334E0,2.185729027E1,-9.251794815E0,9.873339653E0
1.515192865E0,2.182375336E1,-8.638546944E0,8.982213974E0
1.517682396E0,2.168481445E1,-8.240894318E0,7.813210011E0
1.520171875E0,2.162253189E1,-7.757002831E0,7.070604801E0
1.522661407E0,2.155545807E1,-7.292275906E0,6.141150951E0
1.525150938E0,2.159378624E1,-6.861085892E0,5.379382133E0
1.527353230E0,2.162732315E1,-6.252628803E0,4.986519814E0
1.529837448E0,2.167044258E1,-5.687291145E0,4.603240013E0
1.532321667E0,2.161294937E1,-5.117162228E0,4.272661209E0
1.534805886E0,2.163690567E1,-4.594943047E0,4.152885914E0
1.537290157E0,2.171835136E1,-4.211662769E0,4.057065964E0
1.539774375E0,2.178063583E1,-3.943367004E0,4.033111095E0
1.542258594E0,2.186208153E1,-3.718189955E0,4.071438789E0
1.544742813E0,2.196269226E1,-3.660697937E0,4.167259216E0
1.547227032E0,2.203455734E1,-3.655906916E0,4.239123821E0
1.549711302E0,2.208725929E1,-3.631952047E0,4.267869949E0
1.552195521E0,2.208246803E1,-3.478640079E0,4.349317074E0
1.554679740E0,2.206330490E1,-3.191179991E0,4.440345764E0
1.556869480E0,2.197706604E1,-2.884556055E0,4.435554981E0
1.559353698E0,2.188603783E1,-2.486902952E0,4.421182156E0
1.561837917E0,2.177105331E1,-2.132369041E0,4.349317074E0
1.564322136E0,2.174230766E1,-1.859282017E0,4.349317074E0
1.566806355E0,2.176147079E1,-1.672433019E0,4.282242775E0
1.569290625E0,2.195311165E1,-1.662850976E0,4.287034035E0
1.571774844E0,2.226452637E1,-1.758671045E0,4.373271942E0
1.574259063E0,2.258073235E1,-1.820953965E0,4.416390896E0
1.576743282E0,2.283465576E1,-1.921565056E0,4.454719067E0
1.579227500E0,2.303108597E1,-2.050921917E0,4.473883152E0
1.581711719E0,2.319877052E1,-2.156323910E0,4.425972939E0
1.584195990E0,2.329938126E1,-2.295263052E0,4.272661209E0
1.586423177E0,2.339041138E1,-2.530021906E0,4.100184917E0
1.588907396E0,2.329459190E1,-2.673752069E0,3.779187918E0
1.591391615E0,2.314607048E1,-2.798317909E0,3.352788925E0
1.593875834E0,2.290652084E1,-2.970793962E0,2.830569983E0
1.596360052E0,2.253282166E1,-3.138478994E0,2.293977976E0
1.598844323E0,2.215912437E1,-3.258254051E0,1.881952047E0
1.601328542E0,2.168960571E1,-3.445102930E0,1.393270016E0
1.603812761E0,2.111468506E1,-3.502594948E0,9.956169724E-1
1.606296980E0,2.047269249E1,-3.478640079E0,6.075459719E-1
1.608781198E0,1.987381744E1,-3.449893951E0,3.152950108E-1
1.611265417E0,1.925577736E1,-3.363656044E0,1.524010003E-1
1.613749688E0,1.862815666E1,-3.282208920E0,-1.528399996E-2
1.615980521E0,1.807240105E1,-3.176806927E0,-2.596249878E-1
1.618464740E0,1.755497360E1,-3.076195955E0,-5.566669703E-1
1.620948959E0,1.704233551E1,-3.066613913E0,-8.680819869E-1
1.623433177E0,1.656323624E1,-3.037868023E0,-1.265735030E0
1.625917396E0,1.609371758E1,-3.009121895E0,-1.840654969E0
1.628401667E0,1.563857269E1,-3.076195955E0,-2.434739113E0
1.630885886E0,1.499657917E1,-2.942048073E0,-2.688662052E0
1.633370105E0,1.438812160E1,-2.898929119E0,-2.832391977E0
1.635854323E0,1.404316998E1,-3.047450066E0,-3.033613920E0
1.638338542E0,1.366468143E1,-3.219926119E0,-3.253999949E0
1.640822761E0,1.331972885E1,-3.401983976E0,-3.536669016E0
1.643307032E0,1.291249371E1,-3.493012905E0,-3.785800934E0
1.645537605E0,1.242860317E1,-3.531341076E0,-3.939112902E0
1.648021823E0,1.197345829E1,-3.699026108E0,-4.063679218E0
1.650506042E0,1.150393963E1,-3.727771997E0,-4.049305916E0
1.652990261E0,1.099609375E1,-3.684653044E0,-3.977441072E0
1.655474480E0,1.050741196E1,-3.651115894E0,-3.833710909E0
1.657958750E0,1.008580399E1,-3.593624115E0,-3.642071009E0
1.660442969E0,9.712105751E0,-3.612787962E0,-3.436058044E0
1.662927188E0,9.539629936E0,-3.516968012E0,-3.301909924E0
1.665411407E0,9.079693794E0,-3.622370005E0,-3.143806934E0
1.667895625E0,8.586220741E0,-3.814009905E0,-2.880301952E0
1.670379844E0,8.054420471E0,-3.814009905E0,-2.516185999E0
1.672864115E0,7.527410030E0,-3.722980976E0,-2.108951092E0
1.675126771E0,7.177667141E0,-3.814009905E0,-1.644224048E0
1.677610990E0,6.962071896E0,-3.866710901E0,-1.145959973E0
1.680095209E0,6.918952942E0,-3.928993940E0,-6.237409711E-1
1.682579427E0,7.086637974E0,-4.000858784E0,-2.548339963E-1
1.685063698E0,7.254323006E0,-4.115842819E0,7.095400244E-2
1.687547917E0,7.402843952E0,-4.216454029E0,3.200860023E-1
1.690032136E0,7.560946941E0,-4.307483196E0,4.638159871E-1
1.692516355E0,7.795705795E0,-4.508705139E0,5.069350004E-1
1.695000573E0,7.953808784E0,-4.594943047E0,4.829800129E-1
1.697484844E0,8.226896286E0,-4.719509125E0,3.536230028E-1
1.699969063E0,8.523938179E0,-4.705135822E0,2.242659926E-1
1.702453282E0,8.816188812E0,-4.604525089E0,7.574500144E-2
1.704679792E0,9.098857880E0,-4.585361004E0,-7.756700367E-2
1.707164011E0,9.328825951E0,-4.527869225E0,-3.123260140E-1
1.709648230E0,9.549212456E0,-4.470376968E0,-7.051879764E-1
1.712132448E0,9.712105751E0,-4.499123096E0,-1.054931045E0
1.714616719E0,9.860627174E0,-4.465586185E0,-1.323227048E0
1.717100938E0,1.004747581E1,-4.331438065E0,-1.687343001E0
1.719585157E0,1.006663990E1,-4.288319111E0,-2.027503967E0
1.722069375E0,1.002352142E1,-4.202081203E0,-2.305382013E0
1.724553594E0,9.980401993E0,-4.192499161E0,-2.473067045E0
1.727037865E0,9.865418434E0,-4.096679211E0,-2.535350084E0
1.729522084E0,9.788762093E0,-3.890666008E0,-2.487440109E0
1.732006302E0,9.836671829E0,-3.837965012E0,-2.291008949E0
1.734197761E0,9.922909737E0,-3.761308908E0,-2.037086010E0
1.736681980E0,9.970820427E0,-3.660697937E0,-1.778372049E0
1.739166198E0,1.005705833E1,-3.540923119E0,-1.581941009E0
1.741650417E0,9.956446648E0,-3.560086966E0,-1.625059962E0
1.744134636E0,9.865418434E0,-3.641534090E0,-1.826282024E0
1.746618907E0,9.683360100E0,-3.746936083E0,-1.898146987E0
1.749103125E0,9.491720200E0,-3.804428101E0,-1.864609957E0
1.751587344E0,9.376735687E0,-3.742145061E0,-1.984385014E0
1.754071563E0,9.290497780E0,-3.641534090E0,-2.166443110E0
1.756555782E0,9.137186050E0,-3.531341076E0,-2.113742113E0
1.759040000E0,9.036575317E0,-3.200762033E0,-1.807118058E0
1.761524219E0,8.916799545E0,-2.937257051E0,-1.534031034E0
1.763754844E0,8.739533424E0,-2.908510923E0,-1.351973057E0
1.766239063E0,8.600593567E0,-3.061822891E0,-1.227406979E0
1.768723282E0,8.638921738E0,-3.555295944E0,-9.926480055E-1
1.771207500E0,8.835352898E0,-4.005650043E0,-6.956059933E-1
1.773691719E0,8.979083061E0,-4.317064762E0,-4.512650073E-1
1.776175990E0,9.084485054E0,-4.532660007E0,-1.685959995E-1
1.778660209E0,9.132394791E0,-4.810537815E0,3.632049859E-1
1.781144427E0,9.151558876E0,-5.069252014E0,9.572889805E-1
1.783628646E0,9.314453125E0,-5.093206882E0,1.546581984E0
1.786112865E0,9.894164085E0,-4.599733829E0,2.365843058E0
1.788597084E0,1.014808655E1,-4.566196918E0,2.686840057E0
1.791081355E0,1.017204189E1,-4.992596149E0,2.912017107E0
1.793309375E0,1.023432541E1,-5.375875950E0,3.237804890E0
1.795793594E0,1.028223515E1,-5.811857224E0,3.597130060E0
1.798277813E0,1.018162441E1,-6.175972939E0,3.779187918E0
1.800762032E0,9.946865082E0,-6.132853985E0,3.855844021E0
1.803246250E0,9.692941666E0,-5.538770199E0,3.913336039E0
1.805730521E0,9.352781296E0,-4.753046036E0,3.836679935E0
1.808214740E0,9.022201538E0,-4.173335075E0,3.779187918E0
1.810698959E0,8.835352898E0,-4.034396172E0,3.434236050E0
1.813183177E0,8.739533424E0,-4.307483196E0,2.840152025E0
1.815667396E0,8.739533424E0,-4.652434826E0,2.361052036E0
1.818151615E0,8.773070335E0,-4.906357765E0,1.992144942E0
1.820635886E0,8.907217979E0,-5.121953011E0,1.417225003E0
1.822863438E0,8.974291801E0,-5.203400135E0,5.883820057E-1
1.825347657E0,8.945546150E0,-5.083624840E0,-9.673099965E-2
1.827831875E0,8.753906250E0,-4.815329075E0,-4.225189984E-1
1.830316094E0,8.725159645E0,-4.599733829E0,-4.895929992E-1
1.832800313E0,8.658085823E0,-4.604525089E0,-5.135480165E-1
1.835284584E0,8.533519745E0,-4.729091167E0,-6.093680263E-1
1.837768802E0,8.480818748E0,-4.877612114E0,-7.962170243E-1
1.840253021E0,8.384999275E0,-4.925521851E0,-1.040557981E0
1.842737240E0,8.226896286E0,-4.662016869E0,-1.174705982E0
1.845221459E0,8.116703033E0,-4.408093929E0,-1.342391014E0
1.847705677E0,7.963390827E0,-4.216454029E0,-1.720880032E0
1.850189948E0,7.762168884E0,-4.206871986E0,-2.152070045E0
1.852450990E0,7.503455162E0,-4.230826855E0,-2.382038116E0
1.854935209E0,7.369307041E0,-4.039186954E0,-2.329336882E0
1.857419427E0,7.249532223E0,-3.905039072E0,-2.209562063E0
1.859903646E0,7.254323006E0,-3.871501923E0,-2.348500967E0
1.862387917E0,7.249532223E0,-4.024814129E0,-2.616796970E0
1.864872136E0,7.206412792E0,-4.158961773E0,-2.770108938E0
1.867356355E0,7.215994835E0,-4.288319111E0,-2.909048080E0
1.869840573E0,7.144130230E0,-4.465586185E0,-3.105479002E0
1.872324792E0,6.942907810E0,-4.532660007E0,-3.340238094E0
1.874809063E0,6.679402828E0,-4.623689175E0,-3.555833101E0
1.877293282E0,6.291331768E0,-4.786582947E0,-3.795382977E0
1.879777500E0,5.864933014E0,-4.800955772E0,-3.977441072E0
1.881971250E0,5.376251221E0,-4.705135822E0,-4.044515133E0
1.884455469E0,4.834867954E0,-4.556614876E0,-3.910367012E0
1.886939688E0,4.398887157E0,-4.393721104E0,-3.718727112E0
1.889423907E0,3.972487926E0,-4.364974976E0,-3.642071009E0
1.891908125E0,3.603580952E0,-4.470376968E0,-3.536669016E0
1.894392396E0,3.287374973E0,-4.633271217E0,-3.392939091E0
1.896876615E0,3.105317116E0,-4.762628078E0,-3.215672016E0
1.899360834E0,2.966377974E0,-4.901566982E0,-3.000077009E0
1.901845052E0,2.707664013E0,-4.968640804E0,-2.741363049E0
1.904329271E0,2.506442070E0,-4.987804890E0,-2.487440109E0
1.906813490E0,2.290847063E0,-5.054879189E0,-2.295799971E0
1.909297761E0,2.132744074E0,-5.136325836E0,-2.132905960E0
1.911526823E0,2.080043077E0,-5.289638042E0,-1.931684017E0
1.914011042E0,2.065670013E0,-5.490859985E0,-1.658596992E0
1.916495261E0,2.046505928E0,-5.706455231E0,-1.543612957E0
1.918979480E0,2.036923885E0,-5.974750996E0,-1.356763959E0
1.921463698E0,2.056087971E0,-6.228673935E0,-1.160333037E0
1.923947969E0,2.080043077E0,-6.535297871E0,-1.045349002E0
1.926432188E0,2.084834099E0,-6.889832020E0,-1.054931045E0
1.928916407E0,1.945894957E0,-7.225202084E0,-1.050140023E0
1.931400625E0,1.696763039E0,-7.555780888E0,-1.045349002E0
1.933884844E0,1.356601954E0,-7.776166916E0,-1.002230048E0
1.936369063E0,1.030814052E0,-7.982180119E0,-9.399470091E-1
1.938853334E0,7.433540225E-1,-8.154656410E0,-8.105900288E-1
1.941079427E0,4.798490107E-1,-8.245684624E0,-6.860240102E-1
1.943563646E0,1.684339941E-1,-8.298385620E0,-5.231299996E-1
1.946047865E0,-7.590699941E-2,-8.322340965E0,-3.314900100E-1
1.948532084E0,-4.160679877E-1,-8.341505051E0,-3.923900053E-2
1.951016302E0,-6.460360289E-1,-8.279221535E0,1.619829983E-1
1.953500573E0,-8.424670100E-1,-8.149865150E0,2.673850060E-1
1.955984792E0,-1.110762954E0,-8.145073891E0,4.350700080E-1
1.958469011E0,-1.230538011E0,-8.145073891E0,5.404719710E-1
1.960953230E0,-1.192209959E0,-8.039671898E0,7.800220251E-1
1.963437448E0,-1.038897991E0,-7.924687862E0,8.662599921E-1
1.965921667E0,-1.182628036E0,-8.154656410E0,9.620800018E-1
1.968405938E0,-1.225746989E0,-8.274431229E0,1.206421018E0
1.970644427E0,-1.101181030E0,-8.188193321E0,1.402852058E0
1.973128646E0,-8.472579718E-1,-7.924687862E0,1.263913035E0
1.975612865E0,-6.891549826E-1,-8.010926247E0,8.662599921E-1
1.978097084E0,-2.627559900E-1,-8.111536980E0,5.021439791E-1
1.980581302E0,3.504920006E-1,-8.365460396E0,1.571920067E-1
1.983065573E0,1.021232009E0,-8.547517776E0,-1.302679926E-1
1.985549792E0,1.490749955E0,-8.906843185E0,-3.985640109E-1
1.988034011E0,1.926730990E0,-9.294914246E0,-3.410719931E-1
1.990518230E0,2.487277985E0,-9.553627968E0,-1.590140015E-1
1.993002448E0,3.095735073E0,-9.898579597E0,3.775779903E-1
1.995486667E0,3.656281948E0,-1.006147385E1,1.297449946E0
1.997970938E0,4.130590916E0,-9.888998032E0,1.929862022E0
2.000192448E0,4.595317841E0,-9.639865875E0,2.399379969E0
2.002676667E0,5.069626808E0,-9.534463882E0,2.983881950E0
2.005160886E0,5.486443996E0,-9.515299797E0,3.371953011E0
2.007645105E0,5.788277149E0,-9.620701790E0,3.635457993E0
2.010129323E0,6.157184124E0,-9.740476608E0,3.922918081E0
2.012613594E0,6.521299839E0,-9.860252380E0,4.023529053E0
2.015097813E0,6.904580116E0,-9.951280594E0,4.057065964E0
2.017582032E0,7.311814785E0,-1.009022045E1,4.066648006E0
2.020066250E0,7.570528984E0,-1.018603992E1,4.186422825E0
2.022550469E0,7.814869881E0,-1.017166710E1,4.402018070E0
2.025034688E0,7.972972870E0,-1.017645836E1,4.675105095E0
2.027518959E0,8.126284599E0,-1.022915936E1,4.967356205E0
2.029740782E0,8.332298279E0,-1.018124866E1,5.178160191E0
2.032225000E0,8.447281837E0,-1.019083118E1,5.398546219E0
2.034709219E0,8.629340172E0,-1.036809826E1,5.700378895E0
2.037193438E0,8.883262634E0,-1.039684391E1,5.868063927E0
2.039677657E0,9.089276314E0,-1.042079926E1,5.800990105E0
2.042161927E0,9.400691032E0,-1.045433617E1,5.527903080E0
2.044646146E0,9.793553352E0,-1.048308182E1,5.058384895E0
2.047130365E0,1.025827980E1,-1.051182842E1,4.521792889E0
2.049614584E0,1.069426060E1,-1.044954491E1,4.085812092E0
2.052098802E0,1.111107826E1,-1.038247108E1,3.783978939E0
2.054583021E0,1.157101440E1,-1.013813019E1,3.621084929E0
2.057067292E0,1.203094959E1,-9.865042686E0,3.381535053E0
2.059296927E0,1.248609543E1,-9.668611526E0,3.151566982E0
2.061781146E0,1.281667423E1,-9.582373619E0,2.883270979E0
2.064265365E0,1.301789570E1,-9.577583313E0,2.667675972E0
2.066749584E0,1.306101513E1,-9.582373619E0,2.557482958E0
2.069233802E0,1.298915005E1,-9.654238701E0,2.552691936E0
2.071718073E0,1.288853931E1,-9.711730957E0,2.571856022E0
2.074202292E0,1.285979271E1,-9.687775612E0,2.619765997E0
2.076686511E0,1.271606255E1,-9.711730957E0,2.696422100E0
2.079170730E0,1.267773533E1,-9.735686302E0,2.873688936E0
2.081654948E0,1.271127224E1,-9.673402786E0,3.094074965E0
2.084139167E0,1.272564507E1,-9.568000793E0,3.233014107E0
2.086623438E0,1.270648098E1,-9.453017235E0,3.309669971E0
2.088854375E0,1.271606255E1,-9.299704552E0,3.333625078E0
2.091334323E0,1.273043633E1,-9.323659897E0,3.343206882E0
2.093814271E0,1.274480915E1,-9.376360893E0,3.338416100E0
2.096294167E0,1.284062862E1,-9.390733719E0,3.194685936E0
2.098774115E0,1.296519470E1,-9.500926971E0,3.022209883E0
2.101254011E0,1.320474529E1,-9.591956139E0,2.806615114E0
2.103733959E0,1.356886101E1,-9.654238701E0,2.485618114E0
2.106213907E0,1.394734955E1,-9.520091057E0,2.140666008E0
2.108693802E0,1.432583904E1,-9.381152153E0,1.661566019E0
2.111173750E0,1.450789738E1,-9.251794815E0,9.429159760E-1
2.113653646E0,1.441686821E1,-9.333242416E0,-2.979530096E-1
2.116133594E0,1.443124104E1,-9.141601562E0,-9.495289922E-1
2.118407032E0,1.437374878E1,-8.801441193E0,-1.572358966E0
2.120886980E0,1.429230213E1,-8.475652695E0,-2.243098974E0
2.123366927E0,1.429709339E1,-8.202566147E0,-2.506603956E0
2.125846823E0,1.445519638E1,-7.948643208E0,-2.535350084E0
2.128326771E0,1.461808968E1,-7.656392097E0,-2.348500967E0
2.130806667E0,1.458934402E1,-7.469542980E0,-2.655124903E0
2.133286615E0,1.447436047E1,-7.349768162E0,-3.292327881E0
2.135766563E0,1.431146622E1,-7.282693863E0,-3.939112902E0
2.138246459E0,1.408149815E1,-7.177291870E0,-4.561943054E0
2.140726407E0,1.389943981E1,-7.182083130E0,-5.064998150E0
2.143206302E0,1.370300865E1,-7.138964176E0,-5.520143032E0
2.145686250E0,1.347304058E1,-7.081471920E0,-5.980079174E0
2.147958855E0,1.320474529E1,-7.000024796E0,-6.310657978E0
2.150438802E0,1.288853931E1,-6.865877151E0,-6.550208092E0
2.152918750E0,1.251004982E1,-6.760475159E0,-6.780176163E0
2.155398646E0,1.212677002E1,-6.626327038E0,-7.134709835E0
2.157878594E0,1.173869896E1,-6.487388134E0,-7.527572155E0
2.160358490E0,1.137937355E1,-6.391568184E0,-7.805449963E0
2.162838438E0,1.107754135E1,-6.257420063E0,-8.083328247E0
2.165318386E0,1.079966259E1,-6.046616077E0,-8.222267151E0
2.167798282E0,1.034930897E1,-5.845394135E0,-8.279759407E0
2.170278230E0,9.582749367E0,-5.519606113E0,-8.519309044E0
2.172758125E0,8.974291801E0,-4.997386932E0,-8.835515022E0
2.175238073E0,8.576639175E0,-4.628479958E0,-8.825933456E0
2.177513750E0,8.164612770E0,-4.211662769E0,-8.864260674E0
2.179993698E0,7.857988834E0,-3.924202919E0,-9.237958908E0
2.182473646E0,7.992136955E0,-3.857129097E0,-9.434390068E0
2.184953542E0,8.581430435E0,-3.905039072E0,-8.682203293E0
2.187433490E0,9.343198776E0,-4.043978214E0,-7.724002838E0
2.189913386E0,1.032535362E1,-4.197289944E0,-7.240111828E0
2.192393334E0,1.110628700E1,-4.230826855E0,-7.110754967E0
2.194873282E0,1.180577278E1,-4.149380207E0,-7.283230782E0
2.197353177E0,1.206448746E1,-3.905039072E0,-8.102492332E0
2.199833125E0,1.221779919E1,-3.732563019E0,-8.936125755E0
2.202313021E0,1.223696327E1,-3.560086966E0,-9.693103790E0
2.204792969E0,1.254358673E1,-3.488221884E0,-9.817669868E0
2.207067084E0,1.287416553E1,-3.401983976E0,-9.894326210E0
2.209547032E0,1.302747822E1,-3.291790962E0,-9.669149399E0
2.212026980E0,1.283583832E1,-3.138478994E0,-9.352943420E0
2.214506875E0,1.251484108E1,-3.057032108E0,-9.261914253E0
2.216986823E0,1.236152935E1,-3.057032108E0,-9.300242424E0
2.219466719E0,1.239985657E1,-3.191179991E0,-9.587701797E0
2.221946667E0,1.261066055E1,-3.421148062E0,-9.261914253E0
2.224426615E0,1.238069344E1,-3.368447065E0,-9.175676346E0
2.226906511E0,1.187763786E1,-3.195971012E0,-9.051110268E0
2.229386459E0,1.128834534E1,-3.191179991E0,-8.926544189E0
2.231866355E0,1.091464710E1,-3.339700937E0,-8.869051933E0
2.234346302E0,1.068467903E1,-3.703816891E0,-8.974453926E0
2.236623177E0,1.058406830E1,-3.957740068E0,-9.194840431E0
2.239103125E0,1.033972740E1,-4.015232086E0,-9.324196815E0
2.241583073E0,1.026307106E1,-4.168543816E0,-9.333779335E0
2.244062969E0,1.007143116E1,-4.269155025E0,-9.616448402E0
2.246542917E0,9.678568840E0,-4.221244812E0,-9.635611534E0
2.249022813E0,9.429436684E0,-4.173335075E0,-9.348152161E0
2.251502761E0,9.070112228E0,-4.067933083E0,-9.319405556E0
2.253982709E0,8.658085823E0,-4.034396172E0,-9.084647179E0
2.256462605E0,8.202940941E0,-3.967322111E0,-8.821142197E0
2.258942552E0,7.915481091E0,-3.914621115E0,-8.543264389E0
2.261422448E0,7.814869881E0,-3.814009905E0,-7.915643215E0
2.263902396E0,7.489081860E0,-3.924202919E0,-7.628182888E0
2.266214480E0,7.124966145E0,-4.111052036E0,-7.034099102E0
2.268694427E0,6.684194088E0,-4.173335075E0,-6.540626049E0
2.271174375E0,6.171556950E0,-4.226036072E0,-6.104644775E0
2.273654271E0,5.706830025E0,-4.398511887E0,-5.726156235E0
2.276134219E0,5.299594879E0,-4.551824093E0,-5.266220093E0
2.278614115E0,5.117537022E0,-4.614107132E0,-4.763164997E0
2.281094063E0,4.940269947E0,-4.628479958E0,-4.537988186E0
2.283574011E0,4.810913086E0,-4.628479958E0,-4.149917126E0
2.286053907E0,4.724675179E0,-4.585361004E0,-3.589370012E0
2.288533855E0,4.528244019E0,-4.566196918E0,-2.961749077E0
2.291013750E0,4.470751762E0,-4.604525089E0,-2.463485003E0
2.293493698E0,4.111426830E0,-4.465586185E0,-2.468276024E0
2.295732813E0,3.656281948E0,-4.230826855E0,-2.573678017E0
2.298212761E0,3.507761002E0,-4.197289944E0,-2.679080009E0
2.300692709E0,3.555670977E0,-4.364974976E0,-2.674288988E0
2.303172605E0,3.871876955E0,-4.479959011E0,-2.559304953E0
2.305652552E0,4.480333805E0,-4.451212883E0,-2.453902960E0
2.308132448E0,4.916315079E0,-4.297901154E0,-2.707825899E0
2.310612396E0,5.232521057E0,-4.216454029E0,-3.067151070E0
2.313092344E0,5.443325043E0,-4.043978214E0,-3.402520895E0
2.315572240E0,5.615800858E0,-4.139798164E0,-3.795382977E0
2.318052188E0,5.754740238E0,-4.125424862E0,-4.063679218E0
2.320532084E0,5.740366936E0,-4.024814129E0,-4.341557026E0
2.323012032E0,5.687665939E0,-4.034396172E0,-4.619434834E0
2.325288282E0,5.663711071E0,-3.981694937E0,-4.835030079E0
2.327768230E0,5.644546986E0,-3.823591948E0,-5.060206890E0
2.330248177E0,5.601428032E0,-3.713398933E0,-5.256638050E0
2.332728073E0,5.505608082E0,-3.631952047E0,-5.381204128E0
2.335208021E0,5.539144993E0,-3.622370005E0,-5.783648014E0
2.337687917E0,5.563099861E0,-3.631952047E0,-6.075899124E0
2.340167865E0,5.304386139E0,-3.852338076E0,-6.095063210E0
2.342647813E0,5.012135029E0,-4.249990940E0,-5.750111103E0
2.345127709E0,4.949851990E0,-4.484749794E0,-5.735737801E0
2.347607657E0,4.772584915E0,-4.614107132E0,-5.927378178E0
2.350087552E0,4.537826061E0,-4.762628078E0,-5.960915089E0
2.352567500E0,4.264739037E0,-4.935103893E0,-5.932168961E0
2.354850938E0,3.972487926E0,-5.256101131E0,-5.280592918E0
2.357330886E0,3.747311115E0,-5.476487160E0,-4.926058769E0
2.359810834E0,3.675446033E0,-5.471695900E0,-4.585897923E0
2.362290730E0,3.546088934E0,-5.414204121E0,-4.384675980E0
2.364770677E0,3.373613119E0,-5.361503124E0,-4.063679218E0
2.367250573E0,3.023869991E0,-5.351921082E0,-3.388148069E0
2.369730521E0,2.755573988E0,-5.510024071E0,-2.367665052E0
2.372210469E0,2.592679977E0,-5.490859985E0,-1.725671053E0
2.374690365E0,2.659754038E0,-5.553143024E0,-1.625059962E0
2.377170313E0,2.626216888E0,-5.610634804E0,-1.462165952E0
2.379650209E0,2.487277985E0,-5.682499886E0,-1.217825055E0
2.382130157E0,2.592679977E0,-5.883721828E0,-1.011811972E0
2.384409480E0,2.985542059E0,-5.888513088E0,-6.908149719E-1
2.386889427E0,3.589207888E0,-5.878931046E0,-6.476960182E-1
2.389369375E0,4.025188923E0,-6.214301109E0,-9.351559877E-1
2.391849271E0,4.432424068E0,-6.420313835E0,-8.968279958E-1
2.394329219E0,4.834867954E0,-6.525715828E0,-1.026185036E0
2.396809115E0,5.256475925E0,-6.583208084E0,-1.093258977E0
2.399289063E0,5.472071171E0,-6.683818817E0,-1.284898996E0
2.401769011E0,5.869723797E0,-6.731729031E0,-1.577149987E0
2.404248907E0,6.042200089E0,-6.544879913E0,-1.625059962E0
2.406728855E0,6.075737000E0,-6.305329800E0,-1.193869948E0
2.409208750E0,6.243422031E0,-6.161600113E0,-9.159920216E-1
2.411688698E0,6.449435234E0,-6.209509850E0,-1.390300989E0
2.413960782E0,6.736895084E0,-6.113689899E0,-2.104160070E0
2.416440730E0,6.995608807E0,-5.969960213E0,-2.281426907E0
2.418920677E0,7.254323006E0,-5.792693138E0,-2.535350084E0
2.421400573E0,7.474709034E0,-5.490859985E0,-3.000077009E0
2.423880521E0,7.330978870E0,-5.313592911E0,-3.579787970E0
2.426360417E0,7.354934216E0,-5.083624840E0,-4.039723873E0
2.428840365E0,7.666348934E0,-4.930313110E0,-3.862457037E0
2.431320313E0,7.647184849E0,-4.915939808E0,-4.178662777E0
2.433800209E0,7.498663902E0,-4.858448029E0,-4.609852791E0
2.436280157E0,7.992136955E0,-5.145907879E0,-4.370303154E0
2.438760052E0,8.356252670E0,-5.701663971E0,-4.547570229E0
2.441240000E0,8.591012001E0,-5.768737793E0,-4.911685944E0
2.443518230E0,8.327507019E0,-5.548351765E0,-5.395576954E0
2.445998177E0,7.699885845E0,-5.136325836E0,-5.649499893E0
2.448478125E0,7.762168884E0,-5.083624840E0,-5.941751003E0
2.450958021E0,7.747796059E0,-5.136325836E0,-5.836349010E0
2.453437969E0,7.469917774E0,-5.059669971E0,-5.778857231E0
2.455917865E0,7.148921013E0,-4.915939808E0,-5.869885921E0
2.458397813E0,7.038728237E0,-4.729091167E0,-5.889050007E0
2.460877761E0,7.153711796E0,-4.456004143E0,-5.927378178E0
2.463357657E0,7.177667141E0,-4.211662769E0,-5.989661217E0
2.465837605E0,6.952489853E0,-3.804428101E0,-6.243584156E0
2.468317500E0,6.569210052E0,-3.478640079E0,-6.406477928E0
2.470797448E0,6.219467163E0,-3.176806927E0,-6.401687145E0
2.473067761E0,5.999081135E0,-2.951630116E0,-6.344194889E0
2.475547709E0,5.970335007E0,-2.874974012E0,-6.468760967E0
2.478027657E0,6.128437996E0,-2.942048073E0,-6.502297878E0
2.480507552E0,6.281750202E0,-3.033077002E0,-6.329822063E0
2.482987500E0,6.401525021E0,-3.095360041E0,-6.027988911E0
2.485467396E0,6.502136230E0,-3.215135098E0,-5.620753765E0
2.487947344E0,6.732103825E0,-3.473849058E0,-5.007505894E0
2.490427292E0,6.794386864E0,-3.603205919E0,-4.351139069E0
2.492907188E0,6.856669903E0,-3.713398933E0,-3.991813898E0
2.495387136E0,6.875833988E0,-3.828382969E0,-3.819338083E0
2.497867032E0,6.861461163E0,-3.914621115E0,-3.804965019E0
2.500346980E0,6.856669903E0,-3.847547054E0,-3.872039080E0
2.502615417E0,6.818342209E0,-3.790055037E0,-3.924740076E0
2.505095365E0,6.693776131E0,-3.722980976E0,-4.010978222E0
2.507575313E0,6.631493092E0,-3.756517887E0,-3.895993948E0
2.510055209E0,6.655447960E0,-3.857129097E0,-3.675607920E0
2.512535157E0,6.621911049E0,-3.962531090E0,-3.670816898E0
2.515015052E0,6.574000835E0,-3.967322111E0,-3.785800934E0
2.517495000E0,6.473390102E0,-3.957740068E0,-3.872039080E0
2.519974948E0,6.420689106E0,-3.890666008E0,-4.030141830E0
2.522454844E0,6.530881882E0,-3.861920118E0,-4.250527859E0
2.524934792E0,6.660239220E0,-3.837965012E0,-4.514032841E0
2.527414688E0,6.760849953E0,-3.761308908E0,-4.715254784E0
2.529894636E0,6.818342209E0,-3.684653044E0,-5.002715111E0
2.532167865E0,6.851879120E0,-3.607996941E0,-5.156026840E0
2.534647813E0,6.957281113E0,-3.550504923E0,-5.366830826E0
2.537127761E0,7.091429234E0,-3.560086966E0,-5.539307117E0
2.539607657E0,7.239950180E0,-3.617578983E0,-5.774065971E0
2.542087605E0,7.388471127E0,-3.622370005E0,-5.913004875E0
2.544567500E0,7.594483852E0,-3.569669008E0,-6.047152996E0
2.547047448E0,7.781332970E0,-3.574460030E0,-6.090271950E0
2.549527396E0,7.915481091E0,-3.536132097E0,-6.210046768E0
2.552007292E0,8.064002037E0,-3.459475994E0,-6.329822063E0
2.554487240E0,8.222105026E0,-3.411566019E0,-6.406477928E0
2.556967136E0,8.389789581E0,-3.349282980E0,-6.521461964E0
2.559447084E0,8.557475090E0,-3.234298944E0,-6.511879921E0
2.561723125E0,8.701205254E0,-3.267836094E0,-6.425642014E0
2.564203073E0,8.806607246E0,-3.349282980E0,-6.291493893E0
2.566683021E0,8.892845154E0,-3.454684973E0,-6.095063210E0
2.569162917E0,8.964710236E0,-3.550504923E0,-5.884259224E0
2.571642865E0,8.940754890E0,-3.670279980E0,-5.683036804E0
2.574122761E0,8.916799545E0,-3.732563019E0,-5.491396904E0
2.576602709E0,8.816188812E0,-3.818800926E0,-5.266220093E0
2.579082657E0,8.701205254E0,-3.833173990E0,-4.945222855E0
2.581562552E0,8.552683830E0,-3.909830093E0,-4.633808136E0
2.584042500E0,8.399372101E0,-3.919411898E0,-4.317602158E0
2.586522396E0,8.207732201E0,-3.972112894E0,-4.025351048E0
2.589002344E0,8.006509781E0,-4.000858784E0,-3.689980984E0
2.591278646E0,7.733423233E0,-4.048768997E0,-3.388148069E0
2.593755157E0,7.455544949E0,-4.106260777E0,-3.067151070E0
2.596231667E0,7.211204052E0,-4.158961773E0,-2.880301952E0
2.598708177E0,6.904580116E0,-4.206871986E0,-2.798855066E0
2.601184688E0,6.660239220E0,-4.216454029E0,-2.770108938E0
2.603661250E0,6.454226017E0,-4.178125858E0,-2.655124903E0
2.606137761E0,6.190721035E0,-4.149380207E0,-2.726989985E0
2.608614271E0,5.960752964E0,-4.163753033E0,-2.856347084E0
2.611090782E0,5.807441235E0,-4.135006905E0,-3.000077009E0
2.613567292E0,5.687665939E0,-4.106260777E0,-3.110270023E0
2.616043802E0,5.658919811E0,-4.087097168E0,-3.196507931E0
2.618520313E0,5.649337769E0,-4.058351040E0,-3.345029116E0
2.620833698E0,5.735576153E0,-4.058351040E0,-3.349819899E0
2.623310209E0,5.817022800E0,-4.020022869E0,-3.479176998E0
2.625786719E0,5.864933014E0,-4.058351040E0,-3.632488966E0
2.628263230E0,5.922424793E0,-4.082305908E0,-3.689980984E0
2.630739740E0,6.008663177E0,-4.077515125E0,-3.838501930E0
2.633216302E0,6.171556950E0,-3.957740068E0,-4.058887959E0
2.635692813E0,6.344032764E0,-3.809218884E0,-4.456541061E0
2.638169323E0,6.502136230E0,-3.660697937E0,-4.868566990E0
2.640645834E0,6.827923775E0,-3.536132097E0,-5.232683182E0
2.643122344E0,7.029146194E0,-3.425939083E0,-5.548889160E0
2.645598855E0,7.398053169E0,-3.382819891E0,-5.821976185E0
2.648075365E0,7.690303802E0,-3.406774998E0,-6.080689907E0
2.650388750E0,8.116703033E0,-3.430730104E0,-6.176509857E0
2.652865261E0,8.538311005E0,-3.574460030E0,-6.253166199E0
2.655341771E0,9.122813225E0,-3.718189955E0,-6.214838028E0
2.657818282E0,9.554002762E0,-3.885874987E0,-6.195673943E0
2.660294792E0,9.736061096E0,-3.981694937E0,-6.243584156E0
2.662771355E0,9.568375587E0,-4.135006905E0,-6.344194889E0
2.665247865E0,9.300080299E0,-4.269155025E0,-6.315449238E0
2.667724375E0,9.122813225E0,-4.388929844E0,-6.368150234E0
2.670200886E0,8.921590805E0,-4.422467232E0,-6.238792896E0
2.672677396E0,8.816188812E0,-4.451212883E0,-6.071107864E0
2.675153907E0,8.806607246E0,-4.475168228E0,-5.754901886E0
2.677630417E0,8.825771332E0,-4.398511887E0,-5.563261986E0
2.679942865E0,8.983874321E0,-4.364974976E0,-5.294966221E0
2.682419375E0,8.959918976E0,-4.273945808E0,-5.103325844E0
2.684895886E0,9.094066620E0,-4.283527851E0,-4.835030079E0
2.687372396E0,9.223423958E0,-4.317064762E0,-4.672135830E0
2.689848907E0,9.295289040E0,-4.326646805E0,-4.490077972E0
2.692325469E0,9.424646378E0,-4.364974976E0,-4.245737076E0
2.694801980E0,9.458183289E0,-4.417675972E0,-4.030141830E0
2.697278490E0,9.415063858E0,-4.532660007E0,-3.862457037E0
2.699755000E0,9.362362862E0,-4.518287182E0,-3.709145069E0
2.702231511E0,9.290497780E0,-4.518287182E0,-3.541460037E0
2.704708021E0,9.132394791E0,-4.566196918E0,-3.426476002E0
2.707184532E0,9.031784058E0,-4.551824093E0,-3.349819899E0
2.709496719E0,8.782651901E0,-4.537450790E0,-3.426476002E0
2.711973230E0,8.495191574E0,-4.537450790E0,-3.479176998E0
2.714449740E0,8.222105026E0,-4.566196918E0,-3.527086973E0
2.716926250E0,7.925063133E0,-4.561406136E0,-3.546251059E0
2.719402761E0,7.647184849E0,-4.547032833E0,-3.613325119E0
2.721879323E0,7.417216778E0,-4.513495922E0,-3.728308916E0
2.724355834E0,7.158503056E0,-4.499123096E0,-3.737890959E0
2.726832344E0,6.832715034E0,-4.441630840E0,-3.790591955E0
2.729308855E0,6.506927013E0,-4.412885189E0,-3.943903923E0
2.731785365E0,6.267376900E0,-4.369766235E0,-3.943903923E0
2.734261875E0,6.027826786E0,-4.288319111E0,-4.010978222E0
2.736738386E0,5.869723797E0,-4.240408897E0,-4.082842827E0
2.739050313E0,5.778695107E0,-4.168543816E0,-4.145125866E0
2.741526823E0,5.721202850E0,-4.096679211E0,-4.250527859E0
2.744003334E0,5.687665939E0,-3.996068001E0,-4.499660015E0
2.746479844E0,5.682875156E0,-3.790055037E0,-4.763164997E0
2.748956355E0,5.817022800E0,-3.727771997E0,-4.887731075E0
2.751432917E0,5.941588879E0,-3.655906916E0,-5.285384178E0
2.753909427E0,6.066154957E0,-3.569669008E0,-5.687828064E0
2.756385938E0,6.257794857E0,-3.512176991E0,-6.109436035E0
2.758862448E0,6.535673141E0,-3.545713902E0,-6.363358974E0
2.761338959E0,6.827923775E0,-3.689444065E0,-6.483133793E0
2.763815469E0,7.129756927E0,-3.861920118E0,-6.679564953E0
2.766291980E0,7.450754166E0,-4.005650043E0,-6.703519821E0
2.768603907E0,7.857988834E0,-4.178125858E0,-6.626863956E0
2.771080417E0,8.270014763E0,-4.341020107E0,-6.511879921E0
2.773556927E0,8.514355659E0,-4.503913879E0,-6.382523060E0
2.776033438E0,8.729950905E0,-4.604525089E0,-6.257956982E0
2.778509948E0,8.844935417E0,-4.638062000E0,-6.171719074E0
2.780986511E0,8.907217979E0,-4.743463993E0,-6.004034042E0
2.783463021E0,8.859308243E0,-4.748254776E0,-5.754901886E0
2.785939532E0,8.806607246E0,-4.810537815E0,-5.663873196E0
2.788416042E0,8.662877083E0,-4.868030071E0,-5.500978947E0
2.790892552E0,8.605384827E0,-4.834493160E0,-5.304547787E0
2.793369063E0,8.140658379E0,-4.920731068E0,-4.983551025E0
2.795845573E0,8.174195290E0,-4.930313110E0,-4.633808136E0
2.798155000E0,7.857988834E0,-5.050087929E0,-4.221782207E0
2.800631511E0,7.551364899E0,-5.002178192E0,-3.795382977E0
2.803108021E0,7.412425995E0,-5.054879189E0,-3.527086973E0
2.805584532E0,6.938117027E0,-5.002178192E0,-3.105479002E0
2.808061042E0,6.990818024E0,-5.093206882E0,-2.980912924E0
2.810537605E0,6.712940216E0,-5.016551018E0,-2.583260059E0
2.813014115E0,7.287859917E0,-4.968640804E0,-2.377247095E0
2.815490625E0,7.364515781E0,-4.844075203E0,-2.176024914E0
2.817967136E0,7.259113789E0,-4.949477196E0,-2.152070045E0
2.820443646E0,7.441172123E0,-4.930313110E0,-2.137696981E0
2.822920157E0,7.263905048E0,-5.050087929E0,-2.003549099E0
2.825396667E0,7.321396828E0,-5.030923843E0,-2.314964056E0
2.827718490E0,7.019564152E0,-5.141117096E0,-2.511394978E0
2.830195000E0,7.096220016E0,-5.107580185E0,-2.851556063E0
2.832671511E0,6.827923775E0,-5.232145786E0,-2.889883995E0
2.835148021E0,6.942907810E0,-5.212982178E0,-3.139015913E0
2.837624532E0,6.775222778E0,-5.078834057E0,-3.364192963E0
2.840101094E0,6.688984871E0,-4.983014107E0,-3.392939091E0
2.842577605E0,6.808760166E0,-4.973432064E0,-3.565414906E0
2.845054115E0,6.784804821E0,-5.006968975E0,-3.771428108E0
2.847530625E0,6.722521782E0,-4.930313110E0,-3.934322119E0
2.850007136E0,6.703358173E0,-4.920731068E0,-4.236155033E0
2.852483646E0,6.650657177E0,-4.868030071E0,-4.451749802E0
2.854960157E0,6.521299839E0,-4.853656769E0,-4.839820862E0
2.857267917E0,6.401525021E0,-5.102788925E0,-5.309339046E0
2.859744427E0,6.665030003E0,-5.385457993E0,-5.649499893E0
2.862220938E0,7.005190849E0,-5.668127060E0,-5.980079174E0
2.864697448E0,7.033936977E0,-5.888513088E0,-6.085481167E0
2.867173959E0,6.942907810E0,-6.219091892E0,-6.119018078E0
2.869650521E0,5.697247982E0,-6.477806091E0,-5.429113865E0
2.872127032E0,4.509079933E0,-6.549671173E0,-5.088953018E0
2.874603542E0,4.212038040E0,-6.492178917E0,-4.945222855E0
2.877080052E0,4.188083172E0,-6.334075928E0,-5.179982185E0
2.879556563E0,4.288693905E0,-6.439477921E0,-5.496188164E0
2.882033073E0,4.360558987E0,-6.655073166E0,-5.630335808E0
2.884509584E0,4.648018837E0,-6.956905842E0,-5.869885921E0
2.886822188E0,4.921105862E0,-7.052725792E0,-6.013616085E0
2.889298698E0,5.189402103E0,-7.191665173E0,-6.032780170E0
2.891775209E0,5.510398865E0,-7.297067165E0,-5.831558228E0
2.894251719E0,5.941588879E0,-7.268321037E0,-5.568052769E0
2.896728230E0,6.238630772E0,-7.225202084E0,-5.342875957E0
2.899204792E0,6.377570152E0,-7.014398098E0,-5.069788933E0
2.901681302E0,6.578792095E0,-6.870667934E0,-4.767955780E0
2.904157813E0,6.775222778E0,-6.736519814E0,-4.547570229E0
2.906634323E0,6.923744202E0,-6.568834782E0,-4.351139069E0
2.909110834E0,6.986026764E0,-6.439477921E0,-4.116380215E0
2.911587344E0,7.000400066E0,-6.271792889E0,-4.073260784E0
2.914063855E0,6.938117027E0,-6.195137024E0,-3.828919888E0
2.916373177E0,7.043519020E0,-6.132853985E0,-3.704354048E0
2.918849688E0,7.101010799E0,-6.118481159E0,-3.642071009E0
2.921326198E0,7.019564152E0,-6.123271942E0,-3.733099937E0
2.923802709E0,6.957281113E0,-6.118481159E0,-3.766637087E0
2.926279219E0,7.053101063E0,-6.089735031E0,-3.776218891E0
2.928755782E0,6.995608807E0,-6.046616077E0,-3.804965019E0
2.931232292E0,6.904580116E0,-5.974750996E0,-3.733099937E0
2.933708802E0,6.875833988E0,-5.969960213E0,-3.800173998E0
2.936185313E0,6.871043205E0,-6.046616077E0,-3.886411905E0
2.938661823E0,6.794386864E0,-5.989123821E0,-4.015769005E0
2.941138334E0,7.033936977E0,-5.984333038E0,-4.154707909E0
2.943614844E0,7.182457924E0,-5.902885914E0,-4.183454037E0
2.945929480E0,7.134548187E0,-5.811857224E0,-4.154707909E0
2.948405990E0,7.072265148E0,-5.807065964E0,-4.164289951E0
2.950882500E0,6.928534985E0,-5.744782925E0,-4.279273987E0
2.953359011E0,6.794386864E0,-5.644172192E0,-4.298438072E0
2.955835521E0,6.569210052E0,-5.586679935E0,-4.159499168E0
2.958312084E0,6.387152195E0,-5.500442028E0,-4.020559788E0
2.960788594E0,6.272168159E0,-5.548351765E0,-3.958276987E0
2.963265105E0,5.984707832E0,-5.557933807E0,-4.006186962E0
2.965741615E0,5.999081135E0,-5.591471195E0,-4.097216129E0
2.968218125E0,5.802649975E0,-5.586679935E0,-4.116380215E0
2.970694636E0,5.769113064E0,-5.553143024E0,-4.049305916E0
2.973171146E0,5.788277149E0,-5.562725067E0,-3.958276987E0
2.975483594E0,5.639756203E0,-5.615426064E0,-3.867248058E0
2.977960105E0,5.759531021E0,-5.677709103E0,-3.819338083E0
2.980436615E0,5.754740238E0,-5.783111095E0,-3.757055044E0
2.982913125E0,5.817022800E0,-5.898095131E0,-3.771428108E0
2.985389636E0,5.778695107E0,-5.845394135E0,-3.891202927E0
2.987866198E0,5.821814060E0,-5.807065964E0,-4.097216129E0
2.990342709E0,5.965544224E0,-5.807065964E0,-4.260109901E0
2.992819219E0,6.219467163E0,-5.763947010E0,-4.293646812E0
2.995295730E0,6.554837227E0,-5.625008106E0,-4.346347809E0
2.997772240E0,6.971653938E0,-5.596261978E0,-4.375093937E0
3.000248750E0,7.311814785E0,-5.514814854E0,-4.499660015E0
3.002725261E0,7.642394066E0,-5.486069202E0,-4.576315880E0
3.005035052E0,8.001719475E0,-5.433368206E0,-4.657763004E0
3.007511563E0,8.370626450E0,-5.428576946E0,-4.734418869E0
3.009988073E0,8.658085823E0,-5.414204121E0,-4.882939816E0
3.012464584E0,8.864098549E0,-5.385457993E0,-4.988341808E0
3.014941094E0,9.079693794E0,-5.409412861E0,-5.141654015E0
3.017417657E0,9.194678307E0,-5.495650768E0,-5.271010876E0
3.019894115E0,9.400691032E0,-5.620216846E0,-5.419531822E0
3.022370677E0,9.640240669E0,-5.768737793E0,-5.539307117E0
3.024847188E0,9.783970833E0,-5.922049999E0,-5.692618847E0
3.027323698E0,9.831880569E0,-6.008287907E0,-5.812394142E0
3.029800209E0,9.855835915E0,-6.075362206E0,-5.946541786E0
3.032276719E0,9.779179573E0,-6.267002106E0,-5.970497131E0
3.034594063E0,9.496511459E0,-6.415523052E0,-6.018406868E0
3.037070573E0,9.103649139E0,-6.496970177E0,-6.162137032E0
3.039547084E0,8.624548912E0,-6.564043999E0,-6.315449238E0
3.042023594E0,8.102330208E0,-6.669445992E0,-6.358568192E0
3.044500105E0,7.508245945E0,-6.755683899E0,-6.478343010E0
3.046976667E0,6.976445198E0,-6.827548981E0,-6.569372177E0
3.049453177E0,6.564418793E0,-6.822758198E0,-6.430432796E0
3.051929688E0,6.358406067E0,-6.755683899E0,-6.147764206E0
3.054406198E0,6.133228779E0,-6.760475159E0,-5.730947018E0
3.056882709E0,6.046990871E0,-6.741311073E0,-5.385994911E0
3.059359219E0,6.018245220E0,-6.856295109E0,-5.036252022E0
3.061835730E0,5.970335007E0,-6.947323799E0,-4.667345047E0
3.064146980E0,5.965544224E0,-6.952115059E0,-4.288856030E0
3.066623490E0,6.027826786E0,-6.976069927E0,-3.991813898E0
3.069100000E0,6.018245220E0,-6.889832020E0,-3.800173998E0
3.071576511E0,6.066154957E0,-6.856295109E0,-3.675607920E0
3.074053021E0,6.147602081E0,-6.822758198E0,-3.541460037E0
3.076529584E0,6.506927013E0,-6.794012070E0,-3.795382977E0
3.079006094E0,6.770431995E0,-6.746101856E0,-4.308020115E0
3.081482605E0,6.976445198E0,-6.731729031E0,-4.547570229E0
3.083959115E0,7.038728237E0,-6.659863949E0,-4.490077972E0
3.086435625E0,7.048309803E0,-6.803594112E0,-4.590689182E0
3.088912136E0,7.148921013E0,-6.904204845E0,-4.782329082E0
3.091388646E0,7.091429234E0,-6.966487885E0,-4.858984947E0
3.093699740E0,6.957281113E0,-7.004816055E0,-4.744000912E0
3.096173490E0,6.847087860E0,-6.952115059E0,-4.571525097E0
3.098647292E0,6.559628010E0,-6.885041237E0,-4.662553787E0
3.101121042E0,6.367988110E0,-6.894622803E0,-4.490077972E0
3.103594844E0,6.329659939E0,-6.784430027E0,-4.202618122E0
3.106068646E0,6.348824024E0,-6.765265942E0,-3.939112902E0
3.108542396E0,6.401525021E0,-6.736519814E0,-3.895993948E0
3.111016198E0,6.468598843E0,-6.755683899E0,-3.862457037E0
3.113489948E0,6.439853191E0,-6.731729031E0,-3.838501930E0
3.115963750E0,6.396734238E0,-6.688610077E0,-3.809756041E0
3.118437552E0,6.454226017E0,-6.659863949E0,-3.704354048E0
3.120911302E0,6.617119789E0,-6.602372169E0,-3.460012913E0
3.123258386E0,6.861461163E0,-6.540089130E0,-3.258790970E0
3.125732136E0,6.947699070E0,-6.434687138E0,-3.172553062E0
3.128205938E0,6.789596081E0,-6.314911842E0,-3.119852066E0
3.130679688E0,6.832715034E0,-6.319703102E0,-3.024032116E0
3.133153490E0,6.803968906E0,-6.367612839E0,-2.995285988E0
3.135627292E0,6.756059170E0,-6.434687138E0,-2.956958055E0
3.138101042E0,6.899788857E0,-6.501760960E0,-2.851556063E0
3.140574844E0,7.048309803E0,-6.549671173E0,-2.726989985E0
3.143048594E0,7.067473888E0,-6.559253216E0,-2.640752077E0
3.145522396E0,7.110592842E0,-6.506552219E0,-2.453902960E0
3.147996198E0,7.182457924E0,-6.453851223E0,-2.190397978E0
3.150469948E0,7.081847191E0,-6.401150227E0,-2.017921925E0
3.152813125E0,6.918952942E0,-6.290956974E0,-1.965221047E0
3.155286875E0,6.502136230E0,-6.089735031E0,-1.864609957E0
3.157760677E0,6.166766167E0,-5.902885914E0,-1.787953973E0
3.160234427E0,6.008663177E0,-5.692081928E0,-1.725671053E0
3.162708230E0,6.003871918E0,-5.692081928E0,-1.706506968E0
3.165182032E0,6.118855953E0,-5.720828056E0,-1.740043998E0
3.167655782E0,6.224257946E0,-5.739992142E0,-1.864609957E0
3.170129584E0,6.396734238E0,-5.917259216E0,-2.108951092E0
3.172603334E0,6.406315804E0,-6.032242775E0,-2.482649088E0
3.175077136E0,6.521299839E0,-6.108899117E0,-2.837182999E0
3.177550938E0,6.660239220E0,-6.319703102E0,-3.368983984E0
3.180024688E0,6.660239220E0,-6.511343002E0,-4.001396179E0
3.182362657E0,6.660239220E0,-6.659863949E0,-4.485287189E0
3.184836407E0,6.578792095E0,-6.659863949E0,-5.084162235E0
3.187310209E0,6.406315804E0,-6.631117821E0,-5.582426071E0
3.189783959E0,6.128437996E0,-6.324493885E0,-5.366830826E0
3.192257761E0,5.812232018E0,-5.759156227E0,-4.456541061E0
3.194731563E0,5.519980907E0,-5.404622078E0,-4.207408905E0
3.197205313E0,5.510398865E0,-5.332756996E0,-4.566733837E0
3.199679115E0,5.596636772E0,-5.462113857E0,-4.892521858E0
3.202152865E0,5.582263947E0,-5.481277943E0,-5.271010876E0
3.204626667E0,5.678083897E0,-5.605844021E0,-5.477024078E0
3.207100469E0,5.769113064E0,-5.711246014E0,-5.735737801E0
3.209574219E0,5.946380138E0,-5.677709103E0,-5.994452000E0
3.211917500E0,6.243422031E0,-5.787901878E0,-6.281911850E0
3.214391250E0,6.593164921E0,-5.965168953E0,-6.535834789E0
3.216865052E0,6.986026764E0,-6.190345764E0,-6.502297878E0
3.219338802E0,7.522618771E0,-6.281374931E0,-6.526253223E0
3.221812605E0,8.092747688E0,-6.386776924E0,-6.358568192E0
3.224286407E0,8.533519745E0,-6.635909081E0,-5.989661217E0
3.226760157E0,8.888053894E0,-6.870667934E0,-5.563261986E0
3.229233959E0,9.127603531E0,-7.062307835E0,-5.275802135E0
3.231707709E0,9.146767616E0,-6.980861187E0,-4.906895161E0
3.234181511E0,9.036575317E0,-6.961697102E0,-4.715254784E0
3.236655313E0,8.840144157E0,-6.856295109E0,-4.710464001E0
3.239129063E0,8.495191574E0,-6.564043999E0,-4.624226093E0
3.241475365E0,8.236477852E0,-6.535297871E0,-4.399048805E0
3.243949115E0,8.044837952E0,-6.540089130E0,-4.221782207E0
3.246422917E0,7.877152920E0,-6.544879913E0,-4.125961781E0
3.248896667E0,7.982554913E0,-6.559253216E0,-3.819338083E0
3.251370469E0,8.030465126E0,-6.520925045E0,-3.570205927E0
3.253844271E0,7.766960144E0,-6.362822056E0,-3.685189962E0
3.256318021E0,7.474709034E0,-6.324493885E0,-3.943903923E0
3.258791823E0,7.192039967E0,-6.319703102E0,-4.159499168E0
3.261265573E0,6.986026764E0,-6.377194881E0,-4.245737076E0
3.263739375E0,6.847087860E0,-6.540089130E0,-4.202618122E0
3.266213177E0,6.837505817E0,-6.875459194E0,-4.116380215E0
3.268686927E0,6.751267910E0,-7.297067165E0,-4.269691944E0
3.271025521E0,6.367988110E0,-7.383305073E0,-4.614644051E0
3.273499271E0,6.511717796E0,-7.857614040E0,-4.590689182E0
3.275973073E0,6.827923775E0,-8.734367371E0,-4.355929852E0
3.278446823E0,6.712940216E0,-9.141601562E0,-4.566733837E0
3.280920625E0,6.530881882E0,-9.031409264E0,-4.782329082E0
3.283394427E0,6.262586117E0,-8.485235214E0,-4.911685944E0
3.285868177E0,5.893679142E0,-7.613273144E0,-5.247056007E0
3.288341980E0,5.716412067E0,-7.177291870E0,-5.362040043E0
3.290815730E0,5.601428032E0,-6.832339764E0,-5.328503132E0
3.293289532E0,5.457697868E0,-6.252628803E0,-5.558471203E0
3.295763334E0,5.266057968E0,-5.859766960E0,-5.798020840E0
3.298237084E0,5.175028801E0,-5.452531815E0,-5.975287914E0
3.300585625E0,5.026507854E0,-5.112370968E0,-6.004034042E0
3.303059375E0,4.916315079E0,-4.872820854E0,-6.013616085E0
3.305533177E0,4.700719833E0,-4.456004143E0,-6.032780170E0
3.308006927E0,4.528244019E0,-4.245200157E0,-6.138182163E0
3.310480730E0,4.442006111E0,-4.130216122E0,-6.272329807E0
3.312954532E0,4.365349770E0,-3.900248051E0,-6.348986149E0
3.315428282E0,4.303067207E0,-3.871501923E0,-6.291493893E0
3.317902084E0,4.350976944E0,-3.857129097E0,-6.128600121E0
3.320375834E0,4.446796894E0,-3.996068001E0,-5.946541786E0
3.322849636E0,4.494707108E0,-4.024814129E0,-5.759693146E0
3.325323438E0,4.461170197E0,-3.909830093E0,-5.587216854E0
3.327797188E0,4.465960979E0,-3.842756033E0,-5.309339046E0
3.330136771E0,4.504289150E0,-3.957740068E0,-4.983551025E0
3.332610521E0,4.767794132E0,-4.341020107E0,-4.408630848E0
3.335084323E0,5.026507854E0,-4.777000904E0,-3.819338083E0
3.337558073E0,5.366669178E0,-5.275265217E0,-3.364192963E0
3.340031875E0,5.587055206E0,-5.716036797E0,-3.115061045E0
3.342505677E0,5.639756203E0,-5.931632042E0,-2.856347084E0
3.344979427E0,5.663711071E0,-5.969960213E0,-2.578469038E0
3.347453230E0,5.697247982E0,-6.017869949E0,-2.568886995E0
3.349926980E0,5.745158195E0,-6.108899117E0,-2.559304953E0
3.352400782E0,5.740366936E0,-6.190345764E0,-2.453902960E0
3.354874584E0,5.735576153E0,-6.171182156E0,-2.334127903E0
3.357348334E0,5.687665939E0,-6.252628803E0,-2.228725910E0
3.359689271E0,5.740366936E0,-6.343657970E0,-2.247889996E0
3.362163021E0,5.673293114E0,-6.463432789E0,-2.295799971E0
3.364636823E0,5.587055206E0,-6.449059963E0,-2.118532896E0
3.367110573E0,5.333131790E0,-6.338867188E0,-1.931684017E0
3.369584375E0,5.160655975E0,-6.391568184E0,-1.955639005E0
3.372058177E0,5.074418068E0,-6.650281906E0,-2.104160070E0
3.374531927E0,4.916315079E0,-6.731729031E0,-2.180815935E0
3.377005730E0,4.810913086E0,-6.750893116E0,-2.305382013E0
3.379479480E0,4.786958218E0,-6.894622803E0,-2.559304953E0
3.381953282E0,4.724675179E0,-6.956905842E0,-2.655124903E0
3.384427084E0,4.715093136E0,-7.014398098E0,-2.722198963E0
3.386900834E0,4.662392139E0,-6.995234013E0,-2.774899960E0
3.389246667E0,4.700719833E0,-7.115008831E0,-3.047986984E0
3.391720417E0,4.810913086E0,-7.306649208E0,-3.440849066E0
3.394194219E0,4.834867954E0,-7.201247215E0,-3.718727112E0
3.396667969E0,5.040881157E0,-7.220410824E0,-4.106798172E0
3.399141771E0,5.472071171E0,-7.206037998E0,-4.547570229E0
3.401615573E0,5.908051968E0,-7.081471920E0,-4.858984947E0
3.404089323E0,6.348824024E0,-7.033562183E0,-5.175190926E0
3.406563125E0,7.009982109E0,-6.976069927E0,-5.385994911E0
3.409036875E0,7.685513020E0,-6.956905842E0,-5.558471203E0
3.411510677E0,8.384999275E0,-7.062307835E0,-5.788438797E0
3.413984480E0,9.141977310E0,-7.129382133E0,-5.917796135E0
3.416458230E0,9.922909737E0,-7.105426788E0,-5.802812099E0
3.418799532E0,1.068947029E1,-7.234784126E0,-5.553679943E0
3.421273282E0,1.131229973E1,-7.388095856E0,-5.170400143E0
3.423747084E0,1.205011368E1,-7.939061165E0,-4.461331844E0
3.426220834E0,1.228008175E1,-8.389414787E0,-4.629016876E0
3.428694636E0,1.194950294E1,-8.149865150E0,-5.419531822E0
3.431168438E0,1.156143188E1,-7.598899841E0,-6.114226818E0
3.433642188E0,1.140812016E1,-7.929479122E0,-5.366830826E0
3.436115990E0,1.096255684E1,-8.293595314E0,-4.724836826E0
3.438589740E0,1.062718678E1,-8.145073891E0,-5.045834064E0
3.441063542E0,1.052657604E1,-8.394206047E0,-4.408630848E0
3.443537344E0,1.036368179E1,-8.648129463E0,-3.345029116E0
3.446011094E0,1.009538555E1,-8.432534218E0,-3.220463037E0
3.448353802E0,9.625867844E0,-8.427742958E0,-2.358083010E0
3.450827552E0,9.381526947E0,-8.557100296E0,-1.548403978E0
3.453301355E0,9.453392029E0,-8.605010033E0,-1.682551980E0
3.455775105E0,9.328825951E0,-8.758321762E0,-9.782750010E-1
3.458248907E0,9.276124954E0,-8.830186844E0,-7.914260030E-1
3.460722709E0,9.266543388E0,-8.858933449E0,-8.441269994E-1
3.463196459E0,9.189887047E0,-8.854142189E0,-8.105900288E-1
3.465670261E0,8.993455887E0,-8.758321762E0,-7.914260030E-1
3.468144011E0,8.682041168E0,-8.729576111E0,-6.429049969E-1
3.470617813E0,8.595803261E0,-8.772694588E0,-7.578889728E-1
3.473091615E0,8.351462364E0,-9.045782089E0,-8.714900166E-2
3.475565365E0,8.121494293E0,-9.453017235E0,2.051019967E-1
3.477912969E0,7.541782856E0,-9.965654373E0,3.584139943E-1
3.480386719E0,6.986026764E0,-1.048308182E1,-1.063129976E-1
3.482860521E0,6.401525021E0,-1.088073540E1,-5.087569952E-1
3.485334271E0,6.267376900E0,-1.111070347E1,-1.117213964E0
3.487808073E0,6.190721035E0,-1.117298603E1,-1.759207964E0
3.490281875E0,6.195511818E0,-1.108674812E1,-2.329336882E0
3.492755625E0,6.588374138E0,-1.081845188E1,-2.741363049E0
3.495229427E0,7.249532223E0,-1.049745464E1,-3.119852066E0
3.497703177E0,8.284387589E0,-1.003751945E1,-3.915158033E0
3.500176980E0,9.276124954E0,-9.548836708E0,-4.384675980E0
3.502650782E0,1.035889053E1,-9.175139427E0,-4.643390179E0
3.505124532E0,1.080924511E1,-8.686456680E0,-4.806283951E0
3.507472396E0,1.144644833E1,-8.327132225E0,-4.763164997E0
3.509946146E0,1.184889221E1,-8.044463158E0,-4.485287189E0
3.512419948E0,1.172911739E1,-7.608481884E0,-4.504450798E0
3.514893698E0,1.111107826E1,-7.115008831E0,-4.274483204E0
3.517367500E0,1.033972740E1,-6.741311073E0,-3.872039080E0
3.519841302E0,9.525257111E0,-6.693400860E0,-3.460012913E0
3.522315052E0,8.600593567E0,-6.444269180E0,-3.277955055E0
3.524788855E0,7.426798820E0,-6.166390896E0,-3.220463037E0
3.527262605E0,6.286540985E0,-5.989123821E0,-3.273164034E0
3.529736407E0,5.572681904E0,-5.893303871E0,-3.407311916E0
3.532210209E0,4.786958218E0,-5.581889153E0,-3.919949055E0
3.534683959E0,4.144964218E0,-5.265683174E0,-4.087634087E0
3.537027709E0,4.437214851E0,-5.265683174E0,-4.284064770E0
3.539501459E0,4.763002872E0,-5.208190918E0,-4.964386940E0
3.541975261E0,4.480333805E0,-5.069252014E0,-5.419531822E0
3.544449011E0,4.796539783E0,-5.145907879E0,-5.136863232E0
3.546922813E0,3.838340044E0,-4.839283943E0,-5.266220093E0
3.549396615E0,2.022551060E0,-4.427258015E0,-5.970497131E0
3.551870365E0,1.164962053E0,-4.364974976E0,-6.468760967E0
3.554344167E0,9.062479734E-1,-4.489541054E0,-6.454388142E0
3.556817917E0,8.439649940E-1,-4.709927082E0,-6.526253223E0
3.559291719E0,7.673090100E-1,-4.863238811E0,-6.880786896E0
3.561765469E0,5.708780289E-1,-4.738673210E0,-6.842459202E0
3.564239271E0,3.840290010E-1,-4.532660007E0,-6.780176163E0
3.566581615E0,5.181769729E-1,-4.384139061E0,-6.440014839E0
3.569055365E0,7.720999718E-1,-4.226036072E0,-6.622073174E0
3.571529167E0,1.002068043E0,-4.058351040E0,-6.454388142E0
3.574002917E0,1.663226008E0,-4.015232086E0,-6.406477928E0
3.576476719E0,2.247728109E0,-3.914621115E0,-6.210046768E0
3.578950521E0,2.223773003E0,-3.857129097E0,-5.913004875E0
3.581424271E0,2.813066006E0,-3.972112894E0,-5.989661217E0
3.583898073E0,3.867085934E0,-4.106260777E0,-5.927378178E0
3.586371823E0,4.350976944E0,-4.000858784E0,-5.836349010E0
3.588845625E0,4.556990147E0,-3.746936083E0,-5.726156235E0
3.591319427E0,4.820495129E0,-3.569669008E0,-5.510560989E0
3.593793177E0,5.084000111E0,-3.564877987E0,-5.309339046E0
3.596135417E0,5.160655975E0,-3.636743069E0,-5.098535061E0
3.598606980E0,5.198984146E0,-3.694235086E0,-4.739210129E0
3.601078646E0,5.448115826E0,-3.818800926E0,-4.446959019E0
3.603550261E0,5.711620808E0,-4.015232086E0,-3.924740076E0
3.606021823E0,5.687665939E0,-4.259572983E0,-3.436058044E0
3.608493438E0,5.711620808E0,-4.532660007E0,-3.052778006E0
3.610965052E0,5.654129028E0,-4.911149025E0,-2.808437109E0
3.613436667E0,5.630174160E0,-5.112370968E0,-2.966540098E0
3.615908230E0,5.601428032E0,-5.260891914E0,-3.086314917E0
3.618379844E0,5.548727036E0,-5.495650768E0,-3.186925888E0
3.620851459E0,5.462489128E0,-5.668127060E0,-3.057569027E0
3.623323073E0,5.452907085E0,-5.831020832E0,-2.952167034E0
3.625682292E0,5.376251221E0,-6.013079166E0,-3.067151070E0
3.628153907E0,5.390624046E0,-6.281374931E0,-3.091105938E0
3.630625521E0,5.615800858E0,-6.530507088E0,-3.129434109E0
3.633097136E0,5.821814060E0,-6.640699863E0,-3.287537098E0
3.635568750E0,5.912843227E0,-6.583208084E0,-3.440849066E0
3.638040365E0,5.922424793E0,-6.449059963E0,-3.469594955E0
3.640511980E0,5.999081135E0,-6.257420063E0,-3.527086973E0
3.642983594E0,6.027826786E0,-6.089735031E0,-3.527086973E0
3.645455157E0,6.037408829E0,-5.979541779E0,-3.584578991E0
3.647926771E0,6.085319042E0,-5.735200882E0,-3.819338083E0
3.650398386E0,6.123647213E0,-5.557933807E0,-3.919949055E0
3.652870000E0,6.185929775E0,-5.395040035E0,-3.972650051E0
3.655235782E0,6.272168159E0,-5.189026833E0,-4.231363773E0
3.657707396E0,6.329659939E0,-4.987804890E0,-4.456541061E0
3.660179011E0,6.276958942E0,-4.829701900E0,-4.552361012E0
3.662650625E0,6.253004074E0,-4.709927082E0,-4.581107140E0
3.665122240E0,6.324869156E0,-4.618897915E0,-4.514032841E0
3.667593855E0,6.291331768E0,-4.518287182E0,-4.557151794E0
3.670065469E0,6.171556950E0,-4.369766235E0,-4.633808136E0
3.672537084E0,6.085319042E0,-4.283527851E0,-4.571525097E0
3.675008646E0,6.099691868E0,-4.230826855E0,-4.518824100E0
3.677480261E0,6.209885120E0,-4.111052036E0,-4.360721111E0
3.679951875E0,6.224257946E0,-4.010440826E0,-4.193036079E0
3.682423490E0,6.353614807E0,-3.876292944E0,-4.092424870E0
3.684798542E0,6.420689106E0,-3.847547054E0,-3.982232094E0
3.687270157E0,6.540463924E0,-3.761308908E0,-3.915158033E0
3.689741771E0,6.602746964E0,-3.837965012E0,-3.919949055E0
3.692213386E0,6.679402828E0,-4.043978214E0,-4.001396179E0
3.694685000E0,6.765641212E0,-4.293109894E0,-4.173871994E0
3.697156615E0,6.765641212E0,-4.662016869E0,-4.413422108E0
3.699628230E0,6.784804821E0,-5.117162228E0,-4.724836826E0
3.702099844E0,6.866251945E0,-5.596261978E0,-4.902103901E0
3.704571407E0,6.813550949E0,-5.931632042E0,-4.878149033E0
3.707043073E0,6.669820786E0,-6.142436028E0,-4.825448036E0
3.709514636E0,6.463808060E0,-6.295748234E0,-4.744000912E0
3.711986250E0,6.008663177E0,-6.257420063E0,-4.715254784E0
3.714377032E0,5.620592117E0,-6.233465195E0,-4.590689182E0
3.716848646E0,5.323550224E0,-6.295748234E0,-4.629016876E0
3.719320261E0,4.964224815E0,-6.228673935E0,-4.657763004E0
3.721791875E0,4.815703869E0,-6.166390896E0,-4.705673218E0
3.724263438E0,4.633646011E0,-6.084943771E0,-4.844612122E0
3.726735052E0,4.552198887E0,-6.037034035E0,-4.839820862E0
3.729206667E0,4.523453236E0,-6.065780163E0,-4.820656776E0
3.731678282E0,4.528244019E0,-6.056198120E0,-4.858984947E0
3.734149896E0,4.523453236E0,-6.099317074E0,-4.858984947E0
3.736621511E0,4.652810097E0,-6.281374931E0,-5.069788933E0
3.739093125E0,4.686347008E0,-6.549671173E0,-5.194355011E0
3.741564740E0,4.580945015E0,-6.487388134E0,-5.304547787E0
3.743902500E0,4.585735798E0,-6.468224049E0,-5.400368214E0
3.746374115E0,4.648018837E0,-6.540089130E0,-5.481814861E0
3.748845730E0,4.782166958E0,-6.559253216E0,-5.558471203E0
3.751317344E0,4.978598118E0,-6.631117821E0,-5.683036804E0
3.753788959E0,5.256475925E0,-6.674236774E0,-5.764483929E0
3.756260573E0,5.505608082E0,-6.712564945E0,-5.913004875E0
3.758732188E0,5.725994110E0,-6.798802853E0,-5.960915089E0
3.761203802E0,6.032618046E0,-6.923368931E0,-5.903422832E0
3.763675365E0,6.300913811E0,-7.043144226E0,-6.095063210E0
3.766146980E0,6.597956181E0,-7.210828781E0,-6.262747765E0
3.768618594E0,6.641075134E0,-7.225202084E0,-6.090271950E0
3.771090209E0,6.698566914E0,-7.172501087E0,-5.917796135E0
3.773456667E0,6.655447960E0,-7.081471920E0,-5.706992149E0
3.775928282E0,6.569210052E0,-7.014398098E0,-5.472232819E0
3.778399896E0,6.588374138E0,-6.904204845E0,-5.290174961E0
3.780871511E0,6.669820786E0,-6.885041237E0,-5.050624847E0
3.783343125E0,6.770431995E0,-6.942533016E0,-4.767955780E0
3.785814740E0,6.660239220E0,-6.894622803E0,-4.547570229E0
3.788286355E0,6.669820786E0,-6.856295109E0,-4.403840065E0
3.790757969E0,6.602746964E0,-6.746101856E0,-4.145125866E0
3.793229532E0,6.463808060E0,-6.688610077E0,-4.125961781E0
3.795701146E0,6.286540985E0,-6.568834782E0,-4.207408905E0
3.798172761E0,6.051782131E0,-6.516133785E0,-4.159499168E0
3.800644427E0,5.917634010E0,-6.492178917E0,-4.154707909E0
3.803011146E0,5.826604843E0,-6.559253216E0,-4.202618122E0
3.805482761E0,5.908051968E0,-6.750893116E0,-4.135543823E0
3.807954427E0,6.276958942E0,-7.206037998E0,-4.197826862E0
3.810425990E0,6.741685867E0,-7.757002831E0,-4.303228855E0
3.812897605E0,7.628020763E0,-8.715203285E0,-3.934322119E0
3.815369219E0,7.762168884E0,-9.189512253E0,-3.867248058E0
3.817840834E0,7.905899048E0,-9.333242416E0,-3.953485966E0
3.820312448E0,8.040046692E0,-9.132019997E0,-4.169081211E0
3.822784011E0,8.111911774E0,-8.921216011E0,-4.159499168E0
3.825255625E0,8.313134193E0,-8.628965378E0,-4.327184200E0
3.827727240E0,7.963390827E0,-8.183402061E0,-4.720046043E0
3.830198855E0,7.666348934E0,-7.905523777E0,-4.973968983E0
3.832563594E0,7.527410030E0,-7.814495087E0,-5.050624847E0
3.835035209E0,7.335770130E0,-7.766584873E0,-5.141654015E0
3.837506823E0,7.038728237E0,-7.718675137E0,-5.112907887E0
3.839978438E0,6.866251945E0,-7.637228012E0,-4.940432072E0
3.842450052E0,6.684194088E0,-7.699511051E0,-4.667345047E0
3.844921667E0,6.497344971E0,-7.665974140E0,-4.288856030E0
3.847393282E0,6.147602081E0,-7.541408062E0,-3.910367012E0
3.849864896E0,5.644546986E0,-7.450378895E0,-3.546251059E0
3.852336459E0,5.409788132E0,-7.416841984E0,-3.244417906E0
3.854808073E0,4.820495129E0,-7.277903080E0,-3.177344084E0
3.857279688E0,4.077889919E0,-7.038352966E0,-3.378566027E0
3.859751302E0,3.661072969E0,-7.023980141E0,-3.455221891E0
3.862114323E0,3.483805895E0,-7.239574909E0,-3.368983984E0
3.864585938E0,3.359240055E0,-7.455170155E0,-3.277955055E0
3.867057552E0,3.004705906E0,-7.321022034E0,-3.416893959E0
3.869529167E0,2.616635084E0,-7.277903080E0,-3.541460037E0
3.872000730E0,2.496860027E0,-7.392887115E0,-3.498341084E0
3.874472344E0,1.936313033E0,-7.100636005E0,-3.493550062E0
3.876943959E0,1.576987982E0,-6.798802853E0,-3.383357048E0
3.879415573E0,1.787791967E0,-6.655073166E0,-3.455221891E0
3.881887188E0,2.295638084E0,-6.583208084E0,-3.431267023E0
3.884358802E0,2.554352045E0,-6.482596874E0,-3.397730112E0
3.886830417E0,2.918467999E0,-6.348449230E0,-3.574996948E0
3.889302032E0,3.335284948E0,-6.267002106E0,-3.795382977E0
3.891672813E0,4.025188923E0,-6.453851223E0,-3.891202927E0
3.894144427E0,4.331812859E0,-6.621535778E0,-3.934322119E0
3.896616042E0,4.039562225E0,-6.626327038E0,-4.111588955E0
3.899087657E0,4.044353008E0,-6.578416824E0,-4.370303154E0
3.901559271E0,4.331812859E0,-6.559253216E0,-4.159499168E0
3.904030886E0,4.403677940E0,-6.358030796E0,-4.130753040E0
3.906502500E0,4.331812859E0,-6.152018070E0,-4.303228855E0
3.908974115E0,4.700719833E0,-6.142436028E0,-4.140335083E0
3.911445677E0,4.978598118E0,-6.041824818E0,-3.795382977E0
3.913917292E0,5.251685143E0,-5.850184917E0,-3.560623884E0
3.916388907E0,5.381042004E0,-5.725618839E0,-3.469594955E0
3.918860521E0,6.066154957E0,-5.859766960E0,-3.594161034E0
3.921224427E0,6.756059170E0,-6.046616077E0,-3.517504930E0
3.923696042E0,7.153711796E0,-6.252628803E0,-3.776218891E0
3.926167657E0,7.307024002E0,-6.396358967E0,-4.087634087E0
3.928639271E0,6.698566914E0,-6.089735031E0,-4.312810898E0
3.931110886E0,6.521299839E0,-5.936422825E0,-4.787119865E0
3.933582500E0,6.099691868E0,-6.013079166E0,-4.696091175E0
3.936054115E0,5.663711071E0,-6.305329800E0,-4.351139069E0
3.938525730E0,5.275640011E0,-6.544879913E0,-3.737890959E0
3.940997292E0,5.040881157E0,-6.564043999E0,-3.335447073E0
3.943468907E0,4.935479164E0,-6.559253216E0,-3.598952055E0
3.945940521E0,4.461170197E0,-6.305329800E0,-3.646862030E0
3.948412136E0,3.833549023E0,-5.931632042E0,-4.164289951E0
3.950780313E0,3.522134066E0,-5.768737793E0,-4.451749802E0
3.953251927E0,2.707664013E0,-5.428576946E0,-4.657763004E0
3.955723542E0,1.533869028E0,-5.078834057E0,-4.954804897E0
3.958195157E0,5.517140031E-1,-4.781792164E0,-5.400368214E0
3.960666771E0,1.991299912E-2,-4.518287182E0,-5.635127068E0
3.963138386E0,-1.286080033E-1,-4.408093929E0,-5.572844028E0
3.965610000E0,2.259259969E-1,-4.753046036E0,-5.299757004E0
3.968081615E0,9.781129956E-1,-5.423786163E0,-4.959596157E0
3.970553177E0,2.415412903E0,-6.166390896E0,-4.629016876E0
3.973024792E0,4.183291912E0,-6.966487885E0,-4.183454037E0
3.975496407E0,5.237311840E0,-7.622855186E0,-3.733099937E0
3.977968021E0,6.214675903E0,-8.264848709E0,-3.670816898E0
3.980335469E0,7.364515781E0,-8.868515015E0,-3.579787970E0
3.982807084E0,8.279597282E0,-9.553627968E0,-3.402520895E0
3.985278698E0,8.792234421E0,-9.960863113E0,-3.368983984E0
3.987750365E0,9.367154121E0,-1.031539726E1,-3.273164034E0
3.990221927E0,9.740852356E0,-1.050224590E1,-3.009659052E0
3.992693542E0,1.018162441E1,-1.066993141E1,-2.918629885E0
3.995165157E0,1.044512939E1,-1.089510822E1,-2.530559063E0
3.997636771E0,1.049303913E1,-1.092385387E1,-2.032294989E0
4.000108334E0,1.067509747E1,-1.073221397E1,-1.644224048E0
4.002579948E0,1.056011295E1,-1.043517208E1,-1.251361966E0
4.005051563E0,9.913328171E0,-1.001835537E1,-1.088467956E0
4.007523177E0,9.098857880E0,-9.659029961E0,-9.399470091E-1
4.009889271E0,7.628020763E0,-9.017036438E0,-1.136378050E0
4.012360886E0,5.117537022E0,-8.557100296E0,-1.399883032E0
4.014832500E0,7.433540225E-1,-7.891150951E0,-2.789273024E0
4.017304115E0,1.979431987E0,-7.148546219E0,-4.614644051E0
4.019775730E0,5.151073933E0,-7.766584873E0,-4.226572990E0
4.022247344E0,6.602746964E0,-9.318868637E0,-2.607214928E0
4.024718959E0,7.766960144E0,-1.016687584E1,-2.487440109E0
4.027190573E0,8.198149681E0,-1.071784115E1,-2.573678017E0
4.029662136E0,8.514355659E0,-1.097655487E1,-2.937793970E0
4.032133750E0,8.888053894E0,-1.103404713E1,-2.827600956E0
4.034605365E0,8.768279076E0,-1.069867706E1,-3.019241095E0
4.037076980E0,8.504774094E0,-1.047350025E1,-3.119852066E0
4.039443750E0,7.987346172E0,-1.027227783E1,-3.091105938E0
4.041915365E0,7.383679867E0,-1.015250301E1,-2.865928888E0
4.044386980E0,6.550045967E0,-9.960863113E0,-2.822809935E0
4.046858594E0,5.587055206E0,-9.668611526E0,-2.923420906E0
4.049330209E0,4.820495129E0,-9.290122986E0,-2.961749077E0
4.051801823E0,4.149755001E0,-8.978708267E0,-2.885092974E0
4.054273438E0,3.780848026E0,-8.691247940E0,-2.837182999E0
4.056745052E0,3.411941051E0,-8.365460396E0,-2.669497967E0
4.059216615E0,3.167599916E0,-8.092372894E0,-2.348500967E0
4.061688282E0,3.225091934E0,-7.464752197E0,-2.113742113E0
4.064159844E0,2.999914885E0,-6.899414062E0,-2.449111938E0
4.066631459E0,2.420203924E0,-6.813176155E0,-2.530559063E0
4.068999323E0,2.372293949E0,-6.631117821E0,-2.549722910E0
4.071470938E0,2.482486963E0,-6.741311073E0,-2.497021914E0
4.073942552E0,2.559143066E0,-6.736519814E0,-2.410784006E0
4.076414167E0,2.535187960E0,-6.611954212E0,-2.372456074E0
4.078885782E0,2.319592953E0,-6.506552219E0,-2.626379013E0
4.081357396E0,2.132744074E0,-6.343657970E0,-2.923420906E0
4.083829011E0,2.295638084E0,-6.137644768E0,-3.043195963E0
4.086300625E0,2.367502928E0,-5.701663971E0,-3.378566027E0
4.088772188E0,2.822648048E0,-5.265683174E0,-3.488759041E0
4.091243802E0,2.827439070E0,-4.494331837E0,-3.522295952E0
4.093715417E0,1.941104054E0,-4.379347801E0,-4.169081211E0
4.096187032E0,9.733219743E-1,-4.446422100E0,-4.600271225E0
4.098552917E0,-2.476197958E0,-4.944685936E0,-4.873357773E0
4.101022761E0,-7.688806057E0,-5.438158989E0,-4.638598919E0
4.103492657E0,-5.092083931E0,-4.815329075E0,-7.153873920E0
4.105962500E0,-6.632500142E-2,-5.510024071E0,-1.308034134E1
4.108432344E0,8.631290197E-1,-5.586679935E0,-6.483133793E0
4.110902188E0,3.907699883E-2,-4.848865986E0,-4.652972221E0
4.113372032E0,3.124480963E0,-5.260891914E0,-3.277955055E0
4.115841875E0,4.825285912E0,-5.601053238E0,-4.753582954E0
4.118311771E0,6.669820786E0,-5.902885914E0,-3.560623884E0
4.120781615E0,7.968182087E0,-6.013079166E0,-2.046668053E0
4.123251459E0,9.194678307E0,-6.142436028E0,-2.214353085E0
4.125721302E0,1.065114212E1,-6.228673935E0,-2.108951092E0
4.128104375E0,1.158059597E1,-6.041824818E0,-2.161652088E0
4.130574219E0,1.139853764E1,-6.281374931E0,-2.597632885E0
4.133044115E0,1.105837727E1,-6.477806091E0,-3.081523895E0
4.135513959E0,1.062239647E1,-6.803594112E0,-3.364192963E0
4.137983802E0,1.007143116E1,-7.354558945E0,-3.268373013E0
4.140453646E0,9.410272598E0,-7.929479122E0,-3.095896959E0
4.142923490E0,8.892845154E0,-8.284012794E0,-2.717407942E0
4.145393334E0,8.193359375E0,-8.609801292E0,-2.827600956E0
4.147863230E0,7.489081860E0,-9.084110260E0,-2.645543098E0
4.150333073E0,6.904580116E0,-9.625493050E0,-2.396410942E0
4.152802917E0,5.711620808E0,-1.050703716E1,-2.132905960E0
4.155272761E0,5.151073933E0,-1.090468979E1,-2.233516932E0
4.157658230E0,4.810913086E0,-1.104362869E1,-2.583260059E0
4.160128073E0,4.283903122E0,-1.129755211E1,-2.966540098E0
4.162597969E0,4.020398140E0,-1.126880646E1,-3.100687981E0
4.165067813E0,3.876667976E0,-1.134546185E1,-3.249208927E0
4.167537657E0,3.689819098E0,-1.141253567E1,-3.210880995E0
4.170007500E0,3.455060005E0,-1.163292217E1,-3.397730112E0
4.172477344E0,3.277792931E0,-1.178144264E1,-3.311491966E0
4.174947188E0,3.354449034E0,-1.206411171E1,-3.186925888E0
4.177417084E0,3.474224091E0,-1.226533413E1,-2.889883995E0
4.179886927E0,3.493387938E0,-1.235636330E1,-3.062360048E0
4.182356771E0,3.459851027E0,-1.245697403E1,-3.450431108E0
4.184826615E0,3.517343044E0,-1.231803513E1,-3.555833101E0
4.187214427E0,3.459851027E0,-1.224137878E1,-3.895993948E0
4.189684271E0,3.431104898E0,-1.214076805E1,-4.159499168E0
4.192154167E0,3.469433069E0,-1.193954563E1,-4.399048805E0
4.194624011E0,3.512552023E0,-1.173353291E1,-4.523614883E0
4.197093855E0,3.479015112E0,-1.153710175E1,-4.710464001E0
4.199563698E0,3.450268984E0,-1.118256760E1,-4.772747040E0
4.202033542E0,3.517343044E0,-1.101488304E1,-4.873357773E0
4.204503386E0,3.507761002E0,-1.074179554E1,-4.897313118E0
4.206973282E0,3.488596916E0,-1.046870899E1,-5.021879196E0
4.209443125E0,3.517343044E0,-1.030102444E1,-5.232683182E0
4.211912969E0,3.479015112E0,-1.008063793E1,-5.328503132E0
4.214382813E0,3.426314116E0,-9.831505775E0,-5.189564228E0
4.216770730E0,3.459851027E0,-9.529672623E0,-5.242265224E0
4.219240573E0,3.368822098E0,-9.242213249E0,-5.271010876E0
4.221710469E0,3.268210888E0,-9.117647171E0,-5.304547787E0
4.224180313E0,3.220300913E0,-8.954752922E0,-5.223101139E0
4.226650157E0,2.966377974E0,-8.672083855E0,-5.170400143E0
4.229120000E0,2.750782967E0,-8.513980865E0,-5.203937054E0
4.231589844E0,2.597470999E0,-8.327132225E0,-5.093743801E0
4.234059688E0,2.338757038E0,-8.298385620E0,-5.026669979E0
4.236529584E0,2.046505928E0,-8.231311798E0,-4.926058769E0
4.238999427E0,1.802165031E0,-8.192983627E0,-4.720046043E0
4.241469271E0,1.466794968E0,-8.135492325E0,-4.518824100E0
4.243939115E0,1.126634002E0,-8.264848709E0,-4.423004150E0
4.246329271E0,7.673090100E-1,-8.327132225E0,-4.260109901E0
4.248799115E0,5.804600120E-1,-8.322340965E0,-4.073260784E0
4.251269011E0,4.558939934E-1,-8.192983627E0,-3.824129105E0
4.253738855E0,4.606850147E-1,-8.169029236E0,-3.704354048E0
4.256208698E0,4.798490107E-1,-8.054044724E0,-3.464803934E0
4.258678542E0,6.235790253E-1,-7.910315037E0,-3.325865030E0
4.261148386E0,7.385630012E-1,-7.790540218E0,-3.019241095E0
4.263618230E0,8.487560153E-1,-7.656392097E0,-2.923420906E0
4.266088125E0,1.030814052E0,-7.598899841E0,-2.909048080E0
4.268557969E0,1.279945970E0,-7.512661934E0,-2.933002949E0
4.271027813E0,1.485959053E0,-7.503079891E0,-3.019241095E0
4.273497657E0,1.701553941E0,-7.536616802E0,-3.182135105E0
4.275879792E0,1.792582989E0,-7.368931770E0,-3.277955055E0
4.278349636E0,1.917148948E0,-7.340186119E0,-3.766637087E0
4.280819532E0,2.070461035E0,-7.440796852E0,-4.125961781E0
4.283289375E0,2.214190960E0,-7.555780888E0,-4.250527859E0
4.285759219E0,2.271682978E0,-7.646810055E0,-4.590689182E0
4.288229063E0,2.218981981E0,-7.848031998E0,-4.950014114E0
4.290698907E0,2.262100935E0,-8.154656410E0,-5.108117104E0
4.293168750E0,2.257309914E0,-8.389414787E0,-5.304547787E0
4.295638646E0,2.099206924E0,-8.504399300E0,-5.366830826E0
4.298108490E0,2.027342081E0,-8.691247940E0,-5.539307117E0
4.300578334E0,1.806956053E0,-8.921216011E0,-5.625545025E0
4.303048177E0,1.634480000E0,-9.170348167E0,-5.721364975E0
4.305436042E0,1.442839980E0,-9.323659897E0,-5.654291153E0
4.307905886E0,1.217663050E0,-9.414689064E0,-5.606380939E0
4.310375782E0,1.016440988E0,-9.591956139E0,-5.635127068E0
4.312845625E0,9.397850037E-1,-9.706939697E0,-5.505770206E0
4.315315469E0,8.679199815E-1,-9.807551384E0,-5.448277950E0
4.317785313E0,7.768909931E-1,-9.869833946E0,-5.371622086E0
4.320255157E0,8.200100064E-1,-1.002793694E1,-5.338085175E0
4.322725000E0,8.008459806E-1,-1.016208458E1,-5.213519096E0
4.325194896E0,8.535469770E-1,-1.027706909E1,-5.199145794E0
4.327664740E0,7.912639976E-1,-1.036330700E1,-5.223101139E0
4.330134584E0,6.954439878E-1,-1.046391773E1,-5.357248783E0
4.332604427E0,6.858620048E-1,-1.046391773E1,-5.352458000E0
4.334993490E0,8.487560153E-1,-1.056931973E1,-5.290174961E0
4.337463334E0,9.829040170E-1,-1.055973816E1,-5.136863232E0
4.339933230E0,1.112261057E0,-1.051182842E1,-5.088953018E0
4.342403073E0,1.212872028E0,-1.060285664E1,-5.112907887E0
4.344872917E0,1.337437987E0,-1.067472172E1,-4.916477203E0
4.347342761E0,1.476377010E0,-1.070346832E1,-4.748792171E0
4.349812605E0,1.615316033E0,-1.064118481E1,-4.528406143E0
4.352282448E0,1.778210044E0,-1.062681198E1,-4.193036079E0
4.354752344E0,1.989014030E0,-1.062681198E1,-3.953485966E0
4.357222188E0,2.266891956E0,-1.047829056E1,-3.565414906E0
4.359692032E0,2.520814896E0,-1.019562244E1,-3.253999949E0
4.362161875E0,2.813066006E0,-1.003272820E1,-3.143806934E0
4.364544792E0,2.985542059E0,-9.869833946E0,-3.047986984E0
4.367014636E0,3.076570988E0,-9.678194046E0,-3.119852066E0
4.369484532E0,3.023869991E0,-9.409897804E0,-3.191716909E0
4.371954375E0,2.961586952E0,-9.160765648E0,-3.311491966E0
4.374424219E0,2.884931087E0,-9.026618004E0,-3.469594955E0
4.376894063E0,2.760365009E0,-8.858933449E0,-3.632488966E0
4.379363907E0,2.516024113E0,-8.710412025E0,-3.781009912E0
4.381833750E0,2.329174995E0,-8.696039200E0,-3.891202927E0
4.384303646E0,2.118371010E0,-8.676875114E0,-3.934322119E0
4.386773490E0,1.902776003E0,-8.681666374E0,-3.967859030E0
4.389243334E0,1.677598953E0,-8.734367371E0,-4.025351048E0
4.391713177E0,1.438048959E0,-8.743948936E0,-3.996604919E0
4.394097084E0,1.203289986E0,-8.715203285E0,-3.886411905E0
4.396566927E0,9.781129956E-1,-8.724784851E0,-3.929531097E0
4.399036823E0,8.248010278E-1,-8.849350929E0,-3.876830101E0
4.401506667E0,6.092060208E-1,-8.844559669E0,-3.919949055E0
4.403976511E0,5.277590156E-1,-8.892470360E0,-4.001396179E0
4.406446355E0,3.457010090E-1,-8.897260666E0,-3.967859030E0
4.408916198E0,3.073729873E-1,-8.887679100E0,-4.010978222E0
4.411386042E0,2.546719909E-1,-8.892470360E0,-4.015769005E0
4.413855938E0,2.882089913E-1,-8.782277107E0,-4.102006912E0
4.416325782E0,3.600740135E-1,-8.605010033E0,-4.135543823E0
4.418795625E0,4.079839885E-1,-8.504399300E0,-4.250527859E0
4.421265469E0,4.511030018E-1,-8.346296310E0,-4.399048805E0
4.423653490E0,4.846400023E-1,-8.231311798E0,-4.456541061E0
4.426123334E0,5.517140031E-1,-8.020507812E0,-4.298438072E0
4.428593230E0,6.954439878E-1,-7.843241215E0,-4.308020115E0
4.431063073E0,6.906530261E-1,-7.737839222E0,-4.475705147E0
4.433532917E0,7.433540225E-1,-7.608481884E0,-4.585897923E0
4.436002761E0,7.960550189E-1,-7.527035236E0,-4.672135830E0
4.438472605E0,7.720999718E-1,-7.474333763E0,-4.787119865E0
4.440942448E0,8.631290197E-1,-7.455170155E0,-4.863776207E0
4.443412344E0,9.685310125E-1,-7.440796852E0,-4.945222855E0
4.445882188E0,9.972770214E-1,-7.426424026E0,-5.041042805E0
4.448352032E0,1.059559941E0,-7.431214809E0,-5.084162235E0
4.450821875E0,9.829040170E-1,-7.364140987E0,-5.064998150E0
4.453206563E0,9.685310125E-1,-7.311439991E0,-5.189564228E0
4.455676407E0,1.107470036E0,-7.316230774E0,-5.242265224E0
4.458146302E0,1.179334998E0,-7.292275906E0,-5.218309879E0
4.460616146E0,1.332646966E0,-7.349768162E0,-5.352458000E0
4.463085990E0,1.457213044E0,-7.402469158E0,-5.448277950E0
4.465555834E0,1.581779003E0,-7.412051201E0,-5.448277950E0
4.468025677E0,1.687180996E0,-7.436006069E0,-5.409949780E0
4.470495521E0,1.754255056E0,-7.440796852E0,-5.314129829E0
4.472965417E0,1.749464035E0,-7.455170155E0,-5.208727837E0
4.475435261E0,1.730299950E0,-7.464752197E0,-5.170400143E0
4.477905105E0,1.648852944E0,-7.325812817E0,-5.069788933E0
4.480374948E0,1.519495964E0,-7.373723030E0,-4.897313118E0
4.482760365E0,1.519495964E0,-7.407259941E0,-4.739210129E0
4.485230209E0,1.500331998E0,-7.517453194E0,-4.547570229E0
4.487700105E0,1.342229009E0,-7.565362930E0,-4.375093937E0
4.490169948E0,1.423676014E0,-7.665974140E0,-4.226572990E0
4.492639792E0,1.605733991E0,-7.900732994E0,-4.188244820E0
4.495109636E0,1.505123019E0,-7.958224773E0,-4.236155033E0
4.497579480E0,1.227244973E0,-7.958224773E0,-4.226572990E0
4.500049323E0,1.112261057E0,-8.087581635E0,-4.010978222E0
4.502519219E0,1.026023030E0,-8.221730232E0,-3.666026115E0
4.504989063E0,8.152189851E-1,-8.279221535E0,-3.589370012E0
4.507458907E0,7.289810181E-1,-8.533144951E0,-3.349819899E0
4.509928750E0,6.858620048E-1,-8.825395584E0,-2.961749077E0
4.512314532E0,4.654760063E-1,-9.103274345E0,-2.669497967E0
4.514784375E0,2.594630122E-1,-9.203885078E0,-2.549722910E0
4.517254271E0,3.696559966E-1,-9.419480324E0,-2.712616920E0
4.519724115E0,4.223569930E-1,-9.572792053E0,-2.784482002E0
4.522193959E0,4.702669978E-1,-9.740476608E0,-2.942584991E0
4.524663802E0,6.379520297E-1,-9.855461121E0,-3.119852066E0
4.527133646E0,6.906530261E-1,-9.831505775E0,-3.177344084E0
4.529603490E0,7.577270269E-1,-9.855461121E0,-3.297118902E0
4.532073386E0,7.864729762E-1,-9.730895042E0,-3.273164034E0
4.534543230E0,9.637399912E-1,-9.625493050E0,-3.186925888E0
4.537013073E0,1.232035995E0,-9.572792053E0,-3.210880995E0
4.539482917E0,1.495540977E0,-9.481762886E0,-3.412102938E0
4.541870365E0,1.888403058E0,-9.496135712E0,-3.680398941E0
4.544340209E0,2.396249056E0,-9.534463882E0,-3.934322119E0
4.546810105E0,2.837021112E0,-9.520091057E0,-4.202618122E0
4.549279948E0,3.325702906E0,-9.510508537E0,-4.403840065E0
4.551749792E0,3.795221090E0,-9.529672623E0,-4.523614883E0
4.554219636E0,3.819175959E0,-9.361988068E0,-4.672135830E0
4.556689480E0,3.637118101E0,-9.170348167E0,-4.844612122E0
4.559159323E0,3.675446033E0,-9.064946175E0,-4.858984947E0
4.561629219E0,3.685028076E0,-8.945171356E0,-4.921267986E0
4.564099063E0,3.579626083E0,-8.767904282E0,-4.959596157E0
4.566568907E0,3.392776966E0,-8.494816780E0,-4.916477203E0
4.569038750E0,3.105317116E0,-8.240894318E0,-4.830238819E0
4.571423802E0,2.860975981E0,-8.073208809E0,-4.672135830E0
4.573893646E0,2.813066006E0,-7.852822781E0,-4.499660015E0
4.576363542E0,2.789110899E0,-7.709093094E0,-4.336765766E0
4.578833386E0,2.559143066E0,-7.574944973E0,-4.130753040E0
4.581303230E0,2.305219889E0,-7.488707066E0,-4.001396179E0
4.583773073E0,2.118371010E0,-7.378513813E0,-3.766637087E0
4.586242917E0,1.979431987E0,-7.330604076E0,-3.527086973E0
4.588712761E0,1.945894957E0,-7.148546219E0,-3.230045080E0
4.591182657E0,1.854866028E0,-6.995234013E0,-3.081523895E0
4.593652500E0,1.926730990E0,-7.143754959E0,-3.009659052E0
4.596122344E0,1.826120019E0,-7.186873913E0,-2.894675016E0
4.598592188E0,1.921939969E0,-7.234784126E0,-2.779690981E0
4.600974011E0,2.099206924E0,-7.364140987E0,-2.736572027E0
4.603442448E0,2.080043077E0,-7.656392097E0,-2.698244095E0
4.605910886E0,1.754255056E0,-7.814495087E0,-2.645543098E0
4.608379375E0,1.356601954E0,-8.068417549E0,-2.966540098E0
4.610847813E0,1.064350963E0,-8.231311798E0,-3.105479002E0
4.613316250E0,9.541580081E-1,-8.547517776E0,-3.527086973E0
4.615784688E0,5.565050244E-1,-8.705620766E0,-3.498341084E0
4.618253125E0,2.498809993E-1,-8.700830460E0,-3.781009912E0
4.620721615E0,2.402990013E-1,-8.820605278E0,-3.757055044E0
4.623190052E0,1.061509997E-1,-8.849350929E0,-3.541460037E0
4.625658490E0,2.163439989E-1,-8.916424751E0,-3.632488966E0
4.628126927E0,6.187880039E-1,-9.064946175E0,-3.699563026E0
4.630542605E0,8.966659904E-1,-9.108064651E0,-3.589370012E0
4.633011094E0,1.112261057E0,-9.050573349E0,-3.589370012E0
4.635479532E0,1.519495964E0,-9.040990829E0,-3.800173998E0
4.637947969E0,2.070461035E0,-8.940380096E0,-3.939112902E0
4.640416407E0,2.837021112E0,-8.490026474E0,-4.030141830E0
4.642884896E0,3.234673977E0,-8.125909805E0,-4.432586193E0
4.645353334E0,3.708982944E0,-8.422951698E0,-5.060206890E0
4.647821823E0,4.518661976E0,-8.643338203E0,-5.486606121E0
4.650290261E0,5.309176922E0,-8.657711029E0,-5.668663979E0
4.652758698E0,6.099691868E0,-8.518772125E0,-5.798020840E0
4.655227136E0,6.550045967E0,-8.490026474E0,-6.080689907E0
4.657695573E0,6.770431995E0,-8.724784851E0,-6.511879921E0
4.660096355E0,6.583582878E0,-9.170348167E0,-6.756220818E0
4.662564844E0,5.620592117E0,-9.639865875E0,-6.986188889E0
4.665033282E0,4.566572189E0,-9.989608765E0,-7.249693871E0
4.667501719E0,3.708982944E0,-1.009501076E1,-7.163455963E0
4.669970209E0,2.904094934E0,-9.989608765E0,-6.928697109E0
4.672438646E0,1.998595953E0,-9.735686302E0,-7.058053970E0
4.674907084E0,1.600942969E0,-9.448225975E0,-7.110754967E0
4.677375521E0,1.342229009E0,-8.906843185E0,-7.029307842E0
4.679844011E0,1.040395975E0,-8.585845947E0,-6.928697109E0
4.682312448E0,8.295919895E-1,-8.427742958E0,-6.368150234E0
4.684780938E0,4.798490107E-1,-8.456488609E0,-6.095063210E0
4.687249375E0,-4.042000044E-3,-8.633755684E0,-5.802812099E0
4.689651459E0,-5.358430147E-1,-8.993081093E0,-5.769275188E0
4.692119948E0,-1.288030028E0,-9.275750160E0,-5.582426071E0
4.694588386E0,-1.953979015E0,-9.342823982E0,-5.357248783E0
4.697056823E0,-2.370795965E0,-9.457807541E0,-5.179982185E0
4.699525261E0,-2.615137100E0,-9.424270630E0,-4.892521858E0
4.701993750E0,-2.442661047E0,-9.251794815E0,-4.878149033E0
4.704462188E0,-2.701375008E0,-9.338032722E0,-3.867248058E0
4.706930625E0,-2.840313911E0,-9.472181320E0,-3.297118902E0
4.709399115E0,-2.773240089E0,-9.453017235E0,-3.124643087E0
4.711867552E0,-2.572017908E0,-9.534463882E0,-3.100687981E0
4.714335990E0,-2.140827894E0,-9.836297035E0,-3.043195963E0
4.716804427E0,-1.652145982E0,-1.017645836E1,-3.091105938E0
4.719204271E0,-1.149091005E0,-1.034893417E1,-3.095896959E0
4.721672761E0,-6.747819781E-1,-1.055015564E1,-3.191716909E0
4.724141198E0,-7.590699941E-2,-1.078970623E1,-3.579787970E0
4.726609636E0,4.511030018E-1,-1.092864513E1,-3.953485966E0
4.729078073E0,1.026023030E0,-1.101488304E1,-4.149917126E0
4.731546563E0,1.768628001E0,-1.112986660E1,-4.552361012E0
4.734015000E0,2.305219889E0,-1.119215012E1,-4.758374214E0
4.736483490E0,2.669336081E0,-1.135025311E1,-4.897313118E0
4.738951927E0,2.707664013E0,-1.181977081E1,-5.577634811E0
4.741420365E0,3.057406902E0,-1.214555931E1,-6.157345772E0
4.743888855E0,3.368822098E0,-1.215514088E1,-6.430432796E0
4.746357292E0,3.512552023E0,-1.196350098E1,-6.550208092E0
4.748748125E0,3.526925087E0,-1.187726307E1,-6.655610085E0
4.751216563E0,3.392776966E0,-1.167604065E1,-6.598117828E0
4.753685000E0,3.378403902E0,-1.120652294E1,-6.535834789E0
4.756153490E0,3.273001909E0,-1.092864513E1,-6.703519821E0
4.758621927E0,2.990333080E0,-1.058848381E1,-6.468760967E0
4.761090365E0,2.947213888E0,-1.039205265E1,-6.363358974E0
4.763558802E0,2.688499928E0,-1.005189228E1,-6.056735039E0
4.766027292E0,2.496860027E0,-9.793177605E0,-5.836349010E0
4.768495730E0,2.175863028E0,-9.635074615E0,-5.472232819E0
4.770964167E0,1.893193960E0,-9.644657135E0,-5.218309879E0
4.773432657E0,1.562615037E0,-9.735686302E0,-4.868566990E0
4.775901094E0,1.121842980E0,-1.005189228E1,-4.619434834E0
4.778306302E0,4.463120103E-1,-1.041121674E1,-4.327184200E0
4.780774740E0,-2.388010025E-1,-1.074179554E1,-4.010978222E0
4.783243177E0,-9.191229939E-1,-1.101967430E1,-3.814547062E0
4.785711667E0,-1.474879026E0,-1.119694138E1,-3.804965019E0
4.788180105E0,-1.724010944E0,-1.128796959E1,-3.809756041E0
4.790648542E0,-1.781502962E0,-1.106758404E1,-3.752264023E0
4.793116980E0,-1.101181030E0,-1.002314568E1,-3.546251059E0
4.795585417E0,-1.000570059E0,-9.745267868E0,-3.378566027E0
4.798053907E0,-1.278447986E0,-9.587164879E0,-3.297118902E0
4.800522344E0,-1.326357961E0,-9.448225975E0,-3.258790970E0
4.802990834E0,-1.216164947E0,-9.299704552E0,-3.258790970E0
4.805459271E0,-1.129927039E0,-9.127228737E0,-3.258790970E0
4.807858125E0,-1.005360961E0,-8.940380096E0,-3.311491966E0
4.810326563E0,-7.849749923E-1,-8.696039200E0,-3.431267023E0
4.812795000E0,-5.454249978E-1,-8.504399300E0,-3.455221891E0
4.815263490E0,-3.969039917E-1,-8.240894318E0,-3.460012913E0
4.817731927E0,-1.621450037E-1,-8.063627243E0,-3.646862030E0
4.820200365E0,2.470399998E-2,-7.939061165E0,-3.637279987E0
4.822668802E0,8.698700368E-2,-7.809703827E0,-3.474385977E0
4.825137292E0,1.157329977E-1,-7.757002831E0,-3.483968019E0
4.827605730E0,1.013600007E-1,-7.613273144E0,-3.383357048E0
4.830074167E0,7.489999989E-4,-7.416841984E0,-3.397730112E0
4.832542657E0,-4.716100171E-2,-7.301857948E0,-3.512713909E0
4.835011094E0,6.782300025E-2,-7.177291870E0,-3.565414906E0
4.837409636E0,2.259259969E-1,-7.033562183E0,-3.642071009E0
4.839878073E0,2.546719909E-1,-6.755683899E0,-3.709145069E0
4.842346511E0,2.738359869E-1,-6.487388134E0,-3.646862030E0
4.844815000E0,2.930000126E-1,-6.334075928E0,-3.699563026E0
4.847283438E0,4.079839885E-1,-6.175972939E0,-3.598952055E0
4.849751875E0,5.181769729E-1,-5.984333038E0,-3.555833101E0
4.852220313E0,5.181769729E-1,-5.878931046E0,-3.436058044E0
4.854688802E0,5.948330164E-1,-5.850184917E0,-3.349819899E0
4.857157240E0,6.475340128E-1,-5.783111095E0,-3.378566027E0
4.859625677E0,7.433540225E-1,-5.763947010E0,-3.349819899E0
4.862094167E0,8.439649940E-1,-5.783111095E0,-3.445640087E0
4.864562605E0,9.206209779E-1,-5.716036797E0,-3.464803934E0
4.867002500E0,1.030814052E0,-5.725618839E0,-3.541460037E0
4.869470990E0,1.112261057E0,-5.730410099E0,-3.666026115E0
4.871939427E0,1.117051959E0,-5.716036797E0,-3.709145069E0
4.874407865E0,1.093096972E0,-5.739992142E0,-3.809756041E0
4.876876302E0,9.493669868E-1,-5.749574184E0,-3.929531097E0
4.879344792E0,7.625179887E-1,-5.840602875E0,-4.236155033E0
4.881813230E0,5.565050244E-1,-5.926840782E0,-4.322392941E0
4.884281667E0,3.073729873E-1,-5.926840782E0,-4.269691944E0
4.886750157E0,1.061509997E-1,-5.922049999E0,-4.197826862E0
4.889218594E0,-6.632500142E-2,-5.984333038E0,-4.082842827E0
4.891687032E0,-2.388010025E-1,-6.017869949E0,-4.159499168E0
4.894155469E0,-4.160679877E-1,-6.056198120E0,-4.212200165E0
4.896546667E0,-5.166789889E-1,-6.104107857E0,-4.221782207E0
4.899015157E0,-6.268720031E-1,-6.056198120E0,-4.470913887E0
4.901483594E0,-7.370650172E-1,-6.113689899E0,-4.681717873E0
4.903952032E0,-8.328850269E-1,-6.104107857E0,-4.906895161E0
4.906420521E0,-9.622420073E-1,-6.104107857E0,-5.232683182E0
4.908888959E0,-1.019734025E0,-6.190345764E0,-5.462650776E0
4.911357396E0,-1.096390009E0,-6.281374931E0,-5.692618847E0
4.913825886E0,-1.244910955E0,-6.343657970E0,-5.956123829E0
4.916294323E0,-1.441341996E0,-6.295748234E0,-6.104644775E0
4.918762761E0,-1.522789001E0,-6.156808853E0,-6.075899124E0
4.921231250E0,-1.762338996E0,-6.032242775E0,-6.099853992E0
4.923699688E0,-1.968351960E0,-5.902885914E0,-6.066317081E0
4.926077605E0,-2.174365044E0,-5.739992142E0,-6.056735039E0
4.928546042E0,-2.322885990E0,-5.510024071E0,-6.027988911E0
4.931014480E0,-2.538480997E0,-5.347129822E0,-5.965705872E0
4.933482969E0,-2.672629118E0,-5.169863224E0,-5.865095139E0
4.935951407E0,-2.778031111E0,-4.992596149E0,-5.649499893E0
4.938419844E0,-2.916970015E0,-4.839283943E0,-5.390786171E0
4.940888282E0,-2.979253054E0,-4.753046036E0,-5.146444798E0
4.943356771E0,-3.017580986E0,-4.590151787E0,-4.906895161E0
4.945825209E0,-3.007998943E0,-4.436840057E0,-4.796701908E0
4.948293646E0,-2.960088968E0,-4.317064762E0,-4.681717873E0
4.950762136E0,-2.897805929E0,-4.235618114E0,-4.499660015E0
4.953230573E0,-2.773240089E0,-4.091887951E0,-4.293646812E0
4.955630052E0,-2.605555058E0,-3.972112894E0,-4.183454037E0
4.958098490E0,-2.538480997E0,-3.895457029E0,-3.867248058E0
4.960566927E0,-2.356422901E0,-3.933784962E0,-3.680398941E0
4.963035417E0,-2.207901955E0,-3.833173990E0,-3.402520895E0
4.965503855E0,-2.169574022E0,-3.713398933E0,-3.043195963E0
4.967972292E0,-2.059381008E0,-3.651115894E0,-2.592842102E0
4.970440730E0,-1.997097969E0,-3.622370005E0,-2.180815935E0
4.972909219E0,-1.891695976E0,-3.560086966E0,-1.869400978E0
4.975377657E0,-1.934815049E0,-3.617578983E0,-1.634642005E0
4.977846094E0,-2.121664047E0,-3.689444065E0,-1.534031034E0
4.980314584E0,-2.279767036E0,-3.722980976E0,-1.826282024E0
4.982783021E0,-2.490571022E0,-3.852338076E0,-2.147279024E0
4.985221146E0,-2.773240089E0,-4.077515125E0,-2.818018913E0
4.987689636E0,-2.940924883E0,-4.432048798E0,-3.680398941E0
4.990158073E0,-3.075073004E0,-6.468224049E0,-5.232683182E0
4.992626511E0,-3.228384972E0,-8.480443954E0,-5.548889160E0
4.995094948E0,-3.242758036E0,-9.299704552E0,-5.050624847E0
4.997563438E0,-2.873851061E0,-1.184372616E1,-4.748792171E0
5.000031875E0,-1.719220042E0,-1.679762077E1,-3.685189962E0
5.002500313E0,1.157329977E-1,-2.261868477E1,-3.014450073E0
5.004968802E0,1.184126019E0,-2.684434700E1,-3.316282988E0
5.007437240E0,9.349939823E-1,-2.930692101E1,-4.006186962E0
5.009905677E0,1.109419987E-1,-3.115624619E1,-4.605062008E0
5.012374115E0,-1.752756953E0,-3.218631363E1,-5.395576954E0
5.014741146E0,-3.951826096E0,-3.270373917E1,-5.922586918E0
5.017209584E0,-5.877808094E0,-3.267978668E1,-5.865095139E0
5.019678021E0,-7.899610043E0,-3.164492989E1,-5.544097900E0
5.022146511E0,-9.768099785E0,-2.958479881E1,-5.304547787E0
5.024614948E0,-1.079337406E1,-2.703119659E1,-5.122489929E0
5.027083386E0,-1.072150898E1,-2.426678848E1,-4.844612122E0
5.029551823E0,-9.667489052E0,-2.126762390E1,-4.518824100E0
5.032020313E0,-7.937938213E0,-1.834032249E1,-4.082842827E0
5.034488750E0,-6.328162193E0,-1.605022430E1,-3.637279987E0
5.036957188E0,-5.029800892E0,-1.436379242E1,-3.110270023E0
5.039425677E0,-3.942244053E0,-1.296481991E1,-2.674288988E0
5.041894115E0,-2.916970015E0,-1.180060673E1,-2.405992985E0
5.044297188E0,-2.030635118E0,-1.085678005E1,-2.358083010E0
5.046765625E0,-1.240120053E0,-1.017166710E1,-2.372456074E0
5.049234063E0,-5.166789889E-1,-9.663821220E0,-2.353291988E0
5.051702552E0,1.157329977E-1,-9.299704552E0,-2.147279024E0
5.054170990E0,5.996239781E-1,-9.127228737E0,-1.711297989E0
5.056639427E0,9.541580081E-1,-8.949961662E0,-1.222615957E0
5.059107865E0,1.040395975E0,-8.820605278E0,-7.195609808E-1
5.061576302E0,8.583379984E-1,-8.719993591E0,-3.362810016E-1
5.064044792E0,5.708780289E-1,-8.566681862E0,-5.702000111E-3
5.066513230E0,2.930000126E-1,-8.466071129E0,1.188639998E-1
5.068981719E0,-1.573539972E-1,-8.437324524E0,2.146839947E-1
5.071450157E0,-6.124989986E-1,-8.480443954E0,2.769669890E-1
5.073850000E0,-1.038897991E0,-8.437324524E0,1.476099938E-1
5.076318438E0,-1.522789001E0,-8.442115784E0,-5.702000111E-3
5.078786875E0,-1.767130017E0,-8.375041962E0,-1.206860021E-1
5.081255365E0,-2.011471033E0,-8.427742958E0,-2.069240063E-1
5.083723802E0,-2.045007944E0,-8.245684624E0,-1.925510019E-1
5.086192240E0,-2.073754072E0,-8.192983627E0,-1.446409971E-1
5.088660677E0,-2.016262054E0,-8.221730232E0,-2.404610068E-1
5.091129167E0,-1.992306948E0,-8.255267143E0,-2.644160092E-1
5.093597605E0,-1.968351960E0,-8.322340965E0,-3.602359891E-1
5.096066042E0,-1.882114053E0,-8.384623528E0,-4.464739859E-1
5.098534480E0,-1.771921039E0,-8.360669136E0,-5.758309960E-1
5.101002969E0,-1.743175030E0,-8.379833221E0,-7.051879764E-1
5.103403698E0,-1.618608952E0,-8.394206047E0,-8.297539949E-1
5.105871042E0,-1.489251971E0,-8.284012794E0,-9.878569841E-1
5.108338386E0,-1.489251971E0,-8.245684624E0,-1.122004986E0
