"Time (s)","Gyroscope x (rad/s)","Gyroscope y (rad/s)","Gyroscope z (rad/s)"
9.407463500E-2,-4.889244735E-1,-3.594901800E0,4.768710434E-1
9.648765600E-2,-5.206894279E-1,-3.544200182E0,4.701515436E-1
9.889984400E-2,-5.603955984E-1,-3.492276669E0,4.561016560E-1
1.013113020E-1,-6.062104702E-1,-3.437298775E0,4.408300519E-1
1.037234890E-1,-6.636317372E-1,-3.385375261E0,4.231149554E-1
1.061365100E-1,-7.289943099E-1,-3.348723412E0,4.096759260E-1
1.085486980E-1,-7.992437482E-1,-3.331008196E0,3.937934637E-1
1.109601560E-1,-8.701040149E-1,-3.325510502E0,3.742457926E-1
1.133723440E-1,-9.372991323E-1,-3.326732159E0,3.608067632E-1
1.157853640E-1,-1.004494309E0,-3.332840919E0,3.522546589E-1
1.181975520E-1,-1.072300315E0,-3.353610277E0,3.510329127E-1
1.206090100E-1,-1.139495492E0,-3.385986090E0,3.589741588E-1
1.230211980E-1,-1.204857945E0,-3.431190014E0,3.730240464E-1
1.254342190E-1,-1.265944481E0,-3.489222288E0,3.931825757E-1
1.278464060E-1,-1.328252673E0,-3.554584742E0,4.176171720E-1
1.302578640E-1,-1.384452224E0,-3.626055956E0,4.438843727E-1
1.326700520E-1,-1.438208342E0,-3.701192379E0,4.713732600E-1
1.350830730E-1,-1.490131736E0,-3.778161287E0,5.019164681E-1
1.374952600E-1,-1.531670570E0,-3.858184576E0,5.330706239E-1
1.399067190E-1,-1.567100763E0,-3.937597036E0,5.654464364E-1
1.423189060E-1,-1.599476576E0,-4.014565468E0,5.978222489E-1
1.447319270E-1,-1.626965523E0,-4.093977928E0,6.338632703E-1
1.471441140E-1,-1.653843522E0,-4.178277493E0,6.699042916E-1
1.495555730E-1,-1.669115186E0,-4.265631199E0,7.083888054E-1
1.519677600E-1,-1.679499865E0,-4.348708630E0,7.474841475E-1
1.543807290E-1,-1.680110693E0,-4.426288605E0,7.804708481E-1
1.567929690E-1,-1.670947790E0,-4.495926857E0,8.097923398E-1
1.592043750E-1,-1.659341335E0,-4.544796467E0,8.354486227E-1
1.616166140E-1,-1.641626239E0,-4.579615593E0,8.574397564E-1
1.640296350E-1,-1.622078538E0,-4.597330570E0,8.800417781E-1
1.664418230E-1,-1.603141785E0,-4.598552227E0,9.008111954E-1
1.688532290E-1,-1.578096271E0,-4.592443466E0,9.246348739E-1
1.712654690E-1,-1.549385667E0,-4.578393936E0,9.490695000E-1
1.736784370E-1,-1.514566422E0,-4.549683094E0,9.686171412E-1
1.760906770E-1,-1.458366871E0,-4.466605663E0,9.863322377E-1
1.785020830E-1,-1.345356822E0,-4.232644558E0,1.004658103E0
1.809143230E-1,-1.159654021E0,-3.827641249E0,1.024816632E0
1.833272920E-1,-9.519599080E-1,-3.415918589E0,1.032757878E0
1.857395310E-1,-7.821395397E-1,-3.170350790E0,1.007712483E0
1.881509370E-1,-6.605774164E-1,-3.078110218E0,9.515129328E-1
1.905631770E-1,-5.787215829E-1,-3.021299839E0,8.684353232E-1
1.929761460E-1,-5.255763531E-1,-2.917452812E0,7.737513185E-1
1.953883850E-1,-4.919787943E-1,-2.736636877E0,6.815107465E-1
1.977997920E-1,-4.608246982E-1,-2.492901802E0,6.051526666E-1
2.002120310E-1,-4.089012146E-1,-2.223510504E0,5.452879071E-1
2.026250000E-1,-3.447604179E-1,-1.947399616E0,4.945861399E-1
2.050372390E-1,-2.739000916E-1,-1.687782049E0,4.542690516E-1
2.074486460E-1,-2.054832280E-1,-1.456264377E0,4.182280302E-1
2.098608850E-1,-1.450076252E-1,-1.263841987E0,3.791326880E-1
2.122738540E-1,-8.758634329E-2,-1.100741029E0,3.382047713E-1
2.146860940E-1,-3.627370298E-2,-9.461922646E-1,2.966659665E-1
2.170975000E-1,9.890433867E-4,-7.928652167E-1,2.532945871E-1
2.195097390E-1,3.031055070E-2,-6.297643781E-1,2.087014467E-1
2.219227600E-1,5.779946223E-2,-4.611657262E-1,1.677735150E-1
2.243349480E-1,8.345577866E-2,-2.980648577E-1,1.298998892E-1
2.267463540E-1,1.054469049E-1,-1.575659364E-1,9.691320360E-2
2.291585940E-1,1.146098822E-1,-3.417127207E-2,6.026131660E-2
2.315716140E-1,1.158316061E-1,5.868016928E-2,2.788548730E-2
2.339838020E-1,1.133881509E-1,1.228209585E-1,-2.657748526E-3
2.363952080E-1,1.011708528E-1,1.723010093E-1,-2.525974438E-2
2.388074480E-1,8.406664431E-2,2.107854784E-1,-3.869877011E-2
2.412204690E-1,6.390810758E-2,2.376635224E-1,-3.930963576E-2
2.436326560E-1,3.886265680E-2,2.498808354E-1,-2.953579649E-2
2.460440620E-1,1.320633758E-2,2.401069850E-1,-1.792936772E-2
2.484563020E-1,-1.122825127E-2,2.089528888E-1,-5.101207644E-3
2.508693230E-1,-3.810629621E-2,1.637489051E-1,7.116086781E-3
2.532815100E-1,-6.254088879E-2,1.087710708E-1,2.666375600E-2
2.556929170E-1,-9.186239541E-2,5.379325151E-2,5.842872709E-2
2.581051560E-1,-1.211839020E-1,6.145803258E-3,1.079087630E-1
2.605181770E-1,-1.480619460E-1,-3.539299965E-2,1.793799400E-1
2.629303640E-1,-1.737182736E-1,-6.593623757E-2,2.685661912E-1
2.653417710E-1,-1.932659447E-1,-9.037081897E-2,3.705805838E-1
2.677540100E-1,-2.048723698E-1,-1.080859005E-1,4.768710434E-1
2.701670310E-1,-2.201439887E-1,-1.141945422E-1,5.752202868E-1
2.725792190E-1,-2.415242493E-1,-1.154162735E-1,6.625739336E-1
2.749906250E-1,-2.702349126E-1,-1.227466464E-1,7.248821259E-1
2.774028640E-1,-2.995564044E-1,-1.355748177E-1,7.682535052E-1
2.798158850E-1,-3.264344633E-1,-1.276335716E-1,8.073488474E-1
2.822280730E-1,-3.612537682E-1,-1.099184901E-1,8.476659656E-1
2.846394790E-1,-4.009599686E-1,-1.123619527E-1,8.830960989E-1
2.870517190E-1,-4.455530941E-1,-1.416834593E-1,9.166936278E-1
2.894647390E-1,-4.895353317E-1,-1.960504204E-1,9.557889700E-1
2.918769270E-1,-5.237437487E-1,-2.779062986E-1,1.032757878E0
2.942883330E-1,-5.213002563E-1,-3.823641837E-1,1.170202494E0
2.967005730E-1,-4.736528695E-1,-4.391745925E-1,1.322918653E0
2.991136460E-1,-4.009599686E-1,-3.970249295E-1,1.427376509E0
3.015257810E-1,-3.288779259E-1,-2.656890154E-1,1.465860963E0
3.039371870E-1,-2.616828084E-1,-8.853822947E-2,1.462195754E0
3.063494270E-1,-1.792160571E-1,9.166686237E-2,1.453032851E0
3.087625000E-1,-8.941894025E-2,2.914196253E-1,1.432263374E0
3.111746350E-1,-3.287009662E-3,4.985027611E-1,1.385837674E0
3.135860420E-1,7.612539828E-2,6.823730469E-1,1.315588236E0
3.159982810E-1,1.414879262E-1,8.259262443E-1,1.222736835E0
3.184113540E-1,1.891353726E-1,9.230537415E-1,1.111559391E0
3.208234890E-1,2.129590958E-1,9.548187256E-1,9.863322377E-1
3.232349480E-1,2.184568793E-1,9.114473462E-1,8.543854356E-1
3.256471350E-1,2.099047750E-1,8.118763566E-1,7.218278050E-1
3.280602080E-1,1.915788352E-1,6.713774800E-1,5.923244953E-1
3.304723440E-1,1.640899181E-1,4.997244775E-1,4.652646184E-1
3.328838020E-1,1.298815012E-1,3.274606168E-1,3.333178461E-1
3.352959890E-1,9.384047985E-2,1.759661883E-1,1.977058798E-1
3.377090620E-1,5.107995123E-2,5.868016928E-2,6.636996567E-2
3.401211980E-1,4.043367226E-3,-3.722559288E-2,-5.335952342E-2
3.425326560E-1,-4.177148640E-2,-1.245792508E-1,-1.578173935E-1
3.449448440E-1,-8.941894025E-2,-2.131546289E-1,-2.457818985E-1
3.473579170E-1,-1.352337897E-1,-3.108929992E-1,-3.178639412E-1
3.497700520E-1,-1.743291318E-1,-4.196269214E-1,-3.820047379E-1
3.521815100E-1,-2.079266906E-1,-5.436324477E-1,-4.339282513E-1
3.545936980E-1,-2.317504138E-1,-6.798552871E-1,-4.858517647E-1
3.570067710E-1,-2.421351224E-1,-8.197432756E-1,-5.432730317E-1
3.594189060E-1,-2.482437640E-1,-9.480248690E-1,-6.049703360E-1
3.618303640E-1,-2.451894432E-1,-1.066532612E0,-6.697220206E-1
3.642425520E-1,-2.348047346E-1,-1.167325258E0,-7.289758921E-1
3.666556250E-1,-2.189222574E-1,-1.250402927E0,-7.845646143E-1
3.690677600E-1,-1.908224821E-1,-1.334091425E0,-8.407641649E-1
3.714792190E-1,-1.566140503E-1,-1.414114714E0,-9.024614692E-1
3.738914060E-1,-1.199621707E-1,-1.496581435E0,-9.635479450E-1
3.763044790E-1,-8.514288068E-2,-1.592487216E0,-1.022801876E0
3.787166670E-1,-5.154532194E-2,-1.695723295E0,-1.074114561E0
3.811280730E-1,-2.039122209E-2,-1.798959494E0,-1.114431620E0
3.835402600E-1,1.076287869E-2,-1.896086931E0,-1.145585656E0
3.859533330E-1,4.191698134E-2,-1.982829690E0,-1.171241999E0
3.883655210E-1,7.062762231E-2,-2.056133509E0,-1.194454908E0
3.907769270E-1,1.011708528E-1,-2.118441820E0,-1.215835094E0
3.931891670E-1,1.359901428E-1,-2.168532610E0,-1.241491437E0
3.956021870E-1,1.714202911E-1,-2.211904049E0,-1.267758608E0
3.980143750E-1,2.031852603E-1,-2.256497145E0,-1.287917137E0
4.004257810E-1,2.398371547E-1,-2.315140247E0,-1.303188801E0
4.028380210E-1,2.795433402E-1,-2.375005007E0,-1.322125554E0
4.052510420E-1,3.186386824E-1,-2.425706863E0,-1.341673255E0
4.076632290E-1,3.577340245E-1,-2.473354101E0,-1.356334090E0
4.100746350E-1,3.980510831E-1,-2.523445129E0,-1.369162202E0
4.124868750E-1,4.395898879E-1,-2.572314262E0,-1.386266351E0
4.148998960E-1,4.792961180E-1,-2.620572567E0,-1.406424880E0
4.173120830E-1,5.202240944E-1,-2.665165663E0,-1.424139977E0
4.197234890E-1,5.654280782E-1,-2.700595856E0,-1.437579036E0
4.221357290E-1,6.149080992E-1,-2.717700005E0,-1.450407147E0
4.245487500E-1,6.674424410E-1,-2.712813139E0,-1.465067983E0
4.269609370E-1,7.211985588E-1,-2.695708990E0,-1.475452662E0
4.293723960E-1,7.767872810E-1,-2.682270050E0,-1.479728699E0
4.317845830E-1,8.305433393E-1,-2.674328804E0,-1.474230886E0
4.341976560E-1,8.842994571E-1,-2.682270050E0,-1.461402774E0
4.366097920E-1,9.343903661E-1,-2.707926273E0,-1.444909453E0
4.390212500E-1,9.802051783E-1,-2.746410847E0,-1.421696544E0
4.414334370E-1,1.021133065E0,-2.794669151E0,-1.389320731E0
4.438465100E-1,1.055952311E0,-2.849646807E0,-1.349003673E0
4.462586460E-1,1.088939071E0,-2.913787603E0,-1.301967025E0
4.486701040E-1,1.118871450E0,-2.984037161E0,-1.246989250E0
4.510822920E-1,1.150636435E0,-3.065892935E0,-1.178572416E0
4.534953640E-1,1.179347038E0,-3.155690193E0,-1.099770904E0
4.559075000E-1,1.208668590E0,-3.250374079E0,-1.005697727E0
4.583189580E-1,1.236768365E0,-3.348723412E0,-9.000180364E-1
4.607311460E-1,1.265478969E0,-3.447683334E0,-7.857863307E-1
4.631442190E-1,1.293578744E0,-3.546032667E0,-6.599481702E-1
4.655563540E-1,1.315569878E0,-3.640716791E0,-5.292231441E-1
4.679678120E-1,1.337561011E0,-3.735400677E0,-3.905568421E-1
4.703800000E-1,1.361384749E0,-3.832528114E0,-2.402841151E-1
4.727930730E-1,1.383375883E0,-3.922936201E0,-8.451361954E-2
4.752052600E-1,1.409032226E0,-3.996850729E0,7.492206991E-2
4.776166670E-1,1.438353658E0,-4.052439213E0,2.306925803E-1
4.800289060E-1,1.471951246E0,-4.081150055E0,3.766892552E-1
4.824419270E-1,1.506770492E0,-4.078095436E0,5.055816770E-1
4.848541140E-1,1.547087550E0,-4.042665482E0,6.185916662E-1
4.872655210E-1,1.595345974E0,-3.980357409E0,7.206060886E-1
4.896777600E-1,1.645436883E0,-3.884451628E0,8.097923398E-1
4.920907810E-1,1.697971225E0,-3.756170034E0,8.885938525E-1
4.945029690E-1,1.749894738E0,-3.601010561E0,9.563998580E-1
4.969143750E-1,1.797542095E0,-3.420805454E0,1.015042901E0
4.993266140E-1,1.838470101E0,-3.228383064E0,1.067577124E0
5.017396350E-1,1.868402481E0,-3.042680025E0,1.114613771E0
5.041518230E-1,1.881841421E0,-2.872859716E0,1.150654793E0
5.065632810E-1,1.880619764E0,-2.725030422E0,1.175700188E0
5.089754690E-1,1.869624138E0,-2.608355284E0,1.192804456E0
5.113885420E-1,1.848854780E0,-2.520390749E0,1.198913097E0
5.138006770E-1,1.820144176E0,-2.454417467E0,1.204410911E0
5.162121350E-1,1.783492208E0,-2.392109156E0,1.217239022E0
5.186243230E-1,1.739509940E0,-2.328579187E0,1.239230156E0
5.210373960E-1,1.689419031E0,-2.265049219E0,1.264275670E0
5.234495310E-1,1.637495637E0,-2.199686766E0,1.292375445E0
5.258609890E-1,1.580074310E0,-2.122717857E0,1.332692504E0
5.282731770E-1,1.482335925E0,-1.843552589E0,1.423100471E0
5.306862500E-1,1.340004444E0,-1.221081376E0,1.628961921E0
5.330983850E-1,1.164075375E0,-8.429561257E-1,1.896520615E0
5.355098440E-1,1.015024424E0,-7.165071368E-1,2.137201309E0
5.379220310E-1,9.050688148E-1,-6.010537148E-1,2.316795588E0
5.403351040E-1,8.018327355E-1,-4.947632849E-1,2.449964046E0
5.427472920E-1,7.102029920E-1,-4.361202717E-1,2.575802326E0
5.451586980E-1,6.332340240E-1,-4.226812422E-1,2.708359957E0
5.475709370E-1,5.813105702E-1,-4.715504348E-1,2.851302385E0
5.499839580E-1,5.550433397E-1,-5.729539394E-1,3.001574993E0
5.523961460E-1,5.489346981E-1,-7.000138164E-1,3.153680325E0
5.548075520E-1,5.538216233E-1,-8.240193129E-1,3.294179201E0
5.572197920E-1,5.660389066E-1,-9.535226822E-1,3.412687063E0
5.596328120E-1,5.892517567E-1,-1.095854163E0,3.523864269E0
5.620450000E-1,6.301797032E-1,-1.244294286E0,3.633209229E0
5.644564060E-1,6.912661791E-1,-1.404951692E0,3.744386435E0
5.668686460E-1,7.731220722E-1,-1.580880761E0,3.854953051E0
5.692817190E-1,8.739147186E-1,-1.758031487E0,3.953913212E0
5.716938540E-1,9.832594991E-1,-1.901584744E0,4.038823128E0
5.741053120E-1,1.099934578E0,-2.002988338E0,4.112127304E0
5.765175000E-1,1.211722851E0,-2.048192263E0,4.176878929E0
5.789305730E-1,1.312515497E0,-2.035974979E0,4.234910965E0
5.813427080E-1,1.396203995E0,-1.963892937E0,4.294775486E0
5.837541670E-1,1.462788224E0,-1.848439455E0,4.355251312E0
5.861663540E-1,1.507381439E0,-1.707940578E0,4.418781281E0
5.885794270E-1,1.529983401E0,-1.565609097E0,4.490863323E0
5.909916140E-1,1.532426834E0,-1.415947199E0,4.580660343E0
5.934030210E-1,1.507381439E0,-1.274837494E0,4.719937325E0
5.958152080E-1,1.447516680E0,-1.144723296E0,4.886092663E0
5.982282810E-1,1.353443503E0,-9.895637035E-1,5.057745457E0
6.006404690E-1,1.233103156E0,-8.032499552E-1,5.213516235E0
6.030518750E-1,1.095047712E0,-6.144927144E-1,5.360123634E0
6.054641140E-1,9.459967613E-1,-4.794916809E-1,5.515283108E0
6.078771350E-1,7.792307138E-1,-4.110748172E-1,5.680216789E0
6.102893230E-1,5.764236450E-1,-3.933597505E-1,5.838430882E0
6.127007290E-1,3.607883453E-1,-3.628165126E-1,5.974042892E0
6.151129690E-1,1.469857097E-1,-3.096712828E-1,6.083998203E0
6.175260420E-1,-6.559520960E-2,-2.583586276E-1,6.167686939E0
6.199381770E-1,-2.775653005E-1,-2.461413294E-1,6.235492706E0
6.223495830E-1,-4.852592945E-1,-2.711867988E-1,6.295357704E0
6.247618230E-1,-6.813468337E-1,-3.170016408E-1,6.347280979E0
6.271748960E-1,-8.646062613E-1,-3.786989748E-1,6.387598038E0
6.295870310E-1,-1.026485443E0,-4.636091888E-1,6.416919708E0
6.319984890E-1,-1.166984320E0,-5.698996186E-1,6.443186760E0
6.344106770E-1,-1.281826973E0,-6.859639287E-1,6.470065117E0
6.368237500E-1,-1.374067545E0,-7.940869927E-1,6.484114647E0
6.392359370E-1,-1.438819170E0,-8.997665644E-1,6.484725475E0
6.416473440E-1,-1.482190490E0,-1.031713367E0,6.478006363E0
6.440595830E-1,-1.502349138E0,-1.178320885E0,6.468842983E0
6.464726040E-1,-1.494407892E0,-1.323095798E0,6.454793453E0
6.488847920E-1,-1.465086341E0,-1.462373018E0,6.435245514E0
6.512961980E-1,-1.421104074E0,-1.606537104E0,6.416308880E0
6.537084370E-1,-1.357574105E0,-1.758642316E0,6.398593903E0
6.561214580E-1,-1.264722705E0,-1.932738781E0,6.384543896E0
6.585336460E-1,-1.149269223E0,-2.116609097E0,6.376602650E0
6.609450520E-1,-1.030761480E0,-2.283375263E0,6.368661404E0
6.633572920E-1,-9.208058119E-1,-2.428761005E0,6.372326374E0
6.657703640E-1,-8.200131059E-1,-2.574146986E0,6.393706799E0
6.681825000E-1,-7.179987431E-1,-2.709758759E0,6.417530537E0
6.705939580E-1,-6.123191118E-1,-2.815438509E0,6.429748058E0
6.730061460E-1,-5.029743314E-1,-2.887520552E0,6.419363022E0
6.754192190E-1,-4.021816850E-1,-2.898515940E0,6.369883060E0
6.778313540E-1,-3.184932172E-1,-2.844149113E0,6.264814377E0
6.802428120E-1,-2.598502040E-1,-2.739691257E0,6.107211113E0
6.826550000E-1,-2.231983095E-1,-2.583309889E0,5.915399551E0
6.850680730E-1,-2.103701532E-1,-2.370118141E0,5.705262184E0
6.874802600E-1,-2.378590703E-1,-2.103780985E0,5.481074810E0
6.898916670E-1,-2.995564044E-1,-1.818507075E0,5.262996197E0
6.923039060E-1,-3.856883347E-1,-1.538120151E0,5.052248001E0
6.947169270E-1,-4.828158319E-1,-1.265063643E0,4.839056015E0
6.971291140E-1,-5.829976201E-1,-1.015830874E0,4.633805752E0
6.995405210E-1,-6.862337589E-1,-8.063042760E-1,4.446880817E0
7.019527600E-1,-7.968002558E-1,-5.986102819E-1,4.270340919E0
7.043657810E-1,-9.183623195E-1,-3.750337958E-1,4.104186058E0
7.067779690E-1,-1.062526464E0,-1.838331223E-1,3.974071741E0
7.091894270E-1,-1.230514288E0,-7.571007311E-2,3.907487392E0
7.116016140E-1,-1.403999805E0,-8.181871474E-2,3.898324490E0
7.140146870E-1,-1.554883480E0,-1.007555276E-1,3.910541773E0
7.164268230E-1,-1.666060805E0,-6.410363317E-2,3.927035093E0
7.188382810E-1,-1.745473266E0,2.019569091E-2,3.941084862E0
7.212504690E-1,-1.798618436E0,1.112145334E-1,3.947804451E0
7.236635420E-1,-1.830994248E0,1.545859277E-1,3.951469660E0
7.260756770E-1,-1.851152897E0,1.967355907E-1,3.952691317E0
7.284871350E-1,-1.853596330E0,2.535459995E-1,3.941084862E0
7.308993230E-1,-1.817555308E0,2.932521999E-1,3.905043840E0
7.333123960E-1,-1.760744810E0,3.170759380E-1,3.875111580E0
7.357245830E-1,-1.734477639E0,3.555603921E-1,3.876944065E0
7.381359890E-1,-1.706988811E0,3.812167346E-1,3.881220102E0
7.405482290E-1,-1.655065298E0,4.050404429E-1,3.869613886E0
7.429612500E-1,-1.581761479E0,4.331402183E-1,3.854953051E0
7.453734370E-1,-1.495629549E0,4.148142934E-1,3.861061573E0
7.477848440E-1,-1.405832410E0,3.396779299E-1,3.889772415E0
7.501970830E-1,-1.314813614E0,2.370526642E-1,3.922759056E0
7.526101560E-1,-1.218907833E0,1.319839358E-1,3.958800077E0
7.550222920E-1,-1.135219336E0,6.051275879E-2,3.982623816E0
7.574337500E-1,-1.042978764E0,5.073892325E-2,3.940474033E0
7.598459370E-1,-9.354665875E-1,8.983427286E-2,3.880609274E0
7.622590100E-1,-8.719366193E-1,1.185449064E-1,3.906265736E0
7.646711460E-1,-8.566650152E-1,1.099928021E-1,3.930089474E0
7.670826040E-1,-8.444477320E-1,9.960810840E-2,3.925813437E0
7.694948440E-1,-8.218457103E-1,5.684757233E-2,3.955745697E0
7.719078640E-1,-8.242892027E-1,-1.034754422E-2,4.033325672E0
7.743200520E-1,-8.560541272E-1,-6.410363317E-2,4.124955177E0
7.767314580E-1,-8.383390903E-1,-8.914908767E-2,4.143280983E0
7.791436980E-1,-7.723656893E-1,-8.609476686E-2,4.086470604E0
7.815567190E-1,-7.186095715E-1,-9.892292321E-2,4.019886494E0
7.839689060E-1,-6.874554753E-1,-8.914908767E-2,3.945360899E0
7.863803120E-1,-6.532470584E-1,-2.561916225E-2,3.845179081E0
7.887925520E-1,-6.178169250E-1,6.723228097E-2,3.735834360E0
7.912056250E-1,-5.994909406E-1,1.313730627E-1,3.620380878E0
7.936177600E-1,-6.055995822E-1,1.661923528E-1,3.478660345E0
7.960292190E-1,-6.165951490E-1,2.168941349E-1,3.292346716E0
7.984414060E-1,-6.440840960E-1,3.140216172E-1,3.088317871E0
8.008544790E-1,-6.972293258E-1,4.478009939E-1,2.917275667E0
8.032666140E-1,-7.430441976E-1,6.157888174E-1,2.749287844E0
8.056780730E-1,-7.839720845E-1,7.709484696E-1,2.603902102E0
8.080902600E-1,-8.389499187E-1,8.931213617E-1,2.497611523E0
8.105033330E-1,-8.841539025E-1,1.005520463E0,2.406592846E0
8.129155210E-1,-9.220275283E-1,1.117919564E0,2.321071625E0
8.153269270E-1,-9.684532285E-1,1.226042628E0,2.244713545E0
8.177391670E-1,-1.009381294E0,1.338441730E0,2.157970905E0
8.201521870E-1,-1.035037518E0,1.447786570E0,2.070617199E0
8.225643750E-1,-1.071078539E0,1.543081403E0,2.009530783E0
8.249757810E-1,-1.109563112E0,1.642041564E0,1.947833300E0
8.273880210E-1,-1.122391224E0,1.756273270E0,1.860479593E0
8.298010940E-1,-1.129721642E0,1.839961767E0,1.789008379E0
8.322132290E-1,-1.152934432E0,1.887609124E0,1.746247888E0
8.346246870E-1,-1.165151715E0,1.926093578E0,1.701654792E0
8.370368750E-1,-1.142549753E0,1.957247734E0,1.641790032E0
8.394499480E-1,-1.107119560E0,1.963967204E0,1.583757877E0
8.418620830E-1,-1.073522091E0,1.930369735E0,1.542829990E0
8.442735420E-1,-1.026485443E0,1.882722259E0,1.508621454E0
8.466857810E-1,-9.727293253E-1,1.833242178E0,1.481132627E0
8.490988020E-1,-9.226384163E-1,1.785594702E0,1.458530545E0
8.515109890E-1,-8.646062613E-1,1.737336397E0,1.439593792E0
8.539223960E-1,-7.992437482E-1,1.683580399E0,1.432874322E0
8.563346350E-1,-7.320486307E-1,1.648761034E0,1.412104845E0
8.587477080E-1,-6.581339836E-1,1.618217826E0,1.372398734E0
8.611598440E-1,-5.732237697E-1,1.579733372E0,1.332081556E0
8.635713020E-1,-4.901462197E-1,1.526588082E0,1.285655856E0
8.659834890E-1,-4.198967516E-1,1.456949472E0,1.238619328E0
8.683965620E-1,-3.520907760E-1,1.413578153E0,1.185474038E0
8.708086980E-1,-2.934477627E-1,1.396473885E0,1.115835547E0
8.732201560E-1,-2.421351224E-1,1.381813169E0,1.029703617E0
8.756323440E-1,-1.889898926E-1,1.368374109E0,9.356304407E-1
8.780454170E-1,-1.279034168E-1,1.375093699E0,8.360595107E-1
8.804576040E-1,-6.009742618E-2,1.396473885E0,7.334342599E-1
8.828690100E-1,1.259547286E-2,1.423962831E0,6.228677034E-1
8.852812500E-1,9.078615904E-2,1.449008346E0,5.061925650E-1
8.876942710E-1,1.671442389E-1,1.477108121E0,3.779109716E-1
8.901064580E-1,2.404480129E-1,1.519868612E0,2.319142967E-1
8.925178640E-1,3.088648319E-1,1.589507222E0,7.370033860E-2
8.949301040E-1,3.730056286E-1,1.684191227E0,-8.878967166E-2
8.973431770E-1,4.304269254E-1,1.787427306E0,-2.543340027E-1
8.997553120E-1,4.774635136E-1,1.893106937E0,-4.186566174E-1
9.021667710E-1,5.147262812E-1,2.000618935E0,-5.713728070E-1
9.045789580E-1,5.367174149E-1,2.104465961E0,-6.996544003E-1
9.069920310E-1,5.391608477E-1,2.206480503E0,-8.016688228E-1
9.094042190E-1,5.232784152E-1,2.309105635E0,-8.871898651E-1
9.118156250E-1,4.866264760E-1,2.401957035E0,-9.519415498E-1
9.142278640E-1,4.255400002E-1,2.473428249E0,-9.947020411E-1
9.166408850E-1,3.552905619E-1,2.545510292E0,-1.022801876E0
9.190530730E-1,2.722129524E-1,2.613316298E0,-1.035630107E0
9.214644790E-1,1.805832684E-1,2.681122303E0,-1.035019159E0
9.238767190E-1,8.406664431E-2,2.737321854E0,-1.023412704E0
9.262897920E-1,-7.563062478E-3,2.775806427E0,-1.003865123E0
9.287019270E-1,-9.125152975E-2,2.800240993E0,-9.769869447E-1
9.311133850E-1,-1.633335650E-1,2.816123486E0,-9.378916621E-1
9.335255730E-1,-2.213657200E-1,2.834449291E0,-8.981854320E-1
9.359386460E-1,-2.574067414E-1,2.861327410E0,-8.633661270E-1
9.383507810E-1,-2.696240544E-1,2.888816357E0,-8.383206725E-1
9.407622390E-1,-2.531307042E-1,2.905920506E0,-8.242707849E-1
9.431744270E-1,-2.152570635E-1,2.905920506E0,-8.144969344E-1
9.455875000E-1,-1.621118337E-1,2.883318424E0,-8.108317852E-1
9.479996870E-1,-9.797104448E-2,2.837503672E0,-8.114426136E-1
9.504110940E-1,-3.077592142E-2,2.767865181E0,-8.132752180E-1
9.528233330E-1,3.886265680E-2,2.679900646E0,-8.248816729E-1
9.552364060E-1,1.085012332E-1,2.582773209E0,-8.499271274E-1
9.576485420E-1,1.689768434E-1,2.492975950E0,-8.945202231E-1
9.600600000E-1,2.288415879E-1,2.406233072E0,-9.513306618E-1
9.624721870E-1,2.795433402E-1,2.318268776E0,-1.016082406E0
9.648852600E-1,3.192495406E-1,2.224806309E0,-1.093051314E0
9.672973960E-1,3.430732787E-1,2.149059057E0,-1.179794073E0
9.697088540E-1,3.528470993E-1,2.090416193E0,-1.266536951E0
9.721210420E-1,3.467384577E-1,2.072700977E0,-1.363053560E0
9.745341140E-1,3.308559656E-1,2.078198910E0,-1.462013602E0
9.769463020E-1,2.874845862E-1,2.077588081E0,-1.578688741E0
9.793577080E-1,1.903571039E-1,2.045212030E0,-1.692920446E0
9.817699480E-1,3.458660468E-2,1.982293248E0,-1.797378302E0
9.841829690E-1,-1.682204902E-1,1.917541504E0,-1.923216462E0
9.865951560E-1,-3.881317973E-1,1.876002669E0,-2.068602085E0
9.890066140E-1,-5.915496945E-1,1.872337580E0,-2.215209723E0
9.914188020E-1,-7.711439729E-1,1.923650146E0,-2.359373808E0
9.938318750E-1,-9.232492447E-1,2.013447285E0,-2.494985819E0
9.962440100E-1,-1.060693860E0,2.108131170E0,-2.627543449E0
9.986554690E-1,-1.200581908E0,2.192430496E0,-2.761933565E0
1.001067656E0,-1.347800255E0,2.281005859E0,-2.901210785E0
1.003480729E0,-1.495018721E0,2.385463715E0,-3.044153214E0
1.005892917E0,-1.636128426E0,2.508858442E0,-3.188928127E0
1.008304323E0,-1.769297004E0,2.624311924E0,-3.333703041E0
1.010716562E0,-1.893302560E0,2.734878302E0,-3.474201918E0
1.013129583E0,-2.017307997E0,2.825897217E0,-3.603094339E0
1.015541771E0,-2.139481068E0,2.845444918E0,-3.712439060E0
1.017953177E0,-2.253101826E0,2.797186613E0,-3.780245066E0
1.020365417E0,-2.362446547E0,2.703724384E0,-3.790629864E0
1.022778489E0,-2.468737125E0,2.577275276E0,-3.728932381E0
1.025190625E0,-2.573194981E0,2.419672251E0,-3.617144346E0
1.027602083E0,-2.672765970E0,2.229082346E0,-3.479088783E0
1.030014271E0,-2.756454468E0,2.017112255E0,-3.325150967E0
1.032427344E0,-2.804101706E0,1.813083649E0,-3.166936874E0
1.034839531E0,-2.803490877E0,1.665254354E0,-3.004446983E0
1.037250937E0,-2.757065296E0,1.568737745E0,-2.838902473E0
1.039663177E0,-2.680707216E0,1.493601441E0,-2.694127560E0
1.042076198E0,-2.592742682E0,1.436180115E0,-2.574398279E0
1.044488385E0,-2.502945423E0,1.409302115E0,-2.478492498E0
1.046899844E0,-2.414370060E0,1.408691168E0,-2.403966904E0
1.049312031E0,-2.326405525E0,1.425795436E0,-2.341658592E0
1.051725104E0,-2.245771408E0,1.449008346E0,-2.289735317E0
1.054137239E0,-2.171246052E0,1.464890718E0,-2.240865946E0
1.056548698E0,-2.097942114E0,1.471610308E0,-2.193218470E0
1.058960937E0,-2.011199474E0,1.505207896E0,-2.126634359E0
1.061373958E0,-1.932397842E0,1.547968388E0,-2.032561064E0
1.063786146E0,-1.870089650E0,1.535751104E0,-1.965977073E0
1.066197552E0,-1.835270405E0,1.475886345E0,-1.923827410E0
1.068609792E0,-1.823663950E0,1.381202340E0,-1.884732008E0
1.071022812E0,-1.823053002E0,1.271857500E0,-1.832808495E0
1.073435000E0,-1.827329159E0,1.187558174E0,-1.764391661E0
1.075846406E0,-1.837713838E0,1.131969452E0,-1.680703163E0
1.078258646E0,-1.856039762E0,1.103258848E0,-1.589684367E0
1.080671719E0,-1.880474329E0,1.106313229E0,-1.484004736E0
1.083083854E0,-1.907963276E0,1.133191228E0,-1.360610127E0
1.085495312E0,-1.946447730E0,1.167399645E0,-1.239658833E0
1.087907500E0,-1.991651773E0,1.210771084E0,-1.130924940E0
1.090320573E0,-2.037466526E0,1.259029388E0,-1.017915010E0
1.092732760E0,-2.084503174E0,1.314617991E0,-9.085701108E-1
1.095144167E0,-2.129096270E0,1.373871922E0,-7.973927259E-1
1.097556406E0,-2.177354574E0,1.425184608E0,-6.739980578E-1
1.099969427E0,-2.231721640E0,1.460003853E0,-5.310557485E-1
1.102381614E0,-2.290364504E0,1.475886345E0,-3.813938797E-1
1.104793073E0,-2.341677189E0,1.470999360E0,-2.433384359E-1
1.107205260E0,-2.375885725E0,1.446564794E0,-1.168894470E-1
1.109618333E0,-2.391157150E0,1.392808676E0,-6.322938949E-3
1.112030469E0,-2.383826971E0,1.323170185E0,8.164158463E-2
1.114441927E0,-2.361224890E0,1.266359687E0,1.372302622E-1
1.116854114E0,-2.326405525E0,1.259029388E0,1.463932395E-1
1.119267187E0,-2.281812429E0,1.335998297E0,1.146282777E-1
1.121679375E0,-2.231721640E0,1.525366426E0,7.003515214E-2
1.124090781E0,-2.177354574E0,1.761771083E0,1.872251555E-2
1.126503021E0,-2.137037516E0,1.955415130E0,-5.274865776E-2
1.128916042E0,-2.132150650E0,2.053764343E0,-1.413240433E-1
1.131328229E0,-2.171856880E0,2.068424940E0,-2.372297943E-1
1.133739687E0,-2.264708281E0,2.009782076E0,-3.215291202E-1
1.136151875E0,-2.395433187E0,1.883943915E0,-3.740634918E-1
1.138564948E0,-2.507832527E0,1.774599195E0,-3.832264841E-1
1.140977083E0,-2.564642906E0,1.747721195E0,-3.820047379E-1
1.143388542E0,-2.565864563E0,1.781318665E0,-3.746743798E-1
1.145800729E0,-2.526769161E0,1.832020521E0,-3.587918878E-1
1.148213802E0,-2.449189425E0,1.885165691E0,-3.343572915E-1
1.150625989E0,-2.349007607E0,1.948695660E0,-3.105335832E-1
1.153037396E0,-2.253101826E0,2.020166636E0,-3.050357997E-1
1.155449635E0,-2.171856880E0,2.099579096E0,-3.099226952E-1
1.157862708E0,-2.119322538E0,2.180213213E0,-3.258051872E-1
1.160274844E0,-2.093666077E0,2.241910696E0,-3.465745747E-1
1.162686302E0,-2.095498800E0,2.275508165E0,-3.758960962E-1
1.165098489E0,-2.110770226E0,2.290779829E0,-4.088827968E-1
1.167511562E0,-2.131539822E0,2.292612314E0,-4.412586093E-1
1.169923698E0,-2.150476456E0,2.282838583E0,-4.809648395E-1
1.172335156E0,-2.155363560E0,2.288947105E0,-5.255579352E-1
1.174747396E0,-2.162693739E0,2.310938358E0,-5.719836950E-1
1.177160417E0,-2.165137291E0,2.354309797E0,-6.061921120E-1
1.179572604E0,-2.165137291E0,2.397070169E0,-6.184093952E-1
1.181984010E0,-2.163915634E0,2.416007042E0,-6.153550744E-1
1.184396250E0,-2.162693739E0,2.425169945E0,-6.086355448E-1
1.186809323E0,-2.160861254E0,2.431278706E0,-5.872552991E-1
1.189221458E0,-2.162693739E0,2.454491615E0,-5.677075982E-1
1.191632917E0,-2.168802500E0,2.486256361E0,-5.609881282E-1
1.194045104E0,-2.170634985E0,2.541845083E0,-5.597663522E-1
1.196458177E0,-2.185295820E0,2.610261917E0,-5.787031651E-1
1.198870364E0,-2.203011036E0,2.660352945E0,-6.000834703E-1
1.201281771E0,-2.215839148E0,2.615759850E0,-6.226854324E-1
1.203694010E0,-2.200567484E0,2.463654518E0,-6.605590582E-1
1.206107083E0,-2.162693739E0,2.309716463E0,-7.106499672E-1
1.208519219E0,-2.121155024E0,2.199150085E0,-7.521887422E-1
1.210930677E0,-2.068009853E0,2.124624491E0,-7.735690475E-1
1.213342864E0,-2.014864683E0,2.065981627E0,-8.035014272E-1
1.215755937E0,-1.964773655E0,1.985347629E0,-8.383206725E-1
1.218168073E0,-1.914071918E0,1.885776520E0,-8.621444106E-1
1.220579531E0,-1.862759233E0,1.792925119E0,-8.639770150E-1
1.222991771E0,-1.804727077E0,1.712291002E0,-8.425967693E-1
1.225404792E0,-1.753414512E0,1.649371862E0,-8.248816729E-1
1.227816979E0,-1.709432244E0,1.584009409E0,-7.955601811E-1
1.230228385E0,-1.670947790E0,1.529031515E0,-7.381388545E-1
1.232640625E0,-1.651400089E0,1.454506040E0,-6.324592829E-1
1.235053698E0,-1.659952164E0,1.376315355E0,-5.188384652E-1
1.237465833E0,-1.691717148E0,1.307287693E0,-4.217109382E-1
1.239877292E0,-1.749138474E0,1.248644710E0,-3.313029706E-1
1.242289479E0,-1.820609570E0,1.206495047E0,-2.274559736E-1
1.244702552E0,-1.892080784E0,1.202218890E0,-1.260524243E-1
1.247114739E0,-1.960497618E0,1.238259912E0,-5.824644119E-2
1.249526146E0,-2.038688421E0,1.282242179E0,-1.609677449E-2
1.251938385E0,-2.102218151E0,1.322559237E0,3.965741489E-4
1.254351406E0,-2.142535210E0,1.352491617E0,-2.657748526E-3
1.256763594E0,-2.168802500E0,1.358600259E0,-2.403801680E-2
1.259175000E0,-2.189571857E0,1.321948409E0,-4.786173999E-2
1.261587239E0,-2.206065178E0,1.254753351E0,-6.007903069E-2
1.264000312E0,-2.220726013E0,1.173508286E0,-5.763557553E-2
1.266412448E0,-2.225612879E0,1.066606998E0,-3.625530750E-2
1.268823906E0,-2.211563110E0,9.328275919E-1,-8.251552936E-4
1.271236094E0,-2.186517477E0,7.953830361E-1,3.277240694E-2
1.273649167E0,-2.151698351E0,6.866491437E-1,7.003515214E-2
1.276061354E0,-2.110770226E0,6.182322502E-1,1.225695238E-1
1.278472760E0,-2.060679436E0,5.821912289E-1,1.720495671E-1
1.280885000E0,-2.009977579E0,5.540914536E-1,2.148100883E-1
1.283298073E0,-1.960497618E0,5.211047530E-1,2.526836991E-1
1.285710208E0,-1.920180559E0,4.856745899E-1,2.923898995E-1
1.288121667E0,-1.889026403E0,4.508553147E-1,3.382047713E-1
1.290533854E0,-1.868257046E0,4.245881140E-1,3.834087551E-1
1.292946927E0,-1.857261539E0,4.056513011E-1,4.267801642E-1
1.295359114E0,-1.855428934E0,3.818275928E-1,4.670972228E-1
1.297770521E0,-1.856039762E0,3.586147428E-1,4.951969981E-1
1.300182760E0,-1.863370180E0,3.378453255E-1,5.226858854E-1
1.302595781E0,-1.876809120E0,3.066912293E-1,5.532291532E-1
1.305007969E0,-1.891469955E0,2.706502080E-1,5.794963241E-1
1.307419427E0,-1.900632858E0,2.303331643E-1,5.966005325E-1
1.309831614E0,-1.898189425E0,1.564185172E-1,6.155373454E-1
1.312244687E0,-1.881085157E0,6.051275879E-2,6.387501955E-1
1.314656823E0,-1.858483195E0,-2.561916225E-2,6.747912169E-1
1.317068281E0,-1.837102890E0,-9.403601289E-2,7.419863343E-1
1.319480521E0,-1.815111876E0,-1.398508698E-1,8.281182647E-1
1.321893542E0,-1.783346891E0,-1.661180556E-1,9.063089490E-1
1.324305729E0,-1.741808057E0,-1.911635101E-1,9.857213497E-1
1.326717135E0,-1.687441111E0,-2.388109565E-1,1.091400862E0
1.329129375E0,-1.632463217E0,-3.157799244E-1,1.208686948E0
1.331542448E0,-1.571987629E0,-4.074096382E-1,1.309479594E0
1.333954583E0,-1.515788078E0,-4.416180551E-1,1.400498509E0
1.336366042E0,-1.444927812E0,-4.691069722E-1,1.530001760E0
1.338778229E0,-1.360628486E0,-5.106457472E-1,1.649731278E0
1.341191302E0,-1.273885727E0,-5.320259929E-1,1.732808828E0
1.343603489E0,-1.188364625E0,-5.069805384E-1,1.757243395E0
1.346014896E0,-1.103454471E0,-4.416180551E-1,1.746247888E0
1.348427135E0,-1.009381294E0,-4.055770338E-1,1.725478530E0
1.350840156E0,-9.232492447E-1,-3.872511089E-1,1.701043844E0
1.353252344E0,-8.297869563E-1,-3.823641837E-1,1.684550524E0
1.355663802E0,-7.479310632E-1,-3.683142960E-1,1.657061696E0
1.358075989E0,-6.685186625E-1,-3.658708334E-1,1.628350973E0
1.360489062E0,-5.982692242E-1,-3.499883413E-1,1.566042781E0
1.362901198E0,-5.365719199E-1,-3.304406703E-1,1.495182514E0
1.365312656E0,-4.840375483E-1,-3.096712828E-1,1.426765680E0
1.367724896E0,-4.681550860E-1,-2.522499859E-1,1.340022802E0
1.370137917E0,-4.822049737E-1,-2.375892252E-1,1.305814385E0
1.372550104E0,-5.109155774E-1,-2.754628360E-1,1.341244578E0
1.374961510E0,-5.628390908E-1,-3.286080658E-1,1.408439755E0
1.377373750E0,-6.349211335E-1,-4.355094135E-1,1.493349910E0
1.379786823E0,-6.886771917E-1,-5.766191483E-1,1.595975161E0
1.382198958E0,-7.015053630E-1,-6.896290779E-1,1.710817695E0
1.384610417E0,-6.789034009E-1,-7.586567998E-1,1.836045027E0
1.387022604E0,-6.196495295E-1,-7.140637040E-1,1.960661411E0
1.389435677E0,-5.353501439E-1,-6.737466455E-1,2.085888863E0
1.391847864E0,-4.211184978E-1,-7.384982705E-1,2.220889807E0
1.394259271E0,-2.604610622E-1,-8.215758801E-1,2.405982018E0
1.396671510E0,1.121664196E-1,-7.867565751E-1,2.682092667E0
1.399084531E0,6.540034413E-1,-5.857821107E-1,2.917886496E0
1.401496719E0,5.012872815E-1,-4.373419881E-1,3.007072687E0
1.403908177E0,6.411752701E-1,-3.371601999E-1,3.089539528E0
1.406320364E0,8.024435639E-1,-3.383819163E-1,3.164065123E0
1.408733385E0,9.429424405E-1,-4.355094135E-1,3.317392111E0
1.411145625E0,1.086495638E0,-3.615947664E-1,3.490266800E0
1.413557031E0,1.214166284E0,-1.832222641E-1,3.624656916E0
1.415969271E0,1.294800520E0,-2.500829659E-2,3.732779980E0
1.418382292E0,1.324121952E0,9.472118318E-2,3.814025164E0
1.420794479E0,1.303963423E0,1.643597633E-1,3.867170334E0
1.423205937E0,1.233103156E0,1.588619798E-1,3.892215729E0
1.425618125E0,1.118260622E0,8.372563124E-2,3.888550520E0
1.428031198E0,9.472185373E-1,-4.150164500E-2,3.853731394E0
1.430443385E0,7.346375585E-1,-1.905526370E-1,3.781038284E0
1.432854792E0,4.964003265E-1,-3.451014161E-1,3.637485266E0
1.435266979E0,2.636608481E-1,-5.002610087E-1,3.421239138E0
1.437680052E0,4.619303346E-2,-6.468685865E-1,3.140852213E0
1.440092239E0,-1.486728191E-1,-7.653763294E-1,2.814039469E0
1.442503646E0,-2.958912253E-1,-8.246302009E-1,2.467068434E0
1.444915885E0,-3.936295807E-1,-8.350148797E-1,2.134147167E0
1.447328958E0,-4.376118481E-1,-8.142455220E-1,1.848262310E0
1.449741094E0,-4.260054231E-1,-7.812588215E-1,1.639957428E0
1.452152552E0,-3.801905513E-1,-7.488830090E-1,1.501291156E0
1.454564739E0,-3.300996423E-1,-7.165071368E-1,1.393168092E0
1.456977812E0,-2.928369045E-1,-6.932942867E-1,1.283212423E0
1.459390000E0,-2.635153830E-1,-6.859639287E-1,1.177532792E0
1.461801406E0,-2.323612869E-1,-6.804661155E-1,1.091400862E0
1.464213646E0,-1.993745863E-1,-6.841313243E-1,1.030314445E0
1.466626719E0,-1.694422215E-1,-7.049007416E-1,9.808344245E-1
1.469038854E0,-1.523379982E-1,-7.323896289E-1,9.301326871E-1
1.471450260E0,-1.529488713E-1,-7.513264418E-1,8.782091737E-1
1.473862500E0,-1.743291318E-1,-7.543807626E-1,8.226205111E-1
1.476275573E0,-2.158679366E-1,-7.586567998E-1,7.706969976E-1
1.478687760E0,-2.739000916E-1,-7.378874421E-1,7.291581631E-1
1.481099167E0,-3.355974257E-1,-6.810770035E-1,7.004475594E-1
1.483511406E0,-3.936295807E-1,-6.126601696E-1,6.833433509E-1
1.485924427E0,-4.510508776E-1,-5.460758805E-1,6.808998585E-1
1.488336614E0,-5.115264654E-1,-4.843785763E-1,6.796781421E-1
1.490748021E0,-5.750563741E-1,-4.306224883E-1,6.705151796E-1
1.493160260E0,-6.324776411E-1,-3.793098629E-1,6.552435756E-1
1.495573333E0,-6.825685501E-1,-3.170016408E-1,6.283655167E-1
1.497985469E0,-7.234964967E-1,-2.443087399E-1,6.008765697E-1
1.500396927E0,-7.619809508E-1,-1.697832346E-1,5.898810029E-1
1.502809167E0,-8.016871810E-1,-8.670563251E-2,5.953788161E-1
1.505222187E0,-8.481128812E-1,1.103272103E-2,6.020983458E-1
1.507634375E0,-8.975929618E-1,1.167123169E-1,6.063743830E-1
1.510045781E0,-9.568468332E-1,2.260570973E-1,6.051526666E-1
1.512458021E0,-1.024652839E0,3.354018629E-1,5.935462117E-1
1.514871094E0,-1.096734881E0,4.282533228E-1,5.794963241E-1
1.517283229E0,-1.176147342E0,5.052223206E-1,5.587269068E-1
1.519694687E0,-1.257392287E0,5.699739456E-1,5.367357731E-1
1.522106875E0,-1.337415576E0,6.109018922E-1,5.159663558E-1
1.524519948E0,-1.413773656E0,6.231191754E-1,4.988621771E-1
1.526932135E0,-1.484634042E0,6.249517798E-1,4.848122895E-1
1.529343542E0,-1.547553062E0,6.255626678E-1,4.677080810E-1
1.531755781E0,-1.599476576E0,6.182322502E-1,4.432734847E-1
1.534168802E0,-1.647124052E0,5.944085717E-1,4.090650678E-1
1.536580989E0,-1.691717148E0,5.608109832E-1,3.724131882E-1
1.538992448E0,-1.735088587E0,5.107200742E-1,3.467568755E-1
1.541404635E0,-1.786401153E0,4.478009939E-1,3.302635252E-1
1.543817708E0,-1.845655084E0,3.751080930E-1,3.278200626E-1
1.546229896E0,-1.913461089E0,2.938630581E-1,3.510329127E-1
1.548641302E0,-1.978212714E0,2.156724036E-1,4.017347097E-1
1.551053542E0,-2.036855698E0,1.527533382E-1,4.725950062E-1
1.553466562E0,-2.091833591E0,9.777551889E-2,5.721659660E-1
1.555878750E0,-2.142535210E0,6.295622885E-2,6.900628209E-1
1.558290208E0,-2.184684992E0,5.929103494E-2,8.171226978E-1
1.560702396E0,-2.218282461E0,8.311475813E-2,9.417390823E-1
1.563115469E0,-2.240273714E0,1.106036752E-1,1.049862146E0
1.565527656E0,-2.240884542E0,1.264861524E-1,1.144546151E0
1.567939062E0,-2.214006424E0,1.222101003E-1,1.234954119E0
1.570351302E0,-2.159639597E0,9.899723530E-2,1.318642616E0
1.572764323E0,-2.086946726E0,4.707373679E-2,1.401720166E0
1.575176510E0,-2.001425505E0,-1.401273254E-2,1.480521679E0
1.577587969E0,-1.904908895E0,-8.242958039E-2,1.548938632E0
1.580000156E0,-1.803505421E0,-1.655071825E-1,1.603305578E0
1.582413229E0,-1.695993185E0,-2.693541944E-1,1.650952935E0
1.584825364E0,-1.579318047E0,-3.884728253E-1,1.690048337E0
1.587236823E0,-1.448593020E0,-4.972067475E-1,1.723034978E0
1.589649062E0,-1.313591838E0,-5.790625811E-1,1.757854342E0
1.592062083E0,-1.181645155E0,-6.487011909E-1,1.790840983E0
1.594474271E0,-1.058250427E0,-7.183397412E-1,1.824438572E0
1.596885677E0,-9.409643412E-1,-7.849239707E-1,1.859257817E0
1.599297917E0,-8.303978443E-1,-8.447887301E-1,1.902018428E0
1.601710989E0,-7.228856683E-1,-8.808297515E-1,1.966770053E0
1.604123125E0,-6.165951490E-1,-8.893818855E-1,2.035187006E0
1.606534583E0,-5.219111443E-1,-8.661689758E-1,2.100549459E0
1.608946823E0,-4.455530941E-1,-8.203541636E-1,2.164690256E0
1.611359844E0,-3.826340139E-1,-7.446069121E-1,2.231885433E0
1.613772031E0,-3.398734927E-1,-6.590858698E-1,2.303967476E0
1.616183437E0,-3.074976504E-1,-5.619583726E-1,2.379714727E0
1.618595677E0,-2.836739421E-1,-4.623874426E-1,2.456683636E0
1.621008750E0,-2.635153830E-1,-3.573187292E-1,2.533041716E0
1.623420885E0,-2.360264659E-1,-2.449195981E-1,2.607567310E0
1.625832344E0,-2.054832280E-1,-1.422943175E-1,2.675984144E0
1.628244531E0,-1.633335650E-1,-6.899055839E-2,2.729740143E0
1.630657604E0,-1.315685958E-1,1.869751024E-3,2.770668030E0
1.633069792E0,-1.016362309E-1,3.913249820E-2,2.793880939E0
1.635481198E0,-7.292558998E-2,1.225444861E-2,2.787772417E0
1.637893437E0,-5.459964648E-2,-7.693179697E-2,2.742568254E0
1.640306510E0,-4.849099740E-2,-2.033807933E-1,2.668653727E0
1.642718646E0,-3.810629621E-2,-3.163907826E-1,2.577634811E0
1.645130104E0,-2.649986930E-2,-3.994683921E-1,2.477452993E0
1.647542292E0,-1.000652183E-2,-4.648309052E-1,2.366886616E0
1.649955364E0,1.259547286E-2,-4.837677181E-1,2.246546268E0
1.652367552E0,3.458660468E-2,-4.532244802E-1,2.134147167E0
1.654778958E0,5.841032788E-2,-4.037444293E-1,2.022969723E0
1.657191198E0,7.368194312E-2,-3.670925498E-1,1.892855406E0
1.659604271E0,8.223404735E-2,-3.389927745E-1,1.745026112E0
1.662016406E0,8.589923382E-2,-2.992865741E-1,1.593531728E0
1.664427864E0,9.445134550E-2,-2.327023000E-1,1.440815568E0
1.666840052E0,1.048360467E-1,-1.502355635E-1,1.286266804E0
1.669253125E0,1.176642030E-1,-6.349277496E-2,1.121944189E0
1.671665312E0,1.329358220E-1,2.202828415E-2,9.417390823E-1
1.674076719E0,1.579812765E-1,1.142688543E-1,7.438189387E-1
1.676488958E0,1.836375892E-1,2.120072097E-1,5.397900939E-1
1.678901979E0,2.318959087E-1,3.201302588E-1,3.278200626E-1
1.681314167E0,2.880954444E-1,3.958774805E-1,1.127956808E-1
1.683725625E0,3.436841369E-1,4.123708308E-1,-9.795264900E-2
1.686137812E0,4.041597545E-1,3.958774805E-1,-3.032031953E-1
1.688550885E0,4.737983346E-1,4.074839056E-1,-5.096754432E-1
1.690963073E0,5.550433397E-1,4.917832315E-1,-7.039304376E-1
1.693374479E0,6.698859334E-1,6.805404425E-1,-8.780269027E-1
1.695786719E0,8.067196012E-1,8.992300630E-1,-1.037462592E0
1.698199792E0,9.704313874E-1,1.108145833E0,-1.173685431E0
1.700611927E0,1.146360397E0,1.268192291E0,-1.292804122E0
1.703023385E0,1.339393616E0,1.393419623E0,-1.395429373E0
1.705435573E0,1.553196311E0,1.506429553E0,-1.468733191E0
1.707848646E0,1.777994514E0,1.612720013E0,-1.520045757E0
1.710260833E0,2.009512186E0,1.713512659E0,-1.564638853E0
1.712672239E0,2.229423523E0,1.804531574E0,-1.598847270E0
1.715084479E0,2.444447994E0,1.865007162E0,-1.623281956E0
1.717497552E0,2.658250570E0,1.941976070E0,-1.645883918E0
1.719909687E0,2.861057520E0,2.013447285E0,-1.670929313E0
1.722321146E0,3.062643051E0,2.098357439E0,-1.698418260E0
1.724733333E0,3.265450001E0,2.202204466E0,-1.721020222E0
1.727146406E0,3.461537600E0,2.340259790E0,-1.744843960E0
1.729558542E0,3.643575430E0,2.562003613E0,-1.760726452E0
1.731970000E0,3.799956799E0,2.890648842E0,-1.766835093E0
1.734382239E0,3.908690691E0,3.309702158E0,-1.757061243E0
1.736795260E0,3.805454493E0,3.563210964E0,-1.746676564E0
1.739207448E0,3.325314760E0,3.329860687E0,-1.749730945E0
1.741618906E0,2.653363705E0,2.837503672E0,-1.765002489E0
1.744031094E0,2.007679701E0,2.306051254E0,-1.777219772E0
1.746444167E0,1.404145241E0,1.718399644E0,-1.777830720E0
1.748856354E0,8.500910401E-1,1.125249982E0,-1.777219772E0
1.751267760E0,4.230965376E-1,6.640471220E-1,-1.774776340E0
1.753680000E0,1.634790599E-1,3.738863468E-1,-1.763780832E0
1.756093021E0,6.146465242E-2,2.333874851E-1,-1.738124490E0
1.758505208E0,7.184934616E-2,1.887943596E-1,-1.696585655E0
1.760916667E0,1.708094329E-1,2.016225159E-1,-1.644662142E0
1.763328854E0,3.204712868E-1,2.474373728E-1,-1.580521345E0
1.765741927E0,5.080067515E-1,3.189085126E-1,-1.509050250E0
1.768154114E0,6.863792539E-1,3.879362345E-1,-1.430248618E0
1.770565521E0,8.488692641E-1,4.532987773E-1,-1.340451598E0
1.772977760E0,9.844812751E-1,5.467610955E-1,-1.251876116E0
1.775390781E0,1.024187446E0,6.884816885E-1,-1.160857320E0
1.777802969E0,9.936442375E-1,8.870127201E-1,-1.075336218E0
1.780214427E0,9.478293657E-1,1.138689041E0,-1.016082406E0
1.782626614E0,9.325577617E-1,1.451451778E0,-9.751543403E-1
1.785039687E0,9.826486707E-1,1.841183424E0,-9.244526029E-1
1.787451823E0,1.027852535E0,2.277340651E0,-7.717364430E-1
1.789863281E0,1.018078804E0,2.649968147E0,-4.724127054E-1
1.792275521E0,9.209513068E-1,2.879653454E0,-3.442271426E-2
1.794688594E0,7.199768424E-1,2.954789639E0,5.630030036E-1
1.797100729E0,4.114901125E-1,2.863770962E0,1.278936386E0
1.799512187E0,3.781786654E-4,2.666461468E0,2.016250372E0
1.801924375E0,-4.742637277E-1,2.379966021E0,2.668042898E0
1.804337448E0,-9.482946992E-1,2.084918261E0,3.143906593E0
1.806749583E0,-1.366737127E0,1.858287692E0,3.431012869E0
1.809161042E0,-1.689884543E0,1.734282136E0,3.591059446E0
1.811573281E0,-1.898189425E0,1.692132473E0,3.650924206E0
1.813986302E0,-1.995316863E0,1.726951718E0,3.624046087E0
1.816398489E0,-1.994706035E0,1.817970634E0,3.517755747E0
1.818809896E0,-1.914682746E0,1.952971697E0,3.341826677E0
1.821222135E0,-1.768075228E0,2.128900528E0,3.107865572E0
1.823635208E0,-1.567711592E0,2.325598955E0,2.826256752E0
1.826047396E0,-1.342302561E0,2.504582405E0,2.506163836E0
1.828458802E0,-1.106508732E0,2.649357319E0,2.167744637E0
1.830871042E0,-8.701040149E-1,2.756869555E0,1.819551706E0
1.833284062E0,-6.508036256E-1,2.814901590E0,1.457308888E0
1.835696250E0,-4.724311233E-1,2.827118874E0,1.073074937E0
1.838107708E0,-3.459821343E-1,2.798408270E0,6.754021049E-1
1.840519896E0,-2.604610622E-1,2.745873928E0,2.826160789E-1
1.842932969E0,-2.030397803E-1,2.687841892E0,-7.168546319E-2
1.845345104E0,-1.676096171E-1,2.626755238E0,-3.508506417E-1
1.847756562E0,-1.621118337E-1,2.556505919E0,-5.243362188E-1
1.850168802E0,-1.938768029E-1,2.437998056E0,-5.854226947E-1
1.852581823E0,-2.653479874E-1,2.278562546E0,-5.506033897E-1
1.854994010E0,-3.600320220E-1,2.106298685E0,-4.504216015E-1
1.857405469E0,-4.522725940E-1,1.946863055E0,-3.025923371E-1
1.859817656E0,-5.261871815E-1,1.821635723E0,-1.242198348E-1
1.862230729E0,-5.738346577E-1,1.736725569E0,7.064601779E-2
1.864642864E0,-6.019344330E-1,1.687856436E0,2.581814826E-1
1.867054323E0,-6.117082834E-1,1.669530511E0,4.188389182E-1
1.869466562E0,-6.098756790E-1,1.678693414E0,5.410118699E-1
1.871879583E0,-5.946040750E-1,1.706793189E0,6.295872331E-1
1.874291771E0,-5.689477324E-1,1.742223382E0,6.925063133E-1
1.876703177E0,-5.329067111E-1,1.771544814E0,7.389320135E-1
1.879115417E0,-4.840375483E-1,1.784983873E0,7.755839229E-1
1.881528489E0,-4.247836769E-1,1.783151269E0,8.049054146E-1
1.883940625E0,-3.588103056E-1,1.770323157E0,8.189553022E-1
1.886352083E0,-2.861174047E-1,1.741001606E0,8.232313395E-1
1.888764323E0,-2.164787948E-1,1.689689040E0,8.281182647E-1
1.891177344E0,-1.480619460E-1,1.623104692E0,8.354486227E-1
1.893589531E0,-7.964510471E-2,1.538805366E0,8.446116447E-1
1.896000989E0,-1.183911599E-2,1.441067100E0,8.488876820E-1
1.898413177E0,5.169081688E-2,1.334165692E0,8.513311148E-1
1.900826250E0,1.072795019E-1,1.221155763E0,8.525528312E-1
1.903238385E0,1.598138660E-1,1.099593639E0,8.525528312E-1
1.905649844E0,2.099047750E-1,9.774206877E-1,8.458333611E-1
1.908062083E0,2.557196021E-1,8.589129448E-1,8.348377943E-1
1.910475104E0,3.003127277E-1,7.465138435E-1,8.201770186E-1
1.912887292E0,3.424623907E-1,6.432777047E-1,8.012402058E-1
1.915298750E0,3.809468746E-1,5.528697371E-1,7.743621469E-1
1.917710937E0,4.139335752E-1,4.807876647E-1,7.370994091E-1
1.920124010E0,4.450876713E-1,4.239772558E-1,6.931171417E-1
1.922536198E0,4.707439840E-1,3.861036301E-1,6.473023295E-1
1.924947604E0,4.957894385E-1,3.622799218E-1,5.984331369E-1
1.927359844E0,5.171697736E-1,3.500626385E-1,5.434553027E-1
1.929772864E0,5.257218480E-1,3.543386757E-1,4.805362523E-1
1.932185052E0,5.299978852E-1,3.787732720E-1,4.096759260E-1
1.934596510E0,5.330522060E-1,4.062621891E-1,3.394264877E-1
1.937008698E0,5.190023184E-1,4.410814643E-1,2.667335868E-1
1.939421771E0,4.841830134E-1,4.856745899E-1,1.928189546E-1
1.941833958E0,4.432550967E-1,5.455393791E-1,1.182934642E-1
1.944245364E0,4.102683961E-1,6.121236086E-1,4.621142894E-2
1.946657604E0,3.748382330E-1,6.909251809E-1,-2.587061003E-2
1.949070677E0,3.400189579E-1,7.764462233E-1,-9.612005204E-2
1.951482812E0,3.015344739E-1,8.625781536E-1,-1.614825726E-1
1.953894271E0,2.606065273E-1,9.480991960E-1,-2.231799066E-1
1.956306458E0,2.196786106E-1,1.025678992E0,-2.824337780E-1
1.958719531E0,1.787506789E-1,1.094095826E0,-3.422985375E-1
1.961131719E0,1.341575533E-1,1.165567040E0,-4.009415507E-1
1.963543125E0,7.979059219E-2,1.256585956E0,-4.571411014E-1
1.965955364E0,2.481276728E-2,1.362265468E0,-5.145623684E-1
1.968368385E0,-1.916949265E-2,1.463058233E0,-5.756488442E-1
1.970780573E0,-4.604753852E-2,1.549800992E0,-6.361244917E-1
1.973192031E0,-5.521050841E-2,1.622493863E0,-6.966000795E-1
1.975604219E0,-4.482581094E-2,1.678693414E0,-7.509670258E-1
1.978017292E0,-1.978035830E-2,1.715345263E0,-7.998362184E-1
1.980429479E0,9.541149251E-3,1.740390778E0,-8.499271274E-1
1.982840885E0,4.436044022E-2,1.753218889E0,-8.975745440E-1
1.985253125E0,9.017529339E-2,1.740390778E0,-9.464437366E-1
1.987666198E0,1.518726200E-1,1.690910697E0,-9.965346456E-1
1.990078333E0,2.300633043E-1,1.631045938E0,-1.050290823E0
1.992489792E0,3.186386824E-1,1.573624730E0,-1.105268598E0
1.994901979E0,4.102683961E-1,1.516203403E0,-1.163911700E0
1.997315052E0,4.957894385E-1,1.455116987E0,-1.220722079E0
1.999727239E0,5.727584362E-1,1.395863056E0,-1.277532458E0
2.002138646E0,6.460621953E-1,1.345161319E0,-1.332510352E0
2.004550885E0,7.132573128E-1,1.302400708E0,-1.386877298E0
2.006963958E0,7.700677514E-1,1.266970634E0,-1.443076849E0
2.009376094E0,8.183260560E-1,1.241925120E0,-1.490724325E0
2.011787552E0,8.610866070E-1,1.226042628E0,-1.526765347E0
2.014199739E0,8.989601731E-1,1.215047121E0,-1.556086779E0
2.016612812E0,9.020144939E-1,1.231540442E0,-1.582353950E0
2.019025000E0,7.828959227E-1,1.359211206E0,-1.615340710E0
2.021436406E0,5.605411530E-1,1.497266650E0,-1.657490373E0
2.023848646E0,2.935932279E-1,1.582787633E0,-1.673983693E0
2.026261719E0,4.741476476E-2,1.602946162E0,-1.634277463E0
2.028673854E0,-1.217947677E-1,1.585231066E0,-1.552421570E0
2.031085312E0,-2.323612869E-1,1.564461708E0,-1.444298506E0
2.033497552E0,-3.252127469E-1,1.544303179E0,-1.306854010E0
2.035910573E0,-4.082903266E-1,1.537583709E0,-1.154748678E0
2.038322760E0,-4.608246982E-1,1.548579216E0,-1.006308556E0
2.040734167E0,-4.693768024E-1,1.583398581E0,-8.682530522E-1
2.043146406E0,-4.388335645E-1,1.646317601E0,-7.540213466E-1
2.045559479E0,-3.746927679E-1,1.723286510E0,-6.660568118E-1
2.047971614E0,-2.879499793E-1,1.807585835E0,-6.000834703E-1
2.050383073E0,-1.914333403E-1,1.886998296E0,-5.524359941E-1
2.052795312E0,-9.247326106E-2,1.954193354E0,-5.206710100E-1
2.055208333E0,-2.326860704E-4,2.005506039E0,-4.992907643E-1
2.057620521E0,7.979059219E-2,2.037270784E0,-4.846299887E-1
2.060031927E0,1.475965679E-1,2.047044754E0,-4.699692726E-1
2.062444167E0,1.970766187E-1,2.036659956E0,-4.516433179E-1
2.064857239E0,2.276198566E-1,2.007338524E0,-4.302630424E-1
2.067269375E0,2.416697443E-1,1.963967204E0,-4.058284760E-1
2.069680833E0,2.392262816E-1,1.912043691E0,-3.765069544E-1
2.072093073E0,2.251763940E-1,1.850346446E0,-3.410767913E-1
2.074506094E0,2.025744021E-1,1.783762097E0,-3.013705909E-1
2.076918281E0,1.720311642E-1,1.719621301E0,-2.586100698E-1
2.079329739E0,1.402661949E-1,1.657924056E0,-2.176821381E-1
2.081741927E0,1.091120988E-1,1.601724505E0,-1.743107438E-1
2.084155000E0,8.040145785E-2,1.553466201E0,-1.352154016E-1
2.086567187E0,5.413427576E-2,1.515592575E0,-9.978523850E-2
2.088978594E0,3.214314580E-2,1.492379665E0,-7.168546319E-2
2.091390833E0,1.626066118E-2,1.478329778E0,-5.397038907E-2
2.093803854E0,8.930284530E-3,1.474053741E0,-4.419655353E-2
2.096216042E0,1.599908108E-3,1.472831964E0,-3.992049396E-2
2.098627500E0,-4.508738872E-3,1.460614681E0,-3.625530750E-2
2.101039687E0,-1.122825127E-2,1.438012719E0,-3.197925538E-2
2.103452760E0,-1.611516811E-2,1.408691168E0,-2.037282661E-2
2.105864948E0,-1.428257488E-2,1.370206714E0,-4.490343854E-3
2.108276354E0,-9.395657107E-3,1.327446222E0,6.505221128E-3
2.110688594E0,-4.508738872E-3,1.283463955E0,1.444646157E-2
2.113101667E0,9.890433867E-4,1.238870859E0,1.750078611E-2
2.115513802E0,5.875961389E-3,1.195499420E0,1.872251555E-2
2.117925260E0,9.541149251E-3,1.152127981E0,1.688992046E-2
2.120337448E0,1.198460814E-2,1.114254475E0,1.261386834E-2
2.122750521E0,1.320633758E-2,1.084322095E0,7.726950571E-3
2.125162708E0,1.442806702E-2,1.062330961E0,-2.142896410E-4
2.127574114E0,1.137374341E-2,1.045837522E0,-1.059899107E-2
2.129986354E0,8.319419809E-3,1.037896276E0,-2.220541984E-2
2.132399427E0,5.875961389E-3,1.034842014E0,-3.381185234E-2
2.134811562E0,-8.173927665E-3,1.024457335E0,-4.358568788E-2
2.137223021E0,-6.926040351E-2,9.377145171E-1,-3.014666215E-2
2.139635208E0,-1.865464300E-1,7.678941488E-1,7.726950571E-3
2.142048281E0,-3.148280382E-1,5.773043036E-1,5.170921236E-2
2.144460469E0,-4.241728187E-1,3.940448761E-1,9.630233794E-2
2.146871875E0,-4.986983240E-1,2.517133951E-1,1.250129789E-1
2.149284114E0,-5.237437487E-1,1.710792780E-1,1.280672997E-1
2.151697187E0,-5.084721446E-1,1.527533382E-1,1.140174121E-1
2.154109323E0,-4.724311233E-1,1.796313822E-1,9.935665876E-2
2.156520781E0,-4.217293561E-1,2.437721640E-1,8.775023371E-2
2.158932969E0,-3.655298054E-1,3.415105045E-1,7.858725637E-2
2.161346042E0,-3.068867922E-1,4.612399936E-1,6.881342083E-2
2.163758229E0,-2.488546222E-1,6.017389297E-1,5.048748106E-2
2.166169687E0,-1.914333403E-1,7.575094104E-1,2.483116277E-2
2.168581875E0,-1.340120584E-1,9.248863459E-1,-1.182071865E-2
2.170994948E0,-7.903423905E-2,1.092263341E0,-5.213779211E-2
2.173407083E0,-2.833246253E-2,1.256585956E0,-9.489832073E-2
2.175818542E0,1.564979739E-2,1.411745548E0,-1.358262599E-1
2.178230781E0,5.535600707E-2,1.551022649E0,-1.700346768E-1
2.180643802E0,8.589923382E-2,1.670752168E0,-1.975235939E-1
2.183055989E0,1.042251810E-1,1.768490553E0,-2.158495337E-1
2.185467448E0,1.103338301E-1,1.835685611E0,-2.262342274E-1
2.187879635E0,1.054469049E-1,1.871726632E0,-2.298994362E-1
2.190292708E0,9.567306936E-2,1.885165691E0,-2.323428988E-1
2.192704896E0,7.734712958E-2,1.878446221E0,-2.335646152E-1
2.195116302E0,5.657773465E-2,1.854011655E0,-2.323428988E-1
2.197528542E0,3.397573903E-2,1.811861873E0,-2.292885482E-1
2.199941562E0,1.015201397E-2,1.759327531E0,-2.231799066E-1
2.202353750E0,-1.428257488E-2,1.693354130E0,-2.121843547E-1
2.204765208E0,-4.054975510E-2,1.613941789E0,-1.975235939E-1
2.207177396E0,-6.559520960E-2,1.526588082E0,-1.822519749E-1
2.209590469E0,-8.514288068E-2,1.438623548E0,-1.639260352E-1
2.212002656E0,-9.797104448E-2,1.360432863E0,-1.480435580E-1
2.214414062E0,-1.034688279E-1,1.293237805E0,-1.339936703E-1
2.216826302E0,-1.022470966E-1,1.237038255E0,-1.223872304E-1
2.219239375E0,-1.010253653E-1,1.189390779E0,-1.101699471E-1
2.221651510E0,-9.980364144E-2,1.141132474E0,-9.550918639E-2
2.224062969E0,-9.491671622E-2,1.098371983E0,-8.023756742E-2
2.226475156E0,-8.880807459E-2,1.068439603E0,-7.046373188E-2
2.228888229E0,-8.086682856E-2,1.047059298E0,-6.007903069E-2
2.231300417E0,-7.292558998E-2,1.037285447E0,-4.847260565E-2
2.233711823E0,-6.254088879E-2,1.042172432E0,-3.503357619E-2
2.236124062E0,-5.398878083E-2,1.057443976E0,-2.220541984E-2
2.238537135E0,-4.788013175E-2,1.075159073E0,-8.155532181E-3
2.240949271E0,-4.177148640E-2,1.087987185E0,8.948680013E-3
2.243360729E0,-3.871716186E-2,1.097761035E0,2.849635296E-2
2.245772969E0,-3.627370298E-2,1.107534885E0,4.926575348E-2
2.248185989E0,-3.627370298E-2,1.121584773E0,7.003515214E-2
2.250598177E0,-3.810629621E-2,1.138689041E0,8.958282322E-2
2.253009583E0,-3.932802752E-2,1.157625794E0,1.072978973E-1
2.255421823E0,-4.482581094E-2,1.176562667E0,1.176825985E-1
2.257834896E0,-5.826483294E-2,1.170454025E0,1.225695238E-1
2.260247083E0,-7.475818694E-2,1.141743302E0,1.250129789E-1
2.262658489E0,-9.002980590E-2,1.105702281E0,1.244021133E-1
2.265070729E0,-1.040796936E-1,1.064163566E0,1.170717329E-1
2.267483750E0,-1.205730364E-1,1.018348694E0,1.060761735E-1
2.269895937E0,-1.364555210E-1,9.737555385E-1,9.446974099E-2
2.272307396E0,-1.498945504E-1,9.242755175E-1,8.652850240E-2
2.274719583E0,-1.663878858E-1,8.766280413E-1,8.286331594E-2
2.277132656E0,-1.828812361E-1,8.332566619E-1,7.858725637E-2
2.279544844E0,-1.981528550E-1,7.984373569E-1,7.308948040E-2
2.281956250E0,-2.164787948E-1,7.721701860E-1,6.270477921E-2
2.284368489E0,-2.378590703E-1,7.507899404E-1,4.987661541E-2
2.286781562E0,-2.586284876E-1,7.361291647E-1,4.071364552E-2
2.289193698E0,-2.726783752E-1,7.428486943E-1,3.155067563E-2
2.291605156E0,-2.726783752E-1,7.617854476E-1,2.971808054E-2
2.294017344E0,-2.653479874E-1,7.911069989E-1,3.582672775E-2
2.296430417E0,-2.482437640E-1,8.387544155E-1,4.315710813E-2
2.298842604E0,-2.189222574E-1,9.175559878E-1,4.193537682E-2
2.301254010E0,-1.822703779E-1,1.019570351E0,3.704845905E-2
2.303666250E0,-1.474510878E-1,1.123417377E0,3.765932471E-2
2.306079323E0,-1.193513125E-1,1.220544934E0,4.193537682E-2
2.308491458E0,-1.046905518E-1,1.297513843E0,4.254624248E-2
2.310902917E0,-1.126317978E-1,1.326224446E0,4.010278359E-2
2.313315156E0,-1.425641626E-1,1.308509350E0,3.216154128E-2
2.315728177E0,-1.853246987E-1,1.266970634E0,2.177683823E-2
2.318140364E0,-2.244200408E-1,1.226653576E0,1.566819288E-2
2.320551823E0,-2.525198460E-1,1.196721196E0,1.383559778E-2
2.322964010E0,-2.671805918E-1,1.175340891E0,1.933337934E-2
2.325377083E0,-2.720675170E-1,1.167399645E0,2.666375600E-2
2.327789271E0,-2.684023082E-1,1.172286510E0,3.399413452E-2
2.330200677E0,-2.567958832E-1,1.191223383E0,4.254624248E-2
2.332612917E0,-2.409133911E-1,1.223599195E0,5.109834671E-2
2.335025989E0,-2.231983095E-1,1.263916254E0,5.903958529E-2
2.337438125E0,-2.012071759E-1,1.309731126E0,7.247861475E-2
2.339849583E0,-1.786051840E-1,1.356767774E0,8.530677110E-2
2.342261771E0,-1.584466547E-1,1.394641280E0,9.996752441E-2
2.344674844E0,-1.382881105E-1,1.416021585E0,1.109630913E-1
2.347087031E0,-1.303468794E-1,1.421519399E0,1.127956808E-1
2.349498437E0,-1.254599541E-1,1.403804302E0,1.103522256E-1
2.351910677E0,-1.279034168E-1,1.372039318E0,9.752406180E-2
2.354323750E0,-1.358446628E-1,1.334165692E0,8.225245029E-2
2.356735885E0,-1.413424462E-1,1.296292067E0,7.125688344E-2
2.359147344E0,-1.425641626E-1,1.262083650E0,6.453736871E-2
2.361559531E0,-1.425641626E-1,1.232151270E0,6.331564486E-2
2.363972604E0,-1.401207149E-1,1.207716703E0,6.331564486E-2
2.366384792E0,-1.395098418E-1,1.190612555E0,6.270477921E-2
2.368796198E0,-1.407315731E-1,1.177173495E0,5.965045094E-2
2.371208437E0,-1.431750357E-1,1.163734436E0,5.537439883E-2
2.373621510E0,-1.468402147E-1,1.155793190E0,4.865489155E-2
2.376033646E0,-1.535597295E-1,1.149073720E0,3.949191794E-2
2.378445104E0,-1.645552963E-1,1.144797683E0,3.032894619E-2
2.380857344E0,-1.731074005E-1,1.142354250E0,2.238770388E-2
2.383270364E0,-1.828812361E-1,1.142354250E0,1.750078611E-2
2.385682552E0,-1.938768029E-1,1.143575907E0,1.750078611E-2
2.388094010E0,-2.005963176E-1,1.148462892E0,2.116597444E-2
2.390506198E0,-2.085375637E-1,1.157014966E0,2.238770388E-2
2.392919271E0,-2.183113992E-1,1.167399645E0,2.299856953E-2
2.395331458E0,-2.256417722E-1,1.177173495E0,2.605289221E-2
2.397742864E0,-2.317504138E-1,1.186947346E0,2.605289221E-2
2.400155104E0,-2.427459806E-1,1.194277644E0,3.155067563E-2
2.402568177E0,-2.537415624E-1,1.197332025E0,3.949191794E-2
2.404980312E0,-2.653479874E-1,1.196721196E0,4.743316025E-2
2.407391771E0,-2.763435543E-1,1.195499420E0,5.842872709E-2
2.409803958E0,-2.861174047E-1,1.193666816E0,7.186774909E-2
2.412217031E0,-2.934477627E-1,1.193666816E0,8.897195756E-2
2.414629219E0,-2.983346879E-1,1.193055987E0,1.103522256E-1
2.417040625E0,-3.093302548E-1,1.188779950E0,1.323433518E-1
2.419452864E0,-3.288779259E-1,1.172286510E0,1.439497769E-1
2.421865937E0,-3.502582014E-1,1.146019340E0,1.421171874E-1
2.424278073E0,-3.728601933E-1,1.119141340E0,1.256238371E-1
2.426689531E0,-3.924078643E-1,1.087987185E0,1.060761735E-1
2.429101771E0,-4.089012146E-1,1.055000544E0,8.713936806E-2
2.431514792E0,-4.223402143E-1,1.026289940E0,6.820256263E-2
2.433926979E0,-4.315032065E-1,1.001855254E0,5.109834671E-2
2.436338437E0,-4.394444525E-1,9.786424637E-1,3.277240694E-2
2.438750625E0,-4.431096315E-1,9.597056508E-1,1.444646157E-2
2.441163698E0,-4.461639524E-1,9.462666512E-1,-2.657748526E-3
2.443575885E0,-4.504399896E-1,9.377145171E-1,-2.159455419E-2
2.445987292E0,-4.522725940E-1,9.297732711E-1,-3.686617315E-2
2.448399531E0,-4.565486610E-1,9.267189503E-1,-4.908347130E-2
2.450812604E0,-4.589920938E-1,9.224429131E-1,-5.519211292E-2
2.453224739E0,-4.614355564E-1,9.175559878E-1,-5.641384423E-2
2.455636198E0,-4.657116234E-1,9.126690626E-1,-5.641384423E-2
2.458048385E0,-4.693768024E-1,9.071713090E-1,-6.068989635E-2
2.460461458E0,-4.705985487E-1,8.961757421E-1,-6.068989635E-2
2.462873646E0,-4.730420113E-1,8.870127201E-1,-6.557681412E-2
2.465285052E0,-4.736528695E-1,8.772389293E-1,-7.535064965E-2
2.467697292E0,-4.767071903E-1,8.717411160E-1,-1.022287011E-1
2.470110364E0,-4.760963321E-1,8.864018917E-1,-1.456000954E-1
2.472522500E0,-4.651007652E-1,9.261080623E-1,-1.901932210E-1
2.474933958E0,-4.431096315E-1,9.847511053E-1,-2.256233692E-1
2.477346198E0,-4.089012146E-1,1.064774394E0,-2.390623987E-1
2.479759219E0,-3.783579767E-1,1.138689041E0,-2.457818985E-1
2.482171406E0,-3.563668430E-1,1.193055987E0,-2.433384359E-1
2.484582864E0,-3.404843509E-1,1.216268778E0,-2.274559736E-1
2.486995052E0,-3.374300301E-1,1.198553801E0,-2.024105191E-1
2.489408125E0,-3.600320220E-1,1.117308736E0,-1.963018626E-1
2.491820312E0,-3.844666183E-1,1.027511597E0,-2.097408921E-1
2.494231719E0,-3.899644017E-1,9.658142924E-1,-2.109626234E-1
2.496643958E0,-3.850774765E-1,9.242755175E-1,-1.938584149E-1
2.499057031E0,-3.844666183E-1,8.827366829E-1,-1.706455499E-1
2.501469167E0,-3.899644017E-1,8.387544155E-1,-1.510978788E-1
2.503880625E0,-3.936295807E-1,7.929396033E-1,-1.193329096E-1
2.506292812E0,-4.009599686E-1,7.385725975E-1,-8.329189569E-2
2.508705885E0,-4.064577520E-1,6.915360093E-1,-5.030519515E-2
2.511118073E0,-3.997382224E-1,6.707666516E-1,-1.365331560E-2
2.513529479E0,-3.514799178E-1,7.410160899E-1,3.032894619E-2
2.515941719E0,-2.574067414E-1,9.169450998E-1,1.127956808E-1
2.518354792E0,-2.109810114E-1,1.052557111E0,2.007602006E-1
2.520766927E0,-2.183113992E-1,1.111810923E0,2.746748328E-1
2.523178385E0,-2.476329058E-1,1.128304362E0,3.174353540E-1
2.525590625E0,-2.879499793E-1,1.121584773E0,2.984985709E-1
2.528003646E0,-3.368191719E-1,1.106924057E0,2.111449093E-1
2.530415833E0,-3.801905513E-1,1.102037072E0,8.286331594E-2
2.532827292E0,-4.131772518E-1,1.105091453E0,-4.847260565E-2
2.535239479E0,-4.418878853E-1,1.101426244E0,-1.584282517E-1
2.537652552E0,-4.583812356E-1,1.086765528E0,-2.311211526E-1
2.540064739E0,-4.663224816E-1,1.075769901E0,-2.732708156E-1
2.542476146E0,-4.608246982E-1,1.069050431E0,-2.946510911E-1
2.544888385E0,-4.473856688E-1,1.064163566E0,-3.068683743E-1
2.547301458E0,-4.363901019E-1,1.056222320E0,-3.178639412E-1
2.549713594E0,-4.284488857E-1,1.050724506E0,-3.343572915E-1
2.552125052E0,-4.253945351E-1,1.044615865E0,-3.526832461E-1
2.554537239E0,-4.235619605E-1,1.030565977E0,-3.679548502E-1
2.556950312E0,-4.211184978E-1,1.007353067E0,-3.795612752E-1
2.559362500E0,-4.162315726E-1,9.694795012E-1,-3.832264841E-1
2.561773906E0,-4.095120728E-1,9.291623831E-1,-3.856699169E-1
2.564186146E0,-3.991273642E-1,8.918996453E-1,-3.826155961E-1
2.566599219E0,-3.801905513E-1,8.570804000E-1,-3.783395588E-1
2.569011354E0,-3.588103056E-1,8.253154159E-1,-3.752852380E-1
2.571422812E0,-3.368191719E-1,7.941613197E-1,-3.734526336E-1
2.573835052E0,-3.093302548E-1,7.660615444E-1,-3.667331338E-1
2.576248073E0,-2.830630839E-1,7.416269183E-1,-3.581810296E-1
2.578660260E0,-2.574067414E-1,7.233009934E-1,-3.526832461E-1
2.581071719E0,-2.286960930E-1,7.037533522E-1,-3.477963209E-1
2.583483906E0,-1.999854594E-1,6.835947633E-1,-3.477963209E-1
2.585896979E0,-1.688313484E-1,6.634362340E-1,-3.545158207E-1
2.588309167E0,-1.376772523E-1,6.438885927E-1,-3.691765964E-1
2.590720573E0,-1.034688279E-1,6.255626678E-1,-3.893351257E-1
2.593132812E0,-6.803867221E-2,6.078475714E-1,-4.162131548E-1
2.595545885E0,-3.077592142E-2,5.840238333E-1,-4.491998553E-1
2.597958021E0,7.708555087E-3,5.565349460E-1,-4.870734811E-1
2.600369479E0,4.619303346E-2,5.272133946E-1,-5.273905396E-1
2.602781667E0,8.467750996E-2,4.948375523E-1,-5.713728070E-1
2.605194739E0,1.207185239E-1,4.581856728E-1,-6.190202832E-1
2.607606927E0,1.537052244E-1,4.160360098E-1,-6.709437370E-1
2.610018333E0,1.836375892E-1,3.696103096E-1,-7.228672504E-1
2.612430573E0,2.147917002E-1,3.189085126E-1,-7.717364430E-1
2.614843646E0,2.416697443E-1,2.718719542E-1,-8.181621432E-1
2.617255781E0,2.679369152E-1,2.297222763E-1,-8.615335226E-1
2.619667239E0,2.978692949E-1,1.924595386E-1,-8.975745440E-1
2.622079479E0,3.265799284E-1,1.619163007E-1,-9.256743193E-1
2.624492500E0,3.565123081E-1,1.435903609E-1,-9.476654530E-1
2.626904687E0,3.864446580E-1,1.338165253E-1,-9.611045122E-1
2.629316146E0,4.151553214E-1,1.307622045E-1,-9.623262286E-1
2.631728333E0,4.426442087E-1,1.362599880E-1,-9.592719078E-1
2.634141406E0,4.695222676E-1,1.490881443E-1,-9.501089454E-1
2.636553594E0,4.915134013E-1,1.698575467E-1,-9.391133785E-1
2.638965000E0,5.177806020E-1,1.918486804E-1,-9.201765656E-1
2.641377239E0,5.458803773E-1,2.223919183E-1,-8.932985067E-1
2.643790312E0,5.739801526E-1,2.608763874E-1,-8.639770150E-1
2.646202448E0,5.996364951E-1,3.121890128E-1,-8.377098441E-1
2.648613906E0,6.289579868E-1,3.830493093E-1,-8.218273520E-1
2.651026146E0,6.619446874E-1,4.795659482E-1,-8.254925013E-1
2.653439167E0,7.004291415E-1,5.815804005E-1,-8.035014272E-1
2.655851354E0,7.554069757E-1,6.499972343E-1,-7.393606305E-1
2.658262812E0,8.103848100E-1,7.159706354E-1,-6.739980578E-1
2.660675000E0,8.494801521E-1,8.088220358E-1,-6.581155658E-1
2.663088073E0,8.629191518E-1,9.016734958E-1,-7.167586088E-1
2.665500260E0,8.555887938E-1,9.535970092E-1,-8.187730312E-1
2.667911667E0,8.348193765E-1,9.517644048E-1,-9.220091701E-1
2.670323906E0,8.085522056E-1,8.925105333E-1,-9.995890260E-1
2.672736927E0,7.767872810E-1,7.935504317E-1,-1.056399465E0
2.675149114E0,7.413570881E-1,6.793187261E-1,-1.108322978E0
2.677560573E0,7.059269547E-1,5.492045283E-1,-1.158413887E0
2.679972760E0,6.704967618E-1,4.050404429E-1,-1.202396154E0
2.682385833E0,6.350666285E-1,2.486590892E-1,-1.236604571E0
2.684798021E0,6.002473235E-1,9.227773547E-2,-1.261039138E0
2.687209427E0,5.672606826E-1,-5.371894315E-2,-1.276921630E0
2.689621667E0,5.348848104E-1,-1.807788014E-1,-1.287306309E0
2.692034739E0,5.080067515E-1,-2.864584029E-1,-1.292193294E0
2.694446875E0,4.878482223E-1,-3.628165126E-1,-1.299523592E0
2.696858333E0,4.670788050E-1,-4.110748172E-1,-1.316016912E0
2.699270573E0,4.481419921E-1,-4.391745925E-1,-1.340451598E0
2.701683594E0,4.279834628E-1,-4.562788010E-1,-1.374660015E0
2.704095781E0,4.102683961E-1,-4.611657262E-1,-1.415587902E0
2.706507239E0,3.907207251E-1,-4.495593011E-1,-1.458959341E0
2.708919427E0,3.742273748E-1,-4.300116301E-1,-1.491945982E0
2.711332500E0,3.577340245E-1,-4.129074216E-1,-1.520045757E0
2.713744687E0,3.455167413E-1,-3.994683921E-1,-1.554254174E0
2.716156094E0,3.345211744E-1,-3.976357877E-1,-1.592738628E0
2.718568333E0,3.198603988E-1,-4.031335711E-1,-1.632444859E0
2.720981406E0,3.094757199E-1,-4.159617424E-1,-1.673983693E0
2.723393542E0,3.015344739E-1,-4.208486676E-1,-1.720409393E0
2.725805000E0,2.966475487E-1,-4.135182798E-1,-1.765613437E0
2.728217187E0,2.923715115E-1,-3.951923251E-1,-1.804097891E0
2.730630260E0,2.917606235E-1,-3.762555420E-1,-1.830975890E0
2.733042448E0,2.935932279E-1,-3.554861248E-1,-1.845636725E0
2.735453854E0,2.972584069E-1,-3.298298120E-1,-1.848080158E0
2.737866094E0,3.058105111E-1,-2.956213951E-1,-1.840138912E0
2.740279167E0,3.216930032E-1,-2.455304712E-1,-1.821812987E0
2.742691302E0,3.473493159E-1,-1.801679432E-1,-1.794934869E0
2.745102760E0,3.785034120E-1,-1.013663858E-1,-1.760115623E0
2.747515000E0,4.151553214E-1,-1.218013838E-2,-1.714300752E0
2.749928021E0,4.505854547E-1,8.006043732E-2,-1.657490373E0
2.752340208E0,4.823504388E-1,1.723010093E-1,-1.589073539E0
2.754751667E0,5.061742067E-1,2.590437829E-1,-1.510882854E0
2.757163854E0,5.232784152E-1,3.347910047E-1,-1.418031335E0
2.759576927E0,5.238892436E-1,3.958774805E-1,-1.319682121E0
2.761989114E0,5.104502439E-1,4.441357851E-1,-1.228052497E0
2.764400521E0,4.866264760E-1,4.734573066E-1,-1.148640037E0
2.766812760E0,4.548615217E-1,4.783442318E-1,-1.086331844E0
2.769225833E0,4.194313586E-1,4.551313519E-1,-1.033797503E0
2.771637969E0,3.827794790E-1,4.050404429E-1,-9.855391383E-1
2.774049427E0,3.485710621E-1,3.329584002E-1,-9.385024905E-1
2.776461667E0,3.168060780E-1,2.474373728E-1,-8.884115815E-1
2.778874687E0,2.874845862E-1,1.588619798E-1,-8.383206725E-1
2.781286875E0,2.612173855E-1,7.150833309E-2,-7.900623679E-1
2.783698333E0,2.337284982E-1,-2.073224448E-2,-7.491344213E-1
2.786110521E0,2.037961334E-1,-1.086967587E-1,-7.137042880E-1
2.788523594E0,1.756963581E-1,-1.923852265E-1,-6.782741547E-1
2.790935781E0,1.439313889E-1,-2.791280448E-1,-6.416222453E-1
2.793347187E0,1.146098822E-1,-3.622056544E-1,-6.006942987E-1
2.795759427E0,8.956442773E-2,-4.379528761E-1,-5.548794866E-1
2.798172500E0,7.184934616E-2,-4.972067475E-1,-5.005124807E-1
2.800584635E0,6.268637627E-2,-5.381346345E-1,-4.406477511E-1
2.802995654E0,5.841032788E-2,-5.717322230E-1,-3.685657084E-1
2.805407893E0,5.413427576E-2,-6.010537148E-1,-2.934293449E-1
2.807820914E0,5.046908930E-2,-6.407599449E-1,-2.164604068E-1
2.810233102E0,3.764092922E-2,-6.902399659E-1,-1.462109536E-1
2.812644508E0,1.015201397E-2,-7.574350834E-1,-8.756794780E-2
2.815056747E0,-2.894332819E-2,-8.539516926E-1,-4.908347130E-2
2.817469820E0,-6.803867221E-2,-9.504683614E-1,-2.953579649E-2
2.819882008E0,-1.053014174E-1,-1.009111285E0,-2.037282661E-2
2.822293414E0,-1.395098418E-1,-1.043930650E0,-1.792936772E-2
2.824705654E0,-1.779943258E-1,-1.073863029E0,-2.709233761E-2
2.827118727E0,-2.183113992E-1,-1.094632387E0,-4.419655353E-2
2.829530862E0,-2.561850250E-1,-1.099519372E0,-6.985286623E-2
2.831942320E0,-2.958912253E-1,-1.094021559E0,-9.978523850E-2
2.834354508E0,-3.319322467E-1,-1.079971671E0,-1.236089617E-1
2.836767581E0,-3.655298054E-1,-1.054315329E0,-1.407131702E-1
2.839179768E0,-3.960730433E-1,-1.029269934E0,-1.535413414E-1
2.841591174E0,-4.192858934E-1,-1.013998270E0,-1.602608413E-1
2.844003414E0,-4.394444525E-1,-9.962831736E-1,-1.651477665E-1
2.846416487E0,-4.571595192E-1,-9.712377191E-1,-1.700346768E-1
2.848828674E0,-4.724311233E-1,-9.351966977E-1,-1.767541915E-1
2.851240081E0,-4.852592945E-1,-8.887709975E-1,-1.810302436E-1
2.853652320E0,-4.962548614E-1,-8.380692005E-1,-1.810302436E-1
2.856065341E0,-5.072503686E-1,-7.873674631E-1,-1.779759228E-1
2.858477529E0,-5.176351070E-1,-7.348330617E-1,-1.724781394E-1
2.860888987E0,-5.292415023E-1,-6.835204363E-1,-1.669803560E-1
2.863301174E0,-5.426805615E-1,-6.364838481E-1,-1.663694978E-1
2.865714247E0,-5.567304492E-1,-5.986102819E-1,-1.718672812E-1
2.868126435E0,-5.713911653E-1,-5.582931638E-1,-1.828628480E-1
2.870537841E0,-5.848302245E-1,-5.234738588E-1,-1.956910044E-1
2.872950081E0,-5.958257914E-1,-4.972067475E-1,-2.066865712E-1
2.875363154E0,-6.037670374E-1,-4.703286886E-1,-2.237907797E-1
2.877775289E0,-6.055995822E-1,-4.428397715E-1,-2.494471073E-1
2.880186747E0,-6.068213582E-1,-4.110748172E-1,-2.806012034E-1
2.882598987E0,-6.086539626E-1,-3.768664002E-1,-3.111444414E-1
2.885012008E0,-6.055995822E-1,-3.347167373E-1,-3.374116123E-1
2.887424195E0,-6.013235450E-1,-2.846258283E-1,-3.612353504E-1
2.889835654E0,-5.933822989E-1,-2.333131731E-1,-3.740634918E-1
2.892247841E0,-5.842193365E-1,-1.826113909E-1,-3.771178126E-1
2.894660914E0,-5.744454861E-1,-1.343530864E-1,-3.752852380E-1
2.897073102E0,-5.646716952E-1,-8.120784909E-2,-3.667331338E-1
2.899484508E0,-5.542869568E-1,-2.500829659E-2,-3.508506417E-1
2.901896747E0,-5.457348824E-1,3.058039211E-2,-3.313029706E-1
2.904309820E0,-5.359610319E-1,8.067129552E-2,-3.080901206E-1
2.906721956E0,-5.280197859E-1,1.356491297E-1,-2.781577408E-1
2.909133414E0,-5.206894279E-1,1.961247325E-1,-2.445601821E-1
2.911545654E0,-5.121372938E-1,2.590437829E-1,-2.036322355E-1
2.913958674E0,-4.986983240E-1,3.219628334E-1,-1.596499830E-1
2.916370862E0,-4.889244735E-1,3.916014135E-1,-1.126133949E-1
2.918782320E0,-4.773180485E-1,4.606291354E-1,-5.641384423E-2
2.921194508E0,-4.681550860E-1,5.314894915E-1,5.283491686E-3
2.923607581E0,-4.589920938E-1,5.944085717E-1,7.003515214E-2
2.926019768E0,-4.528834522E-1,6.463320255E-1,1.360085458E-1
2.928431174E0,-4.492182732E-1,6.897034645E-1,2.032036632E-1
2.930843414E0,-4.467748106E-1,7.208575606E-1,2.685661912E-1
2.933256487E0,-4.467748106E-1,7.422378063E-1,3.259874582E-1
2.935668622E0,-4.467748106E-1,7.562876940E-1,3.803544343E-1
2.938080081E0,-4.461639524E-1,7.685049772E-1,4.304453433E-1
2.940492320E0,-4.412770271E-1,7.740027905E-1,4.768710434E-1
2.942905341E0,-4.260054231E-1,7.776679397E-1,5.208532810E-1
2.945317529E0,-3.911861181E-1,7.721701860E-1,5.513965487E-1
2.947728935E0,-3.300996423E-1,7.550659776E-1,5.630030036E-1
2.950141174E0,-2.445785701E-1,7.379617691E-1,5.617812276E-1
2.952554247E0,-1.450076252E-1,7.190249562E-1,5.550617576E-1
2.954966383E0,-4.604753852E-2,6.842056513E-1,5.434553027E-1
2.957377841E0,4.741476476E-2,6.438885927E-1,5.263510942E-1
2.959790081E0,1.396553367E-1,6.072366834E-1,5.049708486E-1
2.962203154E0,2.306741774E-1,5.785260797E-1,4.884774983E-1
2.964615289E0,3.119191825E-1,5.394307375E-1,5.025273561E-1
2.967026747E0,3.876664042E-1,4.783442318E-1,5.544508696E-1
2.969438935E0,4.548615217E-1,4.190903306E-1,6.118721366E-1
2.971852008E0,5.122828484E-1,3.842710555E-1,6.460806131E-1
2.974264195E0,5.660389066E-1,3.696103096E-1,6.521892548E-1
2.976675602E0,6.142972112E-1,3.677777052E-1,6.411936879E-1
2.979087841E0,6.613337994E-1,3.769406676E-1,6.192025542E-1
2.981500914E0,7.034834623E-1,3.964883387E-1,5.904918909E-1
2.983913049E0,7.407462597E-1,4.245881140E-1,5.642247200E-1
2.986324508E0,7.725111842E-1,4.563530982E-1,5.446770191E-1
2.988736747E0,7.993892431E-1,4.905615151E-1,5.269619823E-1
2.991149768E0,8.207694888E-1,5.333220959E-1,5.098577142E-1
2.993561956E0,8.348193765E-1,5.809695125E-1,4.927535355E-1
2.995973414E0,8.464258313E-1,6.243408918E-1,4.799253941E-1
2.998385602E0,8.464258313E-1,6.664905548E-1,4.670972228E-1
3.000798674E0,8.421497941E-1,7.037533522E-1,4.536581933E-1
3.003210862E0,8.329868317E-1,7.373508811E-1,4.402191639E-1
3.005622268E0,8.171043396E-1,7.630072236E-1,4.249475598E-1
3.008034508E0,7.963349223E-1,7.837765813E-1,4.133411348E-1
3.010447581E0,7.719003558E-1,7.990482450E-1,4.060107470E-1
3.012859716E0,7.419679761E-1,8.112655282E-1,4.005129635E-1
3.015271174E0,7.114247084E-1,8.149306774E-1,3.974586427E-1
3.017683414E0,6.753836870E-1,8.100438118E-1,3.913500011E-1
3.020096435E0,6.381209493E-1,7.990482450E-1,3.852413595E-1
3.022508622E0,6.039125323E-1,7.856091857E-1,3.797435760E-1
3.024920081E0,5.648171902E-1,7.697266936E-1,3.718023300E-1
3.027332268E0,5.293870568E-1,7.526224852E-1,3.638610840E-1
3.029745341E0,4.951785803E-1,7.379617691E-1,3.583633006E-1
3.032157529E0,4.615810215E-1,7.233009934E-1,3.498111963E-1
3.034568935E0,4.292052090E-1,7.092511058E-1,3.333178461E-1
3.036981174E0,4.059923291E-1,7.061967850E-1,3.143810332E-1
3.039394247E0,3.937750459E-1,7.098619938E-1,2.997202873E-1
3.041806383E0,3.937750459E-1,7.129163146E-1,2.948333621E-1
3.044217841E0,3.986619711E-1,7.110837102E-1,2.972768247E-1
3.046630081E0,4.035488665E-1,7.110837102E-1,3.113267124E-1
3.049043102E0,4.121009707E-1,7.104728222E-1,3.375939131E-1
3.051455289E0,4.194313586E-1,7.037533522E-1,3.687480092E-1
3.053866747E0,4.230965376E-1,6.872599721E-1,3.944043219E-1
3.056278935E0,4.243182838E-1,6.591601968E-1,4.151737094E-1
3.058692008E0,4.224856794E-1,6.243408918E-1,4.316670597E-1
3.061104195E0,4.145444334E-1,5.889107585E-1,4.408300519E-1
3.063515602E0,4.072140753E-1,5.485936999E-1,4.487712681E-1
3.065927841E0,4.004945457E-1,5.040005445E-1,4.567125142E-1
3.068340914E0,3.919424415E-1,4.600182772E-1,4.634320438E-1
3.070753049E0,3.840011954E-1,4.221446514E-1,4.677080810E-1
3.073164508E0,3.760599792E-1,3.861036301E-1,4.713732600E-1
3.075576747E0,3.656752706E-1,3.555603921E-1,4.707624018E-1
3.077989768E0,3.583448827E-1,3.311258256E-1,4.670972228E-1
3.080401956E0,3.534579575E-1,3.152433336E-1,4.640429020E-1
3.082813414E0,3.479601741E-1,3.042477667E-1,4.609885812E-1
3.085225602E0,3.418515325E-1,2.853109539E-1,4.634320438E-1
3.087638674E0,3.314668536E-1,2.627089620E-1,4.640429020E-1
3.090050862E0,3.223038614E-1,2.401069850E-1,4.603777230E-1
3.092462268E0,3.186386824E-1,2.339983433E-1,4.493821561E-1
3.094874508E0,3.210821450E-1,2.468265146E-1,4.341105223E-1
3.097287581E0,3.278016448E-1,2.627089620E-1,4.194497764E-1
3.099699716E0,3.406298161E-1,2.700393498E-1,4.035672843E-1
3.102111174E0,3.497927785E-1,2.834783792E-1,3.803544343E-1
3.104523414E0,3.589557409E-1,3.005825877E-1,3.595850170E-1
3.106936435E0,3.693404496E-1,3.066912293E-1,3.382047713E-1
3.109348622E0,3.785034120E-1,3.079129457E-1,3.162136376E-1
3.111760081E0,3.888881207E-1,3.030260503E-1,3.009420037E-1
3.114172268E0,3.956076503E-1,2.944739461E-1,2.862812579E-1
3.116585341E0,4.017162919E-1,2.822566330E-1,2.746748328E-1
3.118997529E0,4.047706127E-1,2.663741708E-1,2.642901540E-1
3.121408935E0,4.053814709E-1,2.468265146E-1,2.539054453E-1
3.123821174E0,4.059923291E-1,2.242245078E-1,2.422990054E-1
3.126234247E0,4.066031873E-1,2.016225159E-1,2.300817072E-1
3.128646383E0,4.072140753E-1,1.698575467E-1,2.166426778E-1
3.131057841E0,4.047706127E-1,1.356491297E-1,2.019819319E-1
3.133470029E0,4.066031873E-1,9.716464579E-2,1.891537756E-1
3.135883102E0,4.090466499E-1,5.929103494E-2,1.787690669E-1
3.138295289E0,4.114901125E-1,2.263914980E-2,1.659409106E-1
3.140706747E0,4.188205004E-1,-1.156927366E-2,1.518910229E-1
3.143118935E0,4.285943210E-1,-4.027991742E-2,1.396737248E-1
3.145532008E0,4.414224923E-1,-6.776882708E-2,1.274564266E-1
3.147944195E0,4.542506635E-1,-8.731649816E-2,1.164608747E-1
3.150355602E0,4.689114094E-1,-9.586860240E-2,1.054653078E-1
3.152767841E0,4.823504388E-1,-1.019772440E-1,9.508060664E-2
3.155180914E0,4.964003265E-1,-1.086967587E-1,8.530677110E-2
3.157593049E0,5.049524307E-1,-1.123619527E-1,7.186774909E-2
3.160004508E0,5.135045648E-1,-1.141945422E-1,5.903958529E-2
3.162416747E0,5.214458108E-1,-1.154162735E-1,4.743316025E-2
3.164829768E0,5.275544524E-1,-1.184705943E-1,3.704845905E-2
3.167241956E0,5.293870568E-1,-1.215249151E-1,2.483116277E-2
3.169653414E0,5.293870568E-1,-1.276335716E-1,1.505732723E-2
3.172065602E0,5.257218480E-1,-1.325204819E-1,5.894355476E-3
3.174478674E0,5.226675272E-1,-1.404617280E-1,-5.101207644E-3
3.176890862E0,5.190023184E-1,-1.532898843E-1,-1.487504318E-2
3.179302268E0,5.128936768E-1,-1.630637199E-1,-2.648147196E-2
3.181714508E0,5.080067515E-1,-1.752810180E-1,-3.747703880E-2
3.184127581E0,5.018981099E-1,-1.868874580E-1,-4.725087434E-2
3.186539716E0,4.951785803E-1,-1.911635101E-1,-5.580297858E-2
3.188951174E0,4.866264760E-1,-1.911635101E-1,-6.374422461E-2
3.191363414E0,4.805178344E-1,-1.899417788E-1,-6.985286623E-2
3.193776435E0,4.737983346E-1,-1.905526370E-1,-7.535064965E-2
3.196188622E0,4.658570886E-1,-1.923852265E-1,-7.840497792E-2
3.198600081E0,4.566940963E-1,-1.966612786E-1,-7.718324661E-2
3.201012268E0,4.463094175E-1,-2.052133977E-1,-7.718324661E-2
3.203425341E0,4.371464252E-1,-2.186524123E-1,-7.718324661E-2
3.205837529E0,4.273726046E-1,-2.327023000E-1,-7.657238096E-2
3.208248935E0,4.182096422E-1,-2.443087399E-1,-7.535064965E-2
3.210661174E0,4.084357917E-1,-2.540825903E-1,-7.473978400E-2
3.213074247E0,3.986619711E-1,-2.614129484E-1,-7.168546319E-2
3.215486383E0,3.870555162E-1,-2.675215900E-1,-6.374422461E-2
3.217897841E0,3.723947704E-1,-2.717976570E-1,-5.458125472E-2
3.220310081E0,3.552905619E-1,-2.748519778E-1,-4.358568788E-2
3.222723102E0,3.332994282E-1,-2.754628360E-1,-2.892493457E-2
3.225135289E0,3.100865781E-1,-2.785171866E-1,-1.426418126E-2
3.227546747E0,2.862628400E-1,-2.815715075E-1,1.007437939E-3
3.229958935E0,2.593848109E-1,-2.858475447E-1,1.688992046E-2
3.232372008E0,2.331176400E-1,-2.956213951E-1,3.399413452E-2
3.234784195E0,2.068504542E-1,-3.072278202E-1,4.987661541E-2
3.237195602E0,1.811941415E-1,-3.212777078E-1,7.186774909E-2
3.239607841E0,1.518726200E-1,-3.365493119E-1,9.263714403E-2
3.242020914E0,1.201076657E-1,-3.481557667E-1,1.121848151E-1
3.244433049E0,8.712096512E-2,-3.585404456E-1,1.311216205E-1
3.246844508E0,5.535600707E-2,-3.738120794E-1,1.494475603E-1
3.249256747E0,2.298017405E-2,-3.909162879E-1,1.659409106E-1
3.251669768E0,-8.784792386E-3,-4.098531008E-1,1.867103130E-1
3.254081956E0,-4.360407963E-2,-4.287898839E-1,2.044253945E-1
3.256493414E0,-7.475818694E-2,-4.495593011E-1,2.221404612E-1
3.258905602E0,-1.034688279E-1,-4.739938974E-1,2.441315949E-1
3.261318674E0,-1.327903271E-1,-4.972067475E-1,2.667335868E-1
3.263730862E0,-1.615009755E-1,-5.216413140E-1,2.844486833E-1
3.266142268E0,-1.896007508E-1,-5.442432761E-1,3.033854663E-1
3.268554508E0,-2.170896679E-1,-5.674561858E-1,3.241548836E-1
3.270967581E0,-2.409133911E-1,-5.973885059E-1,3.461460173E-1
3.273379716E0,-2.641262710E-1,-6.285426021E-1,3.663045466E-1
3.275791174E0,-2.842848003E-1,-6.578641534E-1,3.840196133E-1
3.278203414E0,-3.013890088E-1,-6.896290779E-1,4.047890306E-1
3.280616435E0,-3.142171800E-1,-7.213940620E-1,4.267801642E-1
3.283028622E0,-3.239910007E-1,-7.562133670E-1,4.463278055E-1
3.285440081E0,-3.294887841E-1,-7.892000675E-1,4.689298272E-1
3.287852268E0,-3.319322467E-1,-8.136346340E-1,4.866448939E-1
3.290265341E0,-3.282670677E-1,-8.289062381E-1,5.031382442E-1
3.292677529E0,-3.184932172E-1,-8.307388425E-1,5.147446394E-1
3.295088935E0,-3.056650758E-1,-8.154672384E-1,5.239076018E-1
3.297501174E0,-2.861174047E-1,-7.818696499E-1,5.275728106E-1
3.299914247E0,-2.641262710E-1,-7.311679125E-1,5.263510942E-1
3.302326383E0,-2.451894432E-1,-6.651945114E-1,5.190207362E-1
3.304737841E0,-2.280852348E-1,-5.845603943E-1,5.031382442E-1
3.307150081E0,-2.122027427E-1,-5.008718967E-1,4.848122895E-1
3.309563102E0,-1.999854594E-1,-4.202377796E-1,4.615994394E-1
3.311975289E0,-1.908224821E-1,-3.518209457E-1,4.334996641E-1
3.314386747E0,-1.834921092E-1,-3.005082905E-1,4.066216052E-1
3.316798935E0,-1.810486466E-1,-2.662998736E-1,3.785218298E-1
3.319212008E0,-1.798269153E-1,-2.498065233E-1,3.510329127E-1
3.321624195E0,-1.816595048E-1,-2.473630607E-1,3.229331374E-1
3.324035602E0,-1.871572882E-1,-2.614129484E-1,3.015528917E-1
3.326447841E0,-1.993745863E-1,-2.834040821E-1,2.838377953E-1
3.328860914E0,-2.158679366E-1,-3.096712828E-1,2.710096538E-1
3.331273049E0,-2.354156077E-1,-3.426579833E-1,2.630684078E-1
3.333684508E0,-2.586284876E-1,-3.780881166E-1,2.630684078E-1
3.336096747E0,-2.848956585E-1,-4.086313546E-1,2.649010122E-1
3.338509768E0,-3.129954338E-1,-4.355094135E-1,2.697879374E-1
3.340921956E0,-3.410952091E-1,-4.587222636E-1,2.801726162E-1
3.343333414E0,-3.698058724E-1,-4.807133973E-1,2.942225039E-1
3.345745602E0,-3.972947598E-1,-4.990393519E-1,3.101049960E-1
3.348158674E0,-4.253945351E-1,-5.143108964E-1,3.259874582E-1
3.350570862E0,-4.528834522E-1,-5.295825601E-1,3.412590921E-1
3.352982268E0,-4.773180485E-1,-5.417998433E-1,3.559198380E-1
3.355394508E0,-4.986983240E-1,-5.527954102E-1,3.687480092E-1
3.357807581E0,-5.182459354E-1,-5.601257682E-1,3.785218298E-1
3.360219716E0,-5.371827483E-1,-5.674561858E-1,3.852413595E-1
3.362631174E0,-5.524543524E-1,-5.717322230E-1,3.919608593E-1
3.365043414E0,-5.658934116E-1,-5.741756558E-1,3.931825757E-1
3.367456435E0,-5.750563741E-1,-5.662344098E-1,3.919608593E-1
3.369868622E0,-5.793324113E-1,-5.472975969E-1,3.895173967E-1
3.372280081E0,-5.829976201E-1,-5.185869932E-1,3.864630759E-1
3.374692268E0,-5.836085081E-1,-4.801025391E-1,3.846304715E-1
3.377105341E0,-5.811650157E-1,-4.361202717E-1,3.846304715E-1
3.379517529E0,-5.750563741E-1,-3.890836835E-1,3.889065385E-1
3.381928935E0,-5.701694489E-1,-3.426579833E-1,3.956260383E-1
3.384341174E0,-5.652825236E-1,-3.023408949E-1,4.035672843E-1
3.386754247E0,-5.628390908E-1,-2.644672692E-1,4.139519930E-1
3.389166435E0,-5.585630536E-1,-2.327023000E-1,4.206714928E-1
3.391577841E0,-5.536761284E-1,-2.064351290E-1,4.298344851E-1
3.393990081E0,-5.494000316E-1,-1.844439954E-1,4.377757013E-1
3.396403154E0,-5.469565988E-1,-1.679506451E-1,4.475495517E-1
3.398815289E0,-5.475674868E-1,-1.593985409E-1,4.597668350E-1
3.401226747E0,-5.494000316E-1,-1.593985409E-1,4.744276106E-1
3.403638935E0,-5.506218076E-1,-1.648963243E-1,4.890883565E-1
3.406052008E0,-5.506218076E-1,-1.703941077E-1,5.031382442E-1
3.408464195E0,-5.518435240E-1,-1.740592867E-1,5.153555274E-1
3.410875654E0,-5.518435240E-1,-1.801679432E-1,5.269619823E-1
3.413287841E0,-5.494000316E-1,-1.832222641E-1,5.379575491E-1
3.415700914E0,-5.451239944E-1,-1.826113909E-1,5.440661907E-1
3.418113102E0,-5.402370691E-1,-1.789462119E-1,5.446770191E-1
3.420524508E0,-5.335175991E-1,-1.710049659E-1,5.428444743E-1
3.422936747E0,-5.243545771E-1,-1.575659364E-1,5.373466611E-1
3.425349820E0,-5.121372938E-1,-1.447377801E-1,5.281836987E-1
3.427761956E0,-5.011417270E-1,-1.300770342E-1,5.196315646E-1
3.430173414E0,-4.907570779E-1,-1.166380048E-1,5.098577142E-1
3.432585654E0,-4.785397947E-1,-1.062533110E-1,5.000839233E-1
3.434998674E0,-4.712094069E-1,-9.525774419E-2,4.872557521E-1
3.437410862E0,-4.620464444E-1,-8.426217735E-2,4.762601852E-1
3.439822320E0,-4.516617358E-1,-7.571007311E-2,4.634320438E-1
3.442234508E0,-4.424987733E-1,-6.776882708E-2,4.499930143E-1
3.444647581E0,-4.302814603E-1,-6.349277496E-2,4.359431267E-1
3.447059768E0,-4.192858934E-1,-6.288190931E-2,4.200606346E-1
3.449471174E0,-4.082903266E-1,-6.715796143E-2,4.041781425E-1
3.451883414E0,-3.985165060E-1,-7.387746871E-2,3.864630759E-1
3.454296487E0,-3.875209391E-1,-7.815352082E-2,3.681371212E-1
3.456708622E0,-3.783579767E-1,-7.998612523E-2,3.492003381E-1
3.459120081E0,-3.691949844E-1,-8.731649816E-2,3.314852417E-1
3.461532320E0,-3.643080890E-1,-9.709033370E-2,3.113267124E-1
3.463945341E0,-3.624754846E-1,-1.099184901E-1,2.899464369E-1
3.466357529E0,-3.649189472E-1,-1.239683777E-1,2.697879374E-1
3.468768987E0,-3.667515218E-1,-1.477921009E-1,2.545163035E-1
3.471181174E0,-3.698058724E-1,-1.728375554E-1,2.410772741E-1
3.473594247E0,-3.734710515E-1,-1.954395622E-1,2.294708490E-1
3.476006435E0,-3.753036559E-1,-2.143763602E-1,2.190861404E-1
3.478417841E0,-3.759145141E-1,-2.284262478E-1,2.087014467E-1
3.480830081E0,-3.722493052E-1,-2.394218147E-1,2.013710737E-1
3.483243154E0,-3.685841262E-1,-2.406435460E-1,1.909863651E-1
3.485655289E0,-3.636972010E-1,-2.333131731E-1,1.769364774E-1
3.488066747E0,-3.600320220E-1,-2.265936583E-1,1.555562168E-1
3.490478987E0,-3.588103056E-1,-2.217067331E-1,1.292890310E-1
3.492892008E0,-3.520907760E-1,-2.082677186E-1,1.005783901E-1
3.495304195E0,-3.380408883E-1,-1.765027493E-1,6.942428648E-2
3.497715654E0,-3.172715008E-1,-1.294661611E-1,3.643759340E-2
3.500127841E0,-2.910043001E-1,-6.899055839E-2,5.283491686E-3
3.502540914E0,-2.561850250E-1,1.258885371E-3,-1.976196095E-2
3.504953102E0,-2.219765782E-1,7.517351210E-2,-3.930963576E-2
3.507364508E0,-1.853246987E-1,1.454229504E-1,-4.725087434E-2
3.509776747E0,-1.462293565E-1,2.126180828E-1,-4.358568788E-2
3.512189820E0,-1.016362309E-1,2.834783792E-1,-3.625530750E-2
3.514601956E0,-5.215618387E-2,3.573929965E-1,-2.953579649E-2
3.517013414E0,-8.435507771E-4,4.282533228E-1,-2.342715114E-2
3.519425654E0,5.169081688E-2,4.887289107E-1,-1.915109903E-2
3.521838674E0,1.030034497E-1,5.406524539E-1,-1.670763642E-2
3.524250862E0,1.530943513E-1,5.876890421E-1,-1.304244995E-2
3.526662320E0,2.013526708E-1,6.255626678E-1,-8.766397834E-3
3.529074508E0,2.459457964E-1,6.512189507E-1,-3.268614179E-3
3.531487581E0,2.825976610E-1,6.567167640E-1,2.229169244E-3
3.533899768E0,3.161952198E-1,6.475538015E-1,8.948680013E-3
3.536311174E0,3.449058533E-1,6.316713095E-1,1.627905667E-2
3.538723414E0,3.687295914E-1,6.139562130E-1,1.994424500E-2
3.541136487E0,3.919424415E-1,5.882998705E-1,2.849635296E-2
3.543548674E0,4.133227170E-1,5.608109832E-1,4.010278359E-2
3.545960081E0,4.340921044E-1,5.327112079E-1,5.293094367E-2
3.548372320E0,4.481419921E-1,5.076657534E-1,6.514823437E-2
3.550785393E0,4.573049843E-1,4.813985527E-1,8.225245029E-2
3.553197529E0,4.621918797E-1,4.551313519E-1,1.018001139E-1
3.555608987E0,4.646353424E-1,4.288641810E-1,1.201260611E-1
3.558021227E0,4.603593051E-1,4.074839056E-1,1.329542100E-1
3.560434247E0,4.554723799E-1,3.867145181E-1,1.439497769E-1
3.562846435E0,4.444768131E-1,3.738863468E-1,1.494475603E-1
3.565257893E0,4.359247088E-1,3.683885634E-1,1.555562168E-1
3.567670081E0,4.261508584E-1,3.641125262E-1,1.579996645E-1
3.570083154E0,4.127118587E-1,3.616690636E-1,1.573888063E-1
3.572495341E0,3.998836875E-1,3.647233844E-1,1.573888063E-1
3.574906747E0,3.888881207E-1,3.708320260E-1,1.610540003E-1
3.577318987E0,3.778925538E-1,3.824384511E-1,1.647191793E-1
3.579732060E0,3.662861288E-1,3.952666223E-1,1.714386940E-1
3.582144195E0,3.522362411E-1,4.093165100E-1,1.799907982E-1
3.584555654E0,3.406298161E-1,4.233663976E-1,1.909863651E-1
3.586967893E0,3.271907866E-1,4.416923225E-1,2.001493424E-1
3.589380914E0,3.137517571E-1,4.606291354E-1,2.111449093E-1
3.591793102E0,2.997018695E-1,4.783442318E-1,2.233621925E-1
3.594204560E0,2.832085192E-1,4.948375523E-1,2.343577594E-1
3.596616747E0,2.673260570E-1,5.064440370E-1,2.429098636E-1
3.599029820E0,2.483892590E-1,5.131635070E-1,2.496293634E-1
3.601442008E0,2.270089835E-1,5.186613202E-1,2.514619827E-1
3.603853414E0,2.056287229E-1,5.235482454E-1,2.508511245E-1
3.606265654E0,1.860810518E-1,5.278242826E-1,2.496293634E-1
3.608678727E0,1.665333807E-1,5.302677751E-1,2.453533262E-1
3.611090862E0,1.451531202E-1,5.314894915E-1,2.422990054E-1
3.613502320E0,1.280488968E-1,5.327112079E-1,2.416881323E-1
3.615914560E0,1.127772853E-1,5.339329243E-1,2.416881323E-1
3.618327581E0,9.506221116E-2,5.388198495E-1,2.429098636E-1
3.620739768E0,7.856886089E-2,5.504263043E-1,2.410772741E-1
3.623151227E0,6.390810758E-2,5.650870204E-1,2.368012220E-1
3.625563466E0,5.107995123E-2,5.803586245E-1,2.337469012E-1
3.627976487E0,3.825179115E-2,5.968520045E-1,2.288599759E-1
3.630388674E0,2.786709182E-2,6.109018922E-1,2.276382446E-1
3.632800133E0,1.687152497E-2,6.225083470E-1,2.251947969E-1
3.635212320E0,4.043367226E-3,6.335039139E-1,2.203078717E-1
3.637625393E0,-8.784792386E-3,6.414451003E-1,2.172535509E-1
3.640037581E0,-2.161295153E-2,6.463320255E-1,2.135883570E-1
3.642448987E0,-3.444110975E-2,6.506081223E-1,2.135883570E-1
3.644861227E0,-4.971272871E-2,6.493863463E-1,2.184752822E-1
3.647274299E0,-6.315175444E-2,6.463320255E-1,2.209187448E-1
3.649686435E0,-7.842337340E-2,6.390016675E-1,2.233621925E-1
3.652097893E0,-9.308412671E-2,6.316713095E-1,2.239730656E-1
3.654510133E0,-1.059122831E-1,6.243408918E-1,2.258056551E-1
3.656923154E0,-1.199621707E-1,6.170105338E-1,2.294708490E-1
3.659335341E0,-1.297360063E-1,6.084584594E-1,2.331360281E-1
3.661746799E0,-1.395098418E-1,5.986846089E-1,2.368012220E-1
3.664158987E0,-1.505054086E-1,5.876890421E-1,2.386338115E-1
3.666572060E0,-1.621118337E-1,5.760825872E-1,2.410772741E-1
3.668984247E0,-1.731074005E-1,5.656979084E-1,2.447424680E-1
3.671395654E0,-1.834921092E-1,5.528697371E-1,2.477967888E-1
3.673807893E0,-1.938768029E-1,5.357655287E-1,2.508511245E-1
3.676220966E0,-2.060941011E-1,5.211047530E-1,2.557380199E-1
3.678633154E0,-2.177005261E-1,5.088874698E-1,2.612358034E-1
3.681044560E0,-2.286960930E-1,4.972810447E-1,2.649010122E-1
3.683456799E0,-2.366373390E-1,4.899506271E-1,2.685661912E-1
3.685869872E0,-2.427459806E-1,4.905615151E-1,2.710096538E-1
3.688282008E0,-2.500763834E-1,4.985027611E-1,2.734531164E-1
3.690693466E0,-2.531307042E-1,5.040005445E-1,2.728422582E-1
3.693105654E0,-2.531307042E-1,5.076657534E-1,2.722313702E-1
3.695518727E0,-2.549632788E-1,5.131635070E-1,2.703987956E-1
3.697930914E0,-2.561850250E-1,5.168287158E-1,2.710096538E-1
3.700342372E0,-2.555741668E-1,5.180504322E-1,2.697879374E-1
3.702754560E0,-2.555741668E-1,5.192722082E-1,2.691770494E-1
3.705167633E0,-2.525198460E-1,5.204939246E-1,2.691770494E-1
3.707579820E0,-2.506872416E-1,5.211047530E-1,2.703987956E-1
3.709991227E0,-2.500763834E-1,5.192722082E-1,2.728422582E-1
3.712403466E0,-2.500763834E-1,5.156069994E-1,2.734531164E-1
3.714816539E0,-2.494654953E-1,5.101091862E-1,2.722313702E-1
3.717228674E0,-2.488546222E-1,5.107200742E-1,2.691770494E-1
3.719640133E0,-2.458003014E-1,5.156069994E-1,2.655118704E-1
3.722052372E0,-2.421351224E-1,5.235482454E-1,2.630684078E-1
3.724465393E0,-2.372481972E-1,5.290459991E-1,2.606249452E-1
3.726877581E0,-2.329721451E-1,5.333220959E-1,2.557380199E-1
3.729289039E0,-2.250308990E-1,5.394307375E-1,2.520728409E-1
3.731701227E0,-2.146462053E-1,5.437067747E-1,2.477967888E-1
3.734114299E0,-2.036506385E-1,5.504263043E-1,2.447424680E-1
3.736526487E0,-1.932659447E-1,5.577566624E-1,2.422990054E-1
3.738937893E0,-1.847138405E-1,5.663087368E-1,2.380229533E-1
3.741350133E0,-1.749400049E-1,5.736391544E-1,2.361903489E-1
3.743763206E0,-1.639444381E-1,5.797477961E-1,2.355794907E-1
3.746175341E0,-1.529488713E-1,5.834130049E-1,2.337469012E-1
3.748586799E0,-1.443967670E-1,5.828021169E-1,2.300817072E-1
3.750999039E0,-1.358446628E-1,5.809695125E-1,2.270273864E-1
3.753412060E0,-1.291251481E-1,5.773043036E-1,2.258056551E-1
3.755824247E0,-1.211839020E-1,5.742499828E-1,2.258056551E-1
3.758235706E0,-1.132426634E-1,5.675305128E-1,2.294708490E-1
3.760647893E0,-1.089666113E-1,5.571457744E-1,2.374120802E-1
3.763060966E0,-1.034688279E-1,5.485936999E-1,2.459641993E-1
3.765473154E0,-9.552758187E-2,5.467610955E-1,2.581814826E-1
3.767884612E0,-9.430585802E-2,5.412633419E-1,2.703987956E-1
3.770296799E0,-9.491671622E-2,5.302677751E-1,2.813943326E-1
3.772709872E0,-9.430585802E-2,5.223265290E-1,2.893355787E-1
3.775122060E0,-9.491671622E-2,5.174396038E-1,2.954442203E-1
3.777533466E0,-9.064066410E-2,5.168287158E-1,2.984985709E-1
3.779945706E0,-8.331029117E-2,5.174396038E-1,2.991094291E-1
3.782358779E0,-7.781250775E-2,5.229373574E-1,2.960551083E-1
3.784770914E0,-7.048213482E-2,5.314894915E-1,2.948333621E-1
3.787182372E0,-6.559520960E-2,5.424850583E-1,2.936116457E-1
3.789594612E0,-6.131915748E-2,5.547023416E-1,2.930007875E-1
3.792007633E0,-5.887569860E-2,5.656979084E-1,2.954442203E-1
3.794419820E0,-5.704310164E-2,5.760825872E-1,3.009420037E-1
3.796831279E0,-5.826483294E-2,5.876890421E-1,3.076615334E-1
3.799243466E0,-6.009742618E-2,5.986846089E-1,3.174353540E-1
3.801656539E0,-6.620607525E-2,6.047932506E-1,3.278200626E-1
3.804068727E0,-7.414732128E-2,6.109018922E-1,3.363721669E-1
3.806480133E0,-8.331029117E-2,6.170105338E-1,3.443134129E-1
3.808892372E0,-9.369499236E-2,6.231191754E-1,3.510329127E-1
3.811305445E0,-1.077448800E-1,6.316713095E-1,3.534763753E-1
3.813717633E0,-1.230164990E-1,6.432777047E-1,3.571415842E-1
3.816129039E0,-1.352337897E-1,6.506081223E-1,3.601959050E-1
3.818541279E0,-1.456184983E-1,6.640471220E-1,3.608067632E-1
3.820954352E0,-1.584466547E-1,6.848165393E-1,3.583633006E-1
3.823366487E0,-1.700530797E-1,7.092511058E-1,3.571415842E-1
3.825777945E0,-1.798269153E-1,7.312422395E-1,3.553089797E-1
3.828190185E0,-1.859355569E-1,7.556768060E-1,3.498111963E-1
3.830603206E0,-1.938768029E-1,7.795005441E-1,3.424808085E-1
3.833015393E0,-2.036506385E-1,8.045459986E-1,3.327069879E-1
3.835426852E0,-2.134244740E-1,8.308131695E-1,3.211005628E-1
3.837839039E0,-2.207548469E-1,8.625781536E-1,3.101049960E-1
3.840252112E0,-2.280852348E-1,8.918996453E-1,2.984985709E-1
3.842664299E0,-2.323612869E-1,9.169450998E-1,2.856703997E-1
3.845075706E0,-2.360264659E-1,9.395471215E-1,2.710096538E-1
3.847487945E0,-2.439677119E-1,9.578730464E-1,2.545163035E-1
3.849901018E0,-2.519089580E-1,9.676468968E-1,2.368012220E-1
3.852313154E0,-2.616828084E-1,9.737555385E-1,2.166426778E-1
3.854724612E0,-2.702349126E-1,9.761990309E-1,1.989276111E-1
3.857136852E0,-2.800087333E-1,9.774206877E-1,1.793799400E-1
3.859549924E0,-2.897825837E-1,9.749772549E-1,1.622757316E-1
3.861962060E0,-3.013890088E-1,9.737555385E-1,1.482258290E-1
3.864373518E0,-3.129954338E-1,9.676468968E-1,1.353976727E-1
3.866785706E0,-3.227692842E-1,9.615382552E-1,1.231803820E-1
3.869198779E0,-3.319322467E-1,9.554296136E-1,1.109630913E-1
3.871610966E0,-3.380408883E-1,9.517644048E-1,9.508060664E-2
3.874022424E0,-3.423169553E-1,9.487100840E-1,7.797639817E-2
3.876434612E0,-3.435386717E-1,9.511535168E-1,5.903958529E-2
3.878847685E0,-3.453712761E-1,9.609273672E-1,3.521586582E-2
3.881259872E0,-3.472038507E-1,9.731446505E-1,1.200300269E-2
3.883671279E0,-3.472038507E-1,9.804750681E-1,-8.155532181E-3
3.886083518E0,-3.496473134E-1,9.871945381E-1,-2.770320326E-2
3.888496591E0,-3.551450968E-1,9.865837097E-1,-4.480741918E-2
3.890908727E0,-3.643080890E-1,9.786424637E-1,-5.702470988E-2
3.893320185E0,-3.716384470E-1,9.664251804E-1,-6.374422461E-2
3.895732424E0,-3.801905513E-1,9.535970092E-1,-7.107459754E-2
3.898145445E0,-3.899644017E-1,9.401579499E-1,-7.840497792E-2
3.900557633E0,-4.009599686E-1,9.224429131E-1,-8.512448519E-2
3.902969091E0,-4.131772518E-1,9.041169286E-1,-9.123313427E-2
3.905381279E0,-4.241728187E-1,8.864018917E-1,-9.673091769E-2
3.907794352E0,-4.351683855E-1,8.741846085E-1,-1.028395593E-1
3.910206539E0,-4.431096315E-1,8.656324744E-1,-1.071156114E-1
3.912617945E0,-4.479965568E-1,8.619672656E-1,-1.120025367E-1
3.915030185E0,-4.510508776E-1,8.601347208E-1,-1.199437827E-1
3.917443258E0,-4.534943402E-1,8.601347208E-1,-1.260524243E-1
3.919855393E0,-4.553269148E-1,8.631890416E-1,-1.315502077E-1
3.922266852E0,-4.565486610E-1,8.674650788E-1,-1.364371181E-1
3.924679091E0,-4.553269148E-1,8.723520041E-1,-1.401023120E-1
3.927092164E0,-4.534943402E-1,8.784606457E-1,-1.419349015E-1
3.929504299E0,-4.534943402E-1,8.851801753E-1,-1.437675059E-1
3.931915758E0,-4.492182732E-1,8.888453245E-1,-1.456000954E-1
3.934327997E0,-4.443313479E-1,8.986191750E-1,-1.474326849E-1
3.936741018E0,-4.394444525E-1,9.096147418E-1,-1.486544162E-1
3.939153206E0,-4.351683855E-1,9.199994206E-1,-1.486544162E-1
3.941564664E0,-4.296706021E-1,9.316058755E-1,-1.474326849E-1
3.943976852E0,-4.223402143E-1,9.413797259E-1,-1.449892223E-1
3.946389924E0,-4.174533188E-1,9.542078376E-1,-1.425457746E-1
3.948802112E0,-4.113446474E-1,9.639816880E-1,-1.376588494E-1
3.951213518E0,-4.040142894E-1,9.755880833E-1,-1.333827972E-1
3.953625758E0,-3.966839015E-1,9.908597469E-1,-1.297176182E-1
3.956038831E0,-3.893535435E-1,1.007353067E0,-1.229981035E-1
3.958451018E0,-3.808014095E-1,1.020792127E0,-1.150568575E-1
3.960862424E0,-3.765253723E-1,1.031787634E0,-1.107808053E-1
3.963274664E0,-3.698058724E-1,1.041561484E0,-1.046721637E-1
3.965687685E0,-3.606428802E-1,1.052557111E0,-9.917438030E-2
3.968099872E0,-3.533125222E-1,1.067217827E0,-9.489832073E-2
3.970511331E0,-3.417060673E-1,1.081878543E0,-9.001140296E-2
3.972923518E0,-3.288779259E-1,1.095317602E0,-8.634621650E-2
3.975336591E0,-3.160497546E-1,1.111810923E0,-8.207016438E-2
3.977748779E0,-3.093302548E-1,1.142965078E0,-7.718324661E-2
3.980160237E0,-2.946695089E-1,1.166788816E0,-6.618767977E-2
3.982572424E0,-2.745109499E-1,1.174119115E0,-6.068989635E-2
3.984985497E0,-2.567958832E-1,1.173508286E0,-6.374422461E-2
3.987397685E0,-2.445785701E-1,1.163734436E0,-7.107459754E-2
3.989809091E0,-2.329721451E-1,1.147851944E0,-8.084843308E-2
3.992221331E0,-2.231983095E-1,1.130136847E0,-9.367659688E-2
3.994634404E0,-2.164787948E-1,1.116697907E0,-1.089482158E-1
3.997046539E0,-2.073158324E-1,1.109367490E0,-1.223872304E-1
3.999457997E0,-2.005963176E-1,1.109367490E0,-1.339936703E-1
4.001870237E0,-1.950985342E-1,1.109367490E0,-1.449892223E-1
4.004283310E0,-1.914333403E-1,1.111810923E0,-1.590391248E-1
4.006695445E0,-1.896007508E-1,1.111200094E0,-1.712564081E-1
4.009106904E0,-1.896007508E-1,1.106313229E0,-1.822519749E-1
4.011519143E0,-1.889898926E-1,1.097761035E0,-1.914149523E-1
4.013932164E0,-1.871572882E-1,1.086765528E0,-1.999670565E-1
4.016344352E0,-1.859355569E-1,1.077602506E0,-2.109626234E-1
4.018755810E0,-1.792160571E-1,1.061109185E0,-2.207364589E-1
4.021167997E0,-1.731074005E-1,1.041561484E0,-2.305102944E-1
4.023581070E0,-1.627227068E-1,1.020181298E0,-2.390623987E-1
4.025993258E0,-1.511162668E-1,9.975792170E-1,-2.488362193E-1
4.028404664E0,-1.358446628E-1,9.755880833E-1,-2.604426742E-1
4.030816904E0,-1.169078499E-1,9.548187256E-1,-2.714382410E-1
4.033229977E0,-9.552758187E-2,9.358819127E-1,-2.836555243E-1
4.035642112E0,-7.170385867E-2,9.181668162E-1,-2.928184867E-1
4.038053570E0,-4.788013175E-2,9.022843838E-1,-2.989271283E-1
4.040465810E0,-2.283468097E-2,8.864018917E-1,-3.007597327E-1
4.042878831E0,4.043367226E-3,8.656324744E-1,-2.995380163E-1
4.045291018E0,2.725622617E-2,8.405870199E-1,-2.989271283E-1
4.047702477E0,5.046908930E-2,8.069894910E-1,-2.940402329E-1
4.050114664E0,7.368194312E-2,7.630072236E-1,-2.885424495E-1
4.052527737E0,9.567306936E-2,7.178032398E-1,-2.848772407E-1
4.054939924E0,1.176642030E-1,6.707666516E-1,-2.793794572E-1
4.057351331E0,1.384336054E-1,6.225083470E-1,-2.738816738E-1
4.059763570E0,1.610355973E-1,5.748608708E-1,-2.671621740E-1
4.062176643E0,1.848593205E-1,5.284351707E-1,-2.610535324E-1
4.064588831E0,2.074613124E-1,4.807876647E-1,-2.561666071E-1
4.067000237E0,2.294524461E-1,4.331402183E-1,-2.518905699E-1
4.069412477E0,2.514435649E-1,3.861036301E-1,-2.494471073E-1
4.071825549E0,2.709912360E-1,3.396779299E-1,-2.488362193E-1
4.074237685E0,2.887063026E-1,2.956956625E-1,-2.482253611E-1
4.076649143E0,3.051996529E-1,2.523242831E-1,-2.512796819E-1
4.079061383E0,3.186386824E-1,2.095637470E-1,-2.586100698E-1
4.081474404E0,3.296342492E-1,1.692466885E-1,-2.683838904E-1
4.083886591E0,3.394080698E-1,1.307622045E-1,-2.787685990E-1
4.086298049E0,3.461275995E-1,9.472118318E-2,-2.934293449E-1
4.088710237E0,3.497927785E-1,6.478881836E-2,-3.111444414E-1
4.091123310E0,3.479601741E-1,4.035422206E-2,-3.313029706E-1
4.093535497E0,3.424623907E-1,2.202828415E-2,-3.545158207E-1
4.095946904E0,3.369646370E-1,9.200127795E-3,-3.777287006E-1
4.098359143E0,3.320777118E-1,-5.737078609E-4,-3.997198045E-1
4.100772216E0,3.253581822E-1,-6.071491167E-3,-4.247652590E-1
4.103184404E0,3.161952198E-1,-8.514950052E-3,-4.491998553E-1
4.105595810E0,3.076431155E-1,-4.849761724E-3,-4.730235934E-1
4.108008049E0,2.990910113E-1,1.869751024E-3,-4.968473315E-1
4.110421122E0,2.911497653E-1,4.924073815E-3,-5.200601816E-1
4.112833258E0,2.813759446E-1,9.810993448E-3,-5.426621437E-1
4.115244716E0,2.722129524E-1,1.408704557E-2,-5.615989566E-1
4.117656956E0,2.618282735E-1,1.530877315E-2,-5.780923367E-1
4.120069977E0,2.477783859E-1,1.347617991E-2,-5.927530527E-1
4.122482164E0,2.312850356E-1,8.589262143E-3,-6.080247164E-1
4.124893622E0,2.135699689E-1,1.869751024E-3,-6.208528280E-1
4.127305810E0,1.958548874E-1,-1.156927366E-2,-6.318483949E-1
4.129718883E0,1.787506789E-1,-2.623002790E-2,-6.391788125E-1
4.132131070E0,1.622573286E-1,-4.394510761E-2,-6.434548497E-1
4.134542477E0,1.469857097E-1,-6.837968528E-2,-6.440656781E-1
4.136954716E0,1.311032325E-1,-8.975996077E-2,-6.452874541E-1
4.139367789E0,1.194968000E-1,-1.135836840E-1,-6.440656781E-1
4.141779924E0,1.103338301E-1,-1.404617280E-1,-6.434548497E-1
4.144191383E0,1.060577706E-1,-1.667289138E-1,-6.440656781E-1
4.146603622E0,1.030034497E-1,-1.954395622E-1,-6.446765661E-1
4.149016695E0,9.994912893E-2,-2.241501957E-1,-6.471200585E-1
4.151428831E0,9.872739762E-2,-2.504173815E-1,-6.483417749E-1
4.153840289E0,1.005599946E-1,-2.748519778E-1,-6.501743793E-1
4.156252529E0,1.017817184E-1,-2.968431115E-1,-6.520069242E-1
4.158665549E0,1.054469049E-1,-3.127256036E-1,-6.520069242E-1
4.161077737E0,1.170533374E-1,-3.231103122E-1,-6.483417749E-1
4.163489195E0,1.329358220E-1,-3.273863494E-1,-6.397896409E-1
4.165901383E0,1.555378139E-1,-3.261646330E-1,-6.257397532E-1
4.168314456E0,1.805832684E-1,-3.249428868E-1,-6.031377912E-1
4.170726643E0,2.105156332E-1,-3.231103122E-1,-5.787031651E-1
4.173138049E0,2.453349233E-1,-3.200559616E-1,-5.548794866E-1
4.175550289E0,2.874845862E-1,-3.108929992E-1,-5.322774649E-1
4.177963362E0,3.345211744E-1,-2.931779325E-1,-5.157841444E-1
4.180375497E0,3.882772624E-1,-2.656890154E-1,-5.047885776E-1
4.182786956E0,4.505854547E-1,-2.320914418E-1,-4.956255555E-1
4.185199195E0,5.183914900E-1,-1.874983162E-1,-4.913495183E-1
4.187612216E0,5.935278535E-1,-1.294661611E-1,-4.919604063E-1
4.190024404E0,6.753836870E-1,-6.104931980E-2,-4.992907643E-1
4.192435862E0,7.621265054E-1,1.469791122E-2,-5.102863312E-1
4.194848102E0,8.555887938E-1,9.349946678E-2,-5.237253308E-1
4.197261122E0,9.533271790E-1,1.796313822E-1,-5.389969945E-1
4.199673310E0,1.046789408E0,2.712610662E-1,-5.548794866E-1
4.202084768E0,1.137808204E0,3.628907800E-1,-5.713728070E-1
4.204496956E0,1.226383686E0,4.459683895E-1,-5.909204483E-1
4.206910029E0,1.306406856E0,5.204939246E-1,-6.141333580E-1
4.209322216E0,1.380932450E0,5.895216465E-1,-6.361244917E-1
4.211733622E0,1.448127508E0,6.609928012E-1,-6.599481702E-1
4.214145862E0,1.507992268E0,7.294096351E-1,-6.825501919E-1
4.216558935E0,1.559915781E0,8.008807898E-1,-7.075956464E-1
4.218971070E0,1.602676272E0,8.833475709E-1,-7.308084965E-1
4.221382529E0,1.632608652E0,9.645925760E-1,-7.479127049E-1
4.223794768E0,1.649712920E0,1.034231186E0,-7.637951970E-1
4.226207841E0,1.658875823E0,1.083711147E0,-7.760124803E-1
4.228619977E0,1.658875823E0,1.117308736E0,-7.839537263E-1
4.231031435E0,1.647880316E0,1.134413004E0,-7.906732559E-1
4.233443622E0,1.628943443E0,1.134413004E0,-7.943384051E-1
4.235856695E0,1.605730653E0,1.113643527E0,-7.931166887E-1
4.238268883E0,1.576409101E0,1.078824282E0,-7.894515395E-1
4.240680341E0,1.547698498E0,1.034231186E0,-7.802885175E-1
4.243092529E0,1.514711738E0,9.792532921E-1,-7.686821222E-1
4.245505602E0,1.482335925E0,9.120581746E-1,-7.527996302E-1
4.247917789E0,1.449960113E0,8.344783783E-1,-7.356954217E-1
4.250329195E0,1.413308263E0,7.495681643E-1,-7.204238176E-1
4.252741435E0,1.372991204E0,6.634362340E-1,-7.051521540E-1
4.255154508E0,1.332063198E0,5.754717588E-1,-6.880479455E-1
4.257566643E0,1.290524483E0,4.899506271E-1,-6.691111326E-1
4.259978102E0,1.251429081E0,4.117599726E-1,-6.489526033E-1
4.262390341E0,1.211112022E0,3.415105045E-1,-6.324592829E-1
4.264803362E0,1.176903605E0,2.779805958E-1,-6.135224700E-1
4.267215549E0,1.146360397E0,2.199484557E-1,-5.945856571E-1
4.269627008E0,1.118260622E0,1.680249572E-1,-5.768705606E-1
4.272039195E0,1.090771675E0,1.222101003E-1,-5.597663522E-1
4.274452268E0,1.064504504E0,7.395179570E-2,-5.389969945E-1
4.276864456E0,1.035793781E0,2.325001545E-2,-5.225036144E-1
4.279275914E0,1.005250573E0,-2.623002790E-2,-5.078428984E-1
4.281688102E0,9.734857082E-1,-7.265574485E-2,-4.944038391E-1
4.284101174E0,9.423316121E-1,-1.154162735E-1,-4.840191603E-1
4.286513362E0,9.075123072E-1,-1.508464366E-1,-4.766888022E-1
4.288924768E0,8.739147186E-1,-1.795570701E-1,-4.718018472E-1
4.291337008E0,8.397063017E-1,-2.039916664E-1,-4.656932056E-1
4.293750081E0,8.036652803E-1,-2.241501957E-1,-4.589737058E-1
4.296162216E0,7.700677514E-1,-2.375892252E-1,-4.546976388E-1
4.298573674E0,7.383027673E-1,-2.473630607E-1,-4.479781389E-1
4.300985914E0,7.077595592E-1,-2.516391277E-1,-4.424803555E-1
4.303398987E0,6.753836870E-1,-2.516391277E-1,-4.418694973E-1
4.305811122E0,6.423969865E-1,-2.540825903E-1,-4.461455345E-1
4.308222581E0,6.075777411E-1,-2.559151649E-1,-4.546976388E-1
4.310634820E0,5.782561898E-1,-2.608020902E-1,-4.601954222E-1
4.313047841E0,5.477129817E-1,-2.644672692E-1,-4.687475264E-1
4.315460029E0,5.177806020E-1,-2.656890154E-1,-4.791322351E-1
4.317871487E0,4.933460057E-1,-2.626346946E-1,-4.889060855E-1
4.320283674E0,4.719657302E-1,-2.583586276E-1,-5.005124807E-1
4.322696747E0,4.530289173E-1,-2.540825903E-1,-5.145623684E-1
4.325108935E0,4.353138506E-1,-2.485847920E-1,-5.292231441E-1
4.327520341E0,4.163770378E-1,-2.418652773E-1,-5.469382405E-1
4.329932581E0,3.986619711E-1,-2.351457626E-1,-5.634315610E-1
4.332345654E0,3.821686208E-1,-2.339240313E-1,-5.744271278E-1
4.334757789E0,3.607883453E-1,-2.296479791E-1,-5.854226947E-1
4.337169247E0,3.442949951E-1,-2.204850167E-1,-5.927530527E-1
4.339581487E0,3.284125030E-1,-2.113220394E-1,-5.945856571E-1
4.341994560E0,3.119191825E-1,-1.978830099E-1,-5.976399779E-1
4.344406695E0,2.960366905E-1,-1.801679432E-1,-6.013051867E-1
4.346818154E0,2.801541984E-1,-1.612311304E-1,-6.043595076E-1
4.349230393E0,2.673260570E-1,-1.404617280E-1,-6.043595076E-1
4.351643414E0,2.563304901E-1,-1.190814674E-1,-6.055812240E-1
4.354055602E0,2.477783859E-1,-9.709033370E-2,-6.068029404E-1
4.356467060E0,2.392262816E-1,-7.265574485E-2,-6.068029404E-1
4.358879247E0,2.325067669E-1,-5.005375296E-2,-6.049703360E-1
4.361292320E0,2.245655358E-1,-2.867348678E-2,-6.037486196E-1
4.363704508E0,2.147917002E-1,-4.849761724E-3,-6.031377912E-1
4.366115914E0,2.074613124E-1,1.591963880E-2,-6.013051867E-1
4.368528154E0,2.013526708E-1,3.974336386E-2,-5.970291495E-1
4.370941227E0,1.958548874E-1,5.990189314E-2,-5.890879035E-1
4.373353362E0,1.885245144E-1,7.944956422E-2,-5.811466575E-1
4.375764820E0,1.842484623E-1,9.716464579E-2,-5.713728070E-1
4.378177060E0,1.769180745E-1,1.124362648E-1,-5.634315610E-1
4.380590133E0,1.720311642E-1,1.264861524E-1,-5.530468822E-1
4.383002268E0,1.701985747E-1,1.411468983E-1,-5.408295989E-1
4.385413727E0,1.653116494E-1,1.545859277E-1,-5.267796516E-1
4.387825914E0,1.585921347E-1,1.674140841E-1,-5.121189356E-1
4.390238987E0,1.524834931E-1,1.753553301E-1,-4.974581599E-1
4.392651174E0,1.445422471E-1,1.802422404E-1,-4.809648395E-1
4.395062633E0,1.372118741E-1,1.814639717E-1,-4.608062804E-1
4.397474820E0,1.286597699E-1,1.808531135E-1,-4.418694973E-1
4.399887893E0,1.207185239E-1,1.765770614E-1,-4.247652590E-1
4.402300081E0,1.121664196E-1,1.723010093E-1,-4.052175879E-1
4.404711487E0,1.072795019E-1,1.661923528E-1,-3.862808049E-1
4.407123727E0,9.933826327E-2,1.619163007E-1,-3.691765964E-1
4.409536799E0,9.200788289E-2,1.582511216E-1,-3.545158207E-1
4.411948987E0,8.345577866E-2,1.515316069E-1,-3.410767913E-1
4.414360393E0,7.673626393E-2,1.454229504E-1,-3.264160454E-1
4.416772633E0,7.184934616E-2,1.423686296E-1,-3.074792325E-1
4.419185706E0,6.635156274E-2,1.399251819E-1,-2.903750241E-1
4.421597841E0,6.207551807E-2,1.374817193E-1,-2.744925618E-1
4.424009299E0,5.596686900E-2,1.380925775E-1,-2.598317862E-1
4.426421539E0,5.352341011E-2,1.380925775E-1,-2.433384359E-1
4.428834560E0,5.352341011E-2,1.405360401E-1,-2.256233692E-1
4.431246747E0,5.413427576E-2,1.484772861E-1,-2.060756981E-1
4.433658206E0,5.535600707E-2,1.588619798E-1,-1.853062958E-1
4.436070393E0,5.657773465E-2,1.704684049E-1,-1.627043039E-1
4.438483466E0,6.024292484E-2,1.832965761E-1,-1.413240433E-1
4.440895654E0,6.390810758E-2,1.961247325E-1,-1.199437827E-1
4.443307060E0,6.757329404E-2,2.071202993E-1,-9.612005204E-2
4.445719299E0,7.123848796E-2,2.187267244E-1,-7.229632884E-2
4.448132372E0,7.429280877E-2,2.333874851E-1,-4.786173999E-2
4.450544560E0,7.307107747E-2,2.517133951E-1,-2.525974438E-2
4.452955966E0,7.368194312E-2,2.663741708E-1,-1.436020946E-3
4.455368206E0,7.184934616E-2,2.816457748E-1,2.177683823E-2
4.457781279E0,6.879502535E-2,2.999717295E-1,4.437883571E-2
4.460193414E0,6.696242839E-2,3.158541918E-1,6.820256263E-2
4.462604872E0,6.268637627E-2,3.329584002E-1,9.019368887E-2
4.465017112E0,5.902119353E-2,3.500626385E-1,1.127956808E-1
4.467430133E0,5.657773465E-2,3.635016382E-1,1.366194040E-1
4.469842320E0,4.985822365E-2,3.744972050E-1,1.622757316E-1
4.472253779E0,4.436044022E-2,3.836601973E-1,1.885429025E-1
4.474665966E0,3.764092922E-2,3.903796971E-1,2.148100883E-1
4.477079039E0,3.031055070E-2,3.946557343E-1,2.392446846E-1
4.479491227E0,2.236930840E-2,3.977100849E-1,2.636792660E-1
4.481902633E0,1.503893174E-2,3.983209431E-1,2.881138623E-1
4.484314872E0,7.097690832E-3,3.970991969E-1,3.125484586E-1
4.486727945E0,9.890433867E-4,4.007644057E-1,3.327069879E-1
4.489140133E0,-3.287009662E-3,4.117599726E-1,3.504220545E-1
4.491551539E0,-4.508738872E-3,4.227555394E-1,3.693588674E-1
4.493963779E0,-6.341333035E-3,4.313076437E-1,3.876848221E-1
4.496376852E0,-1.061738655E-2,4.374162853E-1,4.078433514E-1
4.498788987E0,-1.611516811E-2,4.361945391E-1,4.328888059E-1
4.501200445E0,-2.588900365E-2,4.313076437E-1,4.573233724E-1
4.503612685E0,-3.688456863E-2,4.227555394E-1,4.799253941E-1
4.506025706E0,-4.910186306E-2,4.105382264E-1,4.994730651E-1
4.508437893E0,-6.254088879E-2,3.977100849E-1,5.184098482E-1
4.510849352E0,-7.353645563E-2,3.818275928E-1,5.373466611E-1
4.513261591E0,-8.453202248E-2,3.647233844E-1,5.587269068E-1
4.515674612E0,-9.736017883E-2,3.482300341E-1,5.788854361E-1
4.518086799E0,-1.095774770E-1,3.335692883E-1,5.953788161E-1
4.520498258E0,-1.205730364E-1,3.207411170E-1,6.118721366E-1
4.522910445E0,-1.315685958E-1,3.103564084E-1,6.271438003E-1
4.525323518E0,-1.431750357E-1,3.018043041E-1,6.430262327E-1
4.527735706E0,-1.553923339E-1,2.981391251E-1,6.558544040E-1
4.530147112E0,-1.663878858E-1,2.987499833E-1,6.668499708E-1
4.532559352E0,-1.749400049E-1,2.993608415E-1,6.772347093E-1
4.534972424E0,-1.816595048E-1,2.993608415E-1,6.863976717E-1
4.537384560E0,-1.902116090E-1,3.018043041E-1,6.955606341E-1
4.539796018E0,-1.969311237E-1,3.030260503E-1,7.053344846E-1
4.542208258E0,-2.030397803E-1,3.042477667E-1,7.144974470E-1
4.544621279E0,-2.091484219E-1,3.042477667E-1,7.230495214E-1
4.547033466E0,-2.152570635E-1,3.042477667E-1,7.285473347E-1
4.549444924E0,-2.189222574E-1,3.011934459E-1,7.340450883E-1
4.551857112E0,-2.225874513E-1,2.981391251E-1,7.389320135E-1
4.554270185E0,-2.256417722E-1,2.969174087E-1,7.389320135E-1
4.556682372E0,-2.274743617E-1,2.950848043E-1,7.370994091E-1
4.559093831E0,-2.293069512E-1,2.926413417E-1,7.328233719E-1
4.561506018E0,-2.286960930E-1,2.865327001E-1,7.309907675E-1
4.563919091E0,-2.274743617E-1,2.785914540E-1,7.273256183E-1
4.566331279E0,-2.286960930E-1,2.694284916E-1,7.199952006E-1
4.568742685E0,-2.286960930E-1,2.590437829E-1,7.096105218E-1
4.571154924E0,-2.280852348E-1,2.437721640E-1,6.992258430E-1
4.573567997E0,-2.286960930E-1,2.260570973E-1,6.863976717E-1
4.575980185E0,-2.286960930E-1,2.065094262E-1,6.711260676E-1
4.578391591E0,-2.256417722E-1,1.869617552E-1,6.521892548E-1
4.580803831E0,-2.170896679E-1,1.655814946E-1,6.320306659E-1
4.583216904E0,-2.048723698E-1,1.454229504E-1,6.100395918E-1
4.585629039E0,-1.889898926E-1,1.319839358E-1,5.849941373E-1
4.588040497E0,-1.676096171E-1,1.197666377E-1,5.556725860E-1
4.590452737E0,-1.407315731E-1,1.130471230E-1,5.196315646E-1
4.592865758E0,-1.077448800E-1,1.087710708E-1,4.780927896E-1
4.595277945E0,-6.864953786E-2,1.057167500E-1,4.334996641E-1
4.597689404E0,-2.344554476E-2,1.044950187E-1,3.858522177E-1
4.600101591E0,2.359103784E-2,1.020515561E-1,3.351504505E-1
4.602514664E0,7.612539828E-2,9.838637710E-2,2.832269371E-1
4.604926852E0,1.298815012E-1,9.777551889E-2,2.294708490E-1
4.607338258E0,1.842484623E-1,1.020515561E-1,1.751038879E-1
4.609750497E0,2.404480129E-1,1.069384813E-1,1.225695238E-1
4.612163570E0,2.942040861E-1,1.154905856E-1,6.942428648E-2
4.614575758E0,3.467384577E-1,1.215992272E-1,1.750078611E-2
4.616987164E0,3.980510831E-1,1.222101003E-1,-3.320098668E-2
4.619399404E0,4.444768131E-1,1.179340482E-1,-8.268103004E-2
4.621812477E0,4.872373343E-1,1.051058918E-1,-1.309393346E-1
4.624224612E0,5.245001316E-1,8.555822074E-2,-1.804193854E-1
4.626636070E0,5.580976605E-1,5.440411717E-2,-2.256233692E-1
4.629048310E0,5.874192119E-1,1.530877315E-2,-2.671621740E-1
4.631461331E0,6.130754948E-1,-2.928435057E-2,-3.056466579E-1
4.633873518E0,6.350666285E-1,-7.632093132E-2,-3.392442167E-1
4.636284977E0,6.497274041E-1,-1.203031987E-1,-3.673439920E-1
4.638697164E0,6.625555754E-1,-1.600093991E-1,-3.887242675E-1
4.641110237E0,6.723293662E-1,-1.954395622E-1,-3.991089463E-1
4.643522424E0,6.747728586E-1,-2.210958749E-1,-4.046067297E-1
4.645933831E0,6.772162914E-1,-2.418652773E-1,-4.015524089E-1
4.648346070E0,6.808815002E-1,-2.583586276E-1,-3.917785883E-1
4.650759143E0,6.808815002E-1,-2.675215900E-1,-3.746743798E-1
4.653171331E0,6.784380078E-1,-2.711867988E-1,-3.520723581E-1
4.655582737E0,6.723293662E-1,-2.736302614E-1,-3.264160454E-1
4.657994977E0,6.601120830E-1,-2.791280448E-1,-2.952619493E-1
4.660408049E0,6.387318373E-1,-2.913453281E-1,-2.598317862E-1
4.662820185E0,6.081885695E-1,-3.060060740E-1,-2.195147276E-1
4.665231643E0,5.752018690E-1,-3.212777078E-1,-1.810302436E-1
4.667643883E0,5.391608477E-1,-3.286080658E-1,-1.456000954E-1
4.670056956E0,5.012872815E-1,-3.249428868E-1,-1.120025367E-1
4.672469091E0,4.591375589E-1,-3.084495366E-1,-8.145929873E-2
4.674880549E0,4.145444334E-1,-2.717976570E-1,-5.519211292E-2
4.677292789E0,3.687295914E-1,-2.125437707E-1,-3.197925538E-2
4.679705810E0,3.180278242E-1,-1.361856759E-1,-1.365331560E-2
4.682117997E0,2.593848109E-1,-5.127548054E-2,1.618303591E-3
4.684529456E0,1.897462457E-1,3.668903559E-2,1.078127418E-2
4.686941643E0,1.164424717E-1,1.136579961E-1,1.933337934E-2
4.689354716E0,3.519747034E-2,1.723010093E-1,2.483116277E-2
4.691766904E0,-5.093445629E-2,2.089528888E-1,2.971808054E-2
4.694178310E0,-1.376772523E-1,2.266679555E-1,3.399413452E-2
4.696590549E0,-2.262526304E-1,2.193375826E-1,3.888105229E-2
4.699003622E0,-3.099411130E-1,1.839074343E-1,4.804402590E-2
4.701415758E0,-3.905752599E-1,1.246535629E-1,6.026131660E-2
4.703827216E0,-4.663224816E-1,4.707373679E-2,7.431120425E-2
4.706239456E0,-5.402370691E-1,-5.127548054E-2,9.385887533E-2
4.708652529E0,-6.098756790E-1,-1.655071825E-1,1.195151955E-1
4.711064664E0,-6.740164757E-1,-2.895127237E-1,1.525018960E-1
4.713476122E0,-7.344920635E-1,-4.232921004E-1,1.946515590E-1
4.715888362E0,-7.937459350E-1,-5.570714474E-1,2.416881323E-1
4.718301383E0,-8.468911648E-1,-6.829096079E-1,2.917790413E-1
4.720713570E0,-8.933169246E-1,-7.971413136E-1,3.437025547E-1
4.723125029E0,-9.330230951E-1,-8.930470347E-1,3.925717175E-1
4.725537216E0,-9.623445868E-1,-9.712377191E-1,4.389974475E-1
4.727950289E0,-9.794487953E-1,-1.034156799E0,4.823688269E-1
4.730362477E0,-9.898335338E-1,-1.078139067E0,5.208532810E-1
4.732773883E0,-9.934986830E-1,-1.103795409E0,5.526182652E-1
4.735186122E0,-9.886118174E-1,-1.115401864E0,5.770528913E-1
4.737599195E0,-9.782270789E-1,-1.113569260E0,5.941570997E-1
4.740011383E0,-9.617337584E-1,-1.101351976E0,6.063743830E-1
4.742422789E0,-9.409643412E-1,-1.078139067E0,6.118721366E-1
4.744835029E0,-9.201949239E-1,-1.039654613E0,6.124830246E-1
4.747248102E0,-8.957603574E-1,-9.913962483E-1,6.112613082E-1
4.749660237E0,-8.694931865E-1,-9.339749813E-1,6.039308906E-1
4.752071695E0,-8.432260156E-1,-8.698341846E-1,5.959897041E-1
4.754483935E0,-8.132936358E-1,-7.977521420E-1,5.843832493E-1
4.756896956E0,-7.809177637E-1,-7.195614576E-1,5.715550780E-1
4.759309143E0,-7.522071600E-1,-6.346513033E-1,5.556725860E-1
4.761720602E0,-7.216638923E-1,-5.515736938E-1,5.410118699E-1
4.764132841E0,-6.917315125E-1,-4.678852260E-1,5.226858854E-1
4.766545862E0,-6.605774164E-1,-3.841967583E-1,5.043599606E-1
4.768958049E0,-6.318668127E-1,-3.029517531E-1,4.848122895E-1
4.771369508E0,-6.068213582E-1,-2.265936583E-1,4.622102976E-1
4.773781695E0,-5.823867321E-1,-1.569550782E-1,4.432734847E-1
4.776194768E0,-5.622282028E-1,-9.525774419E-2,4.255584180E-1
4.778606956E0,-5.500109196E-1,-4.394510761E-2,4.066216052E-1
4.781018362E0,-5.408479571E-1,-5.460625514E-3,3.925717175E-1
4.783430602E0,-5.390153527E-1,2.019569091E-2,3.815761507E-1
4.785843674E0,-5.439022779E-1,3.302384913E-2,3.742457926E-1
4.788255810E0,-5.530652404E-1,3.607817367E-2,3.705805838E-1
4.790667268E0,-5.677260160E-1,3.119125776E-2,3.693588674E-1
4.793079508E0,-5.872736573E-1,2.019569091E-2,3.705805838E-1
4.795492581E0,-6.068213582E-1,2.480614698E-3,3.773001134E-1
4.797904716E0,-6.306450367E-1,-1.828878559E-2,3.834087551E-1
4.800316174E0,-6.563013792E-1,-3.844732419E-2,3.901282549E-1
4.802728414E0,-6.795142293E-1,-6.166018173E-2,3.992912471E-1
4.805141435E0,-7.033379674E-1,-8.365130424E-2,4.078433514E-1
4.807553622E0,-7.253291011E-1,-1.031989753E-1,4.188389182E-1
4.809965081E0,-7.473202348E-1,-1.221357882E-1,4.286127388E-1
4.812377268E0,-7.674787641E-1,-1.410725862E-1,4.414409101E-1
4.814790341E0,-7.839720845E-1,-1.569550782E-1,4.518255889E-1
4.817202529E0,-7.992437482E-1,-1.722266972E-1,4.609885812E-1
4.819613987E0,-8.102393150E-1,-1.874983162E-1,4.683189392E-1
4.822026174E0,-8.206239939E-1,-2.003264725E-1,4.738167226E-1
4.824439247E0,-8.267326355E-1,-2.101003081E-1,4.768710434E-1
4.826851435E0,-8.285652399E-1,-2.155980915E-1,4.787036479E-1
4.829262841E0,-8.297869563E-1,-2.180415541E-1,4.762601852E-1
4.831675081E0,-8.249000311E-1,-2.217067331E-1,4.725950062E-1
4.834088154E0,-8.145153522E-1,-2.235393375E-1,4.658755064E-1
4.836500289E0,-8.016871810E-1,-2.223176062E-1,4.573233724E-1
4.838911747E0,-7.864155769E-1,-2.204850167E-1,4.475495517E-1
4.841323987E0,-7.680896521E-1,-2.168198228E-1,4.347213805E-1
4.843737008E0,-7.442659140E-1,-2.137655020E-1,4.231149554E-1
4.846149195E0,-7.179987431E-1,-2.107111812E-1,4.115085304E-1
4.848560654E0,-6.917315125E-1,-2.046025246E-1,4.005129635E-1
4.850972893E0,-6.624100208E-1,-1.954395622E-1,3.895173967E-1
4.853385914E0,-6.312559247E-1,-1.832222641E-1,3.760783672E-1
4.855798102E0,-6.019344330E-1,-1.679506451E-1,3.632502258E-1
4.858209560E0,-5.726129413E-1,-1.557333469E-1,3.510329127E-1
4.860621747E0,-5.451239944E-1,-1.459595114E-1,3.369830251E-1
4.863034820E0,-5.182459354E-1,-1.355748177E-1,3.223222792E-1
4.865447008E0,-4.932005405E-1,-1.245792508E-1,3.101049960E-1
4.867858414E0,-4.718202651E-1,-1.117510796E-1,2.984985709E-1
4.870270654E0,-4.510508776E-1,-1.013663858E-1,2.875030041E-1
4.872683727E0,-4.308923185E-1,-9.525774419E-2,2.777291536E-1
4.875095914E0,-4.168424308E-1,-8.731649816E-2,2.691770494E-1
4.877507320E0,-4.021816850E-1,-7.998612523E-2,2.618466914E-1
4.879919560E0,-3.869100809E-1,-7.632093132E-2,2.545163035E-1
4.882332633E0,-3.777470887E-1,-7.571007311E-2,2.471859008E-1
4.884744768E0,-3.740819097E-1,-8.059698343E-2,2.374120802E-1
4.887156227E0,-3.710275888E-1,-8.731649816E-2,2.270273864E-1
4.889568466E0,-3.643080890E-1,-8.731649816E-2,2.196970135E-1
4.891981487E0,-3.520907760E-1,-7.021228969E-2,2.154209614E-1
4.894393674E0,-3.368191719E-1,-4.699942842E-2,2.129774988E-1
4.896805133E0,-3.227692842E-1,-3.111694567E-2,2.099231780E-1
4.899217320E0,-3.099411130E-1,-2.928435057E-2,2.074797153E-1
4.901630393E0,-3.038324714E-1,-3.661472723E-2,2.013710737E-1
4.904042581E0,-2.958912253E-1,-5.066461861E-2,1.977058798E-1
4.906454039E0,-2.806196213E-1,-4.577770084E-2,1.928189546E-1
4.908866227E0,-2.543524206E-1,-1.401273254E-2,1.879320443E-1
4.911279299E0,-2.219765782E-1,3.241298348E-2,1.799907982E-1
4.913691487E0,-1.896007508E-1,8.128216863E-2,1.689952314E-1
4.916102893E0,-1.560031921E-1,1.277078837E-1,1.579996645E-1
4.918515133E0,-1.211839020E-1,1.741335988E-1,1.476149708E-1
4.920928206E0,-8.880807459E-2,2.175049931E-1,1.390628666E-1
4.923340393E0,-6.131915748E-2,2.553786039E-1,1.311216205E-1
4.925751799E0,-3.138678893E-2,2.859218419E-1,1.237912551E-1
