"Time (s)","Acceleration x (m/s^2)","Acceleration y (m/s^2)","Acceleration z (m/s^2)"
0.000000000E0,7.838002443E-1,4.966698170E0,9.965539932E0
2.460781000E-3,7.981731892E-1,5.239782333E0,1.011645508E1
4.921562000E-3,7.646365166E-1,5.409861565E0,1.011884975E1
7.382344000E-3,6.879811287E-1,5.623058796E0,1.019790077E1
9.843177000E-3,5.897665024E-1,5.809906006E0,1.018352795E1
1.230395800E-2,4.819700718E-1,6.035080910E0,1.034402466E1
1.476474000E-2,3.837553859E-1,6.224323750E0,1.041349411E1
1.722557300E-2,2.328402400E-1,6.432730675E0,1.054524517E1
1.968635400E-2,1.777442098E-1,6.571668625E0,1.057159615E1
2.214718700E-2,1.633713245E-1,6.657905579E0,1.064585495E1
2.460796900E-2,1.705577970E-1,6.643532276E0,1.066022778E1
2.706880200E-2,2.711679339E-1,6.559690952E0,1.063866901E1
2.952958300E-2,4.604107141E-1,6.363262177E0,1.054284954E1
3.292380200E-2,6.209077835E-1,6.082991123E0,1.047338104E1
3.538463500E-2,8.173370361E-1,5.714087009E0,1.038714409E1
3.784541700E-2,1.119167328E0,5.146358490E0,1.008291817E1
4.030625000E-2,1.718037128E0,3.148529530E0,9.206172943E0
4.276703100E-2,1.749177933E0,2.326880455E0,8.832477570E0
4.522781200E-2,1.351528645E0,2.255016088E0,8.837268829E0
4.768864600E-2,8.077549934E-1,2.135242224E0,8.933087349E0
5.014942700E-2,3.023091555E-1,2.140033245E0,9.095980644E0
5.261026000E-2,1.058799028E-1,2.221479416E0,9.076816559E0
5.507104200E-2,1.130663157E-1,2.255016088E0,8.880388260E0
5.753187500E-2,2.687724233E-1,2.288552761E0,8.545021057E0
5.999265600E-2,4.268740416E-1,2.310112238E0,8.236003876E0
6.331520800E-2,4.604107141E-1,2.324485064E0,8.144975662E0
6.577604200E-2,3.957327604E-1,2.329275846E0,8.101857185E0
6.823682300E-2,2.903317213E-1,2.384371996E0,8.202466965E0
7.069760400E-2,1.849306822E-1,2.413117647E0,8.346196175E0
7.315843700E-2,1.178572774E-1,2.377185583E0,8.585743904E0
7.561921900E-2,7.713413239E-2,2.317298412E0,8.712703705E0
7.808005200E-2,1.298346519E-1,2.231061220E0,8.772590637E0
8.054088500E-2,1.322301626E-1,2.111287355E0,8.851641655E0
8.300166700E-2,1.633713245E-1,2.044214010E0,8.980998039E0
8.546244800E-2,1.513939500E-1,1.931626558E0,9.124727249E0
8.792322900E-2,1.298346519E-1,1.866948605E0,9.287618637E0
9.038406200E-2,2.328402400E-1,1.859762192E0,9.496026039E0
9.367724000E-2,2.448176742E-1,1.823829889E0,9.740365028E0
9.613807300E-2,3.861508369E-1,1.828620911E0,9.994284630E0
9.859885400E-2,5.538344383E-1,1.831016302E0,1.028174305E1
1.010596870E-1,7.885912657E-1,1.874135017E0,1.059794617E1
1.035204690E-1,1.114376307E0,2.037027597E0,1.075365162E1
1.059812500E-1,1.397042751E0,2.271784544E0,1.088300800E1
1.084420830E-1,1.823437929E0,2.252620697E0,1.114890575E1
1.109028650E-1,2.180364370E0,2.231061220E0,1.142438602E1
1.133636980E-1,2.448657751E0,2.255016088E0,1.161841965E1
1.158244790E-1,2.645087004E0,2.324485064E0,1.165435219E1
1.182853120E-1,2.910985231E0,2.415513039E0,1.175017071E1
1.207461460E-1,3.136160374E0,2.465818167E0,1.169986534E1
1.240567710E-1,3.361335278E0,2.470609188E0,1.156332397E1
1.265175520E-1,3.423617363E0,2.537682533E0,1.152020454E1
1.289783330E-1,3.524227619E0,2.698179483E0,1.139563942E1
1.314391670E-1,3.766170979E0,2.853885651E0,1.113932419E1
1.338999480E-1,3.821267128E0,2.976055145E0,1.096205902E1
1.363607290E-1,3.679934025E0,3.124574661E0,1.068657875E1
1.388215620E-1,3.485899925E0,3.301840305E0,1.040151691E1
1.412823960E-1,3.311029911E0,3.397659302E0,1.015717793E1
1.437431770E-1,3.131369352E0,3.517433167E0,9.970331192E0
1.462039580E-1,2.970872164E0,3.622834206E0,9.812229156E0
1.486647920E-1,2.860680342E0,3.673139334E0,9.627777100E0
1.511256250E-1,2.733719826E0,3.711467028E0,9.407392502E0
1.544632290E-1,2.633109808E0,3.752190113E0,9.218150139E0
1.569240620E-1,2.542081594E0,3.780936003E0,9.064839363E0
1.593848440E-1,2.477403641E0,3.788122177E0,8.969020844E0
1.618456770E-1,2.422307491E0,3.788122177E0,8.873200417E0
1.643064580E-1,2.348047733E0,3.742608309E0,8.827686310E0
1.667672400E-1,2.319302082E0,3.730630636E0,8.849246979E0
1.692280730E-1,2.228273869E0,3.713862419E0,8.854038239E0
1.716888540E-1,2.170782328E0,3.646788836E0,8.844455719E0
1.741496870E-1,2.079754353E0,3.546179056E0,8.877991676E0
1.766104690E-1,1.991121531E0,3.517433167E0,8.820500374E0
1.790713020E-1,1.914466381E0,3.416823149E0,8.786963463E0
1.815321350E-1,1.983935118E0,3.301840305E0,8.679167747E0
1.848479170E-1,2.079754353E0,3.203625441E0,8.545021057E0
1.873087500E-1,2.161200523E0,3.114992857E0,8.415664673E0
1.897695310E-1,2.316906452E0,3.071874142E0,8.274332047E0
1.922303650E-1,2.427098513E0,3.033546448E0,8.159348488E0
1.946911460E-1,2.642691612E0,2.997614384E0,8.056343079E0
1.971519790E-1,2.889425993E0,2.159197092E0,7.831167698E0
1.996127600E-1,3.076273203E0,1.883716822E0,7.625156879E0
2.020735420E-1,3.200838089E0,2.044214010E0,7.440704823E0
2.045343750E-1,3.277493477E0,2.077750683E0,7.282603264E0
2.069951560E-1,3.229583740E0,2.101705551E0,7.098151684E0
2.094559900E-1,3.155323982E0,2.183151722E0,6.896931171E0
2.119167710E-1,3.016386271E0,2.259807110E0,6.719666004E0
2.152287500E-1,2.930149078E0,2.329275846E0,6.434603691E0
2.176895830E-1,2.822352648E0,2.362812519E0,6.278897762E0
2.201503650E-1,2.815165997E0,2.501750469E0,6.080073357E0
2.226111980E-1,2.719347000E0,2.650269985E0,5.864480495E0
2.250719790E-1,2.681019306E0,2.844303608E0,5.797406673E0
2.275328120E-1,2.601968527E0,3.016778231E0,5.747101784E0
2.299935940E-1,2.566036224E0,3.261116982E0,5.749497414E0
2.324543750E-1,2.534894943E0,3.495873928E0,5.876457691E0
2.349152080E-1,2.427098513E0,3.764167547E0,5.957903862E0
2.373760420E-1,2.206714630E0,4.020483971E0,6.048931599E0
2.398368230E-1,2.027053595E0,4.288777351E0,6.233383656E0
2.422976560E-1,1.895302296E0,4.468438148E0,6.413044930E0
2.456166150E-1,1.780319214E0,4.660076618E0,6.487304688E0
2.480774480E-1,1.770737648E0,4.825364590E0,6.528028011E0
2.505382290E-1,1.806669474E0,4.925974369E0,6.638219833E0
2.529990620E-1,1.835415363E0,5.024189472E0,6.769970894E0
2.554598440E-1,2.027053595E0,5.081680298E0,6.887349129E0
2.579206250E-1,2.139641047E0,5.062517166E0,7.110128880E0
2.603814580E-1,2.400748253E0,4.923578739E0,7.220320702E0
2.628422400E-1,2.513335705E0,4.672053814E0,7.491010189E0
2.653030730E-1,2.568431854E0,4.547489166E0,7.828772068E0
2.677638540E-1,2.558849812E0,4.307941437E0,8.008433342E0
2.702246870E-1,2.455844164E0,4.068393230E0,8.113834381E0
2.726854690E-1,2.379189014E0,3.828845501E0,8.276726723E0
2.759972400E-1,2.297742844E0,3.524619579E0,8.518671036E0
2.784580730E-1,2.254624128E0,3.251535177E0,8.705517769E0
2.809188540E-1,2.223482847E0,2.952100277E0,8.949856758E0
2.833796870E-1,2.149223089E0,2.583196640E0,9.146286011E0
2.858404690E-1,2.101313591E0,2.343648672E0,9.285223961E0
2.883012500E-1,2.003098726E0,2.101705551E0,9.450511932E0
2.907620830E-1,1.979144096E0,1.864553213E0,9.515190125E0
2.932229170E-1,2.039031029E0,1.488462925E0,9.706828117E0
2.956836980E-1,2.086940527E0,1.265683532E0,9.783482552E0
2.981445310E-1,2.192341805E0,1.006971836E0,9.898466110E0
3.006053120E-1,2.302533865E0,6.811867356E-1,9.920024872E0
3.030660940E-1,2.431889534E0,5.230851173E-1,9.999075890E0
3.063806250E-1,2.585200071E0,3.098875284E-1,1.007094097E1
3.088414580E-1,2.779233932E0,1.374130845E-1,1.006135845E1
3.113022400E-1,2.987640619E0,6.794422865E-2,1.011405849E1
3.137630730E-1,3.287075281E0,-4.464322329E-2,1.026976490E1
3.162238540E-1,3.500273228E0,-6.380712986E-2,1.036558342E1
3.186846870E-1,3.581719398E0,8.057236671E-3,1.039672565E1
3.211454690E-1,3.608069420E0,1.541814506E-1,1.049733543E1
3.236062500E-1,3.677538395E0,3.554016352E-1,1.064345932E1
3.260670830E-1,3.727843761E0,5.590173006E-1,1.083030701E1
3.285279170E-1,3.663165569E0,7.051414847E-1,1.082312107E1
3.309886980E-1,3.555368900E0,8.081470728E-1,1.078718853E1
3.334494790E-1,3.610465050E0,8.560566902E-1,1.070574188E1
3.367647400E-1,3.596092224E0,7.410736680E-1,1.065304184E1
3.392255730E-1,3.658374310E0,5.685992241E-1,1.062190056E1
3.416863540E-1,3.754193306E0,4.081021547E-1,1.056919956E1
3.441471870E-1,3.811685085E0,2.116729319E-1,1.042307568E1
3.466079690E-1,3.897922516E0,8.708238602E-4,1.032965183E1
3.490687500E-1,3.974577427E0,-2.314906120E-1,1.026257896E1
3.515295830E-1,4.068001747E0,-4.159424305E-1,1.013801384E1
3.539903650E-1,4.166215897E0,-6.195581555E-1,1.000626278E1
3.564511980E-1,4.202147961E0,-7.704733014E-1,9.833787918E0
3.589120310E-1,4.149447441E0,-9.764843583E-1,9.582262993E0
3.613728120E-1,4.032069206E0,-1.105840206E0,9.234918594E0
3.638335940E-1,3.866781235E0,-1.335806131E0,8.966625214E0
3.671330730E-1,3.696702003E0,-1.556190252E0,8.648025513E0
3.695939060E-1,3.514645576E0,-1.776574373E0,8.202466965E0
3.720546870E-1,3.509854794E0,-1.996958256E0,7.816795349E0
3.745155210E-1,3.538600445E0,-2.147873640E0,7.443100452E0
3.769763020E-1,3.677538395E0,-2.296393156E0,7.064614773E0
3.794370830E-1,3.857199192E0,-2.322743416E0,6.784343719E0
3.818979170E-1,4.281198978E0,-2.358675480E0,6.743620872E0
3.843586980E-1,4.848927498E0,-2.550313711E0,7.033473969E0
3.868195310E-1,4.875277519E0,-2.959940910E0,7.225111961E0
3.892803120E-1,4.427322865E0,-3.405499697E0,6.269315720E0
3.917411460E-1,4.290781021E0,-3.503714085E0,5.263215065E0
3.942019270E-1,4.211730003E0,-3.474968433E0,4.767350674E0
3.975160420E-1,4.190170765E0,-3.331239700E0,4.542175770E0
3.999768750E-1,4.089560509E0,-3.225838900E0,4.233159065E0
4.024376560E-1,3.830849171E0,-3.343217373E0,3.916956186E0
4.048984900E-1,3.488295555E0,-3.484550476E0,3.617521524E0
4.073592710E-1,3.081064224E0,-3.664211750E0,3.545657158E0
4.098200520E-1,2.841516256E0,-3.858244896E0,3.545657158E0
4.122808850E-1,2.525313377E0,-4.114561558E0,3.588775873E0
4.147416670E-1,2.295347214E0,-4.397227764E0,3.480979204E0
4.172025000E-1,2.149223089E0,-4.799667835E0,3.229454041E0
4.196633330E-1,1.967166662E0,-5.269182205E0,2.973137856E0
4.221241150E-1,1.686895847E0,-5.815351009E0,2.728799105E0
4.245848960E-1,1.394647241E0,-6.349542618E0,2.616211414E0
4.279161460E-1,1.250918627E0,-6.835824966E0,2.498832941E0
4.303769790E-1,1.097607970E0,-7.331688881E0,2.393432140E0
4.328377600E-1,9.131561518E-1,-7.791620731E0,2.347918034E0
4.352985940E-1,7.694274187E-1,-8.196456909E0,2.386245489E0
4.377593750E-1,7.263088226E-1,-8.637224197E0,2.479669333E0
4.402201560E-1,6.448625326E-1,-8.984568596E0,2.625793457E0
4.426809900E-1,5.322750807E-1,-9.322331429E0,2.843781948E0
4.451417710E-1,4.963428974E-1,-9.482828140E0,2.951578617E0
4.476026040E-1,4.508287907E-1,-9.585833549E0,3.152798891E0
4.500633850E-1,4.484333992E-1,-9.652907372E0,3.119261980E0
4.525242190E-1,4.939473867E-1,-9.657698631E0,3.119261980E0
4.549850000E-1,5.083203316E-1,-9.691234589E0,3.217476606E0
4.583001560E-1,6.664218903E-1,-9.729562759E0,3.433069706E0
4.607609900E-1,8.724330664E-1,-9.688839912E0,3.651058197E0
4.632217710E-1,1.116771817E0,-9.715189934E0,3.789995909E0
4.656826040E-1,1.416206598E0,-9.731957436E0,3.945702076E0
4.681433850E-1,1.689291239E0,-9.722375870E0,4.094221592E0
4.706042190E-1,1.950398207E0,-9.751121521E0,4.185249805E0
4.730650000E-1,2.096522570E0,-9.794240952E0,4.333769321E0
4.755258330E-1,2.292951822E0,-9.827777863E0,4.463125229E0
4.779866150E-1,2.427098513E0,-9.830172539E0,4.532594204E0
4.804473960E-1,2.585200071E0,-9.873291969E0,4.633204460E0
4.829082290E-1,2.669041872E0,-9.899641991E0,4.829633236E0
4.853690100E-1,2.896612167E0,-9.911618233E0,5.085949898E0
4.886838540E-1,3.164906025E0,-9.911618233E0,5.294356346E0
4.911446870E-1,3.368521452E0,-9.902036667E0,5.519531250E0
4.936054690E-1,3.627233505E0,-9.825381279E0,5.847711563E0
4.960663020E-1,3.876362801E0,-9.825381279E0,6.065700054E0
4.985270830E-1,3.912294865E0,-9.803822517E0,6.295666218E0
5.009878650E-1,3.967391014E0,-9.787053108E0,6.523236752E0
5.034486980E-1,4.010509968E0,-9.839754105E0,6.726852417E0
5.059094790E-1,3.979368687E0,-9.947550774E0,7.007123470E0
5.083703120E-1,3.902713299E0,-1.005534744E1,7.301767349E0
5.108310940E-1,3.926668167E0,-1.012481689E1,7.570060730E0
5.132919270E-1,3.945832253E0,-1.015356255E1,7.989269733E0
5.157527600E-1,4.048837662E0,-9.997856140E0,8.442014694E0
5.190683330E-1,4.216521263E0,-9.791844368E0,8.825291634E0
5.215291670E-1,4.441696167E0,-9.607393265E0,9.254081726E0
5.239899480E-1,4.748317242E0,-9.396590233E0,9.560704231E0
5.264507810E-1,5.157944202E0,-9.145065308E0,9.946375847E0
5.289115620E-1,5.531638622E0,-8.919890404E0,1.040870285E1
5.313723960E-1,5.864610195E0,-8.670760155E0,1.109860039E1
5.338331770E-1,6.188000202E0,-8.440794945E0,1.192983150E1
5.362940100E-1,6.537739754E0,-8.160523415E0,1.261014748E1
5.387547920E-1,6.794055939E0,-7.952118397E0,1.341263294E1
5.412155730E-1,7.031208038E0,-7.770061970E0,1.436124325E1
5.436764060E-1,7.292315483E0,-7.549677372E0,1.511342239E1
5.461371870E-1,7.522281170E0,-7.331688881E0,1.576978397E1
5.494526040E-1,7.778597355E0,-7.113700390E0,1.654831505E1
5.519134370E-1,7.888789654E0,-6.910084724E0,1.719988441E1
5.543742190E-1,8.082822800E0,-6.852592945E0,1.775563622E1
5.568350520E-1,8.238529205E0,-6.756773949E0,1.820838165E1
5.592958330E-1,8.348720551E0,-6.725633144E0,1.847427940E1
5.617566150E-1,8.365489960E0,-6.653768539E0,1.864914894E1
5.642174480E-1,8.396631241E0,-6.653768539E0,1.876413155E1
5.666782810E-1,8.482868195E0,-6.625022888E0,1.884557724E1
5.691390620E-1,8.549942017E0,-6.596277237E0,1.880964661E1
5.715998440E-1,8.650552750E0,-6.560345173E0,1.884797287E1
5.740606770E-1,8.830213547E0,-6.430989265E0,1.895337296E1
5.765214580E-1,8.978731155E0,-6.246537209E0,1.897493362E1
5.798363020E-1,9.191930771E0,-6.016571045E0,1.909231186E1
5.822971350E-1,9.388359070E0,-5.705159187E0,1.921208572E1
5.847579170E-1,9.632698059E0,-5.333859921E0,1.932227707E1
5.872187500E-1,9.951297760E0,-4.897882938E0,1.937018776E1
5.896795310E-1,1.024354553E1,-4.481069565E0,1.942767906E1
5.921403120E-1,1.059807587E1,-4.052278996E0,1.941330528E1
5.946011460E-1,1.105561256E1,-3.606719971E0,1.924801826E1
5.970619790E-1,1.146044731E1,-3.165951729E0,1.900128365E1
5.995227600E-1,1.180779266E1,-2.739556551E0,1.879287720E1
6.019835420E-1,1.207848167E1,-2.329929829E0,1.859165764E1
6.044443750E-1,1.224137497E1,-1.910721064E0,1.828503609E1
6.069051560E-1,1.236354256E1,-1.522653580E0,1.795685577E1
6.102226560E-1,1.245696640E1,-1.091467381E0,1.762627983E1
6.126834900E-1,1.255039024E1,-6.866315007E-1,1.713999748E1
6.151443230E-1,1.262704659E1,-2.913775444E-1,1.673755646E1
6.176051040E-1,1.267016411E1,3.680300713E-2,1.640458488E1
6.200658850E-1,1.275400543E1,3.601925969E-1,1.602849579E1
6.225266670E-1,1.284024429E1,6.332771182E-1,1.571947861E1
6.249875000E-1,1.288096619E1,9.135481119E-1,1.534099293E1
6.274483330E-1,1.292648125E1,1.165073395E0,1.504634953E1
6.299091150E-1,1.295283127E1,1.339943290E0,1.478284645E1
6.323698960E-1,1.296720314E1,1.409412146E0,1.448580742E1
6.348307290E-1,1.287377930E1,1.481276512E0,1.427021408E1
6.372915100E-1,1.267016411E1,1.454926252E0,1.405462074E1
6.406074480E-1,1.253362274E1,1.462112665E0,1.377914047E1
6.430682810E-1,1.233479881E1,1.435762405E0,1.352282524E1
6.455290620E-1,1.215274048E1,1.361502647E0,1.331921005E1
6.479898960E-1,1.196828842E1,1.268078923E0,1.300061035E1
6.504506770E-1,1.176946449E1,1.198610067E0,1.272752571E1
6.529114580E-1,1.145565796E1,1.098000050E0,1.238018131E1
6.553722920E-1,1.121850586E1,1.057276845E0,1.202565098E1
6.578331250E-1,1.110831261E1,1.002180815E0,1.168788910E1
6.602939060E-1,1.098374748E1,8.848023415E-1,1.138126659E1
6.627546870E-1,1.085439110E1,8.680340052E-1,1.126628399E1
6.652155210E-1,1.063400841E1,7.817968130E-1,1.116806984E1
6.676763540E-1,1.043757820E1,6.716048121E-1,1.112734699E1
6.710164060E-1,1.029384995E1,5.829721093E-1,1.112016010E1
6.734771870E-1,1.009502411E1,4.392433763E-1,1.118004704E1
6.759380210E-1,9.886619568E0,2.859327495E-1,1.122316551E1
6.783988020E-1,9.793195724E0,1.853226721E-1,1.129982090E1
6.808595830E-1,9.678211212E0,2.961659431E-2,1.146510887E1
6.833204170E-1,9.606348038E0,-9.015738964E-2,1.165914249E1
6.857811980E-1,9.570415497E0,-1.739991307E-1,1.187713051E1
6.882420310E-1,9.642280579E0,-2.362815738E-1,1.200169563E1
6.907028650E-1,9.723726273E0,-2.961685061E-1,1.205679226E1
6.931636460E-1,9.702167511E0,-3.033549190E-1,1.217896175E1
6.956244270E-1,9.683002472E0,-3.081459403E-1,1.215021610E1
6.980852600E-1,9.659048080E0,-3.225188255E-1,1.213823891E1
7.013765620E-1,9.553646088E0,-2.937730551E-1,1.212865639E1
7.038373440E-1,9.469804764E0,-3.728238344E-1,1.207835197E1
7.062981770E-1,9.364404678E0,-4.686430097E-1,1.203762817E1
7.087589580E-1,9.232652664E0,-6.123717427E-1,1.191066742E1
7.112197920E-1,9.124856949E0,-7.369366288E-1,1.188431740E1
7.136805730E-1,8.985919952E0,-8.591060042E-1,1.183640766E1
7.161413540E-1,8.954776764E0,-9.501340985E-1,1.170465660E1
7.186021350E-1,9.062574387E0,-9.956482053E-1,1.156571865E1
7.210629690E-1,9.587184906E0,-7.752642035E-1,1.134054375E1
7.235237500E-1,1.014293480E1,-3.656373620E-1,1.115130043E1
7.259845830E-1,9.848291397E0,-4.279198050E-1,1.073209286E1
7.284453650E-1,8.808652878E0,-6.602812409E-1,9.932003021E0
7.317572920E-1,8.075637817E0,-9.118065238E-1,9.261268616E0
7.342181250E-1,7.577377796E0,-1.158540726E0,8.933087349E0
7.366789060E-1,7.613309383E0,-1.216032267E0,8.691144943E0
7.391397400E-1,7.505512714E0,-1.393297672E0,8.501901627E0
7.416005210E-1,7.546235561E0,-1.505885124E0,8.319846153E0
7.440613540E-1,7.785784245E0,-1.462766647E0,8.286309242E0
7.465221350E-1,7.704337597E0,-1.572958469E0,8.171325684E0
7.489829690E-1,7.701941967E0,-1.582540512E0,8.111438751E0
7.514437500E-1,7.816924572E0,-1.431625366E0,8.116230011E0
7.539045310E-1,7.872021198E0,-1.342992544E0,8.109043121E0
7.563653650E-1,7.982213497E0,-1.187286615E0,8.013224602E0
7.588261460E-1,8.030122757E0,-1.045953274E0,7.812004089E0
7.621413020E-1,8.018144608E0,-9.645070434E-1,7.493405819E0
7.646020830E-1,8.070846558E0,-8.686879277E-1,7.261044502E0
7.670629170E-1,8.101987839E0,-7.584958673E-1,7.093360901E0
7.695236980E-1,8.094800949E0,-6.698631644E-1,7.002332211E0
7.719844790E-1,8.056472778E0,-6.147671342E-1,6.961609364E0
7.744453120E-1,8.006168365E0,-5.476937890E-1,6.940049648E0
7.769060940E-1,7.955863476E0,-4.111514688E-1,7.040660381E0
7.793669270E-1,7.991795063E0,-3.033549190E-1,7.136479378E0
7.818277080E-1,8.475681305E0,-8.950380683E-1,5.543485641E0
7.842884900E-1,9.292539597E0,-2.188596487E0,3.596707582E-1
7.867493230E-1,8.909263611E0,-2.243692636E0,-1.331537127E0
7.892101040E-1,8.367885590E0,-2.116732359E0,-2.174745560E0
7.925249480E-1,8.018144608E0,-1.903534651E0,-2.900575399E0
7.949857810E-1,7.716314793E0,-1.865206957E0,-2.826315641E0
7.974465620E-1,7.440835476E0,-2.032890558E0,-2.134022474E0
7.999073960E-1,7.184518814E0,-2.432935238E0,-1.185412884E0
8.023681770E-1,6.772496700E0,-3.043782473E0,-3.014813364E-1
8.048290100E-1,6.576067448E0,-3.743262291E0,1.848007888E-1
8.072897920E-1,7.570190907E0,-4.670312405E0,1.444822550E0
8.097506250E-1,7.965445042E0,-5.626108170E0,2.630584240E0
8.122114060E-1,7.694756031E0,-6.450152874E0,2.745567322E0
8.146721870E-1,7.093490601E0,-7.420321465E0,2.340731621E0
8.171330210E-1,6.906643391E0,-8.304252625E0,1.281929970E0
8.195938020E-1,6.470666409E0,-8.328207970E0,1.322653174E0
8.229094790E-1,6.508994102E0,-8.804907799E0,1.260370612E0
8.253702600E-1,6.652722359E0,-9.564274788E0,8.363709450E-1
8.278310940E-1,6.942575455E0,-1.005055618E1,6.998286843E-1
8.302918750E-1,6.772496700E0,-1.046018314E1,6.399417520E-1
8.327526560E-1,5.869400978E0,-1.090813732E1,1.919872314E-1
8.352134900E-1,4.973492146E0,-1.147826195E1,-4.995609447E-2
8.376742710E-1,3.957809448E0,-1.192142582E1,7.939974964E-2
8.401351040E-1,2.853493690E0,-1.220888233E1,2.518742085E-1
8.425958850E-1,1.694082022E0,-1.229032898E1,4.794446528E-1
8.450566670E-1,7.670319080E-1,-1.203640842E1,3.740435839E-1
8.475175000E-1,-1.288770139E-1,-1.145909786E1,7.860659361E-1
8.499782810E-1,-9.145939350E-1,-1.078357220E1,1.648438096E0
8.532936980E-1,-1.072695494E0,-1.006972027E1,2.055669546E0
8.557545310E-1,-9.840628505E-1,-9.664884567E0,2.177839041E0
8.582153120E-1,-6.582777500E-1,-9.454082489E0,2.117952108E0
8.606761460E-1,-1.696001589E-1,-9.530737877E0,2.053273916E0
8.631369270E-1,3.214729428E-1,-9.925992012E0,1.909545422E0
8.655977600E-1,8.748285770E-1,-1.033322334E1,1.804144263E0
8.680585420E-1,7.598454952E-1,-1.040508747E1,1.801748753E0
8.705193750E-1,8.077549934E-1,-1.056558418E1,1.768212199E0
8.729801560E-1,8.915967941E-1,-1.055121136E1,1.943081975E0
8.754409370E-1,1.023348212E0,-1.031405926E1,2.244912386E0
8.779017710E-1,1.076048613E0,-9.988274574E0,2.640166283E0
8.803625520E-1,1.100003481E0,-9.545110703E0,3.004279137E0
8.836919790E-1,1.212590933E0,-9.262444496E0,3.401928425E0
8.861527600E-1,1.334760427E0,-8.941449165E0,3.713340759E0
8.886135420E-1,1.274873376E0,-8.591711044E0,3.924142838E0
8.910743750E-1,1.353924155E0,-8.316230774E0,4.082243919E0
8.935351560E-1,1.301223636E0,-8.105427742E0,4.122967243E0
8.959959900E-1,1.250918627E0,-7.904207706E0,4.206808567E0
8.984567710E-1,1.222172856E0,-7.597587109E0,4.163690090E0
9.009176040E-1,1.157494903E0,-7.425112724E0,4.173272133E0
9.033783850E-1,1.219777346E0,-7.180774212E0,4.137340069E0
9.058391670E-1,1.432975054E0,-6.938830376E0,4.034334660E0
9.083000000E-1,1.732409716E0,-6.905293465E0,3.993611813E0
9.107607810E-1,2.062985897E0,-6.816660881E0,4.024752617E0
9.140973960E-1,2.338465691E0,-6.675328255E0,4.204413891E0
9.165581770E-1,2.637900829E0,-6.641790867E0,4.290650845E0
9.190190100E-1,2.733719826E0,-6.651372910E0,4.448752403E0
9.214797920E-1,2.805584192E0,-6.656164169E0,4.649972916E0
9.239405730E-1,2.781629324E0,-6.670536995E0,4.901497841E0
9.264014060E-1,2.628318787E0,-6.644186497E0,5.105113506E0
9.288621870E-1,2.522917747E0,-6.684909344E0,5.332683563E0
9.313230210E-1,2.700182915E0,-6.771147251E0,5.600977421E0
9.337838020E-1,2.671437263E0,-6.859779358E0,5.761474609E0
9.362446350E-1,2.051008463E0,-6.730423927E0,5.890830517E0
9.387054170E-1,1.983935118E0,-6.687304974E0,6.209429264E0
9.411662500E-1,1.988726139E0,-6.610650063E0,6.578332901E0
9.444592190E-1,1.962375879E0,-6.629813671E0,6.942445278E0
9.469200000E-1,1.991121531E0,-6.725633144E0,7.241880417E0
9.493808330E-1,2.110895395E0,-6.792706490E0,7.390399933E0
9.518416150E-1,2.276183605E0,-6.775938034E0,7.395190716E0
9.543023960E-1,2.475008011E0,-6.847802639E0,7.452682495E0
9.567632290E-1,2.875052929E0,-7.274197578E0,7.701812267E0
9.592240100E-1,2.793606758E0,-7.841926098E0,7.869495869E0
9.616848440E-1,1.512025833E0,-9.854127884E0,7.596411228E0
9.641456250E-1,2.575618267E0,-8.692320824E0,6.908908844E0
9.666064580E-1,3.919481754E0,-6.375893116E0,6.585519314E0
9.690672400E-1,4.547097206E0,-5.199713230E0,7.560478687E0
9.715280210E-1,4.297967434E0,-4.720617771E0,8.782173157E0
9.748290100E-1,3.933854580E0,-4.648753166E0,9.048070908E0
9.772898440E-1,3.200838089E0,-5.582989693E0,8.897155762E0
9.797506250E-1,2.692996740E0,-6.775938034E0,8.465970039E0
9.822114580E-1,2.158805132E0,-7.635914326E0,8.029993057E0
9.846722400E-1,2.029448986E0,-8.083868980E0,7.716185093E0
9.871330730E-1,2.225878239E0,-8.289879799E0,7.622761250E0
9.895938540E-1,2.539685965E0,-8.268321037E0,7.641925335E0
9.920546870E-1,2.891821384E0,-8.045541763E0,7.706603050E0
9.945154690E-1,3.299052715E0,-7.829948902E0,7.625156879E0
9.969762500E-1,3.361335278E0,-7.599982738E0,7.352072239E0
9.994370830E-1,3.239165783E0,-7.302943230E0,6.877767563E0
1.001897917E0,2.999618053E0,-7.190355778E0,6.312434673E0
1.005213542E0,2.304929256E0,-8.227597237E0,5.890830517E0
1.007674375E0,1.847392797E0,-1.022542667E1,5.076367855E0
1.010135156E0,2.980453968E0,-8.294670105E0,3.655849218E0
1.012595990E0,3.624837875E0,-6.459734440E0,3.433069706E0
1.015056771E0,3.644001484E0,-5.930334091E0,4.345746994E0
1.017517604E0,3.311029911E0,-5.551848412E0,4.796096802E0
1.019978385E0,3.009199858E0,-5.753068447E0,4.317000866E0
1.022439219E0,2.688205719E0,-7.319711685E0,3.126448631E0
1.024900000E0,1.933629990E0,-1.167229557E1,-6.272664070E-1
1.027360781E0,8.101505041E-1,-1.046257877E1,-2.486157656E0
1.029821615E0,5.557483435E-2,-6.914875507E0,3.572752476E-1
1.032282396E0,5.797034502E-2,-6.038130760E0,2.177839041E0
1.035597031E0,-2.347594500E-2,-7.619146824E0,3.229454041E0
1.038057865E0,1.567121744E0,-8.043145180E0,2.089206219E0
1.040518646E0,4.434509754E0,-1.054642105E1,5.273543000E-1
1.042979479E0,5.742441177E0,-7.767666340E0,2.024528265E0
1.045440260E0,5.603503227E0,-3.510900974E0,3.933724880E0
1.047901094E0,4.592610836E0,-1.620868206E0,5.083554268E0
1.050361875E0,2.515731335E0,-2.080800056E0,5.457248688E0
1.052822708E0,1.109585404E0,-3.508505344E0,4.542175770E0
1.055283490E0,2.136763930E-1,-5.032029629E0,3.375578165E0
1.057744323E0,-5.940812826E-2,-7.027462959E0,3.452233553E0
1.060205104E0,1.681623459E-1,-8.469540596E0,3.639080763E0
1.062665885E0,4.029192328E-1,-8.740229607E0,3.536075354E0
1.065996042E0,1.217381954E0,-8.285088539E0,3.531284332E0
1.068456823E0,2.228273869E0,-7.410739422E0,4.024752617E0
1.070917656E0,2.544476986E0,-6.562740326E0,4.144526482E0
1.073378437E0,2.058194876E0,-6.239350319E0,3.794786930E0
1.075839219E0,1.320387483E0,-5.865655899E0,2.333544970E0
1.078300052E0,9.131561518E-1,-4.454719067E0,2.430374175E-2
1.080760833E0,1.052093863E0,-1.239986897E0,-2.572395086E0
1.083221667E0,2.000703335E0,-6.859803200E-2,-2.924530268E0
1.085682448E0,3.598487377E0,-4.703873396E-2,-4.452100694E-1
1.088143281E0,4.630939007E0,-2.090382099E0,1.926313639E0
1.090604062E0,4.537515163E0,-5.041611671E0,5.284774303E0
1.093064896E0,4.702803135E0,-6.088435650E0,9.651731491E0
1.096365312E0,4.707593918E0,-9.355867386E0,9.455303192E0
1.098826146E0,3.538600445E0,-1.087220573E1,9.325946808E0
1.101286927E0,2.017471790E0,-7.889834881E0,9.752342224E0
1.103747760E0,2.225878239E0,-5.063170910E0,9.642149925E0
1.106208542E0,3.052318573E0,-5.063170910E0,7.043056011E0
1.108669375E0,3.730238914E0,-4.907464504E0,6.456163406E0
1.111130156E0,4.465651035E0,-4.133725166E0,5.548276901E0
1.113590990E0,5.021401882E0,-2.844957829E0,4.956593990E0
1.116051823E0,6.087389469E0,-1.659195900E0,4.884729385E0
1.118512604E0,7.052767754E0,-5.572755933E-1,3.325273275E0
1.120973385E0,8.252901077E0,3.919845819E-2,1.401703954E0
1.123434167E0,9.551252365E0,-2.386770844E-1,-6.919443011E-1
1.126748281E0,9.285354614E0,-2.746092081E-1,-1.573480368E0
1.129209115E0,7.955863476E0,9.351074696E-1,-1.432147264E0
1.131669948E0,6.547321320E0,1.047694921E0,-1.939988613E0
1.134130729E0,5.819096088E0,-3.273097277E-1,-8.716052175E-1
1.136591510E0,5.466960907E0,-4.919442177E0,1.854449391E0
1.139052344E0,3.931458950E0,-1.448698235E1,6.520841122E0
1.141513125E0,2.803188801E0,-1.162678146E1,3.016256571E0
1.143973958E0,1.847392797E0,-5.187735558E0,1.001659036E0
1.146434740E0,3.265516043E0,-8.126987457E0,5.349452496E0
1.148895521E0,1.176658750E0,-6.416615963E0,3.478583813E0
1.151356354E0,7.358907461E-1,-7.753293514E0,4.264300346E0
1.153817135E0,2.503753662E0,-1.028531361E1,5.081158638E0
1.157133594E0,6.544444561E-1,-6.699282646E0,4.642786503E0
1.159594427E0,1.696477413E0,-6.466920853E0,4.599667072E0
1.162055208E0,3.416431189E0,-7.707779408E0,4.161294937E0
1.164516042E0,3.234374762E0,-8.792930603E0,3.952888489E0
1.166976823E0,2.525313377E0,-9.559483528E0,3.509725094E0
1.169437656E0,1.885720491E0,-1.043622875E1,2.252098799E0
1.171898437E0,2.601968527E0,-1.004576588E1,1.547828197E0
1.174359271E0,3.471527100E0,-8.951031685E0,1.054359555E0
1.176820104E0,3.998532295E0,-8.031168938E0,8.291845322E-1
1.179280885E0,3.845221996E0,-7.075372696E0,7.333654165E-1
1.181741667E0,3.600883007E0,-6.356729031E0,9.930871427E-3
1.184202448E0,3.466736317E0,-6.378288746E0,-1.022520304E0
1.187518385E0,3.332589626E0,-6.833429337E0,-1.731581926E0
1.189979219E0,3.162510633E0,-8.141360283E0,-2.455016375E0
1.192440000E0,2.594782114E0,-9.925992012E0,-3.044304132E0
1.194900833E0,1.682104826E0,-1.167708683E1,-3.104191303E0
1.197361615E0,8.844103813E-1,-1.350244141E1,-3.204801321E0
1.199822448E0,1.126353741E0,-1.448937893E1,-2.934112310E0
1.202283229E0,1.229359269E0,-1.461633873E1,-2.455016375E0
1.204744062E0,-2.108049393E-2,-1.870781517E1,-1.995084643E0
1.207204844E0,-9.984357357E-1,-2.075594902E1,-1.707627177E0
1.209665625E0,9.150701761E-2,-1.769692421E1,-1.829796553E0
1.212126458E0,3.006804228E0,-8.160523415E0,-2.215468645E0
1.214587240E0,2.546872616E0,-4.016346455E0,-2.078926325E0
1.217897135E0,2.355234385E0,-6.162695408E0,-2.086112738E0
1.220415052E0,2.889425993E0,-7.552073002E0,-1.451310992E0
1.222932969E0,1.998307943E0,-9.398986816E0,-6.799669266E-1
1.225450833E0,1.950398207E0,-1.400070095E1,-4.476055503E-1
1.227968750E0,2.779233932E0,-1.286763954E1,3.764390945E-1
1.230486667E0,2.225878239E0,-1.350483704E1,9.920771122E-1
1.233004531E0,2.060590267E0,-1.357670021E1,1.217252016E0
1.235522448E0,1.485675573E0,-1.360544682E1,1.308280230E0
1.238040365E0,1.109585404E0,-1.434804440E1,1.001659036E0
1.240558229E0,1.298828125E0,-1.524634933E1,9.872861505E-1
1.243076146E0,1.564726353E0,-1.556974030E1,8.124161959E-1
1.245594062E0,2.070172310E0,-1.556494904E1,6.662920117E-1
1.248280677E0,2.475008011E0,-1.504273319E1,8.723031282E-1
1.250798594E0,2.745697260E0,-1.395997715E1,8.219980597E-1
1.253316510E0,2.733719826E0,-1.309041882E1,1.030404806E0
1.255834375E0,2.525313377E0,-1.286284828E1,1.286720872E0
1.258352292E0,2.522917747E0,-1.282452011E1,1.277139068E0
1.260870208E0,2.889425993E0,-1.270714283E1,1.092687130E0
1.263388073E0,3.334985018E0,-1.262090492E1,1.059150577E0
1.265905990E0,3.715866089E0,-1.228314304E1,1.039986610E0
1.268423854E0,3.976973057E0,-1.193579865E1,1.020822883E0
1.270941771E0,4.015301228E0,-1.161959457E1,9.178172946E-1
1.273459687E0,3.976973057E0,-1.168666840E1,8.603257537E-1
1.275977604E0,4.022487164E0,-1.145670223E1,8.483483791E-1
1.278665469E0,3.828453541E0,-1.107582188E1,9.753087163E-1
1.281183385E0,3.770962238E0,-1.023500824E1,-2.152441144E-1
1.283701302E0,3.754193306E0,-1.037634182E1,-3.302270770E-1
1.286219167E0,3.198442459E0,-1.094407082E1,1.159760475E0
1.288737083E0,2.779233932E0,-1.106623936E1,1.205274701E0
1.291255000E0,2.786420345E0,-1.114049911E1,1.152574182E0
1.293772865E0,2.757674456E0,-1.120517731E1,9.609358311E-1
1.296290781E0,2.745697260E0,-1.096083832E1,7.022241950E-1
1.298808698E0,2.508544683E0,-1.099197960E1,5.968231559E-1
1.301326562E0,2.563640833E0,-1.081710911E1,4.602808356E-1
1.303844479E0,2.556454420E0,-1.071170902E1,5.225632787E-1
1.306362396E0,2.671437263E0,-1.046257877E1,5.992186069E-1
1.309076562E0,2.769652128E0,-1.034759521E1,7.022241950E-1
1.311594479E0,2.927753448E0,-1.032603645E1,8.124161959E-1
1.314112344E0,3.337380171E0,-1.000983334E1,7.357609272E-1
1.316630260E0,5.392701149E0,-9.111528397E0,6.615010500E-1
1.319148125E0,5.466960907E0,-8.380908966E0,5.441225767E-1
1.321666042E0,3.773357391E0,-8.356953621E0,4.506989121E-1
1.324183958E0,3.267911434E0,-8.687529564E0,7.477383018E-1
1.326701875E0,2.994827032E0,-9.288794518E0,9.202126861E-1
1.329219740E0,2.575618267E0,-1.032843304E1,1.703534126E0
1.331737656E0,2.678623676E0,-1.166031837E1,2.803058863E0
1.334255573E0,3.478713512E0,-1.260653305E1,2.949182987E0
1.336773437E0,3.737425327E0,-1.292033958E1,2.575488329E0
1.339470469E0,3.560160160E0,-1.287961674E1,2.201793671E0
1.341988333E0,3.263120413E0,-1.299459934E1,2.115556479E0
1.344506250E0,3.459549904E0,-1.255383205E1,1.885590553E0
1.347024167E0,3.816475868E0,-1.134411430E1,1.475963831E0
1.349542031E0,3.627233505E0,-1.098239803E1,1.253184319E0
1.352059948E0,3.299052715E0,-1.105426216E1,9.417720437E-1
1.354577865E0,3.215210915E0,-1.156210327E1,7.460878789E-2
1.357095781E0,3.811685085E0,-9.231302261E0,-1.298000336E0
1.359613646E0,2.599573135E0,-8.498286247E0,-2.153186321E0
1.362131562E0,2.257019520E0,-9.233698845E0,-9.123283625E-1
1.364649479E0,3.016386271E0,-8.601292610E0,-1.361933202E-1
1.367167344E0,3.797312260E0,-7.777247906E0,2.902018428E-1
1.369820937E0,4.369831562E0,-7.197542191E0,3.716481328E-1
1.372338854E0,4.894441605E0,-6.833429337E0,1.608460099E-1
1.374856719E0,5.208249092E0,-6.957994461E0,-2.942949235E-1
1.377374635E0,5.093266010E0,-7.034649372E0,-5.314472318E-1
1.379892552E0,3.239165783E0,-8.855212212E0,-3.925095499E-1
1.382410417E0,2.151618481E0,-1.201005745E1,7.221331447E-2
1.384928333E0,2.417516470E0,-1.211306381E1,9.377261996E-2
1.387446250E0,2.736115217E0,-1.140160656E1,1.711730659E-2
1.389964115E0,3.081064224E0,-1.085064697E1,7.460878789E-2
1.392482031E0,3.155323982E0,-1.038592339E1,3.285295069E-1
1.394999948E0,2.237855673E0,-1.023979950E1,6.782693863E-1
1.397517812E0,1.358715177E0,-1.015835381E1,8.531393409E-1
1.400200990E0,1.167076945E0,-9.846940994E0,8.004387617E-1
1.402718906E0,1.159890413E0,-9.621765137E0,6.327553391E-1
1.405236823E0,1.241336703E0,-9.377428055E0,6.303598285E-1
1.407754687E0,1.480884552E0,-8.766580582E0,7.094106674E-1
1.410272604E0,1.928838968E0,-8.246761322E0,6.878513098E-1
1.412790469E0,2.029448986E0,-7.839530468E0,6.878513098E-1
1.415308385E0,2.072567701E0,-7.504163265E0,5.896366835E-1
1.417826302E0,2.113290787E0,-7.099327564E0,3.572752476E-1
1.420344219E0,2.273787975E0,-6.239350319E0,-1.769164652E-1
1.422862083E0,2.968476772E0,-5.154199123E0,-8.380684853E-1
1.425380000E0,3.519436836E0,-4.979329109E0,-5.721704364E-1
1.427897865E0,3.639210701E0,-5.439260960E0,1.164551497E0
1.430585521E0,3.732634544E0,-5.611735344E0,1.717907071E0
1.433103437E0,3.948227406E0,-5.314695835E0,1.293907404E0
1.435621354E0,3.696702003E0,-5.168571949E0,1.219647527E0
1.438139219E0,3.435595036E0,-5.202108383E0,1.212461114E0
1.440657135E0,3.397267342E0,-5.015261173E0,1.255579829E0
1.443175052E0,3.045131922E0,-5.214086056E0,1.147783160E0
1.445692917E0,2.295347214E0,-6.210605145E0,1.289116383E0
1.448210833E0,1.835415363E0,-7.166400909E0,1.634065270E0
1.450728750E0,1.543167114E0,-8.021586418E0,1.837681055E0
1.453246615E0,1.181449771E0,-8.766580582E0,1.943081975E0
1.455764531E0,8.341053724E-1,-9.638534546E0,2.187420845E0
1.458282448E0,2.783543468E-1,-1.055360794E1,2.276053429E0
1.460969271E0,-3.420746028E-1,-1.180404663E1,2.376663685E0
1.463487187E0,-6.175546050E-1,-1.271193314E1,2.149093390E0
1.466005052E0,-7.924245596E-1,-1.328924370E1,1.562201023E0
1.468522969E0,-9.217804074E-1,-1.383541298E1,9.657268524E-1
1.471040885E0,-1.043949842E0,-1.422348022E1,5.297496915E-1
1.473558802E0,-1.134978056E0,-1.442230415E1,6.502687931E-2
1.476076667E0,-1.118209600E0,-1.420671177E1,-3.182497025E-1
1.478594583E0,-8.930346966E-1,-1.393123150E1,-7.925544381E-1
1.481112500E0,-1.480408311E-1,-1.388332272E1,-1.223740578E0
1.483630365E0,8.365007639E-1,-1.322456551E1,-1.472870350E0
1.486148281E0,1.871347427E0,-1.226876926E1,-1.597435236E0
1.488666198E0,2.518126726E0,-1.156928921E1,-1.781886935E0
1.491390573E0,2.755279064E0,-1.109498596E1,-1.827401042E0
1.493908437E0,2.867866516E0,-1.068296242E1,-1.702836275E0
1.496426354E0,2.681019306E0,-1.026854515E1,-1.386633158E0
1.498944271E0,2.103708982E0,-9.504387856E0,-1.087198257E0
1.501462187E0,1.535980463E0,-8.824071884E0,-7.350628972E-1
1.503980052E0,1.205404520E0,-8.457563400E0,-5.841478109E-1
1.506497969E0,1.569517374E0,-8.299461365E0,-6.464302540E-1
1.509015833E0,1.761155605E0,-7.880254269E0,-5.530065298E-1
1.511533750E0,1.789901257E0,-7.588004589E0,-4.979105592E-1
1.514051667E0,2.007889748E0,-7.444276333E0,-6.440347433E-1
1.516569583E0,2.223482847E0,-7.523327351E0,-6.631985307E-1
1.519087448E0,2.355234385E0,-7.319711685E0,-6.679895520E-1
1.521737031E0,2.235460281E0,-7.056209087E0,-7.422493696E-1
1.524254896E0,2.151618481E0,-7.156818867E0,-7.590177059E-1
1.526772865E0,2.357629776E0,-7.580818653E0,-7.638086677E-1
1.529290729E0,2.666646481E0,-7.748502254E0,-9.027464390E-1
1.531808646E0,2.750488281E0,-7.398762703E0,-9.290966392E-1
1.534326562E0,2.894216776E0,-7.343666553E0,-5.146788955E-1
1.536844427E0,2.661855459E0,-7.377202988E0,-7.446448803E-1
1.539362344E0,2.391166210E0,-7.005904198E0,-8.069272637E-1
1.541880260E0,2.101313591E0,-6.222582340E0,-3.901140392E-1
1.544398125E0,1.660545588E0,-5.614130974E0,-3.589728177E-1
1.546916042E0,1.382669926E0,-4.969747066E0,-3.206451535E-1
1.549433958E0,1.183845282E0,-4.339736462E0,-2.128486335E-1
1.552154948E0,1.236545801E0,-3.733680248E0,-2.121035010E-2
1.554672812E0,1.104794383E0,-3.575578690E0,8.675122261E-1
1.557190729E0,9.874160290E-1,-3.371963024E0,3.668571413E-1
1.559708646E0,1.358715177E0,-3.062946320E0,1.943827122E-1
1.562226562E0,1.562330723E0,-3.276143789E0,7.022241950E-1
1.564744427E0,1.562330723E0,-3.565996647E0,1.162155986E0
1.567262344E0,1.734805346E0,-4.150493622E0,1.248393297E0
1.569780260E0,1.756364584E0,-4.497838020E0,1.514291406E0
1.572298125E0,1.933629990E0,-4.641566753E0,1.463986397E0
1.574816042E0,1.811460495E0,-4.828413963E0,1.523873329E0
1.577333958E0,9.227380753E-1,-5.113476276E0,5.968231559E-1
1.579851823E0,4.891563654E-1,-4.804459095E0,2.159420252E-1
1.582540208E0,5.035293102E-1,-4.040301323E0,5.081904531E-1
1.585058073E0,6.616308689E-1,-3.477364063E0,3.213430643E-1
1.587575990E0,1.186240673E0,-3.367172003E0,-3.326225579E-1
1.590093906E0,1.600658417E0,-3.573183537E0,-8.117182255E-1
1.592611823E0,2.051008463E0,-4.021137714E0,-9.698197842E-1
1.595129687E0,2.999618053E0,-4.739780903E0,-1.221345067E0
1.597647604E0,3.665561199E0,-4.938606262E0,-1.209367752E0
1.600165521E0,4.111120224E0,-5.199713230E0,-1.664508581E0
1.602683385E0,4.209334373E0,-3.489341736E0,-5.434246659E-1
1.605201302E0,4.846531868E0,-9.333657622E-1,-2.655491531E-1
1.607719219E0,5.613084793E0,-1.208845854E0,-1.839378476E0
1.610237083E0,5.716090679E0,-1.594517946E0,-2.098090172E0
1.612889375E0,5.490915298E0,-2.315557003E0,-2.179536581E0
1.615407292E0,5.768791199E0,-3.367172003E0,-2.464598417E0
1.617925156E0,5.663390160E0,-4.425973415E0,-2.850270510E0
1.620443073E0,5.596316338E0,-5.597362518E0,-3.104191303E0
1.622960990E0,5.981988430E0,-6.514831066E0,-3.190428495E0
1.625478906E0,6.461084366E0,-6.708864689E0,-3.161682844E0
1.627996771E0,6.257468700E0,-6.395057201E0,-2.979626179E0
1.630514687E0,6.049062252E0,-6.371101856E0,-2.890993595E0
1.633032604E0,5.874192238E0,-7.410739422E0,-2.361592770E0
1.635550469E0,5.378327847E0,-8.644410133E0,-6.967352629E-1
1.638068385E0,5.215435505E0,-7.702988148E0,1.236415863E0
1.640586302E0,4.226102829E0,-7.278988361E0,1.696347833E0
1.643261771E0,2.453448772E0,-1.015116692E1,3.631894588E0
1.645779687E0,8.604556322E-1,-1.329882526E1,2.506019592E0
1.648297604E0,-4.312098026E-3,-1.484390926E1,-1.015333891E0
1.650815469E0,-1.336679757E-1,-1.541882324E1,-1.527966380E0
1.653333385E0,3.166819811E-1,-1.440074539E1,-1.142294168E0
1.655851302E0,4.963428974E-1,-1.316467857E1,-2.895039320E-1
1.658369167E0,-2.917695343E-1,-1.014877129E1,-3.781366646E-1
1.660887083E0,-8.475205898E-1,-6.471712112E0,-1.077616334E0
1.663405000E0,-1.046345234E0,-3.867826939E0,-1.247695327E0
1.665922865E0,-4.858033061E-1,-2.866517067E0,-9.243057370E-1
1.668440781E0,5.797034502E-2,-3.170742750E0,-9.786566347E-2
1.670958646E0,1.253314137E0,-4.945792675E0,1.181319952E0
1.673657396E0,2.908589840E0,-6.759169579E0,1.854449391E0
1.676175312E0,4.180589199E0,-7.918581486E0,1.916731715E0
1.678693229E0,4.630939007E0,-8.692320824E0,2.067646980E0
1.681211094E0,4.209334373E0,-8.982173920E0,1.969432235E0
1.683729010E0,4.302758217E0,-8.860003471E0,1.466381788E0
1.686246927E0,4.362645149E0,-8.253947258E0,1.581364751E0
1.688764792E0,4.060814857E0,-7.540095806E0,1.914336324E0
1.691282708E0,3.756588936E0,-7.722152233E0,2.098788261E0
1.693800625E0,3.140951395E0,-7.295756340E0,2.213771105E0
1.696318490E0,3.924272537E0,-5.156594753E0,1.895172477E0
1.698836406E0,4.297967434E0,-6.193836689E0,1.612506032E0
1.701354271E0,4.089560509E0,-8.031168938E0,1.337026000E0
1.704033542E0,3.737425327E0,-8.692320824E0,7.549247146E-1
1.706551458E0,3.426012993E0,-9.250466347E0,4.195576906E-1
1.709069323E0,3.073877811E0,-9.930782318E0,6.806648970E-1
1.711587240E0,2.554059029E0,-9.470850945E0,1.176528931E0
1.714105156E0,1.741991758E0,-8.646806717E0,1.617297053E0
1.716623073E0,1.262896061E0,-8.095846176E0,2.199398279E0
1.719140937E0,1.337155819E0,-7.667055607E0,2.582674742E0
1.721658854E0,7.957776785E-1,-7.753293514E0,2.951578617E0
1.724176719E0,8.388962746E-1,-8.088659286E0,3.109679937E0
1.726694635E0,1.454534292E0,-8.390489578E0,2.621002436E0
1.729212552E0,1.435370445E0,-8.951031685E0,2.321567774E0
1.731730417E0,1.147912979E0,-8.905517578E0,2.225748539E0
1.734425365E0,6.831901073E-1,-8.598896980E0,2.894087076E0
1.736943333E0,2.543995380E-1,-8.045541763E0,3.519307137E0
1.739461198E0,-6.295320392E-1,-7.501767635E0,3.231849432E0
1.741979062E0,-5.600631237E-1,-8.019190788E0,1.641251802E0
1.744496979E0,-7.397240400E-1,-8.500681877E0,1.008845448E0
1.747014896E0,-9.098030329E-1,-8.433609009E0,3.165521324E-1
1.749532760E0,-1.233192682E0,-7.770061970E0,-3.829275966E-1
1.752050677E0,-1.635632992E0,-6.876548290E0,-1.070429921E0
1.754568594E0,-1.362548470E0,-6.778333664E0,-1.135107875E0
1.757086458E0,-1.173305631E0,-6.912479877E0,-1.683672428E0
1.759604427E0,-8.714753389E-1,-7.094536781E0,-1.130316854E0
1.762122344E0,-2.534419000E-1,-7.801202297E0,-5.482156277E-1
1.764809896E0,8.388962746E-1,-8.565359116E0,7.535392419E-3
1.767327812E0,1.718037128E0,-8.955822945E0,6.926422715E-1
1.769845729E0,2.110895395E0,-8.809698105E0,1.344212413E0
1.772363594E0,2.494172096E0,-8.809698105E0,1.428054094E0
1.774881562E0,2.702578545E0,-8.282693863E0,1.463986397E0
1.777399427E0,3.073877811E0,-7.633518696E0,1.363376260E0
1.779917292E0,3.905108929E0,-7.753293514E0,1.116641998E0
1.782435208E0,4.817786217E0,-8.074286461E0,9.393765926E-1
1.784953125E0,5.177107811E0,-8.359348297E0,9.777042270E-1
1.787470990E0,5.260949612E0,-8.740229607E0,1.171738029E0
1.789988906E0,5.478938103E0,-9.458873749E0,1.291511893E0
1.792506823E0,5.313650131E0,-9.561878204E0,1.473568320E0
1.795193698E0,4.963910580E0,-1.001222897E1,1.444822550E0
1.797711562E0,4.585424423E0,-1.030447769E1,1.590946794E0
1.800229479E0,4.362645149E0,-1.054162979E1,1.684370399E0
1.802747396E0,4.925582409E0,-1.204359436E1,2.012550831E0
1.805265312E0,5.447796822E0,-1.367252064E1,2.393432140E0
1.807783177E0,5.486124516E0,-1.468101692E1,2.683284998E0
1.810301094E0,5.236995220E0,-1.524874496E1,2.788686037E0
1.812819010E0,4.578238010E0,-1.542840576E1,2.750358343E0
1.815336875E0,3.854803562E0,-1.551224709E1,1.416076779E0
1.817854792E0,3.033154488E0,-1.525353527E1,-1.385888010E-1
1.820372708E0,2.070172310E0,-1.401746845E1,-7.087126374E-1
1.822890573E0,1.308410168E0,-1.355753803E1,-1.254881740E0
1.825577083E0,1.502443790E0,-1.415161514E1,-1.492034078E0
1.828094948E0,1.576703787E0,-1.479120827E1,-1.171039939E0
1.830612865E0,1.768342018E0,-1.594343376E1,-6.224753857E-1
1.833130729E0,1.969562292E0,-1.677945518E1,1.512641013E-1
1.835648646E0,2.168386698E0,-1.740707207E1,1.121432900E0
1.838166562E0,2.233064890E0,-1.791251755E1,1.423263311E0
1.840684479E0,1.938421011E0,-1.778555679E1,1.820912600E0
1.843202344E0,1.981539488E0,-1.843473244E1,1.907149911E0
1.845720260E0,2.070172310E0,-1.911983681E1,1.971827745E0
1.848238177E0,1.962375879E0,-1.911504745E1,2.010155439E0
1.850756042E0,1.866556644E0,-1.915816498E1,1.643647313E0
1.853273958E0,1.368296981E0,-1.914139748E1,1.583760262E0
1.855961406E0,1.090421557E0,-1.924200821E1,1.480754614E0
1.858479323E0,1.085630655E0,-1.929470825E1,1.327444077E0
1.860997240E0,9.035742283E-1,-1.912223434E1,1.238811374E0
1.863515104E0,7.598454952E-1,-1.903599548E1,1.049568534E0
1.866033021E0,4.053147435E-1,-1.750049591E1,9.321901202E-1
1.868550937E0,3.023091555E-1,-1.702140045E1,4.363260567E-1
1.871068802E0,2.615859509E-1,-1.723220253E1,2.614561319E-1
1.873586719E0,2.496085763E-1,-1.671238136E1,4.267441332E-1
1.876104635E0,1.993035078E-1,-1.598176193E1,4.794446528E-1
1.878622500E0,1.418120861E-1,-1.564399910E1,4.530943930E-1
1.881140417E0,1.346256733E-1,-1.574460793E1,1.416821778E-1
1.883658333E0,1.082753539E-1,-1.511459827E1,4.698627293E-1
1.886345625E0,3.382412791E-1,-1.441990948E1,6.399417520E-1
1.888863542E0,6.185122728E-1,-1.460915279E1,3.692526519E-1
1.891381458E0,7.646365166E-1,-1.454207897E1,4.291396141E-1
1.893899323E0,9.131561518E-1,-1.388811398E1,9.226081967E-1
1.896417240E0,1.200613499E0,-1.362461090E1,1.071127892E0
1.898935156E0,1.471302748E0,-1.331319904E1,1.456799865E0
1.901453021E0,1.777923822E0,-1.302813625E1,1.588551283E0
1.903970937E0,2.168386698E0,-1.267839622E1,1.832890034E0
1.906488854E0,2.419912100E0,-1.200526714E1,2.026923656E0
1.909006719E0,2.566036224E0,-1.161001396E1,2.019737482E0
1.911524635E0,2.666646481E0,-1.134411430E1,2.067646980E0
1.914042552E0,2.736115217E0,-1.085064697E1,2.419782162E0
1.916729427E0,2.822352648E0,-1.045060158E1,2.568301916E0
1.919247344E0,2.922962427E0,-1.014637566E1,2.513206005E0
1.921765260E0,3.061900377E0,-9.993065834E0,2.407804728E0
1.924283125E0,3.128973722E0,-9.799031258E0,2.436550617E0
1.926801042E0,3.114600897E0,-9.346285820E0,2.501228571E0
1.929318958E0,3.004408836E0,-8.919890404E0,2.647352695E0
1.931836823E0,2.997222424E0,-8.531823158E0,2.652143717E0
1.934354740E0,2.913380861E0,-8.047936440E0,2.623398066E0
1.936872656E0,2.922962427E0,-7.717360973E0,2.690471172E0
1.939390521E0,2.899007797E0,-7.379598618E0,2.740776539E0
1.941908437E0,2.872657537E0,-7.058604717E0,2.695262194E0
1.944426302E0,2.786420345E0,-6.740005493E0,2.700053215E0
1.947113750E0,2.671437263E0,-6.359124660E0,2.666516542E0
1.949631667E0,2.623527765E0,-6.033339500E0,2.458110094E0
1.952149583E0,2.503753662E0,-5.695577145E0,2.292822123E0
1.954667448E0,2.400748253E0,-5.506334782E0,2.120347500E0
1.957185365E0,2.312115431E0,-5.381769657E0,1.820912600E0
1.959703281E0,2.180364370E0,-5.214086056E0,1.679579377E0
1.962221146E0,1.909675360E0,-5.084730148E0,1.624483347E0
1.964739062E0,1.650963545E0,-5.070356846E0,1.636460781E0
1.967256979E0,1.461720705E0,-5.338651180E0,1.629274368E0
1.969774844E0,1.373088002E0,-6.148322582E0,8.196026683E-1
1.972292760E0,1.622217894E0,-7.834739208E0,-1.144689679E0
1.974810677E0,9.826250076E-1,-7.219101429E0,-3.805321455E-1
1.977497708E0,4.987384081E-1,-7.245451450E0,6.159869432E-1
1.980015625E0,2.160719037E-1,-7.346062183E0,1.413681269E0
1.982533542E0,-2.773966789E-1,-7.111305237E0,2.026923656E0
1.985051406E0,-6.415094137E-1,-6.950808048E0,2.474878311E0
1.987569323E0,-7.732607126E-1,-6.706469059E0,2.709635258E0
1.990087240E0,-7.253511548E-1,-6.378288746E0,2.759940386E0
1.992605156E0,-7.397240400E-1,-6.169881821E0,2.613816023E0
1.995123021E0,-7.229557037E-1,-5.935124874E0,2.429364204E0
1.997640937E0,-5.935998559E-1,-5.657249451E0,2.180234432E0
2.000158802E0,-4.474756718E-1,-5.491961479E0,1.964641452E0
2.002676719E0,-3.109333813E-1,-5.444052219E0,1.684370399E0
2.005194635E0,-1.552272737E-1,-5.441656590E0,1.555014491E0
2.007918750E0,1.561849117E-1,-5.491961479E0,1.473568320E0
2.010436615E0,7.310997248E-1,-6.349542618E0,1.538246155E0
2.012954531E0,1.169472456E0,-7.338875771E0,1.514291406E0
2.015472448E0,1.234150290E0,-8.124591827E0,1.483150125E0
2.017990365E0,1.140726686E0,-8.721065521E0,1.365771770E0
2.020508229E0,9.179471731E-1,-9.140275002E0,1.267557144E0
2.023026146E0,6.951676607E-1,-9.391799927E0,1.166947007E0
2.025544062E0,5.226931572E-1,-9.506782532E0,1.159760475E0
2.028061927E0,3.334503174E-1,-9.593020439E0,1.174133420E0
2.030579844E0,2.352356911E-1,-9.561878204E0,1.186110854E0
2.033097760E0,1.657668352E-1,-9.468455315E0,1.274743557E0
2.035615625E0,1.250436902E-1,-9.396590233E0,1.349003434E0
2.038265208E0,1.489985585E-1,-9.348681450E0,1.468777299E0
2.040783125E0,2.855407596E-1,-9.228907585E0,1.521477938E0
2.043301042E0,3.166819811E-1,-9.111528397E0,1.610110521E0
2.045818906E0,3.885463476E-1,-9.008523941E0,1.605319500E0
2.048336823E0,4.795745611E-1,-8.922286987E0,1.643647313E0
2.050854740E0,5.131112337E-1,-8.852817535E0,1.679579377E0
2.053372604E0,5.274841785E-1,-8.812094688E0,1.756234765E0
2.055890521E0,5.777891874E-1,-8.730648041E0,1.832890034E0
2.058408437E0,6.616308689E-1,-8.733043671E0,1.931104660E0
2.060926302E0,6.975630522E-1,-8.680342674E0,2.005364418E0
2.063444219E0,7.334952354E-1,-8.625247002E0,1.952664018E0
2.065962135E0,8.269189596E-1,-8.560568810E0,2.029319286E0
2.068684427E0,8.700375557E-1,-8.550986290E0,2.077228785E0
2.071202292E0,9.706476927E-1,-8.507868767E0,2.089206219E0
2.073720208E0,1.004184246E0,-8.467145920E0,2.079624176E0
2.076238125E0,1.078444123E0,-8.407258987E0,2.007760048E0
2.078756042E0,1.128749132E0,-8.404862404E0,1.904754400E0
2.081273906E0,1.176658750E0,-8.390489578E0,1.880799651E0
2.083791823E0,1.162285924E0,-8.404862404E0,1.854449391E0
2.086309687E0,1.157494903E0,-8.385698318E0,1.777794003E0
2.088827604E0,1.193427205E0,-8.419235229E0,1.773002982E0
2.091345521E0,1.167076945E0,-8.481518745E0,1.720302582E0
2.093863385E0,1.195822597E0,-8.433609009E0,1.634065270E0
2.096381302E0,1.169472456E0,-8.517450333E0,1.641251802E0
2.099068698E0,1.150308490E0,-8.565359116E0,1.569387436E0
2.101586562E0,1.183845282E0,-8.653992653E0,1.540641665E0
2.104104479E0,1.152704000E0,-8.725856781E0,1.504709482E0
2.106622396E0,1.179054260E0,-8.761789322E0,1.406494856E0
2.109140260E0,1.145517588E0,-8.814489365E0,1.461590886E0
2.111658177E0,1.100003481E0,-8.876772881E0,1.509500384E0
2.114176042E0,1.092817068E0,-8.977382660E0,1.523873329E0
2.116694010E0,1.131144643E0,-9.018105507E0,1.475963831E0
2.119211875E0,1.114376307E0,-9.094760895E0,1.384935498E0
2.121729792E0,1.109585404E0,-9.087574959E0,1.416076779E0
2.124247708E0,1.116771817E0,-9.118715286E0,1.399308443E0
2.126765573E0,1.147912979E0,-9.192975998E0,1.408890367E0
2.129452917E0,1.183845282E0,-9.207348824E0,1.329839468E0
2.131970781E0,1.179054260E0,-9.272027016E0,1.308280230E0
2.134488698E0,1.159890413E0,-9.286398888E0,1.329839468E0
2.137006615E0,1.159890413E0,-9.341494560E0,1.313071132E0
2.139524531E0,1.181449771E0,-9.343890190E0,1.327444077E0
2.142042396E0,1.183845282E0,-9.358263969E0,1.322653174E0
2.144560260E0,1.241336703E0,-9.379822731E0,1.243602276E0
2.147078229E0,1.200613499E0,-9.425336838E0,1.298698306E0
2.149596094E0,1.234150290E0,-9.415754318E0,1.327444077E0
2.152114010E0,1.231754780E0,-9.418150902E0,1.320257664E0
2.154631927E0,1.274873376E0,-9.387008667E0,1.313071132E0
2.157149792E0,1.270082355E0,-9.379822731E0,1.325048685E0
2.159836458E0,1.272477865E0,-9.408568382E0,1.341816902E0
2.162354323E0,1.246127605E0,-9.372636795E0,1.358585238E0
2.164872240E0,1.248523116E0,-9.406172752E0,1.440031528E0
2.167390104E0,1.258105040E0,-9.425336838E0,1.475963831E0
2.169908021E0,1.229359269E0,-9.394195557E0,1.588551283E0
2.172425937E0,1.183845282E0,-9.334308624E0,1.650833607E0
2.174943854E0,1.169472456E0,-9.367845535E0,1.770607591E0
2.177461771E0,1.068862319E0,-9.408568382E0,1.782585025E0
2.179979635E0,1.032930017E0,-9.410964012E0,1.844867349E0
2.182497552E0,9.610656500E-1,-9.468455315E0,1.921522737E0
2.185015469E0,8.892014027E-1,-9.686443329E0,2.029319286E0
2.187533333E0,8.293143511E-1,-9.746330261E0,2.055669546E0
2.190219687E0,7.694274187E-1,-9.600206375E0,2.163465977E0
2.192737552E0,7.023540735E-1,-9.475641251E0,2.185025215E0
2.195255469E0,6.688172817E-1,-9.305562973E0,2.237725973E0
2.197773385E0,5.706027746E-1,-9.209743500E0,2.359895229E0
2.200291302E0,5.370659828E-1,-9.099551201E0,2.438946009E0
2.202809167E0,4.148966074E-1,-9.121110916E0,2.601838589E0
2.205327083E0,3.741734624E-1,-9.109133720E0,2.647352695E0
2.207845000E0,3.645915985E-1,-9.066014290E0,2.671307564E0
2.210362865E0,3.406367898E-1,-9.082783699E0,2.735985518E0
2.212880781E0,3.142865300E-1,-9.113924980E0,2.817431688E0
2.215398698E0,3.262639046E-1,-9.125901222E0,2.824618340E0
2.217916562E0,3.094955087E-1,-9.180997849E0,2.759940386E0
2.220602917E0,3.621960878E-1,-9.180997849E0,2.771917582E0
2.223132187E0,3.478232026E-1,-9.176206589E0,2.786290407E0
2.225661458E0,4.029192328E-1,-9.171415329E0,2.798267841E0
2.228190729E0,4.699926376E-1,-9.216930389E0,2.726403475E0
2.230719948E0,5.059248209E-1,-9.236093521E0,2.776708603E0
2.233249167E0,5.394614935E-1,-9.204952240E0,2.759940386E0
2.235778437E0,5.945575237E-1,-9.204952240E0,2.817431688E0
2.238307708E0,5.873709917E-1,-9.216930389E0,2.807849884E0
2.240836927E0,5.921620131E-1,-9.216930389E0,2.834199905E0
2.243366198E0,6.113258600E-1,-9.272027016E0,2.834199905E0
2.245895469E0,6.544444561E-1,-9.303167343E0,2.795872450E0
2.248424687E0,7.143313885E-1,-9.307958603E0,2.848572969E0
2.250988229E0,7.742184401E-1,-9.284003258E0,2.848572969E0
2.253517500E0,7.885912657E-1,-9.329517365E0,2.889296055E0
2.256046771E0,8.460828066E-1,-9.327122688E0,2.822222710E0
2.258575990E0,8.700375557E-1,-9.298377037E0,2.817431688E0
2.261105260E0,8.772240877E-1,-9.346285820E0,2.834199905E0
2.263634479E0,8.484783173E-1,-9.329517365E0,2.858154774E0
2.266163750E0,8.724330664E-1,-9.310353279E0,2.822222710E0
2.268693021E0,8.317098618E-1,-9.307958603E0,2.824618340E0
2.271222240E0,8.029642105E-1,-9.295980453E0,2.810245275E0
2.273751510E0,7.909867764E-1,-9.274421692E0,2.685680389E0
2.276280781E0,7.646365166E-1,-9.243280411E0,2.755149364E0
2.278810000E0,7.550544739E-1,-9.224116325E0,2.671307564E0
2.281371719E0,6.592353582E-1,-9.245676041E0,2.721612453E0
2.283900990E0,7.047495842E-1,-9.197766304E0,2.656934738E0
2.286430260E0,6.831901073E-1,-9.159438133E0,2.582674742E0
2.288959531E0,6.328850985E-1,-9.140275002E0,2.597047806E0
2.291488750E0,6.017439365E-1,-9.101947784E0,2.525183201E0
2.294017969E0,5.729981661E-1,-9.097156525E0,2.448528051E0
2.296547292E0,5.466479063E-1,-9.066014290E0,2.529974222E0
2.299076510E0,5.753936768E-1,-9.066014290E0,2.467691660E0
2.301605729E0,5.035293102E-1,-8.998941422E0,2.400618553E0
2.304135000E0,4.723881483E-1,-8.972591400E0,2.429364204E0
2.306664271E0,4.388513565E-1,-8.965404510E0,2.395827532E0
2.309193542E0,4.412468672E-1,-8.931868553E0,2.374268293E0
2.311755208E0,4.364558458E-1,-8.927077293E0,2.343127012E0
2.314284479E0,4.484333992E-1,-8.857608795E0,2.345522642E0
2.316813750E0,4.556198120E-1,-8.759393692E0,2.362290859E0
2.319342969E0,4.268740416E-1,-8.761789322E0,2.321567774E0
2.321872240E0,4.436423779E-1,-8.742625237E0,2.367081881E0
2.324401458E0,5.035293102E-1,-8.824071884E0,2.304799318E0
2.326930729E0,5.202976465E-1,-8.905517578E0,2.189816236E0
2.329460000E0,5.777891874E-1,-8.917495728E0,2.235330582E0
2.331989219E0,6.328850985E-1,-8.994150162E0,2.242516756E0
2.334518490E0,7.263088226E-1,-9.008523941E0,2.168256998E0
2.337047760E0,7.694274187E-1,-9.068410873E0,2.122743130E0
2.339576979E0,8.029642105E-1,-9.066014290E0,2.177839041E0
2.342139740E0,8.604556322E-1,-9.109133720E0,2.187420845E0
2.344669062E0,9.035742283E-1,-9.123506546E0,2.127533913E0
2.347198281E0,1.016161799E0,-9.113924980E0,2.067646980E0
2.349727500E0,1.080839634E0,-9.152252197E0,2.070042372E0
2.352256823E0,1.135935664E0,-9.152252197E0,2.000573635E0
2.354785990E0,1.198217988E0,-9.094760895E0,2.017341852E0
2.357315260E0,1.320387483E0,-9.051641464E0,1.947872996E0
2.359844531E0,1.361110687E0,-9.013314247E0,1.952664018E0
2.362373750E0,1.416206598E0,-8.967800140E0,1.962245941E0
2.364903021E0,1.492861986E0,-8.960613251E0,1.916731715E0
2.367432292E0,1.543167114E0,-8.979777336E0,1.864031315E0
2.369961510E0,1.607845068E0,-8.927077293E0,1.823308110E0
2.372525833E0,1.684500217E0,-8.955822945E0,1.770607591E0
2.375055104E0,1.751573563E0,-8.931868553E0,1.732279897E0
2.377584375E0,1.756364584E0,-8.891144753E0,1.686765909E0
2.380113594E0,1.792296886E0,-8.903122902E0,1.708325148E0
2.382642865E0,1.866556644E0,-8.876772881E0,1.669997573E0
2.385172083E0,1.876138449E0,-8.860003471E0,1.600528598E0
2.387701354E0,1.924047947E0,-8.819280624E0,1.634065270E0
2.390230625E0,1.931234598E0,-8.752207756E0,1.610110521E0
2.392759844E0,1.928838968E0,-8.759393692E0,1.636460781E0
2.395289115E0,1.952793837E0,-8.749811172E0,1.660415649E0
2.397818385E0,1.938421011E0,-8.814489365E0,1.674788475E0
2.400347604E0,1.900093317E0,-8.826467514E0,1.631669879E0
2.402889167E0,1.844997168E0,-8.848026276E0,1.619692445E0
2.405418437E0,1.780319214E0,-8.792930603E0,1.691556811E0
2.407947656E0,1.718037128E0,-8.840839386E0,1.722697973E0
2.410476875E0,1.641381502E0,-8.881563187E0,1.715511680E0
2.413006146E0,1.646172523E0,-8.862400055E0,1.691556811E0
2.415535365E0,1.574308395E0,-8.922286987E0,1.717907071E0
2.418064635E0,1.521607876E0,-8.963009834E0,1.741861939E0
2.420593906E0,1.468907118E0,-8.977382660E0,1.749048233E0
2.423123125E0,1.435370445E0,-8.977382660E0,1.763421178E0
2.425652396E0,1.397042751E0,-8.951031685E0,1.799353361E0
2.428181667E0,1.337155819E0,-8.948637009E0,1.825703621E0
2.430710885E0,1.291641831E0,-8.963009834E0,1.818517089E0
2.433256458E0,1.260500550E0,-8.941449165E0,1.844867349E0
2.435785677E0,1.214986444E0,-8.936659813E0,1.801748753E0
2.438314948E0,1.231754780E0,-8.958218575E0,1.837681055E0
2.440844219E0,1.138331175E0,-8.900726318E0,1.859240294E0
2.443373437E0,1.121562839E0,-8.816885948E0,1.895172477E0
2.445902708E0,1.059280276E0,-8.867190361E0,1.990991592E0
2.448431927E0,1.090421557E0,-8.924681664E0,2.012550831E0
2.450961198E0,1.095212579E0,-8.895936012E0,1.969432235E0
2.453490469E0,1.052093863E0,-8.898331642E0,2.007760048E0
2.456019687E0,1.023348212E0,-8.857608795E0,2.062855959E0
2.458548958E0,9.946024418E-1,-8.845630646E0,2.098788261E0
2.461078229E0,9.658566713E-1,-8.860003471E0,2.091601849E0
2.463655625E0,9.634611607E-1,-8.814489365E0,2.129929304E0
2.466184844E0,9.347153902E-1,-8.807303429E0,2.062855959E0
2.468714115E0,8.700375557E-1,-8.867190361E0,2.093997240E0
2.471243333E0,8.652465343E-1,-8.900726318E0,2.141906738E0
2.473772604E0,8.844103813E-1,-8.922286987E0,2.168256998E0
2.476301823E0,9.011788368E-1,-8.943845749E0,2.105974436E0
2.478831094E0,8.748285770E-1,-8.946240425E0,2.168256998E0
2.481360365E0,8.796193600E-1,-8.982173920E0,2.139511347E0
2.483889583E0,9.107606411E-1,-8.974987030E0,2.110765457E0
2.486418854E0,9.395064116E-1,-8.963009834E0,2.115556479E0
2.488948125E0,9.155516624E-1,-9.010918617E0,2.137115717E0
2.491477344E0,9.155516624E-1,-9.046851158E0,2.151488781E0
2.494024687E0,9.682521820E-1,-9.054038048E0,2.103579044E0
2.496553958E0,9.706476927E-1,-9.001337051E0,2.098788261E0
2.499083177E0,9.514837265E-1,-9.032478333E0,2.122743130E0
2.501612448E0,9.514837265E-1,-9.006127357E0,2.125138521E0
2.504141667E0,9.442974329E-1,-8.984568596E0,2.096392870E0
2.506670937E0,9.203425646E-1,-8.886353493E0,2.002969027E0
2.509200208E0,9.059696198E-1,-8.893540382E0,2.074833393E0
2.511729427E0,9.562747478E-1,-8.939054489E0,2.127533913E0
2.514258698E0,9.754384756E-1,-8.967800140E0,2.163465977E0
2.516787917E0,9.466929436E-1,-8.998941422E0,2.187420845E0
2.519317187E0,9.682521820E-1,-9.087574959E0,2.151488781E0
2.521846458E0,1.023348212E0,-9.200161934E0,2.144302368E0
2.524408177E0,1.078444123E0,-9.269630432E0,2.182630062E0
2.526937396E0,9.658566713E-1,-9.207348824E0,2.065251589E0
2.529466667E0,8.173370361E-1,-9.135483742E0,2.074833393E0
2.531995937E0,7.933822870E-1,-9.121110916E0,2.070042372E0
2.534525156E0,7.861957550E-1,-9.070805550E0,2.089206219E0
2.537054427E0,7.838002443E-1,-9.077992439E0,2.223352909E0
2.539583646E0,8.125460148E-1,-9.077992439E0,2.194607258E0
2.542112917E0,7.933822870E-1,-9.037269592E0,2.235330582E0
2.544642187E0,8.676420450E-1,-8.790534973E0,2.161070585E0
2.547171458E0,8.460828066E-1,-8.761789322E0,2.127533913E0
2.549700677E0,6.807948351E-1,-8.895936012E0,2.374268293E0
2.552229896E0,5.873709917E-1,-8.955822945E0,2.395827532E0
2.554829844E0,6.041394472E-1,-9.063619614E0,2.374268293E0
2.557359115E0,5.753936768E-1,-9.106739044E0,2.436550617E0
2.559888385E0,4.939473867E-1,-9.183393478E0,2.486855745E0
2.562417604E0,4.652016163E-1,-9.329517365E0,2.498832941E0
2.564946875E0,4.556198120E-1,-9.518760681E0,2.556324482E0
2.567476094E0,4.699926376E-1,-9.528342247E0,2.570697546E0
2.570005417E0,4.412468672E-1,-9.513969421E0,2.551533461E0
2.572534635E0,4.364558458E-1,-9.557087898E0,2.553929090E0
2.575063854E0,4.268740416E-1,-9.437314987E0,2.541951656E0
2.577593125E0,4.053147435E-1,-9.363054276E0,2.609025002E0
2.580122396E0,4.125011563E-1,-9.446895599E0,2.616211414E0
2.582651615E0,4.508287907E-1,-9.564274788E0,2.597047806E0
2.585178750E0,4.484333992E-1,-9.554692268E0,2.654539347E0
2.587707969E0,4.628061056E-1,-9.341494560E0,2.647352695E0
2.590237240E0,4.053147435E-1,-9.123506546E0,2.678493977E0
2.592766510E0,4.101056457E-1,-8.970195770E0,2.757544756E0
2.595295729E0,4.316649437E-1,-8.831257820E0,2.788686037E0
2.597825000E0,4.484333992E-1,-8.680342674E0,2.903669119E0
2.600354219E0,4.340604544E-1,-8.488704681E0,2.891691446E0
2.602883490E0,4.604107141E-1,-8.277902603E0,2.949182987E0
2.605412760E0,4.508287907E-1,-8.206038475E0,3.045002222E0
2.607941979E0,3.837553859E-1,-8.275506973E0,3.097702742E0
2.610471250E0,3.621960878E-1,-8.268321037E0,3.145612240E0
2.613000469E0,3.645915985E-1,-8.282693863E0,3.224663019E0
2.615560990E0,3.765689731E-1,-8.294670105E0,3.229454041E0
2.618090208E0,2.975181341E-1,-8.273111343E0,3.217476606E0
2.620619531E0,2.999136448E-1,-8.227597237E0,3.354018927E0
2.623148750E0,2.855407596E-1,-8.229992867E0,3.440256119E0
2.625678021E0,2.496085763E-1,-8.155733109E0,3.459419966E0
2.628207240E0,2.256537676E-1,-8.134173393E0,3.509725094E0
2.630736458E0,1.705577970E-1,-8.134173393E0,3.600753307E0
2.633265729E0,1.250436902E-1,-8.138964653E0,3.641476154E0
2.635795000E0,1.202527881E-1,-8.098241806E0,3.720526934E0
2.638324271E0,1.873261333E-1,-8.028772354E0,3.722922564E0
2.640853490E0,1.250436902E-1,-8.014399529E0,3.857069254E0
2.643382708E0,1.921170950E-1,-7.947327137E0,3.936120272E0
2.645944687E0,1.969081163E-1,-7.947327137E0,3.967261553E0
2.648473958E0,2.064899802E-1,-7.966491222E0,3.988820791E0
2.651003177E0,3.262639046E-1,-7.923371792E0,4.012775421E0
2.653532448E0,3.741734624E-1,-7.956908703E0,4.007984161E0
2.656061667E0,4.340604544E-1,-7.964094639E0,4.079848766E0
2.658590937E0,5.179021358E-1,-7.947327137E0,4.094221592E0
2.661120156E0,5.634162426E-1,-7.973677158E0,4.070266724E0
2.663649427E0,6.376761198E-1,-7.973677158E0,4.091825962E0
2.666178698E0,7.382861376E-1,-7.952118397E0,4.091825962E0
2.668707917E0,8.101505041E-1,-7.942535877E0,4.118176460E0
2.671237187E0,8.317098618E-1,-7.935349941E0,4.022357464E0
2.673766406E0,8.556646109E-1,-7.959304333E0,3.991216183E0
2.676327656E0,9.059696198E-1,-7.875463009E0,4.000797749E0
2.678856875E0,9.946024418E-1,-7.839530468E0,3.940911055E0
2.681386146E0,1.064071298E0,-7.724547863E0,3.885814905E0
2.683915417E0,1.073653102E0,-7.693405628E0,3.830718994E0
2.686444635E0,1.071257830E0,-7.717360973E0,3.756459236E0
2.688973906E0,1.073653102E0,-7.748502254E0,3.675013065E0
2.691503125E0,1.119167328E0,-7.774852276E0,3.660640240E0
2.694032396E0,1.169472456E0,-7.746106625E0,3.562425613E0
2.696561667E0,1.203009009E0,-7.698196888E0,3.536075354E0
2.699090885E0,1.274873376E0,-7.635914326E0,3.478583813E0
2.701620156E0,1.387460947E0,-7.566445827E0,3.332459450E0
2.704149375E0,1.480884552E0,-7.532908916E0,3.308504820E0
2.706748021E0,1.576703787E0,-7.492186069E0,3.313295841E0
2.709277292E0,1.770737648E0,-7.453858376E0,3.282154560E0
2.711806562E0,1.936025620E0,-7.417925835E0,3.277363539E0
2.714335781E0,2.113290787E0,-7.420321465E0,3.284549952E0
2.716865052E0,2.278578758E0,-7.420321465E0,3.253408670E0
2.719394271E0,2.439075947E0,-7.417925835E0,3.306109190E0
2.721923542E0,2.556454420E0,-7.484999180E0,3.409115076E0
2.724452812E0,2.669041872E0,-7.566445827E0,3.445047140E0
2.726982031E0,2.824748039E0,-7.590400219E0,3.497747421E0
2.729511302E0,2.913380861E0,-7.712569714E0,3.576798439E0
2.732040573E0,2.922962427E0,-7.844321728E0,3.663035631E0
2.734569792E0,3.049922943E0,-8.016795158E0,3.691781282E0
2.737132865E0,3.121787310E0,-8.268321037E0,3.713340759E0
2.739662135E0,3.162510633E0,-8.543800354E0,3.866651297E0
2.742191406E0,3.172092199E0,-8.819280624E0,4.012775421E0
2.744720625E0,3.150532961E0,-9.042060852E0,4.063080311E0
2.747249896E0,3.081064224E0,-9.343890190E0,4.099012375E0
2.749779115E0,2.987640619E0,-9.583438873E0,4.185249805E0
2.752308437E0,2.829539061E0,-9.834963799E0,4.240345955E0
2.754837656E0,2.702578545E0,-1.010804844E1,4.254718781E0
2.757366875E0,2.582804680E0,-1.026854515E1,4.237950325E0
2.759896146E0,2.422307491E0,-1.042904282E1,4.252323151E0
2.762425417E0,2.266601562E0,-1.055121136E1,4.269091129E0
2.764954635E0,2.187550783E0,-1.065182114E1,4.166085720E0
2.767479740E0,2.106104612E0,-1.078357220E1,4.060684681E0
2.770008958E0,2.072567701E0,-1.090334702E1,4.017566204E0
2.772538229E0,2.048613071E0,-1.080034161E1,3.962470531E0
2.775067500E0,1.892906666E0,-1.077878284E1,3.859464884E0
2.777596719E0,1.837810755E0,-1.081231880E1,3.742086411E0
2.780125990E0,1.696477413E0,-1.074764061E1,3.761250257E0
2.782655208E0,1.567121744E0,-1.079794598E1,3.766041279E0
2.785184479E0,1.509630203E0,-1.074764061E1,3.607939482E0
2.787713750E0,1.519212246E0,-1.068775368E1,3.591171265E0
2.790242969E0,1.502443790E0,-1.064942646E1,3.488165855E0
2.792772240E0,1.495257378E0,-1.075243187E1,3.478583813E0
2.795301458E0,1.598263025E0,-1.062786674E1,3.394742012E0
2.797864740E0,1.607845068E0,-1.053204727E1,3.258199692E0
2.800393958E0,1.674918175E0,-1.055360794E1,3.246222258E0
2.802923229E0,1.864161015E0,-1.076201344E1,3.136030197E0
2.805452500E0,1.969562292E0,-1.088897419E1,3.064166069E0
2.807981771E0,1.876138449E0,-1.080034161E1,2.977928877E0
2.810510990E0,1.713246107E0,-1.070691776E1,2.836595535E0
2.813040260E0,1.713246107E0,-1.063265800E1,2.771917582E0
2.815569479E0,1.744387388E0,-1.057516670E1,2.659330130E0
2.818098750E0,1.703664064E0,-1.055839729E1,2.683284998E0
2.820627969E0,1.703664064E0,-1.050809288E1,2.678493977E0
2.823157240E0,1.691686869E0,-1.042185593E1,2.460505486E0
2.825686458E0,1.622217894E0,-1.034520054E1,2.280844450E0
2.828249531E0,1.641381502E0,-1.021344948E1,2.031714678E0
2.830778750E0,1.821042538E0,-1.019188976E1,1.904754400E0
2.833308021E0,2.015076160E0,-1.016793442E1,1.753839254E0
2.835837292E0,2.098917961E0,-9.945155144E0,1.634065270E0
2.838366510E0,2.240251303E0,-9.892454147E0,1.538246155E0
2.840895781E0,2.185155392E0,-9.993065834E0,1.490336657E0
2.843425000E0,2.182759762E0,-1.002420616E1,1.490336657E0
2.845954271E0,2.252228498E0,-1.014637566E1,1.543037176E0
2.848483542E0,2.230669260E0,-1.012721157E1,1.490336657E0
2.851012812E0,2.381584644E0,-1.021584415E1,1.578969240E0
2.853542031E0,2.489381075E0,-1.052725697E1,1.610110521E0
2.856071302E0,2.604363918E0,-1.064703083E1,1.459195375E0
2.858633333E0,2.654669046E0,-1.078357220E1,1.253184319E0
2.861162604E0,2.800793171E0,-1.107821655E1,1.114246488E0
2.863691875E0,3.018781662E0,-1.138004780E1,1.030404806E0
2.866221146E0,3.236770391E0,-1.143035221E1,7.405518293E-1
2.868750312E0,3.270307064E0,-1.165313148E1,6.088005304E-1
2.871279635E0,3.258329630E0,-1.215139198E1,2.758289874E-1
2.873808854E0,3.469131947E0,-1.249634075E1,-5.953800678E-2
2.876338125E0,3.505064011E0,-1.276223850E1,-2.032667249E-1
2.878867344E0,3.423617363E0,-1.302334595E1,-2.775265574E-1
2.881396615E0,3.490691185E0,-1.324612427E1,-2.966903746E-1
2.883925885E0,3.428408623E0,-1.329642963E1,-3.326225579E-1
2.886455104E0,3.334985018E0,-1.334433937E1,-3.374135196E-1
2.889017604E0,3.375708103E0,-1.321737957E1,-6.432896107E-2
2.891546823E0,3.172092199E0,-1.310000038E1,1.081454903E-1
2.894076094E0,2.906194210E0,-1.289638519E1,3.932074308E-1
2.896605365E0,2.690601349E0,-1.265204620E1,9.513539672E-1
2.899134583E0,2.482194424E0,-1.234542465E1,1.332234979E0
2.901663854E0,1.962375879E0,-1.192142582E1,1.782585025E0
2.904193073E0,1.495257378E0,-1.150221634E1,2.374268293E0
2.906722344E0,1.303619146E0,-1.100156116E1,2.817431688E0
2.909251615E0,1.337155819E0,-1.044102001E1,2.824618340E0
2.911780833E0,1.265291572E0,-1.002899742E1,2.656934738E0
2.914310104E0,1.313201070E0,-9.609788895E0,2.412595749E0
2.916839323E0,1.600658417E0,-9.322331429E0,1.974223256E0
2.919401406E0,2.070172310E0,-9.145065308E0,1.526268721E0
2.921930625E0,2.578013897E0,-9.109133720E0,7.669020891E-1
2.924459896E0,2.946917534E0,-9.207348824E0,1.057500169E-1
2.926989115E0,3.220001936E0,-9.466059685E0,-2.775265574E-1
2.929518385E0,3.483504295E0,-9.813405037E0,-6.081025600E-1
2.932047604E0,3.727843761E0,-1.011763000E1,-9.626333714E-1
2.934576875E0,3.960205078E0,-1.042425156E1,-1.484847784E0
2.937106146E0,3.981763840E0,-1.079555035E1,-1.916033864E0
2.939635417E0,3.912294865E0,-1.101832962E1,-2.122045040E0
2.942164635E0,3.859594345E0,-1.115726757E1,-2.244214535E0
2.944693906E0,3.711074829E0,-1.133692837E1,-2.265773773E0
2.947223125E0,3.538600445E0,-1.145191193E1,-2.150790691E0
2.949787708E0,3.334985018E0,-1.148544884E1,-1.928011179E0
2.952316979E0,3.248747826E0,-1.127704144E1,-1.769909620E0
2.954846250E0,3.114600897E0,-1.117403603E1,-1.494429588E0
2.957375521E0,2.930149078E0,-1.124590015E1,-1.242904305E0
2.959904740E0,2.913380861E0,-1.127704144E1,-1.075220823E0
2.962434010E0,2.968476772E0,-1.113331223E1,-9.314921498E-1
2.964963229E0,2.954103708E0,-1.099677086E1,-7.206900120E-1
2.967492500E0,2.968476772E0,-1.081950569E1,-4.667693377E-1
2.970021771E0,3.025968313E0,-1.058474827E1,-2.966903746E-1
2.972550990E0,3.035550117E0,-1.033561897E1,1.472182851E-2
2.975080208E0,3.047527552E0,-1.012002563E1,1.584505290E-1
2.977609479E0,3.054713964E0,-9.770285606E0,2.973882854E-1
2.980205365E0,3.064295769E0,-9.487619400E0,3.812300265E-1
2.982734635E0,3.155323982E0,-9.214534760E0,4.411169887E-1
2.985263906E0,3.174487829E0,-8.895936012E0,5.465180874E-1
2.987793177E0,3.184069872E0,-8.529427528E0,5.273543000E-1
2.990322396E0,3.220001936E0,-8.256343842E0,5.824502707E-1
2.992851615E0,3.342171192E0,-7.949721813E0,6.375463009E-1
2.995380885E0,3.380499125E0,-7.580818653E0,7.908568978E-1
2.997910156E0,3.440385818E0,-7.312525272E0,9.321901202E-1
3.000439427E0,3.679934025E0,-7.077767849E0,1.056755066E0
3.002968646E0,3.720656872E0,-6.756773949E0,1.229229450E0
3.005497917E0,3.811685085E0,-6.704073429E0,1.365771770E0
3.008027135E0,4.065606117E0,-6.613045692E0,1.315466642E0
3.010553073E0,4.072792530E0,-6.354333401E0,1.504709482E0
3.013082292E0,4.125493050E0,-6.402243614E0,1.638856292E0
3.015611562E0,4.238080502E0,-6.205813885E0,1.598133206E0
3.018140833E0,4.281198978E0,-6.090831280E0,1.758630276E0
3.020670052E0,4.400972843E0,-6.157904625E0,1.765816689E0
3.023199323E0,4.331503868E0,-5.968661785E0,1.876008630E0
3.025728542E0,4.353063583E0,-5.966266155E0,1.959850430E0
3.028257812E0,4.379413605E0,-5.932729721E0,1.899963379E0
3.030787083E0,4.321921825E0,-5.911170006E0,1.943081975E0
3.033316302E0,4.115911007E0,-5.827328682E0,1.919127226E0
3.035845573E0,3.814080715E0,-5.731509686E0,2.175443411E0
3.038374792E0,3.787730694E0,-5.858469486E0,2.103579044E0
3.040936510E0,3.811685085E0,-5.621317387E0,2.017341852E0
3.043465729E0,3.416431189E0,-5.530289173E0,2.206584692E0
3.045995000E0,3.179278851E0,-5.630898952E0,2.173048019E0
3.048524271E0,3.229583740E0,-5.671622753E0,2.096392870E0
3.051053490E0,3.323007584E0,-5.602153778E0,2.019737482E0
3.053582760E0,3.100228071E0,-5.626108170E0,2.002969027E0
3.056111979E0,2.609154940E0,-5.697972775E0,2.134720325E0
3.058641250E0,2.163595915E0,-5.671622753E0,2.194607258E0
3.061170521E0,1.959980249E0,-5.621317387E0,2.108370066E0
3.063699740E0,1.878534079E0,-5.741091251E0,2.077228785E0
3.066229010E0,1.859370232E0,-5.901587963E0,1.952664018E0
3.068758229E0,1.818647146E0,-6.100412846E0,1.887986064E0
3.071321302E0,1.732409716E0,-6.179463863E0,1.964641452E0
3.073850573E0,1.615031242E0,-6.263305664E0,1.909545422E0
3.076379792E0,1.454534292E0,-6.507644653E0,1.794562340E0
3.078909062E0,1.322782993E0,-6.708864689E0,1.693952322E0
3.081438281E0,1.234150290E0,-6.637000084E0,1.578969240E0
3.083967552E0,1.030534506E0,-6.701678276E0,1.562201023E0
3.086496771E0,8.125460148E-1,-6.766355991E0,1.521477938E0
3.089026042E0,6.927721500E-1,-6.893316746E0,1.456799865E0
3.091555312E0,6.065349579E-1,-6.960390091E0,1.435240626E0
3.094084531E0,4.005237222E-1,-6.905293465E0,1.566991925E0
3.096613802E0,1.442075372E-1,-6.969971657E0,1.701138735E0
3.099143021E0,9.150701761E-2,-6.960390091E0,1.739466429E0
3.101705052E0,2.256537676E-1,-6.989135742E0,1.672392964E0
3.104234323E0,3.166819811E-1,-7.001112938E0,1.583760262E0
3.106763542E0,-1.868498325E-2,-6.943621635E0,1.842471957E0
3.109292812E0,-3.708203435E-1,-7.092141151E0,1.890381575E0
3.111822031E0,-4.666394889E-1,-7.175982952E0,1.902358890E0
3.114351302E0,-2.941650450E-1,-7.051417828E0,2.026923656E0
3.116880521E0,-2.558373809E-1,-7.044231415E0,1.986200690E0
3.119409792E0,-2.079278231E-1,-6.946017265E0,2.127533913E0
3.121939062E0,-9.294486046E-2,-6.926853180E0,2.084415197E0
3.124468333E0,2.443361282E-2,-6.969971657E0,2.048483133E0
3.126997552E0,-1.868498325E-2,-6.914875507E0,2.046087742E0
3.129526771E0,-3.300971985E-1,-6.859779358E0,2.314381361E0
3.132088542E0,-6.391139030E-1,-6.871757030E0,2.362290859E0
3.134617760E0,-6.103681922E-1,-6.713655472E0,2.419782162E0
3.137147031E0,-3.971706033E-1,-6.526808262E0,2.374268293E0
3.139676302E0,-2.031368315E-1,-6.646582127E0,2.292822123E0
3.142205521E0,-4.503530264E-2,-6.763960361E0,2.323962927E0
3.144734792E0,8.671605587E-2,-6.946017265E0,2.311985731E0
3.147264010E0,3.118910193E-1,-7.020276546E0,2.137115717E0
3.149793281E0,3.765689731E-1,-6.986740112E0,2.158674955E0
3.152322552E0,4.819700718E-1,-6.898107529E0,2.110765457E0
3.154851823E0,6.089303493E-1,-6.828638554E0,2.050878763E0
3.157381042E0,7.167268991E-1,-6.730423927E0,2.067646980E0
3.159910260E0,8.556646109E-1,-6.677723408E0,2.103579044E0
3.162456823E0,9.514837265E-1,-6.728028774E0,2.137115717E0
3.164986094E0,1.114376307E0,-6.763960361E0,2.199398279E0
3.167515312E0,1.265291572E0,-6.716051102E0,2.235330582E0
3.170044583E0,1.385065436E0,-6.708864689E0,2.352708817E0
3.172573802E0,1.507234812E0,-6.723237514E0,2.403013945E0
3.175103073E0,1.636590719E0,-6.790310860E0,2.508414984E0
3.177632292E0,1.823437929E0,-6.821452141E0,2.618607044E0
3.180161562E0,1.902488708E0,-6.785520077E0,2.702448845E0
3.182690833E0,2.067776680E0,-6.804683685E0,2.781499624E0
3.185220052E0,2.237855673E0,-6.821452141E0,2.848572969E0
3.187749323E0,2.391166210E0,-6.871757030E0,3.013860941E0
3.190278542E0,2.534894943E0,-6.905293465E0,3.107284546E0
3.192856719E0,2.692996740E0,-6.843011379E0,3.215080976E0
3.195385937E0,2.858284712E0,-6.847802639E0,3.279758930E0
3.197915208E0,3.013990879E0,-6.993926525E0,3.356414318E0
3.200444479E0,3.258329630E0,-7.039440632E0,3.337250471E0
3.202973698E0,3.483504295E0,-7.022672176E0,3.435465336E0
3.205502969E0,3.770962238E0,-7.082559109E0,3.488165855E0
3.208032187E0,3.972181797E0,-7.192750931E0,3.500143051E0
3.210561458E0,4.228498459E0,-7.343666553E0,3.461815596E0
3.213090729E0,4.530328751E0,-7.398762703E0,3.413905859E0
3.215619948E0,4.865695477E0,-7.427507877E0,3.473792791E0
3.218149219E0,5.119616508E0,-7.372412205E0,3.593566656E0
3.220678490E0,5.500497341E0,-7.401157856E0,3.706154346E0
3.223259167E0,5.893355846E0,-7.362830162E0,3.823532820E0
3.225790625E0,6.367660522E0,-7.343666553E0,3.902583599E0
3.228322031E0,6.770101070E0,-7.374807358E0,3.900187969E0
3.230853437E0,7.134213924E0,-7.494581699E0,3.878628731E0
3.233384844E0,7.510303974E0,-7.676638126E0,3.816346169E0
3.235916250E0,7.919930935E0,-7.870671749E0,3.689385891E0
3.238447708E0,8.298416138E0,-7.980864048E0,3.619916916E0
3.240979115E0,8.559524536E0,-8.126987457E0,3.648662806E0
3.243510521E0,8.940404892E0,-8.134173393E0,3.708549738E0
3.246041927E0,9.242235184E0,-8.107823372E0,3.744482040E0
3.248573385E0,9.460222244E0,-8.126987457E0,3.861860275E0
3.251104792E0,9.627906799E0,-8.059913635E0,3.972052336E0
3.253624583E0,9.831523895E0,-8.083868980E0,4.096617222E0
3.256155990E0,1.002076530E1,-8.095846176E0,4.175667763E0
3.258687396E0,1.012137604E1,-8.143755913E0,4.273882389E0
3.261218854E0,1.021000862E1,-8.126987457E0,4.429588318E0
3.263750260E0,1.026270866E1,-8.100637436E0,4.616436005E0
3.266281667E0,1.027229118E1,-8.033563614E0,4.877542973E0
3.268813073E0,1.018605232E1,-8.004817963E0,5.083554268E0
3.271344531E0,1.014053917E1,-7.966491222E0,5.323101997E0
3.273875937E0,1.010221291E1,-8.028772354E0,5.507553577E0
3.276407344E0,1.009742165E1,-8.074286461E0,5.612954617E0
3.278938802E0,1.004711533E1,-8.213224411E0,5.792615891E0
3.281470156E0,9.987228394E0,-8.366535187E0,5.955508232E0
3.284045312E0,9.980041504E0,-8.567755699E0,6.080073357E0
3.286576771E0,1.003992844E1,-8.646806717E0,6.242965698E0
3.289108177E0,1.011418915E1,-8.134173393E0,6.307643890E0
3.291639583E0,9.915363312E0,-7.676638126E0,6.456163406E0
3.294170990E0,9.551252365E0,-7.686219692E0,6.413044930E0
3.296702396E0,9.232652664E0,-7.985655308E0,6.278897762E0
3.299233854E0,8.909263611E0,-8.016795158E0,6.238174915E0
3.301765260E0,8.478076935E0,-7.925768375E0,6.233383656E0
3.304296667E0,8.159479141E0,-7.947327137E0,6.190265179E0
3.306828073E0,7.955863476E0,-7.932954311E0,6.070491314E0
3.309359531E0,7.778597355E0,-7.868276119E0,5.981858730E0
3.311890937E0,7.589354992E0,-7.662265301E0,5.893225670E0
3.314392656E0,7.376156807E0,-7.623937130E0,5.852502823E0
3.316924062E0,7.153377533E0,-7.647892475E0,5.706378937E0
3.319455469E0,6.997671604E0,-7.698196888E0,5.430898666E0
3.321986927E0,6.707818508E0,-7.731733799E0,5.198537350E0
3.324518333E0,6.485039234E0,-8.208433151E0,5.076367855E0
3.327049740E0,6.367660522E0,-8.903122902E0,4.844006062E0
3.329581146E0,6.267050743E0,-9.614579201E0,4.649972916E0
3.332112604E0,6.161649704E0,-1.040029621E1,4.362515450E0
3.334644010E0,5.989174843E0,-1.118840885E1,4.156504154E0
3.337175417E0,5.704113007E0,-1.207473564E1,3.928933859E0
3.339706875E0,5.428633213E0,-1.290357113E1,3.825928211E0
3.342238281E0,5.105243683E0,-1.373959351E1,3.857069254E0
3.344776146E0,4.774667740E0,-1.454926586E1,3.749272823E0
3.347307552E0,4.475232601E0,-1.533258629E1,3.605544090E0
3.349838958E0,4.206939220E0,-1.608955765E1,3.576798439E0
3.352370417E0,3.905108929E0,-1.676508331E1,3.334855080E0
3.354901823E0,3.665561199E0,-1.742623520E1,2.930019379E0
3.357433229E0,3.399662733E0,-1.798198509E1,2.549138069E0
3.359964635E0,3.208024502E0,-1.851857376E1,1.988596201E0
3.362496094E0,2.930149078E0,-1.872698021E1,1.648438096E0
3.365027500E0,2.841516256E0,-1.875333023E1,1.305884719E0
3.367558906E0,2.750488281E0,-1.855929565E1,1.219647527E0
3.370090312E0,2.736115217E0,-1.814727402E1,1.286720872E0
3.372621719E0,2.906194210E0,-1.754600906E1,1.531059742E0
3.375172552E0,3.090646029E0,-1.653032494E1,1.871217608E0
3.377703958E0,3.049922943E0,-1.499482441E1,2.156279564E0
3.380235365E0,2.812770605E0,-1.318863392E1,2.443737030E0
3.382766823E0,2.642691612E0,-1.149023914E1,2.683284998E0
3.385298229E0,2.513335705E0,-1.010086155E1,2.661725521E0
3.387829635E0,2.338465691E0,-8.919890404E0,2.297612667E0
3.390361042E0,2.165991545E0,-7.882648945E0,1.830494523E0
3.392892500E0,1.861765623E0,-6.991530895E0,1.389726520E0
3.395423906E0,1.535980463E0,-6.270492077E0,1.092687130E0
3.397955312E0,1.171867728E0,-5.748277664E0,9.824951291E-1
3.400486719E0,8.269189596E-1,-5.405724049E0,9.345855713E-1
3.403018125E0,5.322750807E-1,-5.190131187E0,1.107060075E0
3.405544375E0,4.699926376E-1,-5.077543736E0,1.222043037E0
3.408075781E0,4.196875691E-1,-5.084730148E0,1.346607924E0
3.410607187E0,3.693825006E-1,-5.096707344E0,1.384935498E0
3.413138646E0,3.406367898E-1,-5.180549145E0,1.475963831E0
3.415670052E0,3.334503174E-1,-5.240436077E0,1.478359222E0
3.418201458E0,3.142865300E-1,-5.405724049E0,1.349003434E0
3.420732865E0,4.053147435E-1,-5.630898952E0,1.190901756E0
3.423264323E0,4.771790504E-1,-5.877633572E0,1.018427372E0
3.425795729E0,5.801846981E-1,-6.069271564E0,8.291845322E-1
3.428327135E0,7.550544739E-1,-6.201023102E0,7.764840126E-1
3.430858542E0,8.436872959E-1,-6.356729031E0,8.387664557E-1
3.433389948E0,1.018557191E0,-6.404638767E0,9.465630054E-1
3.435928333E0,1.236545801E0,-6.416615963E0,1.193297267E0
3.438459740E0,1.282059789E0,-6.517226219E0,1.406494856E0
3.440991146E0,1.210195541E0,-6.821452141E0,1.756234765E0
3.443522604E0,1.193427205E0,-7.216706276E0,2.058064938E0
3.446054010E0,1.164681435E0,-7.710174084E0,2.177839041E0
3.448585417E0,1.207800031E0,-8.184478760E0,2.240121365E0
3.451116823E0,1.200613499E0,-8.795325279E0,2.046087742E0
3.453648281E0,1.186240673E0,-9.492410660E0,1.909545422E0
3.456179687E0,1.109585404E0,-1.019668102E1,1.708325148E0
3.458711094E0,9.874160290E-1,-1.100395679E1,1.411285758E0
3.461242500E0,1.090421557E0,-1.174895096E1,1.164551497E0
3.463773906E0,1.262896061E0,-1.259215927E1,8.387664557E-1
3.466311250E0,1.401833773E0,-1.351920986E1,2.830154300E-1
3.468842656E0,9.155516624E-1,-1.437918663E1,2.854109108E-1
3.471374062E0,5.729981661E-1,-1.518406677E1,5.273543000E-1
3.473905521E0,6.424670219E-1,-1.600571632E1,4.650717676E-1
3.476436927E0,8.484783173E-1,-1.673873329E1,1.273093075E-1
3.478968333E0,1.210195541E0,-1.719626999E1,-3.613683283E-1
3.481499740E0,1.562330723E0,-1.757475471E1,-7.470402718E-1
3.484031198E0,1.991121531E0,-1.779992867E1,-1.115944028E0
3.486562604E0,2.362420559E0,-1.798677826E1,-1.436938047E0
3.489094010E0,2.520522356E0,-1.806343079E1,-1.769909620E0
3.491625417E0,2.546872616E0,-1.782148933E1,-1.844169497E0
3.494156823E0,2.532499552E0,-1.756277847E1,-1.396214962E0
3.496696354E0,2.537290573E0,-1.693755722E1,-8.189046383E-1
3.499227760E0,2.551663637E0,-1.579970551E1,-1.625435799E-1
3.501759167E0,2.007889748E0,-1.418515301E1,5.776592493E-1
3.504290625E0,1.310805559E0,-1.237177563E1,1.356189728E0
3.506822031E0,1.253314137E0,-1.071649933E1,2.024528265E0
3.509353437E0,1.521607876E0,-9.384613991E0,2.546742439E0
3.511884896E0,1.679709196E0,-8.431213379E0,3.033024788E0
3.514416250E0,1.612635851E0,-7.777247906E0,3.375578165E0
3.516947708E0,1.648567915E0,-7.305338383E0,3.531284332E0
3.519479115E0,1.514421225E0,-7.049022675E0,3.615126133E0
3.522010521E0,1.399438262E0,-6.950808048E0,3.624707937E0
3.524541927E0,1.315596581E0,-6.840616226E0,3.536075354E0
3.527076979E0,1.253314137E0,-6.804683685E0,3.483374834E0
3.529608385E0,1.224568367E0,-6.838220596E0,3.461815596E0
3.532139792E0,1.169472456E0,-6.845407009E0,3.452233553E0
3.534671198E0,1.092817068E0,-6.828638554E0,3.524097681E0
3.537202604E0,1.042512059E0,-6.831034184E0,3.516911507E0
3.539734062E0,9.826250076E-1,-6.823847771E0,3.567216635E0
3.542265469E0,9.371109009E-1,-6.792706490E0,3.679804087E0
3.544796875E0,9.419019222E-1,-6.696887016E0,3.691781282E0
3.547328281E0,8.915967941E-1,-6.665746212E0,3.603148699E0
3.549859740E0,8.221279383E-1,-6.586695194E0,3.583984852E0
3.552391146E0,8.317098618E-1,-6.486084938E0,3.531284332E0
3.554922552E0,9.083651304E-1,-6.368706703E0,3.399533033E0
3.557464531E0,9.514837265E-1,-6.253723621E0,3.325273275E0
3.559995937E0,9.514837265E-1,-6.066876411E0,3.155194283E0
3.562527344E0,9.874160290E-1,-5.765046120E0,2.977928877E0
3.565058802E0,7.814047337E-1,-5.566221714E0,3.006674528E0
3.567590208E0,6.352806091E-1,-5.412910461E0,3.001883507E0
3.570121615E0,2.855407596E-1,-5.472797394E0,3.179148912E0
3.572653073E0,2.203816175E-2,-5.630898952E0,3.251013279E0
3.575184479E0,-1.911594272E-1,-5.853678703E0,3.327668428E0
3.577715885E0,-2.750011981E-1,-6.133949757E0,3.406719446E0
3.580247292E0,-2.103232741E-1,-6.488480568E0,3.397137642E0
3.582778698E0,-3.181198239E-1,-6.955598831E0,3.262990713E0
3.585310104E0,-3.756113052E-1,-7.326898098E0,2.999488115E0
3.587884687E0,-3.995660841E-1,-7.564050198E0,2.597047806E0
3.590416146E0,-3.564474583E-1,-7.913790226E0,2.197002888E0
3.592947552E0,-1.480408311E-1,-8.095846176E0,1.962245941E0
3.595478958E0,-9.103119373E-3,-8.150942802E0,2.007760048E0
3.598010365E0,4.599291086E-2,-8.263529778E0,2.079624176E0
3.600541771E0,1.178572774E-1,-8.328207970E0,2.050878763E0
3.603073229E0,2.376312017E-1,-8.431213379E0,2.029319286E0
3.605604635E0,3.957327604E-1,-8.488704681E0,1.962245941E0
3.608136042E0,4.196875691E-1,-8.625247002E0,1.926313639E0
3.610667448E0,4.987384081E-1,-8.795325279E0,1.852053881E0
3.613198906E0,6.783993244E-1,-8.836048126E0,1.775398493E0
3.615730312E0,8.460828066E-1,-8.802512169E0,1.693952322E0
3.618232240E0,9.059696198E-1,-8.941449165E0,1.667602062E0
3.620763646E0,1.138331175E0,-8.931868553E0,1.552618980E0
3.623295052E0,1.382669926E0,-8.797721863E0,1.468777299E0
3.625826510E0,1.533585072E0,-8.682738304E0,1.487941146E0
3.628357917E0,1.634195328E0,-8.601292610E0,1.552618980E0
3.630889323E0,1.713246107E0,-8.400071144E0,1.509500384E0
3.633420781E0,1.794692278E0,-8.251552582E0,1.442427039E0
3.635952187E0,1.787505865E0,-8.117405891E0,1.440031528E0
3.638483594E0,1.809065104E0,-7.942535877E0,1.408890367E0
3.641015000E0,1.785110235E0,-7.861090183E0,1.375353694E0
3.643546406E0,1.813856125E0,-7.748502254E0,1.413681269E0
3.646077812E0,1.777923822E0,-7.571237087E0,1.384935498E0
3.648616562E0,1.732409716E0,-7.494581699E0,1.401703954E0
3.651147969E0,1.634195328E0,-7.350852966E0,1.456799865E0
3.653679375E0,1.646172523E0,-7.262219906E0,1.540641665E0
3.656210833E0,1.545562506E0,-7.173587322E0,1.610110521E0
3.658742240E0,1.464116096E0,-7.130468369E0,1.681974888E0
3.661273646E0,1.399438262E0,-7.106513977E0,1.816121697E0
3.663805052E0,1.358715177E0,-7.128073215E0,1.926313639E0
3.666336510E0,1.282059789E0,-7.168796539E0,2.074833393E0
3.668867917E0,1.219777346E0,-7.257429123E0,2.189816236E0
3.671399323E0,1.095212579E0,-7.331688881E0,2.230539560E0
3.673930781E0,1.006579757E0,-7.293361664E0,2.249703169E0
3.676462135E0,8.173370361E-1,-7.324502468E0,2.304799318E0
3.679010156E0,6.688172817E-1,-7.389180660E0,2.417386770E0
3.681541615E0,4.604107141E-1,-7.468230724E0,2.630584240E0
3.684073021E0,4.125011563E-1,-7.444276333E0,2.836595535E0
3.686604427E0,4.580152035E-1,-7.221497059E0,2.850968599E0
3.689135885E0,3.693825006E-1,-7.075372696E0,2.934810162E0
3.691667292E0,2.184674144E-1,-6.974762440E0,2.922832727E0
3.694198698E0,2.040945292E-1,-6.955598831E0,2.867736816E0
3.696730104E0,1.753487587E-1,-6.910084724E0,2.834199905E0
3.699261510E0,8.671605587E-2,-6.886129856E0,2.860550165E0
3.701792969E0,6.276130676E-2,-6.871757030E0,2.836595535E0
3.704324375E0,-5.701267719E-2,-6.981948853E0,2.776708603E0
3.706855781E0,-1.073176861E-1,-7.089745522E0,2.721612453E0
3.709388698E0,-1.672046483E-1,-7.262219906E0,2.738380909E0
3.711920156E0,-1.480408311E-1,-7.312525272E0,2.795872450E0
3.714451562E0,-2.007413805E-1,-7.461045265E0,2.896482468E0
3.716982969E0,-1.911594272E-1,-7.535304546E0,2.961160421E0
3.719514375E0,-2.845831215E-1,-7.664660931E0,2.999488115E0
3.722045833E0,-3.205152750E-1,-7.863484859E0,3.001883507E0
3.724577240E0,-1.767866015E-1,-7.906604290E0,3.028233767E0
3.727108646E0,-1.911594272E-1,-8.004817963E0,3.097702742E0
3.729640104E0,-2.175097167E-1,-8.143755913E0,3.150403261E0
3.732171510E0,-1.839730144E-1,-8.359348297E0,3.176753521E0
3.734702917E0,-1.815775335E-1,-8.555777550E0,3.193521738E0
3.737234323E0,-9.294486046E-2,-8.670760155E0,3.186335564E0
3.739767969E0,9.390246868E-2,-8.776161194E0,3.258199692E0
3.742299375E0,2.759588361E-1,-8.883958817E0,3.207894802E0
3.744830781E0,4.292694330E-1,-9.130692482E0,3.136030197E0
3.747362187E0,2.687724233E-1,-9.226511955E0,3.356414318E0
3.749893646E0,2.735633850E-1,-9.216930389E0,3.449837923E0
3.752425052E0,4.029192328E-1,-9.255257607E0,3.543261766E0
3.754956510E0,5.394614935E-1,-9.351076126E0,3.600753307E0
3.757487917E0,7.670319080E-1,-9.478037834E0,3.555238962E0
3.760019323E0,1.100003481E0,-9.430127144E0,3.583984852E0
3.762550729E0,1.294037223E0,-9.422941208E0,3.624707937E0
3.765082135E0,1.409020185E0,-9.377428055E0,3.651058197E0
3.767613542E0,1.411415696E0,-9.293585777E0,3.679804087E0
3.770151979E0,1.516816854E0,-9.099551201E0,3.749272823E0
3.772683385E0,1.612635851E0,-8.967800140E0,3.773227453E0
3.775214792E0,1.569517374E0,-8.855212212E0,3.878628731E0
3.777746250E0,1.526398420E0,-8.704298019E0,3.972052336E0
3.780277656E0,1.564726353E0,-8.622851372E0,4.000797749E0
3.782809062E0,1.650963545E0,-8.462354660E0,4.058289051E0
3.785340469E0,1.694082022E0,-8.138964653E0,4.149317741E0
3.787871927E0,1.737200737E0,-7.856298923E0,4.209204197E0
3.790403333E0,1.785110235E0,-7.633518696E0,4.326582909E0
3.792934740E0,1.761155605E0,-7.487394810E0,4.494266510E0
3.795466146E0,1.737200737E0,-7.377202988E0,4.537385464E0
3.797997552E0,1.818647146E0,-7.207124233E0,4.585294724E0
3.800535677E0,1.921652555E0,-7.116096020E0,4.681113720E0
3.803067083E0,2.017471790E0,-6.931643963E0,4.743396282E0
3.805598542E0,2.213901043E0,-6.701678276E0,4.779328346E0
3.808129948E0,2.316906452E0,-6.500458241E0,4.918266296E0
3.810661354E0,2.333675146E0,-6.589090347E0,5.054808140E0
3.813192760E0,2.412725687E0,-6.615440845E0,5.026062965E0
3.815724167E0,2.633109808E0,-6.533994675E0,4.992525578E0
3.818255625E0,2.733719826E0,-6.404638767E0,5.078763485E0
3.820787031E0,2.716951609E0,-6.464525700E0,5.038040161E0
3.823318437E0,2.908589840E0,-6.442966461E0,5.042830944E0
3.825849844E0,3.085855246E0,-6.289656162E0,5.150627613E0
3.828381250E0,3.208024502E0,-6.133949757E0,5.229678154E0
3.830924896E0,3.059504747E0,-6.184254646E0,5.263215065E0
3.833456354E0,3.045131922E0,-6.095622063E0,5.287169933E0
3.835987760E0,3.109810114E0,-5.966266155E0,5.303938389E0
3.838519167E0,3.224792957E0,-5.781814575E0,5.330288410E0
3.841050573E0,2.973267794E0,-5.745882034E0,5.112299919E0
3.843582031E0,2.946917534E0,-5.784210205E0,4.947011948E0
3.846113437E0,3.222397566E0,-5.616526604E0,4.731418610E0
3.848644844E0,2.968476772E0,-5.863260746E0,4.427193165E0
3.851176250E0,3.002013445E0,-5.999803066E0,4.118176460E0
3.853707708E0,3.047527552E0,-6.095622063E0,3.799577951E0
3.856239115E0,2.970872164E0,-6.371101856E0,3.593566656E0
3.858770521E0,2.999618053E0,-6.854988575E0,3.327668428E0
3.861341406E0,2.843911886E0,-7.173587322E0,3.040211201E0
3.863872812E0,2.628318787E0,-7.810784817E0,2.989906311E0
3.866404271E0,2.601968527E0,-8.045541763E0,2.910855293E0
3.868935677E0,2.484590054E0,-7.748502254E0,2.994697094E0
3.871467083E0,2.338465691E0,-7.353248119E0,3.128844023E0
3.873998490E0,2.280974388E0,-6.728028774E0,3.370787382E0
3.876529948E0,2.103708982E0,-6.402243614E0,3.665431023E0
3.879061354E0,1.988726139E0,-6.121972561E0,4.190040588E0
3.881592760E0,1.936025620E0,-6.325588226E0,4.513430119E0
3.884124167E0,1.670127392E0,-6.093226433E0,5.030853748E0
3.886655625E0,1.567121744E0,-6.006989479E0,5.394966125E0
3.889187031E0,1.581494570E0,-5.724323273E0,5.773451805E0
3.891688177E0,1.200613499E0,-5.805768967E0,6.175892353E0
3.894219583E0,1.114376307E0,-5.530289173E0,6.822671890E0
3.896750990E0,3.142865300E-1,-6.292050838E0,7.198761940E0
3.899282448E0,-5.222171545E-2,-6.761565208E0,7.421541214E0
3.901813854E0,-3.061424196E-1,-7.010694981E0,7.812004089E0
3.904345260E0,-6.726506352E-1,-7.578423023E0,7.831167698E0
3.906876667E0,-9.625035524E-1,-8.249156952E0,7.771281242E0
3.909408125E0,-9.888538122E-1,-8.321022034E0,7.771281242E0
3.911939531E0,-1.012808561E0,-8.323416710E0,7.483823776E0
3.914470937E0,-1.137373447E0,-8.436004639E0,6.944840908E0
3.917002344E0,-1.077486515E0,-8.309043884E0,6.511259079E0
3.919533750E0,-7.636787891E-1,-7.736525059E0,5.986649990E0
3.922060469E0,-4.378937483E-1,-7.104118347E0,5.294356346E0
3.924591875E0,-7.857197523E-2,-6.790310860E0,4.729023457E0
3.927123281E0,3.094955087E-1,-6.694491386E0,4.118176460E0
3.929654740E0,6.352806091E-1,-6.414220333E0,3.722922564E0
3.932186146E0,9.898114204E-1,-5.992616653E0,3.303713799E0
3.934717552E0,1.569517374E0,-5.817746639E0,2.985115290E0
3.937248958E0,1.936025620E0,-6.184254646E0,2.719217062E0
3.939780417E0,2.175573349E0,-6.967576027E0,2.661725521E0
3.942311823E0,2.561245203E0,-7.458649635E0,2.575488329E0
3.944843229E0,2.908589840E0,-7.789225101E0,2.484460354E0
3.947374635E0,3.167301416E0,-7.906604290E0,2.391036510E0
3.949906042E0,3.275098085E0,-7.880254269E0,2.417386770E0
3.952455885E0,3.323007584E0,-7.805993557E0,2.419782162E0
3.954987292E0,3.411640167E0,-7.786830425E0,2.316776752E0
3.957518698E0,3.596092224E0,-7.714965343E0,2.223352909E0
3.960050156E0,3.770962238E0,-7.571237087E0,2.218562126E0
3.962581562E0,3.957809448E0,-7.408344269E0,2.218562126E0
3.965112969E0,4.159029484E0,-7.262219906E0,2.156279564E0
3.967644375E0,4.161425114E0,-7.252637863E0,2.163465977E0
3.970175833E0,4.017696381E0,-7.319711685E0,2.259285212E0
3.972707240E0,3.699097633E0,-7.310129642E0,2.424573183E0
3.975238646E0,3.375708103E0,-7.396367073E0,2.551533461E0
3.977770052E0,3.105019093E0,-7.669451237E0,2.728799105E0
3.980301458E0,2.920567036E0,-8.043145180E0,2.793477058E0
3.982855521E0,2.757674456E0,-8.443190575E0,2.838990927E0
3.985386927E0,2.704973936E0,-8.907913208E0,2.862945795E0
3.987918333E0,2.573222876E0,-9.398986816E0,2.901273489E0
3.990449740E0,2.271392584E0,-9.803822517E0,2.896482468E0
3.992981146E0,2.110895395E0,-1.017033100E1,2.915646315E0
3.995512604E0,2.031844616E0,-1.064463520E1,3.078538656E0
3.998044010E0,2.142036438E0,-1.099437523E1,3.253408670E0
4.000575417E0,2.242646694E0,-1.126985550E1,3.464210987E0
4.003106875E0,2.477403641E0,-1.166031837E1,3.835510015E0
4.005638281E0,2.278578758E0,-1.212743664E1,3.940911055E0
4.008169687E0,2.192341805E0,-1.240291691E1,3.813950777E0
4.010701094E0,2.386375427E0,-1.255862236E1,3.653453827E0
4.013225990E0,2.348047733E0,-1.272151566E1,3.603148699E0
4.015757396E0,2.336070299E0,-1.273349285E1,3.473792791E0
4.018288802E0,2.340861320E0,-1.292752647E1,3.440256119E0
4.020820260E0,2.360025167E0,-1.325331116E1,3.274967909E0
4.023351615E0,2.367211580E0,-1.362940121E1,3.061770439E0
4.025883073E0,2.439075947E0,-1.397914124E1,2.961160421E0
4.028414479E0,2.594782114E0,-1.435044098E1,2.870132208E0
4.030945937E0,2.884634972E0,-1.472892666E1,2.783895016E0
4.033477344E0,3.052318573E0,-1.527509594E1,2.616211414E0
4.036008750E0,3.095437050E0,-1.588115120E1,2.553929090E0
4.038540156E0,3.148137569E0,-1.642013359E1,2.467691660E0
4.041071562E0,3.143346548E0,-1.687048340E1,2.295217514E0
4.043645573E0,3.042736530E0,-1.724657440E1,2.149093390E0
4.046177031E0,2.740906239E0,-1.754840279E1,1.801748753E0
4.048708437E0,2.336070299E0,-1.783586121E1,1.360980749E0
4.051239844E0,1.895302296E0,-1.809936333E1,9.657268524E-1
4.053771302E0,1.567121744E0,-1.831256104E1,4.243486524E-1
4.056302708E0,1.411415696E0,-1.859762383E1,-6.672444195E-2
4.058834115E0,1.219777346E0,-1.880603218E1,-4.092778862E-1
4.061365521E0,1.013766289E0,-1.901204109E1,-7.446448803E-1
4.063896927E0,1.191031694E0,-1.920128441E1,-1.266859055E0
4.066428385E0,1.432975054E0,-1.953904724E1,-1.899265528E0
4.068959792E0,1.375483513E0,-1.979057121E1,-2.213073254E0
4.071491198E0,1.236545801E0,-2.003011894E1,-2.663423300E0
4.073992187E0,1.191031694E0,-2.035111427E1,-2.898180008E0
4.076523594E0,1.286850810E0,-2.053556633E1,-2.840688467E0
4.079055000E0,1.358715177E0,-2.067689896E1,-2.747264862E0
4.081586458E0,1.401833773E0,-2.053077507E1,-2.747264862E0
4.084117865E0,1.401833773E0,-2.033913803E1,-2.675400496E0
4.086649271E0,1.775528431E0,-2.003730583E1,-2.596349716E0
4.089180677E0,2.376793623E0,-1.963007545E1,-2.622699976E0
4.091712083E0,2.750488281E0,-1.891143227E1,-2.581976891E0
4.094243542E0,3.143346548E0,-1.778555679E1,-2.605931759E0
4.096774948E0,3.584114552E0,-1.645367241E1,-2.514903545E0
4.099306354E0,3.770962238E0,-1.530384064E1,-2.402316093E0
4.101837760E0,4.127888680E0,-1.410131073E1,-2.107672215E0
4.104409896E0,4.374622345E0,-1.274786568E1,-1.762723207E0
4.106941354E0,4.916000366E0,-1.162438583E1,-1.465683818E0
4.109472760E0,5.581943512E0,-1.053683853E1,-1.401005983E0
4.112004167E0,6.070621490E0,-9.482828140E0,-1.300395846E0
4.114535573E0,6.468271255E0,-8.469540596E0,-1.111153126E0
4.117066979E0,6.499412060E0,-7.674242496E0,-8.955599666E-1
4.119598437E0,6.458689213E0,-7.027462959E0,-5.146788955E-1
4.122129844E0,6.482643604E0,-6.387870789E0,-9.307470173E-2
4.124661250E0,6.604813099E0,-5.618922234E0,9.856358171E-2
4.127192656E0,6.602417469E0,-4.802063465E0,-1.402391400E-2
4.129724115E0,6.540134907E0,-4.126538754E0,1.201228872E-1
4.132255521E0,6.408383846E0,-3.671398163E0,2.686425447E-1
4.134798542E0,5.833468914E0,-3.458200216E0,2.806199193E-1
4.137330000E0,5.359164238E0,-3.458200216E0,3.884164691E-1
4.139861406E0,5.069311619E0,-3.537250996E0,3.668571413E-1
4.142392812E0,4.997447014E0,-3.604324341E0,5.656818748E-1
4.144924219E0,5.002237797E0,-3.738471031E0,8.411619663E-1
4.147455625E0,5.076498032E0,-3.812731266E0,1.162155986E0
4.149987083E0,5.141175747E0,-3.951668739E0,1.631669879E0
4.152518490E0,5.356769085E0,-4.116957188E0,1.861635804E0
4.155049896E0,5.409469604E0,-4.308595181E0,2.156279564E0
4.157581354E0,5.483728886E0,-4.588866234E0,2.587465763E0
4.160112760E0,5.821491718E0,-4.842786789E0,2.726403475E0
4.162644167E0,5.931683540E0,-4.893092155E0,2.817431688E0
4.165144271E0,5.871796608E0,-5.166176319E0,2.867736816E0
4.167675677E0,5.763999939E0,-5.434470177E0,2.757544756E0
4.170207083E0,5.464565754E0,-5.530289173E0,2.726403475E0
4.172738542E0,5.225017548E0,-5.726718426E0,2.587465763E0
4.175269948E0,4.817786217E0,-5.815351009E0,2.333544970E0
4.177801354E0,4.314735413E0,-5.911170006E0,2.307194710E0
4.180332760E0,3.926668167E0,-6.066876411E0,2.146697760E0
4.182864219E0,3.763775349E0,-6.143531322E0,1.813726306E0
4.185395625E0,3.416431189E0,-6.105204105E0,1.705929637E0
4.187927031E0,3.013990879E0,-6.253723621E0,1.629274368E0
4.190458437E0,2.803188801E0,-6.138740540E0,1.416076779E0
4.192989844E0,2.367211580E0,-6.227373600E0,1.430449605E0
4.195528281E0,2.180364370E0,-6.275282860E0,1.205274701E0
4.198059687E0,1.926443577E0,-6.232164383E0,1.121432900E0
4.200591094E0,1.648567915E0,-6.423802376E0,1.078314304E0
4.203122552E0,1.502443790E0,-6.454944134E0,1.008845448E0
4.205653958E0,1.365901470E0,-6.529203415E0,1.063941360E0
4.208185365E0,1.176658750E0,-6.617836475E0,9.872861505E-1
4.210716771E0,1.107189894E0,-6.639395714E0,9.561448693E-1
4.213248177E0,1.145517588E0,-6.725633144E0,9.920771122E-1
4.215779635E0,1.138331175E0,-6.888525486E0,1.104664564E0
4.218311042E0,1.248523116E0,-7.022672176E0,1.135805726E0
4.220842448E0,1.344342232E0,-7.084954739E0,1.123828411E0
4.223373854E0,1.248523116E0,-7.173587322E0,1.114246488E0
4.225912292E0,1.210195541E0,-7.403553486E0,1.061545968E0
4.228444115E0,1.241336703E0,-7.484999180E0,1.023218393E0
4.230975990E0,1.353924155E0,-7.528117657E0,1.023218393E0
4.233507812E0,1.332364917E0,-7.571237087E0,9.896816015E-1
4.236039687E0,1.226963758E0,-7.439485550E0,8.794896007E-1
4.238571510E0,1.111980915E0,-7.314920425E0,7.597156763E-1
4.241103385E0,9.754384756E-1,-7.152028084E0,5.345407128E-1
4.243635208E0,7.766139507E-1,-7.092141151E0,4.435124695E-1
4.246167031E0,6.089303493E-1,-7.051417828E0,5.033994317E-1
4.248698906E0,6.161167622E-1,-6.804683685E0,6.135914326E-1
4.251230729E0,7.047495842E-1,-6.486084938E0,8.100206852E-1
4.253762604E0,7.382861376E-1,-6.385475159E0,8.267890811E-1
4.256296771E0,7.766139507E-1,-6.260910034E0,7.908568978E-1
4.258828594E0,7.215179205E-1,-6.186650276E0,8.052297831E-1
4.261360469E0,4.244785309E-1,-6.066876411E0,9.537494183E-1
4.263892292E0,1.585804224E-1,-5.913565636E0,1.123828411E0
4.266424167E0,-3.066241741E-2,-5.745882034E0,1.322653174E0
4.268955990E0,-1.624137163E-1,-5.592571735E0,1.396912932E0
4.271487865E0,-2.893740535E-1,-5.477588654E0,1.502313972E0
4.274019740E0,-5.097581148E-1,-5.384165287E0,1.547828197E0
4.276551562E0,-7.085828185E-1,-5.285950661E0,1.650833607E0
4.279083385E0,-8.211703300E-1,-5.192526340E0,1.849658370E0
4.281615208E0,-7.612833381E-1,-5.180549145E0,2.000573635E0
4.284147083E0,-6.654642224E-1,-5.250018120E0,2.141906738E0
4.286680000E0,-5.361083746E-1,-5.247622490E0,2.381454468E0
4.289211823E0,-3.205152750E-1,-5.149407864E0,2.563511133E0
4.291743698E0,-2.007413805E-1,-5.178153515E0,2.680889606E0
4.294275521E0,-1.001312733E-1,-5.240436077E0,2.798267841E0
4.296807396E0,2.443361282E-2,-5.192526340E0,2.853363752E0
4.299339219E0,6.515675783E-2,-5.190131187E0,2.941996574E0
4.301871094E0,2.088854909E-1,-5.190131187E0,3.006674528E0
4.304402917E0,4.077101350E-1,-5.214086056E0,3.009069920E0
4.306934740E0,5.083203316E-1,-5.235645294E0,3.136030197E0
4.309466615E0,5.490434170E-1,-5.247622490E0,3.140821218E0
4.311998437E0,6.113258600E-1,-5.254808903E0,3.210290194E0
4.314530312E0,7.167268991E-1,-5.202108383E0,3.303713799E0
4.317099323E0,8.628511429E-1,-5.178153515E0,3.334855080E0
4.319631198E0,9.323199987E-1,-5.158989906E0,3.375578165E0
4.322163021E0,9.730432034E-1,-5.096707344E0,3.416301250E0
4.324694896E0,1.107189894E0,-5.070356846E0,3.490561247E0
4.327226719E0,1.217381954E0,-5.070356846E0,3.538470745E0
4.329758594E0,1.243732095E0,-5.125452995E0,3.555238962E0
4.332290469E0,1.363506198E0,-5.103894234E0,3.605544090E0
4.334822292E0,1.500048399E0,-5.132639408E0,3.624707937E0
4.337354115E0,1.660545588E0,-5.230854511E0,3.677408457E0
4.339885937E0,1.672522783E0,-5.429678917E0,3.713340759E0
4.342417812E0,1.722827673E0,-5.621317387E0,3.694176674E0
4.344949635E0,1.948002815E0,-5.815351009E0,3.567216635E0
4.347482500E0,2.211505413E0,-6.002198696E0,3.538470745E0
4.350014375E0,2.400748253E0,-6.172277451E0,3.471397161E0
4.352546250E0,2.645087004E0,-6.351938248E0,3.358809710E0
4.355078073E0,3.097832441E0,-6.555553913E0,3.289340973E0
4.357609896E0,3.543391705E0,-6.725633144E0,3.306109190E0
4.360141771E0,4.034464359E0,-6.716051102E0,3.457024574E0
4.362673594E0,4.633334160E0,-6.735215187E0,3.564821005E0
4.365205469E0,5.373537064E0,-6.864570618E0,3.624707937E0
4.367737292E0,6.223932266E0,-7.089745522E0,3.576798439E0
4.370269115E0,7.067140579E0,-7.518536091E0,3.437860727E0
4.372800990E0,7.886394024E0,-7.961699963E0,3.370787382E0
4.375332812E0,8.662528992E0,-8.481518745E0,3.308504820E0
4.377867240E0,9.486574173E0,-8.986964226E0,3.337250471E0
4.380399115E0,1.032259560E1,-9.437314987E0,3.524097681E0
4.382930937E0,1.113466263E1,-9.818195343E0,3.789995909E0
4.385462812E0,1.195870781E1,-1.023500824E1,4.103803635E0
4.387994635E0,1.265818787E1,-1.062547112E1,4.441565990E0
4.390526510E0,1.316602898E1,-1.096323395E1,4.788910389E0
4.393058333E0,1.346546364E1,-1.118601322E1,5.287169933E0
4.395590208E0,1.347265053E1,-1.124829578E1,5.905203342E0
4.398122031E0,1.315405083E1,-1.108540344E1,6.542400837E0
4.400653854E0,1.257195091E1,-1.075722218E1,7.102942944E0
4.403185729E0,1.205931854E1,-1.051527977E1,7.639529705E0
4.405717552E0,1.172395134E1,-1.024459076E1,8.018014908E0
4.408215365E0,1.143409729E1,-1.007690620E1,8.264749527E0
4.410747187E0,1.125443649E1,-9.830172539E0,8.453992844E0
4.413279062E0,1.116580391E1,-9.487619400E0,8.554602623E0
4.415810885E0,1.105321693E1,-9.173811913E0,8.607302666E0
4.418342760E0,1.093344307E1,-8.905517578E0,8.561788559E0
4.420874583E0,1.086876488E1,-8.606082916E0,8.374941826E0
4.423406458E0,1.075378227E1,-8.321022034E0,8.204862595E0
4.425938281E0,1.065077591E1,-8.055122375E0,7.994060993E0
4.428470104E0,1.045913887E1,-7.861090183E0,7.807213306E0
4.431001979E0,1.016928482E1,-7.657474041E0,7.706603050E0
4.433533802E0,9.836313248E0,-7.446671963E0,7.455077648E0
4.436065677E0,9.373985291E0,-7.267011166E0,7.253857613E0
4.438599323E0,8.902076721E0,-7.125678062E0,6.923281670E0
4.441131146E0,8.375072479E0,-7.058604717E0,6.671756268E0
4.443663021E0,7.792970181E0,-6.986740112E0,6.228592873E0
4.446194844E0,7.270756245E0,-6.845407009E0,5.797406673E0
4.448726719E0,6.806033611E0,-6.775938034E0,5.327892780E0
4.451258594E0,6.394011021E0,-6.799892426E0,4.867961407E0
4.453790417E0,5.912519932E0,-6.926853180E0,4.451147556E0
4.456322240E0,5.452588081E0,-7.123282433E0,4.003193378E0
4.458854062E0,4.896837234E0,-7.434694767E0,3.641476154E0
4.461385937E0,4.276408195E0,-7.885043621E0,3.318086863E0
4.463917760E0,3.735030174E0,-8.512660027E0,3.006674528E0
4.466449635E0,3.133764744E0,-9.240884781E0,2.728799105E0
4.469018958E0,2.589991093E0,-1.014877129E1,2.477273703E0
4.471550833E0,2.106104612E0,-1.122194576E1,2.168256998E0
4.474082656E0,1.521607876E0,-1.220169640E1,1.796957850E0
4.476614531E0,9.035742283E-1,-1.309281445E1,1.459195375E0
4.479146354E0,3.574051261E-1,-1.367252064E1,1.099873662E0
4.481678229E0,-1.815775335E-1,-1.422348022E1,7.788795233E-1
4.484210052E0,-9.457352161E-1,-1.493733215E1,6.638965011E-1
4.486741927E0,-1.647610307E0,-1.583084679E1,6.567100883E-1
4.489273750E0,-2.229711771E0,-1.654230309E1,6.303598285E-1
4.491805573E0,-2.711202860E0,-1.711003113E1,6.878513098E-1
4.494337448E0,-2.950750828E0,-1.758673096E1,9.513539672E-1
4.496869271E0,-3.415473461E0,-1.822632599E1,1.222043037E0
4.499368073E0,-4.067043781E0,-1.916535187E1,1.243602276E0
4.501899896E0,-4.237122536E0,-1.980254936E1,1.372958183E0
4.504431771E0,-4.203585625E0,-2.020499039E1,1.535850644E0
4.506963646E0,-3.813122988E0,-2.036548805E1,1.533455253E0
4.509495469E0,-3.001055717E0,-2.027685356E1,1.406494856E0
4.512027292E0,-1.973395467E0,-2.005407524E1,1.128619432E0
4.514559167E0,-3.037469387E-1,-1.968277550E1,7.118060589E-1
4.517090990E0,1.703664064E0,-1.896652794E1,3.333204687E-1
4.519622812E0,3.708679676E0,-1.823111534E1,6.502687931E-2
4.522154687E0,5.318440914E0,-1.745258522E1,-1.625435799E-1
4.524686510E0,6.616790295E0,-1.655428123E1,-3.637637794E-1
4.527218385E0,7.316269875E0,-1.484870052E1,-7.853679657E-1
4.529751302E0,6.923411369E0,-1.232865620E1,-1.259672761E0
4.532283125E0,6.314960003E0,-9.818195343E0,-1.530361891E0
4.534815000E0,6.034688950E0,-7.743710995E0,-1.513593435E0
4.537346823E0,5.972406387E0,-6.050107956E0,-1.305186868E0
4.539878698E0,5.747231960E0,-4.643961906E0,-8.716052175E-1
4.542410521E0,5.213039875E0,-3.791171551E0,-3.086677790E-1
4.544942396E0,4.444091320E0,-3.436640739E0,2.351058424E-1
4.547474219E0,3.605674267E0,-3.364776611E0,6.351507902E-1
4.550006042E0,2.697787523E0,-3.616302013E0,8.243935704E-1
4.552537917E0,1.782714844E0,-4.057070255E0,1.023218393E0
4.555069792E0,1.294037223E0,-4.660730362E0,1.142992258E0
4.557601615E0,1.346737742E0,-5.381769657E0,1.090291619E0
4.560135625E0,1.471302748E0,-5.927938461E0,1.214856625E0
4.562667448E0,1.924047947E0,-6.354333401E0,1.358585238E0
4.565199323E0,2.578013897E0,-6.711259842E0,1.454404354E0
4.567731146E0,2.958894730E0,-6.922061920E0,1.734675407E0
4.570263021E0,3.306239367E0,-6.989135742E0,2.144302368E0
4.572794844E0,3.689515591E0,-7.056209087E0,2.520392179E0
4.575326719E0,4.017696381E0,-7.269406319E0,2.896482468E0
4.577858542E0,4.329108715E0,-7.568841457E0,3.047397852E0
4.580390365E0,4.508769512E0,-7.777247906E0,2.963556051E0
4.582922240E0,4.475232601E0,-8.028772354E0,2.599443197E0
4.585454062E0,4.197357178E0,-8.424026489E0,2.082019806E0
4.587985937E0,3.857199192E0,-8.855212212E0,1.761025667E0
4.590519323E0,3.332589626E0,-9.305562973E0,1.543037176E0
4.593051146E0,2.556454420E0,-9.545110703E0,1.325048685E0
4.595583021E0,1.749177933E0,-9.712794304E0,1.111850977E0
4.598114844E0,9.155516624E-1,-1.017033100E1,1.071127892E0
4.600646719E0,2.472130656E-1,-1.078117752E1,1.181319952E0
4.603178542E0,-1.001312733E-1,-1.115247631E1,1.286720872E0
4.605710417E0,-4.762213826E-1,-1.172020531E1,1.284325480E0
4.608242240E0,-1.108627796E0,-1.254185486E1,1.059150577E0
4.610774062E0,-1.487113357E0,-1.320300674E1,9.657268524E-1
4.613305937E0,-1.697915435E0,-1.391446400E1,5.992186069E-1
4.615837760E0,-1.966208935E0,-1.477683544E1,6.502687931E-2
4.618369635E0,-1.920694947E0,-1.551943398E1,-5.003060699E-1
4.620938646E0,-1.827271223E0,-1.614225769E1,-8.979554772E-1
4.623470521E0,-1.463158607E0,-1.659979630E1,-9.386786222E-1
4.626002396E0,-8.666844368E-1,-1.695672226E1,-7.374584079E-1
4.628534219E0,-1.504363120E-1,-1.708128548E1,6.502687931E-2
4.631066042E0,4.029192328E-1,-1.709565926E1,1.104664564E0
4.633597917E0,1.073653102E0,-1.690402222E1,2.103579044E0
4.636129740E0,1.727618694E0,-1.648481178E1,3.030629158E0
4.638661615E0,2.103708982E0,-1.598655319E1,3.627103567E0
4.641193437E0,2.237855673E0,-1.534456444E1,3.988820791E0
4.643725260E0,1.763550997E0,-1.409891605E1,4.218786240E0
4.646257135E0,6.017439365E-1,-1.241249847E1,4.305023670E0
4.648788958E0,-1.719956398E-1,-1.070691776E1,4.563735485E0
4.651323385E0,-2.438599765E-1,-9.243280411E0,4.717045784E0
4.653855260E0,3.401553631E-2,-8.136569977E0,4.635599613E0
4.656387135E0,2.711679339E-1,-7.286175251E0,4.551757812E0
4.658918958E0,3.142865300E-1,-6.668141365E0,4.566130638E0
4.661450781E0,3.118910193E-1,-6.335170269E0,4.518221378E0
4.663982656E0,1.178572774E-1,-6.184254646E0,4.525407791E0
4.666514479E0,-6.419909000E-2,-6.129158497E0,4.530198574E0
4.669046354E0,-3.013514578E-1,-6.088435650E0,4.642786503E0
4.671578177E0,-5.385038257E-1,-6.133949757E0,4.891915798E0
4.674110000E0,-6.199501157E-1,-6.258514404E0,5.095531940E0
4.676641875E0,-3.420746028E-1,-6.356729031E0,5.145836830E0
4.679173698E0,-1.935549378E-1,-6.428593636E0,5.196141720E0
4.681673594E0,-1.959504187E-1,-6.454944134E0,5.167395592E0
4.684205469E0,-1.049222350E-1,-6.371101856E0,5.160209179E0
4.686737292E0,1.274392009E-1,-6.251327991E0,4.824842453E0
4.689269115E0,2.663769722E-1,-6.098017693E0,4.405633926E0
4.691800990E0,4.101056457E-1,-5.978243351E0,3.919351816E0
4.694332812E0,4.771790504E-1,-5.860865116E0,3.440256119E0
4.696864687E0,6.256988049E-1,-5.741091251E0,2.961160421E0
4.699396510E0,7.382861376E-1,-5.635690212E0,2.678493977E0
4.701928333E0,8.149415255E-1,-5.628503323E0,2.417386770E0
4.704460208E0,7.981731892E-1,-5.645272255E0,2.230539560E0
4.706992083E0,8.149415255E-1,-5.642876625E0,2.173048019E0
4.709523906E0,7.766139507E-1,-5.693181515E0,2.139511347E0
4.712090833E0,7.382861376E-1,-5.755464077E0,1.979014277E0
4.714622708E0,6.975630522E-1,-5.942311764E0,2.046087742E0
4.717154531E0,7.909867764E-1,-6.138740540E0,1.907149911E0
4.719686406E0,8.005686998E-1,-6.330379009E0,1.861635804E0
4.722218229E0,7.287043333E-1,-6.596277237E0,2.048483133E0
4.724750104E0,6.688172817E-1,-7.013090611E0,2.206584692E0
4.727281927E0,7.478681803E-1,-7.262219906E0,2.120347500E0
4.729813802E0,1.071257830E0,-7.429903507E0,2.062855959E0
4.732345625E0,1.294037223E0,-7.535304546E0,2.261680841E0
4.734877448E0,1.507234812E0,-7.671846867E0,2.462900877E0
4.737409323E0,1.809065104E0,-7.918581486E0,2.537160873E0
4.739941146E0,1.986330509E0,-8.062309265E0,2.668911934E0
4.742411302E0,2.017471790E0,-8.194060326E0,2.867736816E0
4.744943125E0,2.139641047E0,-8.364139557E0,2.925228357E0
4.747475000E0,2.374397993E0,-8.457563400E0,2.882109642E0
4.750006823E0,2.589991093E0,-8.455167770E0,2.817431688E0
4.752538698E0,2.728928804E0,-8.495890617E0,2.838990927E0
4.755070521E0,2.805584192E0,-8.495890617E0,2.803058863E0
4.757602396E0,2.875052929E0,-8.517450333E0,2.726403475E0
4.760134219E0,2.939731121E0,-8.550986290E0,2.661725521E0
4.762666042E0,3.090646029E0,-8.486310005E0,2.498832941E0
4.765197917E0,3.212815523E0,-8.455167770E0,2.431759834E0
4.767729740E0,3.212815523E0,-8.436004639E0,2.381454468E0
4.770261615E0,3.133764744E0,-8.280297279E0,2.338335991E0
4.772859323E0,2.970872164E0,-8.141360283E0,2.374268293E0
4.775391198E0,2.740906239E0,-8.055122375E0,2.326358557E0
4.777923021E0,2.613945723E0,-7.796411991E0,2.244912386E0
4.780454896E0,2.460635185E0,-7.626332760E0,2.185025215E0
4.782986719E0,2.333675146E0,-7.537700176E0,2.144302368E0
4.785518594E0,2.173177719E0,-7.425112724E0,2.175443411E0
4.788050417E0,2.048613071E0,-7.252637863E0,2.046087742E0
4.790582292E0,1.993516922E0,-7.058604717E0,2.043692112E0
4.793114115E0,1.722827673E0,-6.957994461E0,2.132324696E0
4.795645937E0,1.638986111E0,-6.819056511E0,2.266471863E0
4.798177812E0,1.490466595E0,-6.735215187E0,2.434155226E0
4.800709635E0,1.406624794E0,-6.639395714E0,2.537160873E0
4.803241979E0,1.250918627E0,-6.660954952E0,2.621002436E0
4.805773854E0,1.231754780E0,-6.574717522E0,2.649748325E0
4.808305729E0,1.145517588E0,-6.675328255E0,2.757544756E0
4.810837552E0,1.085630655E0,-6.728028774E0,2.870132208E0
4.813369375E0,1.162285924E0,-6.675328255E0,2.886900425E0
4.815901250E0,1.157494903E0,-6.716051102E0,3.045002222E0
4.818433073E0,1.111980915E0,-6.790310860E0,3.059375048E0
4.820964948E0,1.193427205E0,-6.823847771E0,3.148007870E0
4.823496771E0,1.248523116E0,-6.838220596E0,3.179148912E0
4.826028594E0,1.234150290E0,-6.878943443E0,3.205499172E0
4.828560469E0,1.258105040E0,-6.888525486E0,3.212685823E0
4.831092292E0,1.214986444E0,-7.037045002E0,3.193521738E0
4.833591875E0,1.222172856E0,-7.175982952E0,3.251013279E0
4.836123698E0,1.265291572E0,-7.164005756E0,3.239036083E0
4.838655573E0,1.303619146E0,-7.223892689E0,3.241431475E0
4.841187396E0,1.322782993E0,-7.334084511E0,3.325273275E0
4.843719271E0,1.315596581E0,-7.432299137E0,3.282154560E0
4.846251094E0,1.377879024E0,-7.501767635E0,3.308504820E0
4.848782969E0,1.346737742E0,-7.621542454E0,3.344437122E0
4.851314792E0,1.423393011E0,-7.623937130E0,3.354018927E0
4.853846615E0,1.509630203E0,-7.599982738E0,3.354018927E0
4.856378490E0,1.468907118E0,-7.774852276E0,3.365996361E0
4.858910365E0,1.579099178E0,-7.868276119E0,3.404324055E0
4.861442187E0,1.698873043E0,-7.798806667E0,3.368391752E0
4.863976406E0,1.710850477E0,-7.906604290E0,3.394742012E0
4.866508229E0,1.749177933E0,-7.976072788E0,3.490561247E0
4.869040104E0,1.904884338E0,-7.949721813E0,3.509725094E0
4.871571927E0,2.036635637E0,-8.079077721E0,3.591171265E0
4.874103802E0,2.058194876E0,-8.273111343E0,3.756459236E0
4.876635625E0,2.187550783E0,-8.203642845E0,3.881024361E0
4.879167500E0,2.273787975E0,-8.112614632E0,3.900187969E0
4.881699323E0,2.372002602E0,-8.083868980E0,3.962470531E0
4.884231146E0,2.424703121E0,-7.949721813E0,4.031939030E0
4.886763021E0,2.633109808E0,-7.791620731E0,4.070266724E0
4.889294844E0,2.752883434E0,-7.693405628E0,4.163690090E0
4.891826719E0,2.846307278E0,-7.571237087E0,4.321791649E0
4.894359635E0,2.963685751E0,-7.542491436E0,4.458334446E0
4.896891458E0,3.093041420E0,-7.482604504E0,4.616436005E0
4.899423333E0,3.315820932E0,-7.355643749E0,4.637995243E0
4.901955156E0,3.370917082E0,-7.377202988E0,4.757769108E0
4.904487031E0,3.521832466E0,-7.329293728E0,4.855983734E0
4.907018854E0,3.687119961E0,-7.257429123E0,4.975757599E0
4.909550729E0,3.852408409E0,-7.140050411E0,4.987734795E0
4.912082552E0,4.008114338E0,-7.094536781E0,5.057203770E0
4.914614427E0,4.123097420E0,-6.984344482E0,5.102717876E0
4.917146250E0,4.281198978E0,-6.874152660E0,5.126672745E0
4.919678073E0,4.468046188E0,-6.742401123E0,5.203328133E0
4.922209948E0,4.647706985E0,-6.560345173E0,5.205723763E0
4.924743333E0,4.829763412E0,-6.354333401E0,5.232073784E0
4.927275156E0,5.011819839E0,-5.954288960E0,5.174582481E0
4.929807031E0,5.076498032E0,-5.597362518E0,5.026062965E0
4.932338854E0,5.287300110E0,-5.724323273E0,5.143441200E0
4.934870729E0,5.438215256E0,-5.812955379E0,5.227283001E0
4.937402552E0,5.512475014E0,-5.966266155E0,5.251237869E0
4.939934427E0,5.641830444E0,-5.841701508E0,5.232073784E0
4.942466250E0,5.713695049E0,-5.542266369E0,5.133859158E0
4.944998073E0,5.704113007E0,-5.398538113E0,4.906288624E0
4.947529948E0,5.639434814E0,-5.238040447E0,4.896706581E0
4.950061771E0,5.579548359E0,-4.962560654E0,4.774537086E0
4.952593646E0,5.498102188E0,-4.617611885E0,4.604458332E0
4.955164219E0,5.328022957E0,-4.464301109E0,4.448752403E0
4.957696094E0,5.040565491E0,-4.423578262E0,4.326582909E0
4.960227917E0,4.880068302E0,-4.054674625E0,4.007984161E0
4.962759792E0,4.674057484E0,-3.872618198E0,3.916956186E0
4.965291615E0,4.288385391E0,-4.186425686E0,3.921747208E0
4.967823490E0,4.024882317E0,-4.246312618E0,3.976843357E0
4.970355312E0,3.859594345E0,-4.095397472E0,3.871442318E0
4.972887187E0,3.588905334E0,-4.028324127E0,3.878628731E0
4.975419062E0,3.258329630E0,-3.922923088E0,3.904978991E0
4.977950885E0,3.025968313E0,-3.764821529E0,4.130153656E0
4.980482708E0,2.846307278E0,-3.719307423E0,4.309814930E0
4.983014531E0,2.530103922E0,-3.858244896E0,4.460729599E0
4.985512031E0,2.173177719E0,-3.973227978E0,4.697882175E0
4.988043854E0,1.907279730E0,-3.944482327E0,5.071576595E0
4.990575729E0,1.540771484E0,-4.052278996E0,5.354243279E0
4.993107552E0,1.126353741E0,-4.167262077E0,5.696796894E0
4.995639427E0,8.436872959E-1,-4.191216469E0,5.981858730E0
4.998171250E0,6.879811287E-1,-4.212776184E0,6.259734154E0
5.000703125E0,6.999585629E-1,-4.284640789E0,6.195056438E0
5.003234948E0,6.515675783E-2,-5.101498604E0,6.621451378E0
5.005766771E0,-2.726057172E-1,-5.650063038E0,7.253857613E0
5.008298646E0,-3.324927092E-1,-6.138740540E0,7.548501968E0
5.010830469E0,-3.516564965E-1,-6.486084938E0,7.855122566E0
5.013362344E0,-8.336290717E-2,-6.543576717E0,7.917405128E0
5.015895781E0,1.585804224E-1,-6.454944134E0,7.857518196E0
5.018427604E0,3.142865300E-1,-6.299237728E0,7.747326374E0
5.020959479E0,4.891563654E-1,-6.191441059E0,7.625156879E0
5.023491302E0,6.736083031E-1,-6.006989479E0,7.517360210E0
5.026023177E0,9.658566713E-1,-5.870447159E0,7.373631954E0
5.028555000E0,1.246127605E0,-5.743486404E0,7.150852203E0
5.031086875E0,1.440161467E0,-5.604548931E0,6.999936581E0
5.033618750E0,1.631799698E0,-5.388956070E0,6.884953976E0
5.036150573E0,1.804274082E0,-5.252413750E0,6.760389328E0
5.038682396E0,2.031844616E0,-5.120662689E0,6.736434460E0
5.041214219E0,2.216296434E0,-4.993701935E0,6.616660118E0
5.043746094E0,2.338465691E0,-4.926628590E0,6.432209015E0
5.046278958E0,2.482194424E0,-4.878718853E0,6.226197243E0
5.048810781E0,2.645087004E0,-4.840391636E0,5.972276688E0
5.051342656E0,2.755279064E0,-4.837996006E0,5.644096375E0
5.053874479E0,2.829539061E0,-4.802063465E0,5.294356346E0
5.056406354E0,2.939731121E0,-4.790086269E0,4.920661926E0
5.058938229E0,2.999618053E0,-4.864346027E0,4.520617008E0
5.061470052E0,3.040341139E0,-5.010469913E0,4.087035179E0
5.064001875E0,3.057109594E0,-5.103894234E0,3.794786930E0
5.066533698E0,3.052318573E0,-5.245226860E0,3.464210987E0
5.069065573E0,3.124182701E0,-5.365001202E0,3.116866589E0
5.071597396E0,3.174487829E0,-5.487170696E0,2.879714251E0
5.074129271E0,3.205629110E0,-5.657249451E0,2.656934738E0
5.076663177E0,3.337380171E0,-5.798582554E0,2.501228571E0
5.079195000E0,3.502668381E0,-5.875237942E0,2.453319073E0
5.081726875E0,3.751798153E0,-5.954288960E0,2.359895229E0
5.084258698E0,3.900318146E0,-6.054899216E0,2.422177792E0
5.086790573E0,4.264430523E0,-6.160300255E0,2.525183201E0
5.089322396E0,4.755503654E0,-6.354333401E0,2.652143717E0
5.091854271E0,5.220226765E0,-6.651372910E0,2.807849884E0
5.094386094E0,5.392701149E0,-7.183169365E0,2.994697094E0
5.096917917E0,5.287300110E0,-7.988049984E0,3.176753521E0
5.099449792E0,5.102848053E0,-8.965404510E0,3.361205339E0
5.101981615E0,5.086079597E0,-1.015595722E1,3.548052788E0
5.104513490E0,5.014215469E0,-1.179206944E1,3.792391539E0
5.107047135E0,4.676453114E0,-1.370366192E1,4.019961834E0
5.109578958E0,4.329108715E0,-1.561046219E1,4.132549286E0
5.112110833E0,4.044046402E0,-1.759391785E1,4.070266724E0
5.114642708E0,4.096746922E0,-1.930189514E1,3.993611813E0
5.117174531E0,3.964995384E0,-2.089728355E1,3.866651297E0
5.119706406E0,3.076273203E0,-2.257890892E1,3.639080763E0
5.122238229E0,2.350443363E0,-2.392037773E1,3.435465336E0
5.124770104E0,1.991121531E0,-2.519477081E1,3.504934072E0
5.127301927E0,1.080839634E0,-2.663205910E1,3.622312546E0
5.129833750E0,3.909418583E-1,-2.776272583E1,3.907374620E0
5.132365625E0,-6.707608700E-3,-2.857958412E1,3.572007418E0
5.134897448E0,6.755220890E-2,-2.935092735E1,2.438946009E0
5.137431458E0,1.633713245E-1,-3.057262230E1,1.555014491E0
5.139963281E0,3.162002563E-2,-3.166496086E1,1.545432687E0
5.142495156E0,1.561849117E-1,-3.265668869E1,1.622087955E0
5.145026979E0,8.892014027E-1,-3.307590103E1,1.253184319E0
5.147558802E0,1.320387483E0,-3.350708389E1,6.016140580E-1
5.150090677E0,1.655754566E0,-3.340407944E1,-3.079226241E-2
5.152622500E0,2.005494356E0,-3.264471054E1,-6.584076285E-1
5.155154375E0,2.156409502E0,-3.166496086E1,-1.068034530E0
5.157686198E0,2.568431854E0,-3.002645111E1,-1.702836275E0
5.160218021E0,3.699097633E0,-2.758066750E1,-2.701750755E0
5.162749896E0,5.126802921E0,-2.513727951E1,-3.643173695E0
5.165281771E0,6.329332829E0,-2.321131516E1,-4.359422207E0
5.167851823E0,6.892270565E0,-2.175486565E1,-4.893613815E0
5.170383698E0,7.189310074E0,-2.051640129E1,-5.281681061E0
5.172915573E0,7.615705013E0,-1.930428886E1,-5.602675915E0
5.175447396E0,8.181037903E0,-1.802750015E1,-5.696099281E0
5.177979271E0,8.741580963E0,-1.655667496E1,-5.775149822E0
5.180511094E0,9.158393860E0,-1.486307240E1,-5.619443893E0
5.183042969E0,9.438663483E0,-1.330840778E1,-5.545184135E0
5.185574792E0,9.613534927E0,-1.178248787E1,-5.432596684E0
5.188106667E0,9.838708878E0,-1.016793442E1,-5.288867950E0
5.190638490E0,1.020521736E1,-8.780952454E0,-5.025365353E0
5.193170312E0,1.038008690E1,-7.329293728E0,-4.814563274E0
5.195702187E0,1.005909348E1,-5.966266155E0,-4.481591702E0
5.198199687E0,9.591974258E0,-4.806854725E0,-4.076755524E0
5.200731510E0,9.112878799E0,-3.836686134E0,-3.281456470E0
5.203263385E0,8.569105148E0,-3.345612764E0,-1.796259880E0
5.205795208E0,8.181037903E0,-2.873703480E0,-9.434695244E-1
5.208327031E0,7.905558109E0,-2.382630348E0,-7.733905911E-1
5.210858906E0,7.694756031E0,-2.037681580E0,-5.194698572E-1
5.213390781E0,7.483953953E0,-1.695127964E0,6.263139844E-2
5.215922604E0,7.162959576E0,-1.417252541E0,9.585403800E-1
5.218454427E0,6.992880344E0,-1.465162039E0,1.698743224E0
5.220986302E0,6.997671604E0,-1.568167448E0,2.333544970E0
5.223518125E0,6.777287483E0,-1.484325886E0,3.040211201E0
5.226050000E0,6.655117989E0,-1.654404879E0,3.782809496E0
5.228583802E0,6.760519028E0,-1.939466715E0,4.127758503E0
5.231115781E0,7.033603668E0,-2.114336729E0,4.295441628E0
5.233647760E0,7.352202415E0,-2.382630348E0,4.367306232E0
5.236179740E0,7.455208302E0,-2.588641644E0,4.398447514E0
5.238711719E0,7.292315483E0,-2.935985804E0,4.558944225E0
5.241243698E0,7.112654686E0,-3.331239700E0,4.420006752E0
5.243775625E0,6.870710850E0,-3.661816120E0,4.266695976E0
5.246307604E0,6.717400551E0,-3.769612789E0,3.955284119E0
5.248839583E0,6.056248665E0,-3.922923088E0,3.957679510E0
5.251371562E0,5.522057056E0,-4.334945679E0,3.651058197E0
5.253903542E0,4.961514950E0,-4.442741871E0,3.490561247E0
5.256435469E0,4.388995647E0,-4.727804184E0,3.301318169E0
