"Time (s)","Gyroscope x (rad/s)","Gyroscope y (rad/s)","Gyroscope z (rad/s)"
0.000000000E0,3.005597591E-1,2.065906048E0,2.426724672E0
1.998000000E-3,2.492470741E-1,2.042693138E0,2.341203451E0
3.997000000E-3,2.242016047E-1,2.030475616E0,2.297220945E0
5.996333000E-3,1.802192926E-1,2.003597736E0,2.209867477E0
7.995833000E-3,1.417347938E-1,1.977941394E0,2.119459152E0
9.995433000E-3,1.258522868E-1,1.957782865E0,2.077309608E0
1.199509900E-2,9.225469828E-2,1.921741724E0,1.988123298E0
1.399481300E-2,7.453960925E-2,1.874705076E0,1.906267285E0
1.599456300E-2,6.293316931E-2,1.849659681E0,1.864117503E0
1.799411800E-2,4.094202071E-2,1.786129594E0,1.782872558E0
1.999371800E-2,-6.094602402E-3,1.689002037E0,1.655201674E0
2.199335400E-2,-3.969219327E-2,1.634024143E0,1.569680572E0
2.399302000E-2,-1.148286164E-1,1.531398773E0,1.388253570E0
2.599271200E-2,-1.765259951E-1,1.446488500E0,1.198274493E0
2.799242600E-2,-1.966845542E-1,1.419610500E0,1.107866406E0
2.999215900E-2,-2.186757028E-1,1.401284575E0,9.404893517E-1
3.199190900E-2,-2.009606212E-1,1.417777896E0,8.042663932E-1
3.399155600E-2,-1.795803308E-1,1.431216955E0,7.535645962E-1
3.599050000E-2,-1.355980337E-1,1.450764656E0,6.686543226E-1
3.799018400E-2,-9.467006475E-2,1.457484126E0,6.100112200E-1
3.998988400E-2,-7.939843088E-2,1.450764656E0,5.843549371E-1
4.198912200E-2,-5.740728229E-2,1.422053933E0,5.422052145E-1
4.398884900E-2,-5.129862949E-2,1.382347822E0,4.994446337E-1
4.598858800E-2,-5.496381968E-2,1.355469584E0,4.805078208E-1
4.798833800E-2,-7.084631920E-2,1.305378675E0,4.395798743E-1
4.998801800E-2,-9.711352736E-2,1.257120371E0,4.035387933E-1
5.198771000E-2,-1.087199599E-1,1.233907461E0,3.852128685E-1
5.398637600E-2,-1.410958320E-1,1.202142477E0,3.516152501E-1
5.598609000E-2,-1.685847640E-1,1.181373000E0,3.210719824E-1
5.798581400E-2,-1.795803308E-1,1.176486135E0,3.094655573E-1
5.998554700E-2,-2.021823376E-1,1.179540515E0,2.911395729E-1
6.198534700E-2,-2.174539864E-1,1.194812179E0,2.807548940E-1
6.398514700E-2,-2.217300385E-1,1.206418633E0,2.807548940E-1
6.598444700E-2,-2.321147472E-1,1.229631424E0,2.874743938E-1
6.798418000E-2,-2.382233888E-1,1.250400901E0,3.082438409E-1
6.998391300E-2,-2.431103140E-1,1.258952975E0,3.204611242E-1
7.198457900E-2,-2.718209922E-1,1.302324295E0,3.632217050E-1
7.398431200E-2,-2.742644250E-1,1.277889729E0,4.579058290E-1
7.598404500E-2,-2.449429184E-1,1.221079350E0,5.196031928E-1
7.798444500E-2,-1.704173535E-1,1.109290957E0,6.148982048E-1
7.998417800E-2,-1.270459145E-1,1.097684622E0,6.313915253E-1
8.198391100E-2,-1.270459145E-1,1.125173450E0,6.307806969E-1
8.398364400E-2,-1.533131301E-1,1.201531649E0,6.472740769E-1
8.598337700E-2,-1.905759126E-1,1.263229012E0,7.095822692E-1
8.798311000E-2,-2.125670612E-1,1.288885355E0,7.486776710E-1
8.998194300E-2,-2.534950376E-1,1.317596078E0,8.128185272E-1
9.198167600E-2,-2.675449252E-1,1.323093772E0,8.384748697E-1
9.398147600E-2,-2.901469469E-1,1.327369928E0,8.604660034E-1
9.598120900E-2,-2.980881929E-1,1.315152645E0,8.641312122E-1
9.798094200E-2,-2.974773347E-1,1.305989623E0,8.598551750E-1
9.998067500E-2,-2.883143425E-1,1.277278900E0,8.543573618E-1
1.019807410E-1,-2.748753130E-1,1.239405274E0,8.458052278E-1
1.039804740E-1,-2.614362836E-1,1.220468402E0,8.445835114E-1
1.059802070E-1,-2.400559783E-1,1.183205724E0,8.476378322E-1
1.079798070E-1,-2.253952324E-1,1.152051568E0,8.543573618E-1
1.099796070E-1,-2.198974490E-1,1.139834285E0,8.604660034E-1
1.119793400E-1,-2.064584047E-1,1.116621375E0,8.690181375E-1
1.139800060E-1,-2.070692778E-1,1.097073555E0,8.842897415E-1
1.159797390E-1,-2.095127255E-1,1.085467219E0,8.849006295E-1
1.179794720E-1,-2.064584047E-1,1.059810877E0,8.922310472E-1
1.199804050E-1,-2.070692778E-1,1.023769855E0,8.916200995E-1
1.219801380E-1,-2.052366734E-1,1.006054759E0,8.903983831E-1
1.239798710E-1,-2.089018673E-1,9.632942080E-1,8.781810999E-1
1.259801040E-1,-2.125670612E-1,9.254205227E-1,8.659638166E-1
1.279798370E-1,-2.162322551E-1,9.034293890E-1,8.513030410E-1
1.299795700E-1,-2.205083072E-1,8.576145172E-1,8.354205489E-1
1.319779360E-1,-2.284495533E-1,8.111886978E-1,8.128185272E-1
1.339776690E-1,-2.363907993E-1,7.904193401E-1,8.030446768E-1
1.359774020E-1,-2.382233888E-1,7.476587296E-1,7.834970355E-1
1.379765350E-1,-2.492189705E-1,7.158937454E-1,7.615058422E-1
1.399763350E-1,-2.510515451E-1,7.018438578E-1,7.486776710E-1
1.419761350E-1,-2.528841496E-1,6.774092317E-1,7.254647613E-1
1.439758680E-1,-2.571602166E-1,6.627484560E-1,6.973649859E-1
1.459756010E-1,-2.583819628E-1,6.554180980E-1,6.820933819E-1
1.479753340E-1,-2.577710748E-1,6.450333595E-1,6.509392262E-1
1.499759670E-1,-2.602145374E-1,6.407573223E-1,6.167307496E-1
1.519757000E-1,-2.626580298E-1,6.401464939E-1,6.032917500E-1
1.539754330E-1,-2.718209922E-1,6.352595091E-1,5.678615570E-1
1.559762330E-1,-2.797622383E-1,6.273183227E-1,5.397617817E-1
1.579759660E-1,-2.883143425E-1,6.212096810E-1,5.226575136E-1
1.599756990E-1,-2.993099093E-1,6.071597338E-1,4.933359921E-1
1.619754320E-1,-3.145815432E-1,5.931098461E-1,4.695122242E-1
1.639751650E-1,-3.231336772E-1,5.876120329E-1,4.536297619E-1
1.659748980E-1,-3.365727067E-1,5.723403692E-1,4.298059940E-1
1.679744310E-1,-3.457356989E-1,5.589013696E-1,4.090365767E-1
1.699741640E-1,-3.463465571E-1,5.582905412E-1,3.974301517E-1
1.719739640E-1,-3.506225944E-1,5.521818995E-1,3.809368014E-1
1.739736970E-1,-3.463465571E-1,5.570687652E-1,3.650542796E-1
1.759734300E-1,-3.439030647E-1,5.643991828E-1,3.540587127E-1
1.779731630E-1,-3.298531771E-1,5.845577121E-1,3.387870789E-1
1.799716960E-1,-3.103054762E-1,6.199879050E-1,3.204611242E-1
1.819714290E-1,-2.950338721E-1,6.425899267E-1,3.094655573E-1
1.839711620E-1,-2.687666714E-1,7.067307830E-1,2.807548940E-1
1.859708950E-1,-2.516624331E-1,7.427718639E-1,2.679267228E-1
1.879706950E-1,-2.272278070E-1,8.160756230E-1,2.538768053E-1
1.899704280E-1,-2.082909942E-1,8.820490837E-1,2.544876933E-1
1.919705940E-1,-2.052366734E-1,9.070945382E-1,2.581528723E-1
1.939703270E-1,-2.009606212E-1,9.449682236E-1,2.722027898E-1
1.959700600E-1,-2.076801360E-1,9.596289396E-1,2.899178863E-1
1.979708930E-1,-2.150105089E-1,9.571855664E-1,3.003025949E-1
1.999706260E-1,-2.241734862E-1,9.370269775E-1,3.277915120E-1
2.019703590E-1,-2.394451350E-1,9.009858966E-1,3.589456379E-1
2.039701590E-1,-2.461646497E-1,8.832708001E-1,3.766607344E-1
2.059698920E-1,-2.559385002E-1,8.447862864E-1,4.163669646E-1
2.079696250E-1,-2.510515451E-1,8.099669814E-1,4.597384036E-1
2.099693580E-1,-2.528841496E-1,7.953062057E-1,4.829512835E-1
2.119690910E-1,-2.412777245E-1,7.641521096E-1,5.287661552E-1
2.139688240E-1,-2.266169637E-1,7.397174835E-1,5.758028030E-1
2.159679900E-1,-2.137887925E-1,7.244458795E-1,6.014591455E-1
2.179677900E-1,-1.960736960E-1,7.012329698E-1,6.472740769E-1
2.199675900E-1,-1.746934056E-1,6.774092317E-1,6.930889487E-1
2.219668900E-1,-1.636978239E-1,6.658027768E-1,7.108040452E-1
2.239666230E-1,-1.429284215E-1,6.444225311E-1,7.553971410E-1
2.259663560E-1,-1.191046759E-1,6.285400391E-1,7.926599979E-1
2.279664220E-1,-1.050547734E-1,6.212096810E-1,8.079316020E-1
2.299661550E-1,-8.123102784E-2,6.144900918E-1,8.390856981E-1
2.319658880E-1,-5.068776757E-2,6.034945846E-1,8.659638166E-1
2.339656880E-1,-3.663786501E-2,6.034945846E-1,8.806245923E-1
2.359654880E-1,-1.037065871E-2,6.077706218E-1,9.099460840E-1
2.379652210E-1,3.177904338E-2,6.089923382E-1,9.417110682E-1
2.399649540E-1,5.071586743E-2,6.022728086E-1,9.600370526E-1
2.419646870E-1,9.653076530E-2,5.918881297E-1,9.936346412E-1
2.439644200E-1,1.441782564E-1,5.808925033E-1,1.030286551E0
2.459641530E-1,1.667802632E-1,5.705078244E-1,1.051666856E0
2.479638860E-1,2.058756351E-1,5.595122576E-1,1.084042668E0
2.499636860E-1,2.382514924E-1,5.491275787E-1,1.116418600E0
2.519634190E-1,2.510796785E-1,5.460732579E-1,1.130468369E0
2.539631520E-1,2.694056034E-1,5.381319523E-1,1.160400867E0
2.559628850E-1,2.877315581E-1,5.387428403E-1,1.180559397E0
2.579615180E-1,2.956728339E-1,5.399645567E-1,1.190333247E0
2.599612510E-1,2.956728339E-1,5.479058027E-1,1.201939702E0
2.619609840E-1,3.023923337E-1,5.643991828E-1,1.206215739E0
2.639607170E-1,3.017815053E-1,5.747838616E-1,1.208659172E0
2.659605170E-1,2.804011703E-1,6.334269643E-1,1.202550530E0
2.679602830E-1,1.961017847E-1,7.922518849E-1,1.198274493E0
2.699600490E-1,1.661694050E-1,8.282929659E-1,1.191554904E0
2.719598150E-1,1.160784438E-1,8.563927412E-1,1.183613777E0
2.739595810E-1,7.698307186E-2,8.881577849E-1,1.167731166E0
2.759593470E-1,6.293316931E-2,8.954881430E-1,1.159179091E0
2.779591130E-1,3.605509922E-2,9.028185606E-1,1.134744525E0
2.799588790E-1,2.872471698E-2,9.077054262E-1,1.124359727E0
2.819587790E-1,1.162048895E-2,9.040402174E-1,1.102979541E0
2.839585450E-1,7.344432641E-3,8.918229342E-1,1.091983914E0
2.859583110E-1,6.122702267E-3,8.869360089E-1,1.085264444E0
2.879580770E-1,5.511837080E-3,8.686100245E-1,1.081599236E0
2.899578430E-1,1.223135460E-2,8.460080624E-1,1.081599236E0
2.919576090E-1,1.284222025E-2,8.344016075E-1,1.078544974E0
2.939573750E-1,8.566163480E-3,8.001931906E-1,1.077934027E0
2.959571410E-1,3.679241519E-3,7.604869604E-1,1.076712251E0
2.979569740E-1,2.457510913E-3,7.421609759E-1,1.075490594E0
2.999567400E-1,1.235780306E-3,7.000112534E-1,1.070603609E0
3.019565060E-1,-1.037065871E-2,6.706897020E-1,1.063273311E0
3.039562720E-1,-1.647931151E-2,6.603049636E-1,1.056553721E0
3.059560380E-1,-2.136623301E-2,6.407573223E-1,1.047390699E0
3.079558040E-1,-2.869661711E-2,6.260965466E-1,1.022345304E0
3.099555700E-1,-3.358353674E-2,6.248748302E-1,1.007073641E0
3.119554030E-1,-5.679641664E-2,6.456442475E-1,9.710326195E-1
3.139552360E-1,-1.044439077E-1,7.201697826E-1,9.349915981E-1
3.159550020E-1,-1.368197650E-1,7.696499228E-1,9.239959717E-1
3.179552020E-1,-2.089018673E-1,8.948772550E-1,9.172765017E-1
3.199549680E-1,-2.840383053E-1,1.018882990E0,9.386567473E-1
3.219547340E-1,-3.133598268E-1,1.073249936E0,9.643130898E-1
3.239545000E-1,-3.701702952E-1,1.144721150E0,1.017458320E0
3.259542660E-1,-4.196503460E-1,1.169766545E0,1.084653616E0
3.279540660E-1,-4.410306811E-1,1.167934060E0,1.112753272E0
3.299537990E-1,-4.837912321E-1,1.148386359E0,1.183002830E0
3.319535320E-1,-5.216648579E-1,1.116621375E0,1.250808835E0
3.339532650E-1,-5.418234468E-1,1.086078167E0,1.281352162E0
3.359529980E-1,-5.821405053E-1,1.031711102E0,1.333886623E0
3.379527310E-1,-6.114620566E-1,9.791767001E-1,1.394362211E0
3.399524640E-1,-6.255119443E-1,9.590181112E-1,1.424294710E0
3.419521640E-1,-6.432270408E-1,9.266422987E-1,1.500041842E0
3.439519640E-1,-6.493356824E-1,9.028185606E-1,1.581897855E0
3.459516970E-1,-6.536117792E-1,8.912121058E-1,1.625269294E0
3.479514300E-1,-6.499465704E-1,8.710535169E-1,1.717509866E0
3.499511630E-1,-6.389510036E-1,8.490623832E-1,1.797533274E0
3.519508960E-1,-6.377292275E-1,8.325690031E-1,1.831741691E0
3.539506290E-1,-6.371183991E-1,7.953062057E-1,1.882443547E0
3.559503620E-1,-6.377292275E-1,7.525456548E-1,1.911765099E0
3.579500950E-1,-6.426162124E-1,7.336088419E-1,1.921538949E0
3.599498950E-1,-6.407835484E-1,7.079524994E-1,1.928869247E0
3.619496280E-1,-6.426162124E-1,6.939026117E-1,1.926425934E0
3.639493610E-1,-6.358966827E-1,6.951243281E-1,1.923982382E0
3.659482940E-1,-6.346749067E-1,7.079524994E-1,1.917873740E0
3.679480270E-1,-6.328423619E-1,7.342197299E-1,1.910543323E0
3.699477600E-1,-6.322315335E-1,7.519348264E-1,1.892828226E0
3.719474930E-1,-6.310097575E-1,7.971388698E-1,1.867782831E0
3.739472260E-1,-6.291771531E-1,8.221843243E-1,1.857398033E0
3.759470260E-1,-6.242902279E-1,8.832708001E-1,1.847624302E0
3.779463260E-1,-6.071859598E-1,9.480225444E-1,1.857398033E0
3.799460590E-1,-5.937469602E-1,9.791767001E-1,1.864728570E0
3.819457920E-1,-5.741992593E-1,1.030489326E0,1.884886980E0
3.839455250E-1,-5.546516180E-1,1.072028160E0,1.911765099E0
3.859452580E-1,-5.436559916E-1,1.096462727E0,1.928869247E0
3.879449910E-1,-5.161670446E-1,1.136169076E0,1.963688612E0
3.899447910E-1,-4.868455529E-1,1.182594895E0,2.003394842E0
3.919445910E-1,-4.776825905E-1,1.202142477E0,2.021720886E0
3.939443240E-1,-4.550805688E-1,1.230853200E0,2.056540012E0
3.959440570E-1,-4.477501810E-1,1.251622558E0,2.087083578E0
3.979442570E-1,-4.514153600E-1,1.248568296E0,2.095635414E0
3.999439900E-1,-4.764608443E-1,1.228409648E0,2.096857071E0
4.019441230E-1,-5.253300667E-1,1.207640290E0,2.090748549E0
4.039438560E-1,-5.515972972E-1,1.203364253E0,2.090137720E0
4.059436560E-1,-6.065751314E-1,1.197255611E0,2.103576660E0
4.079433890E-1,-6.462813616E-1,1.192368627E0,2.146948338E0
4.099431220E-1,-6.633856297E-1,1.189925194E0,2.176269770E0
4.119428550E-1,-6.878201962E-1,1.170377493E0,2.256904125E0
4.139425880E-1,-7.012592554E-1,1.130671263E0,2.364416361E0
4.159423210E-1,-7.055352926E-1,1.097684622E0,2.424891949E0
4.179420540E-1,-7.128656507E-1,1.018882990E0,2.551341057E0
4.199413540E-1,-7.116439939E-1,9.290856719E-1,2.674124956E0
4.219411540E-1,-7.122548223E-1,8.698318005E-1,2.730324507E0
4.239408870E-1,-7.116439939E-1,7.537673712E-1,2.826230526E0
4.259414200E-1,-7.159200311E-1,6.267073750E-1,2.895868778E0
4.279411530E-1,-7.250829935E-1,5.643991828E-1,2.918470860E0
4.299408860E-1,-7.495175600E-1,4.458913207E-1,2.936186075E0
4.319406190E-1,-7.843369246E-1,3.664788306E-1,2.915416718E0
4.339403520E-1,-8.020520210E-1,3.396007717E-1,2.897701740E0
4.359400850E-1,-8.478668928E-1,3.200530708E-1,2.840891123E0
4.379398850E-1,-8.942926526E-1,3.371572793E-1,2.776139498E0
4.399396180E-1,-9.156729579E-1,3.603701890E-1,2.739487648E0
4.419393510E-1,-9.480488300E-1,4.300088286E-1,2.670459747E0
4.439390840E-1,-9.883658886E-1,5.088104010E-1,2.600210190E0
4.459388170E-1,-1.003026724E0,5.540144444E-1,2.561725855E0
4.479385500E-1,-1.029904842E0,6.432008147E-1,2.476204634E0
4.499382830E-1,-1.054950237E0,7.348305583E-1,2.385185480E0
4.519380160E-1,-1.068389297E0,7.843106985E-1,2.335094690E0
4.539378160E-1,-1.079995751E0,8.637231588E-1,2.235523701E0
4.559375490E-1,-1.086104393E0,9.675702453E-1,2.138396025E0
4.579368150E-1,-1.084271669E0,9.926156998E-1,2.089526892E0
4.599365480E-1,-1.085493565E0,1.055534840E0,2.003394842E0
4.619362810E-1,-1.081828237E0,1.141055942E0,1.957579970E0
4.639360140E-1,-1.078773975E0,1.177707911E0,1.939864874E0
4.659357470E-1,-1.057393670E0,1.246124744E0,1.919706345E0
4.679355470E-1,-1.046398044E0,1.274835467E0,1.913597703E0
4.699353470E-1,-1.031737328E0,1.324315548E0,1.905656457E0
4.719350800E-1,-1.026239514E0,1.351804495E0,1.880610943E0
4.739347460E-1,-1.029904842E0,1.364632726E0,1.869004488E0
4.759344790E-1,-1.048841596E0,1.406782389E0,1.826854825E0
4.779342120E-1,-1.098321676E0,1.500855565E0,1.767600894E0
4.799343780E-1,-1.125810504E0,1.544837832E0,1.740722775E0
4.819341110E-1,-1.185064554E0,1.634635091E0,1.681468844E0
4.839339110E-1,-1.238820672E0,1.714658499E0,1.638708353E0
4.859337110E-1,-1.261422753E0,1.745812535E0,1.614884615E0
4.879334440E-1,-1.310902715E0,1.797736049E0,1.579454303E0
4.899331770E-1,-1.355495930E0,1.821559787E0,1.547689438E0
4.919329100E-1,-1.375654578E0,1.827668428E0,1.537915468E0
4.939326430E-1,-1.418415070E0,1.823392510E0,1.528752565E0
4.959323760E-1,-1.449569225E0,1.811175227E0,1.529974341E0
4.979321090E-1,-1.464840770E0,1.802623034E0,1.535472035E0
4.999319090E-1,-1.483166695E0,1.789183974E0,1.549521923E0
5.019316420E-1,-1.488664508E0,1.787962317E0,1.578232646E0
5.039313750E-1,-1.485610247E0,1.784297109E0,1.601445556E0
5.059311080E-1,-1.477058053E0,1.766582012E0,1.642373562E0
5.079308410E-1,-1.455677867E0,1.732984424E0,1.685134053E0
5.099305740E-1,-1.444071412E0,1.708549857E0,1.708957911E0
5.119303070E-1,-1.420247674E0,1.662124038E0,1.741333723E0
5.139300400E-1,-1.384817481E0,1.608978748E0,1.766379118E0
5.159298400E-1,-1.370767593E0,1.581489801E0,1.771266103E0
5.179295730E-1,-1.341446042E0,1.534453154E0,1.769433498E0
5.199293060E-1,-1.308459401E0,1.489859939E0,1.754161835E0
5.219290390E-1,-1.293187618E0,1.477031827E0,1.740722775E0
5.239287720E-1,-1.272418261E0,1.461149335E0,1.701627493E0
5.259285050E-1,-1.254703164E0,1.452597260E0,1.657645106E0
5.279278050E-1,-1.249816298E0,1.455040693E0,1.633821368E0
5.299275380E-1,-1.243707657E0,1.443434238E0,1.591060758E0
5.319273380E-1,-1.245540142E0,1.436103940E0,1.538526416E0
5.339271380E-1,-1.252870560E0,1.434882164E0,1.512870073E0
5.359268710E-1,-1.267531395E0,1.431827784E0,1.463389993E0
5.379266040E-1,-1.298685431E0,1.411058307E0,1.413909912E0
5.399263370E-1,-1.313346148E0,1.387234569E0,1.394362211E0
5.419260700E-1,-1.346333027E0,1.315152645E0,1.355266809E0
5.439258030E-1,-1.375654578E0,1.225966215E0,1.333275795E0
5.459255360E-1,-1.386649966E0,1.181983829E0,1.327777982E0
5.479253360E-1,-1.395812988E0,1.074471712E0,1.328388810E0
5.499250690E-1,-1.397034764E0,9.345834851E-1,1.340606093E0
5.519243690E-1,-1.391536951E0,8.557819128E-1,1.354045153E0
5.539241020E-1,-1.367102385E0,7.000112534E-1,1.385810018E0
5.559238350E-1,-1.349387288E0,6.315943599E-1,1.407801270E0
5.579235680E-1,-1.310291886E0,5.063669682E-1,1.454837918E0
5.599233010E-1,-1.272418261E0,3.927460313E-1,1.506761432E0
5.619235340E-1,-1.257757425E0,3.389899135E-1,1.534861207E0
5.639229000E-1,-1.234544516E0,2.400297225E-1,1.601445556E0
5.659226330E-1,-1.213164330E0,1.514542699E-1,1.676581979E0
5.679223660E-1,-1.207666516E0,1.135806218E-1,1.712623000E0
5.699216660E-1,-1.195449233E0,4.821803793E-2,1.782872558E0
5.719213990E-1,-1.191173196E0,-2.483777935E-3,1.832352638E0
5.739211320E-1,-1.190562248E0,-1.836627349E-2,1.848845959E0
5.759208650E-1,-1.189951420E0,-4.219001904E-2,1.872669697E0
5.779206650E-1,-1.183231950E0,-5.685078353E-2,1.899547696E0
5.799203980E-1,-1.178344965E0,-5.990510806E-2,1.912986875E0
5.819206980E-1,-1.172236323E0,-5.074213445E-2,1.928258419E0
5.839204310E-1,-1.156964779E0,-2.814011835E-2,1.933145404E0
5.859201640E-1,-1.149634361E0,-6.511823740E-4,1.932534575E0
5.879203300E-1,-1.127032399E0,1.038067788E-1,1.905045509E0
5.899200630E-1,-1.092823863E0,2.003234923E-1,1.853122115E0
5.919197960E-1,-1.072665334E0,2.284232825E-1,1.813415766E0
5.939195960E-1,-1.021352649E0,2.772925198E-1,1.722396851E0
5.959193290E-1,-9.511031508E-1,3.249399960E-1,1.621604085E0
5.979190620E-1,-9.181163907E-1,3.463202715E-1,1.568458915E0
5.999187950E-1,-8.435908556E-1,3.512071967E-1,1.464000821E0
6.019185280E-1,-7.776174545E-1,3.231073916E-1,1.371149302E0
6.039182610E-1,-7.531828284E-1,3.053922951E-1,1.332664847E0
6.059179940E-1,-7.092005014E-1,2.662969232E-1,1.280130386E0
6.079174600E-1,-6.798789501E-1,2.308667451E-1,1.245311141E0
6.099172600E-1,-6.749920845E-1,2.088755965E-1,1.239202499E0
6.119174260E-1,-6.737703085E-1,1.703910828E-1,1.233093739E0
6.139171590E-1,-6.933180094E-1,1.361826360E-1,1.241034985E0
6.159168920E-1,-7.079787850E-1,1.172458082E-1,1.249587178E0
6.179163250E-1,-7.403545976E-1,8.364822716E-2,1.273410916E0
6.199160580E-1,-7.849478126E-1,5.554841831E-2,1.303343296E0
6.219153580E-1,-8.063280582E-1,4.577457905E-2,1.318614960E0
6.239155240E-1,-8.533647060E-1,3.172467649E-2,1.346103907E0
6.259153240E-1,-8.973469734E-1,2.867034823E-2,1.370538473E0
6.279150570E-1,-9.132294655E-1,2.195083164E-2,1.381534100E0
6.299152230E-1,-9.327771664E-1,1.217698772E-2,1.404136062E0
6.319149560E-1,-9.419401884E-1,4.846605007E-3,1.423072934E0
6.339146890E-1,-9.394966960E-1,-6.511823740E-4,1.429181576E0
6.359144220E-1,-9.223924279E-1,-1.653367840E-2,1.445674896E0
6.379141550E-1,-8.900166154E-1,-3.241617605E-2,1.458503008E0
6.399139550E-1,-8.692471981E-1,-4.646607488E-2,1.468276978E0
6.419127210E-1,-8.173236847E-1,-6.784635782E-2,1.484770298E0
6.439124540E-1,-7.702870369E-1,-8.311799169E-2,1.503096223E0
6.459121870E-1,-7.452415824E-1,-9.105924517E-2,1.509815812E0
6.479119200E-1,-7.006483674E-1,-1.008330807E-1,1.525087357E0
6.499116530E-1,-6.829332709E-1,-1.020548120E-1,1.533639550E0
6.519113860E-1,-6.481139660E-1,-1.142721176E-1,1.538526416E0
6.539111190E-1,-6.297880411E-1,-1.044982746E-1,1.539748192E0
6.559109190E-1,-6.279554367E-1,-1.020548120E-1,1.537304640E0
6.579106520E-1,-6.273445487E-1,-9.105924517E-2,1.516535282E0
6.599099180E-1,-6.450596452E-1,-6.540290266E-2,1.484770298E0
6.619096510E-1,-6.572769880E-1,-5.135299638E-2,1.468276978E0
6.639093840E-1,-6.908745766E-1,-1.897714101E-2,1.434068441E0
6.659091170E-1,-7.281373143E-1,1.523131412E-2,1.409022927E0
6.679091170E-1,-7.464632392E-1,4.088765383E-2,1.397416472E0
6.699088500E-1,-7.837260962E-1,9.891985357E-2,1.361375451E0
6.719086500E-1,-8.191562295E-1,1.532868594E-1,1.323501825E0
6.739084160E-1,-8.283191919E-1,1.703910828E-1,1.306397557E0
6.759081820E-1,-8.460342884E-1,1.905496418E-1,1.266691446E0
6.779082480E-1,-8.631385565E-1,1.966582984E-1,1.236759067E0
6.799080140E-1,-8.655820489E-1,1.960474253E-1,1.220876455E0
6.819077800E-1,-8.668037057E-1,1.948256940E-1,1.200717926E0
6.839075460E-1,-8.704689145E-1,1.960474253E-1,1.185446262E0
6.859073120E-1,-8.692471981E-1,2.003234923E-1,1.178726792E0
6.879071450E-1,-8.692471981E-1,2.088755965E-1,1.166509509E0
6.899069110E-1,-8.674145937E-1,2.253689617E-1,1.160400867E0
6.919066770E-1,-8.674145937E-1,2.326993346E-1,1.160400867E0
6.939064430E-1,-8.668037057E-1,2.473601103E-1,1.153681278E0
6.959062090E-1,-8.698580265E-1,2.638534606E-1,1.142074823E0
6.979059750E-1,-8.716906905E-1,2.711838484E-1,1.128025055E0
6.999057410E-1,-8.802428246E-1,2.882880867E-1,1.093816519E0
7.019055410E-1,-9.004012942E-1,3.090575039E-1,1.040060401E0
7.039053740E-1,-9.132294655E-1,3.188313246E-1,1.010738850E0
7.059051400E-1,-9.498814344E-1,3.396007717E-1,9.508740902E-1
7.079049060E-1,-1.003026724E0,3.628136218E-1,8.965070844E-1
7.099046720E-1,-1.031737328E0,3.756418228E-1,8.757376075E-1
7.119044380E-1,-1.094656467E0,3.927460313E-1,8.305336237E-1
7.139038710E-1,-1.159408212E0,4.049633443E-1,8.024338484E-1
7.159036370E-1,-1.193005681E0,4.061850607E-1,7.877730727E-1
7.179034700E-1,-1.254703164E0,4.067959189E-1,7.670035958E-1
7.199033360E-1,-1.312124491E0,3.805287182E-1,7.498993874E-1
7.219031020E-1,-1.339613438E0,3.725875020E-1,7.431798577E-1
7.239028680E-1,-1.401310802E0,3.493745923E-1,7.279082537E-1
7.259026340E-1,-1.456899524E0,3.224965334E-1,7.144692540E-1
7.279024000E-1,-1.488053679E0,3.060031831E-1,7.077497244E-1
7.299021660E-1,-1.545475006E0,2.858445942E-1,6.930889487E-1
7.319019320E-1,-1.604729056E0,2.858445942E-1,6.882020235E-1
7.339017320E-1,-1.635272264E0,2.864554822E-1,6.857585311E-1
7.359015320E-1,-1.678643703E0,2.913424075E-1,6.772063971E-1
7.379012650E-1,-1.700634718E0,2.907315493E-1,6.741520762E-1
7.399009980E-1,-1.750114918E0,2.381971329E-1,6.710977554E-1
7.419007310E-1,-1.813034058E0,1.074719727E-1,6.656000018E-1
7.439004640E-1,-1.845409870E0,2.195083164E-2,6.625456810E-1
7.459001970E-1,-1.906496286E0,-1.081634685E-1,6.466631293E-1
7.478999300E-1,-1.928487539E0,-9.105924517E-2,6.509392262E-1
7.498997300E-1,-1.924211383E0,-3.363790363E-2,6.649891138E-1
7.518994630E-1,-1.895500898E0,9.586552531E-2,7.083605528E-1
7.538991960E-1,-1.840523005E0,1.752780080E-1,7.560080290E-1
7.558989290E-1,-1.813644886E0,1.807758063E-1,7.804427147E-1
7.578986620E-1,-1.766608238E0,1.294631213E-1,8.317552805E-1
7.598983950E-1,-1.737897635E0,4.516371340E-2,8.671855330E-1
7.618985610E-1,-1.725680351E0,3.624874400E-3,8.818463087E-1
7.638982940E-1,-1.714684725E0,-2.875098400E-2,8.934527636E-1
7.658980940E-1,-1.709186912E0,-1.409021765E-2,8.903983831E-1
7.678978270E-1,-1.705521703E0,-6.511823740E-4,8.800136447E-1
7.698975600E-1,-1.684141517E0,-5.929424614E-2,8.225923181E-1
7.718972930E-1,-1.663372040E0,-1.411501914E-1,7.896056771E-1
7.738969260E-1,-1.675589323E0,-1.399284452E-1,8.012120724E-1
7.758966590E-1,-1.725069404E0,-8.128539473E-2,8.372530937E-1
7.778963920E-1,-1.770884275E0,-6.511823740E-4,8.714616299E-1
7.798965580E-1,-1.793486357E0,4.577457905E-2,8.922310472E-1
7.818963580E-1,-1.816699266E0,1.288522482E-1,9.435436726E-1
7.838960910E-1,-1.825862169E0,1.936039627E-1,1.003408432E0
7.858958240E-1,-1.823418736E0,2.229254842E-1,1.040060401E0
7.878955570E-1,-1.813034058E0,2.797359526E-1,1.111531615E0
7.898952900E-1,-1.800816655E0,3.298268914E-1,1.189722419E0
7.918954900E-1,-1.787988544E0,3.408224881E-1,1.229428530E0
7.938952230E-1,-1.765386462E0,3.573158681E-1,1.303954244E0
7.958949560E-1,-1.747671366E0,3.402116299E-1,1.379090548E0
7.978947560E-1,-1.741562724E0,3.206639290E-1,1.410855532E0
7.998944890E-1,-1.737286687E0,2.461383790E-1,1.480494261E0
8.018942220E-1,-1.753169179E0,1.367935091E-1,1.537915468E0
8.038939550E-1,-1.764164805E0,7.448524237E-2,1.566626191E0
8.058927550E-1,-1.789210200E0,-3.791396320E-2,1.600834727E0
8.078924880E-1,-1.822197080E0,-1.319872141E-1,1.625880122E0
8.098922210E-1,-1.839912057E0,-1.716934443E-1,1.633210540E0
8.118920210E-1,-1.870455265E0,-2.303365171E-1,1.644206047E0
8.138923870E-1,-1.895500898E0,-2.621015012E-1,1.644206047E0
8.158921200E-1,-1.905274630E0,-2.669884264E-1,1.642984390E0
8.178918530E-1,-1.918713689E0,-2.590471804E-1,1.640540838E0
8.198915860E-1,-1.919324636E0,-2.388886213E-1,1.636875749E0
8.218913190E-1,-1.913826823E0,-2.230061293E-1,1.633210540E0
8.238910520E-1,-1.894279003E0,-1.729151756E-1,1.624658465E0
8.258907850E-1,-1.864346623E0,-1.075525954E-1,1.611830235E0
8.278905850E-1,-1.846631646E0,-6.784635782E-2,1.599002123E0
8.298903180E-1,-1.804481983E0,3.477900475E-2,1.574567556E0
8.318900510E-1,-1.780658126E0,9.220033139E-2,1.559906721E0
8.338902170E-1,-1.732399821E0,2.278124243E-1,1.524476528E0
8.358899500E-1,-1.667037249E0,3.927460313E-1,1.484770298E0
8.378896830E-1,-1.632217884E0,4.923170805E-1,1.472553015E0
8.398894160E-1,-1.521040440E0,7.281110883E-1,1.498209357E0
8.418891490E-1,-1.322509170E0,1.007276535E0,1.696740508E0
8.438889490E-1,-1.219272971E0,1.088521600E0,1.748053193E0
8.458886820E-1,-1.044565558E0,1.231464028E0,1.814637542E0
8.478884150E-1,-9.730942845E-1,1.466036201E0,1.902602196E0
8.498881480E-1,-9.553791881E-1,1.547892213E0,1.940475702E0
8.518874140E-1,-9.107860327E-1,1.606535316E0,1.992399335E0
8.538871470E-1,-8.655820489E-1,1.602870107E0,2.027218580E0
8.558868800E-1,-8.539755940E-1,1.596150517E0,2.043712139E0
8.578866130E-1,-8.387039304E-1,1.578435421E0,2.069979191E0
8.598864130E-1,-8.509212732E-1,1.567439914E0,2.102965832E0
8.618861460E-1,-8.729124069E-1,1.585765839E0,2.132287264E0
8.638858790E-1,-9.840898514E-1,1.726264834E0,2.302718639E0
8.658865450E-1,-1.110538960E0,1.795292616E0,2.446882963E0
8.678862780E-1,-1.177734137E0,1.792849064E0,2.509191513E0
8.698860110E-1,-1.310291886E0,1.739703894E0,2.617925406E0
8.718857440E-1,-1.442849636E0,1.646852374E0,2.710776806E0
8.738849100E-1,-1.511877418E0,1.599815845E0,2.760867596E0
8.758847100E-1,-1.666426420E0,1.497190475E0,2.842723608E0
8.778844430E-1,-1.824640393E0,1.386012912E0,2.925190449E0
8.798841760E-1,-1.904052973E0,1.323704720E0,2.963675022E0
8.818836760E-1,-2.064099550E0,1.183816552E0,3.037589788E0
8.838834090E-1,-2.224146128E0,1.029267550E0,3.102341652E0
8.858831420E-1,-2.303558826E0,9.480225444E-1,3.137771845E0
8.878828750E-1,-2.455053568E0,7.861432433E-1,3.197636366E0
8.898826750E-1,-2.598606586E0,6.096032262E-1,3.256890297E0
8.918824750E-1,-2.670688629E0,5.228603482E-1,3.276437998E0
8.938822080E-1,-2.805690050E0,3.505963385E-1,3.316755056E0
8.958819410E-1,-2.926641464E0,1.911605000E-1,3.349741936E0
8.978816740E-1,-2.988338709E0,1.184675395E-1,3.358904839E0
8.998814070E-1,-3.102570534E0,-4.927238915E-3,3.374176502E0
9.018811400E-1,-3.207028627E0,-1.099960655E-1,3.379674435E0
9.038808730E-1,-3.257730246E0,-1.497022957E-1,3.379063368E0
9.058806730E-1,-3.355468750E0,-2.113996893E-1,3.363791704E0
9.078804390E-1,-3.443433285E0,-2.480515987E-1,3.339357138E0
9.098802050E-1,-3.489248276E0,-2.651558220E-1,3.324085474E0
9.118799710E-1,-3.580878019E0,-2.804274559E-1,3.282546520E0
9.138797370E-1,-3.667620897E0,-2.840926647E-1,3.230012178E0
9.158795030E-1,-3.712213993E0,-2.810383439E-1,3.202523470E0
9.178792690E-1,-3.804454565E0,-2.694318891E-1,3.146323681E0
9.198790350E-1,-3.902803898E0,-2.462190092E-1,3.079739571E0
9.218788680E-1,-3.952284098E0,-2.321691066E-1,3.049196243E0
9.238787340E-1,-4.041470528E0,-2.150648832E-1,2.983222723E0
9.258786000E-1,-4.084841728E0,-2.077344954E-1,2.949014187E0
9.278784660E-1,-4.162421703E0,-2.126214355E-1,2.879375696E0
9.298783320E-1,-4.227173328E0,-2.248387337E-1,2.814013004E0
9.318781980E-1,-4.255884171E0,-2.352234274E-1,2.776750326E0
9.338780640E-1,-4.306585789E0,-2.590471804E-1,2.707111597E0
9.358779300E-1,-4.346292019E0,-2.944773436E-1,2.629531622E0
9.378778630E-1,-4.364007473E0,-3.152467906E-1,2.591658115E0
9.398777960E-1,-4.393328667E0,-3.506769836E-1,2.501860857E0
9.418779620E-1,-4.418374538E0,-3.799985051E-1,2.400457382E0
9.438778950E-1,-4.431813240E0,-3.867180049E-1,2.347311974E0
9.458778280E-1,-4.453193188E0,-4.026005268E-1,2.234302044E0
9.478777610E-1,-4.473962784E0,-4.166504145E-1,2.112128973E0
9.498776940E-1,-4.478239059E0,-4.313111901E-1,2.051042557E0
9.518776270E-1,-4.495954037E0,-4.307003319E-1,1.929480195E0
9.538776270E-1,-4.515501976E0,-4.160395563E-1,1.819524407E0
9.558775930E-1,-4.522831917E0,-4.166504145E-1,1.764546514E0
9.578775590E-1,-4.539325714E0,-4.307003319E-1,1.657645106E0
9.598775250E-1,-4.550931931E0,-4.728499949E-1,1.560517550E0
9.618774910E-1,-4.558262348E0,-4.911759496E-1,1.516535282E0
9.638774570E-1,-4.579031944E0,-5.247735381E-1,1.437733650E0
9.658774230E-1,-4.601634026E0,-5.498190522E-1,1.369927645E0
9.678774230E-1,-4.612629414E0,-5.797514915E-1,1.339384437E0
9.698774230E-1,-4.633399010E0,-6.506118178E-1,1.277686954E0
9.718773890E-1,-4.658444405E0,-7.434633374E-1,1.213546157E0
9.738773550E-1,-4.670050621E0,-8.094367385E-1,1.185446262E0
9.758773210E-1,-4.569257736E0,-1.532090306E0,1.187278986E0
9.778772870E-1,-4.143485069E0,-3.348803759E0,1.306397557E0
9.798772530E-1,-3.944342852E0,-3.933401585E0,1.368094921E0
9.818768860E-1,-3.618140936E0,-4.441030979E0,1.473163843E0
9.838768190E-1,-3.324314594E0,-4.775173664E0,1.526920080E0
9.858767520E-1,-3.177706957E0,-4.955379486E0,1.540359020E0
9.878766850E-1,-2.902206898E0,-5.247372627E0,1.550132871E0
9.898766180E-1,-2.623651981E0,-5.494773388E0,1.569069743E0
9.918765510E-1,-2.478877306E0,-5.597398281E0,1.584952116E0
9.938764840E-1,-2.168557644E0,-5.761110306E0,1.611830235E0
9.958764170E-1,-1.849075079E0,-5.843577385E0,1.635043144E0
9.978763500E-1,-1.632828712E0,-5.761721134E0,1.633210540E0
9.998762830E-1,-1.027461290E0,-5.343278885E0,1.602667212E0
1.001877483E0,-2.669340372E-1,-4.729969501E0,1.594726086E0
1.003877349E0,1.570064276E-1,-4.378111362E0,1.587395668E0
1.005877215E0,1.055589199E0,-3.662177563E0,1.556241632E0
1.007876648E0,1.933402538E0,-3.003664732E0,1.513480902E0
1.009876514E0,2.330464840E0,-2.702507973E0,1.490878940E0
1.011876380E0,2.987144947E0,-2.174720764E0,1.457892179E0
1.013876246E0,3.466063499E0,-1.734897614E0,1.434679270E0
1.015876146E0,3.643214464E0,-1.557135820E0,1.429792404E0
1.017875979E0,3.894279957E0,-1.288965940E0,1.407190442E0
1.019875812E0,3.977968454E0,-1.191227555E0,1.391307831E0
1.021875645E0,4.107471943E0,-1.062335014E0,1.361986279E0
1.023875478E0,4.211929798E0,-9.688726068E-1,1.374203682E0
1.025875311E0,4.263853550E0,-9.383293390E-1,1.403525233E0
1.027875144E0,4.343266010E0,-9.364967942E-1,1.467666030E0
1.029874977E0,4.387248039E0,-9.933071733E-1,1.523865700E0
1.031874843E0,4.397632599E0,-1.035456896E0,1.553798079E0
1.033874643E0,4.407406807E0,-1.146634340E0,1.609386802E0
1.035874443E0,4.405574322E0,-1.290187716E0,1.672305942E0
1.037874243E0,4.403741837E0,-1.370821953E0,1.714455605E0
1.039874043E0,4.390913486E0,-1.540031672E0,1.801809311E0
1.041874176E0,4.370754719E0,-1.709852219E0,1.907489061E0
1.043873976E0,4.360370159E0,-1.789875507E0,1.961245060E0
1.045873776E0,4.335935593E0,-1.931596160E0,2.063259840E0
1.047873576E0,4.302948952E0,-2.043995380E0,2.153667688E0
1.049873309E0,4.284623146E0,-2.088588715E0,2.192152262E0
1.051873042E0,4.235142708E0,-2.149675131E0,2.250184298E0
1.053872775E0,4.172223568E0,-2.158227205E0,2.287447214E0
1.055872508E0,4.133128643E0,-2.144788027E0,2.294166803E0
1.057872241E0,4.044552803E0,-2.077593088E0,2.295999289E0
1.059871974E0,3.933375359E0,-1.964582920E0,2.281338692E0
1.061870440E0,3.879619122E0,-1.890668154E0,2.264234304E0
1.063870240E0,3.744617939E0,-1.728178144E0,2.219030380E0
1.065869973E0,3.594345331E0,-1.551027179E0,2.163441658E0
1.067870139E0,3.513710976E0,-1.455732226E0,2.133509159E0
1.069869872E0,3.339003325E0,-1.257811904E0,2.059594393E0
1.071869605E0,3.140472174E0,-1.070276260E0,1.994842768E0
1.073869338E0,3.034181595E0,-9.774246812E-1,1.969797254E0
1.075869071E0,2.813048601E0,-8.149345517E-1,2.036381483E0
1.077868871E0,2.587639093E0,-6.341184974E-1,2.160387278E0
1.079868604E0,2.466077089E0,-5.504299402E-1,2.205591202E0
1.081868337E0,2.196074724E0,-4.270351231E-1,2.248351812E0
1.083868070E0,1.896750569E0,-3.183011115E-1,2.263623476E0
1.085867803E0,1.752586484E0,-2.553820014E-1,2.273397207E0
1.087867536E0,1.492968798E0,-8.678317815E-2,2.303329945E0
1.089867269E0,1.274278879E0,1.196892709E-1,2.338759899E0
1.091866502E0,1.175929666E0,2.424731851E-1,2.353420734E0
1.093866302E0,9.951135516E-1,5.063669682E-1,2.375411749E0
1.095866035E0,8.454515338E-1,8.148539662E-1,2.391294241E0
1.097865768E0,7.831432819E-1,9.736788869E-1,2.393737793E0
1.099865501E0,6.640245914E-1,1.309044003E0,2.383352995E0
1.101865234E0,5.797251463E-1,1.644408941E0,2.350977182E0
1.103864967E0,5.461275578E-1,1.810564160E0,2.328986168E0
1.105864700E0,4.997017980E-1,2.133100986E0,2.269732237E0
1.107864433E0,4.844301641E-1,2.288871765E0,2.233691216E0
1.109864233E0,4.667150974E-1,2.585141420E0,2.160998106E0
1.111863966E0,4.667150974E-1,2.866750240E0,2.080363989E0
1.113863699E0,4.691585600E-1,2.993199348E0,2.040046692E0
1.115862499E0,4.825975895E-1,3.230215073E0,1.961856127E0
1.117862232E0,4.978692234E-1,3.431800604E0,1.887941360E0
1.119861965E0,5.088648200E-1,3.514878511E0,1.861063242E0
1.121862965E0,5.229146481E-1,3.653544664E0,1.815859199E0
1.123862698E0,5.326885581E-1,3.743952990E0,1.790202856E0
1.125862498E0,5.363537669E-1,3.778161049E0,1.777374744E0
1.127862231E0,5.314667821E-1,3.823976040E0,1.762714028E0
1.129862464E0,5.259690285E-1,3.847188950E0,1.740111947E0
1.131862197E0,5.210821033E-1,3.848410606E0,1.733392477E0
1.133861930E0,5.094756484E-1,3.848410606E0,1.711401224E0
1.135861663E0,4.966474771E-1,3.835582495E0,1.686355829E0
1.137861396E0,4.905388355E-1,3.827641249E0,1.674138546E0
1.139861196E0,4.844301641E-1,3.812980413E0,1.653980017E0
1.141860996E0,4.819867313E-1,3.798319817E0,1.636875749E0
1.143860729E0,4.874845147E-1,3.792211294E0,1.631377935E0
1.145860462E0,4.966474771E-1,3.786713362E0,1.614884615E0
1.147860195E0,5.113082528E-1,3.780604839E0,1.599612951E0
1.149859928E0,5.198603272E-1,3.783048153E0,1.593504310E0
1.151860161E0,5.369645953E-1,3.784880877E0,1.569069743E0
1.153859894E0,5.534579754E-1,3.774496078E0,1.532417774E0
1.155859694E0,5.589557290E-1,3.765332937E0,1.509815812E0
1.157859427E0,5.693404675E-1,3.745785475E0,1.466444373E0
1.159859160E0,5.730056763E-1,3.713409424E0,1.406579614E0
1.161858893E0,5.760599971E-1,3.695083380E0,1.378479719E0
1.163858626E0,5.717839599E-1,3.665151119E0,1.312506318E0
1.165858359E0,5.760599971E-1,3.645603418E0,1.255084991E0
1.167858092E0,5.760599971E-1,3.635218859E0,1.231261253E0
1.169857825E0,5.766708255E-1,3.635829687E0,1.179948449E0
1.171857625E0,5.791143179E-1,3.632164478E0,1.150016069E0
1.173857358E0,5.791143179E-1,3.630942583E0,1.137187958E0
1.175858024E0,5.772816539E-1,3.607729673E0,1.126192331E0
1.177857757E0,5.772816539E-1,3.588182211E0,1.129857540E0
1.179857490E0,5.778926015E-1,3.581462622E0,1.138409615E0
1.181855923E0,5.711730123E-1,3.544199944E0,1.165287733E0
1.183855656E0,5.675078630E-1,3.506326199E0,1.206826687E0
1.185855389E0,5.668969750E-1,3.480059147E0,1.233704686E0
1.187855189E0,5.589557290E-1,3.436687469E0,1.289904356E0
1.189854422E0,5.473493338E-1,3.399424791E0,1.353434205E0
1.191854155E0,5.461275578E-1,3.378044367E0,1.388864517E0
1.193854721E0,5.363537669E-1,3.341392517E0,1.467055202E0
1.195854454E0,5.302450657E-1,3.291912556E0,1.561128378E0
1.197854187E0,5.290233493E-1,3.268699646E0,1.611219406E0
1.199853920E0,5.265799165E-1,3.228993416E0,1.713233829E0
1.201853653E0,5.271907449E-1,3.217997789E0,1.768211842E0
1.203853453E0,5.180277824E-1,3.194784880E0,1.871448040E0
1.205853186E0,5.155842900E-1,3.185010910E0,1.974684238E0
1.207852919E0,5.100865364E-1,3.183789253E0,2.021720886E0
1.209852652E0,4.984801114E-1,3.180124283E0,2.115183115E0
1.211852385E0,4.813758433E-1,3.161187172E0,2.206813097E0
1.213852118E0,4.679368138E-1,3.143472195E0,2.249573469E0
1.215851851E0,4.361718297E-1,3.076887846E0,2.338148832E0
1.217851651E0,4.111263752E-1,2.987701654E0,2.418172359E0
1.219851451E0,4.044068158E-1,2.932723522E0,2.457267761E0
1.221851184E0,3.934112489E-1,2.817881107E0,2.521408796E0
1.223850917E0,3.909678161E-1,2.687155962E0,2.574553967E0
1.225850650E0,3.879134953E-1,2.617517233E0,2.594712496E0
1.227850383E0,3.928004205E-1,2.465411901E0,2.643581629E0
1.229850116E0,4.117372036E-1,2.288871765E0,2.681455374E0
1.231849849E0,4.166241586E-1,2.203350544E0,2.700392008E0
1.233849315E0,4.477782845E-1,2.028032303E0,2.737043858E0
1.235849115E0,4.929822981E-1,1.871650815E0,2.773695946E0
1.237848848E0,5.253581405E-1,1.806899071E0,2.792632818E0
1.239848581E0,6.163770556E-1,1.725654006E0,2.828673840E0
1.241848347E0,7.611521482E-1,1.739703894E0,2.857995272E0
1.243848080E0,8.527818918E-1,1.791627407E0,2.866547346E0
1.245847813E0,1.069028139E0,1.944954634E0,2.883651495E0
1.247847546E0,1.302378774E0,2.148983717E0,2.887927771E0
1.249847346E0,1.422719240E0,2.258328676E0,2.889760256E0
1.251847079E0,1.655458808E0,2.470909595E0,2.886706114E0
1.253845979E0,1.873537779E0,2.661499500E0,2.886706114E0
1.255845712E0,1.967610955E0,2.728694916E0,2.889149427E0
1.257845445E0,2.134988070E0,2.820324421E0,2.897701740E0
1.259845178E0,2.264491558E0,2.834374428E0,2.917860031E0
1.261844911E0,2.312749863E0,2.817270279E0,2.927023172E0
1.263844644E0,2.387275457E0,2.734192610E0,2.945349216E0
1.265844444E0,2.431868553E0,2.611408710E0,2.952679396E0
1.267844177E0,2.446529388E0,2.539937258E0,2.950846910E0
1.269843910E0,2.455081463E0,2.395162344E0,2.930688143E0
1.271843643E0,2.456303120E0,2.270545959E0,2.887316942E0
1.273843376E0,2.451416254E0,2.224120140E0,2.856162786E0
1.275843109E0,2.447140217E0,2.160590172E0,2.781026363E0
1.277842842E0,2.443475008E0,2.142874956E0,2.695505142E0
1.279842575E0,2.440420628E0,2.149594545E0,2.648468494E0
1.281842375E0,2.434922934E0,2.187468052E0,2.555006027E0
1.283842108E0,2.433701277E0,2.247943878E0,2.463376522E0
1.285841841E0,2.425149202E0,2.281541348E0,2.420004845E0
1.287841574E0,2.412320852E0,2.363397121E0,2.341814280E0
1.289841307E0,2.389719009E0,2.440977335E0,2.277673244E0
1.291841040E0,2.374447346E0,2.479461670E0,2.250795364E0
1.293841106E0,2.335962534E0,2.544824123E0,2.208645582E0
1.295840839E0,2.314582586E0,2.570480824E0,2.192763090E0
1.297840639E0,2.264491558E0,2.621793270E0,2.172604561E0
1.299840372E0,2.189965963E0,2.631567240E0,2.165274143E0
1.301840105E0,2.108110189E0,2.623625994E0,2.168939352E0
1.303839838E0,2.061073542E0,2.614462852E0,2.177491426E0
1.305839571E0,1.971887112E0,2.596137047E0,2.200704336E0
1.307839304E0,1.927904844E0,2.591860771E0,2.217197657E0
1.309839037E0,1.851546645E0,2.597969532E0,2.258125782E0
1.311838837E0,1.783740640E0,2.629734516E0,2.312492609E0
1.313838637E0,1.755640745E0,2.651725769E0,2.339981794E0
1.315838370E0,1.715323567E0,2.714033842E0,2.404122591E0
1.317838103E0,1.685391188E0,2.777564049E0,2.472539425E0
1.319837836E0,1.677450061E0,2.806885481E0,2.508580208E0
1.321837569E0,1.664621830E0,2.857587337E0,2.576997280E0
1.323837302E0,1.660956621E0,2.888130665E0,2.638694763E0
1.325837035E0,1.660345793E0,2.893017530E0,2.669848919E0
1.327836835E0,1.658513188E0,2.884465218E0,2.726048470E0
1.329836568E0,1.659734845E0,2.846591711E0,2.777361155E0
1.331836301E0,1.659734845E0,2.822157145E0,2.799352407E0
1.333836034E0,1.665843606E0,2.764125109E0,2.841501951E0
1.335835767E0,1.664621830E0,2.696929693E0,2.873878002E0
1.337835500E0,1.664011002E0,2.664553881E0,2.892203808E0
1.339836400E0,1.664011002E0,2.589417458E0,2.911751509E0
1.341836133E0,1.659734845E0,2.522833347E0,2.926412344E0
1.343835933E0,1.656069756E0,2.487403154E0,2.930077314E0
1.345835666E0,1.653015375E0,2.430592537E0,2.932521105E0
1.347835399E0,1.646295905E0,2.380501509E0,2.930077314E0
1.349835132E0,1.638354659E0,2.364619255E0,2.923357964E0
1.351834865E0,1.634689450E0,2.338351727E0,2.916027546E0
1.353834598E0,1.618196011E0,2.335908413E0,2.898312569E0
1.355834331E0,1.613920093E0,2.342628002E0,2.895257950E0
1.357834064E0,1.602924466E0,2.371949434E0,2.885484457E0
1.359833864E0,1.596204996E0,2.420207739E0,2.881819010E0
1.361834364E0,1.593150616E0,2.451361895E0,2.883040667E0
1.363834097E0,1.595594168E0,2.522833347E0,2.889149427E0
1.365833830E0,1.600480914E0,2.607743502E0,2.903810263E0
1.367833563E0,1.604146242E0,2.654169083E0,2.910529852E0
1.369833296E0,1.621861339E0,2.748242378E0,2.930077314E0
1.371833029E0,1.638965487E0,2.841704845E0,2.952068567E0
1.373832762E0,1.650571942E0,2.887519836E0,2.964896679E0
1.375832562E0,1.670119643E0,2.974873543E0,2.989331245E0
1.377832295E0,1.690889001E0,3.062227011E0,3.017431259E0
1.379832028E0,1.699441195E0,3.102544308E0,3.032092094E0
1.381831761E0,1.723264933E0,3.184400082E0,3.062024355E0
1.383831494E0,1.732427835E0,3.260147572E0,3.080961227E0
1.385831227E0,1.753197312E0,3.296188593E0,3.116391420E0
1.387830960E0,1.772134185E0,3.360940218E0,3.154875994E0
1.389830760E0,1.783129811E0,3.389039993E0,3.175034523E0
1.391830560E0,1.800844908E0,3.432411432E0,3.207410097E0
1.393830326E0,1.820392489E0,3.447683096E0,3.237953663E0
1.395830092E0,1.827722907E0,3.444017887E0,3.247727394E0
1.397829858E0,1.847881436E0,3.416528940E0,3.265442371E0
1.399828458E0,1.863153100E0,3.366437912E0,3.270329237E0
1.401828224E0,1.878424644E0,3.330396891E0,3.274605513E0
1.403827990E0,1.903470039E0,3.245486736E0,3.277659655E0
1.405827823E0,1.935235143E0,3.141639709E0,3.280103207E0
1.407827656E0,1.951728463E0,3.081164122E0,3.283768654E0
1.409828189E0,1.985936999E0,2.954103947E0,3.284990311E0
1.411827955E0,2.029308319E0,2.803220272E0,3.293542147E0
1.413827721E0,2.051299572E0,2.725029469E0,3.297207594E0
1.415827487E0,2.097725391E0,2.555208921E0,3.308203220E0
1.417827253E0,2.147816181E0,2.381723404E0,3.317976713E0
1.419827019E0,2.176526785E0,2.291925907E0,3.321642160E0
1.421827152E0,2.233948231E0,2.115386009E0,3.327750683E0
1.423826918E0,2.291980505E0,1.943732858E0,3.334470272E0
1.425826684E0,2.323745251E0,1.861266136E0,3.336913824E0
1.427826684E0,2.386664629E0,1.701830149E0,3.339357138E0
1.429826450E0,2.449583769E0,1.555222631E0,3.341800451E0
1.431826216E0,2.477683544E0,1.484973192E0,3.343633413E0
1.433825982E0,2.532050610E0,1.349971890E0,3.345465899E0
1.435825748E0,2.577865362E0,1.234518290E0,3.346076727E0
1.437825581E0,2.598634720E0,1.175875187E0,3.348520279E0
1.439825347E0,2.629788876E0,1.080580354E0,3.351574421E0
1.441825113E0,2.663997412E0,9.895613790E-1,3.344244242E0
1.443824879E0,2.675603867E0,9.339726567E-1,3.330805063E0
1.445824645E0,2.692708015E0,7.757585645E-1,3.288655281E0
1.447824411E0,2.726305723E0,6.059380174E-1,3.255668640E0
1.449824177E0,2.746464014E0,5.405754447E-1,3.248949289E0
1.451823943E0,2.773953199E0,4.917061925E-1,3.252614260E0
1.453823743E0,2.769066095E0,5.155299902E-1,3.254446983E0
1.455823476E0,2.754405499E0,5.430188775E-1,3.248338223E0
1.457823209E0,2.695762396E0,6.047162414E-1,3.214129925E0
1.459822942E0,2.609019518E0,6.450333595E-1,3.151821613E0
1.461822675E0,2.563815355E0,6.456442475E-1,3.112725973E0
1.463822408E0,2.468520403E0,6.102140546E-1,3.029648542E0
1.465822141E0,2.379945040E0,5.417971611E-1,2.950236082E0
1.467821874E0,2.342682362E0,5.216386318E-1,2.912973166E0
1.469820907E0,2.253495932E0,5.283581018E-1,2.851275921E0
1.471820640E0,2.160033464E0,6.041054130E-1,2.804239273E0
1.473820373E0,2.111164331E0,6.499202847E-1,2.788356781E0
1.475820106E0,2.003652096E0,7.531565428E-1,2.760867596E0
1.477819839E0,1.952339411E0,7.946953773E-1,2.746817827E0
1.479819572E0,1.852157474E0,8.472297788E-1,2.712609291E0
1.481817805E0,1.762360215E0,8.447862864E-1,2.673514128E0
1.483817605E0,1.724486709E0,8.276820779E-1,2.654577255E0
1.485817405E0,1.652404547E0,7.867540717E-1,2.608151436E0
1.487816905E0,1.598648429E0,7.488805056E-1,2.565390825E0
1.489816638E0,1.569326878E0,6.963460445E-1,2.525684595E0
1.491816371E0,1.519235969E0,5.045343637E-1,2.403511763E0
1.493816104E0,1.499077439E0,3.799178898E-1,2.254460335E0
1.495815837E0,1.514959812E0,3.738092184E-1,2.183600187E0
1.497815570E0,1.568105102E0,4.293979406E-1,2.058983564E0
1.499815370E0,1.612698197E0,3.365464509E-1,2.017444849E0
1.501815103E0,1.621861339E0,1.734454185E-1,2.032716513E0
1.503814836E0,1.590096354E0,-1.552000940E-1,2.092581272E0
1.505814569E0,1.486860156E0,-2.614906430E-1,2.133509159E0
1.507814302E0,1.415999651E0,-2.608797848E-1,2.132898092E0
1.509814035E0,1.264505148E0,-3.366270661E-1,2.117626667E0
1.511813768E0,1.138056040E0,-5.711993575E-1,2.095024586E0
1.513813501E0,1.090408564E0,-7.171961069E-1,2.088916063E0
1.515813301E0,1.029932857E0,-9.707052112E-1,2.088305235E0
1.517813034E0,9.932809472E-1,-1.026293993E0,2.119459152E0
1.519812767E0,9.725115299E-1,-9.597095847E-1,2.151224375E0
1.521812500E0,9.157010317E-1,-6.884855032E-1,2.242854118E0
1.523812233E0,8.405646086E-1,-3.622834086E-1,2.341814280E0
1.525811966E0,7.947497368E-1,-2.272821814E-1,2.387629032E0
1.527811699E0,7.049525380E-1,-6.173770502E-2,2.463376522E0
1.529811665E0,6.450877786E-1,-5.318559334E-2,2.556838751E0
1.531811465E0,6.188205481E-1,-9.228096902E-2,2.593490839E0
1.533811198E0,5.565122962E-1,-2.254495919E-1,2.631975174E0
1.535810931E0,4.948149025E-1,-3.799985051E-1,2.631364346E0
1.537810664E0,4.599955678E-1,-4.508588612E-1,2.619757891E0
1.539810397E0,3.915786743E-1,-5.657015443E-1,2.576997280E0
1.541810563E0,3.188857138E-1,-6.463357806E-1,2.511634827E0
1.543810296E0,2.791794837E-1,-6.768790483E-1,2.473150253E0
1.545810029E0,2.022104561E-1,-7.312460542E-1,2.383963823E0
1.547809829E0,1.270740181E-1,-7.782826424E-1,2.279505968E0
1.549809429E0,9.164384007E-2,-7.978303432E-1,2.221473932E0
1.551809162E0,1.956173778E-2,-8.295953274E-1,2.107852697E0
1.553808895E0,-4.030305520E-2,-8.466995358E-1,1.997286201E0
1.555808628E0,-7.145718485E-2,-8.528082371E-1,1.947806120E0
1.557808361E0,-1.203263998E-1,-8.864057660E-1,1.854954600E0
1.559808094E0,-1.624761075E-1,-9.462705851E-1,1.779818296E0
1.561807894E0,-1.820237935E-1,-9.859768152E-1,1.746220589E0
1.563807694E0,-1.997388899E-1,-1.068443656E0,1.687577486E0
1.565807427E0,-1.997388899E-1,-1.174123287E0,1.645427823E0
1.567807160E0,-2.003497481E-1,-1.238875031E0,1.630767107E0
1.569806893E0,-1.917976439E-1,-1.394645572E0,1.619160652E0
1.571806626E0,-1.862998456E-1,-1.487497211E0,1.616717219E0
1.573806359E0,-1.759151518E-1,-1.692747951E0,1.629545450E0
1.575806092E0,-1.514805257E-1,-1.919989705E0,1.650925636E0
1.577805892E0,-1.374306381E-1,-2.039108515E0,1.660088658E0
1.579805625E0,-1.062765047E-1,-2.282843828E0,1.667418957E0
1.581805358E0,-6.901372224E-2,-2.523524761E0,1.655812502E0
1.583805091E0,-5.313122645E-2,-2.643254042E0,1.637486577E0
1.585804824E0,-2.136623301E-2,-2.866830826E0,1.586784840E0
1.587804557E0,-1.818545861E-3,-3.065361977E0,1.512259245E0
1.589804057E0,5.511837080E-3,-3.154548407E0,1.473163843E0
1.591803790E0,4.900971893E-3,-3.299323559E0,1.385199189E0
1.593803590E0,-4.872872028E-3,-3.411722660E0,1.298456430E0
1.595803323E0,-1.647931151E-2,-3.452650547E0,1.260582805E0
1.597803056E0,-5.007690191E-2,-3.520456791E0,1.186057091E0
1.599802789E0,-9.772438556E-2,-3.561384678E0,1.123138070E0
1.601801989E0,-1.246024594E-1,-3.574212790E0,1.093205690E0
1.603801722E0,-1.862998456E-1,-3.579099894E0,1.043725610E0
1.605801455E0,-2.620471418E-1,-3.569936752E0,9.954672456E-1
1.607801188E0,-3.054185808E-1,-3.554665327E0,9.740869403E-1
1.609801121E0,-4.013243914E-1,-3.515569925E0,9.288829565E-1
1.611800854E0,-4.978411198E-1,-3.464867830E0,8.903983831E-1
1.613800587E0,-5.522081256E-1,-3.432492256E0,8.726832867E-1
1.615800320E0,-6.584986448E-1,-3.361021042E0,8.396965861E-1
1.617800053E0,-7.721196413E-1,-3.284051657E0,8.103750348E-1
1.619799786E0,-8.252648711E-1,-3.243734837E0,7.987686396E-1
1.621799519E0,-9.291120172E-1,-3.153937578E0,7.767774463E-1
1.623799252E0,-1.022574306E0,-3.063529491E0,7.560080290E-1
1.625799052E0,-1.069000125E0,-3.014049292E0,7.468450665E-1
1.627798785E0,-1.152077794E0,-2.922419786E0,7.236322165E-1
1.629798518E0,-1.229657769E0,-2.835676670E0,6.930889487E-1
1.631798251E0,-1.261422753E0,-2.798413992E0,6.765955687E-1
1.633797984E0,-1.332283139E0,-2.715947151E0,6.246719956E-1
1.635797717E0,-1.397645593E0,-2.635923862E0,5.635855198E-1
1.637797450E0,-1.430632353E0,-2.598050356E0,5.281553268E-1
1.639797250E0,-1.488053679E0,-2.521081209E0,4.530189037E-1
1.641797050E0,-1.537533760E0,-2.454496861E0,3.742172718E-1
1.643796783E0,-1.556470633E0,-2.422731876E0,3.351218998E-1
1.645796516E0,-1.580905199E0,-2.359812737E0,2.605963349E-1
1.647796249E0,-1.596176863E0,-2.280400276E0,1.836273223E-1
1.649795982E0,-1.601674676E0,-2.241304874E0,1.475862563E-1
1.651795248E0,-1.596787691E0,-2.163725138E0,8.100195229E-2
1.653794981E0,-1.575407505E0,-2.089199543E0,2.724581212E-2
1.655794781E0,-1.560135722E0,-2.050103903E0,1.589471358E-3
1.657794581E0,-1.516153455E0,-1.974967599E0,-3.445157781E-2
1.659794314E0,-1.465451717E0,-1.899831176E0,-5.216667056E-2
1.661794247E0,-1.439184427E0,-1.863179326E0,-8.087733388E-2
1.663793980E0,-1.387871861E0,-1.795373321E0,-1.175292507E-1
1.665793713E0,-1.363437176E0,-1.758721352E0,-1.358552128E-1
1.667793446E0,-1.317622304E0,-1.664037228E0,-1.749505848E-1
1.669793179E0,-1.265698671E0,-1.572407484E0,-2.036612481E-1
1.671792979E0,-1.241264105E0,-1.530257821E0,-2.195437402E-1
1.673792379E0,-1.195449233E0,-1.431297660E0,-2.458109558E-1
1.675792112E0,-1.157575607E0,-1.330504775E0,-2.696346939E-1
1.677791845E0,-1.138027906E0,-1.285911679E0,-2.800194025E-1
1.679791578E0,-1.109317303E0,-1.210164309E0,-2.946801782E-1
1.681791311E0,-1.078163028E0,-1.155797362E0,-2.971236408E-1
1.683791044E0,-1.064724088E0,-1.128308415E0,-2.965127528E-1
1.685790777E0,-1.039067745E0,-1.069054484E0,-2.940693200E-1
1.687790577E0,-1.011578798E0,-1.000637531E0,-2.897932529E-1
1.689790310E0,-9.963071942E-1,-9.719269276E-1,-2.879606485E-1
1.691790043E0,-9.694290757E-1,-9.071752429E-1,-2.800194025E-1
1.693789776E0,-9.358314872E-1,-8.454778194E-1,-2.647477686E-1
1.695789509E0,-9.187272787E-1,-8.173779845E-1,-2.537522018E-1
1.697789242E0,-8.869622946E-1,-7.691196799E-1,-2.311501950E-1
1.699788975E0,-8.466451764E-1,-7.330785990E-1,-2.006069124E-1
1.701788708E0,-8.240431547E-1,-7.153635025E-1,-1.853352934E-1
1.703788508E0,-7.708978653E-1,-6.939831972E-1,-1.505159736E-1
1.705788241E0,-7.116439939E-1,-6.823767424E-1,-1.205835789E-1
1.707787974E0,-6.823224425E-1,-6.890963316E-1,-9.981415421E-2
1.709787707E0,-6.218467355E-1,-7.019245028E-1,-6.255137920E-2
1.711787907E0,-5.515972972E-1,-7.214721441E-1,-2.101254277E-2
1.713787640E0,-5.173888206E-1,-7.294133902E-1,-3.297450487E-3
1.715787373E0,-4.489718974E-1,-7.452958822E-1,4.557177052E-2
1.717787106E0,-3.720028996E-1,-7.495719790E-1,9.566272050E-2
1.719786906E0,-3.310749233E-1,-7.416307330E-1,1.231516600E-1
1.721786972E0,-2.528841496E-1,-7.129200697E-1,1.781295389E-1
1.723786705E0,-1.655304283E-1,-6.542769670E-1,2.288313508E-1
1.725786438E0,-1.270459145E-1,-6.200685501E-1,2.557094097E-1
1.727786171E0,-5.862901360E-2,-5.498190522E-1,3.045786321E-1
1.729785904E0,1.345308498E-2,-4.978954792E-1,3.632217050E-1
1.731785637E0,3.788769618E-2,-4.765152037E-1,3.919323683E-1
1.733785770E0,8.003740013E-2,-4.471936524E-1,4.530189037E-1
1.735785570E0,1.069154665E-1,-4.056548476E-1,5.110510588E-1
1.737785303E0,1.099697948E-1,-3.799985051E-1,5.385400653E-1
1.739785036E0,1.075263396E-1,-3.274640739E-1,5.977939367E-1
1.741784769E0,8.858950436E-2,-2.779840231E-1,6.613239050E-1
1.743784502E0,6.720922887E-2,-2.553820014E-1,6.949214935E-1
1.745784235E0,1.650741138E-2,-2.022367120E-1,7.645601630E-1
1.747783968E0,-4.763343930E-2,-1.319872141E-1,8.274793029E-1
1.749783768E0,-8.795054257E-2,-9.167010337E-2,8.604660034E-1
1.751783501E0,-1.887433231E-1,7.290065754E-3,9.075026512E-1
1.753783234E0,-3.023642600E-1,1.203001291E-1,9.545392394E-1
1.755782967E0,-3.646725118E-1,1.777214706E-1,9.795846939E-1
1.757782700E0,-5.045606494E-1,2.901206613E-1,1.032119155E0
1.759782433E0,-5.699232221E-1,3.426550925E-1,1.065105796E0
1.761782166E0,-6.969832182E-1,4.385609329E-1,1.134744525E0
1.763781899E0,-8.081606627E-1,5.277472734E-1,1.214156985E0
1.765781699E0,-8.539755940E-1,5.656208992E-1,1.256917596E0
1.767781432E0,-9.260576963E-1,6.352595091E-1,1.343660355E0
1.769781165E0,-9.810355306E-1,6.987895370E-1,1.424294710E0
1.771780898E0,-1.004248381E0,7.317762375E-1,1.463389993E0
1.773780631E0,-1.043343782E0,8.038583398E-1,1.533639550E0
1.775780364E0,-1.071443558E0,8.887686133E-1,1.597780347E0
1.777780097E0,-1.081828237E0,9.358052611E-1,1.621604085E0
1.779779830E0,-1.091602206E0,1.043317556E0,1.668640733E0
1.781778696E0,-1.095878124E0,1.164268851E0,1.708346963E0
1.783778429E0,-1.094656467E0,1.226577163E0,1.724229455E0
1.785778162E0,-1.072054386E0,1.351804495E0,1.750496745E0
1.787777895E0,-1.037235141E0,1.461149335E0,1.776763916E0
1.789777628E0,-1.006080985E0,1.506964207E0,1.790202856E0
1.791777361E0,-9.498814344E-1,1.582711577E0,1.817691922E0
1.793777094E0,-8.802428246E-1,1.619363427E0,1.850067735E0
1.795776827E0,-8.429799676E-1,1.621806860E0,1.863506675E0
1.797776627E0,-7.635675073E-1,1.610200405E0,1.896493435E0
1.799776393E0,-6.914854050E-1,1.568050742E0,1.916041136E0
1.801776159E0,-6.523900032E-1,1.529566288E0,1.923982382E0
1.803775925E0,-5.839731693E-1,1.431216955E0,1.923982382E0
1.805775691E0,-5.302169919E-1,1.327369928E0,1.905656457E0
1.807775457E0,-5.112801790E-1,1.270559430E0,1.890995741E0
1.809775223E0,-4.727956653E-1,1.163047075E0,1.850678563E0
1.811775056E0,-4.385871887E-1,1.057978272E0,1.798755050E0
1.813774889E0,-4.233155549E-1,1.007276535E0,1.770655274E0
1.815774655E0,-4.043787420E-1,8.997641802E-1,1.701016545E0
1.817774421E0,-3.939940333E-1,7.916410565E-1,1.635654092E0
1.819774187E0,-3.952157497E-1,7.378848791E-1,1.602056384E0
1.821773953E0,-4.117091298E-1,6.315943599E-1,1.543413281E0
1.823773719E0,-4.477501810E-1,5.417971611E-1,1.485992074E0
1.825773485E0,-4.691304564E-1,5.002583265E-1,1.459113836E0
1.827773318E0,-5.222757459E-1,4.232892990E-1,1.398027420E0
1.829773084E0,-5.772535801E-1,3.530398011E-1,1.336330056E0
1.831772850E0,-6.035208106E-1,3.102792501E-1,1.305175900E0
1.833772616E0,-6.609421372E-1,2.320884764E-1,1.241645932E0
1.835772382E0,-7.079787850E-1,1.710019559E-1,1.180559397E0
1.837772148E0,-7.318024635E-1,1.435130090E-1,1.156735539E0
1.839771914E0,-7.818934917E-1,1.141914800E-1,1.120694637E0
1.841772614E0,-8.344278336E-1,9.769812226E-2,1.085264444E0
1.843772447E0,-8.588624597E-1,7.998303324E-2,1.069992781E0
1.845772213E0,-8.991795778E-1,2.744862065E-2,1.036395192E0
1.847771979E0,-9.168946743E-1,-1.103589125E-2,1.022956133E0
1.849771745E0,-9.315553904E-1,-9.411356598E-2,1.008295417E0
1.851771511E0,-9.205598831E-1,-1.374849975E-1,1.004019380E0
1.853771277E0,-9.107860327E-1,-1.356524080E-1,1.002797604E0
1.855771043E0,-8.851296902E-1,-7.578760386E-2,9.960780740E-1
1.857770809E0,-8.387039304E-1,4.882890359E-2,9.740869403E-1
1.859770609E0,-8.142693639E-1,1.239653230E-1,9.545392394E-1
1.861770342E0,-7.482959032E-1,2.479709834E-1,9.075026512E-1
1.863770075E0,-6.756029129E-1,3.176096082E-1,8.531356454E-1
1.865769808E0,-6.273445487E-1,3.273834586E-1,8.128185272E-1
1.867769541E0,-5.412125587E-1,3.066140413E-1,6.741520762E-1
1.869769274E0,-4.324785471E-1,2.577448189E-1,5.672506690E-1
1.871769007E0,-3.701702952E-1,2.302558720E-1,5.281553268E-1
1.873768940E0,-2.308930010E-1,1.819975227E-1,4.817295671E-1
1.875768740E0,-8.428535610E-2,1.483999342E-1,4.682905376E-1
1.877768473E0,4.900971893E-3,1.404586881E-1,4.701231122E-1
1.879768206E0,1.802192926E-1,1.282413751E-1,4.890599251E-1
1.881767939E0,3.647005856E-1,8.548081666E-2,5.244901180E-1
1.883767672E0,4.575521350E-1,5.310495943E-2,5.452595353E-1
1.885767405E0,6.273726821E-1,-6.051597744E-2,5.800788403E-1
1.887767138E0,7.739802599E-1,-2.083453685E-1,6.026808619E-1
1.889766004E0,8.381211758E-1,-2.700427473E-1,6.106221080E-1
1.891765804E0,9.505203962E-1,-3.427357078E-1,5.984048247E-1
1.893765537E0,1.023213267E0,-3.146359324E-1,5.586985350E-1
1.895765270E0,1.035430670E0,-2.529385090E-1,5.244901180E-1
1.897765003E0,1.000000477E0,-5.562905595E-2,4.377472401E-1
1.899764736E0,9.034837484E-1,2.296450138E-1,3.277915120E-1
1.901764469E0,8.393428922E-1,3.951894939E-1,2.722027898E-1
1.903764202E0,7.000656128E-1,7.476587296E-1,1.530840397E-1
1.905764002E0,5.497927666E-1,1.106236696E0,3.030013852E-2
1.907763802E0,4.752672017E-1,1.279111505E0,-3.567330912E-2
1.909763535E0,3.152205348E-1,1.580878854E0,-1.572354883E-1
1.911763268E0,1.600607485E-1,1.773301482E0,-2.592499852E-1
1.913763001E0,9.653076530E-2,1.817894697E0,-2.946801782E-1
1.915762734E0,-1.770104282E-2,1.764749408E0,-3.142278790E-1
1.917762467E0,-8.245275915E-2,1.586987495E0,-2.598608434E-1
1.919762200E0,-9.344833344E-2,1.464814544E0,-2.036612481E-1
1.921762000E0,-7.206804305E-2,1.187481642E0,-4.850148037E-2
1.923761733E0,-2.429411281E-3,9.095380306E-1,1.408667415E-1
1.925761466E0,4.582894593E-2,7.818672061E-1,2.288313508E-1
1.927761199E0,1.734997928E-1,5.680643320E-1,3.809368014E-1
1.929760932E0,3.127770722E-1,4.177915156E-1,4.603492618E-1
1.931760665E0,3.836374283E-1,3.609810472E-1,4.756209254E-1
1.933760198E0,5.088648200E-1,2.589665651E-1,4.566840827E-1
1.935759931E0,6.066032052E-1,1.783323437E-1,4.310277402E-1
1.937759731E0,6.395899653E-1,1.404586881E-1,3.784933090E-1
1.939759464E0,6.792961955E-1,5.615928769E-2,3.332892954E-1
1.941759197E0,6.811287999E-1,2.805948444E-2,3.094655573E-1
1.943758930E0,6.615810990E-1,-3.705508541E-3,2.630397975E-1
1.945758663E0,6.163770556E-1,2.011823654E-2,1.976772100E-1
1.947758396E0,5.754491091E-1,5.432669073E-2,1.604144275E-1
1.949759062E0,4.887062311E-1,1.795540601E-1,8.466714621E-2
1.951758795E0,3.891352117E-1,3.035597205E-1,8.919853717E-3
1.953758595E0,3.384334147E-1,3.396007717E-1,-1.673648693E-2
1.955758328E0,2.229798585E-1,3.481528759E-1,-5.338840187E-2
1.957758061E0,1.234088317E-1,2.748490274E-1,-4.666888341E-2
1.959757794E0,7.942652702E-2,2.119299173E-1,-2.589946613E-2
1.961757760E0,3.483337164E-2,7.570697367E-2,3.457619622E-2
1.963757493E0,4.399634898E-2,-2.447492629E-2,9.138666838E-2
1.965757226E0,7.087442279E-2,-6.051597744E-2,1.097126156E-1
1.967756959E0,1.344044060E-1,-9.167010337E-2,1.231516600E-1
1.969756759E0,2.162603438E-1,-6.234857067E-2,9.932791442E-2
1.971756492E0,2.480253428E-1,-3.058357909E-2,8.283454925E-2
1.973756225E0,2.938402295E-1,3.477900475E-2,4.862609506E-2
1.975755958E0,3.127770722E-1,1.019741818E-1,3.152186796E-2
1.977755691E0,3.152205348E-1,1.374043524E-1,2.785667591E-2
1.979755424E0,3.054466844E-1,2.015452087E-1,2.480235137E-2
1.981755157E0,2.840663791E-1,2.669078112E-1,2.113715932E-2
1.983754957E0,2.687947750E-1,2.998945415E-1,1.686110348E-2
1.985754757E0,2.229798585E-1,3.689222932E-1,-2.075720113E-3
1.987754490E0,1.710563153E-1,4.275653660E-1,-2.467773482E-2
1.989754223E0,1.374587268E-1,4.501673579E-1,-2.773205936E-2
1.991753956E0,8.858950436E-2,4.862084091E-1,-1.795821637E-2
1.993753689E0,5.926797912E-2,5.552362204E-1,1.869369857E-2
1.995753422E0,5.315932631E-2,5.986075997E-1,4.557177052E-2
1.997753155E0,7.698307186E-2,7.079524994E-1,8.833234012E-2
1.999752955E0,1.411239207E-1,7.775911093E-1,1.139886752E-1
2.001752721E0,1.716671884E-1,7.708716393E-1,1.231516600E-1
2.003752487E0,2.187038064E-1,6.706897020E-1,1.414776146E-1
2.005752253E0,2.162603438E-1,4.642172456E-1,1.830164492E-1
2.007752019E0,1.936583221E-1,3.493745923E-1,2.062293291E-1
2.009751785E0,1.166893095E-1,1.557303220E-1,2.599854767E-1
2.011751551E0,3.666596487E-2,6.959831715E-2,2.978591025E-1
2.013751317E0,8.566163480E-3,7.143091410E-2,3.076329529E-1
2.015751150E0,-5.007690191E-2,1.038067788E-1,3.088546693E-1
2.017750950E0,-5.862901360E-2,2.064321339E-1,2.941939235E-1
2.019750750E0,-6.351593137E-2,2.583556771E-1,2.880852520E-1
2.021750316E0,-6.840285659E-2,3.548723757E-1,2.660941184E-1
2.023750116E0,-6.718113273E-2,4.483347833E-1,2.331074029E-1
2.025749916E0,-6.412679702E-2,4.819323719E-1,2.105053812E-1
2.027749716E0,-3.419440612E-2,5.228603482E-1,1.646904945E-1
2.029749516E0,-6.705467589E-3,5.308015943E-1,1.445319355E-1
2.031749382E0,5.438105762E-2,5.210276842E-1,1.072691604E-1
2.033749248E0,1.087480634E-1,4.807106256E-1,7.367157191E-2
2.035749114E0,1.282957494E-1,4.526108503E-1,6.389772892E-2
2.037748980E0,1.337935328E-1,4.037415981E-1,5.717820674E-2
2.039748846E0,1.166893095E-1,3.988546729E-1,6.084340066E-2
2.041748712E0,1.130241156E-1,4.086285532E-1,6.817378104E-2
2.043748578E0,1.020285487E-1,4.184023738E-1,8.833234012E-2
2.045748444E0,9.591989219E-2,4.104611278E-1,1.127669439E-1
2.047748377E0,9.164384007E-2,3.976329565E-1,1.335363686E-1
2.049748243E0,7.331787795E-2,3.548723757E-1,1.726317406E-1
2.051748109E0,6.354403496E-2,3.115009367E-1,2.196683586E-1
2.053747975E0,5.804624781E-2,2.858445942E-1,2.459355593E-1
2.055747841E0,4.582894593E-2,2.235363573E-1,3.058003485E-1
2.057747707E0,6.249151193E-4,1.282413751E-1,3.900997639E-1
2.059747573E0,-4.091392085E-2,6.104620919E-2,4.426341951E-1
2.061747473E0,-1.917976439E-1,-1.038874090E-1,5.464812517E-1
2.063747373E0,-3.237445354E-1,-1.924628764E-1,6.185633540E-1
2.065747206E0,-3.823876083E-1,-2.052910477E-1,6.405544877E-1
2.067747039E0,-4.648543894E-1,-1.545892209E-1,6.521609426E-1
2.069746872E0,-5.619819760E-1,-8.433972299E-2,6.295589805E-1
2.071746705E0,-6.114620566E-1,-4.402261227E-2,6.081786752E-1
2.073746538E0,-6.872093678E-1,2.744862065E-2,5.806896687E-1
2.075746371E0,-8.771884441E-1,-3.119444475E-2,5.703049898E-1
2.077746237E0,-9.981397986E-1,-7.395500690E-2,5.684723854E-1
2.079746037E0,-1.334726572E0,-1.936846077E-1,5.159379840E-1
2.081745837E0,-1.475225449E0,-4.585520923E-2,3.949866891E-1
2.083745303E0,-1.441017032E0,1.203001291E-1,3.534478545E-1
2.085745103E0,-1.227825046E0,4.800997674E-1,3.302349746E-1
2.087744903E0,-9.278902411E-1,7.482696176E-1,3.534478545E-1
2.089744703E0,-7.733413577E-1,8.117996454E-1,3.766607344E-1
2.091744503E0,-4.960085154E-1,7.946953773E-1,4.078148603E-1
2.093744303E0,-2.767079175E-1,6.077706218E-1,4.224756062E-1
2.095744036E0,-1.869107187E-1,4.709368050E-1,4.218647480E-1
2.097743769E0,-6.657025963E-2,1.655041724E-1,3.998735845E-1
2.099743502E0,4.900971893E-3,-1.032765433E-1,3.565021753E-1
2.101743235E0,2.750298567E-2,-2.052910477E-1,3.265697956E-1
2.103742968E0,6.293316931E-2,-3.366270661E-1,2.673158646E-1
2.105742701E0,8.981124312E-2,-3.555639088E-1,2.105053812E-1
2.107742434E0,9.714162350E-2,-3.445683420E-1,1.909576952E-1
2.109742234E0,9.836335480E-2,-2.767622769E-1,1.488080025E-1
2.111741967E0,9.225469828E-2,-1.747477651E-1,1.255951226E-1
2.113741700E0,7.270701230E-2,-1.313763410E-1,1.164321378E-1
2.115741433E0,3.422250226E-2,-4.219001904E-2,1.048256978E-1
2.117741166E0,-1.953363791E-2,3.050294518E-2,1.011605039E-1
2.119740899E0,-5.190949515E-2,5.860274658E-2,9.932791442E-2
2.121740632E0,-1.136068851E-1,9.769812226E-2,9.627358615E-2
2.123740365E0,-1.380414814E-1,1.117480248E-1,9.627358615E-2
2.125740165E0,-1.783585995E-1,1.196892709E-1,9.566272050E-2
2.127739898E0,-2.107344717E-1,1.056393757E-1,9.810617566E-2
2.129739631E0,-2.131779194E-1,9.647639096E-2,9.688445181E-2
2.131739364E0,-2.168431133E-1,8.425908536E-2,9.260839224E-2
2.133739097E0,-2.162322551E-1,6.410053372E-2,9.138666838E-2
2.135738830E0,-2.125670612E-1,5.677014962E-2,8.405628055E-2
2.137738563E0,-2.107344717E-1,5.127236247E-2,7.000637800E-2
2.139738363E0,-1.972954273E-1,8.425908536E-2,4.984782264E-2
2.141738463E0,-1.924085021E-1,1.056393757E-1,3.885225207E-2
2.143738529E0,-1.887433231E-1,1.227435991E-1,2.113715932E-2
2.145738262E0,-2.143996656E-1,1.300739795E-1,4.643797409E-3
2.147737995E0,-2.315038741E-1,1.239653230E-1,-2.075720113E-3
2.149737728E0,-2.791513801E-1,1.166349426E-1,-1.795821637E-2
2.151737461E0,-3.365727067E-1,1.111371592E-1,-3.322984651E-2
2.153737194E0,-3.652833700E-1,1.129697487E-1,-3.933849931E-2
2.155736994E0,-4.123199880E-1,1.172458082E-1,-5.522099510E-2
2.157736794E0,-4.587457478E-1,1.233544648E-1,-6.804916263E-2
2.159736527E0,-4.813477695E-1,1.288522482E-1,-7.476868480E-2
2.161736260E0,-5.137236118E-1,1.288522482E-1,-8.637512475E-2
2.163735993E0,-5.418234468E-1,1.331283152E-1,-1.028684825E-1
2.165735726E0,-5.503755212E-1,1.312957108E-1,-1.077554077E-1
2.167735459E0,-5.644254088E-1,1.264087856E-1,-1.315791458E-1
2.169735192E0,-5.784753561E-1,1.148023456E-1,-1.499051005E-1
2.171734992E0,-5.845839977E-1,1.117480248E-1,-1.639550179E-1
2.173734725E0,-5.876383185E-1,9.464380145E-2,-1.908330768E-1
2.175734458E0,-5.900818110E-1,7.815043628E-2,-2.250415385E-1
2.177734191E0,-5.900818110E-1,6.959831715E-2,-2.397022992E-1
2.179733924E0,-5.864165425E-1,5.188322812E-2,-2.775759697E-1
2.181733657E0,-5.796970725E-1,2.928121388E-2,-3.130061328E-1
2.183733390E0,-5.754210353E-1,2.133996598E-2,-3.319429755E-1
2.185733123E0,-5.699232221E-1,1.034439169E-2,-3.704274595E-1
2.187732923E0,-5.589276552E-1,-3.094643354E-3,-4.028033018E-1
2.189732656E0,-5.485429764E-1,-1.042502560E-2,-4.174640775E-1
2.191732389E0,-5.259408951E-1,-2.080973610E-2,-4.443421662E-1
2.193732122E0,-4.862346947E-1,-2.875098400E-2,-4.608355165E-1
2.195731855E0,-4.672978520E-1,-3.608136624E-2,-4.693876207E-1
2.197731588E0,-4.282024801E-1,-5.013126880E-2,-4.871027172E-1
2.199731321E0,-3.842201829E-1,-6.479202956E-2,-5.035961270E-1
2.201730354E0,-3.646725118E-1,-6.784635782E-2,-5.158134103E-1
2.203730154E0,-3.194684684E-1,-7.700933516E-2,-5.420805812E-1
2.205729887E0,-2.779296339E-1,-7.395500690E-2,-5.768998861E-1
2.207729620E0,-2.577710748E-1,-6.967895478E-2,-6.007236242E-1
2.209729353E0,-2.052366734E-1,-6.662462652E-2,-6.440950632E-1
2.211729086E0,-1.508696526E-1,-6.601376086E-2,-6.892991066E-1
2.213728619E0,-1.184938028E-1,-6.662462652E-2,-7.155663371E-1
2.215728352E0,-4.702257365E-2,-7.151155174E-2,-7.827614546E-1
2.217728085E0,-9.148928337E-3,-7.884193212E-2,-8.212460279E-1
2.219727885E0,7.270701230E-2,-1.038874090E-1,-9.147083759E-1
2.221727618E0,1.582281440E-1,-1.411501914E-1,-1.017333746E0
2.223727351E0,2.058756351E-1,-1.600870043E-1,-1.077809453E0
2.225727084E0,3.048358262E-1,-2.144540250E-1,-1.195095539E0
2.227726817E0,3.976873159E-1,-2.730970681E-1,-1.300775290E0
2.229726550E0,4.477782845E-1,-2.999751568E-1,-1.349644423E0
2.231726283E0,5.387971997E-1,-3.628942966E-1,-1.437608957E0
2.233726083E0,6.279835105E-1,-4.172613025E-1,-1.518854141E0
2.235725883E0,6.737983823E-1,-4.496371448E-1,-1.550619125E0
2.237725616E0,7.159481049E-1,-5.229409933E-1,-1.595823169E0
2.239725349E0,7.116720676E-1,-5.901361704E-1,-1.600710034E0
2.241725082E0,7.073959708E-1,-6.115164161E-1,-1.600099206E0
2.243724815E0,6.860157251E-1,-6.255663633E-1,-1.586660147E0
2.245724548E0,6.957895756E-1,-6.041860580E-1,-1.587270975E0
2.247724281E0,7.208350301E-1,-5.803623199E-1,-1.595212221E0
2.249724081E0,7.776455283E-1,-5.198866725E-1,-1.628809810E0
2.251723814E0,8.595014811E-1,-4.368089736E-1,-1.682566047E0
2.253723547E0,8.949316144E-1,-4.032113552E-1,-1.710665822E0
2.255723280E0,9.602941871E-1,-3.317401409E-1,-1.760145903E0
2.257723013E0,1.017104626E0,-2.779840231E-1,-1.803517342E0
2.259722746E0,1.036041498E0,-2.523276806E-1,-1.819399834E0
2.261722546E0,1.061697841E0,-2.132322788E-1,-1.841390967E0
2.263722279E0,1.066584706E0,-1.576435566E-1,-1.848110437E0
2.265722079E0,1.064141393E0,-1.301546246E-1,-1.847499609E0
2.267721812E0,1.021991611E0,-4.829867184E-2,-1.829784513E0
2.269721545E0,9.529638290E-1,5.554841831E-2,-1.797408700E0
2.271721278E0,9.095923901E-1,1.135806218E-1,-1.778471828E0
2.273721211E0,8.295690417E-1,2.455275059E-1,-1.731435180E0
2.275720511E0,7.611521482E-1,3.860265315E-1,-1.684398532E0
2.277720244E0,7.257219553E-1,4.526108503E-1,-1.659963965E0
2.279719977E0,6.725766659E-1,5.979967713E-1,-1.618425131E0
2.281719777E0,6.151553392E-1,7.299436927E-1,-1.582384109E0
2.283719510E0,5.894989967E-1,7.788128853E-1,-1.564669013E0
2.285719243E0,5.583449006E-1,8.667774796E-1,-1.528627872E0
2.287718976E0,5.241364241E-1,9.132032394E-1,-1.480980515E0
2.289718709E0,5.143626332E-1,9.217553139E-1,-1.452269793E0
2.291718442E0,4.984801114E-1,9.113706350E-1,-1.401567936E0
2.293718175E0,4.966474771E-1,8.802164793E-1,-1.332540274E0
2.295717908E0,4.905388355E-1,8.612796664E-1,-1.297109962E0
2.297717708E0,4.856519103E-1,8.160756230E-1,-1.228082299E0
2.299717441E0,4.935931563E-1,7.617086172E-1,-1.155389309E0
2.301717174E0,4.954257607E-1,7.311654091E-1,-1.116293907E0
2.303716907E0,5.021452904E-1,6.804635525E-1,-1.038103104E0
2.305716640E0,5.015344024E-1,6.352595091E-1,-1.004505634E0
2.307716373E0,5.051996112E-1,6.212096810E-1,-9.305908680E-1
2.309716106E0,5.015344024E-1,5.931098461E-1,-8.670608997E-1
2.311715906E0,4.948149025E-1,5.815033913E-1,-8.377394080E-1
2.313715706E0,4.954257607E-1,5.784490705E-1,-7.876484394E-1
2.315715439E0,4.832084775E-1,5.961641669E-1,-7.454987168E-1
2.317715172E0,4.722128808E-1,6.108249426E-1,-7.308379412E-1
2.319714905E0,4.526651800E-1,6.352595091E-1,-7.167881131E-1
2.321714971E0,4.300631583E-1,6.694680452E-1,-7.161771655E-1
2.323714704E0,4.257871509E-1,6.914591789E-1,-7.149554491E-1
2.325714437E0,4.202893376E-1,7.232241035E-1,-7.210640907E-1
2.327714237E0,4.300631583E-1,7.427718639E-1,-7.283944488E-1
2.329714037E0,4.331175089E-1,7.421609759E-1,-7.308379412E-1
2.331713770E0,4.581629932E-1,7.336088419E-1,-7.332814336E-1
2.333713503E0,4.911497235E-1,7.287219167E-1,-7.253401279E-1
2.335713669E0,5.076430440E-1,7.232241035E-1,-7.204532623E-1
2.337713402E0,5.381863117E-1,7.085633278E-1,-7.125120163E-1
2.339713135E0,5.638426542E-1,6.957351565E-1,-6.990729570E-1
2.341712868E0,5.711730123E-1,6.908482909E-1,-6.941860318E-1
2.343712668E0,5.870555639E-1,6.926808357E-1,-6.862447858E-1
2.345712401E0,6.023272276E-1,7.122285962E-1,-6.734166145E-1
2.347712134E0,6.090466976E-1,7.220023870E-1,-6.685297489E-1
2.349711867E0,6.182096601E-1,7.427718639E-1,-6.483711600E-1
2.351711167E0,6.151553392E-1,7.488805056E-1,-6.288234591E-1
2.353710900E0,6.212639809E-1,7.531565428E-1,-6.166061163E-1
2.355710633E0,6.402007937E-1,7.592651844E-1,-6.037780046E-1
2.357709933E0,6.487529278E-1,7.586542964E-1,-5.946149826E-1
2.359709733E0,6.530289650E-1,7.653738260E-1,-5.872846246E-1
2.361709466E0,6.652462482E-1,7.702607512E-1,-5.683477521E-1
2.363709199E0,6.762418747E-1,7.983605266E-1,-5.469675064E-1
2.365708932E0,6.811287999E-1,8.148539662E-1,-5.384154320E-1
2.367708665E0,6.902917624E-1,8.515058756E-1,-5.158134103E-1
2.369708398E0,6.957895756E-1,9.009858966E-1,-4.938222468E-1
2.371708131E0,6.982330084E-1,9.303074479E-1,-4.809940755E-1
2.373707864E0,6.982330084E-1,9.938374758E-1,-4.596138000E-1
2.375707230E0,6.970112920E-1,1.052480459E0,-4.406769574E-1
2.377706963E0,7.000656128E-1,1.078747630E0,-4.382334948E-1
2.379706696E0,7.086177468E-1,1.141055942E0,-4.254053235E-1
2.381705996E0,7.165589333E-1,1.212527275E0,-4.229618907E-1
2.383705729E0,7.159481049E-1,1.262007356E0,-4.241836071E-1
2.385705462E0,7.116720676E-1,1.373795629E0,-4.199075699E-1
2.387705195E0,6.964004636E-1,1.502077222E0,-4.192966819E-1
2.389704928E0,6.890700459E-1,1.561331272E0,-4.199075699E-1
2.391704728E0,6.762418747E-1,1.682893395E0,-4.254053235E-1
2.393704461E0,6.597485542E-1,1.809342504E0,-4.327357113E-1
2.395704194E0,6.444768906E-1,1.872261763E0,-4.364009202E-1
2.397703927E0,6.194313765E-1,2.000543356E0,-4.339574575E-1
2.399703660E0,6.090466976E-1,2.068349361E0,-4.315139651E-1
2.401703393E0,5.815577507E-1,2.191133261E0,-4.284596443E-1
2.403703126E0,5.504036546E-1,2.305365324E0,-4.266270697E-1
2.405702926E0,5.418515205E-1,2.355456114E0,-4.266270697E-1
2.407702726E0,5.278016329E-1,2.448918343E0,-4.278487861E-1
2.409702459E0,5.125299692E-1,2.522222281E0,-4.376226366E-1
2.411702625E0,5.058104992E-1,2.547878742E0,-4.437312782E-1
2.413702358E0,4.972583652E-1,2.594915390E0,-4.571703076E-1
2.415702091E0,4.844301641E-1,2.619349957E0,-4.590029418E-1
2.417702257E0,4.752672017E-1,2.633399725E0,-4.516725540E-1
2.419701990E0,4.593847096E-1,2.666997433E0,-4.290705323E-1
2.421701790E0,4.337283671E-1,2.682269096E0,-3.948620558E-1
2.423701556E0,4.178458750E-1,2.684101582E0,-3.692057133E-1
2.425701322E0,3.885243535E-1,2.675549507E0,-3.178930581E-1
2.427701088E0,3.592028320E-1,2.642562628E0,-2.592499852E-1
2.429700854E0,3.445420563E-1,2.621793270E0,-2.317610532E-1
2.431700620E0,3.127770722E-1,2.575367689E0,-1.767831743E-1
2.433700386E0,2.840663791E-1,2.522833347E0,-1.230270416E-1
2.435700586E0,2.706273496E-1,2.496565819E0,-9.126204997E-2
2.437700419E0,2.455818802E-1,2.442809820E0,-2.834292687E-2
2.439700185E0,2.248124480E-1,2.373171091E0,4.007398337E-2
2.441700385E0,2.156494707E-1,2.331632376E0,7.367157191E-2
2.443700151E0,2.003778517E-1,2.235115767E0,1.457536668E-1
2.445699917E0,1.820518970E-1,2.122716427E0,2.074510604E-1
2.447699683E0,1.789975762E-1,2.064073324E0,2.386052012E-1
2.449699449E0,1.698345989E-1,1.929682970E0,2.929722071E-1
2.451699215E0,1.637259424E-1,1.794070959E0,3.375653625E-1
2.453699048E0,1.563955545E-1,1.723210573E0,3.571130335E-1
2.455698814E0,1.429565102E-1,1.585765839E0,4.010953307E-1
2.457698580E0,1.307392120E-1,1.466036201E0,4.395798743E-1
2.459698346E0,1.252414286E-1,1.411058307E0,4.609601498E-1
2.461698112E0,1.008068174E-1,1.313930750E0,4.988337755E-1
2.463697878E0,7.637220621E-2,1.220468402E0,5.403726101E-1
2.465697644E0,6.232230365E-2,1.177707911E0,5.641963482E-1
2.467697410E0,3.788769618E-2,1.095851898E0,6.087895632E-1
2.469697243E0,6.122702267E-3,1.042706609E0,6.350566745E-1
2.471697009E0,-6.705467589E-3,1.016439438E0,6.478849053E-1
2.473696342E0,-3.785959631E-2,9.846744537E-1,6.643782258E-1
2.475696108E0,-6.962458789E-2,9.749006629E-1,6.772063971E-1
2.477695874E0,-8.306362480E-2,9.791767001E-1,6.888128519E-1
2.479695640E0,-1.068873703E-1,1.017661214E0,6.949214935E-1
2.481695406E0,-1.337654442E-1,1.054313064E0,7.126365900E-1
2.483695206E0,-1.453718692E-1,1.075082541E0,7.236322165E-1
2.485695006E0,-1.636978239E-1,1.109290957E0,7.596732378E-1
2.487694739E0,-1.875215769E-1,1.148997188E0,8.097641468E-1
2.489694472E0,-1.917976439E-1,1.161214471E0,8.482487202E-1
2.491694205E0,-2.058475316E-1,1.187481642E0,9.374349713E-1
2.493693938E0,-2.131779194E-1,1.201531649E0,9.808064699E-1
2.495693671E0,-2.272278070E-1,1.231464028E0,1.071214437E0
2.497693404E0,-2.394451350E-1,1.257731199E0,1.148794413E0
2.499693204E0,-2.449429184E-1,1.268115997E0,1.186668038E0
2.501692037E0,-2.449429184E-1,1.285220265E0,1.269745708E0
2.503691770E0,-2.504407167E-1,1.291939735E0,1.344271183E0
2.505691503E0,-2.541058958E-1,1.293161392E0,1.375425458E0
2.507691236E0,-2.357799411E-1,1.266894221E0,1.462168217E0
2.509690969E0,-2.040149420E-1,1.234518290E0,1.553798079E0
2.511690702E0,-1.917976439E-1,1.217414021E0,1.595336914E0
2.513690435E0,-1.508696526E-1,1.175264359E0,1.696129680E0
2.515690235E0,-1.472044736E-1,1.166101456E0,1.757827044E0
2.517689968E0,-1.569783241E-1,1.180762172E0,1.760270476E0
2.519689701E0,-1.398740858E-1,1.197255611E0,1.813415766E0
2.521689434E0,-1.197155416E-1,1.215581536E0,1.972851515E0
2.523689167E0,-1.209372729E-1,1.247346520E0,2.069979191E0
2.525689033E0,-1.362088919E-1,1.321261287E0,2.292945147E0
2.527688766E0,-1.820237935E-1,1.415945292E0,2.491476297E0
2.529688499E0,-1.997388899E-1,1.447710276E0,2.587992907E0
2.531688299E0,-1.875215769E-1,1.438547373E0,2.793243647E0
2.533688465E0,-1.472044736E-1,1.365854383E0,2.949625254E0
2.535688198E0,-1.447610110E-1,1.317596078E0,2.985666275E0
2.537687931E0,-1.264350563E-1,1.226577163E0,3.041865826E0
2.539687664E0,-1.514805257E-1,1.193590283E0,3.027815819E0
2.541687397E0,-1.691956222E-1,1.200309992E0,3.025983334E0
2.543687130E0,-2.235626429E-1,1.244292259E0,3.025983334E0
2.545686863E0,-3.011425138E-1,1.323704720E0,3.047363520E0
2.547686663E0,-3.469573855E-1,1.366465211E0,3.054693937E0
2.549686396E0,-4.275916219E-1,1.439769030E0,3.062635183E0
2.551686129E0,-4.892890155E-1,1.472755790E0,3.044920206E0
2.553685862E0,-5.167779326E-1,1.479475379E0,3.032092094E0
2.555685595E0,-5.613710880E-1,1.458705902E0,2.995440006E0
2.557685328E0,-5.968012810E-1,1.417166948E0,2.973448992E0
2.559685061E0,-6.163489819E-1,1.382347822E0,2.996661901E0
2.561685327E0,-6.798789501E-1,1.308432937E0,3.071187258E0
2.563685127E0,-7.360785604E-1,1.225355387E0,3.120667458E0
2.565684860E0,-7.580696940E-1,1.147164702E0,3.140215158E0
2.567684593E0,-7.947216034E-1,9.425247908E-1,3.266053200E0
2.569684326E0,-4.960085154E-1,1.587846577E-1,3.549494982E0
2.571684059E0,-3.518443406E-1,-1.545892209E-1,3.638681173E0
2.573683792E0,-1.582000405E-1,-5.400451422E-1,3.691826344E0
2.575683525E0,-4.030305520E-2,-6.634399891E-1,3.558046818E0
2.577683325E0,-3.480526805E-2,-5.840274692E-1,3.393724203E0
2.579683691E0,-1.044439077E-1,-2.828709185E-1,2.942905426E0
2.581683424E0,-1.484262049E-1,4.516371340E-2,2.684509516E0
2.583683157E0,-1.386523545E-1,1.447347403E-1,2.257514954E0
2.585682757E0,-1.160503477E-1,2.204820365E-1,1.986901522E0
2.587682490E0,-1.203263998E-1,1.960474253E-1,1.917873740E0
2.589682223E0,-1.795803308E-1,6.104620919E-2,1.880610943E0
2.591681956E0,-2.785404921E-1,-1.087743267E-1,1.916651964E0
2.593681756E0,-3.176358640E-1,-1.906302869E-1,1.934367061E0
2.595681489E0,-3.439030647E-1,-3.207445741E-1,1.927647591E0
2.597681222E0,-3.023642600E-1,-4.355872571E-1,1.860452414E0
2.599680955E0,-2.687666714E-1,-4.765152037E-1,1.810361505E0
2.601681355E0,-1.698064953E-1,-5.412669182E-1,1.686966658E0
2.603681088E0,-7.634411007E-2,-5.974665284E-1,1.583730459E0
2.605680821E0,-3.847045824E-2,-6.286206841E-1,1.540969849E0
2.607680554E0,3.055731207E-2,-6.713812351E-1,1.452394366E0
2.609680354E0,7.026354969E-2,-7.159743905E-1,1.397416472E0
2.611680087E0,8.797864616E-2,-7.416307330E-1,1.371760249E0
2.613679820E0,1.307392120E-1,-7.691196799E-1,1.317393184E0
2.615679553E0,1.570064276E-1,-7.898890972E-1,1.282573819E0
2.617679286E0,1.698345989E-1,-7.886673808E-1,1.272800088E0
2.619679019E0,2.070973665E-1,-7.672870755E-1,1.238591552E0
2.621679285E0,2.254233211E-1,-7.239156365E-1,1.193387628E0
2.623679018E0,2.217581272E-1,-7.037571073E-1,1.186668038E0
2.625678818E0,2.028212994E-1,-6.347293258E-1,1.154903054E0
2.627678551E0,1.887714118E-1,-5.412669182E-1,1.091983914E0
2.629678284E0,1.722780466E-1,-4.765152037E-1,1.046779871E0
2.631678017E0,1.557846814E-1,-3.311292827E-1,9.246068597E-1
2.633677750E0,1.710563153E-1,-1.845216155E-1,7.731122971E-1
2.635677483E0,1.918257326E-1,-1.142721176E-1,6.985867023E-1
2.637677216E0,2.284776419E-1,-1.347935293E-2,5.641963482E-1
2.639676382E0,2.474144697E-1,6.287880242E-2,4.548514783E-1
2.641676182E0,2.553557158E-1,8.792427927E-2,4.151452184E-1
2.643675915E0,2.742925286E-1,1.300739795E-1,3.387870789E-1
2.645675648E0,2.938402295E-1,1.508433968E-1,2.966373861E-1
2.647675381E0,3.066684008E-1,1.575629115E-1,2.807548940E-1
2.649675114E0,3.420985937E-1,1.483999342E-1,2.746462524E-1
2.651674847E0,3.848591745E-1,1.117480248E-1,2.831983566E-1
2.653674580E0,4.147915542E-1,8.731341362E-2,2.886961401E-1
2.655674380E0,4.795432687E-1,3.050294518E-2,3.009134531E-1
2.657674180E0,5.601775050E-1,-3.424877301E-2,3.119090199E-1
2.659673913E0,6.059923768E-1,-7.151155174E-2,3.167959154E-1
2.661672979E0,6.945677996E-1,-1.509240270E-1,3.222937286E-1
2.663672712E0,7.910845280E-1,-2.254495919E-1,3.235154450E-1
2.665672445E0,8.387320638E-1,-2.682101727E-1,3.204611242E-1
2.667672178E0,9.321944118E-1,-3.567856252E-1,3.161850572E-1
2.669671911E0,1.016493797E0,-4.459719658E-1,3.039677739E-1
2.671671711E0,1.052534938E0,-4.917868376E-1,3.021351695E-1
2.673671444E0,1.114843130E0,-5.907469988E-1,2.795331776E-1
2.675671177E0,1.144164681E0,-6.420596838E-1,2.685376108E-1
2.677670910E0,1.201585889E0,-7.581241131E-1,2.404377759E-1
2.679670643E0,1.263894320E0,-8.747993708E-1,1.976772100E-1
2.681669909E0,1.296880960E0,-9.389401674E-1,1.701882780E-1
2.683669642E0,1.361021876E0,-1.065389276E0,9.321925789E-2
2.685669375E0,1.437990904E0,-1.194892645E0,-2.406686917E-2
2.687669175E0,1.480751514E0,-1.258422732E0,-9.309463948E-2
2.689668908E0,1.577268124E0,-1.414193392E0,-2.555848062E-1
2.691668641E0,1.673784733E0,-1.557135820E0,-4.339574575E-1
2.693668374E0,1.724486709E0,-1.623109221E0,-5.268089771E-1
2.695668107E0,1.843605399E0,-1.747725844E0,-7.143446207E-1
2.697667840E0,1.958448052E0,-1.836912155E0,-9.006584883E-1
2.699667573E0,2.017701864E0,-1.879672766E0,-9.922882915E-1
2.701667306E0,2.141096592E0,-1.941370130E0,-1.146837115E0
2.703667106E0,2.226006985E0,-1.943202615E0,-1.282449245E0
2.705666839E0,2.265102386E0,-1.951754808E0,-1.333151102E0
2.707666572E0,2.331075907E0,-1.990850091E0,-1.402789712E0
2.709666305E0,2.367116928E0,-2.066597462E0,-1.427835226E0
2.711666038E0,2.363451719E0,-2.109357834E0,-1.429056883E0
2.713665771E0,2.333519220E0,-2.189381361E0,-1.399124503E0
2.715665504E0,2.277930737E0,-2.218091965E0,-1.361250877E0
2.717665237E0,2.240056992E0,-2.210150957E0,-1.330707669E0
2.719665037E0,2.157590151E0,-2.164335966E0,-1.272675395E0
2.721664770E0,2.077566624E0,-2.097140551E0,-1.185321689E0
2.723664503E0,2.037249565E0,-2.061710358E0,-1.140117645E0
2.725664236E0,1.957226276E0,-1.960917711E0,-1.022831559E0
2.727663969E0,1.877813816E0,-1.820418715E0,-8.951607347E-1
2.729663702E0,1.841161847E0,-1.750169158E0,-8.230786324E-1
2.731663435E0,1.773355842E0,-1.598063827E0,-6.630319357E-1
2.733663235E0,1.731817007E0,-1.492384195E0,-5.011526346E-1
2.735663035E0,1.710436821E0,-1.454510450E0,-4.199075699E-1
2.737662768E0,1.678060889E0,-1.395867467E0,-2.684129775E-1
2.739662501E0,1.647517562E0,-1.351885080E0,-1.199727133E-1
2.741662334E0,1.636522055E0,-1.339667797E0,-4.666888341E-2
2.743662067E0,1.604757071E0,-1.329893947E0,9.016492963E-2
2.745661800E0,1.577268124E0,-1.288355112E0,2.141705751E-1
2.747661533E0,1.561385632E0,-1.249870658E0,2.709810436E-1
2.749661333E0,1.517403364E0,-1.173512459E0,3.699412346E-1
2.751661066E0,1.469145060E0,-1.091656446E0,4.658470452E-1
2.753660799E0,1.447153807E0,-1.059891462E0,5.147162676E-1
2.755660532E0,1.386678100E0,-1.001248479E0,5.959613919E-1
2.757660265E0,1.339030623E0,-9.633747935E-1,6.558261514E-1
2.759660131E0,1.309709072E0,-9.499357939E-1,6.747630239E-1
2.761659864E0,1.252898693E0,-9.523792267E-1,7.065279484E-1
2.763659597E0,1.210138083E0,-9.682617188E-1,7.175235748E-1
2.765659397E0,1.193033814E0,-9.835333824E-1,7.181344032E-1
2.767659130E0,1.156992793E0,-1.031180859E0,7.095822692E-1
2.769658863E0,1.147829890E0,-1.056226373E0,7.004193068E-1
2.771658596E0,1.127671242E0,-1.113647699E0,6.753738523E-1
2.773658329E0,1.109956145E0,-1.181453705E0,6.497174501E-1
2.775658062E0,1.100793242E0,-1.208331823E0,6.313915253E-1
2.777657795E0,1.103236675E0,-1.243762016E0,6.112329960E-1
2.779657528E0,1.122173429E0,-1.256590128E0,6.167307496E-1
2.781657328E0,1.136834264E0,-1.255979300E0,6.277263165E-1
2.783657061E0,1.175929666E0,-1.248648882E0,6.582695842E-1
2.785656794E0,1.224798799E0,-1.206499100E0,6.973649859E-1
2.787656527E0,1.248622537E0,-1.182064533E0,7.089714408E-1
2.789656260E0,1.291993976E0,-1.146023512E0,7.224104404E-1
2.791655993E0,1.328645945E0,-1.121588826E0,7.230213284E-1
2.793655726E0,1.343917608E0,-1.109371543E0,7.193561196E-1
2.795655459E0,1.370795608E0,-1.095932603E0,7.126365900E-1
2.797655259E0,1.367741346E0,-1.124643207E0,7.450124621E-1
2.799654992E0,1.361021876E0,-1.125254154E0,7.663927674E-1
2.801654992E0,1.337808967E0,-1.103262901E0,7.865513563E-1
2.803654725E0,1.318872094E0,-1.066000104E0,8.164836764E-1
2.805654458E0,1.308487415E0,-1.026293993E0,8.232032657E-1
2.807654191E0,1.287107229E0,-9.456597567E-1,8.305336237E-1
2.809653924E0,1.271835446E0,-8.509755731E-1,8.311444521E-1
2.811653724E0,1.259007335E0,-8.210431933E-1,8.287009597E-1
2.813653524E0,1.229685783E0,-7.630109787E-1,8.250358105E-1
2.815653257E0,1.213192344E0,-7.178069949E-1,8.225923181E-1
2.817652990E0,1.201585889E0,-7.068114281E-1,8.280901313E-1
2.819652590E0,1.186925173E0,-7.129200697E-1,8.506921530E-1
2.821652323E0,1.158825397E0,-7.269699574E-1,8.910092711E-1
2.823652056E0,1.145386338E0,-7.214721441E-1,9.105569720E-1
2.825651789E0,1.103236675E0,-7.226939201E-1,9.496523142E-1
2.827651589E0,1.042760968E0,-7.165852785E-1,9.881368279E-1
2.829651389E0,1.009774327E0,-7.214721441E-1,1.005241036E0
2.831651155E0,9.376922250E-1,-7.190287113E-1,1.038227797E0
2.833650921E0,8.637775183E-1,-7.257482409E-1,1.055942893E0
2.835650687E0,8.161299825E-1,-7.349112034E-1,1.069381952E0
2.837650453E0,7.409936190E-1,-7.135309577E-1,1.077323079E0
2.839650219E0,6.585267782E-1,-6.970375180E-1,1.090762258E0
2.841649985E0,6.163770556E-1,-6.732137799E-1,1.091983914E0
2.843649818E0,5.406298041E-1,-6.212902665E-1,1.104812145E0
2.845649584E0,4.673259556E-1,-5.540950894E-1,1.120083690E0
2.847649350E0,4.276197255E-1,-5.186648965E-1,1.132300973E0
2.849649116E0,3.567593396E-1,-4.545240402E-1,1.154903054E0
2.851648882E0,2.901750505E-1,-3.702246845E-1,1.178726792E0
2.853648648E0,2.577992082E-1,-3.470117748E-1,1.190333247E0
2.855648414E0,1.979343891E-1,-2.895904481E-1,1.217822194E0
2.857648180E0,1.429565102E-1,-2.437755466E-1,1.241645932E0
2.859648013E0,1.160784438E-1,-2.193409353E-1,1.255084991E0
2.861646913E0,7.576134056E-2,-1.661956608E-1,1.284406543E0
2.863646679E0,5.560278520E-2,-1.442045122E-1,1.302121639E0
2.865646445E0,1.100962423E-2,-9.289183468E-2,1.343660355E0
2.867646211E0,-2.686402202E-2,-5.990510806E-2,1.391918778E0
2.869645977E0,-4.763343930E-2,-4.035742208E-2,1.416353345E0
2.871645743E0,-7.939843088E-2,9.733526967E-3,1.472553015E0
2.873645509E0,-1.184938028E-1,8.120475709E-2,1.531195998E0
2.875645342E0,-1.386523545E-1,1.172458082E-1,1.558074117E0
2.877645108E0,-1.740825474E-1,1.960474253E-1,1.606943369E0
2.879644874E0,-2.137887925E-1,2.742381990E-1,1.642373562E0
2.881645340E0,-2.315038741E-1,3.200530708E-1,1.654590845E0
2.883645106E0,-2.614362836E-1,4.275653660E-1,1.672305942E0
2.885644872E0,-2.999207675E-1,5.668426752E-1,1.657034278E0
2.887644638E0,-3.139706850E-1,6.560289264E-1,1.638097405E0
2.889644404E0,-3.439030647E-1,8.698318005E-1,1.569069743E0
2.891644204E0,-3.726137280E-1,1.122730017E0,1.466444373E0
2.893643937E0,-3.909396827E-1,1.262618184E0,1.408412099E0
2.895643670E0,-4.135417044E-1,1.561331272E0,1.273410916E0
2.897643403E0,-4.398089349E-1,1.862487793E0,1.101757765E0
2.899643136E0,-4.501936436E-1,2.012760639E0,1.015014887E0
2.901642869E0,-4.569131434E-1,2.327356100E0,8.250358105E-1
2.903642602E0,-4.544697106E-1,2.629734516E0,6.472740769E-1
2.905642402E0,-4.550805688E-1,2.759238005E0,5.562551022E-1
2.907642202E0,-4.801260233E-1,2.922950029E0,3.894889057E-1
2.909641935E0,-5.393799543E-1,2.971819162E0,2.251661569E-1
2.911641668E0,-5.778645277E-1,2.949827909E0,1.445319355E-1
2.913641401E0,-6.725485921E-1,2.837428808E0,-2.162340656E-2
2.915641134E0,-7.855586410E-1,2.641340971E0,-1.908330768E-1
2.917640867E0,-8.393148184E-1,2.528330803E0,-2.763542235E-1
2.919640600E0,-9.553791881E-1,2.254663229E0,-4.553377330E-1
2.921641266E0,-1.061058879E0,1.976719618E0,-6.330995560E-1
2.923640999E0,-1.103819489E0,1.834388018E0,-7.253401279E-1
2.925640732E0,-1.168571115E0,1.576602936E0,-8.994367719E-1
2.927640465E0,-1.205222964E0,1.331645846E0,-1.079641938E0
2.929640198E0,-1.205834031E0,1.217414021E0,-1.169439197E0
2.931639931E0,-1.177123308E0,1.032932878E0,-1.355753064E0
2.933639664E0,-1.101375937E0,8.893794417E-1,-1.550008297E0
2.935639397E0,-1.059837103E0,8.350124359E-1,-1.645914078E0
2.937639197E0,-9.346098304E-1,7.507130504E-1,-1.826119423E0
2.939638930E0,-7.934998870E-1,6.908482909E-1,-1.983111739E0
2.941637963E0,-7.177526355E-1,6.645810604E-1,-2.050306797E0
2.943637696E0,-5.558733344E-1,6.230422258E-1,-2.173701763E0
2.945637429E0,-3.903288245E-1,5.662317276E-1,-2.264720678E0
2.947637162E0,-3.109163642E-1,5.369102359E-1,-2.301983356E0
2.949636895E0,-1.643086970E-1,4.648281336E-1,-2.356350422E0
2.951636628E0,-1.013895795E-1,4.196241200E-1,-2.373454571E0
2.953636428E0,2.457510913E-3,3.102792501E-1,-2.378341436E0
2.955636161E0,7.087442279E-2,1.740562767E-1,-2.358182907E0
2.957635894E0,8.981124312E-2,1.062502339E-1,-2.334359169E0
2.959635627E0,1.179110408E-1,-4.096828774E-2,-2.265331507E0
2.961635360E0,1.111915261E-1,-1.643630713E-1,-2.171869040E0
2.963635093E0,1.014176756E-1,-2.181192189E-1,-2.118113041E0
2.965634826E0,7.087442279E-2,-2.822600603E-1,-2.004492044E0
2.967634559E0,2.628125623E-2,-2.999751568E-1,-1.885984182E0
2.969634359E0,7.955297828E-3,-2.871469855E-1,-1.829173684E0
2.971634092E0,-2.991834655E-2,-2.333908379E-1,-1.712498426E0
2.973633825E0,-7.145718485E-2,-1.442045122E-1,-1.598877430E0
2.975633558E0,-9.222660214E-2,-9.533529729E-2,-1.539623499E0
2.977633291E0,-1.294893771E-1,1.400958374E-2,-1.435165524E0
2.979633024E0,-1.746934056E-1,1.123588830E-1,-1.334983587E0
2.981632757E0,-1.966845542E-1,1.575629115E-1,-1.290390491E0
2.983632557E0,-2.382233888E-1,2.241472304E-1,-1.203647733E0
2.985632357E0,-2.828165591E-1,2.687403858E-1,-1.119348288E0
2.987632090E0,-2.974773347E-1,2.834011614E-1,-1.080863714E0
2.989631823E0,-3.322966397E-1,2.956184745E-1,-1.010003328E0
2.991631556E0,-3.628399074E-1,2.913424075E-1,-9.458625317E-1
2.993631289E0,-3.756680787E-1,2.840120196E-1,-9.165410399E-1
2.995631022E0,-3.903288245E-1,2.626317441E-1,-8.688935041E-1
2.997630755E0,-3.842201829E-1,2.461383790E-1,-8.304089904E-1
2.999630555E0,-3.811658621E-1,2.424731851E-1,-8.169699907E-1
3.001630788E0,-3.530660570E-1,2.491926998E-1,-7.919244766E-1
3.005131381E0,-3.133598268E-1,2.742381990E-1,-7.674898505E-1
3.007131114E0,-2.907578051E-1,2.913424075E-1,-7.546616793E-1
3.009130847E0,-2.376125306E-1,3.267725706E-1,-7.173989415E-1
3.011130580E0,-1.875215769E-1,3.438768387E-1,-6.660862565E-1
3.013130313E0,-1.661413014E-1,3.487637341E-1,-6.330995560E-1
3.015130046E0,-1.325436980E-1,3.267725706E-1,-5.628500581E-1
3.017129846E0,-1.087199599E-1,2.772925198E-1,-4.834375381E-1
3.019129579E0,-1.020004451E-1,2.406405956E-1,-4.455638826E-1
3.021129312E0,-8.550708741E-2,1.655041724E-1,-3.759252727E-1
3.023129045E0,-6.779199094E-2,8.364822716E-2,-3.197256327E-1
3.025128778E0,-5.740728229E-2,4.027679190E-2,-2.928475738E-1
3.027128511E0,-3.602699935E-2,-3.913569078E-2,-2.500869930E-1
3.029128244E0,-1.098152436E-2,-1.148829833E-1,-2.061047107E-1
3.031127977E0,3.679241519E-3,-1.490914375E-1,-1.859461516E-1
3.033127777E0,3.238990903E-2,-2.217844129E-1,-1.419638693E-1
3.035127510E0,6.293316931E-2,-2.914230227E-1,-9.737069905E-2
3.037127243E0,7.331787795E-2,-3.250206411E-1,-7.476868480E-2
3.039126976E0,9.958508611E-2,-3.854962885E-1,-2.834292687E-2
3.041126709E0,1.191327721E-1,-4.416958988E-1,2.052629553E-2
3.043126442E0,1.264631599E-1,-4.673522413E-1,4.007398337E-2
3.045126175E0,1.301283389E-1,-5.027824044E-1,8.344541490E-2
3.047125908E0,1.227979660E-1,-5.204975009E-1,9.993877262E-2
3.049125708E0,1.154675856E-1,-5.455429554E-1,1.292603165E-1
3.051125474E0,9.653076530E-2,-5.705884695E-1,1.445319355E-1
3.053125240E0,8.675691485E-2,-5.809731483E-1,1.488080025E-1
3.055125006E0,5.865711346E-2,-6.127381325E-1,1.396450251E-1
3.057124772E0,1.895087212E-2,-6.451140046E-1,1.176538691E-1
3.059124538E0,-1.207680558E-3,-6.622182727E-1,9.932791442E-2
3.061124304E0,-3.724873066E-2,-6.860420108E-1,6.817378104E-2
3.063122704E0,-5.985074118E-2,-6.768790483E-1,3.579792380E-2
3.065122537E0,-6.168333814E-2,-6.603856087E-1,2.663494647E-2
3.067122403E0,-5.252036452E-2,-6.005208492E-1,1.930456422E-2
3.069122269E0,-2.869661711E-2,-5.180540085E-1,2.480235137E-2
3.071122135E0,-1.403585076E-2,-4.704065621E-1,2.785667591E-2
3.073122001E0,1.100962423E-2,-3.738898635E-1,4.557177052E-2
3.075121867E0,3.544423357E-2,-2.944773436E-1,6.267599761E-2
3.077121733E0,4.521808028E-2,-2.682101727E-1,6.878464669E-2
3.079121666E0,6.110057607E-2,-2.309473753E-1,7.672590017E-2
3.081121599E0,7.698307186E-2,-2.107888311E-1,7.733675838E-2
3.083121532E0,9.042210132E-2,-2.052910477E-1,8.100195229E-2
3.085121465E0,1.081371978E-1,-1.887976825E-1,7.306070626E-2
3.087121398E0,1.350152791E-1,-1.747477651E-1,6.634118408E-2
3.089121331E0,1.490651667E-1,-1.637521982E-1,6.145426631E-2
3.091121264E0,1.570064276E-1,-1.313763410E-1,5.045869201E-2
3.093121197E0,1.942691952E-1,-1.637521982E-1,2.480235137E-2
3.095121197E0,2.223690003E-1,-1.918520033E-1,7.698123809E-3
3.097121163E0,2.559665740E-1,-2.443864197E-1,-4.422542080E-2
3.099121129E0,2.767359912E-1,-2.761513889E-1,-1.022576243E-1
3.101121095E0,2.828446627E-1,-2.877578437E-1,-1.364660859E-1
3.103121061E0,2.828446627E-1,-3.189119995E-1,-1.969417334E-1
3.105121027E0,2.712382078E-1,-3.500660956E-1,-2.592499852E-1
3.107120993E0,2.632969618E-1,-3.604508042E-1,-2.904041111E-1
3.109120959E0,2.559665740E-1,-3.769441843E-1,-3.404950500E-1
3.111121825E0,2.437492758E-1,-3.745006919E-1,-3.728709221E-1
3.113121791E0,2.394732237E-1,-3.757224381E-1,-3.850882351E-1
3.115121757E0,2.309211195E-1,-3.671703041E-1,-3.979164064E-1
3.117121723E0,2.309211195E-1,-3.561747372E-1,-3.960838020E-1
3.119121689E0,2.333645821E-1,-3.525095582E-1,-3.899751604E-1
3.121121655E0,2.339754403E-1,-3.616725504E-1,-3.710383177E-1
3.123122555E0,2.327537090E-1,-3.971027136E-1,-3.484362960E-1
3.125122521E0,2.296993881E-1,-4.209264815E-1,-3.380516171E-1
3.127122454E0,2.217581272E-1,-4.661304951E-1,-3.142278790E-1
3.129122354E0,2.089299560E-1,-4.777369499E-1,-3.026214242E-1
3.131122254E0,2.070973665E-1,-4.765152037E-1,-2.959019244E-1
3.133122154E0,1.991561055E-1,-4.569675326E-1,-2.861280441E-1
3.135122054E0,1.942691952E-1,-4.270351231E-1,-2.794085443E-1
3.137121954E0,1.936583221E-1,-4.087091684E-1,-2.745216191E-1
3.139121854E0,1.844953597E-1,-3.787767589E-1,-2.635260224E-1
3.141121754E0,1.759432405E-1,-3.671703041E-1,-2.574173808E-1
3.143121654E0,1.582281440E-1,-3.421248496E-1,-2.452000827E-1
3.145121554E0,1.252414286E-1,-3.286858201E-1,-2.348153889E-1
3.147121454E0,1.105806604E-1,-3.219663203E-1,-2.280958593E-1
3.149121354E0,7.392874360E-2,-3.060837984E-1,-2.158785611E-1
3.151121254E0,4.216375202E-2,-2.914230227E-1,-2.018286586E-1
3.153121154E0,2.750298567E-2,-2.810383439E-1,-1.969417334E-1
3.155121054E0,-3.040276235E-3,-2.657666802E-1,-1.780049205E-1
3.157120987E0,-2.625315450E-2,-2.413320988E-1,-1.566246301E-1
3.159120920E0,-3.541613370E-2,-2.315582484E-1,-1.431855857E-1
3.161120786E0,-5.374209210E-2,-2.065127790E-1,-1.175292507E-1
3.163120652E0,-6.168333814E-2,-1.808564365E-1,-8.759685606E-2
3.165120518E0,-6.473766267E-2,-1.723043174E-1,-7.354695350E-2
3.167120384E0,-7.451151311E-2,-1.625304669E-1,-5.949705094E-2
3.169120250E0,-7.695496827E-2,-1.613087505E-1,-5.277753621E-2
3.171119250E0,-8.123102784E-2,-1.613087505E-1,-5.399926752E-2
3.173119150E0,-8.245275915E-2,-1.643630713E-1,-6.132964790E-2
3.175118983E0,-8.367449045E-2,-1.668065339E-1,-7.232522219E-2
3.177118816E0,-8.000929654E-2,-1.735260487E-1,-7.782301307E-2
3.179118649E0,-7.817670703E-2,-1.973497868E-1,-9.004031122E-2
3.181118482E0,-6.840285659E-2,-2.040693015E-1,-9.248378128E-2
3.183118848E0,-6.840285659E-2,-2.065127790E-1,-9.248378128E-2
3.185118681E0,-6.046161056E-2,-1.997932643E-1,-8.881858736E-2
3.187118514E0,-5.923987925E-2,-1.900194138E-1,-8.026646823E-2
3.189119114E0,-5.862901360E-2,-1.906302869E-1,-7.537955046E-2
3.191118914E0,-5.923987925E-2,-1.906302869E-1,-6.316224486E-2
3.193118714E0,-6.229420379E-2,-2.016258538E-1,-4.789061472E-2
3.195118514E0,-6.290507317E-2,-2.120105624E-1,-3.994936496E-2
3.197118314E0,-6.473766267E-2,-2.260604501E-1,-1.551475562E-2
3.199118114E0,-5.862901360E-2,-2.260604501E-1,5.254663061E-3
3.201117914E0,-5.435295776E-2,-2.211735398E-1,1.380677614E-2
3.203117714E0,-4.091392085E-2,-2.083453685E-1,2.541321516E-2
3.205117514E0,-2.319882996E-2,-1.875759363E-1,2.663494647E-2
3.207117247E0,-1.220325474E-2,-1.759695113E-1,2.419148572E-2
3.209116980E0,1.100962423E-2,-1.600870043E-1,1.502850745E-2
3.211116713E0,3.544423357E-2,-1.429827809E-1,1.197418012E-2
3.213116446E0,4.766153544E-2,-1.344306618E-1,1.747196727E-2
3.215116179E0,5.865711346E-2,-1.197699085E-1,8.527800441E-2
3.217115912E0,4.338548332E-2,-1.075525954E-1,1.927902997E-1
3.219115645E0,3.483337164E-2,-9.044837207E-2,2.245552838E-1
3.221115445E0,1.589654572E-2,-5.501819029E-2,2.508224845E-1
3.223115178E0,-1.207680558E-3,-1.286848728E-2,2.514333427E-1
3.225114911E0,-9.759793989E-3,1.156612299E-2,2.428812385E-1
3.227114644E0,-1.709017716E-2,5.066150054E-2,2.233335525E-1
3.229114377E0,-2.442056127E-2,8.670254797E-2,2.050075978E-1
3.231114110E0,-2.625315450E-2,9.953071922E-2,1.934011579E-1
3.233113843E0,-2.869661711E-2,1.184675395E-1,1.707991511E-1
3.235113643E0,-2.930748090E-2,1.215218678E-1,1.543057859E-1
3.237113443E0,-2.930748090E-2,1.203001291E-1,1.292603165E-1
3.239113176E0,-2.136623301E-2,1.056393757E-1,1.072691604E-1
3.241112909E0,-2.014450356E-2,9.647639096E-2,9.566272050E-2
3.243112109E0,-2.429411281E-3,7.876130193E-2,7.794762403E-2
3.245111842E0,1.895087212E-2,5.432669073E-2,6.206513196E-2
3.247111575E0,3.422250226E-2,4.088765383E-2,5.351301655E-2
3.249110575E0,6.476575881E-2,1.706391014E-2,3.763052076E-2
3.251110375E0,1.050828695E-1,-1.042502560E-2,2.541321516E-2
3.253110108E0,1.185219064E-1,-2.142060176E-2,1.869369857E-2
3.255109841E0,1.502868980E-1,-5.379645899E-2,3.422067268E-3
3.257109574E0,1.698345989E-1,-8.739405125E-2,-1.429302525E-2
3.259109307E0,1.771649718E-1,-1.057199985E-1,-2.223427407E-2
3.261109040E0,1.875496805E-1,-1.490914375E-1,-3.445157781E-2
3.263108773E0,1.869388074E-1,-2.016258538E-1,-4.483629018E-2
3.265108506E0,1.808301657E-1,-2.285039276E-1,-4.911234230E-2
3.267108306E0,1.637259424E-1,-2.706536353E-1,-5.033407733E-2
3.269108039E0,1.466217041E-1,-2.969208360E-1,-4.850148037E-2
3.271107772E0,1.423456520E-1,-3.005860150E-1,-4.361455515E-2
3.273107505E0,1.215762347E-1,-3.018077314E-1,-3.322984651E-2
3.275107238E0,1.069154665E-1,-2.914230227E-1,-1.551475562E-2
3.277106971E0,9.958508611E-2,-2.773731351E-1,-8.184372447E-3
3.279106704E0,8.370259404E-2,-2.529385090E-1,1.808283292E-2
3.281106437E0,7.576134056E-2,-2.230061293E-1,3.885225207E-2
3.283106237E0,6.965268403E-2,-2.046801746E-1,4.923696071E-2
3.285105970E0,6.598749757E-2,-1.759695113E-1,7.916935533E-2
3.287105703E0,6.904182583E-2,-1.460371166E-1,1.017713696E-1
3.289105436E0,6.965268403E-2,-1.387067288E-1,1.158212721E-1
3.291105169E0,6.415490061E-2,-1.246568263E-1,1.402558684E-1
3.293104902E0,6.110057607E-2,-1.258785576E-1,1.671339571E-1
3.295104635E0,6.110057607E-2,-1.252676994E-1,1.787403822E-1
3.297104368E0,5.682451651E-2,-1.252676994E-1,2.031750083E-1
3.299104168E0,5.804624781E-2,-1.216024980E-1,2.294422090E-1
3.301103901E0,5.499191955E-2,-1.252676994E-1,2.386052012E-1
3.303103634E0,5.865711346E-2,-1.228242368E-1,2.654832602E-1
3.305103367E0,5.560278520E-2,-1.228242368E-1,2.844200730E-1
3.307103100E0,5.560278520E-2,-1.197699085E-1,2.954156399E-1
3.309102833E0,5.560278520E-2,-1.148829833E-1,3.149633408E-1
3.311102566E0,5.254846066E-2,-1.026656777E-1,3.314566910E-1
3.313102366E0,5.377019197E-2,-9.838961810E-2,3.436740041E-1
3.315102166E0,5.499191955E-2,-8.617231995E-2,3.619999588E-1
3.317101899E0,4.766153544E-2,-7.028982043E-2,3.760498762E-1
3.319101632E0,4.338548332E-2,-6.601376086E-2,3.833802342E-1
3.321101365E0,3.849856183E-2,-4.952039942E-2,3.955975771E-1
3.323101098E0,2.567039058E-2,-3.791396320E-2,4.035387933E-1
3.325100831E0,1.711827703E-2,-2.264233120E-2,4.078148603E-1
3.327100564E0,4.900971893E-3,-4.031710705E-5,4.145343602E-1
3.329100364E0,-3.040276235E-3,1.584217884E-2,4.163669646E-1
3.331100164E0,-1.647931151E-2,4.149851948E-2,4.157561064E-1
3.333099897E0,-3.236180916E-2,7.387437671E-2,4.120908976E-1
3.335099630E0,-3.969219327E-2,8.609168231E-2,4.053713977E-1
3.337099363E0,-6.290507317E-2,1.129697487E-1,3.980410099E-1
3.339099096E0,-7.756583393E-2,1.337391734E-1,3.809368014E-1
3.341098829E0,-8.367449045E-2,1.429021508E-1,3.748281300E-1
3.343098562E0,-9.955698252E-2,1.661150306E-1,3.528369665E-1
3.345098362E0,-1.117742956E-1,1.838301271E-1,3.265697956E-1
3.347098095E0,-1.129960194E-1,1.954365522E-1,3.137415946E-1
3.349097828E0,-1.166612059E-1,2.217037678E-1,2.612072229E-1
3.351097561E0,-1.038330346E-1,2.626317441E-1,1.952337474E-1
3.353097294E0,-9.894612432E-2,2.858445942E-1,1.549166441E-1
3.355097027E0,-7.695496827E-2,3.322703838E-1,6.878464669E-2
3.357096760E0,-3.847045824E-2,3.884699643E-1,-3.567330912E-2
3.359096493E0,-1.770104282E-2,4.177915156E-1,-9.370550513E-2
3.361096293E0,3.361163661E-2,4.782671928E-1,-2.201546133E-1
3.363096026E0,9.286557138E-2,5.173625350E-1,-3.514906168E-1
3.365095759E0,1.221870929E-1,5.259146690E-1,-4.162423611E-1
3.367095492E0,1.698345989E-1,5.167517066E-1,-5.298632979E-1
3.369095225E0,2.077082396E-1,4.855975509E-1,-6.343212128E-1
3.371094958E0,2.223690003E-1,4.642172456E-1,-6.795252562E-1
3.373094691E0,2.437492758E-1,4.171806276E-1,-7.662681341E-1
3.375094424E0,2.657404244E-1,3.719766140E-1,-8.389611244E-1
3.377094224E0,2.773468494E-1,3.524289131E-1,-8.695043921E-1
3.379093957E0,3.023923337E-1,3.377681673E-1,-9.110432267E-1
3.381093690E0,3.225508928E-1,3.359355628E-1,-9.366995096E-1
3.383093423E0,3.341573477E-1,3.450985551E-1,-9.415864944E-1
3.385093156E0,3.677549064E-1,3.768635392E-1,-9.336451888E-1
3.387092889E0,3.952438533E-1,4.226784408E-1,-9.092106223E-1
3.389092622E0,4.111263752E-1,4.495564997E-1,-8.927172422E-1
3.391092355E0,4.490000010E-1,5.045343637E-1,-8.505675793E-1
3.393092155E0,4.758780897E-1,5.430188775E-1,-8.010874391E-1
3.395091888E0,4.887062311E-1,5.650100112E-1,-7.760419846E-1
3.397091621E0,5.198603272E-1,5.912772417E-1,-7.192314863E-1
3.399091354E0,5.381863117E-1,6.151010394E-1,-6.660862565E-1
3.401091087E0,5.473493338E-1,6.230422258E-1,-6.410407424E-1
3.403090820E0,5.626209378E-1,6.438116431E-1,-5.860628486E-1
3.405090553E0,5.772816539E-1,6.615267396E-1,-5.316958427E-1
3.407090353E0,5.840012431E-1,6.639702320E-1,-5.054286718E-1
3.409090153E0,6.029380560E-1,6.603049636E-1,-4.559486210E-1
3.411089886E0,6.200423241E-1,6.413681507E-1,-4.101336896E-1
3.413089619E0,6.310378313E-1,6.273183227E-1,-3.869208395E-1
3.415089352E0,6.493638158E-1,5.979967713E-1,-3.447711170E-1
3.417089085E0,6.536399126E-1,5.815033913E-1,-3.227799535E-1
3.419088818E0,6.640245914E-1,5.515710115E-1,-2.720781565E-1
3.421088551E0,6.658571959E-1,5.271363854E-1,-2.207654715E-1
3.423088351E0,6.615810990E-1,5.228603482E-1,-1.902222186E-1
3.425088084E0,6.444768906E-1,5.253037810E-1,-1.291356981E-1
3.427087817E0,6.328704357E-1,5.552362204E-1,-7.415781915E-2
3.429087550E0,6.218748689E-1,5.772273540E-1,-4.422542080E-2
3.431087283E0,6.017162800E-1,6.346486807E-1,1.869369857E-2
3.433087016E0,5.925533175E-1,6.951243281E-1,8.222368360E-2
3.435086749E0,5.913316011E-1,7.256675959E-1,1.176538691E-1
3.437086482E0,5.846120715E-1,7.885867357E-1,1.879033595E-1
3.439086282E0,5.852229595E-1,8.423428535E-1,2.605963349E-1
3.441086015E0,5.864446759E-1,8.637231588E-1,2.996917069E-1
3.443085748E0,5.888881087E-1,8.991532922E-1,3.748281300E-1
3.445085481E0,5.949968100E-1,9.248096943E-1,4.469102621E-1
3.447085214E0,6.017162800E-1,9.333617687E-1,4.817295671E-1
3.449084947E0,5.992728472E-1,9.376378059E-1,5.458704233E-1
3.451084680E0,6.066032052E-1,9.248096943E-1,6.020700336E-1
3.453084413E0,6.035488844E-1,9.162575603E-1,6.258937120E-1
3.455084213E0,5.943859220E-1,8.771621585E-1,6.576587558E-1
3.457083946E0,5.742273331E-1,8.221843243E-1,6.729303598E-1
3.459083679E0,5.546796918E-1,7.806454301E-1,6.649891138E-1
3.461083412E0,5.235255957E-1,7.030655742E-1,6.301698089E-1
3.463083145E0,4.844301641E-1,6.096032262E-1,5.629746318E-1
3.465082878E0,4.642716348E-1,5.668426752E-1,5.202140212E-1
3.467082611E0,4.245654047E-1,4.703259170E-1,4.316385984E-1
3.469082344E0,3.787505031E-1,3.927460313E-1,3.314566910E-1
3.471082144E0,3.628680110E-1,3.573158681E-1,2.831983566E-1
3.473081877E0,3.292704225E-1,2.986727953E-1,1.842381805E-1
3.475081610E0,3.078901470E-1,2.546904981E-1,9.016492963E-2
3.477081343E0,3.060575128E-1,2.381971329E-1,4.923696071E-2
3.479081076E0,2.987271547E-1,2.149842530E-1,-3.078638576E-2
3.481080809E0,3.005597591E-1,1.966582984E-1,-1.016467512E-1
3.483080542E0,3.066684008E-1,1.917713583E-1,-1.364660859E-1
3.485080342E0,3.085010052E-1,1.838301271E-1,-1.993851960E-1
3.487080142E0,3.121661842E-1,1.679476351E-1,-2.574173808E-1
3.489079908E0,3.085010052E-1,1.557303220E-1,-2.830737233E-1
3.491079674E0,3.011706173E-1,1.203001291E-1,-3.197256327E-1
3.493079440E0,2.840663791E-1,7.937216014E-2,-3.539341092E-1
3.495078773E0,2.712382078E-1,5.371582508E-2,-3.649296761E-1
3.497078539E0,2.449710071E-1,7.290065754E-3,-3.918077350E-1
3.499078305E0,2.040430456E-1,-4.096828774E-2,-4.052467942E-1
3.501078138E0,1.863279641E-1,-6.234857067E-2,-4.131880105E-1
3.503077971E0,1.380695999E-1,-1.032765433E-1,-4.186858237E-1
3.505077737E0,9.408729523E-2,-1.374849975E-1,-4.217401445E-1
3.507077503E0,6.965268403E-2,-1.484805793E-1,-4.241836071E-1
3.509077269E0,1.895087212E-2,-1.778021157E-1,-4.296813905E-1
3.511077035E0,-7.316332776E-3,-1.869650930E-1,-4.333465993E-1
3.513076801E0,-5.740728229E-2,-2.175083458E-1,-4.370117784E-1
3.515076567E0,-1.074982285E-1,-2.431646883E-1,-4.467856288E-1
3.517076400E0,-1.301002502E-1,-2.559928596E-1,-4.535051286E-1
3.519076166E0,-1.814129353E-1,-2.889795899E-1,-4.620572627E-1
3.521075932E0,-2.235626429E-1,-3.231880069E-1,-4.681659043E-1
3.523075698E0,-2.394451350E-1,-3.390705287E-1,-4.718310833E-1
3.525075464E0,-2.754861712E-1,-3.665594757E-1,-4.785506129E-1
3.527075230E0,-3.011425138E-1,-3.891614676E-1,-4.828266501E-1
3.529074996E0,-3.139706850E-1,-3.971027136E-1,-4.834375381E-1
3.531074762E0,-3.353509903E-1,-4.215373099E-1,-4.840483963E-1
3.533074595E0,-3.518443406E-1,-4.441393316E-1,-4.785506129E-1
3.535074361E0,-3.591746986E-1,-4.581892490E-1,-4.761071503E-1
3.537074127E0,-3.720028996E-1,-4.777369499E-1,-4.645006955E-1
3.539073893E0,-3.872745037E-1,-5.076693296E-1,-4.376226366E-1
3.541073659E0,-4.019352794E-1,-5.327147841E-1,-4.180749655E-1
3.543072992E0,-4.282024801E-1,-5.938013196E-1,-3.881425560E-1
3.545072758E0,-4.526370764E-1,-6.500009298E-1,-3.643188179E-1
3.547072524E0,-4.685195982E-1,-6.756572723E-1,-3.539341092E-1
3.549072324E0,-4.947867990E-1,-7.226939201E-1,-3.264451623E-1
3.551072057E0,-5.216648579E-1,-7.544589043E-1,-3.068974912E-1
3.553071790E0,-5.302169919E-1,-7.709522843E-1,-2.904041111E-1
3.555071523E0,-5.479320884E-1,-7.959977388E-1,-2.653586566E-1
3.557071256E0,-5.705341101E-1,-8.295953274E-1,-2.397022992E-1
3.559070989E0,-5.870274901E-1,-8.546407819E-1,-2.305393219E-1
3.561070722E0,-6.261228323E-1,-9.187816381E-1,-2.219872177E-1
3.563070455E0,-6.591095328E-1,-9.700943232E-1,-2.256524116E-1
3.565070255E0,-6.749920845E-1,-9.859768152E-1,-2.323719114E-1
3.567069988E0,-6.920962334E-1,-1.010411382E0,-2.452000827E-1
3.569069721E0,-7.030918598E-1,-1.036067724E0,-2.830737233E-1
3.571069454E0,-6.994266510E-1,-1.038511276E0,-3.056757450E-1
3.573069187E0,-6.719377637E-1,-1.018963575E0,-3.630970716E-1
3.575068920E0,-6.108511686E-1,-9.798681736E-1,-4.156315029E-1
3.577068653E0,-5.772535801E-1,-9.682617188E-1,-4.449530244E-1
3.579068453E0,-5.118910074E-1,-9.401619434E-1,-5.042069554E-1
3.581068253E0,-4.532479644E-1,-9.041208625E-1,-5.842303038E-1
3.583067986E0,-4.129308462E-1,-8.796862960E-1,-6.343212128E-1
3.585067719E0,-3.463465571E-1,-8.326496482E-1,-7.186206579E-1
3.587067452E0,-2.828165591E-1,-7.959977388E-1,-7.784854770E-1
3.589067185E0,-2.547167540E-1,-7.727848291E-1,-8.004766107E-1
3.591066918E0,-2.137887925E-1,-7.318568826E-1,-8.365176320E-1
3.593066651E0,-1.771368682E-1,-6.750463843E-1,-8.475132585E-1
3.595066451E0,-1.618652344E-1,-6.579421759E-1,-8.493458033E-1
3.597066184E0,-1.447610110E-1,-6.182359457E-1,-8.548436165E-1
3.599065917E0,-1.349871606E-1,-5.907469988E-1,-8.585087657E-1
3.601065650E0,-1.301002502E-1,-5.883035064E-1,-8.542327285E-1
3.603066683E0,-1.349871606E-1,-6.017425656E-1,-8.255220652E-1
3.605066416E0,-1.465936154E-1,-6.249554157E-1,-8.041417599E-1
3.607066149E0,-1.777477413E-1,-6.591639519E-1,-7.595486641E-1
3.609065882E0,-2.058475316E-1,-7.019245028E-1,-6.960186362E-1
3.611065682E0,-2.217300385E-1,-7.233047485E-1,-6.685297489E-1
3.613065415E0,-2.553276122E-1,-7.630109787E-1,-6.111084223E-1
3.615065581E0,-2.822057009E-1,-8.106585145E-1,-5.555196404E-1
3.617065314E0,-3.035859764E-1,-8.314279318E-1,-5.323067904E-1
3.619065047E0,-3.365727067E-1,-8.802971244E-1,-4.779397547E-1
3.621064780E0,-3.665050864E-1,-9.108403921E-1,-4.333465993E-1
3.623064513E0,-3.817767203E-1,-9.395511150E-1,-4.101336896E-1
3.625064246E0,-4.062113464E-1,-9.884203076E-1,-3.844773471E-1
3.627064046E0,-4.172069132E-1,-1.031791806E0,-3.588210046E-1
3.629063779E0,-4.220938385E-1,-1.045841694E0,-3.484362960E-1
3.631063512E0,-4.214829803E-1,-1.076995730E0,-3.203365207E-1
3.633063245E0,-4.214829803E-1,-1.108149886E0,-2.812411487E-1
3.635062978E0,-4.184286594E-1,-1.119145393E0,-2.610825896E-1
3.637062711E0,-4.178177714E-1,-1.158851743E0,-2.128242403E-1
3.639062444E0,-4.110982716E-1,-1.201612353E0,-1.651767492E-1
3.641062177E0,-4.043787420E-1,-1.229101181E0,-1.364660859E-1
3.643061977E0,-3.946048915E-1,-1.264531374E0,-8.270993084E-2
3.645061710E0,-3.799441159E-1,-1.291409373E0,-1.917994767E-2
3.647061443E0,-3.707811534E-1,-1.284079075E0,7.698123809E-3
3.649061176E0,-3.353509903E-1,-1.293242097E0,7.183897495E-2
3.651060909E0,-3.109163642E-1,-1.304848552E0,1.298711747E-1
3.653060642E0,-2.968664467E-1,-1.312178850E0,1.579709798E-1
3.655060375E0,-2.724318504E-1,-1.331726551E0,2.239444256E-1
3.657060175E0,-2.663232088E-1,-1.341500401E0,2.948047817E-1
3.659059975E0,-2.657123506E-1,-1.350052476E0,3.296241164E-1
3.661059708E0,-2.467755079E-1,-1.384261012E0,3.907106221E-1
3.663058574E0,-2.162322551E-1,-1.444736600E0,4.487428367E-1
3.665058307E0,-2.101235986E-1,-1.482610226E0,4.780643582E-1
3.667058040E0,-1.985171437E-1,-1.575461745E0,5.415943861E-1
3.669057773E0,-1.838563830E-1,-1.672589302E0,6.161199212E-1
3.671057506E0,-1.838563830E-1,-1.723291159E0,6.539935470E-1
3.673057306E0,-1.795803308E-1,-1.805147052E0,7.389038205E-1
3.675057039E0,-1.740825474E-1,-1.886392236E0,8.244249225E-1
3.677056772E0,-1.716390848E-1,-1.906550765E0,8.684072495E-1
3.679056505E0,-1.728608161E-1,-1.916324615E0,9.514849186E-1
3.681056238E0,-1.746934056E-1,-1.883948684E0,1.027843118E0
3.683055971E0,-1.844672561E-1,-1.850351214E0,1.058386326E0
3.685055704E0,-1.960736960E-1,-1.747114897E0,1.119472861E0
3.687055437E0,-2.125670612E-1,-1.614557147E0,1.170174718E0
3.689055237E0,-2.186757028E-1,-1.553470612E0,1.186057091E0
3.691054970E0,-2.272278070E-1,-1.416636825E0,1.210491776E0
3.693054703E0,-2.211191654E-1,-1.334780931E0,1.212324381E0
3.695054436E0,-2.015714943E-1,-1.152132154E0,1.225152612E0
3.697054169E0,-1.728608161E-1,-9.762030244E-1,1.230039477E0
3.699053902E0,-1.496479362E-1,-8.986231089E-1,1.237369895E0
3.701053635E0,-1.044439077E-1,-7.373546958E-1,1.250198007E0
3.703053368E0,-6.779199094E-2,-6.060186028E-1,1.275854349E0
3.705053168E0,-5.068776757E-2,-5.485972762E-1,1.296623826E0
3.707052901E0,-2.808575146E-2,-4.734608829E-1,1.353434205E0
3.709052634E0,-2.197709866E-2,-4.465828240E-1,1.421240330E0
3.711052367E0,-2.258796431E-2,-4.453610778E-1,1.453616261E0
3.713052100E0,-9.759793989E-3,-4.190938771E-1,1.511037469E0
3.715051833E0,6.733567920E-3,-3.757224381E-1,1.561739206E0
3.717051566E0,2.017260343E-2,-3.457900286E-1,1.578232646E0
3.719051299E0,6.171144173E-2,-2.474407405E-1,1.595947742E0
3.721051099E0,1.038611457E-1,-1.319872141E-1,1.605721593E0
3.723050399E0,1.209653690E-1,-7.334414870E-2,1.610608578E0
3.725050132E0,1.545629650E-1,1.767477393E-2,1.608165026E0
3.727049865E0,1.734997928E-1,8.792427927E-2,1.605110765E0
3.729049598E0,1.808301657E-1,1.190784052E-1,1.604499936E0
3.731049331E0,1.851062179E-1,1.520651281E-1,1.599002123E0
3.733049064E0,1.728889197E-1,1.722236723E-1,1.598391294E0
3.735048864E0,1.625042111E-1,1.764997393E-1,1.597780347E0
3.737048664E0,1.289066225E-1,1.569520533E-1,1.597169399E0
3.739048397E0,9.225469828E-2,1.166349426E-1,1.582508683E0
3.741048130E0,7.637220621E-2,1.062502339E-1,1.577010989E0
3.743047863E0,4.460721090E-2,8.364822716E-2,1.578843474E0
3.745047596E0,1.711827703E-2,9.097860754E-2,1.586173892E0
3.747047329E0,6.122702267E-3,9.708725661E-2,1.584341288E0
3.749047062E0,-1.207680558E-3,1.245761961E-1,1.584952116E0
3.751046862E0,-3.114007786E-2,1.074719727E-1,1.577621818E0
3.753046662E0,-4.518998042E-2,8.181563020E-2,1.576400042E0
3.755046395E0,-9.405919909E-2,1.584217884E-2,1.558684945E0
3.757046128E0,-1.520913988E-1,-3.852482513E-2,1.530585170E0
3.759045861E0,-1.777477413E-1,-5.868338048E-2,1.515924454E0
3.761045594E0,-2.302821577E-1,-1.008330807E-1,1.488435388E0
3.763045327E0,-2.889252007E-1,-1.442045122E-1,1.459113836E0
3.765045060E0,-3.127489686E-1,-1.723043174E-1,1.445674896E0
3.767044860E0,-3.652833700E-1,-2.272821814E-1,1.427959800E0
3.769044593E0,-4.172069132E-1,-2.578254342E-1,1.397416472E0
3.771044326E0,-4.398089349E-1,-2.633232474E-1,1.385810018E0
3.773044059E0,-4.837912321E-1,-2.798165977E-1,1.363819003E0
3.775043792E0,-5.351038575E-1,-2.993642986E-1,1.357710361E0
3.777043525E0,-5.570950508E-1,-3.225771785E-1,1.357099533E0
3.779043258E0,-5.961904526E-1,-3.470117748E-1,1.355266809E0
3.781042991E0,-6.236793995E-1,-3.518987000E-1,1.345493078E0
3.783043224E0,-6.371183991E-1,-3.628942966E-1,1.343049526E0
3.785042957E0,-6.749920845E-1,-4.038222432E-1,1.346714735E0
3.787042690E0,-6.890419126E-1,-4.245916605E-1,1.342438698E0
3.789042423E0,-7.146983147E-1,-4.630761743E-1,1.339995265E0
3.791042156E0,-7.318024635E-1,-5.003389716E-1,1.319225788E0
3.793041889E0,-7.403545976E-1,-5.180540085E-1,1.309451938E0
3.795041622E0,-7.391328812E-1,-5.418778062E-1,1.281962991E0
3.797041355E0,-7.220286727E-1,-5.461538434E-1,1.245921969E0
3.799041155E0,-7.110331059E-1,-5.412669182E-1,1.220265627E0
3.801040888E0,-6.762138009E-1,-5.107236505E-1,1.173839808E0
3.803040621E0,-6.236793995E-1,-4.594109654E-1,1.131690145E0
3.805040354E0,-5.998556018E-1,-4.325329065E-1,1.109088182E0
3.807040087E0,-5.473212004E-1,-3.769441843E-1,1.060219049E0
3.809039820E0,-4.776825905E-1,-3.079164028E-1,9.911911488E-1
3.811039553E0,-4.471393228E-1,-2.724862099E-1,9.484305978E-1
3.813039286E0,-3.817767203E-1,-2.211735398E-1,8.616877198E-1
3.815039086E0,-3.096946478E-1,-1.558109522E-1,7.749449015E-1
3.817038819E0,-2.730427384E-1,-1.264894307E-1,7.291300297E-1
3.819038552E0,-2.034040838E-1,-7.090068609E-2,6.564370394E-1
3.821038285E0,-1.325436980E-1,-1.872912864E-3,5.837441087E-1
3.823038018E0,-9.344833344E-2,3.111380897E-2,5.464812517E-1
3.825038218E0,-2.869661711E-2,1.062502339E-1,4.713448584E-1
3.827037951E0,3.788769618E-2,1.691693515E-1,4.096474648E-1
3.829037751E0,6.476575881E-2,2.027669400E-1,3.833802342E-1
3.831037551E0,1.130241156E-1,2.504144311E-1,3.522261381E-1
3.833037284E0,1.484542936E-1,2.919532657E-1,3.320675790E-1
3.835037017E0,1.643368006E-1,3.121118248E-1,3.265697956E-1
3.837036750E0,1.844953597E-1,3.420442343E-1,3.161850572E-1
3.839036483E0,2.028212994E-1,3.786961436E-1,3.137415946E-1
3.841036216E0,2.113734335E-1,3.884699643E-1,3.131307364E-1
3.843035949E0,2.187038064E-1,4.086285532E-1,3.064112365E-1
3.845035749E0,2.162603438E-1,4.129045904E-1,3.051894903E-1
3.847035482E0,2.144277543E-1,4.184023738E-1,3.033569157E-1
3.849035215E0,2.077082396E-1,4.245110154E-1,3.033569157E-1
3.851034948E0,1.954909265E-1,4.190132320E-1,3.027460277E-1
3.853034681E0,1.887714118E-1,4.104611278E-1,3.039677739E-1
3.855034414E0,1.618933380E-1,3.780852556E-1,3.119090199E-1
3.857034147E0,1.301283389E-1,3.463202715E-1,3.167959154E-1
3.859033880E0,1.124132574E-1,3.237182498E-1,3.192394078E-1
3.861033680E0,6.659835577E-2,2.797359526E-1,3.082438409E-1
3.863033413E0,1.467481628E-2,2.204820365E-1,2.868635654E-1
3.865033146E0,-1.220325474E-2,1.972691566E-1,2.685376108E-1
3.867032879E0,-7.451151311E-2,1.392369568E-1,2.312748134E-1
3.869032612E0,-1.355980337E-1,1.080828309E-1,1.671339571E-1
3.871032345E0,-1.630869806E-1,9.830898792E-2,1.317037642E-1
3.873032078E0,-2.223408967E-1,7.631783932E-2,3.763052076E-2
3.875031811E0,-2.760970592E-1,5.799188092E-2,-6.988175958E-2
3.877031611E0,-2.956447005E-1,5.493755266E-2,-1.169183850E-1
3.879031344E0,-3.432922065E-1,6.654398888E-2,-2.293175906E-1
3.881031077E0,-3.597855866E-1,6.532226503E-2,-2.873497903E-1
3.883030810E0,-3.994918168E-1,7.387437671E-2,-3.985272646E-1
3.885030076E0,-4.404197931E-1,8.059389144E-2,-4.883244634E-1
3.887029809E0,-4.538588226E-1,7.937216014E-2,-5.304741859E-1
3.889029542E0,-4.856238067E-1,7.143091410E-2,-5.921715498E-1
3.891029275E0,-5.204431415E-1,2.561602369E-2,-6.440950632E-1
3.893029075E0,-5.326604843E-1,2.317256108E-2,-6.709731221E-1
3.895028841E0,-5.473212004E-1,-6.759834941E-3,-7.045707107E-1
3.897028607E0,-5.552624464E-1,-3.913569078E-2,-7.430552244E-1
3.899028373E0,-5.497646332E-1,-6.051597744E-2,-7.619920373E-1
3.901028139E0,-5.234974623E-1,-9.655702114E-2,-7.815397978E-1
3.903027472E0,-4.923433363E-1,-1.435936391E-1,-7.681006789E-1
3.905027238E0,-4.672978520E-1,-1.631413400E-1,-7.516073585E-1
3.907027071E0,-4.165960252E-1,-2.022367120E-1,-6.917425394E-1
3.909026904E0,-3.738354743E-1,-2.682101727E-1,-6.318777800E-1
3.911026670E0,-3.567312658E-1,-2.914230227E-1,-5.927824378E-1
3.913026436E0,-3.200793564E-1,-3.457900286E-1,-5.084829926E-1
3.915026202E0,-2.980881929E-1,-3.861071467E-1,-4.168532193E-1
3.917025968E0,-2.864817381E-1,-4.013787806E-1,-3.704274595E-1
3.919025734E0,-2.730427384E-1,-4.129852355E-1,-2.732999027E-1
3.921025500E0,-2.602145374E-1,-4.331437647E-1,-1.920548081E-1
3.923025333E0,-2.565493584E-1,-4.276459813E-1,-1.456290632E-1
3.925025099E0,-2.376125306E-1,-4.117634892E-1,-7.354695350E-2
3.927024865E0,-2.327256054E-1,-3.903832138E-1,-1.490389090E-2
3.929024631E0,-2.284495533E-1,-3.793876469E-1,1.197418012E-2
3.931024397E0,-2.217300385E-1,-3.555639088E-1,5.412388220E-2
3.933024163E0,-2.089018673E-1,-3.109707236E-1,9.199752659E-2
3.935023929E0,-2.003497481E-1,-2.926447690E-1,1.054365635E-1
3.937023695E0,-1.850781292E-1,-2.584363222E-1,1.378124207E-1
3.939023528E0,-1.740825474E-1,-2.358343005E-1,1.518623233E-1
3.941023294E0,-1.685847640E-1,-2.187300771E-1,1.604144275E-1
3.943023060E0,-1.563674510E-1,-1.924628764E-1,1.695774049E-1
3.945022826E0,-1.496479362E-1,-1.839107573E-1,1.732425988E-1
3.947022592E0,-1.472044736E-1,-1.796347052E-1,1.738534719E-1
3.949022358E0,-1.355980337E-1,-1.631413400E-1,1.787403822E-1
3.951022124E0,-1.392632276E-1,-1.637521982E-1,1.836273223E-1
3.953021890E0,-1.398740858E-1,-1.686391234E-1,1.860707700E-1
3.955021690E0,-1.527022570E-1,-1.790238321E-1,1.872925162E-1
3.957021423E0,-1.575891823E-1,-1.863542199E-1,1.885142326E-1
3.959021156E0,-1.600326449E-1,-1.881868094E-1,1.903468370E-1
3.961020889E0,-1.704173535E-1,-1.930737346E-1,1.909576952E-1
3.963021055E0,-1.795803308E-1,-2.040693015E-1,1.964554936E-1
3.965020788E0,-1.856889874E-1,-2.120105624E-1,1.958446205E-1
3.967020521E0,-1.954628229E-1,-2.217844129E-1,1.934011579E-1
3.969020254E0,-2.034040838E-1,-2.291147709E-1,1.903468370E-1
3.971020054E0,-2.180648446E-1,-2.352234274E-1,1.805729866E-1
3.973019787E0,-2.321147472E-1,-2.511059344E-1,1.671339571E-1
3.975019520E0,-2.388342619E-1,-2.553820014E-1,1.598035693E-1
3.977019253E0,-2.424994558E-1,-2.431646883E-1,1.433102041E-1
3.979018986E0,-2.443320453E-1,-2.340017110E-1,1.213190630E-1
3.981018719E0,-2.473863661E-1,-2.388886213E-1,1.121560857E-1
3.983018452E0,-2.516624331E-1,-2.394994944E-1,9.321925789E-2
3.985018252E0,-2.486081123E-1,-2.370560318E-1,8.344541490E-2
3.987018052E0,-2.473863661E-1,-2.388886213E-1,7.978022099E-2
3.989017785E0,-2.388342619E-1,-2.419429421E-1,7.000637800E-2
3.991017518E0,-2.235626429E-1,-2.309473753E-1,6.145426631E-2
3.993017251E0,-2.150105089E-1,-2.278930545E-1,5.778907239E-2
3.995016984E0,-2.021823376E-1,-2.456081361E-1,6.756292284E-2
3.997016717E0,-1.899650395E-1,-2.547711134E-1,8.344541490E-2
3.999016017E0,-1.850781292E-1,-2.572146058E-1,8.466714621E-2
4.001015817E0,-1.588109136E-1,-2.456081361E-1,8.833234012E-2
4.003015617E0,-1.264350563E-1,-2.346125692E-1,1.145995408E-1
4.005015350E0,-1.191046759E-1,-2.474407405E-1,1.225407869E-1
4.007015083E0,-1.081091017E-1,-2.743188143E-1,1.292603165E-1
4.009014816E0,-8.795054257E-2,-2.822600603E-1,1.262059808E-1
4.011014549E0,-7.817670703E-2,-2.792057097E-1,1.194864661E-1
4.013014282E0,-5.007690191E-2,-2.547711134E-1,1.005496457E-1
4.015014015E0,-3.114007786E-2,-2.333908379E-1,7.794762403E-2
4.017013815E0,-2.075536922E-2,-2.199518085E-1,6.756292284E-2
4.019013548E0,-1.464671642E-2,-1.997932643E-1,4.373917356E-2
4.021013281E0,-1.709017716E-2,-1.735260487E-1,1.319591142E-2
4.023013014E0,-1.098152436E-2,-1.564218104E-1,-8.539896226E-4
4.025012747E0,-4.262006842E-3,-1.173264459E-1,-2.895379066E-2
4.027012480E0,-6.094602402E-3,-8.739405125E-2,-6.010791659E-2
4.029012780E0,-6.705467589E-3,-7.395500690E-2,-7.904473692E-2
4.031012513E0,1.404990053E-5,-4.646607488E-2,-1.028684825E-1
4.033012313E0,-7.927197963E-3,-4.096828774E-2,-1.340226084E-1
4.035012046E0,-6.705467589E-3,-4.096828774E-2,-1.480725110E-1
4.037011779E0,-6.094602402E-3,-3.485963494E-2,-1.706745327E-1
