"Time (s)","Acceleration x (m/s^2)","Acceleration y (m/s^2)","Acceleration z (m/s^2)"
0.000000000E0,-4.256896973E0,5.803543091E0,6.454772949E0
4.974365000E-3,-4.271255493E0,5.832275391E0,6.469131470E0
9.979248000E-3,-4.247314453E0,5.822692871E0,6.464340210E0
1.498413100E-2,-4.204223633E0,5.808334351E0,6.406890869E0
1.995849600E-2,-4.151550293E0,5.851425171E0,6.301544189E0
2.496337900E-2,-4.113235474E0,5.932830811E0,6.248870850E0
2.993774400E-2,-4.050994873E0,6.076477051E0,6.148315430E0
3.494262700E-2,-3.964797974E0,6.263229370E0,6.110000610E0
3.991699200E-2,-3.840301514E0,6.488281250E0,6.129150391E0
4.489135700E-2,-3.696640015E0,6.698974609E0,6.090850830E0
4.989624000E-2,-3.557785034E0,6.809112549E0,6.057327271E0
5.487060500E-2,-3.423706055E0,6.871353149E0,5.999862671E0
5.984497000E-2,-3.251327515E0,6.866577148E0,5.870590210E0
6.484985300E-2,-3.050216675E0,6.813903809E0,5.750869751E0
6.982421900E-2,-2.858673096E0,6.694183350E0,5.688629150E0
7.479858400E-2,-2.743759155E0,6.483505249E0,5.702987671E0
7.977294900E-2,-2.633621216E0,6.253662109E0,5.693405151E0
8.477783200E-2,-2.557006836E0,5.990295410E0,5.793975830E0
8.975219700E-2,-2.466033936E0,5.707778931E0,6.100433350E0
9.472656200E-2,-2.351104736E0,5.434844971E0,6.641510010E0
9.970092700E-2,-2.231399536E0,5.147537231E0,7.378936768E0
1.047058100E-1,-2.121261597E0,4.841079712E0,8.159439087E0
1.096801760E-1,-2.025497437E0,4.544189453E0,8.925582886E0
1.146545410E-1,-1.968032837E0,4.295196533E0,9.605545044E0
1.196289060E-1,-1.958450317E0,4.127609253E0,1.013705444E1
1.246337890E-1,-2.006347656E0,4.022262573E0,1.057759094E1
1.296081540E-1,-2.121261597E0,3.983947754E0,1.086967468E1
1.345825190E-1,-2.312805176E0,3.988739014E0,1.102290344E1
1.395568850E-1,-2.566589355E0,4.031829834E0,1.109472656E1
1.445312500E-1,-2.868255615E0,4.113235474E0,1.103727722E1
1.495361330E-1,-3.232177734E0,4.175491333E0,1.098460388E1
1.545104980E-1,-3.610458374E0,4.208999634E0,1.083615112E1
1.594848630E-1,-3.921707153E0,4.199432373E0,1.061589050E1
1.644592280E-1,-4.175491333E0,4.165908813E0,1.044351196E1
1.694641110E-1,-4.352661133E0,4.156341553E0,1.029507446E1
1.744384760E-1,-4.424484253E0,4.165908813E0,1.011311340E1
1.794128420E-1,-4.467575073E0,4.189849854E0,9.902420044E0
1.843872070E-1,-4.534622192E0,4.165908813E0,9.658203125E0
1.893615720E-1,-4.668701172E0,4.137176514E0,9.370910645E0
1.943664550E-1,-4.912902832E0,4.103668213E0,9.021347046E0
1.993408200E-1,-5.248092651E0,4.041412354E0,8.671798706E0
2.043151850E-1,-5.588073730E0,4.036621094E0,8.327026367E0
2.092895510E-1,-5.813125610E0,4.070144653E0,7.972686768E0
2.142944330E-1,-5.837066650E0,4.094085693E0,7.603988647E0
2.192687990E-1,-5.698196411E0,4.070144653E0,7.249649048E0
2.242431640E-1,-5.482727051E0,3.993530273E0,6.928817749E0
2.292175290E-1,-5.219360352E0,3.892974854E0,6.713348389E0
2.342224120E-1,-4.860229492E0,3.768478394E0,6.526596069E0
2.391967770E-1,-4.477157593E0,3.744537354E0,6.397308350E0
2.441711420E-1,-4.165908813E0,3.936065674E0,6.569686890E0
2.491455080E-1,-4.007888794E0,4.285614014E0,7.149093628E0
2.541198730E-1,-3.768478394E0,4.395751953E0,7.489059448E0
2.591247560E-1,-3.380615234E0,4.276046753E0,7.560882568E0
2.640991210E-1,-3.059783936E0,4.141967773E0,7.694961548E0
2.690734860E-1,-2.844314575E0,4.065353394E0,8.011001587E0
2.740478510E-1,-2.815582275E0,4.223373413E0,8.523361206E0
2.790527340E-1,-3.198654175E0,4.582504272E0,9.074020386E0
2.840270990E-1,-3.222595215E0,4.343078613E0,9.485824585E0
2.890014650E-1,-3.236953735E0,4.122817993E0,9.868896484E0
2.939758300E-1,-3.313568115E0,3.821151733E0,1.021846008E1
2.989501950E-1,-3.294418335E0,3.557785034E0,1.048660278E1
3.039550780E-1,-2.853881836E0,3.313568115E0,1.061109924E1
3.089294430E-1,-2.403778076E0,3.141189575E0,1.064941406E1
3.139038080E-1,-2.149993896E0,2.954452515E0,1.059674072E1
3.188781740E-1,-1.982406616E0,2.748550415E0,1.035252380E1
3.238830560E-1,-1.982406616E0,2.537857056E0,1.000297546E1
3.288574220E-1,-2.149993896E0,2.336746216E0,9.567230225E0
3.338317870E-1,-2.437301636E0,2.059020996E0,9.040512085E0
3.388061520E-1,-2.772491455E0,1.862686157E0,8.547302246E0
3.437805170E-1,-2.691085815E0,1.647216797E0,8.226470947E0
3.487854000E-1,-2.145202637E0,1.345535278E0,8.125915527E0
3.537597650E-1,-1.896209717E0,1.264144897E0,8.379699707E0
3.587341310E-1,-1.987182617E0,1.479614258E0,9.021347046E0
3.637084960E-1,-1.929733276E0,2.011123657E0,9.591171265E0
3.687133790E-1,-1.613693237E0,2.446868896E0,9.931152344E0
3.736877440E-1,-1.125274658E0,2.801208496E0,1.008917236E1
3.786621090E-1,-7.374114990E-1,3.064575195E0,1.018014526E1
3.836364740E-1,-5.602416992E-1,3.304000854E0,1.035252380E1
3.886108400E-1,-5.793914795E-1,3.481170654E0,1.073081970E1
3.936157220E-1,-6.751708984E-1,3.567367554E0,1.119528198E1
3.985900880E-1,-8.331756592E-1,3.538635254E0,1.159751892E1
4.035644530E-1,-1.039077759E0,3.366241455E0,1.171243286E1
4.085388180E-1,-1.211471558E0,3.074157715E0,1.155441284E1
4.135437010E-1,-1.249771118E0,3.016693115E0,1.129583740E1
4.185180660E-1,-1.225830078E0,3.145980835E0,1.096066284E1
4.234924310E-1,-1.235412598E0,3.021484375E0,1.060630798E1
4.284667970E-1,-1.106124878E0,2.825164795E0,1.021366882E1
4.334411620E-1,-9.193725586E-1,2.628829956E0,9.725250244E0
4.384460450E-1,-7.900848389E-1,2.422927856E0,9.284713745E0
4.434204100E-1,-7.134704590E-1,2.298431396E0,9.112335205E0
4.483947750E-1,-7.709350586E-1,2.231399536E0,9.299072266E0
4.533691400E-1,-8.523406982E-1,2.197875977E0,9.662994385E0
4.583740230E-1,-6.847381592E-1,2.202667236E0,9.945510864E0
4.633483880E-1,-5.458831787E-1,1.982406616E0,9.643844604E0
4.683227540E-1,-2.537841797E-1,1.752548218E0,9.390060425E0
4.732971190E-1,5.123596191E-1,1.867477417E0,8.920791626E0
4.782714840E-1,1.968032837E0,2.619262695E0,7.943954468E0
4.832763670E-1,1.853118896E0,3.476379395E0,7.618347168E0
4.882507320E-1,-5.267333984E-2,4.017471313E0,8.465896606E0
4.932250970E-1,-1.728607178E0,4.707000732E0,9.318237305E0
4.981994630E-1,-2.312805176E0,5.243301392E0,9.682159424E0
5.032043450E-1,-2.059020996E0,5.319915771E0,9.744400024E0
5.081787110E-1,-1.565811157E0,4.979934692E0,9.255981445E0
5.131530760E-1,-1.173156738E0,4.711791992E0,8.485046387E0
5.181274410E-1,-7.374114990E-1,4.414901733E0,7.824249268E0
5.231323240E-1,-3.974304199E-1,4.223373413E0,7.259216309E0
5.281066890E-1,-2.106933594E-1,4.309570312E0,7.000640869E0
5.330810540E-1,-9.576416016E-2,4.529830933E0,6.885726929E0
5.380554200E-1,1.435852051E-2,4.817138672E0,6.780380249E0
5.430297850E-1,1.867523193E-1,5.161895752E0,6.670242310E0
5.480346680E-1,3.878631592E-1,5.501876831E0,6.708557129E0
5.530090330E-1,4.980010986E-1,5.564117432E0,6.833053589E0
5.579833980E-1,7.182617188E-1,5.315124512E0,7.144302368E0
5.629577630E-1,1.240203857E0,4.390960693E0,8.427597046E0
5.679626460E-1,1.484405518E0,3.624816895E0,8.686157227E0
5.729370110E-1,1.656784058E0,3.629608154E0,8.221694946E0
5.779113770E-1,1.742980957E0,4.046203613E0,8.365341187E0
5.829069840E-1,1.369476318E0,4.955993652E0,9.351745605E0
5.878813490E-1,3.543395996E-1,5.664688110E0,1.036689758E1
5.928862320E-1,-7.469940186E-1,5.904098511E0,1.069250488E1
5.978605970E-1,-1.388641357E0,5.688629150E0,1.013226318E1
6.028349620E-1,-1.618484497E0,5.224151611E0,9.141067505E0
6.078093280E-1,-1.651992798E0,4.740524292E0,8.327026367E0
6.128142110E-1,-1.541870117E0,4.438842773E0,8.058883667E0
6.177885760E-1,-1.436523438E0,4.357452393E0,7.929595947E0
6.227629410E-1,-1.431732178E0,4.367019653E0,7.671020508E0
6.277373060E-1,-1.470046997E0,4.347869873E0,7.254425049E0
6.327116710E-1,-1.513137817E0,4.347869873E0,6.641510010E0
6.377165540E-1,-1.632843018E0,4.395751953E0,5.880157471E0
6.426909190E-1,-1.853118896E0,4.548980713E0,5.444412231E0
6.476652850E-1,-2.078170776E0,4.730941772E0,5.410888672E0
6.526396500E-1,-2.264907837E0,4.879379272E0,5.683837891E0
6.576445330E-1,-2.327163696E0,4.903320312E0,5.923248291E0
6.626188980E-1,-2.231399536E0,4.860229492E0,5.846633911E0
6.675932630E-1,-2.073379517E0,4.774032593E0,5.616790771E0
6.725676280E-1,-1.848327637E0,4.726150513E0,5.363006592E0
6.775419940E-1,-1.561019897E0,4.807556152E0,5.267242432E0
6.825468770E-1,-1.235412598E0,5.051773071E0,5.477935791E0
6.875212420E-1,-8.906402588E-1,5.449203491E0,6.119583130E0
6.924956070E-1,-4.548950195E-1,5.956771851E0,7.570465088E0
6.974699720E-1,-1.340789795E-1,6.143524170E0,8.820236206E0
7.024748550E-1,-3.351898193E-1,5.272033691E0,9.193740845E0
7.074492200E-1,-3.160400391E-1,4.424484253E0,9.385269165E0
7.124235860E-1,-1.915435791E-1,3.926498413E0,9.399642944E0
7.173979510E-1,-4.644775391E-1,3.586517334E0,9.490615845E0
7.224028340E-1,-9.672546387E-1,3.447647095E0,9.725250244E0
7.273771990E-1,-1.331176758E0,3.581726074E0,9.543289185E0
7.323515640E-1,-1.398208618E0,3.830718994E0,9.184158325E0
7.373259290E-1,-1.474822998E0,3.979156494E0,8.528152466E0
7.423002940E-1,-1.877059937E0,4.381393433E0,7.532165527E0
7.473051770E-1,-2.743759155E0,4.529830933E0,6.952758789E0
7.522795430E-1,-3.639190674E0,4.070144653E0,6.426040649E0
7.572539080E-1,-4.108444214E0,3.505111694E0,5.621582031E0
7.622282730E-1,-4.247314453E0,3.184295654E0,4.635177612E0
7.672331560E-1,-4.290405273E0,3.265686035E0,4.050994873E0
7.722075210E-1,-4.390960693E0,3.739746094E0,4.405334473E0
7.771818860E-1,-4.477157593E0,4.362228394E0,5.640747070E0
7.821562520E-1,-4.434066772E0,4.769256592E0,7.340621948E0
7.871306170E-1,-4.161117554E0,4.745315552E0,9.011779785E0
7.921355000E-1,-3.792419434E0,4.333511353E0,1.019450378E1
7.971098650E-1,-3.409347534E0,3.792419434E0,1.087446594E1
8.020842300E-1,-2.896987915E0,3.371032715E0,1.114260864E1
8.070585950E-1,-2.240966797E0,3.083724976E0,1.103248596E1
8.120634780E-1,-1.551437378E0,3.035842896E0,1.067814636E1
8.170378430E-1,-8.858489990E-1,3.131622314E0,1.000776672E1
8.220122090E-1,-2.489929199E-1,3.275268555E0,9.093185425E0
8.269865740E-1,3.016662598E-1,3.552993774E0,8.030151367E0
8.319609390E-1,7.613525391E-1,4.003112793E0,6.856994629E0
8.369658220E-1,1.369476318E0,4.577713013E0,5.765243530E0
8.419401870E-1,2.130844116E0,5.252883911E0,5.013458252E0
8.469145520E-1,2.691085815E0,5.889739990E0,4.611236572E0
8.518889180E-1,2.734176636E0,6.248870850E0,4.587295532E0
8.568938000E-1,2.442092896E0,6.196197510E0,4.970367432E0
8.618681660E-1,2.087738037E0,5.899307251E0,5.832275391E0
8.668425310E-1,1.800445557E0,5.492294312E0,7.019805908E0
8.718168960E-1,1.221038818E0,4.462799072E0,9.050079346E0
8.767912610E-1,2.729339600E-1,3.734954834E0,1.305798340E1
8.817961440E-1,2.633666992E-1,3.581726074E0,1.334049988E1
8.867705090E-1,-6.703186035E-2,3.294418335E0,1.374751282E1
8.917448750E-1,-7.182617188E-1,2.839523315E0,1.470997620E1
8.967192400E-1,-1.187530518E0,2.102111816E0,1.499249268E1
9.017241230E-1,-1.374267578E0,1.422149658E0,1.523191833E1
9.066984880E-1,-7.422027588E-1,1.493988037E0,1.556709290E1
9.116728530E-1,-9.576416016E-2,1.953674316E0,1.571075439E1
9.166472180E-1,4.692687988E-1,2.600097656E0,1.550485229E1
9.216215840E-1,7.996673584E-1,3.236953735E0,1.471955872E1
9.266264660E-1,9.481048584E-1,3.768478394E0,1.345541382E1
9.316008320E-1,9.481048584E-1,3.998321533E0,1.209550476E1
9.365751970E-1,9.816284180E-1,3.859451294E0,1.077870178E1
9.415495620E-1,1.110916138E0,3.490753174E0,9.562438965E0
9.465544450E-1,1.398208618E0,3.227386475E0,8.327026367E0
9.515288100E-1,1.651992798E0,3.169921875E0,7.220916748E0
9.565031750E-1,1.675933838E0,3.265686035E0,6.473922729E0
9.614775410E-1,1.623275757E0,3.462020874E0,6.229705811E0
9.664824230E-1,1.527496338E0,3.677490234E0,6.244079590E0
9.714567890E-1,1.388641357E0,3.840301514E0,6.421249390E0
9.764311540E-1,1.235412598E0,3.964797974E0,6.526596069E0
9.814055190E-1,1.120483398E0,3.988739014E0,6.536163330E0
9.863798840E-1,1.139633179E0,3.859451294E0,6.540954590E0
9.913847670E-1,1.379058838E0,3.734954834E0,6.684616089E0
9.963591320E-1,1.695098877E0,3.620025635E0,6.924026489E0
1.001333498E0,2.082962036E0,3.404556274E0,7.024581909E0
1.006307863E0,2.389419556E0,2.944869995E0,6.943191528E0
1.011312746E0,-5.027770996E-1,1.766921997E0,1.392945862E1
1.016287111E0,-1.441314697E0,2.365478516E0,1.584960938E1
1.021261476E0,9.864044189E-1,2.355895996E0,1.100375366E1
1.026235841E0,1.833953857E0,1.982406616E0,1.090319824E1
1.031210207E0,1.426940918E0,1.915359497E0,1.292869568E1
1.036215089E0,1.048660278E0,2.011123657E0,1.331654358E1
1.041189455E0,8.140258789E-1,2.078170776E0,1.287123108E1
1.046163820E0,7.326202393E-1,2.030288696E0,1.231098938E1
1.051138185E0,6.320648193E-1,2.078170776E0,1.164060974E1
1.056143068E0,-9.385223389E-1,2.643203735E0,1.109472656E1
1.061117433E0,-5.463562012E0,3.452438354E0,1.083615112E1
1.066091798E0,-5.214569092E0,3.404556274E0,1.008438110E1
1.071066164E0,-3.955215454E0,3.050216675E0,9.672576904E0
1.076040529E0,-2.671936035E0,2.700653076E0,9.145843506E0
1.081045412E0,-1.695098877E0,2.485183716E0,8.619125366E0
1.086019777E0,-9.241638184E-1,2.403778076E0,8.183380127E0
1.090994142E0,-2.059020996E-1,2.370254517E0,7.675811768E0
1.095968507E0,5.698242188E-1,2.365478516E0,6.919250488E0
1.100973390E0,1.326385498E0,2.379837036E0,6.114791870E0
1.105947755E0,2.020706177E0,2.413360596E0,5.525817871E0
1.110922121E0,2.657562256E0,2.470809937E0,5.114013672E0
1.115896486E0,3.169921875E0,2.552215576E0,5.027816772E0
1.120870851E0,3.471588135E0,2.638412476E0,5.300765991E0
1.125875734E0,3.552993774E0,2.734176636E0,5.765243530E0
1.130850099E0,3.524261475E0,2.911346436E0,6.196197510E0
1.135824464E0,3.423706055E0,3.122039795E0,6.426040649E0
1.140798830E0,3.265686035E0,3.366241455E0,6.421249390E0
1.145803712E0,3.107681274E0,3.610458374E0,6.335052490E0
1.150778078E0,3.102890015E0,3.821151733E0,6.421249390E0
1.155752443E0,3.198654175E0,3.912124634E0,6.679824829E0
1.160726808E0,3.294418335E0,3.979156494E0,6.976699829E0
1.165701173E0,3.251327515E0,4.007888794E0,7.350204468E0
1.170706056E0,3.107681274E0,3.960006714E0,7.714111328E0
1.175680421E0,2.987960815E0,3.840301514E0,8.034942627E0
1.180654787E0,3.050216675E0,3.629608154E0,8.298309326E0
1.185629152E0,3.620025635E0,3.055007935E0,8.983047485E0
1.190634035E0,3.284851074E0,2.815582275E0,9.763549805E0
1.195608400E0,2.341522217E0,2.394195557E0,1.069729614E1
1.200582765E0,1.326385498E0,2.159576416E0,1.143949890E1
1.205557130E0,8.762817383E-1,2.140411377E0,1.120007324E1
1.210562013E0,7.374114990E-1,2.030288696E0,1.014662170E1
1.215536378E0,7.613525391E-1,1.901000977E0,8.868118286E0
1.220510744E0,1.039077759E0,1.857894897E0,7.881713867E0
1.225485109E0,1.379058838E0,2.054229736E0,7.264007568E0
1.230459474E0,1.556228638E0,2.351104736E0,6.780380249E0
1.235464357E0,1.747772217E0,2.590530396E0,6.387725830E0
1.240438722E0,2.030288696E0,2.748550415E0,6.014236450E0
1.245413087E0,2.346313477E0,2.873046875E0,5.779602051E0
1.250387453E0,2.686294556E0,2.997543335E0,5.755661011E0
1.255392336E0,3.021484375E0,3.098098755E0,6.009445190E0
1.260366701E0,3.232177734E0,3.150772095E0,6.493072510E0
1.265341066E0,3.203445435E0,3.160339355E0,7.019805908E0
1.270315431E0,2.801208496E0,3.045425415E0,7.575256348E0
1.275289796E0,1.786071777E0,2.829940796E0,8.116348267E0
1.280294679E0,9.097900391E-1,2.489974976E0,8.432373047E0
1.285269044E0,7.038879395E-1,2.202667236E0,9.117126465E0
1.290243410E0,5.214569092E0,3.624816895E0,1.947923279E1
1.295217775E0,1.156878662E1,5.214569092E0,3.312617493E1
1.300222658E0,1.110430908E1,4.199432373E0,2.421017456E1
1.305197023E0,6.349426270E0,2.288864136E0,1.107078552E1
1.310171388E0,3.069366455E0,1.182739258E0,5.856216431E0
1.315145753E0,1.786071777E0,9.097900391E-1,4.855438232E0
1.320150636E0,1.235412598E0,5.315093994E-1,6.406890869E0
1.325125002E0,1.091751099E0,2.920989990E-1,8.753204346E0
1.330099367E0,1.316818237E0,4.836273193E-1,9.840164185E0
1.335073732E0,1.561019897E0,9.097900391E-1,9.610321045E0
1.340048097E0,1.656784058E0,1.259353638E0,9.131484985E0
1.345052980E0,1.599319458E0,1.460464478E0,8.920791626E0
1.350027345E0,1.513137817E0,1.632843018E0,9.002197266E0
1.355001711E0,1.350326538E0,1.829162598E0,9.203308105E0
1.359976076E0,1.101333618E0,1.991973877E0,9.236831665E0
1.364980959E0,4.644775391E-1,2.092529297E0,9.040512085E0
1.369955324E0,4.309082031E-2,2.197875977E0,8.638275146E0
1.374929689E0,-2.059020996E-1,2.312805176E0,8.494628906E0
1.379904054E0,-2.729339600E-1,2.384628296E0,8.432373047E0
1.384878419E0,-3.591308594E-1,2.427719116E0,8.671798706E0
1.389883302E0,-2.106933594E-1,2.485183716E0,8.906433105E0
1.394857668E0,-1.915435791E-1,2.317581177E0,8.887283325E0
1.399832033E0,-4.309082031E-2,2.044647217E0,8.762771606E0
1.404806398E0,2.250518799E-1,1.709457397E0,8.690948486E0
1.409811281E0,9.241638184E-1,1.340759277E0,8.537719727E0
1.414785646E0,1.982406616E0,1.000778198E0,8.384490967E0
1.419760011E0,3.308792114E0,8.571166992E-1,8.623916626E0
1.424734377E0,4.745315552E0,9.576873779E-1,9.385269165E0
1.429708742E0,5.717361450E0,1.264144897E0,1.047702026E1
1.434713625E0,5.626373291E0,1.699890137E0,1.122401428E1
1.439687990E0,4.596862793E0,1.915359497E0,1.046266174E1
1.444662355E0,3.428497314E0,2.001556396E0,9.054870605E0
1.449636720E0,2.609680176E0,2.116470337E0,8.063674927E0
1.454641603E0,2.384628296E0,2.164352417E0,7.685394287E0
1.459615968E0,2.542648315E0,2.212249756E0,8.149856567E0
1.464590334E0,2.633621216E0,2.154785156E0,9.188949585E0
1.469564699E0,2.499542236E0,2.116470337E0,1.009394836E1
1.474569582E0,2.030288696E0,2.145202637E0,1.061109924E1
1.479543947E0,1.431732178E0,2.284072876E0,1.058715820E1
1.484518312E0,9.193725586E-1,2.456451416E0,9.988616943E0
1.489492677E0,5.937652588E-1,2.456451416E0,9.006988525E0
1.494467043E0,5.937652588E-1,2.518707275E0,8.796295166E0
1.499471925E0,8.331756592E-1,2.609680176E0,9.006988525E0
1.504446291E0,1.072601318E0,2.647979736E0,8.978256226E0
1.509420656E0,1.273712158E0,2.628829956E0,8.868118286E0
1.514395021E0,1.407791138E0,2.513916016E0,8.820236206E0
1.519399904E0,1.398208618E0,2.341522217E0,9.121902466E0
1.524374269E0,1.273712158E0,2.111679077E0,9.188949585E0
1.529348634E0,1.015136719E0,1.886627197E0,9.423583984E0
1.534323000E0,7.182617188E-1,1.747772217E0,9.854537964E0
1.539297365E0,4.548950195E-1,1.699890137E0,9.998184204E0
1.544302248E0,3.495483398E-1,1.733398438E0,9.514556885E0
1.549276613E0,-4.791259766E-3,1.996765137E0,9.452316284E0
1.554250978E0,-9.050140381E-1,2.595321655E0,1.033816528E1
1.559225343E0,-1.556228638E0,3.122039795E0,1.140118408E1
1.564230226E0,-1.240203857E0,3.169921875E0,1.141076660E1
1.569204591E0,-5.554504395E-1,2.810791016E0,1.043392944E1
1.574178957E0,-1.053466797E-1,2.442092896E0,9.514556885E0
1.579153322E0,0.000000000E0,2.298431396E0,9.356536865E0
1.584127687E0,-1.149291992E-1,2.346313477E0,9.825805664E0
1.589132570E0,-3.160400391E-1,2.466033936E0,1.033816528E1
1.594106935E0,-5.602416992E-1,2.585739136E0,1.043872070E1
1.599081300E0,-7.661437988E-1,2.667144775E0,1.018493652E1
1.604055666E0,-9.097900391E-1,2.705444336E0,9.964660645E0
1.609060548E0,-1.154006958E0,2.738967896E0,1.007958984E1
1.614034914E0,-1.225830078E0,2.762908936E0,1.020408630E1
1.619009279E0,-9.720458984E-1,2.743759155E0,9.888046265E0
1.623983644E0,-6.368560791E-1,2.743759155E0,9.433151245E0
1.628958009E0,-5.506591797E-1,2.734176636E0,9.265563965E0
1.633962892E0,-6.081237793E-1,2.805999756E0,9.284713745E0
1.638937257E0,-8.379669189E-1,2.863464355E0,9.332595825E0
1.643911623E0,-1.063018799E0,2.954452515E0,9.375701904E0
1.648885988E0,-1.302444458E0,3.002334595E0,9.481033325E0
1.653890871E0,-1.455673218E0,3.002334595E0,9.619903564E0
1.658865236E0,-1.508346558E0,2.887405396E0,9.792282104E0
1.663839601E0,-1.493988037E0,2.638412476E0,9.902420044E0
1.668813966E0,-1.474822998E0,2.360687256E0,9.964660645E0
1.673788332E0,-1.537078857E0,2.169143677E0,1.007958984E1
1.678793214E0,-1.671157837E0,1.991973877E0,1.020887756E1
1.683767580E0,-1.762130737E0,1.905792236E0,1.017056274E1
1.688741945E0,-1.766921997E0,1.886627197E0,1.009394836E1
1.693716310E0,-1.642425537E0,1.915359497E0,1.012747192E1
1.698721193E0,-1.522705078E0,2.020706177E0,1.016578674E1
1.703695558E0,-1.599319458E0,2.173934937E0,1.010353088E1
1.708669923E0,-1.805221558E0,2.346313477E0,9.792282104E0
1.713644289E0,-2.015914917E0,2.485183716E0,9.375701904E0
1.718618654E0,-2.255340576E0,2.566589355E0,9.303863525E0
1.723623537E0,-2.518707275E0,2.624038696E0,9.141067505E0
1.728597902E0,-2.715026855E0,2.633621216E0,8.767562866E0
1.733572267E0,-2.873046875E0,2.628829956E0,8.671798706E0
1.738546632E0,-3.016693115E0,2.633621216E0,8.738830566E0
1.743551515E0,-3.064575195E0,2.652770996E0,8.628707886E0
1.748525880E0,-3.141189575E0,2.609680176E0,8.595184326E0
1.753500246E0,-3.169921875E0,2.566589355E0,8.681381226E0
1.758474611E0,-3.150772095E0,2.542648315E0,8.700531006E0
1.763448976E0,-3.083724976E0,2.571365356E0,8.753204346E0
1.768453859E0,-3.055007935E0,2.595321655E0,8.762771606E0
1.773428224E0,-3.131622314E0,2.667144775E0,8.729263306E0
1.778402589E0,-3.213012695E0,2.734176636E0,8.710113525E0
1.783376955E0,-3.289627075E0,2.782058716E0,8.690948486E0
1.788381837E0,-3.323150635E0,2.820373535E0,8.690948486E0
1.793356203E0,-3.289627075E0,2.844314575E0,8.772354126E0
1.798330568E0,-3.260910034E0,2.839523315E0,8.695739746E0
1.803304933E0,-3.260910034E0,2.801208496E0,8.518569946E0
1.808279298E0,-3.327941895E0,2.767700195E0,8.384490967E0
1.813284181E0,-3.476379395E0,2.762908936E0,8.427597046E0
1.818258546E0,-3.600875854E0,2.810791016E0,8.465896606E0
1.823232912E0,-3.687072754E0,2.849105835E0,8.394073486E0
1.828207277E0,-3.749313354E0,2.916137695E0,8.303085327E0
1.833212160E0,-3.840301514E0,2.983169556E0,8.370132446E0
1.838186525E0,-3.936065674E0,3.031066895E0,8.475479126E0
1.843160890E0,-4.017471313E0,3.074157715E0,8.690948486E0
1.848135255E0,-4.189849854E0,3.126831055E0,8.700531006E0
1.853140138E0,-4.280838013E0,3.131622314E0,8.513778687E0
1.858114503E0,-4.290405273E0,3.031066895E0,8.303085327E0
1.863088869E0,-4.185058594E0,2.992752075E0,8.226470947E0
1.868063234E0,-4.060562134E0,2.968811035E0,8.269577026E0
1.873037599E0,-3.816360474E0,2.877838135E0,7.920013428E0
1.878042482E0,-3.241744995E0,2.925720215E0,7.498641968E0
1.883016847E0,-2.801208496E0,3.112457275E0,7.752426147E0
1.887991212E0,-2.628829956E0,3.069366455E0,8.499420166E0
1.892965578E0,-2.748550415E0,2.882614136E0,8.738830566E0
1.897970461E0,-3.131622314E0,2.743759155E0,8.389282227E0
1.902944826E0,-3.548202515E0,2.576156616E0,7.829040527E0
1.907919191E0,-4.098876953E0,2.413360596E0,7.556106567E0
1.912893556E0,-4.707000732E0,2.456451416E0,7.661453247E0
1.917867921E0,-5.319915771E0,2.657562256E0,7.843399048E0
1.922872804E0,-5.870590210E0,2.930496216E0,8.006210327E0
1.927847169E0,-6.378158569E0,3.198654175E0,8.149856567E0
1.932821535E0,-6.684616089E0,3.394973755E0,8.288726807E0
1.937795900E0,-6.751647949E0,3.380615234E0,8.422805786E0
1.942800783E0,-6.646301270E0,3.332733154E0,8.619125366E0
1.947775148E0,-6.325485229E0,3.318359375E0,8.834609985E0
1.952749513E0,-5.908889771E0,3.088516235E0,9.016571045E0
1.957723878E0,-5.482727051E0,2.772491455E0,9.117126465E0
1.962698244E0,-4.960784912E0,2.614471436E0,9.083602905E0
1.967703127E0,-4.443634033E0,2.561798096E0,9.054870605E0
1.972677492E0,-3.964797974E0,2.509124756E0,9.030929565E0
1.977651857E0,-3.529052734E0,2.681503296E0,8.920791626E0
1.982626222E0,-3.265686035E0,2.911346436E0,8.805877686E0
1.987631105E0,-3.332733154E0,2.700653076E0,8.997406006E0
1.992605470E0,-3.610458374E0,2.681503296E0,9.476257324E0
1.997579836E0,-3.605667114E0,2.413360596E0,1.029028320E1
2.002554201E0,-4.132385254E0,2.054229736E0,1.080264282E1
2.007559084E0,-4.721359253E0,1.532287598E0,1.116177368E1
2.012533449E0,-5.343856812E0,1.048660278E0,1.140597534E1
2.017507814E0,-5.770019531E0,7.661437988E-1,1.136767578E1
2.022482179E0,-6.057327271E0,7.182617188E-1,1.136767578E1
2.027456544E0,-6.282379150E0,7.996673584E-1,1.110430908E1
2.032461427E0,-6.430831909E0,9.050140381E-1,1.072123718E1
2.037435793E0,-6.631942749E0,1.015136719E0,1.055363464E1
2.042410158E0,-6.880935669E0,1.000778198E0,1.047702026E1
2.047384523E0,-7.139511108E0,7.900848389E-1,1.040519714E1
2.052389406E0,-7.206542969E0,2.729339600E-1,1.040998840E1
2.057363771E0,-6.722915649E0,-4.118041992E-1,1.046745300E1
2.062338136E0,-5.477935791E0,-1.000778198E0,1.044830322E1
2.067312502E0,-3.567367554E0,-1.264144897E0,1.072123718E1
2.072286867E0,-1.623275757E0,-1.173156738E0,1.118571472E1
2.077291750E0,-1.484375000E-1,-8.236083984E-1,1.149696350E1
2.082266115E0,7.613525391E-1,-3.208160400E-1,1.146823120E1
2.087240480E0,1.187530518E0,6.225585938E-2,1.124795532E1
2.092214845E0,1.264144897E0,1.484375000E-1,1.107557678E1
2.097219728E0,1.039077759E0,3.352355957E-2,1.095587158E1
2.102194093E0,5.793914795E-1,-1.053466797E-1,1.083137512E1
2.107168459E0,1.053466797E-1,-2.825164795E-1,1.062068176E1
2.112142824E0,-3.399810791E-1,-4.740447998E-1,1.023760986E1
2.117117189E0,-8.379669189E-1,-6.607971191E-1,9.734817505E0
2.122122072E0,-1.326385498E0,-8.858489990E-1,9.188949585E0
2.127096437E0,-1.814804077E0,-1.110916138E0,8.695739746E0
2.132070802E0,-2.260131836E0,-1.321594238E0,8.058883667E0
2.137045168E0,-2.647979736E0,-1.604110718E0,7.316680908E0
2.142050050E0,-2.954452515E0,-1.963241577E0,6.488281250E0
2.147024416E0,-3.165130615E0,-2.269699097E0,5.688629150E0
2.151998781E0,-3.289627075E0,-2.432510376E0,4.936843872E0
2.156973146E0,-3.045425415E0,-2.533065796E0,4.333511353E0
2.161947511E0,-2.269699097E0,-2.509124756E0,3.960006714E0
2.166952394E0,-1.187530518E0,-2.308013916E0,3.768478394E0
2.171926759E0,-7.661437988E-2,-2.049438477E0,3.538635254E0
2.176901125E0,7.038879395E-1,-1.733398438E0,3.299209595E0
2.181906007E0,1.173156738E0,-1.412582397E0,3.016693115E0
2.186880373E0,1.326385498E0,-1.240203857E0,2.695877075E0
2.191854738E0,1.106124878E0,-1.264144897E0,2.461242676E0
2.196829103E0,6.272735596E-1,-1.450881958E0,2.149993896E0
2.201803468E0,-5.267333984E-2,-1.690307617E0,1.747772217E0
2.206808351E0,-6.991119385E-1,-1.991973877E0,1.278503418E0
2.211782716E0,-1.225830078E0,-2.284072876E0,8.571166992E-1
2.216757082E0,-1.623275757E0,-2.533065796E0,6.464385986E-1
2.221731447E0,-1.963241577E0,-2.777267456E0,7.134704590E-1
2.226736330E0,-2.245758057E0,-2.944869995E0,9.337310791E-1
2.231710695E0,-2.456451416E0,-3.074157715E0,1.139633179E0
2.236685060E0,-2.375045776E0,-3.318359375E0,6.895294189E-1
2.241659425E0,-2.212249756E0,-3.399765015E0,5.506591797E-1
2.246633791E0,-2.049438477E0,-3.452438354E0,6.895294189E-1
2.251638673E0,-1.867477417E0,-3.629608154E0,7.134704590E-1
2.256613039E0,-1.666366577E0,-3.931274414E0,4.836273193E-1
2.261587404E0,-1.513137817E0,-4.256896973E0,1.244964600E-1
2.266561769E0,-1.307235718E0,-4.544189453E0,-1.244964600E-1
2.271536134E0,-1.048660278E0,-4.759674072E0,-2.011108398E-1
2.276541017E0,-7.757263184E-1,-4.845870972E0,-2.346343994E-1
2.281515382E0,-5.793914795E-1,-4.893753052E0,-3.256072998E-1
2.286489748E0,-5.267181396E-1,-4.936843872E0,-4.213867188E-1
2.291464113E0,-7.086791992E-1,-5.037399292E0,-5.650329590E-1
2.296468996E0,-1.134857178E0,-5.219360352E0,-6.560058594E-1
2.301443361E0,-1.810012817E0,-5.453994751E0,-6.703796387E-1
2.306417726E0,-2.638412476E0,-5.702987671E0,-7.374114990E-1
2.311392091E0,-3.538635254E0,-6.033386230E0,-8.666992188E-1
2.316366457E0,-4.405334473E0,-6.378158569E0,-9.002227783E-1
2.321371339E0,-5.281616211E0,-6.713348389E0,-7.900848389E-1
2.326345705E0,-6.258438110E0,-7.115570068E0,-5.027770996E-1
2.331320070E0,-7.580047607E0,-7.795516968E0,1.435852051E-2
2.336294435E0,-9.797073364E0,-8.485046387E0,-3.591308594E-1
2.341299318E0,-1.115219116E1,-8.944732666E0,-1.656784058E0
2.346273683E0,-1.199015808E1,-9.188949585E0,-2.542648315E0
2.351248048E0,-1.351287842E1,-9.208099365E0,-2.279281616E0
2.356222414E0,-1.481532288E1,-9.040512085E0,-2.102111816E0
2.361227296E0,-1.541386414E1,-8.901641846E0,-2.499542236E0
2.366201662E0,-1.574427795E1,-8.638275146E0,-2.786849976E0
2.371176027E0,-1.606030273E1,-8.231262207E0,-2.619262695E0
2.376150392E0,-1.622311401E1,-7.876922607E0,-2.178726196E0
2.381124757E0,-1.609382629E1,-7.781158447E0,-1.742980957E0
2.386129640E0,-1.596932983E1,-7.857772827E0,-1.407791138E0
2.391104005E0,-1.587834167E1,-7.805099487E0,-1.254562378E0
2.396078371E0,-1.574427795E1,-7.546524048E0,-1.297653198E0
2.401052736E0,-1.579693604E1,-7.235275269E0,-1.493988037E0
2.406057619E0,-1.596932983E1,-7.000640869E0,-1.881835938E0
2.411031984E0,-1.610340881E1,-6.837844849E0,-2.279281616E0
2.416006349E0,-1.608903503E1,-6.732498169E0,-2.580947876E0
2.420980714E0,-1.587834167E1,-6.608001709E0,-2.796432495E0
2.425955080E0,-1.553837585E1,-6.459548950E0,-2.887405396E0
2.430959962E0,-1.523191833E1,-6.311111450E0,-2.839523315E0
2.435934328E0,-1.494461060E1,-6.148315430E0,-2.528274536E0
2.440908693E0,-1.477223206E1,-6.014236450E0,-1.910568237E0
2.445883058E0,-1.466209412E1,-5.846633911E0,-1.053451538E0
2.450887941E0,-1.449928284E1,-5.760452271E0,-1.867523193E-1
2.455862306E0,-1.427423096E1,-5.774810791E0,4.453277588E-1
2.460836671E0,-1.410185242E1,-5.813125610E0,8.188171387E-1
2.465811037E0,-1.395819092E1,-5.822692871E0,1.063018799E0
2.470785402E0,-1.391510010E1,-5.856216431E0,1.168365479E0
2.475790285E0,-1.400129700E1,-5.865798950E0,1.206680298E0
2.480764650E0,-1.412100220E1,-5.832275391E0,1.134857178E0
2.485739015E0,-1.417367554E1,-5.779602051E0,1.000778198E0
2.490713380E0,-1.420240784E1,-5.750869751E0,8.571166992E-1
2.495718263E0,-1.431254578E1,-5.688629150E0,6.895294189E-1
2.500692628E0,-1.440830994E1,-5.616790771E0,6.081237793E-1
2.505666994E0,-1.447534180E1,-5.477935791E0,6.464385986E-1
2.510641359E0,-1.447055054E1,-5.228942871E0,9.337310791E-1
2.515615724E0,-1.462857056E1,-4.994308472E0,1.240203857E0
2.520620607E0,-1.475306702E1,-4.946426392E0,1.484405518E0
2.525594972E0,-1.464772034E1,-5.018249512E0,1.522705078E0
2.530569337E0,-1.432690430E1,-5.051773071E0,1.503555298E0
2.535543703E0,-1.397735596E1,-4.999099731E0,1.551437378E0
2.540548586E0,-1.381933594E1,-4.960784912E0,1.651992798E0
2.545522951E0,-1.380018616E1,-4.936843872E0,1.719039917E0
2.550497316E0,-1.408268738E1,-4.817138672E0,1.805221558E0
2.555471681E0,-1.444660950E1,-4.879379272E0,1.843536377E0
2.560476564E0,-1.486320496E1,-5.161895752E0,1.819595337E0
2.565450929E0,-1.534204102E1,-5.473144531E0,1.719039917E0
2.570425294E0,-1.582566833E1,-5.588073730E0,1.608901978E0
2.575399660E0,-1.615606689E1,-5.607223511E0,1.589752197E0
2.580374025E0,-1.624226379E1,-5.521026611E0,1.316818237E0
2.585378908E0,-1.605073547E1,-5.353439331E0,8.714904785E-1
2.590353273E0,-1.572511292E1,-5.214569092E0,6.177062988E-1
2.595327638E0,-1.535641479E1,-5.037399292E0,6.512298584E-1
2.600302003E0,-1.480094910E1,-4.879379272E0,7.278442383E-1
2.605306886E0,-1.393904114E1,-4.807556152E0,7.134704590E-1
2.610281252E0,-1.286164856E1,-4.721359253E0,8.523406982E-1
2.615255617E0,-1.176031494E1,-4.630386353E0,1.177947998E0
2.620229982E0,-1.096543884E1,-4.525039673E0,1.647216797E0
2.625204347E0,-1.054885864E1,-4.252105713E0,2.130844116E0
2.630209230E0,-1.032858276E1,-3.830718994E0,2.566589355E0
2.635183595E0,-1.016099548E1,-3.509902954E0,2.782058716E0
2.640157961E0,-9.940719604E0,-3.409347534E0,2.920928955E0
2.645132326E0,-9.816223145E0,-3.600875854E0,3.016693115E0
2.650137209E0,-9.739608765E0,-3.897766113E0,3.016693115E0
2.655111574E0,-9.595962524E0,-4.213790894E0,3.040634155E0
2.660085939E0,-9.457092285E0,-4.501098633E0,2.825164795E0
2.665060304E0,-9.481033325E0,-4.697418213E0,2.595321655E0
2.670034669E0,-9.629486084E0,-4.893753052E0,2.322372437E0
2.675039552E0,-9.696517944E0,-5.027816772E0,2.159576416E0
2.680013918E0,-9.888046265E0,-4.960784912E0,1.910568237E0
2.684988283E0,-1.023281860E1,-4.735733032E0,1.742980957E0
2.689962648E0,-1.059674072E1,-4.577713013E0,1.565811157E0
2.694967531E0,-1.074038696E1,-4.419692993E0,1.546661377E0
2.699941896E0,-1.081221008E1,-4.458007812E0,1.565811157E0
2.704916261E0,-1.090319824E1,-4.558563232E0,1.613693237E0
2.709890627E0,-1.110430908E1,-4.793197632E0,1.632843018E0
2.714895509E0,-1.128627014E1,-5.003875732E0,1.656784058E0
2.719869875E0,-1.136767578E1,-5.209777832E0,1.666366577E0
2.724844240E0,-1.154484558E1,-5.434844971E0,1.733398438E0
2.729818605E0,-1.150653076E1,-5.722137451E0,1.719039917E0
2.734792970E0,-1.108993530E1,-5.832275391E0,1.431732178E0
2.739797853E0,-1.054406738E1,-5.722137451E0,1.115692139E0
2.744772218E0,-9.912002563E0,-5.597640991E0,8.331756592E-1
2.749746584E0,-9.126693726E0,-5.592849731E0,5.458831787E-1
2.754720949E0,-8.322250366E0,-5.688629150E0,3.256072998E-1
2.759725832E0,-7.436386108E0,-5.899307251E0,2.202606201E-1
2.764700197E0,-6.698974609E0,-6.124374390E0,1.197052002E-1
2.769674562E0,-5.894531250E0,-6.421249390E0,2.011108398E-1
2.774648927E0,-5.348648071E0,-6.603210449E0,2.059020996E-1
2.779623293E0,-5.736511230E0,-6.512222290E0,9.576416016E-2
2.784628175E0,-5.779602051E0,-6.909667969E0,4.791259766E-3
2.789602541E0,-5.894531250E0,-7.407653809E0,-2.011108398E-1
2.794576906E0,-6.833053589E0,-7.862564087E0,-3.399810791E-1
2.799551271E0,-7.752426147E0,-8.058883667E0,-1.532287598E-1
2.804556154E0,-8.619125366E0,-8.212112427E0,2.011108398E-1
2.809530519E0,-9.251190186E0,-8.470687866E0,4.884185791E-1
2.814504884E0,-9.653427124E0,-8.714889526E0,6.560058594E-1
2.819479250E0,-9.768341064E0,-8.896850586E0,6.991119385E-1
2.824453615E0,-9.691726685E0,-8.863342285E0,8.427581787E-1
2.829458498E0,-9.380477905E0,-8.877700806E0,9.672546387E-1
2.834432863E0,-8.949523926E0,-9.074020386E0,1.268920898E0
2.839407228E0,-8.724472046E0,-8.700531006E0,2.212249756E0
2.844381593E0,-7.637496948E0,-8.623916626E0,2.384628296E0
2.849386476E0,-6.861785889E0,-8.552093506E0,2.422927856E0
2.854360841E0,-6.167465210E0,-8.341400146E0,1.910568237E0
2.859335207E0,-6.076477051E0,-8.159439087E0,1.608901978E0
2.864309572E0,-5.971145630E0,-7.948745728E0,1.158798218E0
2.869283937E0,-6.856994629E0,-7.800308228E0,1.053451538E0
2.874288820E0,-7.455551147E0,-7.896072388E0,5.698242188E-1
2.879263185E0,-8.097183228E0,-8.346191406E0,3.447723389E-1
2.884237550E0,-8.451538086E0,-8.920791626E0,8.236083984E-1
2.889211916E0,-8.595184326E0,-9.193740845E0,8.523406982E-1
2.894216798E0,-8.432373047E0,-9.332595825E0,-4.309082031E-2
2.899191164E0,-8.255203247E0,-9.500198364E0,-1.963195801E-1
2.904165529E0,-8.183380127E0,-9.198516846E0,3.112487793E-1
2.909139894E0,-7.805099487E0,-9.346969604E0,-2.250518799E-1
2.914114259E0,-7.565673828E0,-9.634262085E0,-6.129150391E-1
2.919119142E0,-6.689407349E0,-9.514556885E0,-1.479614258E0
2.924093507E0,-5.990295410E0,-9.466674805E0,-2.197875977E0
2.929067873E0,-6.593627930E0,-9.121902466E0,-1.666366577E0
2.934042238E0,-6.919250488E0,-8.365341187E0,-1.915435791E-1
2.939047121E0,-7.374145508E0,-7.790725708E0,1.819610596E-1
2.944021486E0,-7.541732788E0,-7.556106567E0,-4.596862793E-1
2.948995851E0,-7.369354248E0,-7.637496948E0,-1.158798218E0
2.953970216E0,-7.062896729E0,-7.541732788E0,-1.436523438E0
2.958944582E0,-6.320693970E0,-7.829040527E0,-1.561019897E0
2.963949464E0,-6.277603149E0,-7.675811768E0,-9.624633789E-1
2.968923830E0,-5.913681030E0,-7.690170288E0,-7.374114990E-1
2.973898195E0,-5.659896851E0,-7.972686768E0,-1.388702393E-1
2.978872560E0,-5.530609131E0,-7.522583008E0,1.374267578E0
2.983877443E0,-6.258438110E0,-6.995864868E0,1.393432617E0
2.988851808E0,-6.799530029E0,-6.722915649E0,-1.484375000E-1
2.993826173E0,-6.268020630E0,-7.077255249E0,-2.657562256E0
2.998800539E0,-5.664688110E0,-7.690170288E0,-3.418914795E0
3.003805421E0,-4.817138672E0,-8.164230347E0,-3.801986694E0
3.008779787E0,-4.836288452E0,-8.341400146E0,-3.888183594E0
3.013754152E0,-5.018249512E0,-8.398864746E0,-4.046203613E0
3.018728517E0,-5.774810791E0,-8.446746826E0,-3.763687134E0
3.023702882E0,-5.995086670E0,-8.374923706E0,-4.070144653E0
3.028707765E0,-5.985504150E0,-8.394073486E0,-4.108444214E0
3.033682130E0,-5.880157471E0,-7.838623047E0,-4.405334473E0
3.038656496E0,-6.023818970E0,-7.264007568E0,-8.523406982E-1
3.043630861E0,-5.880157471E0,-7.580047607E0,5.458831787E-1
3.048635744E0,-5.789184570E0,-7.819458008E0,-8.906402588E-1
3.053610109E0,-5.482727051E0,-7.594406128E0,-2.537857056E0
3.058584474E0,-5.286392212E0,-7.086837769E0,-4.271255493E0
3.063558839E0,-4.869812012E0,-6.603210449E0,-5.808334351E0
3.068533205E0,-4.410125732E0,-6.473922729E0,-6.483505249E0
3.073538087E0,-4.170700073E0,-6.689407349E0,-5.631164551E0
3.078512453E0,-4.079727173E0,-7.053314209E0,-4.510681152E0
3.083486818E0,-3.687072754E0,-7.508209229E0,-3.964797974E0
3.088461183E0,-3.342300415E0,-8.169021606E0,-2.949661255E0
3.093466066E0,-4.027053833E0,-8.159439087E0,-7.996673584E-1
3.098440431E0,-3.821151733E0,-7.905654907E0,-1.201889038E0
3.103414796E0,-3.318359375E0,-7.603988647E0,-1.944091797E0
3.108389162E0,-2.758117676E0,-7.283157349E0,-4.141967773E0
3.113363527E0,-2.379837036E0,-6.679824829E0,-5.075714111E0
3.118368410E0,-2.001556396E0,-6.488281250E0,-5.324707031E0
3.123342775E0,-1.556228638E0,-6.296752930E0,-7.201751709E0
3.128317140E0,-1.680725098E0,-6.062118530E0,-8.868118286E0
3.133291505E0,-2.681503296E0,-6.086059570E0,-7.125137329E0
3.138296388E0,-3.485961914E0,-6.200988770E0,-5.760452271E0
3.143270753E0,-4.481948853E0,-5.865798950E0,-5.841827393E-1
3.148245119E0,-5.114013672E0,-6.564895630E0,3.055007935E0
3.153219484E0,-4.975158691E0,-6.794738770E0,-5.267333984E-2
3.158193849E0,-4.185058594E0,-5.908889771E0,-3.639190674E0
3.163198732E0,-3.634399414E0,-5.142745972E0,-6.162673950E0
3.168173097E0,-3.380615234E0,-5.046981812E0,-7.948745728E0
3.173147462E0,-2.705444336E0,-5.377380371E0,-1.088404846E1
3.178121828E0,-1.714248657E0,-5.856216431E0,-1.687432861E1
3.183126711E0,-3.902542114E0,-6.627151489E0,-1.080743408E1
3.188101076E0,-6.856994629E0,-7.589614868E0,-4.022216797E-1
3.193075441E0,-7.206542969E0,-7.532165527E0,3.026275635E0
3.198049806E0,-7.048522949E0,-6.631942749E0,2.408569336E0
3.203024171E0,-6.507446289E0,-5.157104492E0,8.571166992E-1
3.208029054E0,-5.904098511E0,-3.452438354E0,9.864044189E-1
3.213003419E0,-5.142745972E0,-2.293640137E0,2.011108398E-1
3.217977785E0,-4.960784912E0,-1.422149658E0,-2.298431396E-1
3.222952150E0,-5.228942871E0,-1.067810059E0,-3.926544189E-1
3.227957033E0,-5.937622070E0,-1.115692139E0,-6.751708984E-1
3.232931398E0,-6.493072510E0,-1.417373657E0,-1.326385498E0
3.237905763E0,-7.062896729E0,-1.924942017E0,-1.987182617E0
3.242880128E0,-7.790725708E0,-2.480392456E0,-2.422927856E0
3.247885011E0,-8.255203247E0,-2.987960815E0,-3.055007935E0
3.252859377E0,-8.815444946E0,-3.576934814E0,-3.643981934E0
3.257833742E0,-9.160217285E0,-4.074935913E0,-3.902542114E0
3.262808107E0,-9.160217285E0,-4.367019653E0,-4.185058594E0
3.267782472E0,-8.748413086E0,-4.434066772E0,-4.256896973E0
3.272787355E0,-7.843399048E0,-4.261672974E0,-4.319137573E0
3.277761720E0,-6.679824829E0,-3.749313354E0,-4.161117554E0
3.282736086E0,-5.679046631E0,-3.203445435E0,-3.691864014E0
3.287710451E0,-5.453994751E0,-3.107681274E0,-3.203445435E0
3.292715334E0,-5.032608032E0,-3.021484375E0,-2.528274536E0
3.297689699E0,-4.975158691E0,-3.265686035E0,-2.217025757E0
3.302664064E0,-5.114013672E0,-3.643981934E0,-2.489974976E0
3.307638429E0,-4.994308472E0,-4.046203613E0,-2.925720215E0
3.312612794E0,-4.865020752E0,-4.735733032E0,-3.390182495E0
3.317617677E0,-4.730941772E0,-5.382171631E0,-4.003112793E0
3.322592043E0,-4.515457153E0,-5.923248291E0,-4.596862793E0
3.327566408E0,-4.352661133E0,-6.354217529E0,-4.927261353E0
3.332540773E0,-3.964797974E0,-6.751647949E0,-4.922485352E0
3.337545656E0,-3.567367554E0,-6.751647949E0,-4.582504272E0
3.342520021E0,-3.390182495E0,-6.746856689E0,-4.276046753E0
3.347494386E0,-3.241744995E0,-6.962341309E0,-4.046203613E0
3.352468752E0,-2.954452515E0,-7.278366089E0,-5.085281372E0
3.357443117E0,-3.208236694E0,-7.196975708E0,-5.118804932E0
3.362448000E0,-3.327941895E0,-7.723693848E0,-5.549758911E0
3.367422365E0,-3.648757935E0,-8.116348267E0,-6.679824829E0
3.372396730E0,-2.882614136E0,-9.141067505E0,-7.417236328E0
3.377371095E0,-2.719818115E0,-9.260772705E0,-6.799530029E0
3.382375978E0,-3.414138794E0,-9.064453125E0,-5.975921631E0
3.387350343E0,-4.362228394E0,-9.131484985E0,-4.122817993E0
3.392324709E0,-4.692642212E0,-1.058715820E1,-2.360687256E0
3.397299074E0,-3.251327515E0,-1.111389160E1,-2.207458496E0
3.402273439E0,-3.538635254E0,-9.888046265E0,-1.948883057E0
3.407278322E0,-1.570602417E0,-7.264007568E0,-3.845092773E0
3.412252687E0,-1.240203857E0,-5.161895752E0,-5.228942871E0
3.417227052E0,-6.224975586E-1,-3.787628174E0,-6.234497070E0
3.422201418E0,-1.326385498E0,-5.386947632E0,-5.195419312E0
3.427206300E0,-3.007110596E0,-8.743621826E0,-4.065353394E0
3.432180666E0,-3.916915894E0,-1.100375366E1,-3.706222534E0
3.437155031E0,-3.371032715E0,-1.169328308E1,-4.788406372E0
3.442129396E0,-2.336746216E0,-1.150173950E1,-6.143524170E0
3.447103761E0,-2.250549316E0,-1.096066284E1,-6.904876709E0
3.452108644E0,-2.001556396E0,-1.075476074E1,-6.751647949E0
3.457083009E0,-1.977615356E0,-1.086009216E1,-6.449981689E0
3.462057375E0,-2.475601196E0,-1.120965576E1,-5.779602051E0
3.467031740E0,-3.375823975E0,-1.135809326E1,-5.070922852E0
3.472036623E0,-3.983947754E0,-1.055842590E1,-4.237731934E0
3.477010988E0,-4.572921753E0,-8.216903687E0,-2.389419556E0
3.481985353E0,-2.351104736E0,-6.172256470E0,2.729339600E-1
3.486959718E0,-6.081237793E-1,-5.219360352E0,3.591308594E-1
3.491964601E0,-6.847381592E-1,-6.646301270E0,-1.503555298E0
3.496938966E0,-3.131622314E0,-9.026138306E0,-3.371032715E0
3.501913332E0,-4.568130493E0,-1.086009216E1,-4.400543213E0
3.506887697E0,-4.448425293E0,-1.101332092E1,-4.089294434E0
3.511862062E0,-4.472366333E0,-1.063024902E1,-4.103668213E0
3.516866945E0,-4.189849854E0,-9.931152344E0,-4.730941772E0
3.521841310E0,-3.232177734E0,-8.901641846E0,-4.223373413E0
3.526815675E0,-2.964019775E0,-7.747634888E0,-3.466796875E0
3.531790041E0,-3.193862915E0,-6.991073608E0,-2.619262695E0
3.536794923E0,-3.280059814E0,-7.474700928E0,-2.327163696E0
3.541769289E0,-3.165130615E0,-8.719680786E0,-2.715026855E0
3.546743654E0,-3.481170654E0,-9.050079346E0,-3.466796875E0
3.551718019E0,-4.103668213E0,-9.054870605E0,-3.739746094E0
3.556692384E0,-4.065353394E0,-8.868118286E0,-3.845092773E0
3.561697267E0,-3.983947754E0,-8.480270386E0,-3.883392334E0
3.566671632E0,-3.778045654E0,-7.987060547E0,-3.600875854E0
3.571645998E0,-4.668701172E0,-7.814682007E0,-3.313568115E0
3.576620363E0,-4.702209473E0,-7.934387207E0,-3.045425415E0
3.581625246E0,-4.371810913E0,-8.025360107E0,-2.700653076E0
3.586599611E0,-4.027053833E0,-7.757217407E0,-2.671936035E0
3.591573976E0,-4.357452393E0,-7.948745728E0,-3.059783936E0
3.596548341E0,-3.648757935E0,-7.565673828E0,-3.332733154E0
3.601522707E0,-2.715026855E0,-7.196975708E0,-2.959228516E0
3.606531233E0,-2.604888916E0,-7.005432129E0,-2.695877075E0
3.611505599E0,-3.141189575E0,-7.216125488E0,-2.590530396E0
3.616479964E0,-4.118026733E0,-7.972686768E0,-2.470809937E0
3.621454329E0,-4.802764893E0,-8.968673706E0,-2.743759155E0
3.626459212E0,-5.013458252E0,-1.057759094E1,-3.586517334E0
3.631433577E0,-4.965576172E0,-1.215296936E1,-4.912902832E0
3.636407942E0,-5.463562012E0,-1.322557068E1,-5.430053711E0
3.641382308E0,-5.798751831E0,-1.357511902E1,-5.329498291E0
3.646387190E0,-5.746078491E0,-1.322077942E1,-4.855438232E0
3.651361556E0,-4.970367432E0,-1.230140686E1,-4.108444214E0
3.656335921E0,-3.907333374E0,-1.102769470E1,-3.179504395E0
3.661310286E0,-3.203445435E0,-9.768341064E0,-2.351104736E0
3.666284651E0,-2.901779175E0,-9.030929565E0,-1.680725098E0
3.671289534E0,-2.786849976E0,-8.719680786E0,-1.206680298E0
3.676263899E0,-2.691085815E0,-8.403656006E0,-9.672546387E-1
3.681238265E0,-2.767700195E0,-8.020568848E0,-8.475494385E-1
3.686212630E0,-3.160339355E0,-7.852981567E0,-9.241638184E-1
3.691217513E0,-3.490753174E0,-7.948745728E0,-1.201889038E0
3.696191878E0,-3.538635254E0,-8.188171387E0,-1.173156738E0
3.701166243E0,-3.490753174E0,-8.480270386E0,-1.139633179E0
3.706140608E0,-3.447647095E0,-8.647857666E0,-1.192306519E0
3.711114974E0,-3.586517334E0,-8.667007446E0,-1.379058838E0
3.716119856E0,-3.883392334E0,-8.820236206E0,-1.517929077E0
3.721094222E0,-3.816360474E0,-9.117126465E0,-1.766921997E0
3.726068587E0,-4.213790894E0,-8.935165405E0,-2.073379517E0
3.731042952E0,-4.395751953E0,-8.652648926E0,-2.341522217E0
3.736047835E0,-4.118026733E0,-8.312667847E0,-2.485183716E0
3.741022200E0,-3.457229614E0,-8.413223267E0,-2.513916016E0
3.745996565E0,-2.446868896E0,-9.150634766E0,-2.758117676E0
3.750970931E0,-2.111679077E0,-9.255981445E0,-1.345535278E0
3.755945296E0,-2.087738037E0,-9.059661865E0,2.394104004E-2
3.760950179E0,-3.825927734E0,-8.695739746E0,-1.862686157E0
3.765924544E0,-3.648757935E0,-8.949523926E0,-4.065353394E0
3.770898909E0,-3.878601074E0,-9.595962524E0,-4.572921753E0
3.775873274E0,-4.285614014E0,-9.974243164E0,-4.505889893E0
3.780878157E0,-4.994308472E0,-1.018972778E1,-4.232955933E0
3.785852522E0,-5.090072632E0,-1.064462280E1,-4.055770874E0
3.790826888E0,-4.730941772E0,-1.111389160E1,-3.610458374E0
3.795801253E0,-4.869812012E0,-1.087925720E1,-3.126831055E0
3.800775618E0,-4.611236572E0,-1.074996948E1,-2.370254517E0
3.805780501E0,-4.323928833E0,-1.081221008E1,-1.948883057E0
3.810754866E0,-4.208999634E0,-1.086967468E1,-1.819595337E0
3.815729231E0,-4.271255493E0,-1.088882446E1,-1.752548218E0
3.820703597E0,-4.424484253E0,-1.097023010E1,-1.829162598E0
3.825708480E0,-3.983947754E0,-1.078347778E1,-2.169143677E0
3.830682845E0,-3.308792114E0,-1.039562988E1,-2.422927856E0
3.835657210E0,-2.983169556E0,-9.873687744E0,-2.475601196E0
3.840631575E0,-3.021484375E0,-9.394851685E0,-2.566589355E0
3.845605940E0,-3.179504395E0,-9.059661865E0,-2.748550415E0
3.850610823E0,-3.179504395E0,-8.858551025E0,-2.863464355E0
3.855585188E0,-2.873046875E0,-8.437164307E0,-2.858673096E0
3.860559554E0,-2.513916016E0,-7.632720947E0,-2.715026855E0
3.865533919E0,-3.002334595E0,-7.723693848E0,-2.676712036E0
3.870538802E0,-3.299209595E0,-7.742843628E0,-2.729385376E0
3.875513167E0,-3.375823975E0,-7.948745728E0,-2.801208496E0
3.880487532E0,-3.394973755E0,-8.169021606E0,-2.820373535E0
3.885461897E0,-3.361465454E0,-8.389282227E0,-2.743759155E0
3.890436263E0,-3.160339355E0,-8.499420166E0,-2.667144775E0
3.895441146E0,-2.896987915E0,-8.470687866E0,-2.451660156E0
3.900415511E0,-2.882614136E0,-8.418014526E0,-2.513916016E0
3.905389876E0,-3.256118774E0,-8.389282227E0,-2.964019775E0
3.910364241E0,-3.145980835E0,-8.451538086E0,-2.882614136E0
3.915369124E0,-2.987960815E0,-8.513778687E0,-2.762908936E0
3.920343489E0,-2.810791016E0,-8.595184326E0,-2.762908936E0
3.925317855E0,-2.671936035E0,-8.743621826E0,-2.647979736E0
3.930292220E0,-2.466033936E0,-8.939956665E0,-2.442092896E0
3.935297103E0,-2.432510376E0,-8.963897705E0,-2.197875977E0
3.940271468E0,-2.628829956E0,-8.825027466E0,-2.097320557E0
3.945245833E0,-2.710235596E0,-8.643066406E0,-2.322372437E0
3.950220198E0,-2.810791016E0,-8.518569946E0,-2.547424316E0
3.955194563E0,-2.906555176E0,-8.379699707E0,-2.729385376E0
3.960199446E0,-2.973602295E0,-8.283935547E0,-2.901779175E0
3.965173812E0,-3.026275635E0,-8.264785767E0,-3.002334595E0
3.970148177E0,-3.050216675E0,-8.274368286E0,-3.026275635E0
3.975122542E0,-3.107681274E0,-8.303085327E0,-3.040634155E0
3.980127425E0,-3.007110596E0,-8.245635986E0,-3.011901855E0
3.985101790E0,-2.968811035E0,-8.264785767E0,-3.021484375E0
3.990076155E0,-3.150772095E0,-8.350982666E0,-3.160339355E0
3.995050521E0,-3.256118774E0,-8.485046387E0,-3.078948975E0
4.000024886E0,-3.203445435E0,-8.585601807E0,-2.844314575E0
4.005029769E0,-3.083724976E0,-8.700531006E0,-2.667144775E0
4.010004134E0,-2.973602295E0,-8.872909546E0,-2.600097656E0
4.014978499E0,-2.772491455E0,-9.064453125E0,-2.537857056E0
4.019952864E0,-2.619262695E0,-9.169799805E0,-2.585739136E0
4.024957747E0,-2.403778076E0,-9.107543945E0,-2.518707275E0
4.029932112E0,-2.303222656E0,-8.978256226E0,-2.528274536E0
4.034906478E0,-2.250549316E0,-8.614334106E0,-2.576156616E0
4.039880843E0,-2.461242676E0,-8.255203247E0,-2.585739136E0
4.044855208E0,-2.633621216E0,-7.833831787E0,-2.715026855E0
4.049860091E0,-2.748550415E0,-7.608779907E0,-2.901779175E0
4.054834456E0,-2.920928955E0,-7.508209229E0,-3.045425415E0
4.059808821E0,-3.035842896E0,-7.441177368E0,-3.203445435E0
4.064783187E0,-2.992752075E0,-7.398086548E0,-3.260910034E0
4.069788069E0,-2.782058716E0,-7.407653809E0,-3.122039795E0
4.074762435E0,-2.571365356E0,-7.469909668E0,-2.959228516E0
4.079736800E0,-2.451660156E0,-7.560882568E0,-2.887405396E0
4.084711165E0,-2.403778076E0,-7.513000488E0,-2.801208496E0
4.089685530E0,-2.288864136E0,-7.465118408E0,-2.681503296E0
4.094690413E0,-2.149993896E0,-7.273590088E0,-2.604888916E0
4.099664778E0,-2.116470337E0,-7.326263428E0,-2.432510376E0
4.104639144E0,-2.011123657E0,-7.340621948E0,-2.489974976E0
4.109613509E0,-1.786071777E0,-7.225708008E0,-2.523483276E0
4.114618392E0,-1.551437378E0,-7.259216309E0,-2.475601196E0
4.119592757E0,-1.192306519E0,-7.105987549E0,-2.432510376E0
4.124567122E0,-9.433135986E-1,-6.967132568E0,-2.533065796E0
4.129541487E0,-9.481048584E-1,-6.866577148E0,-2.724594116E0
4.134515853E0,-7.230529785E-1,-6.708557129E0,-2.624038696E0
4.139520735E0,-6.895294189E-1,-6.502655029E0,-2.427719116E0
4.144495101E0,-9.911956787E-1,-6.358993530E0,-2.370254517E0
4.149469466E0,-1.235412598E0,-6.177047729E0,-2.398986816E0
4.154443831E0,-1.422149658E0,-6.119583130E0,-2.063796997E0
4.159448714E0,-1.781280518E0,-6.124374390E0,-1.690307617E0
4.164423079E0,-1.896209717E0,-5.966354370E0,-1.359909058E0
4.169397444E0,-2.073379517E0,-5.779602051E0,-1.206680298E0
4.174371810E0,-2.240966797E0,-5.511459351E0,-1.436523438E0
4.179346175E0,-2.336746216E0,-5.430053711E0,-1.934509277E0
4.184351058E0,-2.480392456E0,-5.295974731E0,-1.886627197E0
4.189325423E0,-2.557006836E0,-5.272033691E0,-1.776504517E0
4.194299788E0,-2.638412476E0,-5.238510132E0,-1.431732178E0
4.199274153E0,-2.312805176E0,-5.348648071E0,-2.777267456E0
4.204279036E0,-2.250549316E0,-5.224151611E0,-3.768478394E0
4.209253401E0,-2.073379517E0,-4.874588013E0,-3.169921875E0
4.214227767E0,-1.939300537E0,-4.539413452E0,-1.968032837E0
4.219202132E0,-1.623275757E0,-4.256896973E0,-2.260131836E0
4.224207015E0,-1.556228638E0,-4.730941772E0,-2.293640137E0
4.229181380E0,-1.977615356E0,-6.708557129E0,-2.700653076E0
4.234155745E0,-2.537857056E0,-1.266053772E1,-2.628829956E0
4.239130110E0,4.022216797E-1,-2.026931763E1,-3.064575195E0
4.244104476E0,1.896209717E0,-2.554135132E1,-5.133163452E0
4.249109358E0,-1.580200195E-1,-2.971682739E1,-5.123596191E0
4.254083724E0,-5.157104492E0,-3.149812317E1,-4.951202393E0
4.259058089E0,-1.101332092E1,-3.063142395E1,-3.361465454E0
4.264032454E0,-1.134851074E1,-2.708320618E1,-1.781280518E0
4.269037337E0,-6.028594971E0,-2.030761719E1,-2.442016602E-1
4.274011702E0,-2.638412476E0,-1.439393616E1,-1.963195801E-1
4.278986067E0,-1.134857178E0,-1.067814636E1,-9.097900391E-1
4.283960433E0,-9.576416016E-2,-8.384490967E0,-1.340759277E0
4.288934798E0,4.405364990E-1,-6.938400269E0,-1.450881958E0
4.293939681E0,5.602416992E-1,-6.076477051E0,-1.379058838E0
4.298914046E0,4.692687988E-1,-5.688629150E0,-1.340759277E0
4.303888411E0,7.182312012E-2,-5.899307251E0,-1.340759277E0
4.308862776E0,-6.607971191E-1,-6.761230469E0,-1.690307617E0
4.313867659E0,-1.508346558E0,-7.929595947E0,-2.403778076E0
4.318842024E0,-2.154785156E0,-8.705322266E0,-3.174713135E0
4.323816390E0,-2.365478516E0,-9.030929565E0,-3.715805054E0
4.328790755E0,-2.212249756E0,-9.303863525E0,-3.754104614E0
4.333765120E0,-1.872268677E0,-9.433151245E0,-3.375823975E0
4.338770003E0,-1.704666138E0,-9.504974365E0,-2.868255615E0
4.343744368E0,-1.742980957E0,-9.576812744E0,-2.422927856E0
4.348718733E0,-1.829162598E0,-9.629486084E0,-2.020706177E0
4.353693099E0,-1.814804077E0,-9.634262085E0,-1.699890137E0
4.358697981E0,-1.738189697E0,-9.672576904E0,-1.561019897E0
4.363672347E0,-1.594543457E0,-9.763549805E0,-1.589752197E0
4.368646712E0,-1.431732178E0,-9.864105225E0,-1.742980957E0
4.373621077E0,-1.273712158E0,-9.868896484E0,-1.934509277E0
4.378595442E0,-1.182739258E0,-9.720458984E0,-2.130844116E0
4.383600325E0,-1.158798218E0,-9.500198364E0,-2.279281616E0
4.388574690E0,-1.144424438E0,-9.370910645E0,-2.322372437E0
4.393549056E0,-1.134857178E0,-9.313446045E0,-2.169143677E0
4.398523421E0,-1.134857178E0,-9.323028564E0,-1.968032837E0
4.403528304E0,-1.177947998E0,-9.351745605E0,-1.833953857E0
4.408502669E0,-1.230621338E0,-9.361328125E0,-1.723831177E0
4.413477034E0,-1.264144897E0,-9.361328125E0,-1.695098877E0
4.418451399E0,-1.307235718E0,-9.380477905E0,-1.699890137E0
4.423456282E0,-1.383850098E0,-9.418792725E0,-1.719039917E0
4.428430647E0,-1.484405518E0,-9.457092285E0,-1.747772217E0
4.433405013E0,-1.551437378E0,-9.485824585E0,-1.790863037E0
4.438379378E0,-1.546661377E0,-9.481033325E0,-1.857894897E0
4.443353743E0,-1.556228638E0,-9.437942505E0,-1.924942017E0
4.448358626E0,-1.541870117E0,-9.394851685E0,-1.968032837E0
4.453332991E0,-1.503555298E0,-9.346969604E0,-2.006347656E0
4.458307356E0,-1.436523438E0,-9.327804565E0,-2.035064697E0
4.463281722E0,-1.345535278E0,-9.313446045E0,-2.020706177E0
4.468286605E0,-1.264144897E0,-9.313446045E0,-1.982406616E0
4.473260970E0,-1.192306519E0,-9.284713745E0,-1.953674316E0
4.478235335E0,-1.115692139E0,-9.241622925E0,-1.857894897E0
4.483209700E0,-1.053451538E0,-9.193740845E0,-1.742980957E0
4.488184065E0,-1.043869019E0,-9.131484985E0,-1.637634277E0
4.493188948E0,-1.053451538E0,-9.112335205E0,-1.584960938E0
4.498163313E0,-1.058242798E0,-9.088394165E0,-1.584960938E0
4.503137679E0,-1.096542358E0,-9.102752686E0,-1.594543457E0
4.508112044E0,-1.130065918E0,-9.112335205E0,-1.570602417E0
4.513116927E0,-1.173156738E0,-9.141067505E0,-1.565811157E0
4.518091292E0,-1.221038818E0,-9.193740845E0,-1.575378418E0
4.523065657E0,-1.259353638E0,-9.255981445E0,-1.551437378E0
4.528040022E0,-1.316818237E0,-9.337387085E0,-1.527496338E0
4.533014388E0,-1.383850098E0,-9.447525024E0,-1.513137817E0
4.538019271E0,-1.465255737E0,-9.557647705E0,-1.479614258E0
4.542993636E0,-1.561019897E0,-9.691726685E0,-1.436523438E0
4.547968001E0,-1.656784058E0,-9.811431885E0,-1.412582397E0
4.552942366E0,-1.714248657E0,-9.912002563E0,-1.407791138E0
4.557947249E0,-1.766921997E0,-1.000776672E1,-1.407791138E0
4.562921614E0,-1.810012817E0,-1.007958984E1,-1.407791138E0
4.567895980E0,-1.810012817E0,-1.012268066E1,-1.412582397E0
4.572870345E0,-1.829162598E0,-1.013226318E1,-1.446090698E0
4.577844710E0,-1.790863037E0,-1.008917236E1,-1.484405518E0
4.582849593E0,-1.723831177E0,-1.003170776E1,-1.513137817E0
4.587823958E0,-1.675933838E0,-9.974243164E0,-1.570602417E0
4.592798323E0,-1.651992798E0,-9.907211304E0,-1.604110718E0
4.597772688E0,-1.613693237E0,-9.825805664E0,-1.632843018E0
4.602777571E0,-1.584960938E0,-9.715667725E0,-1.671157837E0
4.607751937E0,-1.537078857E0,-9.610321045E0,-1.685516357E0
4.612726302E0,-1.465255737E0,-9.500198364E0,-1.671157837E0
4.617700667E0,-1.460464478E0,-9.399642944E0,-1.671157837E0
4.622675032E0,-1.503555298E0,-9.332595825E0,-1.671157837E0
4.627679915E0,-1.565811157E0,-9.308654785E0,-1.666366577E0
4.632654280E0,-1.628051758E0,-9.289505005E0,-1.680725098E0
4.637628646E0,-1.762130737E0,-9.284713745E0,-1.675933838E0
4.642603011E0,-1.833953857E0,-9.265563965E0,-1.671157837E0
4.647607894E0,-1.886627197E0,-9.255981445E0,-1.704666138E0
4.652582259E0,-1.872268677E0,-9.289505005E0,-1.776504517E0
4.657556624E0,-1.886627197E0,-9.346969604E0,-1.872268677E0
4.662530989E0,-1.891418457E0,-9.442733765E0,-1.948883057E0
4.667535872E0,-1.877059937E0,-9.519348145E0,-2.006347656E0
4.672510237E0,-1.843536377E0,-9.591171265E0,-2.025497437E0
4.677484603E0,-1.790863037E0,-9.648635864E0,-2.020706177E0
4.682458968E0,-1.733398438E0,-9.701309204E0,-1.996765137E0
4.687433333E0,-1.666366577E0,-9.710876465E0,-2.015914917E0
4.692438216E0,-1.584960938E0,-9.696517944E0,-2.015914917E0
4.697412581E0,-1.508346558E0,-9.653427124E0,-2.059020996E0
4.702386946E0,-1.436523438E0,-9.610321045E0,-2.068588257E0
4.707361312E0,-1.355117798E0,-9.567230225E0,-2.097320557E0
4.712366194E0,-1.297653198E0,-9.509765625E0,-2.111679077E0
4.717340560E0,-1.278503418E0,-9.442733765E0,-2.135635376E0
4.722314925E0,-1.235412598E0,-9.404418945E0,-2.121261597E0
4.727289290E0,-1.216247559E0,-9.385269165E0,-2.097320557E0
4.732263655E0,-1.230621338E0,-9.366119385E0,-2.078170776E0
4.737268538E0,-1.283294678E0,-9.380477905E0,-2.092529297E0
4.742242903E0,-1.321594238E0,-9.385269165E0,-2.068588257E0
4.747217269E0,-1.355117798E0,-9.404418945E0,-2.111679077E0
4.752191634E0,-1.412582397E0,-9.399642944E0,-2.130844116E0
4.757196517E0,-1.441314697E0,-9.380477905E0,-2.135635376E0
4.762170882E0,-1.489196777E0,-9.361328125E0,-2.149993896E0
4.767145247E0,-1.508346558E0,-9.313446045E0,-2.154785156E0
4.772119612E0,-1.527496338E0,-9.284713745E0,-2.130844116E0
4.777093978E0,-1.551437378E0,-9.260772705E0,-2.106903076E0
4.782098860E0,-1.551437378E0,-9.251190186E0,-2.054229736E0
4.787073226E0,-1.522705078E0,-9.265563965E0,-2.015914917E0
4.792047591E0,-1.498764038E0,-9.294296265E0,-1.972824097E0
4.797021956E0,-1.441314697E0,-9.375701904E0,-1.958450317E0
4.802026839E0,-1.426940918E0,-9.481033325E0,-1.939300537E0
4.807001204E0,-1.388641357E0,-9.562438965E0,-1.958450317E0
4.811975569E0,-1.340759277E0,-9.639053345E0,-1.972824097E0
4.816949935E0,-1.297653198E0,-9.715667725E0,-1.953674316E0
4.821924300E0,-1.268920898E0,-9.749191284E0,-1.934509277E0
4.826929183E0,-1.240203857E0,-9.782714844E0,-1.920150757E0
4.831903548E0,-1.187530518E0,-9.768341064E0,-1.901000977E0
4.836877913E0,-1.182739258E0,-9.777923584E0,-1.905792236E0
4.841852278E0,-1.144424438E0,-9.749191284E0,-1.857894897E0
4.846857161E0,-1.110916138E0,-9.725250244E0,-1.819595337E0
4.851831526E0,-1.130065918E0,-9.691726685E0,-1.814804077E0
4.856805892E0,-1.130065918E0,-9.629486084E0,-1.810012817E0
4.861780257E0,-1.154006958E0,-9.548080444E0,-1.786071777E0
4.866754622E0,-1.240203857E0,-9.466674805E0,-1.757339478E0
4.871759505E0,-1.288085938E0,-9.409210205E0,-1.738189697E0
4.876733870E0,-1.302444458E0,-9.332595825E0,-1.723831177E0
4.881708235E0,-1.350326538E0,-9.318237305E0,-1.709457397E0
4.886682601E0,-1.441314697E0,-9.327804565E0,-1.690307617E0
4.891687483E0,-1.527496338E0,-9.366119385E0,-1.685516357E0
4.896661849E0,-1.546661377E0,-9.399642944E0,-1.690307617E0
4.901636214E0,-1.594543457E0,-9.485824585E0,-1.714248657E0
4.906610579E0,-1.613693237E0,-9.572021484E0,-1.757339478E0
4.911615462E0,-1.561019897E0,-9.672576904E0,-1.766921997E0
4.916589827E0,-1.508346558E0,-9.739608765E0,-1.843536377E0
4.921564192E0,-1.479614258E0,-9.806655884E0,-1.881835938E0
4.926538558E0,-1.355117798E0,-9.849746704E0,-1.867477417E0
4.931512923E0,-1.264144897E0,-9.868896484E0,-1.857894897E0
4.936517806E0,-1.163589478E0,-9.840164185E0,-1.862686157E0
4.941492171E0,-1.053451538E0,-9.835388184E0,-1.805221558E0
4.946466536E0,-9.289550781E-1,-9.830596924E0,-1.728607178E0
4.951440901E0,-8.427581787E-1,-9.821014404E0,-1.714248657E0
4.956445784E0,-7.517852783E-1,-9.816223145E0,-1.690307617E0
4.961420149E0,-7.278442383E-1,-9.816223145E0,-1.695098877E0
4.966394515E0,-6.895294189E-1,-9.797073364E0,-1.647216797E0
4.971368880E0,-7.038879395E-1,-9.787490845E0,-1.604110718E0
4.976343245E0,-7.757263184E-1,-9.744400024E0,-1.584960938E0
4.981348128E0,-8.475494385E-1,-9.677368164E0,-1.575378418E0
4.986322493E0,-9.528961182E-1,-9.610321045E0,-1.551437378E0
4.991296858E0,-1.067810059E0,-9.528930664E0,-1.589752197E0
4.996271224E0,-1.163589478E0,-9.414001465E0,-1.618484497E0
5.001276106E0,-1.297653198E0,-9.327804565E0,-1.608901978E0
5.006250472E0,-1.417373657E0,-9.275131226E0,-1.628051758E0
5.011224837E0,-1.450881958E0,-9.227249146E0,-1.589752197E0
5.016199202E0,-1.431732178E0,-9.217681885E0,-1.541870117E0
5.021173567E0,-1.388641357E0,-9.246414185E0,-1.474822998E0
5.026178450E0,-1.297653198E0,-9.303863525E0,-1.417373657E0
5.031152815E0,-1.192306519E0,-9.394851685E0,-1.374267578E0
5.036127181E0,-1.063018799E0,-9.500198364E0,-1.297653198E0
5.041101546E0,-9.385223389E-1,-9.591171265E0,-1.244979858E0
5.046106429E0,-8.714904785E-1,-9.696517944E0,-1.249771118E0
5.051080794E0,-8.283996582E-1,-9.787490845E0,-1.244979858E0
5.056055159E0,-7.948760986E-1,-9.849746704E0,-1.259353638E0
5.061029524E0,-8.092346191E-1,-9.912002563E0,-1.273712158E0
5.066003890E0,-8.236083984E-1,-9.935943604E0,-1.297653198E0
5.071008772E0,-8.666992188E-1,-9.945510864E0,-1.326385498E0
5.075983138E0,-9.002227783E-1,-9.912002563E0,-1.335968018E0
5.080957503E0,-9.241638184E-1,-9.840164185E0,-1.350326538E0
5.085931868E0,-9.385223389E-1,-9.782714844E0,-1.388641357E0
5.090936751E0,-9.816284180E-1,-9.725250244E0,-1.383850098E0
5.095911116E0,-1.010360718E0,-9.715667725E0,-1.350326538E0
5.100885481E0,-1.015136719E0,-9.686935425E0,-1.326385498E0
5.105859847E0,-1.024719238E0,-9.696517944E0,-1.312026978E0
5.110834212E0,-9.768371582E-1,-9.715667725E0,-1.259353638E0
5.115839095E0,-9.864044189E-1,-9.773132324E0,-1.221038818E0
5.120813460E0,-9.337310791E-1,-9.806655884E0,-1.177947998E0
5.125787825E0,-9.002227783E-1,-9.835388184E0,-1.158798218E0
5.130762190E0,-8.714904785E-1,-9.849746704E0,-1.120483398E0
5.135767073E0,-8.475494385E-1,-9.859329224E0,-1.115692139E0
5.140741438E0,-8.236083984E-1,-9.830596924E0,-1.120483398E0
5.145715804E0,-8.140258789E-1,-9.811431885E0,-1.168365479E0
5.150690169E0,-7.709350586E-1,-9.787490845E0,-1.197097778E0
5.155695052E0,-7.326202393E-1,-9.768341064E0,-1.201889038E0
5.160669417E0,-6.703796387E-1,-9.758773804E0,-1.268920898E0
5.165643782E0,-6.081237793E-1,-9.758773804E0,-1.288085938E0
5.170618147E0,-5.937652588E-1,-9.758773804E0,-1.292861938E0
5.175592513E0,-5.458831787E-1,-9.739608765E0,-1.316818237E0
5.180597396E0,-5.746154785E-1,-9.753982544E0,-1.316818237E0
5.185571761E0,-5.841827393E-1,-9.730041504E0,-1.321594238E0
5.190546126E0,-5.889739990E-1,-9.682159424E0,-1.307235718E0
5.195520491E0,-6.272735596E-1,-9.639053345E0,-1.283294678E0
5.200525374E0,-6.751708984E-1,-9.605545044E0,-1.249771118E0
5.205499739E0,-7.230529785E-1,-9.552871704E0,-1.268920898E0
5.210474105E0,-7.374114990E-1,-9.524139404E0,-1.302444458E0
5.215448470E0,-7.805023193E-1,-9.504974365E0,-1.359909058E0
5.220422835E0,-8.475494385E-1,-9.519348145E0,-1.383850098E0
5.225427718E0,-8.762817383E-1,-9.524139404E0,-1.407791138E0
5.230402083E0,-9.385223389E-1,-9.581588745E0,-1.417373657E0
5.235376448E0,-9.433135986E-1,-9.648635864E0,-1.417373657E0
5.240350813E0,-9.241638184E-1,-9.701309204E0,-1.402999878E0
5.245355696E0,-9.050140381E-1,-9.758773804E0,-1.402999878E0
5.250330062E0,-8.666992188E-1,-9.821014404E0,-1.393432617E0
5.255304427E0,-8.140258789E-1,-9.854537964E0,-1.359909058E0
5.260278792E0,-7.517852783E-1,-9.859329224E0,-1.369476318E0
5.265253157E0,-6.799468994E-1,-9.830596924E0,-1.340759277E0
5.270258040E0,-6.272735596E-1,-9.787490845E0,-1.278503418E0
5.275232405E0,-6.272735596E-1,-9.763549805E0,-1.278503418E0
5.280206771E0,-6.177062988E-1,-9.715667725E0,-1.288085938E0
5.285181136E0,-6.033325195E-1,-9.653427124E0,-1.331176758E0
5.290186019E0,-6.081237793E-1,-9.595962524E0,-1.369476318E0
5.295160384E0,-6.272735596E-1,-9.552871704E0,-1.417373657E0
5.300134749E0,-6.416473389E-1,-9.514556885E0,-1.436523438E0
5.305109114E0,-6.799468994E-1,-9.481033325E0,-1.455673218E0
5.310083480E0,-7.134704590E-1,-9.471466064E0,-1.479614258E0
5.315088362E0,-7.517852783E-1,-9.437942505E0,-1.522705078E0
5.320062728E0,-7.852935791E-1,-9.461883545E0,-1.541870117E0
5.325037093E0,-7.948760986E-1,-9.476257324E0,-1.556228638E0
5.330011458E0,-7.996673584E-1,-9.471466064E0,-1.594543457E0
5.335016341E0,-8.236083984E-1,-9.490615845E0,-1.556228638E0
5.339990706E0,-8.379669189E-1,-9.528930664E0,-1.561019897E0
5.344965071E0,-8.666992188E-1,-9.572021484E0,-1.580169678E0
5.349939437E0,-8.666992188E-1,-9.624694824E0,-1.551437378E0
5.354944319E0,-9.002227783E-1,-9.706100464E0,-1.546661377E0
5.359918685E0,-8.954315186E-1,-9.773132324E0,-1.513137817E0
5.364893050E0,-8.858489990E-1,-9.811431885E0,-1.493988037E0
5.369867415E0,-8.714904785E-1,-9.816223145E0,-1.470046997E0
5.374841780E0,-8.666992188E-1,-9.811431885E0,-1.446090698E0
5.379846663E0,-8.714904785E-1,-9.787490845E0,-1.422149658E0
5.384821028E0,-8.427581787E-1,-9.753982544E0,-1.388641357E0
5.389795394E0,-8.140258789E-1,-9.706100464E0,-1.364700317E0
5.394769759E0,-7.996673584E-1,-9.682159424E0,-1.374267578E0
5.399774642E0,-8.283996582E-1,-9.653427124E0,-1.412582397E0
5.404749007E0,-8.666992188E-1,-9.624694824E0,-1.465255737E0
5.409723372E0,-8.762817383E-1,-9.595962524E0,-1.565811157E0
5.414697737E0,-9.002227783E-1,-9.552871704E0,-1.637634277E0
5.419672103E0,-9.624633789E-1,-9.552871704E0,-1.661575317E0
5.424676985E0,-9.816284180E-1,-9.509765625E0,-1.704666138E0
5.429651351E0,-9.959869385E-1,-9.485824585E0,-1.685516357E0
5.434625716E0,-9.624633789E-1,-9.461883545E0,-1.656784058E0
5.439600081E0,-9.816284180E-1,-9.466674805E0,-1.594543457E0
5.444604964E0,-9.528961182E-1,-9.490615845E0,-1.541870117E0
5.449579329E0,-9.050140381E-1,-9.519348145E0,-1.498764038E0
5.454553694E0,-8.475494385E-1,-9.552871704E0,-1.455673218E0
5.459528060E0,-8.283996582E-1,-9.600753784E0,-1.398208618E0
5.464502425E0,-8.283996582E-1,-9.619903564E0,-1.364700317E0
5.469507308E0,-8.092346191E-1,-9.653427124E0,-1.340759277E0
5.474481673E0,-8.188171387E-1,-9.672576904E0,-1.312026978E0
5.479456038E0,-7.900848389E-1,-9.706100464E0,-1.288085938E0
5.484430403E0,-7.805023193E-1,-9.715667725E0,-1.273712158E0
5.489435286E0,-7.422027588E-1,-9.715667725E0,-1.278503418E0
5.494409651E0,-7.374114990E-1,-9.706100464E0,-1.335968018E0
5.499384017E0,-7.038879395E-1,-9.682159424E0,-1.398208618E0
5.504358382E0,-6.655883789E-1,-9.658203125E0,-1.422149658E0
5.509332747E0,-6.320648193E-1,-9.658203125E0,-1.470046997E0
5.514337630E0,-5.937652588E-1,-9.672576904E0,-1.484405518E0
5.519311995E0,-5.650329590E-1,-9.672576904E0,-1.493988037E0
5.524286360E0,-5.602416992E-1,-9.682159424E0,-1.489196777E0
5.529260726E0,-5.506591797E-1,-9.677368164E0,-1.503555298E0
5.534265608E0,-5.506591797E-1,-9.653427124E0,-1.503555298E0
5.539239974E0,-5.554504395E-1,-9.634262085E0,-1.474822998E0
5.544214339E0,-5.650329590E-1,-9.629486084E0,-1.455673218E0
5.549188704E0,-5.602416992E-1,-9.615112305E0,-1.455673218E0
5.554163069E0,-5.746154785E-1,-9.595962524E0,-1.455673218E0
5.559167952E0,-6.129150391E-1,-9.581588745E0,-1.446090698E0
5.564142317E0,-6.607971191E-1,-9.576812744E0,-1.455673218E0
5.569116683E0,-7.182617188E-1,-9.548080444E0,-1.489196777E0
5.574091048E0,-7.757263184E-1,-9.543289185E0,-1.517929077E0
5.579095931E0,-8.283996582E-1,-9.538497925E0,-1.541870117E0
5.584070296E0,-8.571166992E-1,-9.533706665E0,-1.493988037E0
5.589044661E0,-8.762817383E-1,-9.581588745E0,-1.493988037E0
5.594019026E0,-8.858489990E-1,-9.653427124E0,-1.503555298E0
5.599023909E0,-8.475494385E-1,-9.720458984E0,-1.479614258E0
5.603998274E0,-8.140258789E-1,-9.792282104E0,-1.484405518E0
5.608972640E0,-7.517852783E-1,-9.830596924E0,-1.493988037E0
5.613947005E0,-7.038879395E-1,-9.835388184E0,-1.498764038E0
5.618921370E0,-6.512298584E-1,-9.782714844E0,-1.546661377E0
5.623926253E0,-6.464385986E-1,-9.720458984E0,-1.570602417E0
5.628900618E0,-6.607971191E-1,-9.634262085E0,-1.589752197E0
5.633874983E0,-6.943206787E-1,-9.581588745E0,-1.584960938E0
5.638849349E0,-7.661437988E-1,-9.543289185E0,-1.628051758E0
5.643854231E0,-8.331756592E-1,-9.509765625E0,-1.656784058E0
5.648828597E0,-9.145812988E-1,-9.519348145E0,-1.690307617E0
5.653802962E0,-9.720458984E-1,-9.538497925E0,-1.685516357E0
5.658777327E0,-9.864044189E-1,-9.572021484E0,-1.742980957E0
5.663751692E0,-9.864044189E-1,-9.624694824E0,-1.771713257E0
5.668756575E0,-9.481048584E-1,-9.658203125E0,-1.781280518E0
5.673730940E0,-9.097900391E-1,-9.667785645E0,-1.781280518E0
5.678705306E0,-8.906402588E-1,-9.662994385E0,-1.800445557E0
5.683679671E0,-8.762817383E-1,-9.667785645E0,-1.843536377E0
5.688684554E0,-8.906402588E-1,-9.658203125E0,-1.857894897E0
5.693658919E0,-9.289550781E-1,-9.662994385E0,-1.896209717E0
5.698633284E0,-9.289550781E-1,-9.653427124E0,-1.905792236E0
5.703607649E0,-9.289550781E-1,-9.658203125E0,-1.910568237E0
5.708582015E0,-8.906402588E-1,-9.653427124E0,-1.896209717E0
5.713586897E0,-8.666992188E-1,-9.648635864E0,-1.867477417E0
5.718561263E0,-8.427581787E-1,-9.658203125E0,-1.833953857E0
5.723535628E0,-8.188171387E-1,-9.667785645E0,-1.795654297E0
5.728509993E0,-8.236083984E-1,-9.658203125E0,-1.781280518E0
5.733514876E0,-8.523406982E-1,-9.643844604E0,-1.771713257E0
5.738489241E0,-8.906402588E-1,-9.619903564E0,-1.790863037E0
5.743463606E0,-9.002227783E-1,-9.600753784E0,-1.829162598E0
5.748437972E0,-9.289550781E-1,-9.595962524E0,-1.872268677E0
5.753412337E0,-9.576873779E-1,-9.581588745E0,-1.896209717E0
5.758417220E0,-9.720458984E-1,-9.567230225E0,-1.920150757E0
5.763391585E0,-9.816284180E-1,-9.533706665E0,-1.905792236E0
5.768365950E0,-9.672546387E-1,-9.509765625E0,-1.905792236E0
5.773340315E0,-9.672546387E-1,-9.504974365E0,-1.944091797E0
5.778345198E0,-9.959869385E-1,-9.504974365E0,-1.968032837E0
5.783319563E0,-1.024719238E0,-9.528930664E0,-1.991973877E0
5.788293929E0,-1.077392578E0,-9.538497925E0,-2.020706177E0
5.793268294E0,-1.139633179E0,-9.528930664E0,-2.001556396E0
5.798242659E0,-1.197097778E0,-9.519348145E0,-1.977615356E0
5.803247542E0,-1.244979858E0,-9.509765625E0,-1.963241577E0
5.808221907E0,-1.273712158E0,-9.519348145E0,-1.939300537E0
5.813196272E0,-1.288085938E0,-9.509765625E0,-1.939300537E0
5.818170638E0,-1.331176758E0,-9.509765625E0,-1.934509277E0
5.823175521E0,-1.350326538E0,-9.538497925E0,-1.920150757E0
5.828149886E0,-1.374267578E0,-9.562438965E0,-1.901000977E0
5.833124251E0,-1.379058838E0,-9.591171265E0,-1.881835938E0
5.838098616E0,-1.383850098E0,-9.595962524E0,-1.886627197E0
5.843072981E0,-1.321594238E0,-9.576812744E0,-1.838745117E0
5.848077864E0,-1.221038818E0,-9.581588745E0,-1.853118896E0
5.853052230E0,-1.235412598E0,-9.567230225E0,-1.838745117E0
5.858026595E0,-1.154006958E0,-9.562438965E0,-1.810012817E0
5.863000960E0,-1.110916138E0,-9.533706665E0,-1.814804077E0
5.868005843E0,-1.082183838E0,-9.528930664E0,-1.805221558E0
5.872980208E0,-1.048660278E0,-9.509765625E0,-1.762130737E0
5.877954573E0,-1.000778198E0,-9.490615845E0,-1.790863037E0
5.882928938E0,-9.768371582E-1,-9.476257324E0,-1.810012817E0
5.887933821E0,-9.720458984E-1,-9.481033325E0,-1.805221558E0
5.892908187E0,-9.624633789E-1,-9.466674805E0,-1.810012817E0
5.897882552E0,-9.720458984E-1,-9.442733765E0,-1.776504517E0
5.902856917E0,-1.024719238E0,-9.437942505E0,-1.766921997E0
5.907831282E0,-1.067810059E0,-9.457092285E0,-1.747772217E0
5.912836165E0,-1.110916138E0,-9.481033325E0,-1.714248657E0
5.917810530E0,-1.134857178E0,-9.500198364E0,-1.651992798E0
5.922784896E0,-1.125274658E0,-9.538497925E0,-1.628051758E0
5.927759261E0,-1.115692139E0,-9.586380005E0,-1.599319458E0
5.932764144E0,-1.077392578E0,-9.672576904E0,-1.537078857E0
5.937738509E0,-1.039077759E0,-9.749191284E0,-1.474822998E0
5.942712874E0,-1.019927979E0,-9.821014404E0,-1.431732178E0
5.947687239E0,-9.911956787E-1,-9.897628784E0,-1.369476318E0
5.952661605E0,-9.193725586E-1,-1.001733398E1,-1.331176758E0
5.957666487E0,-8.427581787E-1,-1.007000732E1,-1.211471558E0
5.962640853E0,-7.852935791E-1,-1.003170776E1,-1.134857178E0
5.967615218E0,-7.374114990E-1,-9.983825684E0,-1.120483398E0
5.972589583E0,-6.991119385E-1,-9.926361084E0,-1.101333618E0
5.977594466E0,-5.937652588E-1,-9.859329224E0,-1.154006958E0
5.982568831E0,-5.123596191E-1,-9.777923584E0,-1.206680298E0
5.987543196E0,-5.075683594E-1,-9.686935425E0,-1.288085938E0
5.992517562E0,-6.272735596E-1,-9.634262085E0,-1.369476318E0
5.997491927E0,-7.517852783E-1,-9.485824585E0,-1.297653198E0
6.002496810E0,-8.571166992E-1,-9.385269165E0,-1.125274658E0
6.007471175E0,-8.571166992E-1,-9.552871704E0,-1.082183838E0
6.012445540E0,-4.980010986E-1,-9.912002563E0,-1.173156738E0
6.017419905E0,-6.512298584E-1,-9.959884644E0,-1.340759277E0
6.022424788E0,-1.115692139E0,-9.892837524E0,-1.546661377E0
6.027399153E0,-2.121261597E0,-9.610321045E0,-1.800445557E0
6.032373519E0,-2.317581177E0,-9.390060425E0,-1.881835938E0
6.037347884E0,-2.054229736E0,-9.447525024E0,-1.838745117E0
6.042322249E0,-1.944091797E0,-9.557647705E0,-1.752548218E0
6.047327132E0,-1.843536377E0,-9.615112305E0,-1.527496338E0
6.052301497E0,-1.790863037E0,-9.624694824E0,-1.273712158E0
6.057275862E0,-1.714248657E0,-9.615112305E0,-1.134857178E0
6.062250228E0,-1.417373657E0,-9.634262085E0,-1.206680298E0
6.067255110E0,-1.067810059E0,-9.677368164E0,-1.493988037E0
6.072229476E0,-7.996673584E-1,-9.691726685E0,-1.867477417E0
6.077203841E0,-5.985565186E-1,-9.667785645E0,-2.193084717E0
6.082178206E0,-5.363006592E-1,-9.653427124E0,-2.422927856E0
6.087152571E0,-5.602416992E-1,-9.658203125E0,-2.533065796E0
6.092157454E0,-6.560058594E-1,-9.686935425E0,-2.604888916E0
6.097131819E0,-7.709350586E-1,-9.662994385E0,-2.628829956E0
6.102106185E0,-8.523406982E-1,-9.624694824E0,-2.604888916E0
6.107080550E0,-9.002227783E-1,-9.610321045E0,-2.489974976E0
6.112085433E0,-9.193725586E-1,-9.600753784E0,-2.288864136E0
6.117059798E0,-9.002227783E-1,-9.548080444E0,-2.030288696E0
6.122034163E0,-8.427581787E-1,-9.504974365E0,-1.757339478E0
6.127008528E0,-7.469940186E-1,-9.457092285E0,-1.479614258E0
6.132013411E0,-6.464385986E-1,-9.437942505E0,-1.273712158E0
6.136987776E0,-5.410919189E-1,-9.452316284E0,-1.139633179E0
6.141962142E0,-4.501037598E-1,-9.485824585E0,-1.125274658E0
6.146936507E0,-3.734893799E-1,-9.500198364E0,-1.244979858E0
6.151910872E0,-3.160400391E-1,-9.548080444E0,-1.374267578E0
6.156915755E0,-2.681579590E-1,-9.615112305E0,-1.474822998E0
6.161890120E0,-2.154846191E-1,-9.715667725E0,-1.570602417E0
6.166864485E0,-2.585754395E-1,-9.806655884E0,-1.575378418E0
6.171838851E0,-3.399810791E-1,-9.854537964E0,-1.546661377E0
6.176843733E0,-4.501037598E-1,-9.854537964E0,-1.479614258E0
6.181818099E0,-5.937652588E-1,-9.806655884E0,-1.431732178E0
6.186792464E0,-7.757263184E-1,-9.730041504E0,-1.422149658E0
6.191766829E0,-9.576873779E-1,-9.624694824E0,-1.412582397E0
6.196741194E0,-1.106124878E0,-9.538497925E0,-1.450881958E0
6.201746077E0,-1.187530518E0,-9.452316284E0,-1.541870117E0
6.206720442E0,-1.292861938E0,-9.394851685E0,-1.671157837E0
6.211694808E0,-1.350326538E0,-9.351745605E0,-1.800445557E0
6.216669173E0,-1.393432617E0,-9.366119385E0,-1.881835938E0
6.221674056E0,-1.422149658E0,-9.390060425E0,-1.929733276E0
6.226648421E0,-1.402999878E0,-9.442733765E0,-1.924942017E0
6.231622786E0,-1.316818237E0,-9.500198364E0,-1.929733276E0
6.236597151E0,-1.192306519E0,-9.595962524E0,-1.915359497E0
6.241571517E0,-1.058242798E0,-9.682159424E0,-1.953674316E0
6.246576399E0,-9.241638184E-1,-9.758773804E0,-1.948883057E0
6.251550765E0,-8.188171387E-1,-9.787490845E0,-1.948883057E0
6.256525130E0,-7.805023193E-1,-9.758773804E0,-1.968032837E0
6.261499495E0,-7.757263184E-1,-9.686935425E0,-1.867477417E0
6.266504378E0,-7.709350586E-1,-9.591171265E0,-1.795654297E0
6.271478743E0,-8.523406982E-1,-9.514556885E0,-1.704666138E0
6.276453108E0,-8.858489990E-1,-9.423583984E0,-1.666366577E0
6.281427474E0,-9.193725586E-1,-9.366119385E0,-1.613693237E0
6.286401839E0,-9.433135986E-1,-9.346969604E0,-1.565811157E0
6.291406722E0,-9.528961182E-1,-9.323028564E0,-1.513137817E0
6.296381087E0,-9.720458984E-1,-9.327804565E0,-1.470046997E0
6.301355452E0,-9.385223389E-1,-9.327804565E0,-1.474822998E0
6.306329817E0,-8.906402588E-1,-9.342178345E0,-1.493988037E0
6.311334700E0,-8.236083984E-1,-9.404418945E0,-1.522705078E0
6.316309065E0,-7.517852783E-1,-9.461883545E0,-1.532287598E0
6.321283431E0,-6.799468994E-1,-9.528930664E0,-1.532287598E0
6.326257796E0,-6.177062988E-1,-9.572021484E0,-1.527496338E0
6.331232161E0,-5.841827393E-1,-9.643844604E0,-1.508346558E0
6.336237044E0,-5.698242188E-1,-9.744400024E0,-1.508346558E0
6.341211409E0,-5.171508789E-1,-9.816223145E0,-1.484405518E0
6.346185774E0,-5.458831787E-1,-9.849746704E0,-1.436523438E0
6.351160140E0,-5.458831787E-1,-9.825805664E0,-1.417373657E0
6.356165022E0,-5.841827393E-1,-9.777923584E0,-1.398208618E0
6.361139388E0,-6.368560791E-1,-9.782714844E0,-1.379058838E0
6.366113753E0,-6.464385986E-1,-9.797073364E0,-1.388641357E0
6.371088118E0,-6.464385986E-1,-9.777923584E0,-1.417373657E0
6.376093001E0,-6.512298584E-1,-9.768341064E0,-1.446090698E0
6.381067366E0,-6.847381592E-1,-9.782714844E0,-1.441314697E0
6.386041731E0,-6.895294189E-1,-9.782714844E0,-1.426940918E0
6.391016097E0,-6.655883789E-1,-9.763549805E0,-1.393432617E0
6.395990462E0,-7.182617188E-1,-9.758773804E0,-1.388641357E0
6.400995345E0,-7.469940186E-1,-9.758773804E0,-1.321594238E0
6.405969710E0,-7.709350586E-1,-9.725250244E0,-1.268920898E0
6.410944075E0,-8.331756592E-1,-9.720458984E0,-1.211471558E0
6.415918440E0,-8.427581787E-1,-9.710876465E0,-1.168365479E0
6.420923323E0,-8.619079590E-1,-9.701309204E0,-1.158798218E0
6.425897688E0,-8.427581787E-1,-9.706100464E0,-1.168365479E0
6.430872054E0,-8.762817383E-1,-9.710876465E0,-1.197097778E0
6.435846419E0,-8.954315186E-1,-9.720458984E0,-1.211471558E0
6.440820784E0,-8.954315186E-1,-9.734817505E0,-1.230621338E0
6.445825667E0,-8.714904785E-1,-9.749191284E0,-1.278503418E0
6.450800032E0,-8.140258789E-1,-9.753982544E0,-1.292861938E0
6.455774397E0,-7.948760986E-1,-9.758773804E0,-1.316818237E0
6.460748763E0,-7.757263184E-1,-9.720458984E0,-1.297653198E0
6.465753646E0,-7.996673584E-1,-9.720458984E0,-1.307235718E0
6.470728011E0,-8.188171387E-1,-9.710876465E0,-1.302444458E0
6.475702376E0,-8.571166992E-1,-9.725250244E0,-1.297653198E0
6.480676741E0,-8.666992188E-1,-9.734817505E0,-1.312026978E0
6.485651106E0,-8.666992188E-1,-9.744400024E0,-1.355117798E0
6.490655989E0,-8.858489990E-1,-9.725250244E0,-1.379058838E0
6.495630355E0,-9.145812988E-1,-9.710876465E0,-1.364700317E0
6.500604720E0,-9.337310791E-1,-9.667785645E0,-1.393432617E0
6.505579085E0,-9.193725586E-1,-9.619903564E0,-1.417373657E0
6.510583968E0,-8.954315186E-1,-9.552871704E0,-1.465255737E0
6.515558333E0,-8.714904785E-1,-9.524139404E0,-1.537078857E0
6.520532698E0,-8.427581787E-1,-9.514556885E0,-1.551437378E0
6.525507063E0,-8.331756592E-1,-9.485824585E0,-1.551437378E0
6.530481429E0,-8.523406982E-1,-9.471466064E0,-1.522705078E0
6.535486312E0,-8.571166992E-1,-9.452316284E0,-1.460464478E0
6.540460677E0,-8.906402588E-1,-9.457092285E0,-1.446090698E0
6.545435042E0,-9.433135986E-1,-9.485824585E0,-1.436523438E0
6.550409407E0,-9.720458984E-1,-9.528930664E0,-1.407791138E0
6.555414290E0,-1.024719238E0,-9.576812744E0,-1.407791138E0
6.560388655E0,-1.077392578E0,-9.610321045E0,-1.412582397E0
6.565363021E0,-1.110916138E0,-9.629486084E0,-1.398208618E0
6.570337386E0,-1.154006958E0,-9.643844604E0,-1.383850098E0
6.575311751E0,-1.177947998E0,-9.643844604E0,-1.340759277E0
6.580316634E0,-1.182739258E0,-9.662994385E0,-1.321594238E0
6.585290999E0,-1.158798218E0,-9.677368164E0,-1.297653198E0
6.590265364E0,-1.115692139E0,-9.667785645E0,-1.273712158E0
6.595239730E0,-1.101333618E0,-9.639053345E0,-1.278503418E0
6.600244612E0,-1.115692139E0,-9.605545044E0,-1.278503418E0
6.605218978E0,-1.115692139E0,-9.576812744E0,-1.264144897E0
6.610193343E0,-1.115692139E0,-9.557647705E0,-1.240203857E0
6.615167708E0,-1.101333618E0,-9.562438965E0,-1.221038818E0
6.620142073E0,-1.106124878E0,-9.572021484E0,-1.197097778E0
6.625146956E0,-1.096542358E0,-9.581588745E0,-1.182739258E0
6.630121321E0,-1.077392578E0,-9.572021484E0,-1.182739258E0
6.635095687E0,-1.101333618E0,-9.576812744E0,-1.187530518E0
6.640070052E0,-1.130065918E0,-9.610321045E0,-1.192306519E0
6.645074935E0,-1.154006958E0,-9.624694824E0,-1.182739258E0
6.650049300E0,-1.173156738E0,-9.619903564E0,-1.163589478E0
6.655023665E0,-1.197097778E0,-9.624694824E0,-1.154006958E0
6.660028548E0,-1.216247559E0,-9.648635864E0,-1.149215698E0
6.665002913E0,-1.240203857E0,-9.658203125E0,-1.149215698E0
6.669977278E0,-1.254562378E0,-9.662994385E0,-1.134857178E0
6.674951644E0,-1.259353638E0,-9.662994385E0,-1.139633179E0
6.679926009E0,-1.254562378E0,-9.677368164E0,-1.163589478E0
6.684930892E0,-1.244979858E0,-9.696517944E0,-1.177947998E0
6.689905257E0,-1.244979858E0,-9.734817505E0,-1.206680298E0
6.694879622E0,-1.254562378E0,-9.758773804E0,-1.221038818E0
6.699853987E0,-1.273712158E0,-9.777923584E0,-1.264144897E0
6.704828353E0,-1.288085938E0,-9.792282104E0,-1.321594238E0
6.709833235E0,-1.302444458E0,-9.797073364E0,-1.331176758E0
6.714807601E0,-1.307235718E0,-9.787490845E0,-1.374267578E0
6.719781966E0,-1.335968018E0,-9.768341064E0,-1.398208618E0
6.724756331E0,-1.350326538E0,-9.725250244E0,-1.388641357E0
6.729730696E0,-1.335968018E0,-9.696517944E0,-1.441314697E0
6.734735579E0,-1.321594238E0,-9.653427124E0,-1.446090698E0
6.739709944E0,-1.302444458E0,-9.605545044E0,-1.446090698E0
6.744684310E0,-1.312026978E0,-9.581588745E0,-1.465255737E0
6.749658675E0,-1.307235718E0,-9.581588745E0,-1.470046997E0
6.754663558E0,-1.302444458E0,-9.576812744E0,-1.455673218E0
6.759637923E0,-1.316818237E0,-9.581588745E0,-1.465255737E0
6.764612288E0,-1.335968018E0,-9.600753784E0,-1.450881958E0
6.769586653E0,-1.359909058E0,-9.605545044E0,-1.465255737E0
6.774561019E0,-1.379058838E0,-9.615112305E0,-1.470046997E0
6.779565901E0,-1.388641357E0,-9.619903564E0,-1.493988037E0
6.784540267E0,-1.422149658E0,-9.619903564E0,-1.517929077E0
6.789514632E0,-1.426940918E0,-9.615112305E0,-1.546661377E0
6.794488997E0,-1.446090698E0,-9.610321045E0,-1.551437378E0
6.799493880E0,-1.455673218E0,-9.581588745E0,-1.575378418E0
6.804468245E0,-1.450881958E0,-9.562438965E0,-1.594543457E0
6.809442610E0,-1.450881958E0,-9.548080444E0,-1.594543457E0
6.814416976E0,-1.441314697E0,-9.519348145E0,-1.613693237E0
6.819391341E0,-1.426940918E0,-9.490615845E0,-1.623275757E0
6.824396224E0,-1.398208618E0,-9.457092285E0,-1.637634277E0
6.829370589E0,-1.402999878E0,-9.442733765E0,-1.680725098E0
6.834344954E0,-1.383850098E0,-9.457092285E0,-1.690307617E0
6.839319319E0,-1.359909058E0,-9.461883545E0,-1.733398438E0
6.844324202E0,-1.326385498E0,-9.500198364E0,-1.757339478E0
6.849298567E0,-1.302444458E0,-9.548080444E0,-1.728607178E0
6.854272933E0,-1.264144897E0,-9.605545044E0,-1.728607178E0
6.859247298E0,-1.249771118E0,-9.639053345E0,-1.695098877E0
6.864252181E0,-1.259353638E0,-9.653427124E0,-1.680725098E0
6.869226546E0,-1.283294678E0,-9.624694824E0,-1.632843018E0
6.874200911E0,-1.292861938E0,-9.572021484E0,-1.608901978E0
6.879175276E0,-1.278503418E0,-9.509765625E0,-1.599319458E0
6.884149642E0,-1.278503418E0,-9.452316284E0,-1.618484497E0
6.889154524E0,-1.292861938E0,-9.428359985E0,-1.642425537E0
6.894128890E0,-1.312026978E0,-9.437942505E0,-1.661575317E0
6.899103255E0,-1.312026978E0,-9.452316284E0,-1.680725098E0
6.904077620E0,-1.302444458E0,-9.437942505E0,-1.671157837E0
6.909082503E0,-1.307235718E0,-9.442733765E0,-1.690307617E0
6.914056868E0,-1.307235718E0,-9.466674805E0,-1.685516357E0
6.919031233E0,-1.316818237E0,-9.509765625E0,-1.666366577E0
6.924005599E0,-1.316818237E0,-9.572021484E0,-1.618484497E0
6.928979964E0,-1.316818237E0,-9.605545044E0,-1.556228638E0
6.933984847E0,-1.340759277E0,-9.682159424E0,-1.465255737E0
6.938959212E0,-1.307235718E0,-9.653427124E0,-1.388641357E0
6.943933577E0,-1.316818237E0,-9.648635864E0,-1.350326538E0
6.948907942E0,-1.292861938E0,-9.600753784E0,-1.288085938E0
6.953912825E0,-1.249771118E0,-9.562438965E0,-1.273712158E0
6.958887190E0,-1.211471558E0,-9.528930664E0,-1.302444458E0
6.963861556E0,-1.173156738E0,-9.514556885E0,-1.359909058E0
6.968835921E0,-1.149215698E0,-9.524139404E0,-1.446090698E0
6.973810286E0,-1.149215698E0,-9.581588745E0,-1.556228638E0
6.978815169E0,-1.182739258E0,-9.634262085E0,-1.642425537E0
6.983789534E0,-1.201889038E0,-9.677368164E0,-1.699890137E0
6.988763899E0,-1.225830078E0,-9.725250244E0,-1.690307617E0
6.993738265E0,-1.254562378E0,-9.758773804E0,-1.704666138E0
6.998743147E0,-1.244979858E0,-9.811431885E0,-1.656784058E0
7.003717513E0,-1.235412598E0,-9.864105225E0,-1.651992798E0
7.008691878E0,-1.182739258E0,-9.907211304E0,-1.594543457E0
7.013666243E0,-1.130065918E0,-9.883270264E0,-1.556228638E0
7.018640608E0,-1.096542358E0,-9.859329224E0,-1.517929077E0
7.023645491E0,-1.048660278E0,-9.792282104E0,-1.508346558E0
7.028619856E0,-1.005569458E0,-9.725250244E0,-1.503555298E0
7.033594222E0,-9.481048584E-1,-9.672576904E0,-1.498764038E0
7.038568587E0,-9.050140381E-1,-9.639053345E0,-1.532287598E0
7.043573470E0,-8.810729980E-1,-9.639053345E0,-1.575378418E0
7.048547835E0,-8.810729980E-1,-9.639053345E0,-1.589752197E0
7.053522200E0,-9.002227783E-1,-9.643844604E0,-1.613693237E0
7.058496565E0,-9.337310791E-1,-9.653427124E0,-1.675933838E0
7.063470931E0,-9.528961182E-1,-9.648635864E0,-1.728607178E0
7.068475813E0,-9.576873779E-1,-9.643844604E0,-1.757339478E0
7.073450179E0,-9.528961182E-1,-9.634262085E0,-1.833953857E0
7.078424544E0,-9.672546387E-1,-9.600753784E0,-1.886627197E0
7.083398909E0,-1.010360718E0,-9.557647705E0,-1.977615356E0
7.088403792E0,-1.063018799E0,-9.514556885E0,-2.035064697E0
7.093378157E0,-1.110916138E0,-9.481033325E0,-2.111679077E0
7.098352522E0,-1.144424438E0,-9.442733765E0,-2.173934937E0
7.103326888E0,-1.182739258E0,-9.437942505E0,-2.231399536E0
7.108301253E0,-1.201889038E0,-9.428359985E0,-2.293640137E0
7.113306136E0,-1.211471558E0,-9.423583984E0,-2.341522217E0
7.118280501E0,-1.221038818E0,-9.418792725E0,-2.375045776E0
7.123254866E0,-1.249771118E0,-9.409210205E0,-2.365478516E0
7.128229231E0,-1.273712158E0,-9.390060425E0,-2.360687256E0
7.133234114E0,-1.302444458E0,-9.375701904E0,-2.317581177E0
7.138208480E0,-1.326385498E0,-9.390060425E0,-2.308013916E0
7.143182845E0,-1.321594238E0,-9.404418945E0,-2.255340576E0
7.148157210E0,-1.302444458E0,-9.399642944E0,-2.217025757E0
7.153162093E0,-1.297653198E0,-9.399642944E0,-2.183517456E0
7.158136458E0,-1.283294678E0,-9.404418945E0,-2.149993896E0
7.163110823E0,-1.225830078E0,-9.452316284E0,-2.092529297E0
7.168085188E0,-1.149215698E0,-9.519348145E0,-2.068588257E0
7.173059554E0,-1.043869019E0,-9.615112305E0,-2.035064697E0
7.178064437E0,-9.672546387E-1,-9.720458984E0,-2.035064697E0
7.183038802E0,-8.810729980E-1,-9.816223145E0,-2.020706177E0
7.188013167E0,-7.565612793E-1,-9.854537964E0,-1.977615356E0
7.192987532E0,-6.272735596E-1,-9.849746704E0,-1.915359497E0
7.197992415E0,-5.267181396E-1,-9.797073364E0,-1.872268677E0
7.202966780E0,-5.889739990E-1,-9.806655884E0,-1.838745117E0
7.207941146E0,-6.224975586E-1,-9.787490845E0,-1.709457397E0
7.212915511E0,-6.033325195E-1,-9.624694824E0,-1.613693237E0
7.217889876E0,-6.416473389E-1,-9.447525024E0,-1.599319458E0
7.222894759E0,-6.368560791E-1,-9.303863525E0,-1.613693237E0
7.227869124E0,-6.512298584E-1,-9.265563965E0,-1.666366577E0
7.232843489E0,-7.326202393E-1,-9.346969604E0,-1.733398438E0
7.237817855E0,-8.523406982E-1,-9.504974365E0,-1.805221558E0
7.242822737E0,-8.379669189E-1,-9.552871704E0,-1.891418457E0
7.247797103E0,-8.858489990E-1,-9.591171265E0,-1.982406616E0
7.252771468E0,-9.097900391E-1,-9.619903564E0,-2.054229736E0
7.257745833E0,-8.331756592E-1,-9.605545044E0,-2.178726196E0
7.262720198E0,-8.140258789E-1,-9.595962524E0,-2.284072876E0
7.267725081E0,-7.374114990E-1,-9.538497925E0,-2.193084717E0
7.272699446E0,-5.985565186E-1,-9.471466064E0,-2.025497437E0
7.277673812E0,-6.799468994E-1,-9.452316284E0,-1.824386597E0
7.282648177E0,-7.757263184E-1,-9.428359985E0,-1.661575317E0
7.287653060E0,-8.762817383E-1,-9.433151245E0,-1.570602417E0
7.292627425E0,-9.672546387E-1,-9.461883545E0,-1.642425537E0
7.297601790E0,-1.072601318E0,-9.485824585E0,-1.728607178E0
7.302576155E0,-1.115692139E0,-9.481033325E0,-1.781280518E0
7.307550521E0,-1.173156738E0,-9.500198364E0,-1.929733276E0
7.312555403E0,-1.225830078E0,-9.528930664E0,-2.078170776E0
7.317529769E0,-1.278503418E0,-9.519348145E0,-2.106903076E0
7.322504134E0,-1.307235718E0,-9.442733765E0,-2.135635376E0
7.327478499E0,-1.278503418E0,-9.375701904E0,-2.111679077E0
7.332483382E0,-1.249771118E0,-9.342178345E0,-2.149993896E0
7.337457747E0,-1.197097778E0,-9.342178345E0,-2.231399536E0
7.342432112E0,-1.115692139E0,-9.356536865E0,-2.308013916E0
7.347406478E0,-1.048660278E0,-9.390060425E0,-2.365478516E0
7.352380843E0,-9.816284180E-1,-9.442733765E0,-2.418136597E0
7.357385726E0,-1.029510498E0,-9.524139404E0,-2.437301636E0
7.362360091E0,-1.019927979E0,-9.533706665E0,-2.370254517E0
7.367334456E0,-9.672546387E-1,-9.581588745E0,-2.312805176E0
7.372308821E0,-9.720458984E-1,-9.619903564E0,-2.293640137E0
7.377313704E0,-1.053451538E0,-9.662994385E0,-2.197875977E0
7.382288069E0,-1.015136719E0,-9.653427124E0,-2.078170776E0
7.387262435E0,-9.864044189E-1,-9.634262085E0,-1.987182617E0
7.392236800E0,-8.906402588E-1,-9.572021484E0,-1.939300537E0
7.397241683E0,-8.906402588E-1,-9.586380005E0,-1.872268677E0
7.402216048E0,-8.858489990E-1,-9.591171265E0,-1.853118896E0
7.407190413E0,-8.379669189E-1,-9.557647705E0,-1.795654297E0
7.412164778E0,-8.379669189E-1,-9.581588745E0,-1.723831177E0
7.417139144E0,-8.619079590E-1,-9.677368164E0,-1.733398438E0
7.422144026E0,-8.714904785E-1,-9.701309204E0,-1.704666138E0
7.427118392E0,-1.000778198E0,-9.677368164E0,-1.666366577E0
7.432092757E0,-1.024719238E0,-9.667785645E0,-1.709457397E0
7.437067122E0,-1.139633179E0,-9.730041504E0,-1.805221558E0
7.442072005E0,-1.221038818E0,-9.744400024E0,-1.790863037E0
7.447046370E0,-1.015136719E0,-9.653427124E0,-1.790863037E0
7.452020735E0,-8.283996582E-1,-9.605545044E0,-1.853118896E0
7.456995101E0,-7.757263184E-1,-9.686935425E0,-1.833953857E0
7.461969466E0,-7.757263184E-1,-9.639053345E0,-1.786071777E0
7.466974349E0,-6.943206787E-1,-9.648635864E0,-1.742980957E0
7.471948714E0,-6.655883789E-1,-9.672576904E0,-1.671157837E0
7.476923079E0,-6.895294189E-1,-9.658203125E0,-1.580169678E0
7.481897444E0,-7.326202393E-1,-9.653427124E0,-1.613693237E0
7.486902327E0,-8.188171387E-1,-9.648635864E0,-1.628051758E0
7.491876692E0,-8.810729980E-1,-9.600753784E0,-1.618484497E0
7.496851058E0,-8.140258789E-1,-9.543289185E0,-1.632843018E0
7.501825423E0,-8.666992188E-1,-9.557647705E0,-1.647216797E0
7.506799788E0,-9.050140381E-1,-9.572021484E0,-1.575378418E0
7.511804671E0,-9.097900391E-1,-9.591171265E0,-1.541870117E0
7.516779036E0,-9.433135986E-1,-9.581588745E0,-1.465255737E0
7.521753401E0,-9.720458984E-1,-9.562438965E0,-1.417373657E0
7.526727767E0,-9.193725586E-1,-9.538497925E0,-1.402999878E0
7.531732649E0,-9.097900391E-1,-9.538497925E0,-1.446090698E0
7.536707015E0,-8.954315186E-1,-9.543289185E0,-1.479614258E0
7.541681380E0,-9.481048584E-1,-9.572021484E0,-1.513137817E0
7.546655745E0,-1.019927979E0,-9.595962524E0,-1.575378418E0
7.551630110E0,-1.086975098E0,-9.624694824E0,-1.666366577E0
7.556634993E0,-1.144424438E0,-9.639053345E0,-1.752548218E0
7.561609358E0,-1.216247559E0,-9.658203125E0,-1.814804077E0
7.566583724E0,-1.278503418E0,-9.658203125E0,-1.848327637E0
7.571558089E0,-1.297653198E0,-9.619903564E0,-1.824386597E0
7.576562972E0,-1.292861938E0,-9.605545044E0,-1.771713257E0
7.581537337E0,-1.312026978E0,-9.600753784E0,-1.714248657E0
7.586511702E0,-1.326385498E0,-9.562438965E0,-1.661575317E0
7.591486067E0,-1.326385498E0,-9.552871704E0,-1.680725098E0
7.596490950E0,-1.321594238E0,-9.509765625E0,-1.647216797E0
7.601465315E0,-1.268920898E0,-9.452316284E0,-1.738189697E0
7.606439681E0,-1.197097778E0,-9.495407104E0,-1.709457397E0
7.611414046E0,-1.034301758E0,-9.466674805E0,-1.742980957E0
7.616388411E0,-9.002227783E-1,-9.447525024E0,-1.776504517E0
7.621393294E0,-8.523406982E-1,-9.418792725E0,-1.862686157E0
7.626367659E0,-8.044586182E-1,-9.399642944E0,-1.982406616E0
7.631342024E0,-8.092346191E-1,-9.528930664E0,-2.202667236E0
7.636316390E0,-7.805023193E-1,-9.658203125E0,-2.245758057E0
7.641321272E0,-8.571166992E-1,-9.581588745E0,-2.212249756E0
7.646295638E0,-1.048660278E0,-9.533706665E0,-2.288864136E0
7.651270003E0,-1.144424438E0,-9.495407104E0,-2.274490356E0
7.656244368E0,-1.015136719E0,-9.476257324E0,-2.260131836E0
7.661218733E0,-9.385223389E-1,-9.557647705E0,-2.288864136E0
7.666223616E0,-9.050140381E-1,-9.576812744E0,-2.193084717E0
7.671197981E0,-9.911956787E-1,-9.591171265E0,-2.126052856E0
7.676172347E0,-9.816284180E-1,-9.524139404E0,-2.020706177E0
7.681146712E0,-9.911956787E-1,-9.514556885E0,-2.049438477E0
7.686151595E0,-9.528961182E-1,-9.567230225E0,-1.982406616E0
7.691125960E0,-9.241638184E-1,-9.552871704E0,-1.843536377E0
7.696100325E0,-8.906402588E-1,-9.543289185E0,-1.747772217E0
7.701074690E0,-8.379669189E-1,-9.548080444E0,-1.647216797E0
7.706049056E0,-7.852935791E-1,-9.567230225E0,-1.498764038E0
7.711053938E0,-7.948760986E-1,-9.557647705E0,-1.493988037E0
7.716028304E0,-8.906402588E-1,-9.576812744E0,-1.517929077E0
7.721002669E0,-9.097900391E-1,-9.543289185E0,-1.546661377E0
7.725977034E0,-7.565612793E-1,-9.610321045E0,-1.685516357E0
7.730981917E0,-9.481048584E-1,-9.710876465E0,-1.690307617E0
7.735956282E0,-1.058242798E0,-9.600753784E0,-1.757339478E0
7.740930647E0,-1.005569458E0,-9.610321045E0,-1.881835938E0
7.745905013E0,-1.015136719E0,-9.619903564E0,-1.838745117E0
7.750879378E0,-1.010360718E0,-9.576812744E0,-1.685516357E0
7.755884261E0,-9.959869385E-1,-9.543289185E0,-1.532287598E0
7.760858626E0,-1.010360718E0,-9.509765625E0,-1.450881958E0
7.765832991E0,-9.528961182E-1,-9.548080444E0,-1.422149658E0
7.770807356E0,-9.193725586E-1,-9.572021484E0,-1.417373657E0
7.775812239E0,-9.720458984E-1,-9.514556885E0,-1.412582397E0
7.780786605E0,-1.029510498E0,-9.437942505E0,-1.422149658E0
7.785760970E0,-9.816284180E-1,-9.437942505E0,-1.436523438E0
7.790735335E0,-9.002227783E-1,-9.495407104E0,-1.398208618E0
7.795709700E0,-8.331756592E-1,-9.567230225E0,-1.345535278E0
7.800714583E0,-8.475494385E-1,-9.591171265E0,-1.335968018E0
7.805688948E0,-9.241638184E-1,-9.610321045E0,-1.359909058E0
7.810663313E0,-1.005569458E0,-9.648635864E0,-1.398208618E0
7.815637679E0,-1.134857178E0,-9.667785645E0,-1.417373657E0
7.820642562E0,-1.249771118E0,-9.643844604E0,-1.422149658E0
7.825616927E0,-1.240203857E0,-9.696517944E0,-1.426940918E0
7.830591292E0,-1.235412598E0,-9.777923584E0,-1.393432617E0
7.835565657E0,-1.273712158E0,-9.801864624E0,-1.388641357E0
7.840540022E0,-1.307235718E0,-9.830596924E0,-1.355117798E0
7.845544905E0,-1.393432617E0,-9.821014404E0,-1.321594238E0
7.850519271E0,-1.422149658E0,-9.825805664E0,-1.273712158E0
7.855493636E0,-1.431732178E0,-9.801864624E0,-1.244979858E0
7.860468001E0,-1.436523438E0,-9.806655884E0,-1.240203857E0
7.865472884E0,-1.431732178E0,-9.825805664E0,-1.230621338E0
7.870447249E0,-1.431732178E0,-9.844955444E0,-1.240203857E0
7.875421614E0,-1.446090698E0,-9.878479004E0,-1.249771118E0
7.880395980E0,-1.426940918E0,-9.878479004E0,-1.225830078E0
7.885400862E0,-1.383850098E0,-9.868896484E0,-1.182739258E0
7.890375228E0,-1.369476318E0,-9.883270264E0,-1.177947998E0
7.895349593E0,-1.350326538E0,-9.888046265E0,-1.154006958E0
7.900323958E0,-1.335968018E0,-9.883270264E0,-1.120483398E0
7.905298323E0,-1.312026978E0,-9.859329224E0,-1.134857178E0
7.910303206E0,-1.316818237E0,-9.844955444E0,-1.130065918E0
7.915277571E0,-1.316818237E0,-9.816223145E0,-1.163589478E0
7.920251937E0,-1.312026978E0,-9.801864624E0,-1.211471558E0
7.925226302E0,-1.321594238E0,-9.811431885E0,-1.221038818E0
7.930231185E0,-1.264144897E0,-9.816223145E0,-1.249771118E0
7.935205550E0,-1.163589478E0,-9.840164185E0,-1.254562378E0
7.940179915E0,-1.101333618E0,-9.840164185E0,-1.268920898E0
7.945154280E0,-1.086975098E0,-9.816223145E0,-1.292861938E0
7.950128646E0,-1.058242798E0,-9.782714844E0,-1.316818237E0
7.955133528E0,-1.048660278E0,-9.753982544E0,-1.388641357E0
7.960107894E0,-1.015136719E0,-9.753982544E0,-1.446090698E0
7.965082259E0,-9.768371582E-1,-9.792282104E0,-1.508346558E0
7.970056624E0,-9.337310791E-1,-9.792282104E0,-1.556228638E0
7.975061507E0,-8.954315186E-1,-9.777923584E0,-1.570602417E0
7.980035872E0,-8.714904785E-1,-9.734817505E0,-1.570602417E0
7.985010237E0,-8.762817383E-1,-9.672576904E0,-1.580169678E0
7.989984603E0,-8.954315186E-1,-9.581588745E0,-1.561019897E0
7.994958968E0,-9.481048584E-1,-9.500198364E0,-1.589752197E0
7.999963851E0,-1.000778198E0,-9.461883545E0,-1.623275757E0
8.004938216E0,-1.043869019E0,-9.442733765E0,-1.685516357E0
8.009912581E0,-1.039077759E0,-9.442733765E0,-1.742980957E0
8.014886946E0,-1.086975098E0,-9.466674805E0,-1.776504517E0
8.019891829E0,-1.077392578E0,-9.495407104E0,-1.810012817E0
8.024866194E0,-9.337310791E-1,-9.471466064E0,-1.795654297E0
8.029840560E0,-9.433135986E-1,-9.533706665E0,-1.843536377E0
8.034814925E0,-9.241638184E-1,-9.576812744E0,-1.915359497E0
8.039789290E0,-8.427581787E-1,-9.586380005E0,-1.915359497E0
8.044794173E0,-8.379669189E-1,-9.634262085E0,-1.886627197E0
8.049768538E0,-8.140258789E-1,-9.600753784E0,-1.862686157E0
8.054742903E0,-7.948760986E-1,-9.572021484E0,-1.814804077E0
8.059717269E0,-8.092346191E-1,-9.500198364E0,-1.781280518E0
8.064722151E0,-8.092346191E-1,-9.452316284E0,-1.747772217E0
8.069696517E0,-7.948760986E-1,-9.428359985E0,-1.757339478E0
8.074670882E0,-7.852935791E-1,-9.385269165E0,-1.742980957E0
8.079645247E0,-8.092346191E-1,-9.409210205E0,-1.762130737E0
8.084619612E0,-8.140258789E-1,-9.418792725E0,-1.786071777E0
8.089624495E0,-8.283996582E-1,-9.428359985E0,-1.781280518E0
8.094598860E0,-8.571166992E-1,-9.461883545E0,-1.805221558E0
8.099573226E0,-9.050140381E-1,-9.471466064E0,-1.829162598E0
8.104547591E0,-9.289550781E-1,-9.471466064E0,-1.829162598E0
8.109552474E0,-9.481048584E-1,-9.481033325E0,-1.862686157E0
8.114526839E0,-9.193725586E-1,-9.495407104E0,-1.867477417E0
8.119501204E0,-8.906402588E-1,-9.504974365E0,-1.891418457E0
8.124475569E0,-8.571166992E-1,-9.485824585E0,-1.920150757E0
8.129449935E0,-8.331756592E-1,-9.485824585E0,-1.939300537E0
8.134454817E0,-7.852935791E-1,-9.461883545E0,-1.968032837E0
8.139429183E0,-7.852935791E-1,-9.442733765E0,-2.001556396E0
8.144403548E0,-7.852935791E-1,-9.442733765E0,-2.025497437E0
8.149377913E0,-7.757263184E-1,-9.447525024E0,-2.044647217E0
8.154382796E0,-7.709350586E-1,-9.437942505E0,-2.015914917E0
8.159357161E0,-7.278442383E-1,-9.437942505E0,-2.006347656E0
8.164331526E0,-6.655883789E-1,-9.428359985E0,-1.977615356E0
8.169305892E0,-6.081237793E-1,-9.461883545E0,-1.929733276E0
8.174310774E0,-5.602416992E-1,-9.528930664E0,-1.881835938E0
8.179285140E0,-5.219421387E-1,-9.581588745E0,-1.848327637E0
8.184259505E0,-5.219421387E-1,-9.653427124E0,-1.757339478E0
8.189233870E0,-5.363006592E-1,-9.701309204E0,-1.699890137E0
8.194208235E0,-5.267181396E-1,-9.696517944E0,-1.671157837E0
8.199213118E0,-5.458831787E-1,-9.696517944E0,-1.661575317E0
8.204187483E0,-5.410919189E-1,-9.682159424E0,-1.642425537E0
8.209161849E0,-5.793914795E-1,-9.629486084E0,-1.623275757E0
8.214136214E0,-6.320648193E-1,-9.576812744E0,-1.599319458E0
8.219141097E0,-7.038879395E-1,-9.500198364E0,-1.589752197E0
8.224115462E0,-7.709350586E-1,-9.433151245E0,-1.589752197E0
8.229089827E0,-8.236083984E-1,-9.428359985E0,-1.575378418E0
8.234064192E0,-8.810729980E-1,-9.447525024E0,-1.589752197E0
8.239038558E0,-9.289550781E-1,-9.495407104E0,-1.613693237E0
8.244043440E0,-9.672546387E-1,-9.572021484E0,-1.656784058E0
8.249017806E0,-9.911956787E-1,-9.643844604E0,-1.747772217E0
8.253992171E0,-9.624633789E-1,-9.725250244E0,-1.824386597E0
8.258966536E0,-8.714904785E-1,-9.725250244E0,-1.872268677E0
8.263971419E0,-8.188171387E-1,-9.749191284E0,-1.872268677E0
8.268945784E0,-7.517852783E-1,-9.753982544E0,-1.800445557E0
8.273920149E0,-7.374114990E-1,-9.720458984E0,-1.742980957E0
8.278894515E0,-7.661437988E-1,-9.710876465E0,-1.661575317E0
8.283868880E0,-7.613525391E-1,-9.672576904E0,-1.561019897E0
8.288873763E0,-7.517852783E-1,-9.629486084E0,-1.431732178E0
8.293848128E0,-7.230529785E-1,-9.624694824E0,-1.345535278E0
8.298822493E0,-6.895294189E-1,-9.619903564E0,-1.283294678E0
8.303796858E0,-6.751708984E-1,-9.639053345E0,-1.292861938E0
8.308801741E0,-6.655883789E-1,-9.677368164E0,-1.340759277E0
8.313776106E0,-6.033325195E-1,-9.730041504E0,-1.441314697E0
8.318750472E0,-5.315093994E-1,-9.739608765E0,-1.551437378E0
8.323724837E0,-5.267181396E-1,-9.739608765E0,-1.661575317E0
8.328699202E0,-5.841827393E-1,-9.744400024E0,-1.723831177E0
8.333704085E0,-6.320648193E-1,-9.773132324E0,-1.819595337E0
8.338678450E0,-6.655883789E-1,-9.739608765E0,-1.833953857E0
8.343652815E0,-7.182617188E-1,-9.715667725E0,-1.810012817E0
8.348627181E0,-7.565612793E-1,-9.662994385E0,-1.838745117E0
8.353632063E0,-8.283996582E-1,-9.605545044E0,-1.857894897E0
8.358606429E0,-9.145812988E-1,-9.576812744E0,-1.881835938E0
8.363580794E0,-9.720458984E-1,-9.581588745E0,-1.867477417E0
8.368555159E0,-1.053451538E0,-9.591171265E0,-1.872268677E0
8.373529524E0,-1.101333618E0,-9.600753784E0,-1.833953857E0
8.378534407E0,-1.110916138E0,-9.643844604E0,-1.814804077E0
8.383508772E0,-1.063018799E0,-9.715667725E0,-1.800445557E0
8.388483138E0,-9.624633789E-1,-9.768341064E0,-1.766921997E0
8.393457503E0,-8.571166992E-1,-9.801864624E0,-1.757339478E0
8.398462386E0,-7.661437988E-1,-9.792282104E0,-1.752548218E0
8.403436751E0,-6.895294189E-1,-9.734817505E0,-1.762130737E0
8.408411116E0,-6.272735596E-1,-9.715667725E0,-1.752548218E0
8.413385481E0,-5.985565186E-1,-9.701309204E0,-1.790863037E0
8.418390364E0,-5.841827393E-1,-9.662994385E0,-1.786071777E0
8.423364730E0,-5.458831787E-1,-9.634262085E0,-1.781280518E0
8.428339095E0,-5.937652588E-1,-9.586380005E0,-1.786071777E0
8.433313460E0,-7.182617188E-1,-9.504974365E0,-1.805221558E0
8.438287825E0,-8.236083984E-1,-9.423583984E0,-1.877059937E0
8.443292708E0,-8.906402588E-1,-9.375701904E0,-1.886627197E0
8.448267073E0,-9.193725586E-1,-9.380477905E0,-1.891418457E0
8.453241438E0,-9.528961182E-1,-9.433151245E0,-1.872268677E0
8.458215804E0,-9.433135986E-1,-9.485824585E0,-1.843536377E0
8.463220687E0,-9.337310791E-1,-9.557647705E0,-1.776504517E0
8.468195052E0,-8.762817383E-1,-9.658203125E0,-1.699890137E0
8.473169417E0,-8.188171387E-1,-9.758773804E0,-1.628051758E0
8.478143782E0,-7.469940186E-1,-9.835388184E0,-1.589752197E0
8.483118147E0,-7.038879395E-1,-9.873687744E0,-1.527496338E0
8.488123030E0,-6.512298584E-1,-9.878479004E0,-1.508346558E0
8.493097396E0,-5.841827393E-1,-9.854537964E0,-1.493988037E0
8.498071761E0,-5.363006592E-1,-9.797073364E0,-1.537078857E0
8.503046126E0,-5.075683594E-1,-9.725250244E0,-1.618484497E0
8.508051009E0,-4.836273193E-1,-9.672576904E0,-1.632843018E0
8.513025374E0,-4.501037598E-1,-9.600753784E0,-1.666366577E0
8.517999739E0,-4.596862793E-1,-9.514556885E0,-1.709457397E0
8.522974105E0,-4.740447998E-1,-9.461883545E0,-1.752548218E0
8.527948470E0,-4.644775391E-1,-9.447525024E0,-1.786071777E0
8.532953353E0,-4.118041992E-1,-9.414001465E0,-1.747772217E0
8.537927718E0,-3.782806396E-1,-9.332595825E0,-1.738189697E0
8.542902083E0,-3.830718994E-1,-9.332595825E0,-1.771713257E0
8.547876448E0,-3.591308594E-1,-9.390060425E0,-1.790863037E0
8.552881331E0,-3.351898193E-1,-9.466674805E0,-1.757339478E0
8.557855696E0,-2.825164795E-1,-9.533706665E0,-1.695098877E0
8.562830062E0,-2.873077393E-1,-9.605545044E0,-1.642425537E0
8.567804427E0,-3.208160400E-1,-9.720458984E0,-1.561019897E0
8.572778792E0,-2.489929199E-1,-9.825805664E0,-1.436523438E0
8.577783675E0,-1.101379395E-1,-9.897628784E0,-1.254562378E0
8.582758040E0,4.791259766E-3,-9.878479004E0,-1.225830078E0
8.587732405E0,-9.097290039E-2,-9.859329224E0,-1.273712158E0
8.592706771E0,-1.436462402E-1,-9.830596924E0,-1.350326538E0
8.597711653E0,-1.628112793E-1,-9.787490845E0,-1.407791138E0
8.602686019E0,-1.005554199E-1,-9.715667725E0,-1.532287598E0
8.607660384E0,-2.729339600E-1,-9.730041504E0,-1.685516357E0
8.612634749E0,-3.926544189E-1,-9.648635864E0,-1.517929077E0
8.617609114E0,-3.543395996E-1,-9.404418945E0,-1.412582397E0
8.622613997E0,-3.830718994E-1,-9.308654785E0,-1.474822998E0
8.627588362E0,-3.112487793E-1,-9.409210205E0,-1.594543457E0
8.632562728E0,-2.873077393E-1,-9.548080444E0,-1.604110718E0
8.637537093E0,-2.154846191E-1,-9.567230225E0,-1.532287598E0
8.642541976E0,-2.011108398E-1,-9.538497925E0,-1.393432617E0
8.647516341E0,-1.580200195E-1,-9.562438965E0,-1.297653198E0
8.652490706E0,-8.619689941E-2,-9.634262085E0,-1.297653198E0
8.657465071E0,-1.149291992E-1,-9.739608765E0,-1.402999878E0
8.662439437E0,-3.160400391E-1,-9.821014404E0,-1.441314697E0
8.667444319E0,-5.698242188E-1,-9.864105225E0,-1.216247559E0
8.672418685E0,-6.607971191E-1,-9.615112305E0,-9.816284180E-1
8.677393050E0,-7.230529785E-1,-9.500198364E0,-8.571166992E-1
8.682367415E0,-6.991119385E-1,-9.524139404E0,-8.666992188E-1
8.687372298E0,-5.746154785E-1,-9.648635864E0,-9.816284180E-1
8.692346663E0,-4.932098389E-1,-9.730041504E0,-1.163589478E0
8.697321028E0,-4.261627197E-1,-9.706100464E0,-1.345535278E0
8.702295394E0,-4.118041992E-1,-9.624694824E0,-1.484405518E0
8.707300276E0,-4.261627197E-1,-9.552871704E0,-1.618484497E0
8.712274642E0,-4.692687988E-1,-9.500198364E0,-1.661575317E0
8.717249007E0,-4.644775391E-1,-9.442733765E0,-1.661575317E0
8.722223372E0,-5.363006592E-1,-9.447525024E0,-1.642425537E0
8.727197737E0,-5.985565186E-1,-9.428359985E0,-1.599319458E0
8.732202620E0,-5.650329590E-1,-9.457092285E0,-1.527496338E0
8.737176985E0,-5.219421387E-1,-9.519348145E0,-1.436523438E0
8.742151351E0,-4.740447998E-1,-9.605545044E0,-1.379058838E0
8.747125716E0,-4.357452393E-1,-9.710876465E0,-1.307235718E0
8.752130599E0,-4.165954590E-1,-9.739608765E0,-1.297653198E0
8.757104964E0,-3.782806396E-1,-9.710876465E0,-1.312026978E0
8.762079329E0,-3.399810791E-1,-9.686935425E0,-1.383850098E0
8.767053694E0,-3.112487793E-1,-9.662994385E0,-1.517929077E0
8.772028060E0,-3.064575195E-1,-9.639053345E0,-1.575378418E0
8.777032942E0,-3.687133789E-1,-9.643844604E0,-1.637634277E0
8.782007308E0,-4.692687988E-1,-9.682159424E0,-1.651992798E0
8.786981673E0,-5.793914795E-1,-9.739608765E0,-1.637634277E0
8.791956038E0,-7.374114990E-1,-9.821014404E0,-1.561019897E0
8.796960921E0,-8.427581787E-1,-9.916778564E0,-1.345535278E0
8.801935286E0,-8.523406982E-1,-9.950302124E0,-1.106124878E0
8.806909651E0,-7.565612793E-1,-9.902420044E0,-9.002227783E-1
8.811884017E0,-6.751708984E-1,-9.888046265E0,-8.523406982E-1
8.816858382E0,-6.512298584E-1,-9.940719604E0,-9.241638184E-1
8.821863265E0,-6.081237793E-1,-9.897628784E0,-1.029510498E0
8.826837630E0,-5.937652588E-1,-9.840164185E0,-1.187530518E0
8.831811995E0,-6.129150391E-1,-9.763549805E0,-1.364700317E0
8.836786360E0,-6.320648193E-1,-9.725250244E0,-1.479614258E0
8.841791243E0,-6.751708984E-1,-9.715667725E0,-1.570602417E0
8.846765608E0,-7.374114990E-1,-9.725250244E0,-1.580169678E0
8.851739974E0,-7.661437988E-1,-9.715667725E0,-1.508346558E0
8.856714339E0,-7.661437988E-1,-9.715667725E0,-1.398208618E0
8.861688704E0,-7.230529785E-1,-9.739608765E0,-1.259353638E0
8.866693587E0,-6.655883789E-1,-9.797073364E0,-1.192306519E0
8.871667952E0,-7.230529785E-1,-9.825805664E0,-1.197097778E0
8.876642317E0,-7.374114990E-1,-9.801864624E0,-1.173156738E0
8.881616683E0,-7.565612793E-1,-9.734817505E0,-1.158798218E0
8.886621565E0,-7.661437988E-1,-9.653427124E0,-1.182739258E0
8.891595931E0,-7.374114990E-1,-9.610321045E0,-1.197097778E0
8.896570296E0,-6.799468994E-1,-9.562438965E0,-1.235412598E0
8.901544661E0,-5.937652588E-1,-9.533706665E0,-1.244979858E0
8.906519026E0,-5.171508789E-1,-9.548080444E0,-1.288085938E0
8.911523909E0,-4.692687988E-1,-9.548080444E0,-1.340759277E0
8.916498274E0,-4.692687988E-1,-9.586380005E0,-1.422149658E0
8.921472640E0,-4.884185791E-1,-9.619903564E0,-1.537078857E0
8.926447005E0,-4.788360596E-1,-9.658203125E0,-1.575378418E0
8.931451888E0,-4.501037598E-1,-9.691726685E0,-1.613693237E0
8.936426253E0,-4.501037598E-1,-9.677368164E0,-1.608901978E0
8.941400618E0,-4.596862793E-1,-9.677368164E0,-1.580169678E0
8.946374983E0,-4.692687988E-1,-9.691726685E0,-1.551437378E0
8.951379866E0,-4.980010986E-1,-9.696517944E0,-1.532287598E0
8.956354231E0,-5.506591797E-1,-9.691726685E0,-1.489196777E0
8.961328597E0,-5.746154785E-1,-9.677368164E0,-1.470046997E0
8.966302962E0,-5.985565186E-1,-9.677368164E0,-1.422149658E0
8.971277327E0,-6.320648193E-1,-9.667785645E0,-1.417373657E0
8.976282210E0,-6.368560791E-1,-9.667785645E0,-1.426940918E0
8.981256575E0,-6.560058594E-1,-9.648635864E0,-1.426940918E0
8.986230940E0,-6.464385986E-1,-9.629486084E0,-1.436523438E0
8.991205306E0,-6.751708984E-1,-9.591171265E0,-1.493988037E0
8.996210188E0,-6.991119385E-1,-9.548080444E0,-1.517929077E0
9.001184554E0,-7.278442383E-1,-9.509765625E0,-1.541870117E0
9.006158919E0,-7.422027588E-1,-9.490615845E0,-1.551437378E0
9.011133284E0,-7.565612793E-1,-9.524139404E0,-1.565811157E0
9.016107649E0,-7.374114990E-1,-9.557647705E0,-1.556228638E0
9.021112532E0,-6.895294189E-1,-9.595962524E0,-1.537078857E0
9.026086897E0,-6.464385986E-1,-9.643844604E0,-1.498764038E0
9.031061263E0,-6.129150391E-1,-9.672576904E0,-1.474822998E0
9.036035628E0,-5.793914795E-1,-9.686935425E0,-1.450881958E0
9.041040511E0,-5.315093994E-1,-9.677368164E0,-1.441314697E0
9.046014876E0,-5.027770996E-1,-9.667785645E0,-1.374267578E0
9.050989241E0,-4.932098389E-1,-9.658203125E0,-1.307235718E0
9.055963606E0,-5.075683594E-1,-9.653427124E0,-1.254562378E0
9.060937972E0,-5.219421387E-1,-9.629486084E0,-1.264144897E0
9.065942855E0,-5.937652588E-1,-9.581588745E0,-1.307235718E0
9.070917220E0,-5.650329590E-1,-9.581588745E0,-1.431732178E0
9.075891585E0,-6.512298584E-1,-9.624694824E0,-1.613693237E0
9.080865950E0,-7.134704590E-1,-9.557647705E0,-1.771713257E0
9.085870833E0,-7.709350586E-1,-9.524139404E0,-1.857894897E0
9.090845198E0,-7.996673584E-1,-9.490615845E0,-1.896209717E0
9.095819563E0,-8.188171387E-1,-9.418792725E0,-1.790863037E0
9.100793929E0,-9.145812988E-1,-9.332595825E0,-1.604110718E0
9.105768294E0,-9.720458984E-1,-9.356536865E0,-1.450881958E0
9.110773177E0,-9.481048584E-1,-9.466674805E0,-1.302444458E0
9.115747542E0,-8.092346191E-1,-9.715667725E0,-1.163589478E0
9.120721907E0,-5.458831787E-1,-9.878479004E0,-1.077392578E0
9.125696272E0,-1.915435791E-1,-1.000297546E1,-1.000778198E0
9.130701155E0,2.873229980E-2,-1.009394836E1,-1.015136719E0
9.135675521E0,-7.661437988E-2,-1.011788940E1,-1.101333618E0
9.140649886E0,-2.825164795E-1,-1.004127502E1,-1.312026978E0
9.145624251E0,-4.453277588E-1,-9.993392944E0,-1.628051758E0
9.150598616E0,-5.219421387E-1,-9.945510864E0,-1.924942017E0
9.155603499E0,-5.506591797E-1,-9.835388184E0,-2.111679077E0
9.160577864E0,-5.458831787E-1,-9.658203125E0,-2.068588257E0
9.165552230E0,-5.650329590E-1,-9.514556885E0,-1.881835938E0
9.170526595E0,-6.991119385E-1,-9.457092285E0,-1.690307617E0
9.175531478E0,-8.044586182E-1,-9.457092285E0,-1.460464478E0
9.180505843E0,-8.762817383E-1,-9.442733765E0,-1.216247559E0
9.185480208E0,-9.193725586E-1,-9.457092285E0,-9.911956787E-1
9.190454573E0,-9.193725586E-1,-9.509765625E0,-8.427581787E-1
9.195428938E0,-8.858489990E-1,-9.619903564E0,-8.140258789E-1
9.200433821E0,-8.044586182E-1,-9.773132324E0,-8.762817383E-1
9.205408187E0,-7.278442383E-1,-9.935943604E0,-1.000778198E0
9.210382552E0,-6.655883789E-1,-1.007000732E1,-1.182739258E0
9.215356917E0,-6.320648193E-1,-1.013705444E1,-1.331176758E0
9.220361800E0,-5.937652588E-1,-1.013226318E1,-1.460464478E0
9.225336165E0,-5.746154785E-1,-1.009394836E1,-1.546661377E0
9.230310530E0,-5.985565186E-1,-1.003649902E1,-1.589752197E0
9.235284896E0,-5.746154785E-1,-9.940719604E0,-1.604110718E0
9.240259261E0,-6.272735596E-1,-9.840164185E0,-1.580169678E0
9.245264144E0,-6.033325195E-1,-9.701309204E0,-1.541870117E0
9.250238509E0,-5.985565186E-1,-9.581588745E0,-1.460464478E0
9.255212874E0,-6.033325195E-1,-9.481033325E0,-1.398208618E0
9.260187239E0,-6.081237793E-1,-9.399642944E0,-1.312026978E0
9.265192122E0,-6.081237793E-1,-9.356536865E0,-1.240203857E0
9.270166487E0,-6.033325195E-1,-9.342178345E0,-1.240203857E0
9.275140853E0,-6.368560791E-1,-9.375701904E0,-1.288085938E0
9.280115218E0,-6.607971191E-1,-9.423583984E0,-1.374267578E0
9.285120101E0,-6.943206787E-1,-9.495407104E0,-1.412582397E0
9.290094466E0,-7.326202393E-1,-9.586380005E0,-1.388641357E0
9.295068831E0,-7.757263184E-1,-9.701309204E0,-1.383850098E0
9.300043196E0,-8.331756592E-1,-9.777923584E0,-1.383850098E0
9.305017562E0,-8.666992188E-1,-9.816223145E0,-1.388641357E0
9.310022444E0,-8.858489990E-1,-9.816223145E0,-1.407791138E0
9.314996810E0,-9.145812988E-1,-9.792282104E0,-1.412582397E0
9.319971175E0,-9.768371582E-1,-9.749191284E0,-1.455673218E0
9.324945540E0,-1.072601318E0,-9.706100464E0,-1.493988037E0
9.329950423E0,-1.192306519E0,-9.662994385E0,-1.541870117E0
9.334924788E0,-1.259353638E0,-9.610321045E0,-1.565811157E0
9.339899153E0,-1.283294678E0,-9.567230225E0,-1.556228638E0
9.344873519E0,-1.230621338E0,-9.509765625E0,-1.508346558E0
9.349847884E0,-1.149215698E0,-9.452316284E0,-1.426940918E0
9.354852767E0,-1.010360718E0,-9.423583984E0,-1.355117798E0
9.359827132E0,-8.666992188E-1,-9.423583984E0,-1.225830078E0
9.364801497E0,-6.991119385E-1,-9.452316284E0,-1.120483398E0
9.369775862E0,-5.315093994E-1,-9.500198364E0,-1.091751099E0
9.374780745E0,-3.639221191E-1,-9.538497925E0,-1.039077759E0
9.379755110E0,-2.011108398E-1,-9.562438965E0,-1.024719238E0
9.384729476E0,-8.619689941E-2,-9.600753784E0,-1.067810059E0
9.389703841E0,5.746459961E-2,-9.639053345E0,-1.072601318E0
9.394678206E0,2.298431396E-1,-9.634262085E0,-1.086975098E0
9.399683089E0,3.064575195E-1,-9.605545044E0,-1.072601318E0
9.404657454E0,3.256072998E-1,-9.586380005E0,-1.063018799E0
9.409631819E0,3.256072998E-1,-9.567230225E0,-1.063018799E0
9.414606185E0,2.777252197E-1,-9.586380005E0,-1.053451538E0
9.419611067E0,2.154846191E-1,-9.662994385E0,-1.029510498E0
9.424585433E0,1.819610596E-1,-9.730041504E0,-1.039077759E0
9.429559798E0,1.580200195E-1,-9.792282104E0,-1.015136719E0
9.434534163E0,1.628112793E-1,-9.835388184E0,-9.816284180E-1
9.439508528E0,1.963195801E-1,-9.864105225E0,-9.672546387E-1
9.444513411E0,2.394256592E-1,-9.892837524E0,-9.002227783E-1
9.449487776E0,3.208160400E-1,-9.888046265E0,-8.666992188E-1
9.454462142E0,3.974304199E-1,-9.921569824E0,-8.283996582E-1
9.459436507E0,4.980010986E-1,-9.964660645E0,-7.709350586E-1
9.464441390E0,6.655883789E-1,-9.988616943E0,-7.422027588E-1
9.469415755E0,7.805023193E-1,-1.006523132E1,-7.374114990E-1
9.474390120E0,9.145812988E-1,-1.008917236E1,-7.326202393E-1
9.479364485E0,1.043869019E0,-1.006044006E1,-7.517852783E-1
9.484338851E0,1.096542358E0,-1.002212524E1,-7.565612793E-1
9.489343733E0,1.082183838E0,-1.002691650E1,-7.038879395E-1
9.494318099E0,1.192306519E0,-9.883270264E0,-7.565612793E-1
9.499292464E0,1.216247559E0,-9.801864624E0,-8.092346191E-1
9.504266829E0,1.120483398E0,-9.768341064E0,-8.044586182E-1
9.509271712E0,1.024719238E0,-9.787490845E0,-8.236083984E-1
9.514246077E0,9.624633789E-1,-9.849746704E0,-8.954315186E-1
9.519220442E0,9.097900391E-1,-9.902420044E0,-9.576873779E-1
9.524194808E0,8.858489990E-1,-9.926361084E0,-1.029510498E0
9.529169173E0,9.002227783E-1,-9.921569824E0,-1.067810059E0
9.534174056E0,9.959869385E-1,-9.859329224E0,-1.106124878E0
9.539148421E0,9.576873779E-1,-9.840164185E0,-1.067810059E0
9.544122786E0,8.619079590E-1,-9.897628784E0,-1.034301758E0
9.549097151E0,7.565612793E-1,-9.945510864E0,-1.063018799E0
9.554102034E0,7.422027588E-1,-9.907211304E0,-1.072601318E0
9.559076399E0,8.523406982E-1,-9.768341064E0,-1.072601318E0
9.564050765E0,8.379669189E-1,-9.648635864E0,-1.048660278E0
9.569025130E0,7.852935791E-1,-9.524139404E0,-1.010360718E0
9.574030013E0,6.512298584E-1,-9.433151245E0,-9.816284180E-1
9.579004378E0,4.405364990E-1,-9.399642944E0,-9.624633789E-1
9.583978743E0,2.106933594E-1,-9.385269165E0,-1.019927979E0
9.588953108E0,-3.352355957E-2,-9.418792725E0,-1.144424438E0
9.593957991E0,-2.250518799E-1,-9.500198364E0,-1.278503418E0
9.598932356E0,-4.357452393E-1,-9.619903564E0,-1.379058838E0
9.603906722E0,-5.841827393E-1,-9.730041504E0,-1.369476318E0
9.608881087E0,-6.560058594E-1,-9.868896484E0,-1.388641357E0
9.613855452E0,-6.272735596E-1,-1.001255798E1,-1.398208618E0
9.618860335E0,-6.320648193E-1,-1.015620422E1,-1.355117798E0
9.623834700E0,-6.177062988E-1,-1.024717712E1,-1.297653198E0
9.628809065E0,-5.410919189E-1,-1.029028320E1,-1.240203857E0
9.633783431E0,-4.501037598E-1,-1.028070068E1,-1.211471558E0
9.638788313E0,-3.639221191E-1,-1.020408630E1,-1.225830078E0
9.643762679E0,-3.208160400E-1,-1.005564880E1,-1.340759277E0
9.648737044E0,-3.160400391E-1,-9.897628784E0,-1.441314697E0
9.653711409E0,-3.591308594E-1,-9.768341064E0,-1.537078857E0
9.658685774E0,-4.596862793E-1,-9.653427124E0,-1.584960938E0
9.663690657E0,-4.980010986E-1,-9.581588745E0,-1.594543457E0
9.668665022E0,-5.506591797E-1,-9.605545044E0,-1.628051758E0
9.673639388E0,-5.650329590E-1,-9.672576904E0,-1.651992798E0
9.678613753E0,-5.315093994E-1,-9.744400024E0,-1.661575317E0
9.683588118E0,-4.884185791E-1,-9.768341064E0,-1.656784058E0
9.688593001E0,-4.165954590E-1,-9.744400024E0,-1.690307617E0
9.693567366E0,-3.878631592E-1,-9.725250244E0,-1.690307617E0
9.698541731E0,-3.543395996E-1,-9.682159424E0,-1.723831177E0
9.703516097E0,-3.303985596E-1,-9.610321045E0,-1.776504517E0
9.708520980E0,-2.968750000E-1,-9.581588745E0,-1.810012817E0
9.713495345E0,-3.160400391E-1,-9.567230225E0,-1.810012817E0
9.718469710E0,-3.399810791E-1,-9.591171265E0,-1.886627197E0
9.723444075E0,-4.022216797E-1,-9.653427124E0,-1.972824097E0
9.728418440E0,-4.309539795E-1,-9.749191284E0,-2.097320557E0
9.733423323E0,-4.788360596E-1,-9.859329224E0,-2.236190796E0
9.738397688E0,-4.980010986E-1,-9.945510864E0,-2.398986816E0
9.743372054E0,-5.841827393E-1,-9.974243164E0,-2.528274536E0
9.748346419E0,-6.464385986E-1,-9.959884644E0,-2.647979736E0
9.753351302E0,-6.512298584E-1,-9.912002563E0,-2.695877075E0
9.758325667E0,-6.368560791E-1,-9.777923584E0,-2.700653076E0
9.763300032E0,-6.033325195E-1,-9.629486084E0,-2.671936035E0
9.768274397E0,-5.985565186E-1,-9.481033325E0,-2.580947876E0
9.773248763E0,-5.985565186E-1,-9.327804565E0,-2.494750977E0
9.778253646E0,-5.889739990E-1,-9.212890625E0,-2.422927856E0
9.783228011E0,-5.746154785E-1,-9.088394165E0,-2.279281616E0
9.788202376E0,-5.650329590E-1,-9.002197266E0,-2.097320557E0
9.793176741E0,-5.458831787E-1,-8.997406006E0,-2.001556396E0
9.798181624E0,-5.458831787E-1,-9.045288086E0,-1.915359497E0
9.803155989E0,-5.650329590E-1,-9.193740845E0,-1.833953857E0
9.808130355E0,-5.650329590E-1,-9.361328125E0,-1.771713257E0
9.813104720E0,-5.027770996E-1,-9.466674805E0,-1.671157837E0
9.818079085E0,-3.782806396E-1,-9.543289185E0,-1.604110718E0
9.823083968E0,-3.112487793E-1,-9.643844604E0,-1.517929077E0
9.828058333E0,-3.687133789E-1,-9.739608765E0,-1.517929077E0
9.833032698E0,-4.644775391E-1,-9.806655884E0,-1.671157837E0
9.838007063E0,-4.118041992E-1,-9.830596924E0,-1.848327637E0
9.843011946E0,-3.160400391E-1,-9.797073364E0,-2.025497437E0
9.847986312E0,-3.208160400E-1,-9.749191284E0,-2.164352417E0
9.852960677E0,-3.543395996E-1,-9.658203125E0,-2.255340576E0
9.857935042E0,-3.447723389E-1,-9.533706665E0,-2.260131836E0
9.862939925E0,-3.878631592E-1,-9.452316284E0,-2.226608276E0
9.867914290E0,-4.980010986E-1,-9.385269165E0,-2.188293457E0
9.872888655E0,-6.655883789E-1,-9.332595825E0,-2.164352417E0
9.877863021E0,-8.619079590E-1,-9.303863525E0,-2.154785156E0
9.882837386E0,-9.672546387E-1,-9.294296265E0,-2.039855957E0
9.887842269E0,-1.024719238E0,-9.313446045E0,-1.881835938E0
9.892816634E0,-1.043869019E0,-9.327804565E0,-1.685516357E0
9.897790999E0,-9.816284180E-1,-9.370910645E0,-1.517929077E0
9.902765364E0,-9.097900391E-1,-9.414001465E0,-1.393432617E0
9.907770247E0,-8.331756592E-1,-9.437942505E0,-1.340759277E0
9.912744612E0,-7.469940186E-1,-9.481033325E0,-1.326385498E0
9.917718978E0,-7.086791992E-1,-9.533706665E0,-1.374267578E0
9.922693343E0,-6.368560791E-1,-9.562438965E0,-1.465255737E0
9.927667708E0,-5.363006592E-1,-9.629486084E0,-1.561019897E0
9.932672591E0,-4.453277588E-1,-9.662994385E0,-1.671157837E0
9.937646956E0,-3.974304199E-1,-9.725250244E0,-1.757339478E0
9.942621321E0,-3.734893799E-1,-9.763549805E0,-1.810012817E0
9.947595687E0,-3.543395996E-1,-9.787490845E0,-1.800445557E0
9.952600569E0,-3.543395996E-1,-9.768341064E0,-1.719039917E0
9.957574935E0,-4.022216797E-1,-9.715667725E0,-1.618484497E0
9.962549300E0,-5.123596191E-1,-9.667785645E0,-1.503555298E0
9.967523665E0,-6.512298584E-1,-9.624694824E0,-1.412582397E0
9.972498030E0,-7.996673584E-1,-9.600753784E0,-1.402999878E0
9.977502913E0,-9.433135986E-1,-9.600753784E0,-1.398208618E0
9.982477278E0,-1.029510498E0,-9.595962524E0,-1.412582397E0
9.987451644E0,-1.048660278E0,-9.581588745E0,-1.450881958E0
9.992426009E0,-9.959869385E-1,-9.572021484E0,-1.489196777E0
9.997430892E0,-9.145812988E-1,-9.586380005E0,-1.546661377E0
1.000240526E1,-8.044586182E-1,-9.619903564E0,-1.604110718E0
1.000737962E1,-7.134704590E-1,-9.677368164E0,-1.647216797E0
1.001235399E1,-6.224975586E-1,-9.720458984E0,-1.656784058E0
1.001732835E1,-5.267181396E-1,-9.734817505E0,-1.661575317E0
1.002233324E1,-4.022216797E-1,-9.739608765E0,-1.637634277E0
1.002730760E1,-4.309539795E-1,-9.734817505E0,-1.637634277E0
1.003228197E1,-5.171508789E-1,-9.749191284E0,-1.599319458E0
1.003725633E1,-5.650329590E-1,-9.777923584E0,-1.503555298E0
1.004226121E1,-6.081237793E-1,-9.840164185E0,-1.460464478E0
1.004723558E1,-5.698242188E-1,-9.864105225E0,-1.417373657E0
1.005220994E1,-4.596862793E-1,-9.883270264E0,-1.441314697E0
1.005718431E1,-3.016662598E-1,-9.878479004E0,-1.493988037E0
1.006218919E1,-2.537841797E-1,-9.840164185E0,-1.537078857E0
1.006716356E1,-3.016662598E-1,-9.782714844E0,-1.575378418E0
1.007213792E1,-3.351898193E-1,-9.701309204E0,-1.551437378E0
1.007711229E1,-2.202606201E-1,-9.600753784E0,-1.417373657E0
1.008208665E1,-1.819610596E-1,-9.538497925E0,-1.383850098E0
1.008709154E1,-2.394256592E-1,-9.538497925E0,-1.345535278E0
1.009206590E1,-3.782806396E-1,-9.591171265E0,-1.369476318E0
1.009704027E1,-5.315093994E-1,-9.634262085E0,-1.446090698E0
1.010201463E1,-5.410919189E-1,-9.629486084E0,-1.527496338E0
1.010701952E1,-4.884185791E-1,-9.629486084E0,-1.546661377E0
1.011199388E1,-4.213867188E-1,-9.682159424E0,-1.532287598E0
