"Time (s)","Acceleration x (m/s^2)","Acceleration y (m/s^2)","Acceleration z (m/s^2)"
1.279840000E-1,4.980091453E-1,9.979337692E0,7.661679387E-1
1.299840000E-1,4.980091453E-1,9.979337692E0,7.661679387E-1
1.319700000E-1,4.980091453E-1,9.979337692E0,7.661679387E-1
1.339636660E-1,4.980091453E-1,9.979337692E0,7.661679387E-1
1.359631660E-1,1.242628574E0,9.294574738E0,2.897072434E-1
1.379627660E-1,1.256994247E0,9.275420189E0,2.442160249E-1
1.399624320E-1,1.285725594E0,9.258660316E0,1.699935049E-1
1.419621460E-1,1.340793848E0,9.251478195E0,8.858817071E-2
1.439618960E-1,1.347976685E0,9.258660316E0,5.027977005E-2
1.459616730E-1,1.381496549E0,9.273026466E0,-5.267404765E-2
1.479612730E-1,1.376708031E0,9.292180061E0,-1.101366431E-1
1.499609090E-1,1.379102230E0,9.287391663E0,-3.016786277E-1
1.519584090E-1,1.379102230E0,9.287391663E0,-3.016786277E-1
1.539581010E-1,1.393467903E0,9.344854355E0,-3.519583941E-1
1.559578150E-1,1.395862222E0,9.445414543E0,-4.453351200E-1
1.579575480E-1,1.369525194E0,9.514847755E0,-4.932205975E-1
1.599572980E-1,1.364736676E0,9.553156853E0,-5.243461728E-1
1.619570620E-1,1.338399649E0,9.617801666E0,-5.578660369E-1
1.639567280E-1,1.336005330E0,9.694418907E0,-5.650488734E-1
1.659564120E-1,1.328822494E0,9.739910126E0,-5.626545548E-1
1.679561120E-1,1.338399649E0,9.814132690E0,-5.482889414E-1
1.699558260E-1,1.347976685E0,9.883566856E0,-5.339232683E-1
1.719543710E-1,1.347976685E0,9.921875000E0,-5.387118459E-1
1.739541100E-1,1.359948039E0,9.967366219E0,-5.267404318E-1
1.759538600E-1,1.371919513E0,1.000088596E1,-5.051919818E-1
1.779536200E-1,1.381496549E0,1.007271385E1,-4.668835998E-1
1.799533120E-1,1.374313712E0,1.013735962E1,-4.333637357E-1
1.819530150E-1,1.386285067E0,1.016369629E1,-4.237866402E-1
1.839527290E-1,1.417410731E0,1.017566776E1,-3.639297783E-1
1.859524530E-1,1.422199249E0,1.023313046E1,-2.873129845E-1
1.879521860E-1,1.417410731E0,1.028341007E1,-2.753416002E-1
1.899519190E-1,1.398256540E0,1.040551853E1,-3.040728867E-1
1.919517190E-1,1.398256540E0,1.040551853E1,-3.040728867E-1
1.939516850E-1,1.391073704E0,1.042467213E1,-3.136500120E-1
1.959514180E-1,1.364736676E0,1.045579815E1,-3.232271075E-1
1.979511510E-1,1.345582485E0,1.046298122E1,-3.256213665E-1
1.999508840E-1,1.331216812E0,1.046058655E1,-3.160442710E-1
2.019506170E-1,1.336005330E0,1.042946148E1,-3.304099143E-1
2.039503500E-1,1.328822494E0,1.042227840E1,-3.328042030E-1
2.059500830E-1,1.338399649E0,1.038875866E1,-3.112557232E-1
2.079498830E-1,1.331216812E0,1.031692982E1,-3.112557232E-1
2.099496160E-1,1.331216812E0,1.020200539E1,-2.921015322E-1
2.119493490E-1,1.331216812E0,1.020200539E1,-2.921015322E-1
2.139490820E-1,1.328822494E0,1.015651417E1,-2.777358890E-1
2.159488150E-1,1.302485466E0,1.001285744E1,-2.609759569E-1
2.179485480E-1,1.292908430E0,9.919480324E0,-2.466102988E-1
2.199482810E-1,1.295302629E0,9.876383781E0,-2.298503816E-1
2.219480140E-1,1.273754239E0,9.794978142E0,-2.322446555E-1
2.239478140E-1,1.225868702E0,9.711178780E0,-2.394274771E-1
2.259475470E-1,1.199531674E0,9.675264359E0,-2.466102988E-1
2.279472800E-1,1.151646137E0,9.610619545E0,-2.801301479E-1
2.299468130E-1,1.075029373E0,9.459779739E0,-2.873129845E-1
2.319465460E-1,1.075029373E0,9.459779739E0,-2.873129845E-1
2.339462790E-1,1.058269501E0,9.428654671E0,-2.921015322E-1
2.359460120E-1,1.041509509E0,9.395133972E0,-3.088614643E-1
2.379457450E-1,9.912297726E-1,9.347249031E0,-3.160442710E-1
2.399455450E-1,9.696813226E-1,9.306546211E0,-3.447755575E-1
2.419452780E-1,9.744698405E-1,9.292180061E0,-3.615354896E-1
2.439450110E-1,9.792584181E-1,9.261054993E0,-4.022381604E-1
2.459444440E-1,9.720755816E-1,9.261054993E0,-4.740664065E-1
2.479441770E-1,9.265843630E-1,9.249083519E0,-4.884320498E-1
2.499439100E-1,8.188419938E-1,9.198803902E0,-5.554717779E-1
2.519436430E-1,7.805336118E-1,9.232323647E0,-5.602602959E-1
2.539441430E-1,7.805336118E-1,9.232323647E0,-5.602602959E-1
2.559439430E-1,7.278595567E-1,9.282603264E0,-5.243461728E-1
2.579436760E-1,6.847625971E-1,9.344854355E0,-5.243461728E-1
2.599434090E-1,6.440598965E-1,9.478934288E0,-5.315290093E-1
2.619431420E-1,6.105400920E-1,9.569916725E0,-5.315290093E-1
2.639428750E-1,5.794144869E-1,9.596253395E0,-5.339232683E-1
2.659426080E-1,5.004034638E-1,9.613013268E0,-5.530774593E-1
2.679423410E-1,4.836435020E-1,9.601041794E0,-5.865973234E-1
2.699421410E-1,5.722316504E-1,9.639349937E0,-5.985686779E-1
2.719418740E-1,6.009629965E-1,9.658504486E0,-5.889915824E-1
2.739416070E-1,6.129343510E-1,9.682447433E0,-5.770202279E-1
2.759413400E-1,6.273000240E-1,9.711178780E0,-5.602602959E-1
2.779410730E-1,6.799740195E-1,9.744698524E0,-5.578660369E-1
2.799408060E-1,7.087053657E-1,9.756669998E0,-5.578660369E-1
2.819405390E-1,7.134938836E-1,9.804554939E0,-5.099805593E-1
2.839402720E-1,7.278595567E-1,9.854835510E0,-4.525179267E-1
2.859400720E-1,7.302538157E-1,9.893143654E0,-4.237866402E-1
2.879398380E-1,7.158881426E-1,9.948211670E0,-3.639297783E-1
2.899398040E-1,7.326480746E-1,1.005116558E1,-2.035133541E-1
2.919395700E-1,7.326480746E-1,1.005116558E1,-2.035133541E-1
2.939393360E-1,7.326480746E-1,1.007989693E1,-1.699935049E-1
2.959391020E-1,7.470137477E-1,1.013017654E1,-8.619388938E-2
2.979388680E-1,7.541965842E-1,1.015172482E1,-4.309694469E-2
2.999386340E-1,7.589851022E-1,1.016848469E1,3.112557158E-2
3.019384670E-1,7.709565163E-1,1.019242764E1,7.182824612E-2
3.039382330E-1,7.829278708E-1,1.020200539E1,1.125309169E-1
3.059382990E-1,7.972934842E-1,1.017806244E1,1.364736706E-1
3.079380650E-1,8.044763207E-1,1.015651417E1,1.484450400E-1
3.099378310E-1,8.523618579E-1,1.003680038E1,2.059076279E-1
3.119375970E-1,8.523618579E-1,1.003680038E1,2.059076279E-1
3.139360630E-1,8.523618579E-1,1.003680038E1,2.059076279E-1
3.159358290E-1,9.002473354E-1,9.929058075E0,2.346389294E-1
3.179356620E-1,9.241901040E-1,9.838075638E0,2.585816681E-1
3.199354280E-1,9.409499764E-1,9.790189743E0,2.537931204E-1
3.219351940E-1,9.840469360E-1,9.680052757E0,2.681587934E-1
3.239349600E-1,1.027143836E0,9.622590065E0,2.585816681E-1
3.259347260E-1,1.048692346E0,9.510059357E0,2.513988614E-1
3.279344920E-1,1.108549237E0,9.390345573E0,2.394274771E-1
3.299342580E-1,1.161223292E0,9.256266594E0,2.106961906E-1
3.319340910E-1,1.180377483E0,9.213169098E0,1.963305324E-1
3.339339240E-1,1.206714511E0,9.177255630E0,1.819648892E-1
3.359336900E-1,1.228263021E0,9.138946533E0,1.652049571E-1
3.379334560E-1,1.273754239E0,9.079090118E0,1.173194647E-1
3.399332220E-1,1.314456820E0,9.055147171E0,4.309694469E-2
3.419329880E-1,1.324033976E0,9.033598900E0,0.000000000E0
3.439327540E-1,1.371919513E0,9.019232750E0,-7.422251999E-2
3.459325200E-1,1.403045058E0,9.019232750E0,-1.173194647E-1
3.479323200E-1,1.448536277E0,8.976136208E0,-2.035133541E-1
3.499321530E-1,1.304879785E0,8.693612099E0,-3.016786277E-1
3.519318860E-1,1.304879785E0,8.693612099E0,-3.016786277E-1
3.539316190E-1,1.319245458E0,8.727131844E0,-3.088614643E-1
3.559313520E-1,1.405439258E0,8.928250313E0,-3.543526828E-1
3.579310850E-1,1.429382086E0,8.995290756E0,-3.830839694E-1
3.599308180E-1,1.422199249E0,9.115004539E0,-3.902668059E-1
3.619305510E-1,1.393467903E0,9.158101082E0,-4.309694767E-1
3.639303510E-1,1.364736676E0,9.155706406E0,-4.620950520E-1
3.659300840E-1,1.347976685E0,9.277814865E0,-5.099805593E-1
3.679298170E-1,1.316851139E0,9.392740250E0,-4.956148863E-1
3.699295500E-1,1.278542757E0,9.751881599E0,-4.812492430E-1
3.719292830E-1,1.249811411E0,9.799766541E0,-4.692778587E-1
3.739299490E-1,1.249811411E0,9.799766541E0,-4.692778587E-1
3.759296820E-1,1.209108829E0,9.900326729E0,-4.285751879E-1
3.779294150E-1,1.211503029E0,1.002004051E1,-3.543526828E-1
3.799292150E-1,1.213897347E0,1.006792545E1,-3.304099143E-1
3.819289480E-1,1.187560320E0,1.011102295E1,-2.921015322E-1
3.839286810E-1,1.166011810E0,1.013975334E1,-2.178790122E-1
3.859284140E-1,1.163617611E0,1.015651417E1,-1.939362586E-1
3.879281470E-1,1.177983165E0,1.020439911E1,-1.364736706E-1
3.899278800E-1,1.204320192E0,1.026665020E1,-3.591412306E-2
3.919276130E-1,1.211503029E0,1.028341007E1,-1.197137404E-2
3.939273460E-1,1.237840056E0,1.029538155E1,1.436564885E-2
3.959271460E-1,1.261782765E0,1.028580475E1,3.351984918E-2
3.979268790E-1,1.292908430E0,1.026425648E1,8.140534163E-2
3.999266120E-1,1.292908430E0,1.022115898E1,1.508393139E-1
4.019263450E-1,1.285725594E0,1.018524456E1,1.364736706E-1
4.039260780E-1,1.307274103E0,1.010144520E1,7.182824612E-2
4.059258110E-1,1.343188167E0,1.002961731E1,2.394274808E-3
4.079255440E-1,1.362342358E0,9.993702888E0,-3.112557158E-2
4.099252440E-1,1.302485466E0,9.885960579E0,-4.549122229E-2
4.119250440E-1,1.302485466E0,9.885960579E0,-4.549122229E-2
4.139247770E-1,1.283331275E0,9.866806030E0,-2.633702382E-2
4.159245100E-1,1.252205729E0,9.833286285E0,2.394274808E-2
4.179242430E-1,1.225868702E0,9.814132690E0,4.549122229E-2
4.199239760E-1,1.201925993E0,9.802161217E0,8.140534163E-2
4.219237090E-1,1.166011810E0,9.802161217E0,1.077423692E-1
4.239234420E-1,1.142069101E0,9.794978142E0,1.221080124E-1
4.259232420E-1,1.134886265E0,9.783006668E0,1.388679445E-1
4.279230420E-1,1.087000728E0,9.732727051E0,2.178790122E-1
4.299227750E-1,1.041509509E0,9.802161217E0,1.316851079E-1
4.319225080E-1,1.041509509E0,9.802161217E0,1.316851079E-1
4.339219080E-1,1.060663700E0,9.802161217E0,8.379961550E-2
4.359216410E-1,1.072635174E0,9.783006668E0,3.112557158E-2
4.379213740E-1,9.624984860E-1,9.646533012E0,-6.225114316E-2
4.399211070E-1,8.906702399E-1,9.555550575E0,-9.816526622E-2
4.419209070E-1,8.619389534E-1,9.567522049E0,-1.292908341E-1
4.439206400E-1,8.523618579E-1,9.687235832E0,-1.412622184E-1
4.459203730E-1,8.379961848E-1,9.735121727E0,-1.484450400E-1
4.479201060E-1,7.661679387E-1,9.763853073E0,-9.098244458E-2
4.499198390E-1,6.416656375E-1,9.605830193E0,-1.388679445E-1
4.519195720E-1,6.416656375E-1,9.605830193E0,-1.388679445E-1
4.539201050E-1,6.201171875E-1,9.543579102E0,-1.675992310E-1
4.559198380E-1,6.249057055E-1,9.512454033E0,-1.867534369E-1
4.579196380E-1,6.536370516E-1,9.569916725E0,-1.819648892E-1
4.599193710E-1,6.847625971E-1,9.646533012E0,-1.867534369E-1
4.619191040E-1,6.799740195E-1,9.639349937E0,-1.843591630E-1
4.639188370E-1,6.847625971E-1,9.620196342E0,-1.747820675E-1
4.659185700E-1,6.991282701E-1,9.629773140E0,-1.197137386E-1
4.679183030E-1,7.039167881E-1,9.627379417E0,-9.098244458E-2
4.699180360E-1,6.991282701E-1,9.555550575E0,-1.652049571E-1
4.719177690E-1,6.991282701E-1,9.555550575E0,-1.652049571E-1
4.739175690E-1,7.015225291E-1,9.498087883E0,-1.652049571E-1
4.759173020E-1,6.775797606E-1,9.445414543E0,-1.771763414E-1
4.779170350E-1,7.254652381E-1,9.419076920E0,-2.035133541E-1
4.799167680E-1,7.661679387E-1,9.411893845E0,-2.106961906E-1
4.819165010E-1,8.260248303E-1,9.397528648E0,-2.322446555E-1
4.839162340E-1,8.595446348E-1,9.392740250E0,-2.442160249E-1
4.859159670E-1,9.122186899E-1,9.366402626E0,-2.609759569E-1
4.879157000E-1,9.936240315E-1,9.352037430E0,-2.897072434E-1
4.899155000E-1,1.046298146E0,9.311334610E0,-3.304099143E-1
4.919152330E-1,1.046298146E0,9.311334610E0,-3.304099143E-1
4.939143660E-1,1.043903828E0,9.318517685E0,-3.280156553E-1
4.959140990E-1,1.041509509E0,9.325700760E0,-3.280156553E-1
4.979138320E-1,1.000806928E0,9.359220505E0,-2.298503816E-1
4.999135650E-1,9.792584181E-1,9.419076920E0,-2.873129845E-1
5.019132980E-1,9.888355136E-1,9.447808266E0,-3.495641351E-1
5.039130980E-1,9.984126091E-1,9.495694160E0,-4.309694767E-1
5.059128980E-1,1.000806928E0,9.498087883E0,-4.477293789E-1
5.079126310E-1,1.010383964E0,9.478934288E0,-4.309694767E-1
5.099123640E-1,9.888355136E-1,9.395133972E0,-3.663240373E-1
5.119120970E-1,9.888355136E-1,9.395133972E0,-3.663240373E-1
5.139110300E-1,9.960182905E-1,9.392740250E0,-3.615354896E-1
5.159107630E-1,1.000806928E0,9.464568138E0,-3.280156553E-1
5.179104960E-1,9.768640995E-1,9.512454033E0,-2.968900800E-1
5.199102960E-1,9.217957854E-1,9.615407944E0,-2.322446555E-1
5.219100290E-1,8.691217303E-1,9.708784103E0,-1.987248063E-1
5.239097620E-1,8.643332124E-1,9.744698524E0,-1.915419847E-1
5.259094950E-1,8.427847624E-1,9.797372818E0,-1.652049571E-1
5.279092280E-1,8.379961848E-1,9.802161217E0,-1.292908341E-1
5.299089610E-1,8.571503758E-1,9.806949615E0,-1.268965602E-1
5.319086940E-1,8.571503758E-1,9.806949615E0,-1.268965602E-1
5.339084270E-1,8.667274714E-1,9.763853073E0,-1.292908341E-1
5.359082270E-1,8.882759809E-1,9.648927689E0,-1.484450400E-1
5.379079600E-1,9.648927450E-1,9.572310448E0,-2.274561077E-1
5.399076930E-1,1.010383964E0,9.538790703E0,-2.729473412E-1
5.419074260E-1,1.053480864E0,9.486116409E0,-3.735068738E-1
5.439071590E-1,1.079817891E0,9.428654671E0,-4.166038036E-1
5.459068920E-1,1.098972082E0,9.390345573E0,-4.333637357E-1
5.479066250E-1,1.098972082E0,9.335277557E0,-4.549122155E-1
5.499063580E-1,1.118126392E0,9.263449669E0,-4.740664065E-1
5.519061580E-1,1.118126392E0,9.263449669E0,-4.740664065E-1
5.539068240E-1,1.125309110E0,9.256266594E0,-4.764606953E-1
5.559065570E-1,1.139674783E0,9.268238068E0,-4.764606953E-1
5.579062900E-1,1.156434774E0,9.304151535E0,-4.668835998E-1
5.599060230E-1,1.158828974E0,9.342460632E0,-4.812492430E-1
5.619048230E-1,1.163617611E0,9.364008904E0,-4.956148863E-1
5.639045560E-1,1.182771802E0,9.416683197E0,-5.267404318E-1
5.659042890E-1,1.180377483E0,9.476539612E0,-5.722316504E-1
5.679040890E-1,1.180377483E0,9.524425507E0,-5.985686779E-1
5.699038220E-1,1.218685865E0,9.725543976E0,-7.565908432E-1
5.719035220E-1,1.218685865E0,9.725543976E0,-7.565908432E-1
5.739032550E-1,1.230657220E0,9.775823593E0,-7.996878028E-1
5.759029880E-1,1.266571403E0,9.852440834E0,-8.906702399E-1
5.779027210E-1,1.278542757E0,9.885960579E0,-9.361614585E-1
5.799024540E-1,1.283331275E0,9.972154617E0,-1.012778282E0
5.819022540E-1,1.288119793E0,1.002722263E1,-1.065452337E0
5.839020540E-1,1.297696948E0,1.006074238E1,-1.082212210E0
5.859017870E-1,1.336005330E0,1.010862827E1,-1.079817891E0
5.879015200E-1,1.359948039E0,1.015172482E1,-1.063058019E0
5.899012530E-1,1.379102230E0,1.020439911E1,-1.027143836E0
5.919009860E-1,1.379102230E0,1.020439911E1,-1.027143836E0
5.939007190E-1,1.386285067E0,1.021158218E1,-1.022355318E0
5.959004520E-1,1.417410731E0,1.014693642E1,-9.984126091E-1
5.979002520E-1,1.321639657E0,9.677659035E0,-8.356019258E-1
5.999000520E-1,1.285725594E0,9.452596664E0,-7.589851022E-1
6.018997850E-1,1.288119793E0,9.447808266E0,-7.972934842E-1
6.038995180E-1,1.290514112E0,9.682447433E0,-7.805336118E-1
6.058992510E-1,1.304879785E0,9.790189743E0,-8.044763207E-1
6.078989840E-1,1.333611012E0,9.950606346E0,-8.356019258E-1
6.098987170E-1,1.450930476E0,1.015411949E1,-9.768640995E-1
6.118984500E-1,1.450930476E0,1.015411949E1,-9.768640995E-1
6.138985500E-1,1.472478986E0,1.017566776E1,-1.051086664E0
6.158982830E-1,1.501210332E0,1.018045616E1,-1.110943556E0
6.178980160E-1,1.553884387E0,1.014454269E1,-1.192348838E0
6.198977490E-1,1.582615614E0,1.009905148E1,-1.233051538E0
6.218984150E-1,1.582615614E0,1.008708000E1,-1.247417212E0
6.238981480E-1,1.592192769E0,1.007032013E1,-1.319245458E0
6.258978810E-1,1.573038578E0,1.003680038E1,-1.324033976E0
6.278976140E-1,1.575432777E0,1.003680038E1,-1.316851139E0
6.298974140E-1,1.465296149E0,1.008229160E1,-1.347976685E0
6.318971470E-1,1.465296149E0,1.008229160E1,-1.347976685E0
6.338968800E-1,1.417410731E0,1.007271385E1,-1.379102230E0
6.358966130E-1,1.338399649E0,1.004877090E1,-1.403045058E0
6.378963460E-1,1.314456820E0,1.003919411E1,-1.400650740E0
6.398960790E-1,1.211503029E0,1.002004051E1,-1.388679385E0
6.418958120E-1,1.132491946E0,9.974549294E0,-1.395862222E0
6.438955450E-1,1.101366401E0,9.969759941E0,-1.381496549E0
6.458953450E-1,1.024749637E0,9.957788467E0,-1.347976685E0
6.478950780E-1,9.744698405E-1,9.962577820E0,-1.309668303E0
6.498948110E-1,9.146129489E-1,9.938634872E0,-1.256994247E0
6.518945440E-1,9.050358534E-1,9.945817947E0,-1.233051538E0
6.538942770E-1,9.050358534E-1,9.950606346E0,-1.223474383E0
6.558940100E-1,8.930644989E-1,9.945817947E0,-1.216291547E0
6.578937430E-1,8.882759809E-1,9.924268723E0,-1.201925993E0
6.598934760E-1,8.786988258E-1,9.890748978E0,-1.204320192E0
6.618932760E-1,8.308133483E-1,9.802161217E0,-1.206714511E0
6.638930090E-1,7.733507752E-1,9.699207306E0,-1.173194647E0
6.658927420E-1,7.565908432E-1,9.646533012E0,-1.156434774E0
6.678924750E-1,7.518022656E-1,9.567522049E0,-1.130097747E0
6.698922080E-1,8.140534163E-1,9.481328011E0,-1.115732074E0
6.718919410E-1,8.356019258E-1,9.481328011E0,-1.115732074E0
6.738904410E-1,8.356019258E-1,9.481328011E0,-1.115732074E0
6.758902410E-1,8.571503758E-1,9.450202942E0,-1.084606528E0
6.778900410E-1,8.810931444E-1,9.443019867E0,-1.063058019E0
6.798898070E-1,9.265843630E-1,9.452596664E0,-1.055875182E0
6.818895730E-1,9.409499764E-1,9.466962814E0,-1.053480864E0
6.838893390E-1,9.553156495E-1,9.514847755E0,-1.048692346E0
6.858891050E-1,9.720755816E-1,9.555550575E0,-1.043903828E0
6.878888710E-1,9.744698405E-1,9.593858719E0,-1.048692346E0
6.898886370E-1,9.984126091E-1,9.723150253E0,-1.075029373E0
6.918885030E-1,9.984126091E-1,9.723150253E0,-1.075029373E0
6.938882690E-1,9.960182905E-1,9.759063721E0,-1.094183564E0
6.958880350E-1,1.012778282E0,9.857229233E0,-1.125309110E0
6.978878010E-1,1.022355318E0,9.962577820E0,-1.194743156E0
6.998875670E-1,1.022355318E0,1.001285744E1,-1.240234375E0
7.018873330E-1,9.960182905E-1,1.008468533E1,-1.285725594E0
7.038870990E-1,9.792584181E-1,1.010623360E1,-1.290514112E0
7.058868650E-1,8.810931444E-1,1.010144520E1,-1.331216812E0
7.078866980E-1,7.996878028E-1,1.015651417E1,-1.357553840E0
7.098864640E-1,7.733507752E-1,1.036721039E1,-1.312062621E0
7.118862300E-1,7.637736797E-1,1.044622135E1,-1.297696948E0
7.138859960E-1,7.518022656E-1,1.052283764E1,-1.288119793E0
7.158857620E-1,7.446194887E-1,1.058748341E1,-1.285725594E0
7.178855280E-1,7.206767201E-1,1.072395706E1,-1.256994247E0
7.198852940E-1,6.632141471E-1,1.083888245E1,-1.204320192E0
7.218850600E-1,6.392713785E-1,1.090352726E1,-1.192348838E0
7.238848930E-1,5.913859010E-1,1.100169277E1,-1.144463301E0
7.258846590E-1,5.674431324E-1,1.103281784E1,-1.118126392E0
7.278844250E-1,4.980091453E-1,1.110464668E1,-1.048692346E0
7.298841910E-1,4.261809289E-1,1.129858303E1,-8.691217303E-1
7.318839240E-1,4.261809289E-1,1.129858303E1,-8.691217303E-1
7.338842570E-1,3.806896806E-1,1.132491970E1,-8.164477348E-1
7.358840230E-1,2.921015322E-1,1.137041092E1,-7.206767201E-1
7.378837890E-1,2.825244367E-1,1.141590214E1,-6.943396926E-1
7.398835890E-1,3.064671755E-1,1.157631874E1,-6.440598965E-1
7.418833220E-1,3.280156553E-1,1.168166637E1,-6.009629965E-1
7.438826220E-1,3.423812985E-1,1.173673534E1,-5.818088055E-1
7.458823550E-1,3.304099143E-1,1.181335163E1,-5.530774593E-1
7.478820880E-1,3.711125851E-1,1.184208298E1,-5.363175869E-1
7.498818210E-1,4.285751879E-1,1.204080772E1,-4.836435020E-1
7.518815540E-1,4.285751879E-1,1.204080772E1,-4.836435020E-1
7.538813540E-1,4.429408312E-1,1.207193375E1,-4.836435020E-1
7.558811540E-1,4.597007632E-1,1.215812778E1,-4.884320498E-1
7.578808870E-1,4.716721475E-1,1.222516727E1,-4.956148863E-1
7.598806200E-1,4.812492430E-1,1.225389862E1,-5.099805593E-1
7.618803530E-1,5.195576549E-1,1.233530426E1,-5.219519138E-1
7.638800530E-1,5.770202279E-1,1.245022869E1,-5.243461728E-1
7.658797860E-1,6.105400920E-1,1.250050831E1,-5.195576549E-1
7.678795190E-1,6.871568561E-1,1.261782837E1,-5.147690773E-1
7.698783850E-1,7.613793612E-1,1.277106190E1,-4.908263385E-1
7.718781180E-1,7.805336118E-1,1.279979324E1,-4.716721475E-1
7.738778510E-1,7.853221297E-1,1.282373619E1,-4.573064744E-1
7.758775840E-1,7.901107073E-1,1.285725594E1,-4.309694767E-1
7.778773170E-1,8.356019258E-1,1.293147850E1,-3.687183261E-1
7.798770500E-1,9.002473354E-1,1.299851799E1,-2.825244367E-1
7.818767830E-1,9.146129489E-1,1.303443241E1,-2.322446555E-1
7.838765160E-1,9.146129489E-1,1.308471203E1,-1.460507661E-1
7.858763160E-1,9.217957854E-1,1.310386562E1,-6.464541703E-2
7.878760490E-1,9.170072675E-1,1.310865498E1,-1.675992459E-2
7.898754150E-1,8.906702399E-1,1.312780857E1,1.939362586E-1
7.918751480E-1,8.906702399E-1,1.312780857E1,1.939362586E-1
7.938754480E-1,8.068706393E-1,1.306795216E1,2.537931204E-1
7.958751810E-1,6.416656375E-1,1.286922741E1,3.735068738E-1
7.978749140E-1,5.746259689E-1,1.276627350E1,4.309694767E-1
7.998746470E-1,4.932205975E-1,1.257952023E1,5.363175869E-1
8.018744470E-1,4.740664065E-1,1.239516068E1,5.985686779E-1
8.038746130E-1,4.812492430E-1,1.230896664E1,6.225114465E-1
8.058743460E-1,4.716721475E-1,1.216052151E1,6.823683381E-1
8.078740790E-1,4.764606953E-1,1.200728798E1,7.326480746E-1
8.098738120E-1,4.381522834E-1,1.181574631E1,7.613793612E-1
8.118735450E-1,4.213923812E-1,1.174152374E1,7.541965842E-1
8.138732780E-1,3.998439014E-1,1.174152374E1,7.541965842E-1
8.158730110E-1,3.687183261E-1,1.159786701E1,7.374366522E-1
8.178728110E-1,3.304099143E-1,1.141350842E1,7.110996246E-1
8.198725440E-1,3.160442710E-1,1.131773663E1,6.991282701E-1
8.218722770E-1,2.609759569E-1,1.112140656E1,7.039167881E-1
8.238720430E-1,2.083019018E-1,1.092507553E1,7.134938836E-1
8.258717760E-1,1.795706153E-1,1.081972790E1,7.087053657E-1
8.278715090E-1,1.484450400E-1,1.060424328E1,7.087053657E-1
8.298721750E-1,4.309694469E-2,1.018285084E1,7.206767201E-1
8.318719750E-1,4.309694469E-2,1.018285084E1,7.206767201E-1
8.338717750E-1,3.351984918E-2,1.006313705E1,7.134938836E-1
8.358715080E-1,2.633702382E-2,9.955394745E0,7.326480746E-1
8.378712410E-1,1.675992459E-2,9.763853073E0,7.302538157E-1
8.398709740E-1,-1.436564885E-2,9.553156853E0,7.110996246E-1
8.418707070E-1,-2.154847234E-2,9.454991341E0,7.182824612E-1
8.438704400E-1,-2.394274808E-2,9.277814865E0,7.302538157E-1
8.458701730E-1,-4.788549617E-2,9.107821465E0,7.206767201E-1
8.478699730E-1,-4.788549617E-2,9.021627426E0,7.134938836E-1
8.498701390E-1,-4.309694469E-2,8.705583572E0,7.494080067E-1
8.518699050E-1,-4.309694469E-2,8.631361008E0,7.613793612E-1
8.538691380E-1,-4.309694469E-2,8.631361008E0,7.613793612E-1
8.558688710E-1,-5.027977005E-2,8.480521202E0,7.781392932E-1
8.578686040E-1,-4.788549617E-2,8.411087036E0,7.757450342E-1
8.598683370E-1,-6.703969836E-2,8.327287674E0,7.733507752E-1
8.618680700E-1,-8.379961550E-2,8.257853508E0,7.996878028E-1
8.638678030E-1,-8.379961550E-2,8.226728439E0,8.020820618E-1
8.658675360E-1,-7.422251999E-2,8.186025620E0,8.284190893E-1
8.678672690E-1,-8.619388938E-2,8.176448822E0,8.619389534E-1
8.698670020E-1,-8.858817071E-2,8.190814018E0,9.361614585E-1
8.718667350E-1,-1.029538140E-1,8.200390816E0,9.624984860E-1
8.738664680E-1,-1.053480953E-1,8.221940041E0,9.912297726E-1
8.758662010E-1,-1.029538140E-1,8.250671387E0,1.007989645E0
8.778659340E-1,-1.077423692E-1,8.334470749E0,1.029538155E0
8.798657340E-1,-1.628106833E-1,8.377567291E0,1.060663700E0
8.818654670E-1,-1.915419847E-1,8.456578255E0,1.077423692E0
8.838652000E-1,-2.059076279E-1,8.569109917E0,1.108549237E0
8.858649330E-1,-2.106961906E-1,8.631361008E0,1.113337755E0
8.878646660E-1,-2.298503816E-1,8.767834663E0,1.108549237E0
8.898643990E-1,-2.968900800E-1,9.035993576E0,1.115732074E0
8.918641320E-1,-2.968900800E-1,9.035993576E0,1.115732074E0
8.938638650E-1,-2.897072434E-1,9.117398262E0,1.110943556E0
8.958636650E-1,-2.801301479E-1,9.308940887E0,1.098972082E0
8.978633980E-1,-2.777358890E-1,9.390345573E0,1.082212210E0
8.998631310E-1,-2.298503816E-1,9.579493523E0,1.046298146E0
9.018628640E-1,-1.891477108E-1,9.665687561E0,9.816526771E-1
9.038625970E-1,-1.723877788E-1,9.838075638E0,9.337671995E-1
9.058623300E-1,-1.197137386E-1,9.984126091E0,8.475732803E-1
9.078620630E-1,-1.149251908E-1,1.005595398E1,8.068706393E-1
9.098617960E-1,-7.182824425E-3,1.026904488E1,5.937801600E-1
9.118615960E-1,1.675992459E-2,1.032650757E1,5.387118459E-1
9.138611960E-1,1.675992459E-2,1.032650757E1,5.387118459E-1
9.158609620E-1,3.591412306E-2,1.041030693E1,4.142095447E-1
9.178607280E-1,4.309694469E-2,1.049650097E1,2.944957912E-1
9.198604940E-1,5.267404765E-2,1.052044392E1,2.370332032E-1
9.218602600E-1,9.577099234E-2,1.055875206E1,1.292908341E-1
9.238600930E-1,1.101366431E-1,1.057551193E1,-9.577099234E-3
9.258599260E-1,1.173194647E-1,1.059706020E1,-6.225114316E-2
9.278597590E-1,1.173194647E-1,1.064973450E1,-1.915419847E-1
9.298596250E-1,1.077423692E-1,1.069043732E1,-4.620950520E-1
9.318594910E-1,1.077423692E-1,1.070480251E1,-4.620950520E-1
9.338593570E-1,9.816526622E-2,1.070959091E1,-5.075862408E-1
9.358592230E-1,8.140534163E-2,1.070959091E1,-5.411061049E-1
9.378590890E-1,2.154847234E-2,1.069283104E1,-5.674431324E-1
9.398589550E-1,-4.309694469E-2,1.068085957E1,-5.482889414E-1
9.418588880E-1,-6.225114316E-2,1.066170597E1,-5.147690773E-1
9.438588210E-1,-1.029538140E-1,1.061382008E1,-4.094209969E-1
9.458587540E-1,-1.604164094E-1,1.055396366E1,-3.016786277E-1
9.478586870E-1,-1.915419847E-1,1.052523232E1,-2.418217510E-1
9.498586200E-1,-2.226675600E-1,1.041270161E1,4.788549617E-2
9.518585530E-1,-2.226675600E-1,1.041270161E1,4.788549617E-2
9.538584860E-1,-2.083019018E-1,1.037678719E1,1.292908341E-1
9.558584190E-1,-1.915419847E-1,1.030974770E1,2.968900800E-1
9.578584190E-1,-1.891477108E-1,1.027143860E1,3.759011328E-1
9.598583850E-1,-1.771763414E-1,1.021158218E1,5.027977228E-1
9.618583510E-1,-1.292908341E-1,1.018524456E1,6.201171875E-1
9.638583170E-1,-1.125309169E-1,1.017327404E1,6.656084061E-1
9.658582830E-1,-4.070267081E-2,1.014693642E1,7.685621977E-1
9.678582490E-1,2.394274808E-3,1.013496494E1,8.116591573E-1
9.698582150E-1,1.604164094E-1,1.007271385E1,9.217957854E-1
9.718581810E-1,1.915419847E-1,1.003919411E1,9.624984860E-1
9.738589140E-1,1.915419847E-1,1.003919411E1,9.624984860E-1
9.758588800E-1,2.490045726E-1,9.998491287E0,1.029538155E0
9.778588460E-1,2.825244367E-1,9.991309166E0,1.094183564E0
9.798588120E-1,3.064671755E-1,9.986519814E0,1.120520592E0
9.818587780E-1,3.112557232E-1,9.969759941E0,1.185166001E0
9.838587440E-1,3.304099143E-1,9.960183144E0,1.240234375E0
9.858587100E-1,3.232271075E-1,9.948211670E0,1.256994247E0
9.878586760E-1,3.112557232E-1,9.933846474E0,1.304879785E0
9.898586090E-1,2.849186957E-1,9.926663399E0,1.321639657E0
9.918585090E-1,2.849186957E-1,9.926663399E0,1.321639657E0
9.938584090E-1,2.681587934E-1,9.919480324E0,1.316851139E0
9.958583090E-1,2.346389294E-1,9.902720451E0,1.319245458E0
9.978582090E-1,1.484450400E-1,9.857229233E0,1.333611012E0
9.998581090E-1,7.901106775E-2,9.802161217E0,1.321639657E0
1.001858009E0,3.351984918E-2,9.785401344E0,1.304879785E0
1.003857909E0,-6.703969836E-2,9.730332375E0,1.259388566E0
1.005857809E0,-1.915419847E-1,9.670475960E0,1.225868702E0
1.007857709E0,-2.537931204E-1,9.634561539E0,1.211503029E0
1.009857609E0,-4.764606953E-1,9.481328011E0,1.132491946E0
1.011857509E0,-4.764606953E-1,9.481328011E0,1.132491946E0
1.013857809E0,-5.267404318E-1,9.445414543E0,1.113337755E0
1.015857709E0,-6.344828010E-1,9.390345573E0,1.072635174E0
1.017857609E0,-6.775797606E-1,9.354432106E0,1.063058019E0
1.019857542E0,-7.134938836E-1,9.280209541E0,1.036720991E0
1.021857408E0,-7.302538157E-1,9.227535248E0,1.005595446E0
1.023857274E0,-7.422251701E-1,9.203592300E0,9.816526771E-1
1.025857140E0,-7.254652381E-1,9.194015503E0,9.313728809E-1
1.027857006E0,-7.206767201E-1,9.177255630E0,8.978530765E-1
1.029856872E0,-6.608198285E-1,9.191620827E0,7.541965842E-1
1.031856738E0,-6.608198285E-1,9.191620827E0,7.541965842E-1
1.033855404E0,-6.608198285E-1,9.191620827E0,7.541965842E-1
1.035855304E0,-6.177229285E-1,9.205986977E0,7.230709791E-1
1.037855137E0,-5.602602959E-1,9.205986977E0,6.775797606E-1
1.039854970E0,-5.363175869E-1,9.220352173E0,6.440598965E-1
1.041854803E0,-4.668835998E-1,9.258660316E0,5.985686779E-1
1.043854636E0,-3.830839694E-1,9.299363136E0,6.129343510E-1
1.045854469E0,-3.447755575E-1,9.328094482E0,6.320885420E-1
1.047854302E0,-2.394274771E-1,9.373585701E0,6.871568561E-1
1.049854135E0,-9.337671846E-2,9.469356537E0,7.446194887E-1
1.051854001E0,-9.337671846E-2,9.469356537E0,7.446194887E-1
1.053853801E0,-6.225114316E-2,9.502876282E0,7.446194887E-1
1.055853601E0,-2.394274808E-3,9.557945251E0,7.589851022E-1
1.057853401E0,2.394274808E-2,9.567522049E0,7.733507752E-1
1.059853201E0,1.053480953E-1,9.615407944E0,7.901107073E-1
1.061853001E0,1.532335877E-1,9.636956215E0,8.020820618E-1
1.063852801E0,2.035133541E-1,9.648927689E0,8.068706393E-1
1.065852601E0,2.370332032E-1,9.680052757E0,8.379961848E-1
1.067852401E0,2.490045726E-1,9.677659035E0,8.547561169E-1
1.069852134E0,3.567469418E-1,9.694418907E0,9.146129489E-1
1.071851867E0,3.567469418E-1,9.694418907E0,9.146129489E-1
1.073851500E0,3.902668059E-1,9.699207306E0,9.289786220E-1
1.075851233E0,4.764606953E-1,9.706390381E0,9.553156495E-1
1.077850966E0,5.506832004E-1,9.677659035E0,9.648927450E-1
1.079850699E0,5.746259689E-1,9.660899162E0,9.840469360E-1
1.081850499E0,6.033572555E-1,9.641744614E0,1.000806928E0
1.083851299E0,6.656084061E-1,9.622590065E0,1.012778282E0
1.085851032E0,6.895511150E-1,9.615407944E0,1.046298146E0
1.087850765E0,7.206767201E-1,9.591464996E0,1.067846537E0
1.089850131E0,7.757450342E-1,9.490905762E0,1.091789365E0
1.091849864E0,7.757450342E-1,9.490905762E0,1.091789365E0
1.093851197E0,7.829278708E-1,9.471751213E0,1.110943556E0
1.095850930E0,8.020820618E-1,9.459779739E0,1.132491946E0
1.097850730E0,8.427847624E-1,9.419076920E0,1.175588965E0
1.099850530E0,8.571503758E-1,9.397528648E0,1.228263021E0
1.101850263E0,8.571503758E-1,9.378374100E0,1.273754239E0
1.103849996E0,8.284190893E-1,9.330489159E0,1.340793848E0
1.105849729E0,8.260248303E-1,9.311334610E0,1.359948039E0
1.107849462E0,8.140534163E-1,9.253871918E0,1.436564922E0
1.109849195E0,8.092648983E-1,9.148524284E0,1.525153041E0
1.111848928E0,8.092648983E-1,9.148524284E0,1.525153041E0
1.113848728E0,8.116591573E-1,9.122186661E0,1.520364523E0
1.115848461E0,8.212362528E-1,9.088666916E0,1.546701550E0
1.117848194E0,8.332076073E-1,9.062330246E0,1.575432777E0
1.119847927E0,8.499675393E-1,9.000079155E0,1.649655342E0
1.121847660E0,8.427847624E-1,8.947404861E0,1.721483588E0
1.123847393E0,8.356019258E-1,8.921068192E0,1.745426297E0
1.125847126E0,8.140534163E-1,8.851634026E0,1.822043180E0
1.127846859E0,8.164477348E-1,8.818114281E0,1.867534399E0
1.129846659E0,8.284190893E-1,8.715160370E0,1.987248063E0
1.131846359E0,8.284190893E-1,8.715160370E0,1.987248063E0
1.133845792E0,8.236305118E-1,8.691217422E0,2.008796453E0
1.135845525E0,8.284190893E-1,8.669669151E0,2.032739401E0
1.137845258E0,8.475732803E-1,8.621783257E0,2.061470509E0
1.139844991E0,8.643332124E-1,8.600234985E0,2.087807655E0
1.141844724E0,8.810931444E-1,8.552350044E0,2.102173328E0
1.143843457E0,8.667274714E-1,8.516435623E0,2.130904675E0
1.145843257E0,8.667274714E-1,8.504464149E0,2.142875910E0
1.147842990E0,8.523618579E-1,8.463761330E0,2.157241583E0
1.149843090E0,8.619389534E-1,8.427846909E0,2.128510237E0
1.151842823E0,8.619389534E-1,8.427846909E0,2.128510237E0
1.153841889E0,8.547561169E-1,8.423058510E0,2.111750364E0
1.155841622E0,8.547561169E-1,8.420664787E0,2.094990492E0
1.157841355E0,8.667274714E-1,8.432636261E0,2.030344963E0
1.159841088E0,8.739103079E-1,8.415876389E0,1.996825218E0
1.161840888E0,9.050358534E-1,8.415876389E0,1.975276709E0
1.163840388E0,9.361614585E-1,8.456578255E0,1.927391171E0
1.165840121E0,9.553156495E-1,8.518829346E0,1.838803053E0
1.167839854E0,9.696813226E-1,8.557138443E0,1.807677507E0
1.169839587E0,1.012778282E0,8.626572609E0,1.630501151E0
1.171839320E0,1.012778282E0,8.626572609E0,1.630501151E0
1.173839053E0,1.022355318E0,8.631361008E0,1.599375606E0
1.175838853E0,1.036720991E0,8.664880753E0,1.546701550E0
1.177838653E0,1.031932473E0,8.669669151E0,1.527547359E0
1.179838386E0,1.010383964E0,8.660092354E0,1.505998850E0
1.181838119E0,9.936240315E-1,8.662486076E0,1.484450340E0
1.183837852E0,9.816526771E-1,8.655303001E0,1.494027495E0
1.185837585E0,9.553156495E-1,8.636149406E0,1.515576005E0
1.187837318E0,9.577099085E-1,8.609811783E0,1.563461423E0
1.189837051E0,9.984126091E-1,8.605023384E0,1.606558442E0
1.191836884E0,9.984126091E-1,8.605023384E0,1.606558442E0
1.193836617E0,1.055875182E0,8.581081390E0,1.618529797E0
1.195836350E0,1.079817891E0,8.561926842E0,1.671203852E0
1.197836083E0,1.091789365E0,8.566715240E0,1.675992370E0
1.199835816E0,1.103760719E0,8.559532166E0,1.687963724E0
1.201835549E0,1.134886265E0,8.523618698E0,1.731060743E0
1.203835282E0,1.182771802E0,8.470944405E0,1.752609134E0
1.205835015E0,1.209108829E0,8.458972931E0,1.774157643E0
1.207834815E0,1.235445857E0,8.420664787E0,1.790917516E0
1.209834548E0,1.331216812E0,8.399115562E0,1.855562925E0
1.211834281E0,1.331216812E0,8.399115562E0,1.855562925E0
1.213834047E0,1.345582485E0,8.384750366E0,1.867534399E0
1.215833780E0,1.410227895E0,8.356019020E0,1.874717116E0
1.217833513E0,1.472478986E0,8.310527802E0,1.910631299E0
1.219833246E0,1.587404251E0,8.248276711E0,1.941756845E0
1.221832979E0,1.620923996E0,8.233911514E0,1.944151163E0
1.223833012E0,1.699935079E0,8.212362289E0,1.932179809E0
1.225832745E0,1.793311834E0,8.183630943E0,1.884294271E0
1.227832478E0,1.853168726E0,8.164477348E0,1.862745762E0
1.229832211E0,2.018373728E0,8.128562927E0,1.848380208E0
1.231831944E0,2.018373728E0,8.128562927E0,1.848380208E0
1.233831677E0,2.059076309E0,8.133351326E0,1.819648862E0
1.235831410E0,2.111750364E0,8.142929077E0,1.805283189E0
1.237831143E0,2.188367128E0,8.135746002E0,1.810071707E0
1.239830943E0,2.224281311E0,8.130957603E0,1.853168726E0
1.241830676E0,2.276955366E0,8.126168251E0,1.869928598E0
1.243830409E0,2.303292274E0,8.135746002E0,1.889082789E0
1.245830142E0,2.332023621E0,8.138139725E0,1.929785490E0
1.247829875E0,2.382303476E0,8.123774529E0,2.011190891E0
1.249829608E0,2.487651587E0,8.109408379E0,2.169213057E0
1.251829341E0,2.513988495E0,8.116591454E0,2.221887112E0
1.253829141E0,2.540325642E0,8.128562927E0,2.262589693E0
1.255828941E0,2.569056988E0,8.140534401E0,2.305686712E0
1.257828674E0,2.609759569E0,8.152505875E0,2.399063349E0
1.259828407E0,2.662433624E0,8.150111198E0,2.490045786E0
1.261828140E0,2.695953369E0,8.138139725E0,2.533142805E0
1.263827873E0,2.722290516E0,8.150111198E0,2.604970932E0
1.265827606E0,2.734261751E0,8.162082672E0,2.636096478E0
1.267827339E0,2.806090117E0,8.188420296E0,2.700742006E0
1.269827139E0,2.988054991E0,8.229122162E0,2.839609861E0
1.271826939E0,2.988054991E0,8.229122162E0,2.839609861E0
1.273826572E0,3.019180536E0,8.269824982E0,2.837215662E0
1.275826305E0,3.062277555E0,8.344047546E0,2.846792698E0
1.277826038E0,3.110162973E0,8.356019020E0,2.853975534E0
1.279825771E0,3.177202702E0,8.399115562E0,2.849187136E0
1.281825504E0,3.232270956E0,8.420664787E0,2.875524044E0
1.283825870E0,3.292127848E0,8.444606781E0,2.880312681E0
1.285825670E0,3.409447432E0,8.473338127E0,2.897072554E0
1.287825403E0,3.457332850E0,8.487704277E0,2.906649590E0
1.289825136E0,3.660846233E0,8.494887352E0,2.921015263E0
1.291824869E0,3.660846233E0,8.494887352E0,2.921015263E0
1.293824602E0,3.687183142E0,8.485309601E0,2.937775135E0
1.295824335E0,3.725491524E0,8.461367607E0,2.971295118E0
1.297824068E0,3.773377180E0,8.427846909E0,2.995237827E0
1.299823801E0,3.780560017E0,8.399115562E0,2.997632027E0
1.301823601E0,3.792531252E0,8.351230621E0,3.009603500E0
1.303823334E0,3.804502726E0,8.341653824E0,3.014391899E0
1.305823067E0,3.799714088E0,8.300951004E0,2.997632027E0
1.307822800E0,3.826051235E0,8.238699913E0,2.980872154E0
1.309822533E0,3.835628271E0,8.169265747E0,2.961717844E0
1.311822266E0,3.845205307E0,8.138139725E0,2.956929445E0
1.313821999E0,3.840416908E0,8.104619980E0,2.959323645E0
1.315821732E0,3.833234072E0,8.073494911E0,2.956929445E0
1.317821532E0,3.821262598E0,8.020820618E0,2.901860952E0
1.319821265E0,3.778165579E0,7.960963726E0,2.861158371E0
1.321820998E0,3.761405706E0,7.917866707E0,2.849187136E0
1.323820731E0,3.735068798E0,7.829278469E0,2.870735407E0
1.325820464E0,3.713520288E0,7.788576126E0,2.897072554E0
1.327820197E0,3.708731651E0,7.735901833E0,2.909043789E0
1.329819930E0,3.656057596E0,7.580274105E0,2.956929445E0
1.331819663E0,3.656057596E0,7.580274105E0,2.956929445E0
1.333819396E0,3.622537851E0,7.556331158E0,2.961717844E0
1.335819129E0,3.526766777E0,7.460560322E0,2.980872154E0
1.337818862E0,3.486064196E0,7.419857502E0,2.990449190E0
1.339818595E0,3.387898922E0,7.383943558E0,2.990449190E0
1.341818328E0,3.268185139E0,7.321692467E0,2.964112282E0
1.343817428E0,3.167625666E0,7.283383846E0,2.964112282E0
1.345817161E0,3.014391899E0,7.230710030E0,2.961717844E0
1.347816961E0,3.086220264E0,7.249864101E0,2.935380936E0
1.349816761E0,3.213116884E0,7.379155159E0,2.877918243E0
1.351816494E0,3.246636629E0,7.379155159E0,2.877918243E0
1.353816260E0,3.246636629E0,7.400703430E0,2.863552570E0
1.355816026E0,3.272973776E0,7.429434776E0,2.846792698E0
1.357815792E0,3.237059593E0,7.460560322E0,2.808484316E0
1.359815558E0,3.205934048E0,7.474925995E0,2.767781734E0
1.361815324E0,3.136499882E0,7.522811413E0,2.719896078E0
1.363815157E0,3.098191500E0,7.594639778E0,2.674404860E0
1.365814923E0,3.088614464E0,7.642525196E0,2.655250788E0
1.367814689E0,3.062277555E0,7.757450581E0,2.626519442E0
1.369814455E0,3.081431627E0,7.972935200E0,2.581028223E0
1.371814221E0,3.081431627E0,8.051946640E0,2.585816860E0
1.373813987E0,3.095797300E0,8.128562927E0,2.600182533E0
1.375813753E0,3.102980137E0,8.202785492E0,2.607365370E0
1.377813519E0,3.098191500E0,8.353624344E0,2.621730804E0
1.379813352E0,3.088614464E0,8.540378571E0,2.626519442E0
1.381813118E0,3.088614464E0,8.626572609E0,2.628913641E0
1.383812884E0,3.100585938E0,8.813325882E0,2.628913641E0
1.385812650E0,3.105374336E0,8.995290756E0,2.664827824E0
1.387812416E0,3.122134447E0,9.086273193E0,2.688770533E0
1.389812182E0,3.143682718E0,9.447808266E0,2.794118643E0
1.391811948E0,3.155654192E0,9.534002304E0,2.801301479E0
1.393812148E0,3.155654192E0,9.534002304E0,2.801301479E0
1.395811981E0,3.160442829E0,9.696812630E0,2.801301479E0
1.397811747E0,3.167625666E0,9.775823593E0,2.803695917E0
1.399811513E0,3.201145411E0,9.938634872E0,2.834821463E0
1.401811279E0,3.246636629E0,1.006792545E1,2.889889717E0
1.403811045E0,3.263396502E0,1.012778282E1,2.901860952E0
1.405810378E0,3.292127848E0,1.022594738E1,2.875524044E0
1.407810144E0,3.359167576E0,1.031932449E1,2.849187136E0
1.409809910E0,3.469304085E0,1.042467213E1,2.827638626E0
1.411809743E0,3.505218267E0,1.045819283E1,2.796513081E0
1.413809476E0,3.543526649E0,1.049171257E1,2.755810261E0
1.415809209E0,3.591412306E0,1.051804924E1,2.739050388E0
1.417808942E0,3.668029070E0,1.055875206E1,2.722290516E0
1.419808675E0,3.713520288E0,1.056832886E1,2.707924843E0
1.421808408E0,3.797319889E0,1.057551193E1,2.662433624E0
1.423808141E0,3.871542454E0,1.055875206E1,2.643279314E0
1.425807941E0,3.897879362E0,1.053720379E1,2.636096478E0
1.427807741E0,3.957736254E0,1.049171257E1,2.614548206E0
1.429807474E0,4.010410309E0,1.034805584E1,2.549902678E0
1.431807207E0,4.010410309E0,1.034805584E1,2.549902678E0
1.433806940E0,4.024775982E0,1.030974770E1,2.535537004E0
1.435806673E0,4.048718929E0,1.020200539E1,2.537931204E0
1.437806406E0,4.048718929E0,1.014214802E1,2.554691315E0
1.439806139E0,4.072661400E0,1.000088596E1,2.554691315E0
1.441805939E0,4.087027073E0,9.938634872E0,2.590605259E0
1.443805672E0,4.051113129E0,9.802161217E0,2.650462151E0
1.445805405E0,4.008016109E0,9.680052757E0,2.660039425E0
1.447805138E0,3.998438835E0,9.629773140E0,2.691164970E0
1.449804871E0,4.012804508E0,9.354432106E0,2.973689318E0
1.451804604E0,4.008016109E0,9.289786339E0,3.026363373E0
1.453804037E0,4.008016109E0,9.289786339E0,3.026363373E0
1.455803770E0,3.979284763E0,9.184437752E0,3.083826065E0
1.457803570E0,3.957736254E0,9.081484795E0,3.141288519E0
1.459803303E0,3.943370581E0,9.031204224E0,3.196356773E0
1.461803036E0,3.905062199E0,8.973741531E0,3.351984739E0
1.463802769E0,3.897879362E0,8.964164734E0,3.445361376E0
1.465802935E0,3.869148016E0,8.954587936E0,3.581835032E0
1.467802668E0,3.809291124E0,9.000079155E0,3.689577579E0
1.469802401E0,3.706337452E0,9.131764412E0,3.668029070E0
1.471802134E0,3.706337452E0,9.186832428E0,3.648874760E0
1.473801934E0,3.703943014E0,9.232323647E0,3.646480560E0
1.475801667E0,3.696760416E0,9.287391663E0,3.641691923E0
1.477801400E0,3.675211906E0,9.411893845E0,3.521978140E0
1.479801133E0,3.684788942E0,9.541185379E0,3.340013266E0
1.481800599E0,3.658451796E0,9.613013268E0,3.220299721E0
1.483800332E0,3.608172178E0,9.759063721E0,2.980872154E0
1.485800065E0,3.593806505E0,9.842864037E0,2.844398499E0
1.487799798E0,3.553103924E0,1.001764584E1,2.600182533E0
1.489799598E0,3.435784340E0,1.041030693E1,2.169213057E0
1.491799331E0,3.435784340E0,1.041030693E1,2.169213057E0
1.493799064E0,3.411841631E0,1.051326084E1,2.135693073E0
1.495798797E0,3.328042030E0,1.073114014E1,2.015979290E0
1.497798530E0,3.289733648E0,1.083888245E1,1.922602654E0
1.499798263E0,3.193962574E0,1.111182976E1,1.740637779E0
1.501797996E0,3.119740009E0,1.127464008E1,1.611346960E0
1.503797796E0,2.959323645E0,1.161223316E1,1.388679385E0
1.505797596E0,2.727078915E0,1.197855663E1,1.175588965E0
1.507797329E0,2.609759569E0,1.215812778E1,1.091789365E0
1.509798129E0,2.114144564E0,1.285725594E1,9.481328130E-1
1.511797862E0,1.980065227E0,1.300570107E1,9.170072675E-1
1.513797595E0,1.980065227E0,1.300570107E1,9.170072675E-1
1.515797328E0,1.654443860E0,1.332653332E1,8.164477348E-1
1.517797061E0,1.309668303E0,1.363539505E1,6.871568561E-1
1.519796861E0,1.132491946E0,1.376468563E1,6.105400920E-1
1.521796661E0,7.853221297E-1,1.398256493E1,3.495641351E-1
1.523796394E0,4.812492430E-1,1.418847275E1,7.661679387E-2
1.525796127E0,3.232271075E-1,1.426987743E1,-5.267404765E-2
1.527795860E0,2.394274808E-2,1.442071724E1,-3.256213665E-1
1.529795593E0,-4.357580245E-1,1.467929840E1,-1.010383964E0
1.531795326E0,-4.357580245E-1,1.467929840E1,-1.010383964E0
1.533795059E0,-4.932205975E-1,1.473915577E1,-1.168406129E0
1.535794859E0,-5.075862408E-1,1.480380154E1,-1.312062621E0
1.537794592E0,-5.339232683E-1,1.490436077E1,-1.532335877E0
1.539794325E0,-5.578660369E-1,1.499294853E1,-1.702329397E0
1.541794325E0,-5.842030644E-1,1.502407455E1,-1.778946161E0
1.543794058E0,-6.680026650E-1,1.506956577E1,-1.889082789E0
1.545793791E0,-7.685621977E-1,1.506477737E1,-1.929785490E0
1.547793524E0,-8.451790214E-1,1.503843975E1,-1.915419817E0
1.549793257E0,-1.266571403E0,1.488999462E1,-1.482056141E0
1.551793057E0,-1.266571403E0,1.488999462E1,-1.482056141E0
1.553793023E0,-1.383890867E0,1.483013821E1,-1.266571403E0
1.555792756E0,-1.596981287E0,1.473676109E1,-7.039167881E-1
1.557792489E0,-1.714300752E0,1.466732788E1,-4.142095447E-1
1.559792222E0,-1.896265626E0,1.448057365E1,2.035133541E-1
1.561791955E0,-1.924996972E0,1.426030064E1,8.116591573E-1
1.563791688E0,-1.910631299E0,1.414537525E1,1.110943556E0
1.565791421E0,-1.850774407E0,1.384609127E1,1.702329397E0
1.567791221E0,-1.759791970E0,1.351807594E1,2.262589693E0
1.569789887E0,-1.599375606E0,1.270641613E1,3.129317284E0
1.571789620E0,-1.599375606E0,1.270641613E1,3.129317284E0
1.573789353E0,-1.599375606E0,1.270641613E1,3.129317284E0
1.575789086E0,-1.443747759E0,1.225868702E1,3.342407703E0
1.577788819E0,-1.209108829E0,1.178701496E1,3.426207304E0
1.579788552E0,-1.077423692E0,1.154998207E1,3.387898922E0
1.581788852E0,-7.948992252E-1,1.104000092E1,3.217905283E0
1.583788652E0,-4.549122155E-1,1.050368404E1,2.961717844E0
1.585788385E0,-3.016786277E-1,1.024749660E1,2.798907280E0
1.587788118E0,-1.436564885E-2,9.732727051E0,2.451737404E0
1.589787851E0,4.549122155E-1,8.739103317E0,1.721483588E0
1.591787584E0,4.549122155E-1,8.739103317E0,1.721483588E0
1.593787317E0,5.339232683E-1,8.502069473E0,1.537124395E0
1.595787050E0,5.889915824E-1,8.262641907E0,1.345582485E0
1.597786850E0,6.560313106E-1,7.819701672E0,9.720755816E-1
1.599786650E0,6.656084061E-1,7.391126156E0,6.201171875E-1
1.601786383E0,6.584255695E-1,7.192401409E0,4.644893110E-1
1.603786116E0,6.105400920E-1,6.823683262E0,1.723877788E-1
1.605785849E0,5.435003638E-1,6.464541912E0,-7.182824612E-2
1.607785582E0,5.004034638E-1,6.316096783E0,-1.795706153E-1
1.609785315E0,3.399870098E-1,5.789356709E0,-5.339232683E-1
1.611785048E0,3.399870098E-1,5.789356709E0,-5.339232683E-1
1.613784181E0,3.016786277E-1,5.705556870E0,-5.937801600E-1
1.615783914E0,2.083019018E-1,5.564294815E0,-6.991282701E-1
1.617783580E0,1.628106833E-1,5.504437923E0,-7.470137477E-1
1.619783313E0,8.140534163E-2,5.446975231E0,-8.212362528E-1
1.621783046E0,4.788549617E-3,5.454157829E0,-9.026415944E-1
1.623782779E0,-3.830839694E-2,5.478100777E0,-9.313728809E-1
1.625782512E0,-1.364736706E-1,5.566689014E0,-9.768640995E-1
1.627782245E0,-2.466102988E-1,5.700768471E0,-1.007989645E0
1.629782045E0,-4.261809289E-1,6.062304020E0,-9.936240315E-1
1.631781778E0,-4.261809289E-1,6.062304020E0,-9.936240315E-1
1.633781511E0,-4.333637357E-1,6.182017326E0,-9.792584181E-1
1.635781244E0,-4.429408312E-1,6.316096783E0,-9.624984860E-1
1.637780977E0,-3.088614643E-1,6.624958515E0,-1.000806928E0
1.639780710E0,-2.609759569E-1,6.773403645E0,-1.012778282E0
1.641779876E0,-3.447755575E-1,7.055927753E0,-1.027143836E0
1.643779609E0,-4.429408312E-1,7.326480865E0,-9.960182905E-1
1.645779409E0,-4.620950520E-1,7.472531796E0,-9.696813226E-1
1.647779142E0,-4.118152559E-1,7.759844780E0,-9.241901040E-1
1.649778875E0,1.508393139E-1,8.430241585E0,-8.882759809E-1
1.651778608E0,1.508393139E-1,8.430241585E0,-8.882759809E-1
1.653777908E0,3.423812985E-1,8.597841263E0,-8.715160489E-1
1.655777641E0,7.685621977E-1,8.921068192E0,-8.379961848E-1
1.657777374E0,1.000806928E0,9.083878517E0,-8.308133483E-1
1.659777107E0,1.467690468E0,9.349642754E0,-7.948992252E-1
1.661776907E0,1.922602654E0,9.483722687E0,-7.709565163E-1
1.663776640E0,2.152452946E0,9.751881599E0,-6.967339516E-1
1.665776373E0,2.652856588E0,9.964971542E0,-6.081457734E-1
1.667776106E0,2.894678354E0,1.006074238E1,-5.530774593E-1
1.669775839E0,3.711125851E0,1.039115238E1,-3.902668059E-1
1.671775572E0,3.711125851E0,1.039115238E1,-3.902668059E-1
1.673775338E0,3.895485163E0,1.047255802E1,-3.854782581E-1
1.675775138E0,4.194769382E0,1.059706020E1,-3.351984620E-1
1.677775004E0,4.419831276E0,1.074071693E1,-2.657645047E-1
1.679774737E0,4.494053841E0,1.080057335E1,-2.154847383E-1
1.681774470E0,4.585036278E0,1.085564232E1,-1.077423692E-1
1.683774203E0,4.637710094E0,1.087000751E1,-5.027977005E-2
1.685773936E0,4.632921696E0,1.085324764E1,7.422251999E-2
1.687773669E0,4.623344421E0,1.065691757E1,2.011190802E-1
1.689773402E0,4.529967785E0,1.054678059E1,5.387118459E-1
1.691773168E0,4.529967785E0,1.054678059E1,5.387118459E-1
1.693773301E0,4.438985348E0,1.057790565E1,6.440598965E-1
1.695773034E0,4.309694767E0,1.060424328E1,7.278595567E-1
1.697772767E0,3.981678963E0,1.061621475E1,8.930644989E-1
1.699772500E0,3.608172178E0,1.055396366E1,1.027143836E0
1.701772233E0,3.411841631E0,1.051804924E1,1.096577883E0
1.703771966E0,2.988054991E0,1.040791225E1,1.228263021E0
1.705771699E0,2.566662550E0,1.035763264E1,1.290514112E0
1.707771499E0,2.348783493E0,1.025467873E1,1.388679385E0
1.709771232E0,1.453324795E0,9.991309166E0,1.534730196E0
1.711770965E0,1.453324795E0,9.991309166E0,1.534730196E0
1.713770731E0,1.256994247E0,9.907508850E0,1.549095750E0
1.715770464E0,8.691217303E-1,9.751881599E0,1.582615614E0
1.717770197E0,6.727912426E-1,9.701601982E0,1.604164124E0
1.719769930E0,3.160442710E-1,9.553156853E0,1.640078187E0
1.721769663E0,2.154847234E-2,9.450202942E0,1.632895470E0
1.723769463E0,-1.053480953E-1,9.392740250E0,1.616135478E0
1.725769196E0,-3.136500120E-1,9.289786339E0,1.544307232E0
1.727768929E0,-4.525179267E-1,9.244295120E0,1.491633177E0
1.729768662E0,-5.818088055E-1,9.071907043E0,1.297696948E0
1.731768395E0,-6.057515144E-1,9.071907043E0,1.235445857E0
1.733768828E0,-6.057515144E-1,9.024022102E0,1.235445857E0
1.735768561E0,-6.392713785E-1,8.961771011E0,1.110943556E0
1.737768294E0,-6.464542150E-1,8.849239349E0,9.936240315E-1
1.739768094E0,-6.368771195E-1,8.789382935E0,9.409499764E-1
1.741767860E0,-6.033572555E-1,8.686429024E0,8.188419938E-1
1.743767626E0,-5.842030644E-1,8.597841263E0,7.470137477E-1
1.745767392E0,-5.530774593E-1,8.552350044E0,7.063110471E-1
1.747767158E0,-4.381522834E-1,8.468549728E0,6.057515144E-1
1.749766924E0,-1.292908341E-1,8.327287674E0,4.189980924E-1
1.751766724E0,-1.292908341E-1,8.327287674E0,4.189980924E-1
1.753765890E0,-5.267404765E-2,8.310527802E0,3.854782581E-1
1.755765723E0,1.675992459E-2,8.284191132E0,3.543526828E-1
1.757765489E0,1.412622184E-1,8.217150688E0,3.136500120E-1
1.759765255E0,2.561874092E-1,8.164477348E0,2.418217510E-1
1.761765021E0,3.256213665E-1,8.133351326E0,2.011190802E-1
1.763764787E0,4.620950520E-1,8.171659470E0,1.723877788E-1
1.765764553E0,5.626545548E-1,8.315316200E0,1.747820675E-1
1.767764319E0,6.177229285E-1,8.391933441E0,1.795706153E-1
1.769764152E0,8.332076073E-1,8.729525566E0,1.436564922E-1
1.771763985E0,8.332076073E-1,8.729525566E0,1.436564922E-1
1.773763718E0,8.906702399E-1,8.822902679E0,1.173194647E-1
1.775763484E0,1.012778282E0,9.026415825E0,6.943397224E-2
1.777763250E0,1.089395046E0,9.119792938E0,3.830839694E-2
1.779763016E0,1.197137356E0,9.304151535E0,-4.788549617E-3
1.781762782E0,1.297696948E0,9.498087883E0,-2.154847234E-2
1.783762548E0,1.340793848E0,9.586676598E0,-1.436564885E-2
1.785761781E0,1.419804931E0,9.756669998E0,-1.436564885E-2
1.787761547E0,1.465296149E0,9.902720451E0,1.197137404E-2
1.789761313E0,1.544307232E0,1.010862827E1,1.268965602E-1
1.791761079E0,1.573038578E0,1.017566776E1,1.628106833E-1
1.793761345E0,1.606558442E0,1.023791885E1,1.891477108E-1
1.795761111E0,1.620923996E0,1.026904488E1,2.059076279E-1
1.797760877E0,1.640078187E0,1.033129597E1,2.825244367E-1
1.799760643E0,1.652049661E0,1.037678719E1,3.112557232E-1
1.801760443E0,1.690358043E0,1.047495270E1,3.256213665E-1
1.803760176E0,1.771763325E0,1.055156898E1,3.016786277E-1
1.805759909E0,1.826831698E0,1.058748341E1,2.801301479E-1
1.807759642E0,1.936968327E0,1.062579155E1,2.418217510E-1
1.809759375E0,2.159635782E0,1.061860847E1,2.394274771E-1
1.811759108E0,2.159635782E0,1.061860847E1,2.394274771E-1
1.813758674E0,2.197944164E0,1.060903168E1,2.346389294E-1
1.815758407E0,2.298503876E0,1.059945488E1,2.130904645E-1
1.817758207E0,2.336812258E0,1.053720379E1,2.106961906E-1
1.819757940E0,2.396669149E0,1.044143200E1,2.226675600E-1
1.821757673E0,2.420611858E0,1.037678719E1,2.130904645E-1
1.823757406E0,2.490045786E0,1.019721603E1,2.394274771E-1
1.825757139E0,2.530748367E0,1.004398251E1,2.442160249E-1
1.827756872E0,2.554691315E0,9.950606346E0,2.322446555E-1
1.829756605E0,2.645673752E0,9.636956215E0,1.436564922E-1
1.831756338E0,2.645673752E0,9.636956215E0,1.436564922E-1
1.833756838E0,2.681587696E0,9.593858719E0,8.140534163E-2
1.835756571E0,2.691164970E0,9.534002304E0,-1.915419847E-2
1.837756304E0,2.669616461E0,9.493299484E0,-9.577099234E-2
1.839756037E0,2.664827824E0,9.402317047E0,-1.292908341E-1
1.841755770E0,2.626519442E0,9.344854355E0,-1.987248063E-1
1.843755503E0,2.588211060E0,9.323306084E0,-2.035133541E-1
1.845755836E0,2.492439985E0,9.308940887E0,-2.059076279E-1
1.847755636E0,2.360754967E0,9.296969414E0,-2.011190802E-1
1.849755436E0,2.169213057E0,9.299363136E0,-1.867534369E-1
1.851755169E0,2.109356165E0,9.289786339E0,-1.939362586E-1
1.853754335E0,2.051893473E0,9.256266594E0,-1.939362586E-1
1.855754068E0,1.984853864E0,9.215563774E0,-1.771763414E-1
1.857753801E0,1.843591571E0,9.179649353E0,-1.412622184E-1
1.859753534E0,1.702329397E0,9.198803902E0,-1.412622184E-1
1.861753267E0,1.642472506E0,9.210775375E0,-1.556278616E-1
1.863753067E0,1.529941559E0,9.246688843E0,-1.652049571E-1
1.865752800E0,1.460507631E0,9.251478195E0,-1.723877788E-1
1.867752533E0,1.290514112E0,9.253871918E0,-2.226675600E-1
1.869752266E0,9.217957854E-1,9.258660316E0,-1.939362586E-1
1.871751999E0,9.217957854E-1,9.258660316E0,-1.939362586E-1
1.873752099E0,8.523618579E-1,9.249083519E0,-1.747820675E-1
1.875751832E0,7.589851022E-1,9.268238068E0,-1.819648892E-1
1.877751565E0,6.991282701E-1,9.270631790E0,-1.723877788E-1
1.879751365E0,5.961744189E-1,9.256266594E0,-1.340793967E-1
1.881751098E0,5.099805593E-1,9.261054993E0,-9.337671846E-2
1.883750831E0,4.836435020E-1,9.232323647E0,-7.422251999E-2
1.885750564E0,4.429408312E-1,9.210775375E0,-4.549122229E-2
1.887750297E0,4.309694767E-1,9.210775375E0,-2.394274808E-2
1.889750030E0,3.854782581E-1,9.213169098E0,-1.005595401E-1
1.891749763E0,3.854782581E-1,9.213169098E0,-1.005595401E-1
1.893749329E0,3.735068738E-1,9.217958450E0,-1.173194647E-1
1.895749129E0,3.735068738E-1,9.215563774E0,-1.149251908E-1
1.897748862E0,4.213923812E-1,9.234718323E0,-1.340793967E-1
1.899748595E0,4.381522834E-1,9.234718323E0,-1.460507661E-1
1.901748328E0,4.692778587E-1,9.215563774E0,-1.556278616E-1
1.903748061E0,4.980091453E-1,9.239506721E0,-1.412622184E-1
1.905747794E0,5.147690773E-1,9.270631790E0,-1.508393139E-1
1.907747527E0,5.674431324E-1,9.323306084E0,-1.675992310E-1
1.909747260E0,6.536370516E-1,9.344854355E0,-1.819648892E-1
1.911747026E0,6.536370516E-1,9.337671280E0,-1.628106833E-1
1.913746526E0,6.919454336E-1,9.352037430E0,-1.340793967E-1
1.915746259E0,7.110996246E-1,9.383162498E0,-1.101366431E-1
1.917745992E0,7.230709791E-1,9.476539612E0,-6.464541703E-2
1.919745725E0,7.158881426E-1,9.553156853E0,-1.436564885E-2
1.921745458E0,6.967339516E-1,9.593858719E0,-2.394274808E-3
1.923745191E0,7.015225291E-1,9.629773140E0,2.154847234E-2
1.925744991E0,7.230709791E-1,9.718361855E0,7.422251999E-2
1.927744791E0,7.398309112E-1,9.739910126E0,9.098244458E-2
1.929744524E0,7.757450342E-1,9.838075638E0,1.197137386E-1
1.931744257E0,7.805336118E-1,9.835680962E0,1.173194647E-1
1.933744423E0,7.805336118E-1,9.835680962E0,1.173194647E-1
1.935744156E0,7.948992252E-1,9.830892563E0,1.005595401E-1
1.937743656E0,8.092648983E-1,9.833286285E0,1.077423692E-1
1.939743389E0,8.499675393E-1,9.818921089E0,1.221080124E-1
1.941743189E0,8.595446348E-1,9.802161217E0,1.484450400E-1
1.943742922E0,8.763045669E-1,9.794978142E0,1.604164094E-1
1.945742655E0,9.146129489E-1,9.775823593E0,1.771763414E-1
1.947742388E0,9.361614585E-1,9.663292885E0,1.891477108E-1
1.949742554E0,9.936240315E-1,9.553156853E0,2.202732861E-1
1.951742287E0,9.936240315E-1,9.553156853E0,2.202732861E-1
1.953742320E0,1.019961119E0,9.512454033E0,2.322446555E-1
1.955742053E0,1.027143836E0,9.435836792E0,2.633702159E-1
1.957741853E0,1.096577883E0,9.366402626E0,2.681587934E-1
1.959741586E0,1.127703428E0,9.335277557E0,2.609759569E-1
1.961741319E0,1.173194647E0,9.265843391E0,2.346389294E-1
1.963741052E0,1.216291547E0,9.203592300E0,2.226675600E-1
1.965741118E0,1.240234375E0,9.179649353E0,2.106961906E-1
1.967740484E0,1.297696948E0,9.141341209E0,1.915419847E-1
1.969740217E0,1.381496549E0,9.079090118E0,1.388679445E-1
1.971739983E0,1.381496549E0,9.079090118E0,1.388679445E-1
1.973739949E0,1.386285067E0,9.040781975E0,1.173194647E-1
1.975739682E0,1.415016413E0,9.012050629E0,1.005595401E-1
1.977739415E0,1.472478986E0,9.028810501E0,8.858817071E-2
1.979739148E0,1.556278586E0,9.047964096E0,4.788549617E-2
1.981738881E0,1.613741279E0,9.024022102E0,1.915419847E-2
1.983738614E0,1.711906433E0,8.925856590E0,-7.422251999E-2
1.985738347E0,1.632895470E0,8.676852226E0,-1.364736706E-1
1.987738080E0,1.556278586E0,8.602629662E0,-1.245022863E-1
1.989737880E0,1.376708031E0,8.837267876E0,2.154847234E-2
1.991737613E0,1.376708031E0,8.837267876E0,2.154847234E-2
1.993737379E0,1.333611012E0,8.937828064E0,5.027977005E-2
1.995737112E0,1.254600048E0,9.129369736E0,1.029538140E-1
1.997737078E0,1.247417212E0,9.220352173E0,1.316851079E-1
1.999736811E0,1.218685865E0,9.409500122E0,2.202732861E-1
2.001736544E0,1.211503029E0,9.596253395E0,2.873129845E-1
2.003736344E0,1.228263021E0,9.675264359E0,2.992843390E-1
2.005736144E0,1.254600048E0,9.799766541E0,3.304099143E-1
2.007735910E0,1.261782765E0,9.909903526E0,3.399870098E-1
2.009735243E0,1.209108829E0,9.986519814E0,2.250618339E-1
2.011735009E0,1.187560320E0,9.993702888E0,1.699935049E-1
2.013734375E0,1.192348838E0,1.001285744E1,1.197137386E-1
2.015734141E0,1.209108829E0,1.001285744E1,9.337671846E-2
2.017733907E0,1.197137356E0,9.938634872E0,2.394274808E-3
2.019733740E0,1.209108829E0,9.900326729E0,-4.788549617E-2
2.021733573E0,1.223474383E0,9.809344292E0,-7.901106775E-2
2.023733439E0,1.209108829E0,9.744698524E0,-1.292908341E-1
2.025732972E0,1.197137356E0,9.718361855E0,-1.604164094E-1
2.027733205E0,1.177983165E0,9.672870636E0,-2.202732861E-1
2.029733071E0,1.115732074E0,9.608224869E0,-2.825244367E-1
2.031732937E0,1.115732074E0,9.608224869E0,-2.825244367E-1
2.033732637E0,1.094183564E0,9.584281921E0,-2.825244367E-1
2.035732570E0,1.039115310E0,9.534002304E0,-2.753416002E-1
2.037732503E0,1.017566800E0,9.514847755E0,-2.777358890E-1
2.039732436E0,9.529213905E-1,9.483722687E0,-2.705530524E-1
2.041733102E0,8.930644989E-1,9.464568138E0,-2.585816681E-1
2.043733035E0,8.451790214E-1,9.414288521E0,-2.466102988E-1
2.045732968E0,7.901107073E-1,9.385557175E0,-2.657645047E-1
2.047732901E0,7.589851022E-1,9.383162498E0,-2.681587934E-1
2.049732834E0,6.320885420E-1,9.359220505E0,-2.992843390E-1
2.051732834E0,6.009629965E-1,9.352037430E0,-3.280156553E-1
2.053732934E0,6.009629965E-1,9.352037430E0,-3.280156553E-1
2.055732900E0,5.339232683E-1,9.359220505E0,-3.782954216E-1
2.057732866E0,4.788549542E-1,9.368797302E0,-4.261809289E-1
2.059732832E0,4.573064744E-1,9.366402626E0,-4.357580245E-1
2.061732798E0,3.950553536E-1,9.352037430E0,-4.716721475E-1
2.063732764E0,3.782954216E-1,9.337671280E0,-4.932205975E-1
2.065732730E0,3.328042030E-1,9.344854355E0,-5.219519138E-1
2.067732730E0,3.112557232E-1,9.368797302E0,-5.363175869E-1
2.069732696E0,2.753416002E-1,9.375980377E0,-5.937801600E-1
2.071732629E0,2.490045726E-1,9.402317047E0,-6.129343510E-1
2.073732629E0,2.274561077E-1,9.428654671E0,-6.201171875E-1
2.075732595E0,2.083019018E-1,9.440625191E0,-6.273000240E-1
2.077732561E0,1.867534369E-1,9.397528648E0,-6.608198285E-1
2.079732527E0,1.436564922E-1,9.337671280E0,-7.039167881E-1
2.081732493E0,1.268965602E-1,9.308940887E0,-7.182824612E-1
2.083732426E0,1.053480953E-1,9.265843391E0,-7.446194887E-1
2.085732359E0,1.197137386E-1,9.241900444E0,-7.518022656E-1
2.087732292E0,1.268965602E-1,9.179649353E0,-7.565908432E-1
2.089732225E0,2.298503816E-1,9.194015503E0,-8.164477348E-1
2.091732125E0,2.298503816E-1,9.194015503E0,-8.164477348E-1
2.093732325E0,2.705530524E-1,9.215563774E0,-8.236305118E-1
2.095732258E0,3.208328187E-1,9.270631790E0,-8.188419938E-1
2.097732191E0,3.471698463E-1,9.289786339E0,-8.092648983E-1
2.099732124E0,3.782954216E-1,9.366402626E0,-7.972934842E-1
2.101731257E0,4.453351200E-1,9.454991341E0,-8.284190893E-1
2.103731123E0,4.956148863E-1,9.507665634E0,-8.547561169E-1
2.105730989E0,5.650488734E-1,9.613013268E0,-9.074301720E-1
2.107730855E0,6.392713785E-1,9.646533012E0,-9.241901040E-1
2.109730721E0,6.751855016E-1,9.744698524E0,-9.792584181E-1
2.111730587E0,6.751855016E-1,9.744698524E0,-9.792584181E-1
2.113730020E0,6.751855016E-1,9.744698524E0,-9.792584181E-1
2.115729853E0,7.182824612E-1,9.715967178E0,-1.017566800E0
2.117729686E0,7.901107073E-1,9.747093201E0,-1.058269501E0
2.119729519E0,7.805336118E-1,9.708784103E0,-1.067846537E0
2.121729352E0,7.757450342E-1,9.653716087E0,-1.072635174E0
2.123729185E0,7.350423932E-1,9.773429871E0,-1.043903828E0
2.125729018E0,7.326480746E-1,9.871595383E0,-1.024749637E0
2.127728851E0,7.518022656E-1,1.011102295E1,-9.505270720E-1
2.129728717E0,7.326480746E-1,1.038636398E1,-6.943396926E-1
2.131728550E0,7.326480746E-1,1.042946148E1,-6.943396926E-1
2.133728150E0,7.063110471E-1,1.046537495E1,-6.296942830E-1
2.135727950E0,6.727912426E-1,1.047974110E1,-5.626545548E-1
2.137727750E0,5.578660369E-1,1.041749001E1,-4.309694767E-1
2.139727550E0,3.830839694E-1,1.020200539E1,-3.304099143E-1
2.141727350E0,3.208328187E-1,1.007989693E1,-2.897072434E-1
2.143727150E0,2.753416002E-1,9.859623909E0,-2.226675600E-1
2.145726950E0,2.633702159E-1,9.720755577E0,-1.197137386E-1
2.147726683E0,2.777358890E-1,9.677659035E0,-1.436564922E-1
2.149726416E0,2.083019018E-1,9.548367500E0,-2.442160249E-1
2.151726149E0,2.083019018E-1,9.548367500E0,-2.442160249E-1
2.153726149E0,1.675992310E-1,9.490905762E0,-2.825244367E-1
2.155725882E0,8.858817071E-2,9.375980377E0,-3.567469418E-1
2.157725615E0,5.267404765E-2,9.323306084E0,-3.782954216E-1
2.159725348E0,0.000000000E0,9.237112045E0,-3.495641351E-1
2.161725148E0,-2.633702382E-2,9.205986977E0,-3.328042030E-1
2.163724881E0,-5.027977005E-2,9.186832428E0,-3.304099143E-1
2.165725547E0,-1.005595401E-1,9.129369736E0,-3.040728867E-1
2.167725280E0,-1.149251908E-1,9.079090118E0,-2.609759569E-1
2.169725013E0,-1.245022863E-1,9.035993576E0,-1.939362586E-1
2.171724746E0,-1.125309169E-1,9.021627426E0,-1.771763414E-1
2.173724412E0,-1.077423692E-1,9.021627426E0,-1.652049571E-1
2.175724212E0,-9.337671846E-2,9.014444351E0,-1.532335877E-1
2.177724012E0,-2.873129770E-2,9.024022102E0,-1.292908341E-1
2.179723745E0,-9.577099234E-3,9.047964096E0,-1.221080124E-1
2.181723478E0,1.436564885E-2,9.088666916E0,-1.149251908E-1
2.183723211E0,5.506832153E-2,9.112609863E0,-9.098244458E-2
2.185722077E0,7.182824612E-2,9.129369736E0,-7.661679387E-2
2.187721810E0,1.292908341E-1,9.196409225E0,-2.873129770E-2
2.189721543E0,2.466102988E-1,9.284997940E0,-3.591412306E-2
2.191721343E0,2.466102988E-1,9.284997940E0,-3.591412306E-2
2.193721576E0,2.992843390E-1,9.316123009E0,-2.394274808E-2
2.195721309E0,4.070267081E-1,9.328094482E0,-3.830839694E-2
2.197721042E0,4.597007632E-1,9.340065956E0,-5.506832153E-2
2.199720775E0,5.865973234E-1,9.399923325E0,-1.388679445E-1
2.201720508E0,6.392713785E-1,9.428654671E0,-1.819648892E-1
2.203720241E0,7.637736797E-1,9.493299484E0,-2.944957912E-1
2.205719974E0,8.882759809E-1,9.534002304E0,-3.830839694E-1
2.207719774E0,9.385557175E-1,9.536396980E0,-4.237866402E-1
2.209719507E0,1.146857619E0,9.548367500E0,-4.956148863E-1
2.211719273E0,1.146857619E0,9.548367500E0,-4.956148863E-1
2.213718473E0,1.245022893E0,9.589070320E0,-5.387118459E-1
2.215718206E0,1.422199249E0,9.720755577E0,-5.794144869E-1
2.217717939E0,1.532335877E0,9.792584419E0,-6.057515144E-1
2.219717672E0,1.580221415E0,9.900326729E0,-6.225114465E-1
2.221717405E0,1.649655342E0,9.979337692E0,-6.847625971E-1
2.223717205E0,1.680780888E0,1.000088596E1,-7.134938836E-1
2.225716005E0,1.745426297E0,1.002722263E1,-7.350423932E-1
2.227715738E0,1.814860344E0,1.001525116E1,-7.278595567E-1
2.229715471E0,1.817254543E0,9.814132690E0,-7.589851022E-1
2.231715204E0,1.817254543E0,9.814132690E0,-7.589851022E-1
2.233714670E0,1.824437380E0,9.850046158E0,-7.254652381E-1
2.235714403E0,1.843591571E0,9.895537376E0,-6.991282701E-1
2.237714136E0,1.865140080E0,9.984126091E0,-6.943396926E-1
2.239713936E0,1.896265626E0,1.004158878E1,-6.440598965E-1
2.241713669E0,1.920208454E0,1.016369629E1,-6.153286099E-1
2.243713402E0,1.975276709E0,1.025467873E1,-5.482889414E-1
2.245714002E0,1.989642382E0,1.028580475E1,-5.075862408E-1
2.247713735E0,2.044710636E0,1.035284424E1,-4.285751879E-1
2.249713101E0,2.116539001E0,1.046537495E1,-2.537931204E-1
2.251712834E0,2.116539001E0,1.046537495E1,-2.537931204E-1
2.253712467E0,2.130904675E0,1.048931789E1,-2.322446555E-1
2.255712267E0,2.147664547E0,1.053480911E1,-1.915419847E-1
2.257712000E0,2.162030220E0,1.055875206E1,-1.771763414E-1
2.259711733E0,2.195549965E0,1.063776302E1,-1.819648892E-1
2.261711466E0,2.200338602E0,1.069283104E1,-1.963305324E-1
2.263711199E0,2.202732801E0,1.075029373E1,-1.963305324E-1
2.265710932E0,2.217098475E0,1.082691097E1,-2.250618339E-1
2.267710665E0,2.219492674E0,1.086043072E1,-2.298503816E-1
2.269710465E0,2.217098475E0,1.100648117E1,-1.771763414E-1
2.271710265E0,2.217098475E0,1.100648117E1,-1.771763414E-1
2.273709998E0,2.233858347E0,1.106394386E1,-1.699935049E-1
2.275709731E0,2.272166729E0,1.120041752E1,-1.508393139E-1
2.277709464E0,2.377514839E0,1.136322784E1,-1.245022863E-1
2.279709197E0,2.439765930E0,1.145421028E1,-1.101366431E-1
2.281708930E0,2.549902678E0,1.162420464E1,-6.703969836E-2
2.283708663E0,2.636096478E0,1.170082092E1,-4.070267081E-2
2.285708463E0,2.686376333E0,1.185405445E1,-2.873129770E-2
2.287708196E0,2.798907280E0,1.202165413E1,7.182824425E-3
2.289707929E0,2.949746609E0,1.237840080E1,2.873129770E-2
2.291707662E0,2.949746609E0,1.237840080E1,2.873129770E-2
2.293706795E0,2.976083517E0,1.244304657E1,2.154847234E-2
2.295706528E0,2.988054991E0,1.250529766E1,4.788549617E-3
2.297706261E0,3.000026226E0,1.261303997E1,-4.070267081E-2
2.299705994E0,3.011997700E0,1.272078228E1,-1.005595401E-1
2.301705794E0,3.004814863E0,1.275430202E1,-1.364736706E-1
2.303705527E0,3.014391899E0,1.284528446E1,-1.963305324E-1
2.305705260E0,3.071854591E0,1.292908382E1,-2.561874092E-1
2.307704993E0,3.088614464E0,1.298415184E1,-3.040728867E-1
2.309705093E0,3.181991339E0,1.321879101E1,-4.549122155E-1
2.311704826E0,3.181991339E0,1.321879101E1,-4.549122155E-1
2.313703459E0,3.198751211E0,1.327864838E1,-5.027977228E-1
2.315703192E0,3.205934048E0,1.338639069E1,-5.865973234E-1
2.317702992E0,3.217905283E0,1.342948723E1,-6.225114465E-1
2.319702725E0,3.256213665E0,1.353483582E1,-7.039167881E-1
2.321702458E0,3.261002302E0,1.362342358E1,-7.470137477E-1
2.323702191E0,3.241847992E0,1.364736652E1,-7.733507752E-1
2.325701924E0,3.210722446E0,1.370961761E1,-7.829278708E-1
2.327701657E0,3.160442829E0,1.378144550E1,-7.781392932E-1
2.329701390E0,3.052700281E0,1.388679409E1,-7.302538157E-1
2.331701123E0,3.052700281E0,1.388679409E1,-7.302538157E-1
2.333700923E0,3.023969173E0,1.393467903E1,-6.919454336E-1
2.335700656E0,2.942563772E0,1.407594204E1,-6.105400920E-1
2.337700389E0,2.830032825E0,1.424354076E1,-5.004034638E-1
2.339700122E0,2.770175934E0,1.431776333E1,-4.405465722E-1
2.341699855E0,2.590605259E0,1.432973480E1,-3.878725171E-1
2.343699588E0,2.310475111E0,1.410946178E1,-2.657645047E-1
2.345699321E0,2.102173328E0,1.391073704E1,-1.819648892E-1
2.347699121E0,1.671203852E0,1.346061325E1,-3.591412306E-2
2.349698921E0,1.091789365E0,1.261782837E1,2.322446555E-1
2.351698654E0,1.091789365E0,1.261782837E1,2.322446555E-1
2.353699254E0,9.553156495E-1,1.242149734E1,3.064671755E-1
2.355698987E0,8.260248303E-1,1.222516727E1,3.806896806E-1
2.357698520E0,6.129343510E-1,1.186123753E1,5.099805593E-1
2.359698253E0,3.902668059E-1,1.151406765E1,6.249057055E-1
2.361697986E0,3.040728867E-1,1.137041092E1,6.895511150E-1
2.363697786E0,1.149251908E-1,1.111182976E1,8.020820618E-1
2.365697519E0,-5.985686928E-2,1.086761379E1,9.577099085E-1
2.367697252E0,-1.484450400E-1,1.072395706E1,1.019961119E0
2.369696985E0,-4.381522834E-1,1.013975334E1,1.168406129E0
2.371696718E0,-4.381522834E-1,1.013975334E1,1.168406129E0
2.373698551E0,-5.051919818E-1,9.986519814E0,1.187560320E0
2.375698284E0,-6.703969240E-1,9.703995705E0,1.204320192E0
2.377698017E0,-7.613793612E-1,9.557945251E0,1.211503029E0
2.379697817E0,-8.978530765E-1,9.306546211E0,1.211503029E0
2.381697550E0,-1.007989645E0,9.105426788E0,1.204320192E0
2.383697283E0,-1.043903828E0,9.000079155E0,1.192348838E0
2.385697016E0,-1.098972082E0,8.818114281E0,1.173194647E0
2.387696749E0,-1.142069101E0,8.662486076E0,1.173194647E0
2.389696482E0,-1.154040456E0,8.478127480E0,1.094183564E0
2.391696215E0,-1.146857619E0,8.435029984E0,1.091789365E0
2.393695515E0,-1.134886265E0,8.384750366E0,1.082212210E0
2.395695315E0,-1.125309110E0,8.327287674E0,1.067846537E0
2.397695048E0,-1.182771802E0,8.200390816E0,1.070240855E0
2.399694781E0,-1.192348838E0,8.152505875E0,1.091789365E0
2.401694514E0,-1.106154919E0,8.118986130E0,1.125309110E0
2.403694247E0,-9.840469360E-1,8.109408379E0,1.142069101E0
2.405693980E0,-9.265843630E-1,8.116591454E0,1.149251938E0
2.407693713E0,-8.020820618E-1,8.126168251E0,1.182771802E0
2.409693446E0,-5.363175869E-1,8.217150688E0,1.309668303E0
2.411693246E0,-5.363175869E-1,8.217150688E0,1.309668303E0
2.413692979E0,-4.956148863E-1,8.250671387E0,1.333611012E0
2.415692712E0,-3.782954216E-1,8.339259148E0,1.388679385E0
2.417692645E0,-3.304099143E-1,8.387145042E0,1.407833576E0
2.419692378E0,-2.322446555E-1,8.514040947E0,1.465296149E0
2.421692111E0,-1.867534369E-1,8.576292038E0,1.470084786E0
2.423691844E0,-1.101366431E-1,8.672063828E0,1.462901950E0
2.425691644E0,-7.182824612E-2,8.810931206E0,1.419804931E0
2.427691444E0,-4.070267081E-2,8.875576973E0,1.388679385E0
2.429691177E0,7.661679387E-2,9.191620827E0,1.156434774E0
2.431690910E0,7.661679387E-2,9.191620827E0,1.156434774E0
2.433689476E0,1.149251908E-1,9.294574738E0,1.098972082E0
2.435689209E0,1.723877788E-1,9.481328011E0,9.888355136E-1
2.437688942E0,2.059076279E-1,9.677659035E0,8.403904438E-1
2.439688675E0,2.154847383E-1,9.771035194E0,7.661679387E-1
2.441688475E0,2.537931204E-1,9.972154617E0,6.392713785E-1
2.443688275E0,2.897072434E-1,1.008947372E1,5.674431324E-1
2.445688008E0,3.471698463E-1,1.031932449E1,4.405465722E-1
2.447687741E0,4.189980924E-1,1.053720379E1,3.543526828E-1
2.449687474E0,5.147690773E-1,1.088916206E1,2.322446555E-1
2.451687207E0,5.482889414E-1,1.100408745E1,1.915419847E-1
2.453687873E0,5.842030644E-1,1.111422348E1,1.460507661E-1
2.455687606E0,6.201171875E-1,1.119802284E1,1.053480953E-1
2.457687406E0,7.087053657E-1,1.135365105E1,1.675992459E-2
2.459687172E0,8.164477348E-1,1.148294163E1,-7.182824612E-2
2.461686505E0,8.858816624E-1,1.154040432E1,-9.577099234E-2
2.463686271E0,1.034326673E0,1.164575291E1,-7.422251999E-2
2.465686037E0,1.120520592E0,1.168645573E1,-7.182824612E-2
2.467685803E0,1.271359921E0,1.175349522E1,-9.577099234E-2
2.469685569E0,1.637683988E0,1.191391182E1,-2.537931204E-1
2.471685335E0,1.714300752E0,1.193785381E1,-2.873129845E-1
2.473684235E0,1.714300752E0,1.193785381E1,-2.873129845E-1
2.475684001E0,1.857957244E0,1.200010490E1,-2.921015322E-1
2.477683767E0,1.941756845E0,1.201447105E1,-2.609759569E-1
2.479683533E0,2.090201855E0,1.206235695E1,-1.771763414E-1
2.481683299E0,2.181184292E0,1.212460804E1,-8.140534163E-2
2.483683065E0,2.209915638E0,1.215094471E1,-4.788549617E-2
2.485682831E0,2.288926601E0,1.219643593E1,4.309694469E-2
2.487682597E0,2.327235222E0,1.220361900E1,6.703969836E-2
2.489682430E0,2.437371731E0,1.213179016E1,1.460507661E-1
2.491682196E0,2.437371731E0,1.213179016E1,1.460507661E-1
2.493681562E0,2.475680113E0,1.210545349E1,1.843591630E-1
2.495681328E0,2.516382933E0,1.202165413E1,2.801301479E-1
2.497681094E0,2.545114040E0,1.191630554E1,3.854782581E-1
2.499680860E0,2.547508478E0,1.182771778E1,4.381522834E-1
2.501680626E0,2.547508478E0,1.166251278E1,5.315290093E-1
2.503680392E0,2.461314440E0,1.148054790E1,6.584255695E-1
2.505680225E0,2.394274712E0,1.138717079E1,7.110996246E-1
2.507679991E0,2.250618219E0,1.117886925E1,8.356019258E-1
2.509679757E0,1.975276709E0,1.093704700E1,1.022355318E0
2.511679523E0,1.862745762E0,1.084845924E1,1.067846537E0
2.513679189E0,1.735849261E0,1.074550533E1,1.110943556E0
2.515678955E0,1.625712633E0,1.062579155E1,1.144463301E0
2.517678721E0,1.371919513E0,1.036721039E1,1.173194647E0
2.519678087E0,1.048692346E0,1.009905148E1,1.206714511E0
2.521678320E0,8.858816624E-1,9.972154617E0,1.218685865E0
2.523678053E0,5.889915824E-1,9.747093201E0,1.185166001E0
2.525677786E0,3.304099143E-1,9.490905762E0,1.120520592E0
2.527677519E0,2.370332032E-1,9.375980377E0,1.077423692E0
2.529677252E0,-1.268965602E-1,8.949799538E0,8.930644989E-1
2.531676985E0,-1.963305324E-1,8.949799538E0,8.356019258E-1
2.533677651E0,-1.963305324E-1,8.854028702E0,8.356019258E-1
2.535677451E0,-3.256213665E-1,8.657697678E0,7.087053657E-1
2.537677184E0,-3.735068738E-1,8.571503639E0,6.440598965E-1
2.539676917E0,-4.884320498E-1,8.413481712E0,5.363175869E-1
2.541676650E0,-5.650488734E-1,8.291373253E0,4.333637357E-1
2.543676383E0,-5.889915824E-1,8.233911514E0,3.950553536E-1
2.545676116E0,-6.344828010E-1,8.142929077E0,3.304099143E-1
2.547675849E0,-6.847625971E-1,8.051946640E0,2.729473412E-1
2.549675582E0,-6.536370516E-1,7.970541000E0,1.963305324E-1
2.551675382E0,-6.536370516E-1,7.970541000E0,1.963305324E-1
2.553675315E0,-6.440598965E-1,7.965752125E0,1.843591630E-1
2.555675048E0,-6.273000240E-1,7.951386452E0,1.604164094E-1
2.557674781E0,-5.530774593E-1,7.953781128E0,1.245022863E-1
2.559674514E0,-4.740664065E-1,7.939415455E0,9.337671846E-2
2.561674247E0,-3.543526828E-1,7.925049782E0,2.873129770E-2
2.563673980E0,-3.423812985E-1,7.958569527E0,8.379961550E-2
2.565673380E0,-3.304099143E-1,7.984906673E0,1.005595401E-1
2.567673180E0,-2.585816681E-1,8.020820618E0,1.556278616E-1
2.569672913E0,-1.101366431E-1,8.121379852E0,2.657645047E-1
2.571672646E0,-1.101366431E-1,8.121379852E0,2.657645047E-1
2.573671546E0,-7.901106775E-2,8.174054146E0,2.944957912E-1
2.575671279E0,-1.197137404E-2,8.221940041E0,3.208328187E-1
2.577671012E0,3.351984918E-2,8.334470749E0,3.735068738E-1
2.579671178E0,1.460507661E-1,8.447001457E0,4.477293789E-1
2.581670911E0,2.011190802E-1,8.490098000E0,4.956148863E-1
2.583670711E0,3.304099143E-1,8.588263512E0,6.009629965E-1
2.585670444E0,4.644893110E-1,8.715160370E0,6.919454336E-1
2.587670177E0,5.075862408E-1,8.753468513E0,7.470137477E-1
2.589669910E0,6.656084061E-1,8.952193260E0,9.026415944E-1
2.591669643E0,7.110996246E-1,8.990502357E0,9.409499764E-1
2.593669343E0,7.110996246E-1,8.990502357E0,9.409499764E-1
2.595669076E0,8.116591573E-1,9.067118645E0,1.015172482E0
2.597668876E0,9.026415944E-1,9.110215187E0,1.051086664E0
2.599668676E0,9.529213905E-1,9.182044029E0,1.127703428E0
2.601668409E0,1.031932473E0,9.263449669E0,1.173194647E0
2.603668142E0,1.070240855E0,9.292180061E0,1.213897347E0
2.605667875E0,1.127703428E0,9.342460632E0,1.283331275E0
2.607667608E0,1.237840056E0,9.366402626E0,1.338399649E0
2.609667341E0,1.359948039E0,9.411893845E0,1.412622094E0
2.611667074E0,1.393467903E0,9.402317047E0,1.438959122E0
2.613666874E0,1.407833576E0,9.390345573E0,1.460507631E0
2.615666607E0,1.424593568E0,9.395133972E0,1.477267504E0
2.617666340E0,1.491633177E0,9.443019867E0,1.517970204E0
2.619666073E0,1.549095750E0,9.428654671E0,1.532335877E0
2.621665806E0,1.568249941E0,9.411893845E0,1.556278586E0
2.623665539E0,1.601769805E0,9.349642754E0,1.632895470E0
2.625665605E0,1.623318315E0,9.328094482E0,1.652049661E0
2.627665338E0,1.642472506E0,9.296969414E0,1.697540879E0
2.629665138E0,1.721483588E0,9.136552811E0,1.759791970E0
2.631664871E0,1.721483588E0,9.136552811E0,1.759791970E0
2.633664571E0,1.721483588E0,9.081484795E0,1.778946161E0
2.635664304E0,1.721483588E0,8.964164734E0,1.795706153E0
2.637664037E0,1.728666425E0,8.894730568E0,1.800494671E0
2.639663770E0,1.716695070E0,8.772623062E0,1.831620216E0
2.641663503E0,1.721483588E0,8.703188896E0,1.872322917E0
2.643663236E0,1.721483588E0,8.549955368E0,1.936968327E0
2.645663036E0,1.709512234E0,8.430241585E0,1.980065227E0
2.647662769E0,1.711906433E0,8.377567291E0,1.970488191E0
2.649662502E0,1.699935079E0,8.059128761E0,1.910631299E0
2.651662235E0,1.699935079E0,8.059128761E0,1.910631299E0
2.653661068E0,1.699935079E0,8.059128761E0,1.910631299E0
2.655660801E0,1.661626697E0,7.977723598E0,1.889082789E0
2.657660534E0,1.570644259E0,7.858009815E0,1.857957244E0
2.659660267E0,1.527547359E0,7.802941799E0,1.862745762E0
2.661660067E0,1.520364523E0,7.716747761E0,1.869928598E0
2.663659800E0,1.527547359E0,7.671256542E0,1.889082789E0
2.665659533E0,1.520364523E0,7.620976925E0,1.893871427E0
2.667659266E0,1.472478986E0,7.553936958E0,1.893871427E0
2.669658999E0,1.419804931E0,7.484503269E0,1.913025618E0
2.671658732E0,1.412622094E0,7.458166122E0,1.915419817E0
2.673658232E0,1.400650740E0,7.431828976E0,1.915419817E0
2.675658032E0,1.371919513E0,7.410280704E0,1.927391171E0
2.677657832E0,1.312062621E0,7.362394810E0,1.936968327E0
2.679657565E0,1.273754239E0,7.338452339E0,1.936968327E0
2.681657298E0,1.249811411E0,7.326480865E0,1.932179809E0
2.683657031E0,1.216291547E0,7.288172722E0,1.956122518E0
2.685656764E0,1.166011810E0,7.276201248E0,1.948939681E0
2.687656497E0,1.142069101E0,7.290566921E0,1.948939681E0
2.689656230E0,1.082212210E0,7.266623974E0,1.982459545E0
2.691656030E0,1.082212210E0,7.266623974E0,1.982459545E0
2.693656263E0,1.089395046E0,7.280989647E0,2.004008055E0
2.695655996E0,1.182771802E0,7.357606411E0,1.994430900E0
2.697655729E0,1.218685865E0,7.391126156E0,1.970488191E0
2.699655462E0,1.285725594E0,7.448588848E0,1.908236980E0
2.701655195E0,1.369525194E0,7.522811413E0,1.867534399E0
2.703654928E0,1.410227895E0,7.553936958E0,1.865140080E0
2.705654661E0,1.462901950E0,7.620976925E0,1.848380208E0
2.707654461E0,1.513181686E0,7.652102470E0,1.817254543E0
2.709654194E0,1.577827096E0,7.783787251E0,1.790917516E0
2.711653927E0,1.623318315E0,7.822095871E0,1.769369125E0
2.713654960E0,1.623318315E0,7.822095871E0,1.769369125E0
2.715654693E0,1.704723716E0,7.879558563E0,1.783734679E0
2.717654426E0,1.786128998E0,7.929838181E0,1.814860344E0
2.719654159E0,1.807677507E0,7.953781128E0,1.836408734E0
2.721653892E0,1.867534399E0,7.996877670E0,1.862745762E0
2.723653692E0,1.927391171E0,8.051946640E0,1.898659945E0
2.725653425E0,1.963305354E0,8.073494911E0,1.929785490E0
2.727653158E0,2.056682110E0,8.142929077E0,1.989642382E0
2.729652891E0,2.236252785E0,8.219545364E0,2.154847383E0
2.731652624E0,2.236252785E0,8.231516838E0,2.154847383E0
2.733652357E0,2.286532402E0,8.243488312E0,2.195549965E0
2.735652090E0,2.346389294E0,8.257853508E0,2.226675510E0
2.737651823E0,2.475680113E0,8.281796455E0,2.260195494E0
2.739651623E0,2.516382933E0,8.284191132E0,2.360754967E0
2.741651356E0,2.521171331E0,8.286584854E0,2.427794695E0
2.743651089E0,2.547508478E0,8.308133125E0,2.547508478E0
2.745650822E0,2.602576733E0,8.356019020E0,2.624125242E0
2.747650555E0,2.633702278E0,8.387145042E0,2.657644987E0
2.749650288E0,2.657644987E0,8.444606781E0,2.715107679E0
2.751650021E0,2.657644987E0,8.444606781E0,2.715107679E0
2.753649787E0,2.648067951E0,8.435029984E0,2.758204460E0
2.755649587E0,2.813272953E0,8.502069473E0,2.786935806E0
2.757649320E0,2.923409462E0,8.547560692E0,2.784541607E0
2.759649053E0,3.205934048E0,8.628966331E0,2.703136206E0
2.761648786E0,3.363956213E0,8.636149406E0,2.707924843E0
2.763648519E0,3.416630268E0,8.614601135E0,2.715107679E0
2.765648252E0,3.510006905E0,8.638543129E0,2.743839025E0
2.767647985E0,3.521978140E0,8.655303001E0,2.825244188E0
2.769647785E0,3.572257996E0,8.597841263E0,2.930592299E0
2.771647585E0,3.572257996E0,8.597841263E0,2.930592299E0
2.773646951E0,3.589017868E0,8.600234985E0,2.949746609E0
2.775646684E0,3.581835032E0,8.583475113E0,2.978477955E0
2.777646084E0,3.378321648E0,8.473338127E0,3.110162973E0
2.779645817E0,3.416630268E0,8.478127480E0,3.160442829E0
2.781645550E0,3.648874760E0,8.564320564E0,3.227482557E0
2.783645283E0,3.897879362E0,8.609811783E0,3.251425266E0
2.785645083E0,4.022381783E0,8.619389534E0,3.258608103E0
2.787644816E0,4.206740856E0,8.619389534E0,3.253819466E0
2.789644549E0,4.340820312E0,8.557138443E0,3.311282158E0
2.791644282E0,4.340820312E0,8.557138443E0,3.311282158E0
2.793644448E0,4.336031914E0,8.528407097E0,3.337619066E0
2.795644181E0,4.273780346E0,8.470944405E0,3.421418667E0
2.797643914E0,4.228289127E0,8.439818382E0,3.452544212E0
2.799643647E0,4.127729893E0,8.382355690E0,3.519583941E0
2.801643447E0,4.087027073E0,8.360807419E0,3.557892323E0
2.803643180E0,4.024775982E0,8.322499275E0,3.644086361E0
2.805642913E0,3.993650436E0,8.312922478E0,3.696760416E0
2.807642646E0,3.981678963E0,8.308133125E0,3.730280161E0
2.809642379E0,3.940976381E0,8.229122162E0,3.818868399E0
2.811642112E0,3.940976381E0,8.229122162E0,3.818868399E0
2.813641845E0,3.929004908E0,8.214756966E0,3.845205307E0
2.815641578E0,3.957736254E0,8.176448822E0,3.885908127E0
2.817641378E0,3.969707727E0,8.123774529E0,3.883513689E0
2.819641111E0,3.962524891E0,8.097437859E0,3.895485163E0
2.821640844E0,3.986467600E0,8.059128761E0,3.890696526E0
2.823640577E0,3.938581944E0,8.032792091E0,3.897879362E0
2.825640310E0,3.586623669E0,7.881952763E0,3.943370581E0
2.827640043E0,3.747040033E0,7.929838181E0,3.940976381E0
2.829640276E0,4.182797909E0,8.126168251E0,3.811685562E0
2.831640009E0,4.182797909E0,8.126168251E0,3.811685562E0
2.833638875E0,4.230683804E0,8.130957603E0,3.782954216E0
2.835638608E0,4.254626274E0,8.130957603E0,3.751828671E0
2.837638674E0,4.276175022E0,8.145322800E0,3.694365978E0
2.839638407E0,4.235472202E0,8.157294273E0,3.651269197E0
2.841638140E0,4.199557781E0,8.162082672E0,3.632114887E0
2.843637873E0,4.079844475E0,8.145322800E0,3.620143414E0
2.845637606E0,4.041535854E0,8.152505875E0,3.617749214E0
2.847637406E0,4.051113129E0,8.202785492E0,3.603383541E0
2.849637206E0,4.156461239E0,8.384750366E0,3.510006905E0
2.851636906E0,4.156461239E0,8.384750366E0,3.510006905E0
2.853637339E0,4.192375183E0,8.425453186E0,3.495641232E0
2.855637072E0,4.252232075E0,8.521224022E0,3.447755814E0
2.857636805E0,4.283357620E0,8.561926842E0,3.414235830E0
2.859636538E0,4.357580185E0,8.669669151E0,3.330436230E0
2.861636271E0,4.455745220E0,8.815719604E0,3.277762175E0
2.863636071E0,4.520390987E0,8.901913643E0,3.244242430E0
2.865635804E0,4.632921696E0,9.047964096E0,3.158048391E0
2.867635537E0,4.690384388E0,9.117398262E0,3.124528646E0
2.869635270E0,4.936994553E0,9.404711723E0,3.067065954E0
2.871635003E0,4.936994553E0,9.404711723E0,3.067065954E0
2.873634803E0,5.018400192E0,9.474145889E0,3.098191500E0
2.875634536E0,5.013611317E0,9.574705124E0,2.856369734E0
2.877634269E0,4.941783428E0,9.663292885E0,2.588211060E0
2.879634069E0,4.915446281E0,9.725543976E0,2.502017260E0
2.881633402E0,4.939388752E0,9.885960579E0,2.387091875E0
2.883633168E0,4.980091572E0,1.003919411E1,2.320052385E0
2.885632934E0,4.989668846E0,1.010383987E1,2.284138203E0
2.887632700E0,4.944177628E0,1.023073673E1,2.241041183E0
2.889631966E0,4.771789551E0,1.039354706E1,2.238646984E0
2.891631732E0,4.771789551E0,1.039354706E1,2.238646984E0
2.893632432E0,4.699961662E0,1.040791225E1,2.253012657E0
2.895632265E0,4.640104771E0,1.042467213E1,2.264983892E0
2.897632031E0,4.496448040E0,1.043903828E1,2.305686712E0
2.899631797E0,4.359974384E0,1.042706680E1,2.401457548E0
2.901631563E0,4.290540695E0,1.040791225E1,2.454131603E0
2.903631329E0,4.178009510E0,1.035044956E1,2.595393896E0
2.905631095E0,4.106181145E0,1.026904488E1,2.765387297E0
2.907630861E0,4.070267200E0,1.021397591E1,2.849187136E0
2.909630627E0,3.976890564E0,9.931451797E0,3.191568375E0
2.911630493E0,3.976890564E0,9.931451797E0,3.191568375E0
2.913630426E0,3.969707727E0,9.864412308E0,3.265790939E0
2.915630192E0,3.967313290E0,9.713572502E0,3.404658794E0
2.917629958E0,3.969707727E0,9.615407944E0,3.481275558E0
2.919629724E0,3.991255999E0,9.419076920E0,3.600989342E0
2.921629490E0,4.039141655E0,9.246688843E0,3.720703125E0
2.923629256E0,4.091815472E0,9.170072556E0,3.792531252E0
2.925629089E0,4.175615311E0,8.985713005E0,3.890696526E0
2.927628922E0,4.264203548E0,8.791776657E0,3.967313290E0
2.929628688E0,4.434196949E0,8.420664787E0,4.058295727E0
2.931628454E0,4.453351021E0,8.420664787E0,4.058295727E0
2.933628754E0,4.453351021E0,8.327287674E0,3.962524891E0
2.935628520E0,4.477293968E0,8.178842545E0,3.727885962E0
2.937628286E0,4.501236439E0,8.049551964E0,3.574652195E0
2.939628052E0,4.496448040E0,8.004060745E0,3.533949614E0
2.941628285E0,4.462928295E0,7.956175327E0,3.457332850E0
2.943628085E0,4.400677204E0,7.951386452E0,3.328042030E0
2.945627818E0,4.352791786E0,7.965752125E0,3.268185139E0
2.947627551E0,4.240260601E0,8.013637543E0,3.131711483E0
2.949627284E0,3.998438835E0,8.284191132E0,2.808484316E0
2.951627017E0,3.998438835E0,8.284191132E0,2.808484316E0
2.953626750E0,3.952947617E0,8.360807419E0,2.724684715E0
2.955626483E0,3.893090725E0,8.444606781E0,2.628913641E0
2.957626283E0,3.785348415E0,8.626572609E0,2.425400496E0
2.959626016E0,3.706337452E0,8.731920242E0,2.130904675E0
2.961625749E0,3.713520288E0,8.736708641E0,1.934574008E0
2.963625482E0,3.739857197E0,8.923461914E0,1.628106833E0
2.965625215E0,3.639297724E0,9.229928970E0,1.431776285E0
2.967624948E0,3.543526649E0,9.383162498E0,1.352765322E0
2.969624681E0,3.021574736E0,9.933846474E0,9.912297726E-1
2.971624414E0,3.021574736E0,9.933846474E0,9.912297726E-1
2.973623347E0,2.863552570E0,1.007032013E1,9.313728809E-1
2.975623080E0,2.559479713E0,1.032171917E1,7.494080067E-1
2.977622813E0,2.394274712E0,1.045100975E1,6.680026650E-1
2.979622113E0,2.044710636E0,1.070480251E1,5.267404318E-1
2.981621846E0,1.635289669E0,1.093944168E1,3.926610649E-1
2.983621579E0,1.415016413E0,1.105436707E1,3.447755575E-1
2.985621312E0,9.433442950E-1,1.130097675E1,2.801301479E-1
2.987621045E0,4.333637357E-1,1.153322220E1,2.178790122E-1
2.989621678E0,-2.849186957E-1,1.188518047E1,1.101366431E-1
2.991621411E0,-4.956148863E-1,1.201686573E1,7.901106775E-2
2.993825320E0,-6.751855016E-1,1.214376163E1,3.112557158E-2
2.995825053E0,-8.164477348E-1,1.227544689E1,-2.873129770E-2
2.997824786E0,-1.084606528E0,1.255318260E1,-1.412622184E-1
2.999824519E0,-1.199531674E0,1.269444466E1,-1.963305324E-1
3.001824252E0,-1.374313712E0,1.298654652E1,-3.471698463E-1
3.003823985E0,-1.494027495E0,1.329780197E1,-5.411061049E-1
3.005823785E0,-1.551490068E0,1.345103550E1,-6.105400920E-1
3.007823518E0,-1.644866824E0,1.376468563E1,-7.446194887E-1
3.009823251E0,-1.891477108E0,1.432494640E1,-8.619389534E-1
3.011822984E0,-1.891477108E0,1.432494640E1,-8.619389534E-1
3.013822450E0,-1.927391171E0,1.442071724E1,-8.068706393E-1
3.015822183E0,-1.963305354E0,1.462901878E1,-7.565908432E-1
3.017821916E0,-2.013585091E0,1.473436737E1,-7.853221297E-1
3.019821716E0,-2.099778891E0,1.491154385E1,-7.422251701E-1
3.021821516E0,-2.147664547E0,1.498576641E1,-6.632141471E-1
3.023821249E0,-2.284138203E0,1.510548019E1,-4.189980924E-1
3.025820982E0,-2.396669149E0,1.516533661E1,-1.532335877E-1
3.027820715E0,-2.451737404E0,1.517012501E1,1.915419847E-2
3.029820448E0,-2.648067951E0,1.513660526E1,7.948992252E-1
3.031820181E0,-2.648067951E0,1.513660526E1,7.948992252E-1
3.033819914E0,-2.681587696E0,1.511984539E1,9.888355136E-1
3.035819714E0,-2.736656189E0,1.507195950E1,1.369525194E0
3.037819447E0,-2.767781734E0,1.499294853E1,1.716695070E0
3.039819613E0,-2.777358770E0,1.492830372E1,1.874717116E0
3.041819346E0,-2.755810261E0,1.470324135E1,2.166818619E0
3.043819079E0,-2.624125242E0,1.456916237E1,2.315263748E0
3.045818812E0,-2.513988495E0,1.426748371E1,2.561874151E0
3.047818545E0,-2.229069948E0,1.392749691E1,2.731867552E0
3.049817445E0,-1.585009933E0,1.317569447E1,2.751021862E0
3.051817245E0,-1.343188167E0,1.287162113E1,2.695953369E0
3.053816978E0,-1.103760719E0,1.256515408E1,2.607365370E0
3.055816711E0,-8.810931444E-1,1.224911022E1,2.509200096E0
3.057815944E0,-5.075862408E-1,1.163138676E1,2.253012657E0
3.059815677E0,-2.083019018E-1,1.103521252E1,1.948939681E0
3.061815410E0,-7.901106775E-2,1.075029373E1,1.776551962E0
3.063815143E0,1.268965602E-1,1.018524456E1,1.343188167E0
3.065814876E0,2.537931204E-1,9.919480324E0,1.118126392E0
3.067814676E0,2.801301479E-1,9.419076920E0,6.727912426E-1
3.069814409E0,2.418217510E-1,8.490098000E0,-1.221080124E-1
3.071814109E0,2.418217510E-1,8.490098000E0,-1.221080124E-1
3.073814109E0,2.178790122E-1,8.257853508E0,-2.801301479E-1
3.075813842E0,1.819648892E-1,7.858009815E0,-5.387118459E-1
3.077813575E0,1.580221355E-1,7.678439140E0,-6.608198285E-1
3.079813308E0,1.268965602E-1,7.360000610E0,-8.786988258E-1
3.081813041E0,1.149251908E-1,7.118178844E0,-1.065452337E0
3.083812841E0,1.173194647E-1,7.000859737E0,-1.151646137E0
3.085812574E0,1.245022863E-1,6.782980442E0,-1.292908430E0
3.087812307E0,4.118152559E-1,6.656084061E0,-1.383890867E0
3.089812040E0,5.770202279E-1,6.454965115E0,-1.683175206E0
3.091811773E0,5.770202279E-1,6.454965115E0,-1.683175206E0
3.093811506E0,5.482889414E-1,6.440599442E0,-1.740637779E0
3.095811239E0,4.668835998E-1,6.426233768E0,-1.850774407E0
3.097810605E0,3.854782581E-1,6.471724987E0,-1.932179809E0
3.099810405E0,3.519583941E-1,6.524398804E0,-1.980065227E0
3.101810171E0,2.992843390E-1,6.644112587E0,-2.061470509E0
3.103809937E0,2.011190802E-1,6.797346115E0,-2.128510237E0
3.105809703E0,1.484450400E-1,6.878751755E0,-2.150058746E0
3.107809469E0,3.591412306E-2,7.065505028E0,-2.197944164E0
3.109809235E0,-1.460507661E-1,7.398309231E0,-2.267378330E0
3.111809001E0,-2.178790122E-1,7.491685867E0,-2.279349566E0
3.113808834E0,-2.921015322E-1,7.556331158E0,-2.288926601E0
3.115808634E0,-3.759011328E-1,7.609005451E0,-2.310475111E0
3.117808934E0,-5.363175869E-1,7.752661705E0,-2.339206457E0
3.119808734E0,-7.063110471E-1,7.934626579E0,-2.276955366E0
3.121808534E0,-7.877163887E-1,8.059128761E0,-2.253012657E0
3.123808334E0,-9.289786220E-1,8.334470749E0,-2.229069948E0
3.125808134E0,-1.067846537E0,8.638543129E0,-2.164424419E0
3.127807934E0,-1.134886265E0,8.786988258E0,-2.114144564E0
3.129807800E0,-1.391073704E0,9.328094482E0,-1.884294271E0
3.131807700E0,-1.391073704E0,9.328094482E0,-1.884294271E0
3.133807333E0,-1.443747759E0,9.486116409E0,-1.812466025E0
3.135807199E0,-1.553884387E0,9.773429871E0,-1.620923996E0
3.137807065E0,-1.594586968E0,9.888355255E0,-1.503604531E0
3.139806931E0,-1.656838179E0,1.013017654E1,-1.259388566E0
3.141806797E0,-1.647261024E0,1.031214142E1,-1.053480864E0
3.143806663E0,-1.616135478E0,1.038636398E1,-9.601042271E-1
3.145806596E0,-1.467690468E0,1.053241444E1,-7.685621977E-1
3.147806462E0,-1.268965602E0,1.063057995E1,-6.033572555E-1
3.149806328E0,-8.140534163E-1,1.072156239E1,-3.711125851E-1
3.151806194E0,-6.464542150E-1,1.074550533E1,-3.064671755E-1
3.153806060E0,-4.597007632E-1,1.074550533E1,-2.466102988E-1
3.155805626E0,-2.657645047E-1,1.073832226E1,-2.011190802E-1
3.157805926E0,7.901106775E-2,1.066888809E1,-1.484450400E-1
3.159805792E0,2.633702159E-1,1.061382008E1,-1.197137386E-1
3.161805692E0,6.368771195E-1,1.046537495E1,-3.351984918E-2
3.163805525E0,9.577099085E-1,1.031692982E1,5.027977005E-2
3.165805358E0,1.106154919E0,1.023552513E1,8.140534163E-2
3.167805191E0,1.374313712E0,1.009426212E1,1.771763414E-1
3.169805024E0,1.805283189E0,9.907508850E0,3.495641351E-1
3.171804857E0,1.805283189E0,9.907508850E0,3.495641351E-1
3.173804690E0,1.908236980E0,9.862017632E0,3.950553536E-1
3.175804556E0,2.078230619E0,9.806949615E0,4.573064744E-1
3.177804422E0,2.145270348E0,9.732727051E0,4.836435020E-1
3.179804222E0,2.238646984E0,9.708784103E0,5.554717779E-1
3.181804022E0,2.276955366E0,9.703995705E0,5.913859010E-1
3.183803822E0,2.370332003E0,9.687235832E0,6.320885420E-1
3.185803622E0,2.418217659E0,9.682447433E0,6.727912426E-1
3.187803422E0,2.446948767E0,9.687235832E0,7.015225291E-1
3.189803222E0,2.559479713E0,9.672870636E0,8.499675393E-1
3.191803022E0,2.516382933E0,9.629773140E0,9.026415944E-1
3.193802655E0,2.516382933E0,9.629773140E0,9.026415944E-1
3.195802388E0,2.241041183E0,9.428654671E0,1.022355318E0
3.197802121E0,1.857957244E0,9.306546211E0,1.149251938E0
3.199801854E0,1.644866824E0,9.035993576E0,1.223474383E0
3.201801587E0,1.247417212E0,8.806142807E0,1.331216812E0
3.203801320E0,1.070240855E0,8.731920242E0,1.369525194E0
3.205801053E0,7.781392932E-1,8.633754730E0,1.393467903E0
3.207800853E0,6.823683381E-1,8.554743767E0,1.300091267E0
3.209800586E0,4.956148863E-1,8.566715240E0,1.072635174E0
3.211800319E0,3.902668059E-1,8.561926842E0,9.720755816E-1
3.213800052E0,3.136500120E-1,8.561926842E0,8.571503758E-1
3.215800085E0,2.513988614E-1,8.576292038E0,7.518022656E-1
3.217799818E0,1.197137386E-1,8.600234985E0,5.554717779E-1
3.219799551E0,-2.633702382E-2,8.581081390E0,3.711125851E-1
3.221799284E0,-9.816526622E-2,8.566715240E0,2.705530524E-1
3.223799084E0,-2.011190802E-1,8.655303001E0,9.337671846E-2
3.225798817E0,-2.681587934E-1,8.712765694E0,1.197137404E-2
3.227798550E0,-4.309694767E-1,8.808537483E0,-1.268965602E-1
3.229798283E0,-6.991282701E-1,8.966559410E0,-4.142095447E-1
3.231798016E0,-6.991282701E-1,8.966559410E0,-4.142095447E-1
3.233797749E0,-7.613793612E-1,8.995290756E0,-4.740664065E-1
3.235797482E0,-8.332076073E-1,9.064723969E0,-5.961744189E-1
3.237797215E0,-8.715160489E-1,9.117398262E0,-6.560313106E-1
3.239797015E0,-9.601042271E-1,9.234718323E0,-7.565908432E-1
3.241796748E0,-1.067846537E0,9.344854355E0,-8.810931444E-1
3.243796481E0,-1.103760719E0,9.411893845E0,-9.553156495E-1
3.245796214E0,-1.177983165E0,9.538790703E0,-1.070240855E0
3.247795947E0,-1.235445857E0,9.601041794E0,-1.115732074E0
3.249795680E0,-1.434170604E0,9.818921089E0,-1.156434774E0
3.251795413E0,-1.448536277E0,9.857229233E0,-1.168406129E0
3.253795546E0,-1.448536277E0,9.857229233E0,-1.168406129E0
3.255795346E0,-1.426987767E0,9.933846474E0,-1.189954638E0
3.257795079E0,-1.371919513E0,1.003919411E1,-1.245022893E0
3.259794812E0,-1.350371003E0,1.008229160E1,-1.283331275E0
3.261794545E0,-1.321639657E0,1.012299347E1,-1.324033976E0
3.263794278E0,-1.292908430E0,1.013735962E1,-1.314456820E0
3.265794011E0,-1.271359921E0,1.012778282E1,-1.292908430E0
3.267793744E0,-1.209108829E0,1.017327404E1,-1.189954638E0
3.269793544E0,-1.036720991E0,1.020679379E1,-1.067846537E0
3.271793344E0,-1.036720991E0,1.022834206E1,-1.041509509E0
3.273793077E0,-9.936240315E-1,1.026425648E1,-1.003201127E0
3.275792810E0,-9.481328130E-1,1.029777622E1,-9.529213905E-1
3.277792543E0,-8.882759809E-1,1.035284424E1,-8.739103079E-1
3.279792276E0,-7.925049663E-1,1.041270161E1,-8.068706393E-1
3.281792009E0,-7.374366522E-1,1.044143200E1,-7.853221297E-1
3.283791742E0,-6.057515144E-1,1.048452950E1,-7.254652381E-1
3.285791542E0,-4.525179267E-1,1.050368404E1,-6.919454336E-1
3.287791275E0,-3.830839694E-1,1.049171257E1,-6.632141471E-1
3.289791008E0,-2.657645047E-1,1.033608437E1,-5.363175869E-1
3.291790741E0,-2.657645047E-1,1.033608437E1,-5.363175869E-1
3.293790474E0,-2.370332032E-1,1.027862167E1,-5.004034638E-1
3.295790207E0,-1.556278616E-1,1.016848469E1,-4.046324492E-1
3.297789940E0,-1.316851079E-1,1.012299347E1,-3.591412306E-1
3.299789673E0,-2.873129770E-2,1.004398251E1,-3.088614643E-1
3.301789473E0,6.225114316E-2,9.976943016E0,-2.490045726E-1
3.303789206E0,1.029538140E-1,9.953000069E0,-2.298503816E-1
3.305788939E0,1.963305324E-1,9.909903526E0,-1.891477108E-1
3.307788672E0,3.016786277E-1,9.869200706E0,-1.604164094E-1
3.309788405E0,4.429408312E-1,9.785401344E0,-4.070267081E-2
3.311788138E0,4.980091453E-1,9.761458397E0,-2.633702382E-2
3.313787871E0,4.980091453E-1,9.761458397E0,-2.633702382E-2
3.315787604E0,5.865973234E-1,9.711178780E0,2.394274808E-3
3.317787404E0,6.608198285E-1,9.653716087E0,7.901106775E-2
3.319787137E0,6.823683381E-1,9.617801666E0,1.316851079E-1
3.321786870E0,6.775797606E-1,9.522030830E0,1.747820675E-1
3.323786603E0,6.919454336E-1,9.464568138E0,2.322446555E-1
3.325786336E0,7.182824612E-1,9.454991341E0,2.561874092E-1
3.327786069E0,8.188419938E-1,9.481328011E0,3.040728867E-1
3.329785802E0,9.074301720E-1,9.507665634E0,3.016786277E-1
3.331785535E0,9.074301720E-1,9.507665634E0,3.016786277E-1
3.333785335E0,9.265843630E-1,9.512454033E0,2.897072434E-1
3.335785068E0,9.457385540E-1,9.512454033E0,2.801301479E-1
3.337784801E0,9.577099085E-1,9.505270958E0,2.585816681E-1
3.339784634E0,9.816526771E-1,9.466962814E0,2.274561077E-1
3.341784367E0,1.003201127E0,9.454991341E0,2.083019018E-1
3.343784100E0,1.036720991E0,9.447808266E0,1.699935049E-1
3.345783833E0,1.063058019E0,9.435836792E0,1.221080124E-1
3.347783633E0,1.087000728E0,9.443019867E0,9.098244458E-2
3.349783433E0,1.103760719E0,9.399923325E0,-9.577099234E-2
3.351783166E0,1.103760719E0,9.399923325E0,-9.577099234E-2
3.353782899E0,1.103760719E0,9.364008904E0,-1.388679445E-1
3.355782632E0,1.089395046E0,9.335277557E0,-2.418217510E-1
3.357782365E0,1.089395046E0,9.344854355E0,-2.873129845E-1
3.359782098E0,1.120520592E0,9.402317047E0,-3.447755575E-1
3.361781831E0,1.108549237E0,9.462174416E0,-4.309694767E-1
3.363781631E0,1.094183564E0,9.498087883E0,-4.740664065E-1
3.365781431E0,1.082212210E0,9.550762177E0,-5.674431324E-1
3.367781164E0,1.055875182E0,9.586676598E0,-6.560313106E-1
3.369780897E0,1.005595446E0,9.660899162E0,-8.140534163E-1
3.371780597E0,1.005595446E0,9.660899162E0,-8.140534163E-1
3.373780330E0,9.912297726E-1,9.689630508E0,-8.427847624E-1
3.375780496E0,9.720755816E-1,9.723150253E0,-8.691217303E-1
3.377780229E0,9.026415944E-1,9.749486923E0,-9.050358534E-1
3.379780029E0,8.691217303E-1,9.749486923E0,-9.241901040E-1
3.381779762E0,8.068706393E-1,9.739910126E0,-9.529213905E-1
3.383779495E0,7.757450342E-1,9.706390381E0,-9.936240315E-1
3.385779228E0,7.757450342E-1,9.694418907E0,-9.888355136E-1
3.387778961E0,7.494080067E-1,9.701601982E0,-9.960182905E-1
3.389778694E0,7.278595567E-1,9.689630508E0,-9.960182905E-1
3.391778427E0,7.278595567E-1,9.689630508E0,-9.960182905E-1
3.393778160E0,7.326480746E-1,9.677659035E0,-9.912297726E-1
3.395777960E0,7.063110471E-1,9.651321411E0,-9.457385540E-1
3.397777693E0,7.087053657E-1,9.646533012E0,-9.289786220E-1
3.399777326E0,7.039167881E-1,9.634561539E0,-9.002473354E-1
3.401777059E0,7.015225291E-1,9.613013268E0,-8.643332124E-1
3.403776792E0,7.039167881E-1,9.596253395E0,-8.068706393E-1
3.405776525E0,7.302538157E-1,9.574705124E0,-7.541965842E-1
3.407776258E0,7.398309112E-1,9.553156853E0,-7.302538157E-1
3.409775991E0,7.996878028E-1,9.481328011E0,-6.201171875E-1
3.411775791E0,7.996878028E-1,9.481328011E0,-6.201171875E-1
3.413775524E0,8.188419938E-1,9.462174416E0,-5.889915824E-1
3.415775257E0,8.523618579E-1,9.423865318E0,-5.626545548E-1
3.417774990E0,8.834874034E-1,9.402317047E0,-5.027977228E-1
3.419774723E0,8.882759809E-1,9.380768776E0,-4.692778587E-1
3.421774456E0,9.050358534E-1,9.335277557E0,-4.046324492E-1
3.423774189E0,9.313728809E-1,9.320911407E0,-3.735068738E-1
3.425773922E0,9.529213905E-1,9.289786339E0,-3.208328187E-1
3.427773722E0,9.816526771E-1,9.241900444E0,-2.609759569E-1
3.429773455E0,1.058269501E0,9.160495758E0,-1.675992310E-1
3.431773188E0,1.058269501E0,9.160495758E0,-1.675992310E-1
3.433772921E0,1.060663700E0,9.143735886E0,-1.292908341E-1
3.435772221E0,1.070240855E0,9.138946533E0,-9.337671846E-2
3.437771954E0,1.103760719E0,9.134158134E0,-5.267404765E-2
3.439771687E0,1.118126392E0,9.098244667E0,-1.915419847E-2
3.441771487E0,1.122914910E0,9.062330246E0,7.182824425E-3
3.443771287E0,1.154040456E0,9.035993576E0,5.746259540E-2
3.445771020E0,1.177983165E0,9.038387299E0,6.464541703E-2
3.447770753E0,1.192348838E0,9.007262230E0,9.577099234E-2
3.449770486E0,1.242628574E0,8.959376335E0,1.005595401E-1
3.451770219E0,1.242628574E0,8.959376335E0,1.005595401E-1
3.453769952E0,1.240234375E0,8.949799538E0,1.029538140E-1
3.455769685E0,1.273754239E0,8.916279793E0,8.619388938E-2
3.457769485E0,1.280937076E0,8.909096718E0,7.901106775E-2
3.459769218E0,1.292908430E0,8.901913643E0,4.788549617E-2
3.461769051E0,1.285725594E0,8.901913643E0,1.915419847E-2
3.463768784E0,1.292908430E0,8.925856590E0,9.577099234E-3
3.465768517E0,1.307274103E0,9.000079155E0,-3.830839694E-2
3.467768250E0,1.307274103E0,9.033598900E0,-5.746259540E-2
3.469767983E0,6.919454336E-1,8.758256912E0,-6.943397224E-2
3.471767716E0,6.919454336E-1,8.758256912E0,-6.943397224E-2
3.473767516E0,5.243461728E-1,8.619389534E0,-8.140534163E-2
3.475767249E0,5.482889414E-1,8.614601135E0,-1.245022863E-1
3.477766982E0,8.236305118E-1,8.863605499E0,-8.619388938E-2
3.479766715E0,9.433442950E-1,9.021627426E0,-2.633702382E-2
3.481766448E0,1.161223292E0,9.316123009E0,-2.154847234E-2
3.483766181E0,1.230657220E0,9.522030830E0,-9.816526622E-2
3.485765914E0,1.216291547E0,9.605830193E0,-1.723877788E-1
3.487765647E0,1.154040456E0,9.735121727E0,-3.471698463E-1
3.489765447E0,1.015172482E0,9.945817947E0,-5.961744189E-1
3.491765213E0,1.015172482E0,9.945817947E0,-5.961744189E-1
3.493764946E0,9.792584181E-1,9.988914490E0,-6.320885420E-1
3.495764679E0,9.529213905E-1,1.001525116E1,-6.536370516E-1
3.497764412E0,9.194015265E-1,1.008947372E1,-7.015225291E-1
3.499764145E0,8.571503758E-1,1.015411949E1,-7.350423932E-1
3.501763878E0,8.260248303E-1,1.018524456E1,-7.470137477E-1
3.503763611E0,7.637736797E-1,1.022115898E1,-7.565908432E-1
3.505763411E0,7.110996246E-1,1.022594738E1,-7.302538157E-1
3.507763177E0,6.680026650E-1,1.021637058E1,-7.206767201E-1
3.509762943E0,4.764606953E-1,1.021397591E1,-6.392713785E-1
3.511762709E0,4.764606953E-1,1.021397591E1,-6.392713785E-1
3.513762475E0,4.429408312E-1,1.022115898E1,-6.033572555E-1
3.515762241E0,3.687183261E-1,1.022834206E1,-5.075862408E-1
3.517762007E0,3.160442710E-1,1.019242764E1,-4.525179267E-1
3.519761840E0,2.250618339E-1,1.008708000E1,-3.328042030E-1
3.521761573E0,1.580221355E-1,9.938634872E0,-2.274561077E-1
3.523761339E0,1.340793967E-1,9.878777504E0,-1.604164094E-1
3.525761105E0,6.464541703E-2,9.763853073E0,-6.225114316E-2
3.527760871E0,2.394274808E-2,9.682447433E0,2.154847234E-2
3.529760637E0,-3.591412306E-2,9.581888199E0,1.268965602E-1
3.531760370E0,-4.788549617E-2,9.581888199E0,1.532335877E-1
3.533760136E0,-5.267404765E-2,9.565128326E0,1.532335877E-1
3.535759969E0,-4.788549617E-2,9.538790703E0,1.939362586E-1
3.537759735E0,-4.788549617E-3,9.514847755E0,2.011190802E-1
3.539759501E0,1.675992459E-2,9.505270958E0,2.035133541E-1
3.541759267E0,5.027977005E-2,9.493299484E0,1.915419847E-1
3.543759033E0,9.098244458E-2,9.462174416E0,1.412622184E-1
3.545758799E0,1.245022863E-1,9.459779739E0,1.149251908E-1
3.547758565E0,1.963305324E-1,9.486116409E0,4.788549617E-2
3.549758331E0,3.112557232E-1,9.440625191E0,-8.858817071E-2
3.551758164E0,3.112557232E-1,9.440625191E0,-8.858817071E-2
3.553757730E0,3.351984620E-1,9.445414543E0,-1.245022863E-1
3.555757496E0,3.591412306E-1,9.421471596E0,-1.556278616E-1
3.557757262E0,3.639297783E-1,9.349642754E0,-2.035133541E-1
3.559757028E0,3.184385598E-1,9.313729286E0,-2.777358890E-1
3.561756794E0,2.513988614E-1,9.249083519E0,-3.136500120E-1
3.563756560E0,2.346389294E-1,9.184437752E0,-3.639297783E-1
3.565756326E0,4.070267081E-1,9.299363136E0,-3.854782581E-1
3.567756126E0,4.956148863E-1,9.356825829E0,-3.806896806E-1
3.569755859E0,6.392713785E-1,9.452596664E0,-4.812492430E-1
3.571755592E0,6.392713785E-1,9.452596664E0,-4.812492430E-1
3.573755325E0,6.320885420E-1,9.454991341E0,-5.051919818E-1
3.575755058E0,5.842030644E-1,9.450202942E0,-5.387118459E-1
3.577754791E0,5.482889414E-1,9.450202942E0,-5.602602959E-1
3.579754524E0,5.339232683E-1,9.469356537E0,-5.913859010E-1
3.581754257E0,5.458946824E-1,9.510059357E0,-5.985686779E-1
3.583754057E0,5.602602959E-1,9.538790703E0,-6.033572555E-1
3.585753790E0,5.650488734E-1,9.586676598E0,-6.320885420E-1
3.587753523E0,5.626545548E-1,9.639349937E0,-6.440598965E-1
3.589753256E0,5.746259689E-1,9.706390381E0,-6.871568561E-1
3.591752989E0,5.722316504E-1,9.713572502E0,-7.182824612E-1
3.593752722E0,5.722316504E-1,9.723150253E0,-7.422251701E-1
3.595752455E0,5.794144869E-1,9.747093201E0,-7.565908432E-1
3.597752255E0,5.842030644E-1,9.773429871E0,-7.637736797E-1
3.599752055E0,5.746259689E-1,9.775823593E0,-7.709565163E-1
3.601751788E0,5.578660369E-1,9.775823593E0,-7.781392932E-1
3.603751521E0,5.411061049E-1,9.761458397E0,-7.805336118E-1
3.605751254E0,5.315290093E-1,9.730332375E0,-7.709565163E-1
3.607750987E0,5.506832004E-1,9.689630508E0,-7.709565163E-1
3.609750720E0,4.812492430E-1,9.629773140E0,-6.967339516E-1
3.611750453E0,4.812492430E-1,9.629773140E0,-6.967339516E-1
3.613751119E0,4.549122155E-1,9.591464996E0,-6.632141471E-1
3.615750919E0,4.022381604E-1,9.493299484E0,-6.081457734E-1
3.617750652E0,3.926610649E-1,9.457385063E0,-5.770202279E-1
3.619750385E0,3.663240373E-1,9.390345573E0,-4.980091453E-1
3.621750118E0,3.064671755E-1,9.347249031E0,-4.189980924E-1
3.623749851E0,2.753416002E-1,9.256266594E0,-3.735068738E-1
3.625749584E0,2.226675600E-1,9.205986977E0,-2.609759569E-1
3.627749317E0,2.011190802E-1,9.179649353E0,-2.011190802E-1
3.629749117E0,1.245022863E-1,9.071907043E0,1.340793967E-1
3.631748850E0,1.245022863E-1,9.071907043E0,1.340793967E-1
3.633748583E0,9.577099234E-2,9.038387299E0,2.202732861E-1
3.635748316E0,4.788549617E-2,9.004867554E0,3.280156553E-1
3.637748049E0,0.000000000E0,9.038387299E0,3.663240373E-1
3.639747782E0,-1.197137404E-2,9.047964096E0,3.902668059E-1
3.641747515E0,-2.633702382E-2,9.067118645E0,4.046324492E-1
3.643747248E0,-1.915419847E-2,9.064723969E0,3.639297783E-1
3.645747048E0,-2.154847234E-2,9.055147171E0,3.304099143E-1
3.647746781E0,-3.830839694E-2,9.088666916E0,2.394274771E-1
3.649746514E0,2.394274808E-3,9.105426788E0,1.005595401E-1
3.651746280E0,2.633702382E-2,9.122186661E0,5.267404765E-2
3.653746013E0,5.267404765E-2,9.150918007E0,0.000000000E0
3.655745746E0,8.619388938E-2,9.184437752E0,-5.506832153E-2
3.657745479E0,1.556278616E-1,9.270631790E0,-1.771763414E-1
3.659745212E0,2.298503816E-1,9.383162498E0,-3.232271075E-1
3.661745012E0,2.753416002E-1,9.462174416E0,-3.782954216E-1
3.663744745E0,3.615354896E-1,9.639349937E0,-4.788549542E-1
3.665744478E0,4.716721475E-1,9.744698524E0,-5.626545548E-1
3.667744211E0,5.195576549E-1,9.953000069E0,-5.961744189E-1
3.669743944E0,4.189980924E-1,1.013735962E1,-6.823683381E-1
3.671743677E0,4.189980924E-1,1.013735962E1,-6.823683381E-1
3.673742743E0,3.136500120E-1,1.011341667E1,-7.110996246E-1
3.675742476E0,5.171633363E-1,1.030495834E1,-7.518022656E-1
3.677742276E0,6.919454336E-1,1.046298122E1,-7.446194887E-1
3.679742009E0,1.027143836E0,1.078381348E1,-7.470137477E-1
3.681741742E0,1.273754239E0,1.101845264E1,-7.948992252E-1
3.683741475E0,1.367130876E0,1.107352066E1,-8.499675393E-1
3.685741208E0,1.508393168E0,1.113098335E1,-9.960182905E-1
3.687740941E0,1.656838179E0,1.113337803E1,-1.144463301E0
3.689740674E0,1.932179809E0,1.106633854E1,-1.314456820E0
3.691740474E0,1.932179809E0,1.106633854E1,-1.314456820E0
3.693740274E0,2.015979290E0,1.102802944E1,-1.345582485E0
3.695740007E0,2.176395893E0,1.096577835E1,-1.403045058E0
3.697739740E0,2.236252785E0,1.084606457E1,-1.417410731E0
3.699739473E0,2.248224020E0,1.076944828E1,-1.410227895E0
3.701739206E0,2.288926601E0,1.068804264E1,-1.398256540E0
3.703738939E0,2.329629421E0,1.064015770E1,-1.340793848E0
3.705738672E0,2.370332003E0,1.063297462E1,-1.312062621E0
3.707738038E0,2.463708878E0,1.068564892E1,-1.237840056E0
3.709737771E0,2.600182533E0,1.086521912E1,-1.072635174E0
3.711737504E0,2.600182533E0,1.086521912E1,-1.072635174E0
3.713737237E0,2.624125242E0,1.092507553E1,-1.036720991E0
3.715736970E0,2.619336605E0,1.098253822E1,-1.003201127E0
3.717736703E0,2.638490915E0,1.109746361E1,-9.577099085E-1
3.719736436E0,2.707924843E0,1.120760059E1,-9.361614585E-1
3.721736169E0,2.719896078E0,1.126027489E1,-9.194015265E-1
3.723735969E0,2.724684715E0,1.147336483E1,-8.619389534E-1
3.725735702E0,2.822849989E0,1.175349522E1,-7.661679387E-1
3.727735435E0,2.870735407E0,1.186123753E1,-7.446194887E-1
3.729735168E0,2.782147408E0,1.196897984E1,-5.794144869E-1
3.731734901E0,2.782147408E0,1.211024189E1,-6.009629965E-1
3.733734601E0,2.782147408E0,1.211024189E1,-6.009629965E-1
3.735734334E0,2.827638626E0,1.238797760E1,-6.440598965E-1
3.737734067E0,2.849187136E0,1.250290298E1,-6.632141471E-1
3.739733867E0,2.834821463E0,1.272557068E1,-6.871568561E-1
3.741733600E0,2.839609861E0,1.290274715E1,-6.991282701E-1
3.743733333E0,2.839609861E0,1.299133492E1,-7.230709791E-1
3.745733066E0,2.868341208E0,1.315893459E1,-7.781392932E-1
3.747732799E0,2.909043789E0,1.331935120E1,-7.685621977E-1
3.749732532E0,2.906649590E0,1.360426903E1,-8.379961848E-1
3.751732265E0,2.892283916E0,1.360426903E1,-8.667274714E-1
3.753731998E0,2.875524044E0,1.375510883E1,-8.978530765E-1
3.755731798E0,2.851581335E0,1.382454300E1,-9.265843630E-1
3.757731531E0,2.801301479E0,1.397777653E1,-9.624984860E-1
3.759731264E0,2.789330244E0,1.407833576E1,-9.840469360E-1
3.761730997E0,2.786935806E0,1.435367775E1,-1.060663700E0
3.763730730E0,2.736656189E0,1.457395077E1,-1.151646137E0
3.765730463E0,2.679193497E0,1.468648148E1,-1.180377483E0
3.767730629E0,2.561874151E0,1.484929276E1,-1.194743156E0
3.769730429E0,2.248224020E0,1.526350212E1,-1.268965602E0
3.771730229E0,2.248224020E0,1.526350212E1,-1.268965602E0
3.773729962E0,2.159635782E0,1.534490681E1,-1.261782765E0
3.775729695E0,1.960911036E0,1.548138046E1,-1.213897347E0
3.777729428E0,1.860351562E0,1.555560303E1,-1.187560320E0
3.779729161E0,1.541913033E0,1.548377514E1,-1.098972082E0
3.781728894E0,1.333611012E0,1.527786732E1,-1.065452337E0
3.783728627E0,9.170072675E-1,1.466493320E1,-9.840469360E-1
3.785728427E0,5.746259689E-1,1.396819878E1,-8.332076073E-1
3.787728160E0,4.644893110E-1,1.365215492E1,-7.494080067E-1
3.789727893E0,4.070267081E-2,1.263219357E1,-4.429408312E-1
3.791727626E0,-5.985686928E-2,1.241192055E1,-3.854782581E-1
3.793727392E0,-5.985686928E-2,1.241192055E1,-3.854782581E-1
3.795727125E0,-2.490045726E-1,1.197616291E1,-2.992843390E-1
3.797726858E0,-4.357580245E-1,1.154519272E1,-2.513988614E-1
3.799726591E0,-5.195576549E-1,1.134646797E1,-2.466102988E-1
3.801726391E0,-7.182824612E-1,1.090352726E1,-2.083019018E-1
3.803726124E0,-8.499675393E-1,1.062579155E1,-1.915419847E-1
3.805725857E0,-1.072635174E0,1.024031353E1,-1.316851079E-1
3.807725590E0,-1.249811411E0,9.981731415E0,-9.816526622E-2
3.809725323E0,-1.422199249E0,9.639349937E0,-2.394274808E-3
3.811725056E0,-1.510787368E0,9.507665634E0,2.633702382E-2
3.813724789E0,-1.585009933E0,9.375980377E0,6.943397224E-2
3.815724522E0,-1.642472506E0,9.246688843E0,1.077423692E-1
3.817724322E0,-1.764580488E0,9.012050629E0,1.652049571E-1
3.819724055E0,-1.884294271E0,8.772623062E0,1.939362586E-1
3.821723788E0,-1.929785490E0,8.676852226E0,1.915419847E-1
3.823723521E0,-2.008796453E0,8.540378571E0,1.675992310E-1
3.825723254E0,-2.023162127E0,8.473338127E0,1.340793967E-1
3.827722987E0,-2.049499273E0,8.356019020E0,6.464541703E-2
3.829722720E0,-2.056682110E0,8.152505875E0,-7.182824612E-2
3.831722453E0,-2.056682110E0,8.152505875E0,-7.182824612E-2
3.833722253E0,-2.039922237E0,8.114197731E0,-1.053480953E-1
3.835721986E0,-1.963305354E0,8.068706512E0,-1.867534369E-1
3.837721719E0,-1.915419817E0,8.056735039E0,-2.202732861E-1
3.839721452E0,-1.814860344E0,7.984906673E0,-2.537931204E-1
3.841721185E0,-1.711906433E0,7.937020779E0,-2.370332032E-1
3.843720918E0,-1.647261024E0,7.920260906E0,-2.083019018E-1
3.845720651E0,-1.513181686E0,7.944203854E0,-1.364736706E-1
3.847720451E0,-1.429382086E0,7.941809654E0,-1.005595401E-1
3.849720251E0,-1.149251938E0,7.948992252E0,1.053480953E-1
3.851719984E0,-1.065452337E0,7.972935200E0,1.556278616E-1
3.853720150E0,-1.065452337E0,7.972935200E0,1.556278616E-1
3.855719883E0,-9.241901040E-1,7.987300873E0,2.585816681E-1
3.857719616E0,-7.470137477E-1,8.044763565E0,2.921015322E-1
3.859719349E0,-6.368771195E-1,8.109408379E0,2.657645047E-1
3.861719082E0,-4.357580245E-1,8.269824982E0,1.221080124E-1
3.863718882E0,-2.250618339E-1,8.423058510E0,-9.337671846E-2
3.865718682E0,-1.460507661E-1,8.511647224E0,-1.987248063E-1
3.867718015E0,2.394274808E-3,8.672063828E0,-3.687183261E-1
3.869717748E0,8.379961550E-2,8.842057228E0,-5.411061049E-1
3.871717481E0,1.388679445E-1,8.976136208E0,-5.578660369E-1
3.873717214E0,1.963305324E-1,9.117398262E0,-5.506832004E-1
3.875716947E0,2.633702159E-1,9.268238068E0,-5.458946824E-1
3.877716680E0,3.878725171E-1,9.574705124E0,-5.147690773E-1
3.879716480E0,4.525179267E-1,9.864412308E0,-3.974496126E-1
3.881716213E0,4.716721475E-1,1.001525116E1,-3.423812985E-1
3.883715946E0,5.219519138E-1,1.029059315E1,-2.442160249E-1
3.885715679E0,6.296942830E-1,1.058030033E1,-1.795706153E-1
3.887715412E0,7.039167881E-1,1.072395706E1,-1.604164094E-1
3.889715145E0,1.051086664E0,1.121957207E1,4.788549617E-3
3.891714878E0,1.051086664E0,1.121957207E1,4.788549617E-3
3.893714611E0,1.161223292E0,1.135125732E1,5.267404765E-2
3.895714411E0,1.398256540E0,1.158589554E1,2.059076279E-1
3.897714144E0,1.501210332E0,1.169124413E1,3.016786277E-1
3.899713877E0,1.668809533E0,1.192109394E1,5.099805593E-1
3.901713610E0,1.819648862E0,1.219164753E1,6.656084061E-1
3.903713343E0,1.901054144E0,1.232333279E1,7.326480746E-1
3.905713076E0,2.099778891E0,1.257233715E1,8.164477348E-1
3.907712809E0,2.264983892E0,1.277585030E1,8.930644989E-1
3.909712542E0,2.566662550E0,1.302246094E1,9.265843630E-1
3.911712342E0,2.566662550E0,1.302246094E1,9.265843630E-1
3.913711342E0,2.566662550E0,1.302246094E1,9.265843630E-1
3.915711108E0,2.676799297E0,1.308710575E1,8.978530765E-1
3.917710508E0,2.777358770E0,1.311583710E1,8.212362528E-1
3.919710274E0,2.827638626E0,1.311823177E1,7.709565163E-1
3.921710040E0,2.916226625E0,1.308710575E1,6.608198285E-1
3.923709806E0,2.944957972E0,1.301048946E1,5.411061049E-1
3.925709572E0,2.940169573E0,1.296499825E1,4.860377908E-1
3.927709805E0,2.909043789E0,1.279739857E1,4.333637357E-1
3.929709571E0,2.741444588E0,1.223713875E1,4.261809289E-1
3.931709337E0,2.741444588E0,1.223713875E1,4.261809289E-1
3.933709103E0,2.664827824E0,1.206953907E1,4.166038036E-1
3.935709303E0,2.535537004E0,1.190433407E1,3.974496126E-1
3.937709069E0,2.468497276E0,1.152603912E1,3.998439014E-1
3.939708835E0,2.284138203E0,1.113098335E1,3.711125851E-1
3.941708668E0,2.181184292E0,1.094423008E1,3.495641351E-1
3.943708501E0,1.960911036E0,1.056354046E1,2.897072434E-1
3.945707767E0,1.723877907E0,1.022115898E1,2.250618339E-1
3.947707533E0,1.606558442E0,1.006313705E1,1.915419847E-1
3.949707299E0,1.060663700E0,9.397528648E0,1.029538140E-1
3.951707065E0,1.060663700E0,9.397528648E0,1.029538140E-1
3.953706831E0,9.361614585E-1,9.263449669E0,8.140534163E-2
3.955706597E0,6.751855016E-1,9.000079155E0,5.746259540E-2
3.957706430E0,5.554717779E-1,8.887548447E0,5.267404765E-2
3.959706196E0,3.663240373E-1,8.724737167E0,4.309694469E-2
3.961705962E0,2.681587934E-1,8.581081390E0,-1.197137404E-2
3.963705728E0,2.418217510E-1,8.537983894E0,-4.549122229E-2
3.965705494E0,2.059076279E-1,8.435029984E0,-1.197137386E-1
3.967704827E0,2.418217510E-1,8.391933441E0,-1.699935049E-1
3.969704593E0,3.830839694E-1,8.379961967E0,-2.801301479E-1
3.971704359E0,3.830839694E-1,8.379961967E0,-2.801301479E-1
3.973704492E0,4.118152559E-1,8.379961967E0,-3.136500120E-1
3.975704225E0,4.453351200E-1,8.382355690E0,-3.423812985E-1
3.977704325E0,5.075862408E-1,8.396721840E0,-3.782954216E-1
3.979704058E0,5.435003638E-1,8.396721840E0,-3.950553536E-1
3.981703791E0,5.626545548E-1,8.396721840E0,-3.782954216E-1
3.983703524E0,5.865973234E-1,8.423058510E0,-3.208328187E-1
3.985702324E0,5.698373914E-1,8.439818382E0,-2.825244367E-1
3.987702057E0,5.435003638E-1,8.497281075E0,-2.346389294E-1
3.989701857E0,6.033572555E-1,8.650514603E0,-1.005595401E-1
3.991701590E0,6.033572555E-1,8.650514603E0,-1.005595401E-1
3.993701323E0,6.033572555E-1,8.693612099E0,-7.422251999E-2
3.995700623E0,6.129343510E-1,8.729525566E0,4.788549617E-3
3.997700356E0,6.249057055E-1,8.755863190E0,4.309694469E-2
3.999700089E0,6.512427330E-1,8.798959732E0,1.364736706E-1
4.001699389E0,6.919454336E-1,8.844450951E0,1.747820675E-1
4.003699122E0,7.972934842E-1,8.921068192E0,2.346389294E-1
4.005699422E0,8.643332124E-1,9.040781975E0,2.921015322E-1
4.007699155E0,8.834874034E-1,9.095849991E0,3.112557232E-1
4.009698888E0,1.007989645E0,9.201197624E0,3.782954216E-1
4.011698621E0,1.007989645E0,9.201197624E0,3.782954216E-1
4.013698354E0,1.048692346E0,9.208380699E0,3.806896806E-1
4.015698087E0,1.110943556E0,9.234718323E0,4.213923812E-1
4.017697820E0,1.168406129E0,9.251478195E0,5.435003638E-1
4.019697620E0,1.201925993E0,9.263449669E0,6.249057055E-1
4.021697420E0,1.211503029E0,9.299363136E0,7.398309112E-1
4.023697153E0,1.211503029E0,9.296969414E0,7.925049663E-1
4.025696886E0,1.199531674E0,9.292180061E0,8.978530765E-1
4.027697052E0,1.194743156E0,9.371191978E0,9.385557175E-1
4.029696785E0,1.225868702E0,9.555550575E0,1.015172482E0
4.031696518E0,1.225868702E0,9.555550575E0,1.015172482E0
4.033696318E0,1.245022893E0,9.586676598E0,1.055875182E0
4.035696118E0,1.259388566E0,9.613013268E0,1.118126392E0
4.037695851E0,1.273754239E0,9.636956215E0,1.216291547E0
4.039695584E0,1.321639657E0,9.639349937E0,1.302485466E0
4.041695317E0,1.336005330E0,9.651321411E0,1.321639657E0
4.043695050E0,1.362342358E0,9.639349937E0,1.347976685E0
4.045695716E0,1.350371003E0,9.615407944E0,1.350371003E0
4.047695449E0,1.338399649E0,9.577098846E0,1.340793848E0
4.049695182E0,1.355159521E0,9.457385063E0,1.352765322E0
4.051694982E0,1.355159521E0,9.457385063E0,1.352765322E0
4.053694348E0,1.350371003E0,9.419076920E0,1.362342358E0
4.055694081E0,1.328822494E0,9.392740250E0,1.362342358E0
4.057693814E0,1.324033976E0,9.368797302E0,1.357553840E0
4.059693547E0,1.300091267E0,9.280209541E0,1.405439258E0
4.061693713E0,1.283331275E0,9.198803902E0,1.371919513E0
4.063693079E0,1.283331275E0,9.158101082E0,1.345582485E0
4.065692812E0,1.254600048E0,9.064723969E0,1.364736676E0
4.067692612E0,1.237840056E0,9.021627426E0,1.374313712E0
4.069692345E0,1.192348838E0,8.796566010E0,1.398256540E0
4.071692078E0,1.192348838E0,8.796566010E0,1.398256540E0
4.073691811E0,1.175588965E0,8.753468513E0,1.400650740E0
4.075691544E0,1.142069101E0,8.657697678E0,1.403045058E0
4.077691277E0,1.096577883E0,8.535589218E0,1.453324795E0
4.079691010E0,1.065452337E0,8.466156006E0,1.474873304E0
4.081690743E0,1.007989645E0,8.341653824E0,1.482056141E0
4.083690543E0,9.648927450E-1,8.238699913E0,1.496421814E0
4.085689643E0,9.505270720E-1,8.197997093E0,1.508393168E0
4.087689376E0,9.241901040E-1,8.095043182E0,1.520364523E0
4.089689109E0,8.020820618E-1,7.881952763E0,1.561067224E0
4.091688842E0,8.020820618E-1,7.881952763E0,1.561067224E0
4.093689042E0,7.326480746E-1,7.716747761E0,1.594586968E0
4.095688775E0,6.775797606E-1,7.549148560E0,1.666415215E0
4.097688575E0,7.398309112E-1,7.618582249E0,1.687963724E0
4.099688375E0,8.140534163E-1,7.786181450E0,1.611346960E0
4.101689341E0,8.140534163E-1,7.814912796E0,1.596981287E0
4.103689074E0,8.020820618E-1,7.834067345E0,1.565855742E0
4.105688807E0,7.853221297E-1,7.843644142E0,1.546701550E0
4.107688540E0,7.805336118E-1,7.829278469E0,1.558672905E0
4.109688273E0,6.895511150E-1,7.757450581E0,1.525153041E0
4.111688006E0,6.895511150E-1,7.757450581E0,1.525153041E0
4.113688172E0,6.512427330E-1,7.709564686E0,1.549095750E0
4.115687972E0,5.746259689E-1,7.604216576E0,1.582615614E0
4.117687705E0,5.530774593E-1,7.573091030E0,1.594586968E0
4.119687438E0,5.339232683E-1,7.527599812E0,1.628106833E0
4.121687171E0,5.387118459E-1,7.520417213E0,1.632895470E0
4.123687271E0,5.458946824E-1,7.522811413E0,1.635289669E0
4.125687004E0,5.650488734E-1,7.532388687E0,1.618529797E0
4.127686737E0,5.794144869E-1,7.539571285E0,1.608952641E0
4.129686537E0,6.081457734E-1,7.599428177E0,1.553884387E0
4.131686270E0,6.057515144E-1,7.628159523E0,1.539518714E0
4.133685670E0,5.985686779E-1,7.652102470E0,1.520364523E0
4.135684470E0,6.009629965E-1,7.668862343E0,1.498816013E0
4.137684203E0,5.961744189E-1,7.690410614E0,1.455719113E0
4.139683936E0,5.818088055E-1,7.695199013E0,1.410227895E0
4.141683669E0,5.411061049E-1,7.721536160E0,1.326428294E0
4.143683402E0,5.506832004E-1,7.790970325E0,1.304879785E0
4.145683835E0,5.506832004E-1,7.817307472E0,1.316851139E0
4.147683601E0,5.267404318E-1,7.848433018E0,1.300091267E0
4.149683367E0,5.411061049E-1,7.901106834E0,1.345582485E0
4.151683133E0,5.411061049E-1,7.901106834E0,1.345582485E0
4.153682933E0,5.506832004E-1,7.903501034E0,1.362342358E0
4.155682699E0,5.602602959E-1,7.903501034E0,1.395862222E0
4.157682465E0,5.770202279E-1,7.898712635E0,1.431776285E0
4.159682231E0,6.081457734E-1,7.881952763E0,1.517970204E0
4.161680831E0,6.320885420E-1,7.879558563E0,1.556278586E0
4.163680697E0,6.895511150E-1,7.881952763E0,1.628106833E0
4.165680563E0,7.470137477E-1,7.891529560E0,1.752609134E0
4.167680429E0,7.901107073E-1,7.884346962E0,1.807677507E0
4.169680295E0,1.010383964E0,7.822095871E0,2.071047783E0
4.171680161E0,1.010383964E0,7.822095871E0,2.071047783E0
4.173680027E0,1.091789365E0,7.814912796E0,2.118933201E0
4.175679893E0,1.252205729E0,7.817307472E0,2.236252785E0
4.177679826E0,1.383890867E0,7.798152924E0,2.346389294E0
4.179679759E0,1.434170604E0,7.778998852E0,2.396669149E0
4.181678759E0,1.534730196E0,7.790970325E0,2.485257149E0
4.183678692E0,1.549095750E0,7.786181450E0,2.533142805E0
4.185678625E0,1.623318315E0,7.783787251E0,2.585816860E0
4.187678558E0,1.769369125E0,7.805335999E0,2.633702278E0
4.189678491E0,1.956122518E0,7.826884270E0,2.707924843E0
4.191678491E0,2.006402254E0,7.831672668E0,2.729473352E0
4.193678824E0,2.049499273E0,7.826884270E0,2.739050388E0
4.195679724E0,2.102173328E0,7.814912796E0,2.753416061E0
4.197679690E0,2.147664547E0,7.817307472E0,2.767781734E0
4.199679656E0,2.159635782E0,7.812518597E0,2.810878515E0
4.201679622E0,2.157241583E0,7.795758724E0,2.837215662E0
4.203679588E0,2.197944164E0,7.747873306E0,2.901860952E0
4.205679554E0,2.236252785E0,7.728719234E0,2.928198099E0
4.207679554E0,2.332023621E0,7.676044941E0,2.983266354E0
4.209679520E0,2.590605259E0,7.575485706E0,2.995237827E0
4.211679486E0,2.590605259E0,7.575485706E0,2.995237827E0
4.213678886E0,2.672010660E0,7.556331158E0,2.992843628E0
4.215678852E0,2.794118643E0,7.520417213E0,3.007209063E0
4.217678818E0,2.858764172E0,7.494080067E0,3.021574736E0
4.219677851E0,2.959323645E0,7.443800449E0,3.052700281E0
4.221677817E0,3.086220264E0,7.398309231E0,3.047911882E0
4.223677750E0,3.150865555E0,7.381549358E0,3.064671755E0
4.225677683E0,3.289733648E0,7.352818012E0,3.117345810E0
4.227677616E0,3.356773376E0,7.340846539E0,3.126922846E0
4.229677549E0,3.641691923E0,7.338452339E0,3.126922846E0
4.231677482E0,3.641691923E0,7.338452339E0,3.126922846E0
4.233677415E0,3.708731651E0,7.345634937E0,3.129317284E0
4.235677581E0,3.809291124E0,7.336058140E0,3.146077156E0
4.237677514E0,3.885908127E0,7.338452339E0,3.165231228E0
4.239677447E0,3.921822071E0,7.328875065E0,3.172414064E0
4.241678247E0,4.000833035E0,7.321692467E0,3.179596901E0
4.243678113E0,4.067873001E0,7.340846539E0,3.193962574E0
4.245677979E0,4.098998547E0,7.352818012E0,3.205934048E0
4.247677845E0,4.127729893E0,7.379155159E0,3.241847992E0
4.249677711E0,4.094210148E0,7.391126156E0,3.416630268E0
4.251677577E0,4.094210148E0,7.386337757E0,3.416630268E0
4.253677943E0,4.060689926E0,7.393520832E0,3.474092722E0
4.255677843E0,4.029564381E0,7.410280704E0,3.524372578E0
4.257677676E0,4.000833035E0,7.467742920E0,3.620143414E0
4.259677509E0,3.969707727E0,7.489291668E0,3.730280161E0
4.261677342E0,3.940976381E0,7.510839939E0,3.778165579E0
4.263677175E0,3.895485163E0,7.556331158E0,3.869148016E0
4.265677008E0,3.852388144E0,7.582668304E0,3.952947617E0
4.267676841E0,3.842811108E0,7.597033978E0,4.008016109E0
