"Time (s)","Gyroscope x (rad/s)","Gyroscope y (rad/s)","Gyroscope z (rad/s)"
0.000000000E0,-1.559448242E0,-1.048797607E0,1.830139160E-1
4.821778000E-3,-1.559448242E0,-1.048797607E0,1.830139160E-1
9.735108000E-3,-1.559448242E0,-1.048797607E0,1.830139160E-1
1.461792000E-2,-1.559448242E0,-1.048797607E0,1.830139160E-1
1.947021500E-2,-1.559448242E0,-1.048797607E0,1.830139160E-1
2.435302800E-2,-1.559448242E0,-1.048797607E0,1.830139160E-1
2.923584000E-2,-1.559448242E0,-1.048797607E0,1.830139160E-1
3.411865300E-2,-1.559448242E0,-1.048797607E0,1.830139160E-1
3.900146500E-2,-1.559448242E0,-1.048797607E0,1.830139160E-1
4.388427800E-2,-1.559448242E0,-1.048797607E0,1.830139160E-1
4.876709000E-2,-1.559448242E0,-1.048797607E0,1.830139160E-1
5.364990300E-2,-1.559448242E0,-1.048797607E0,1.830139160E-1
5.853271500E-2,-1.559448242E0,-1.048797607E0,1.830139160E-1
6.341552800E-2,-1.559448242E0,-1.048797607E0,1.830139160E-1
6.829834000E-2,-1.559448242E0,-1.048797607E0,1.830139160E-1
7.318115300E-2,-1.559448242E0,-1.048797607E0,1.830139160E-1
7.806396500E-2,-1.559448242E0,-1.048797607E0,1.830139160E-1
8.294677800E-2,-1.559448242E0,-1.048797607E0,1.830139160E-1
8.782959000E-2,-2.789733887E0,-1.568634033E0,7.254638672E-1
9.271240300E-2,-2.425659180E0,-1.242431641E0,6.582641602E-1
9.759521500E-2,-2.010879517E0,-7.977142334E-1,5.721282959E-1
1.024780280E-1,-1.580825806E0,-3.151397705E-1,5.202026367E-1
1.073608400E-1,-1.197204590E0,5.381774902E-2,5.043182373E-1
1.122436530E-1,-9.155883789E-1,1.479034424E-1,4.542388916E-1
1.170959480E-1,-7.023925781E-1,1.509552002E-1,4.267425537E-1
1.219787600E-1,-5.386810303E-1,3.171081543E-1,5.458679199E-1
1.268615730E-1,-4.855346680E-1,4.826507568E-1,6.814727783E-1
1.317443850E-1,-5.429534912E-1,6.201019287E-1,7.669982910E-1
1.366271980E-1,-6.632995605E-1,7.697601318E-1,8.525238037E-1
1.415100100E-1,-8.196868896E-1,8.907165527E-1,9.117736816E-1
1.463928230E-1,-9.888916016E-1,9.799041748E-1,9.465942383E-1
1.512756350E-1,-1.167877197E0,9.163818359E-1,9.588165283E-1
1.561584480E-1,-1.343811035E0,5.608520508E-1,9.447631836E-1
1.610412600E-1,-1.491027832E0,-6.529235840E-2,9.026031494E-1
1.659240730E-1,-1.594879150E0,-7.170867920E-1,8.702392578E-1
1.708068850E-1,-1.648635864E0,-1.160583496E0,8.989410400E-1
1.756896980E-1,-1.648025513E0,-1.360931396E0,9.899597168E-1
1.805725100E-1,-1.594268799E0,-1.430587769E0,1.073654175E0
1.854553230E-1,-1.493469238E0,-1.470901489E0,1.091979980E0
1.903381350E-1,-1.353576660E0,-1.516113281E0,1.044342041E0
1.952209480E-1,-1.183761597E0,-1.578414917E0,9.704132080E-1
2.001037600E-1,-1.008438110E0,-1.674316406E0,9.129943848E-1
2.049865730E-1,-8.435058594E-1,-1.816040039E0,8.916168213E-1
2.098693850E-1,-6.956787109E-1,-1.979751587E0,9.050598145E-1
2.147216800E-1,-5.619049072E-1,-2.133682251E0,9.258270264E-1
2.196044920E-1,-4.348297119E-1,-2.276641846E0,9.252166748E-1
2.244873050E-1,-3.034973145E-1,-2.402465820E0,8.842773438E-1
2.293701170E-1,-1.623840332E-1,-2.493499756E0,8.115997314E-1
2.342529300E-1,-1.092376709E-1,-2.255249023E0,7.199554443E-1
2.391357420E-1,-2.185821533E-1,-1.666366577E0,5.678558350E-1
2.440185550E-1,-2.460784912E-1,-1.574127197E0,3.479461670E-1
2.489013670E-1,-2.198028564E-1,-1.536254883E0,1.268157959E-1
2.537841800E-1,-2.130889893E-1,-1.243652344E0,-4.240417480E-2
2.586669920E-1,-2.369079590E-1,-8.343658447E-1,-1.370849609E-1
2.635498050E-1,-2.857818604E-1,-5.002288818E-1,-1.700744629E-1
2.684326170E-1,-3.230438232E-1,-2.943725586E-1,-1.664123535E-1
2.733154300E-1,-3.352661133E-1,-1.905059814E-1,-1.560058594E-1
2.781982420E-1,-3.303680420E-1,-1.624145508E-1,-1.474609375E-1
2.830810550E-1,-3.383178711E-1,-1.905059814E-1,-1.230316162E-1
2.879638670E-1,-3.743591309E-1,-3.230743408E-1,-8.760070801E-2
2.928466800E-1,-4.250488281E-1,-5.704803467E-1,-7.049560547E-2
2.977294920E-1,-4.696502686E-1,-8.539276123E-1,-8.026123047E-2
3.026123050E-1,-5.118103027E-1,-1.098266602E0,-8.026123047E-2
3.074951170E-1,-5.667877197E-1,-1.304138184E0,-3.933715820E-2
3.123474120E-1,-6.468048096E-1,-1.492889404E0,5.654907227E-2
3.172302250E-1,-6.822357178E-1,-1.688980103E0,1.891174316E-1
3.221130370E-1,-5.698394775E-1,-1.919281006E0,3.424377441E-1
3.269958500E-1,-4.152832031E-1,-2.075042725E0,5.086059570E-1
3.318786620E-1,-2.766113281E-1,-2.119644165E0,6.796417236E-1
3.367614750E-1,-1.636047363E-1,-2.078704834E0,8.555755615E-1
3.416442870E-1,-1.049652100E-1,-1.905838013E0,1.013793945E0
3.465271000E-1,-1.067962646E-1,-1.624221802E0,1.147567749E0
3.514099120E-1,-1.410064697E-1,-1.331619263E0,1.251419067E0
3.562927250E-1,-1.892700195E-1,-1.126983643E0,1.316162109E0
3.611755370E-1,-2.595062256E-1,-1.058563232E0,1.333267212E0
3.660583500E-1,-3.682556152E-1,-1.152633667E0,1.299682617E0
3.709411620E-1,-5.301361084E-1,-1.359710693E0,1.211105347E0
3.758239750E-1,-7.378234863E-1,-1.632781982E0,1.055328369E0
3.807067870E-1,-8.691558838E-1,-2.054275513E0,8.842773438E-1
3.855896000E-1,-8.838195801E-1,-2.640106201E0,7.676086426E-1
3.904724120E-1,-8.007507324E-1,-3.374984741E0,7.211761475E-1
3.953552250E-1,-6.248168945E-1,-4.198440552E0,7.566070557E-1
4.002380370E-1,-3.786315918E-1,-5.032882690E0,8.616943359E-1
4.050903320E-1,-9.458923340E-2,-5.857559204E0,1.021728516E0
4.099731450E-1,2.096252441E-1,-6.690780640E0,1.211715698E0
4.148559570E-1,5.138397217E-1,-7.503250122E0,1.402297974E0
4.197387700E-1,7.862854004E-1,-8.221023560E0,1.570297241E0
4.246215820E-1,1.018417358E0,-8.756134033E0,1.686355591E0
4.295043950E-1,1.226104736E0,-9.088455200E0,1.751724243E0
4.343872070E-1,1.425872803E0,-9.257049561E0,1.803039551E0
4.392700200E-1,1.634170532E0,-9.302246094E0,1.854354858E0
4.441528320E-1,1.855300903E0,-9.250335693E0,1.903823853E0
4.490356450E-1,2.075836182E0,-9.092727661E0,1.944763184E0
4.539184570E-1,2.278640747E0,-8.790344238E0,1.990570068E0
4.588012700E-1,2.428924561E0,-8.305923462E0,2.070587158E0
4.636840820E-1,2.497940063E0,-7.684066772E0,2.204376221E0
4.685668950E-1,2.480239868E0,-7.010879517E0,2.388870239E0
4.734497070E-1,2.379440308E0,-6.395126343E0,2.596557617E0
4.783325200E-1,2.203506470E0,-5.907028198E0,2.800582886E0
4.832153320E-1,1.984191895E0,-5.539901733E0,2.978958130E0
4.880981450E-1,1.769180298E0,-5.256454468E0,3.096252441E0
4.929809570E-1,1.574920654E0,-5.002349854E0,3.111526489E0
4.978637700E-1,1.394714355E0,-4.776931763E0,3.011337280E0
5.027160650E-1,1.205963135E0,-4.638259888E0,2.816467285E0
5.075988770E-1,9.988708496E-1,-4.602218628E0,2.559295654E0
5.124816900E-1,7.917785645E-1,-4.599166870E0,2.269134521E0
5.173645020E-1,6.072998047E-1,-4.579620361E0,1.978347778E0
5.222473150E-1,4.594726562E-1,-4.536254883E0,1.712020874E0
5.271301270E-1,3.476867676E-1,-4.461715698E0,1.488433838E0
5.320129400E-1,2.676544189E-1,-4.355422974E0,1.309448242E0
5.368957520E-1,2.187805176E-1,-4.239364624E0,1.179336548E0
5.417785650E-1,2.077941895E-1,-4.136123657E0,1.088928223E0
5.466613770E-1,2.316131592E-1,-4.095199585E0,1.026611328E0
5.515441900E-1,2.823181152E-1,-4.160568237E0,9.771423340E-1
5.564270020E-1,3.544006348E-1,-4.299224854E0,9.368133545E-1
5.613098150E-1,4.411468506E-1,-4.487380981E0,9.502563477E-1
5.661926270E-1,5.645446777E-1,-4.665756226E0,1.042495728E0
5.710754400E-1,7.227630615E-1,-4.726226807E0,1.164672852E0
5.759582520E-1,8.883056641E-1,-4.583282471E0,1.275848389E0
5.808410650E-1,1.036132812E0,-4.221649170E0,1.360763550E0
5.857238770E-1,1.165023804E0,-3.694473267E0,1.411468506E0
5.906066900E-1,1.285980225E0,-3.082977295E0,1.398635864E0
5.954895020E-1,1.402053833E0,-2.455001831E0,1.314346313E0
6.003417970E-1,1.503448486E0,-1.889953613E0,1.169570923E0
6.052246100E-1,1.582855225E0,-1.419586182E0,9.832458496E-1
6.101074220E-1,1.641510010E0,-1.029235840E0,7.822723389E-1
6.149902350E-1,1.681823730E0,-7.164764404E-1,5.916900635E-1
6.198730470E-1,1.709930420E0,-4.647979736E-1,4.218597412E-1
6.247558600E-1,1.727630615E0,-2.589263916E-1,2.807464600E-1
6.296386720E-1,1.738632202E0,-6.956481934E-2,1.799468994E-1
6.345214850E-1,1.742904663E0,1.271209717E-1,1.158142090E-1
6.394042970E-1,1.729476929E0,3.183288574E-1,7.977294922E-2
6.442871100E-1,1.689163208E0,4.747161865E-1,5.654907227E-2
6.491699220E-1,1.614013672E0,5.730743408E-1,3.517150879E-2
6.540527350E-1,1.501617432E0,6.121673584E-1,1.074218750E-2
6.589355470E-1,1.361724854E0,5.895538330E-1,-1.429748535E-2
6.638183600E-1,1.206558228E0,5.089263916E-1,-4.055786133E-2
6.687011720E-1,1.044677734E0,3.702545166E-1,-7.232666016E-2
6.735839850E-1,8.901367188E-1,1.851654053E-1,-1.114196777E-1
6.784667970E-1,7.539062500E-1,-3.962707520E-2,-1.584625244E-1
6.833496100E-1,6.427307129E-1,-2.876434326E-1,-2.097778320E-1
6.882324220E-1,5.749206543E-1,-5.454254150E-1,-2.580261230E-1
6.931152350E-1,5.559844971E-1,-8.056640625E-1,-3.026275635E-1
6.979675300E-1,5.822448730E-1,-1.067718506E0,-3.417205811E-1
7.028503420E-1,6.396789551E-1,-1.319396973E0,-3.765411377E-1
7.077331550E-1,7.135925293E-1,-1.542373657E0,-3.997497559E-1
7.126159670E-1,7.942199707E-1,-1.736633301E0,-4.125823975E-1
7.174987800E-1,8.718109131E-1,-1.909500122E0,-4.192962646E-1
7.223815920E-1,9.286193848E-1,-2.059783936E0,-4.272460938E-1
7.272644050E-1,9.585571289E-1,-2.165451050E0,-4.296875000E-1
7.321472170E-1,9.591674805E-1,-2.211273193E0,-4.150238037E-1
7.370300300E-1,9.280090332E-1,-2.216766357E0,-3.795928955E-1
7.419128420E-1,8.797454834E-1,-2.200271606E0,-3.264465332E-1
7.467956550E-1,8.247680664E-1,-2.163635254E0,-2.610931396E-1
7.516784670E-1,7.581939697E-1,-2.071380615E0,-1.835021973E-1
7.565612800E-1,6.702270508E-1,-1.899734497E0,-1.034851074E-1
7.614440920E-1,5.621032715E-1,-1.644378662E0,-2.223205566E-2
7.663269050E-1,4.344329834E-1,-1.329788208E0,5.227661133E-2
7.712097170E-1,2.902526855E-1,-9.883117676E-1,1.017608643E-1
7.760925300E-1,1.375427246E-1,-6.456146240E-1,1.170349121E-1
7.809753420E-1,-1.272583008E-2,-3.151397705E-1,9.686279297E-2
7.858581550E-1,-1.532287598E-1,-1.770019531E-3,4.922485352E-2
7.907409670E-1,-2.808990479E-1,2.908477783E-1,-1.551818848E-2
7.955932620E-1,-3.939056396E-1,5.620727539E-1,-9.187316895E-2
8.004760750E-1,-4.873657227E-1,8.009185791E-1,-1.755676270E-1
8.053588870E-1,-5.551757812E-1,1.001281738E0,-2.647552490E-1
8.102417000E-1,-5.985565186E-1,1.161331177E0,-3.606567383E-1
8.151245120E-1,-6.156616211E-1,1.272506714E0,-4.559631348E-1
8.200073250E-1,-6.040496826E-1,1.337875366E0,-5.512542725E-1
8.248901370E-1,-5.557861328E-1,1.365966797E0,-6.361694336E-1
8.297729500E-1,-4.727020264E-1,1.354980469E0,-7.057952881E-1
8.346557620E-1,-3.542022705E-1,1.296951294E0,-7.467346191E-1
8.395385750E-1,-2.130889893E-1,1.191268921E0,-7.534484863E-1
8.444213870E-1,-6.282043457E-2,1.045272827E0,-7.290039062E-1
8.493042000E-1,8.378601074E-2,8.833923340E-1,-6.874694824E-1
8.541870120E-1,2.120666504E-1,7.245483398E-1,-6.398315430E-1
8.590698250E-1,3.049163818E-1,5.681762695E-1,-5.866699219E-1
8.639526370E-1,3.598937988E-1,4.117889404E-1,-5.317077637E-1
8.688354500E-1,3.825073242E-1,2.578582764E-1,-4.761047363E-1
8.737182620E-1,3.831176758E-1,1.253051758E-1,-4.186859131E-1
8.786010750E-1,3.629608154E-1,2.389526367E-2,-3.551635742E-1
8.834838870E-1,3.220214844E-1,-3.840637207E-2,-2.904052734E-1
8.883667000E-1,2.597198486E-1,-6.344604492E-2,-2.335968018E-1
8.932189940E-1,1.790924072E-1,-7.261657715E-2,-1.865539551E-1
8.981018070E-1,8.622741699E-2,-6.222534180E-2,-1.578521729E-1
9.029846190E-1,-1.272583008E-2,-2.435302734E-2,-1.535644531E-1
9.078674320E-1,-1.116943359E-1,3.550720215E-2,-1.749572754E-1
9.127502440E-1,-2.149200439E-1,1.136779785E-1,-2.195434570E-1
9.176330570E-1,-3.199920654E-1,2.083740234E-1,-2.775726318E-1
9.225158690E-1,-4.171295166E-1,3.219909668E-1,-3.466033936E-1
9.273986820E-1,-5.044708252E-1,4.551696777E-1,-4.211273193E-1
9.322814940E-1,-5.875549316E-1,6.133880615E-1,-4.993286133E-1
9.371643070E-1,-6.687927246E-1,8.058013916E-1,-5.738525391E-1
9.420471190E-1,-7.463684082E-1,1.025726318E0,-6.331024170E-1
9.469299320E-1,-8.209075928E-1,1.266403198E0,-6.721954346E-1
9.518127440E-1,-8.923797607E-1,1.517471313E0,-6.899108887E-1
9.566955570E-1,-9.546813965E-1,1.764877319E0,-6.899108887E-1
9.615783690E-1,-1.000503540E0,1.984786987E0,-6.795349121E-1
9.664611820E-1,-1.022491455E0,2.157669067E0,-6.648712158E-1
9.713439940E-1,-1.016372681E0,2.273727417E0,-6.538696289E-1
9.762268070E-1,-9.907226562E-1,2.320770264E0,-6.477661133E-1
9.811096190E-1,-9.491882324E-1,2.298782349E0,-6.422729492E-1
9.859619140E-1,-8.923797607E-1,2.224243164E0,-6.373901367E-1
9.908447270E-1,-8.233489990E-1,2.113677979E0,-6.349487305E-1
9.957275390E-1,-7.469940186E-1,1.976837158E0,-6.324920654E-1
1.000610352E0,-6.620788574E-1,1.810684204E0,-6.306610107E-1
1.005493164E0,-5.777740479E-1,1.624374390E0,-6.318817139E-1
1.010375977E0,-4.971466064E-1,1.435607910E0,-6.349487305E-1
1.015258789E0,-4.183502197E-1,1.251739502E0,-6.410522461E-1
1.020141602E0,-3.462524414E-1,1.078262329E0,-6.520385742E-1
1.025024414E0,-2.851715088E-1,9.059906006E-1,-6.599884033E-1
1.029907227E0,-2.369079590E-1,7.373962402E-1,-6.630401611E-1
1.034790039E0,-1.990356445E-1,5.822296143E-1,-6.618194580E-1
1.039672852E0,-1.788787842E-1,4.502868652E-1,-6.532745361E-1
1.044555664E0,-1.770477295E-1,3.458251953E-1,-6.312713623E-1
1.049438477E0,-1.917114258E-1,2.713012695E-1,-5.915679932E-1
1.054321289E0,-2.204132080E-1,2.236480713E-1,-5.310974121E-1
1.059204102E0,-2.570648193E-1,2.034912109E-1,-4.541168213E-1
1.064086914E0,-2.973785400E-1,2.089843750E-1,-3.679809570E-1
1.068969727E0,-3.401489258E-1,2.279205322E-1,-2.873535156E-1
1.073852539E0,-3.841400146E-1,2.438049316E-1,-2.225952148E-1
1.078735352E0,-4.201660156E-1,2.401428223E-1,-1.804504395E-1
1.083587647E0,-4.336090088E-1,2.108154297E-1,-1.578521729E-1
1.088470459E0,-4.207916260E-1,1.601104736E-1,-1.529693604E-1
1.093353272E0,-3.878021240E-1,8.924865723E-2,-1.590728760E-1
1.098236084E0,-3.383178711E-1,4.348754883E-3,-1.731109619E-1
1.103118897E0,-2.784576416E-1,-8.544921875E-2,-1.920623779E-1
1.108001709E0,-2.143096924E-1,-1.672973633E-1,-2.164916992E-1
1.112884522E0,-1.562805176E-1,-2.283935547E-1,-2.476501465E-1
1.117767334E0,-1.086273193E-1,-2.644195557E-1,-2.836914062E-1
1.122650147E0,-7.380676270E-2,-2.577056885E-1,-3.240051270E-1
1.127532959E0,-6.037902832E-2,-2.131195068E-1,-3.637084961E-1
1.132415772E0,-6.831359863E-2,-1.538543701E-1,-3.973083496E-1
1.137298584E0,-9.640502930E-2,-9.399414062E-2,-4.162445068E-1
1.142181397E0,-1.416168213E-1,-3.840637207E-2,-4.211273193E-1
1.147064209E0,-1.953735352E-1,1.350402832E-2,-4.113616943E-1
1.151947022E0,-2.564697266E-1,4.893493652E-2,-3.844757080E-1
1.156829834E0,-3.230438232E-1,7.521057129E-2,-3.466033936E-1
1.161712647E0,-3.841400146E-1,1.002502441E-1,-2.995605469E-1
1.166595459E0,-4.311676025E-1,1.344604492E-1,-2.482604980E-1
1.171478272E0,-4.653778076E-1,1.662292480E-1,-1.902160645E-1
1.176361084E0,-4.861450195E-1,1.882171631E-1,-1.291351318E-1
1.181213379E0,-4.977569580E-1,2.010498047E-1,-7.293701172E-2
1.186096192E0,-5.008087158E-1,2.028808594E-1,-3.262329102E-2
1.190979004E0,-4.959259033E-1,1.924896240E-1,-5.752563477E-3
1.195861817E0,-4.873657227E-1,1.662292480E-1,1.013183594E-2
1.200744629E0,-4.782104492E-1,1.240844727E-1,1.562500000E-2
1.205627442E0,-4.696502686E-1,7.092285156E-2,2.113342285E-2
1.210510254E0,-4.635467529E-1,1.106262207E-2,2.479553223E-2
1.215393067E0,-4.617156982E-1,-5.734252930E-2,2.357482910E-2
1.220275879E0,-4.611053467E-1,-1.404113770E-1,1.806640625E-2
1.225158692E0,-4.574432373E-1,-2.436523438E-1,1.135253906E-2
1.230041504E0,-4.409332275E-1,-3.609466553E-1,8.300781250E-3
1.234924317E0,-4.073486328E-1,-4.751739502E-1,1.074218750E-2
1.239807129E0,-3.560333252E-1,-5.796356201E-1,2.479553223E-2
1.244689942E0,-2.943420410E-1,-6.730957031E-1,4.556274414E-2
1.249572754E0,-2.252960205E-1,-7.476196289E-1,6.327819824E-2
1.254455567E0,-1.556701660E-1,-8.068847656E-1,7.060241699E-2
1.259338379E0,-9.335327148E-2,-8.545227051E-1,6.083679199E-2
1.264221192E0,-4.020690918E-2,-8.887329102E-1,3.334045410E-2
1.269104004E0,4.379272461E-3,-9.113464355E-1,-1.002502441E-2
1.273956299E0,3.979492188E-2,-9.113464355E-1,-6.132507324E-2
1.278839112E0,6.240844727E-2,-8.814086914E-1,-1.181335449E-1
1.283721924E0,7.278442383E-2,-8.148193359E-1,-1.731109619E-1
1.288604737E0,6.668090820E-2,-7.152557373E-1,-2.238159180E-1
1.293487549E0,4.101562500E-2,-5.881805420E-1,-2.696380615E-1
1.298370362E0,7.171630859E-4,-4.397430420E-1,-3.105621338E-1
1.303253174E0,-5.487060547E-2,-2.778625488E-1,-3.453826904E-1
1.308135987E0,-1.232910156E-1,-1.104888916E-1,-3.734893799E-1
1.313018799E0,-1.990356445E-1,5.259704590E-2,-3.899841309E-1
1.317901612E0,-2.735748291E-1,2.041015625E-1,-3.936462402E-1
1.322784424E0,-3.450317383E-1,3.421630859E-1,-3.863067627E-1
1.327667237E0,-4.104003906E-1,4.722747803E-1,-3.692016602E-1
1.332550049E0,-4.653778076E-1,5.889434814E-1,-3.417205811E-1
1.337432862E0,-5.166931152E-1,6.836395264E-1,-3.020172119E-1
1.342315674E0,-5.655670166E-1,7.575378418E-1,-2.500915527E-1
1.347198487E0,-6.089324951E-1,8.027496338E-1,-1.822814941E-1
1.352081299E0,-6.468048096E-1,8.204650879E-1,-1.040954590E-1
1.356964112E0,-6.791839600E-1,8.265686035E-1,-2.285766602E-2
1.361846924E0,-6.999511719E-1,8.314666748E-1,5.105590820E-2
1.366729737E0,-7.042236328E-1,8.216857910E-1,1.133728027E-1
1.371582032E0,-6.889495850E-1,7.899322510E-1,1.610260010E-1
1.376464844E0,-6.498565674E-1,7.324981689E-1,2.019500732E-1
1.381347657E0,-5.863342285E-1,6.390380859E-1,2.404327393E-1
1.386230469E0,-5.014190674E-1,5.211334229E-1,2.746276855E-1
1.391113282E0,-3.975677490E-1,3.928527832E-1,3.009033203E-1
1.395996094E0,-2.753906250E-1,2.700805664E-1,3.173980713E-1
1.400878907E0,-1.452789307E-1,1.460723877E-1,3.222808838E-1
1.405761719E0,-1.760864258E-2,2.328491211E-2,3.192291260E-1
1.410644532E0,9.844970703E-2,-8.483886719E-2,3.149566650E-1
1.415527344E0,1.955718994E-1,-1.715850830E-1,3.198394775E-1
1.420410157E0,2.652130127E-1,-2.308349609E-1,3.345031738E-1
1.425292969E0,3.079833984E-1,-2.601623535E-1,3.601684570E-1
1.430175782E0,3.244628906E-1,-2.613830566E-1,3.907012939E-1
1.435058594E0,3.189697266E-1,-2.424316406E-1,4.249114990E-1
1.439941407E0,2.951354980E-1,-2.131195068E-1,4.597320557E-1
1.444824219E0,2.554473877E-1,-1.813507080E-1,4.982147217E-1
1.449707032E0,2.004547119E-1,-1.550750732E-1,5.379180908E-1
1.454589844E0,1.320343018E-1,-1.318664551E-1,5.751800537E-1
1.459472657E0,5.935668945E-2,-1.123199463E-1,6.069488525E-1
1.464355469E0,-2.944946289E-3,-1.062164307E-1,6.344451904E-1
1.469207764E0,-4.325866699E-2,-1.062164307E-1,6.503295898E-1
1.474090576E0,-5.303955078E-2,-9.033203125E-2,6.472625732E-1
1.478973389E0,-3.227233887E-2,-5.368041992E-2,6.289367676E-1
1.483856201E0,9.277343750E-3,-2.252197266E-2,6.093902588E-1
1.488739014E0,7.400512695E-2,-2.990722656E-3,5.947265625E-1
1.493621826E0,1.589202881E-1,6.179809570E-3,5.861816406E-1
1.498504639E0,2.560424805E-1,3.112792969E-3,5.861816406E-1
1.503387451E0,3.580627441E-1,-4.806518555E-3,5.849609375E-1
1.508270264E0,4.588623047E-1,1.892089844E-3,5.684661865E-1
1.513153076E0,5.541534424E-1,2.694702148E-2,5.336456299E-1
1.518035889E0,6.335601807E-1,6.420898438E-2,4.798889160E-1
1.522918701E0,6.922149658E-1,1.082000732E-1,4.151458740E-1
1.527801514E0,7.294769287E-1,1.527862549E-1,3.467254639E-1
1.532684326E0,7.435302734E-1,1.955413818E-1,2.807464600E-1
1.537567139E0,7.325286865E-1,2.377014160E-1,2.190551758E-1
1.542449951E0,6.977081299E-1,2.767944336E-1,1.616210938E-1
1.547332764E0,6.451721191E-1,3.073272705E-1,1.170349121E-1
1.552215576E0,5.785827637E-1,3.232116699E-1,9.016418457E-2
1.557098389E0,5.065155029E-1,3.323822021E-1,7.977294922E-2
1.561981201E0,4.350280762E-1,3.397064209E-1,8.465576172E-2
1.566833496E0,3.647918701E-1,3.446044922E-1,1.048126221E-1
1.571716309E0,2.963714600E-1,3.384857178E-1,1.329193115E-1
1.576599121E0,2.346649170E-1,3.207702637E-1,1.683502197E-1
1.581481934E0,1.778564453E-1,2.853393555E-1,2.111053467E-1
1.586364746E0,1.289978027E-1,2.340240479E-1,2.587585449E-1
1.591247559E0,9.478759766E-2,1.711120605E-1,3.021240234E-1
1.596130371E0,7.951354980E-2,9.719848633E-2,3.399963379E-1
1.601013184E0,8.805847168E-2,2.206420898E-2,3.705444336E-1
1.605895996E0,1.259307861E-1,-5.612182617E-2,3.974151611E-1
1.610778809E0,1.943511963E-1,-1.282043457E-1,4.188079834E-1
1.615661621E0,2.914733887E-1,-1.880645752E-1,4.377441406E-1
1.620544434E0,4.161071777E-1,-2.375488281E-1,4.487304688E-1
1.625427246E0,5.559844971E-1,-2.821502686E-1,4.505767822E-1
1.630310059E0,7.019805908E-1,-3.285675049E-1,4.432373047E-1
1.635192871E0,8.467559814E-1,-3.811035156E-1,4.285888672E-1
1.640075684E0,9.866485596E-1,-4.366912842E-1,4.078063965E-1
1.644958496E0,1.119216919E0,-4.843444824E-1,3.742065430E-1
1.649841309E0,1.233444214E0,-5.161132812E-1,3.180084229E-1
1.654724121E0,1.318969727E0,-5.362701416E-1,2.447052002E-1
1.659606934E0,1.370880127E0,-5.503082275E-1,1.677398682E-1
1.664459229E0,1.387390137E0,-5.588684082E-1,9.809875488E-2
1.669342041E0,1.367843628E0,-5.545959473E-1,3.945922852E-2
1.674224854E0,1.318969727E0,-5.252685547E-1,-6.362915039E-3
1.679107666E0,1.250549316E0,-4.641876221E-1,-3.933715820E-2
1.683990479E0,1.167465210E0,-3.633880615E-1,-6.010437012E-2
1.688873291E0,1.080734253E0,-2.259521484E-1,-7.232666016E-2
1.693756104E0,9.939880371E-1,-6.956481934E-2,-7.476806641E-2
1.698638916E0,9.096832275E-1,9.353637695E-2,-6.500244141E-2
1.703521729E0,8.290405273E-1,2.474670410E-1,-4.666137695E-2
1.708404541E0,7.581939697E-1,3.751373291E-1,-1.858520508E-2
1.713287354E0,7.050323486E-1,4.655456543E-1,7.080078125E-3
1.718170166E0,6.720581055E-1,5.144195557E-1,2.723693848E-2
1.723052979E0,6.604461670E-1,5.248107910E-1,4.251098633E-2
1.727935791E0,6.653289795E-1,5.125885010E-1,6.083679199E-2
1.732818604E0,6.879425049E-1,4.771575928E-1,8.526611328E-2
1.737701416E0,7.257995605E-1,4.246215820E-1,1.182556152E-1
1.742584229E0,7.783355713E-1,3.678131104E-1,1.549072266E-1
1.747467041E0,8.418731689E-1,3.024444580E-1,1.921691895E-1
1.752349854E0,9.096832275E-1,2.205963135E-1,2.288208008E-1
1.757232666E0,9.811553955E-1,1.253051758E-1,2.630310059E-1
1.762084961E0,1.052627563E0,2.999877930E-2,2.899169922E-1
1.766967774E0,1.125320435E0,-6.222534180E-2,3.167877197E-1
1.771850586E0,1.198013306E0,-1.599731445E-1,3.418273926E-1
1.776733399E0,1.271316528E0,-2.534332275E-1,3.650512695E-1
1.781616211E0,1.342788696E0,-3.291778564E-1,3.766479492E-1
1.786499024E0,1.401428223E0,-3.804931641E-1,3.778686523E-1
1.791381836E0,1.440521240E0,-4.098205566E-1,3.766479492E-1
1.796264649E0,1.456405640E0,-4.214172363E-1,3.748168945E-1
1.801147461E0,1.457015991E0,-4.195861816E-1,3.742065430E-1
1.806030274E0,1.439300537E0,-3.988189697E-1,3.754272461E-1
1.810913086E0,1.404495239E0,-3.548431396E-1,3.717651367E-1
1.815795899E0,1.350112915E0,-2.931365967E-1,3.668823242E-1
1.820678711E0,1.278640747E0,-2.198333740E-1,3.650512695E-1
1.825561524E0,1.195571899E0,-1.324920654E-1,3.705444336E-1
1.830444336E0,1.108215332E0,-2.680969238E-2,3.876495361E-1
1.835327149E0,1.021469116E0,8.375549316E-2,4.206390381E-1
1.840209961E0,9.384002686E-1,1.839447021E-1,4.658355713E-1
1.845092774E0,8.675384521E-1,2.627410889E-1,5.104370117E-1
1.849975586E0,8.131713867E-1,3.152770996E-1,5.550231934E-1
1.854858399E0,7.777404785E-1,3.268890381E-1,5.990142822E-1
1.859710694E0,7.594146729E-1,2.926788330E-1,6.460418701E-1
1.864593506E0,7.569732666E-1,2.114257812E-1,7.016296387E-1
1.869476319E0,7.624511719E-1,8.680725098E-2,7.627258301E-1
1.874359131E0,7.728576660E-1,-7.383728027E-2,8.146514893E-1
1.879241944E0,7.893371582E-1,-2.583160400E-1,8.458099365E-1
1.884124756E0,8.113250732E-1,-4.495239258E-1,8.519134521E-1
1.889007569E0,8.278198242E-1,-6.456146240E-1,8.299255371E-1
1.893890381E0,8.265991211E-1,-8.398742676E-1,7.847137451E-1
1.898773194E0,8.137817383E-1,-1.029235840E0,7.181396484E-1
1.903656006E0,7.978973389E-1,-1.201507568E0,6.356658936E-1
1.908538819E0,7.911834717E-1,-1.345672607E0,5.483093262E-1
1.913421631E0,8.021697998E-1,-1.454406738E0,4.640045166E-1
1.918304444E0,8.321075439E-1,-1.523437500E0,3.925323486E-1
1.923187256E0,8.736419678E-1,-1.555206299E0,3.406066895E-1
1.928070069E0,9.157867432E-1,-1.567413330E0,3.106842041E-1
1.932952881E0,9.616088867E-1,-1.570465088E0,3.009033203E-1
1.937835694E0,1.006805420E0,-1.572906494E0,3.106842041E-1
1.942718506E0,1.047119141E0,-1.576583862E0,3.320617676E-1
1.947601319E0,1.089279175E0,-1.576583862E0,3.656616211E-1
1.952453614E0,1.134475708E0,-1.563751221E0,4.071960449E-1
1.957336426E0,1.183959961E0,-1.544815063E0,4.511718750E-1
1.962219239E0,1.235275269E0,-1.518554688E0,4.963836670E-1
1.967102051E0,1.284149170E0,-1.481903076E0,5.379180908E-1
1.971984864E0,1.325073242E0,-1.423858643E0,5.806884766E-1
1.976867676E0,1.353179932E0,-1.345672607E0,6.161193848E-1
1.981750489E0,1.365997314E0,-1.251586914E0,6.472625732E-1
1.986633301E0,1.362945557E0,-1.176467896E0,6.723175049E-1
1.991516114E0,1.339736938E0,-1.139190674E0,6.833038330E-1
1.996398926E0,1.303085327E0,-1.130645752E0,6.753692627E-1
2.001281739E0,1.257873535E0,-1.134918213E0,6.497192383E-1
2.006164551E0,1.208404541E0,-1.146530151E0,6.155090332E-1
2.011047364E0,1.158309937E0,-1.169738770E0,5.849609375E-1
2.015930176E0,1.104553223E0,-1.201507568E0,5.751800537E-1
2.020812989E0,1.048965454E0,-1.235717773E0,5.916900635E-1
2.025695801E0,9.939880371E-1,-1.285797119E0,6.374969482E-1
2.030578614E0,9.408416748E-1,-1.375595093E0,7.108001709E-1
2.035461426E0,9.011230469E-1,-1.506332397E0,8.054809570E-1
2.040344239E0,8.766937256E-1,-1.677368164E0,9.160461426E-1
2.045227051E0,8.687591553E-1,-1.878341675E0,1.027832031E0
2.050079346E0,8.864593506E-1,-2.098251343E0,1.132293701E0
2.054962158E0,9.335174561E-1,-2.338333130E0,1.212936401E0
2.059844971E0,1.011093140E0,-2.588790894E0,1.264862061E0
2.064727783E0,1.113098145E0,-2.845352173E0,1.283798218E0
2.069610596E0,1.239547729E0,-3.087875366E0,1.272186279E0
2.074493408E0,1.389831543E0,-3.295562744E0,1.227600098E0
2.079376221E0,1.552322388E0,-3.443405151E0,1.168350220E0
2.084259033E0,1.719085693E0,-3.515487671E0,1.109085083E0
2.089141846E0,1.874862671E0,-3.520980835E0,1.060226440E0
2.094024658E0,2.003143311E0,-3.468444824E0,1.013168335E0
2.098907471E0,2.089279175E0,-3.354202271E0,9.612579346E-1
2.103790283E0,2.126525879E0,-3.203948975E0,9.044494629E-1
2.108673096E0,2.116760254E0,-3.056106567E0,8.445892334E-1
2.113555908E0,2.073394775E0,-2.910720825E0,7.895965576E-1
2.118438721E0,2.014144897E0,-2.742736816E0,7.382812500E-1
2.123321533E0,1.946945190E0,-2.533813477E0,6.967468262E-1
2.128204346E0,1.863861084E0,-2.284576416E0,6.704864502E-1
2.133087158E0,1.764297485E0,-2.006011963E0,6.668243408E-1
2.137969971E0,1.653106689E0,-1.708526611E0,6.875915527E-1
2.142852783E0,1.535827637E0,-1.411651611E0,7.340240479E-1
2.147705078E0,1.416702271E0,-1.139801025E0,7.957153320E-1
2.152587891E0,1.291473389E0,-9.198913574E-1,8.525238037E-1
2.157470703E0,1.160751343E0,-7.567901611E-1,8.891754150E-1
2.162353516E0,1.039794922E0,-6.389007568E-1,9.026031494E-1
2.167236328E0,9.457244873E-1,-5.643615723E-1,9.013824463E-1
2.172119141E0,8.895263672E-1,-5.326080322E-1,8.873443604E-1
2.177001953E0,8.852386475E-1,-5.326080322E-1,8.659515381E-1
2.181884766E0,9.267883301E-1,-5.570373535E-1,8.372497559E-1
2.186767578E0,9.939880371E-1,-6.193542480E-1,7.981567383E-1
2.191650391E0,1.070343018E0,-7.451782227E-1,7.547912598E-1
2.196533203E0,1.137542725E0,-9.614410400E-1,7.156829834E-1
2.201416016E0,1.194351196E0,-1.225936890E0,6.833038330E-1
2.206298828E0,1.234664917E0,-1.495330811E0,6.484832764E-1
2.211181641E0,1.253601074E0,-1.756790161E0,6.264953613E-1
2.216064453E0,1.263381958E0,-1.974258423E0,6.271057129E-1
2.220947266E0,1.268264771E0,-2.115356445E0,6.521606445E-1
2.225830078E0,1.270706177E0,-2.175231934E0,6.985778809E-1
2.230712891E0,1.263992310E0,-2.154464722E0,7.590637207E-1
2.235595703E0,1.245651245E0,-2.072601318E0,8.238067627E-1
2.240478516E0,1.219390869E0,-1.955322266E0,8.806152344E-1
2.245330811E0,1.188858032E0,-1.818481445E0,9.362182617E-1
2.250213623E0,1.160751343E0,-1.670654297E0,9.875183105E-1
2.255096436E0,1.147308350E0,-1.502670288E0,1.024795532E0
2.259979248E0,1.160140991E0,-1.291915894E0,1.046157837E0
2.264862061E0,1.199844360E0,-1.045730591E0,1.057159424E0
2.269744873E0,1.260940552E0,-8.068847656E-1,1.062042236E0
2.274627686E0,1.338516235E0,-6.260681152E-1,1.066940308E0
2.279510498E0,1.430755615E0,-5.185546875E-1,1.068161011E0
2.284393311E0,1.527877808E0,-4.806823730E-1,1.041275024E0
2.289276123E0,1.606689453E0,-5.118255615E-1,9.875183105E-1
2.294158936E0,1.650665283E0,-6.230163574E-1,9.246063232E-1
2.299041748E0,1.654327393E0,-7.708435059E-1,8.659515381E-1
2.303924561E0,1.617675781E0,-9.253845215E-1,8.183135986E-1
2.308807373E0,1.535827637E0,-1.057952881E0,7.810516357E-1
2.313690186E0,1.403274536E0,-1.139190674E0,7.553863525E-1
2.318572998E0,1.219390869E0,-1.170959473E0,7.376861572E-1
2.323455811E0,1.001312256E0,-1.163024902E0,7.291259766E-1
2.328338623E0,7.734527588E-1,-1.119644165E0,7.303466797E-1
2.333221436E0,5.633239746E-1,-1.040847778E0,7.333984375E-1
2.338104248E0,3.831176758E-1,-9.302825928E-1,7.315673828E-1
2.342956543E0,2.413940430E-1,-8.044433594E-1,7.242431641E-1
2.347839356E0,1.405944824E-1,-6.767730713E-1,7.126312256E-1
2.352722168E0,7.951354980E-2,-5.497131348E-1,6.936950684E-1
2.357604981E0,5.812072754E-2,-4.195861816E-1,6.729278564E-1
2.362487793E0,6.546020508E-2,-2.784881592E-1,6.503295898E-1
2.367370606E0,8.012390137E-2,-1.000976562E-1,6.295623779E-1
2.372253418E0,9.049987793E-2,1.197967529E-1,6.173400879E-1
2.377136231E0,9.356689453E-2,3.635406494E-1,6.258850098E-1
2.382019043E0,9.722900391E-2,6.274261475E-1,6.515502930E-1
2.386901856E0,1.082153320E-1,8.778839111E-1,6.875915527E-1
2.391784668E0,1.234893799E-1,1.084976196E0,7.156829834E-1
2.396667481E0,1.546478271E-1,1.236465454E0,7.291259766E-1
2.401550293E0,2.279510498E-1,1.307937622E0,7.291259766E-1
2.406433106E0,3.391265869E-1,1.276794434E0,7.071380615E-1
2.411315918E0,4.509124756E-1,1.132629395E0,6.436004639E-1
2.416198731E0,5.333862305E-1,9.053802490E-1,5.379180908E-1
2.421081543E0,5.755310059E-1,6.530914307E-1,4.035339355E-1
2.425964356E0,5.694274902E-1,4.197387695E-1,2.709655762E-1
2.430847168E0,5.028381348E-1,2.315826416E-1,1.714019775E-1
2.435729981E0,3.721160889E-1,1.020812988E-1,1.237487793E-1
2.440582276E0,1.912994385E-1,4.100036621E-2,1.298522949E-1
2.445465088E0,-9.674072266E-3,5.320739746E-2,1.744537354E-1
2.450347901E0,-1.862030029E-1,1.436309814E-1,2.508239746E-1
2.455230713E0,-2.876129150E-1,3.171081543E-1,3.540496826E-1
2.460113526E0,-3.114471436E-1,5.009765625E-1,4.658355713E-1
2.464996338E0,-2.705078125E-1,6.213226318E-1,5.666351318E-1
2.469879151E0,-1.648254395E-1,6.628570557E-1,6.429901123E-1
2.474761963E0,-1.394653320E-2,6.402587891E-1,6.936950684E-1
2.479644776E0,1.515808105E-1,5.822296143E-1,7.218017578E-1
2.484527588E0,3.043060303E-1,5.553436279E-1,7.223968506E-1
2.489410401E0,4.270935059E-1,6.292724609E-1,7.126312256E-1
2.494293213E0,5.132293701E-1,8.021392822E-1,7.126312256E-1
2.499176026E0,5.608825684E-1,1.044647217E0,7.358398438E-1
2.504058838E0,5.706481934E-1,1.335418701E0,7.633361816E-1
2.508941651E0,5.431518555E-1,1.648193359E0,7.792205811E-1
2.513824463E0,4.912414551E-1,1.931030273E0,7.871551514E-1
2.518707276E0,4.399108887E-1,2.124053955E0,7.804412842E-1
2.523590088E0,4.142608643E-1,2.199203491E0,7.517242432E-1
2.528472901E0,4.246520996E-1,2.142395020E0,6.991882324E-1
2.533355713E0,4.655761719E-1,1.953018188E0,6.423797607E-1
2.538208008E0,5.260620117E-1,1.643920898E0,5.953521729E-1
2.543090821E0,5.877532959E-1,1.263351440E0,5.629577637E-1
2.547973633E0,6.421203613E-1,8.937683105E-1,5.513610840E-1
2.552856446E0,6.634979248E-1,5.278625488E-1,5.648040771E-1
2.557739258E0,6.549530029E-1,1.173553467E-1,6.069488525E-1
2.562622071E0,6.482238770E-1,-3.456726074E-1,6.704864502E-1
2.567504883E0,6.708374023E-1,-8.233795166E-1,7.517242432E-1
2.572387696E0,7.374267578E-1,-1.255264282E0,8.610687256E-1
2.577270508E0,8.284301758E-1,-1.583908081E0,1.000961304E0
2.582153321E0,9.164123535E-1,-1.776947021E0,1.158569336E0
2.587036133E0,9.897003174E-1,-1.863082886E0,1.303955078E0
2.591918946E0,1.043457031E0,-1.855133057E0,1.412689209E0
2.596801758E0,1.081329346E0,-1.752502441E0,1.475601196E0
2.601684571E0,1.095993042E0,-1.527099609E0,1.497604370E0
2.606567383E0,1.079513550E0,-1.210052490E0,1.494552612E0
2.611450196E0,1.015975952E0,-8.844604492E-1,1.471328735E0
2.616333008E0,9.145660400E-1,-5.802459717E-1,1.421249390E0
2.621215821E0,7.948455811E-1,-3.065795898E-1,1.348556519E0
2.626098633E0,6.732788086E-1,-7.872009277E-2,1.259979248E0
2.630981446E0,5.621032715E-1,9.413146973E-2,1.151245117E0
2.635833741E0,4.613037109E-1,2.254791260E-1,1.024795532E0
2.640716553E0,3.757781982E-1,3.274993896E-1,9.001617432E-1
2.645599366E0,3.128662109E-1,4.099578857E-1,7.957153320E-1
2.650482178E0,2.719268799E-1,4.649505615E-1,7.187347412E-1
2.655364991E0,2.395629883E-1,4.539489746E-1,6.515502930E-1
2.660247803E0,1.961822510E-1,3.928527832E-1,5.758056641E-1
2.665130616E0,1.540374756E-1,3.360443115E-1,5.067749023E-1
2.670013428E0,1.186065674E-1,3.018493652E-1,4.689025879E-1
2.674896241E0,8.439636230E-2,2.926788330E-1,4.811096191E-1
2.679779053E0,4.225158691E-2,3.042907715E-1,5.373077393E-1
2.684661866E0,7.431030273E-3,2.896270752E-1,6.185607910E-1
2.689544678E0,-2.944946289E-3,2.505340576E-1,7.071380615E-1
2.694427491E0,1.171875000E-2,2.413635254E-1,7.957153320E-1
2.699310303E0,5.201721191E-2,2.975616455E-1,8.946838379E-1
2.704193116E0,1.069946289E-1,3.830871582E-1,1.012573242E0
2.709075928E0,1.595306396E-1,4.441680908E-1,1.146957397E0
2.713958741E0,2.114562988E-1,4.563903809E-1,1.274017334E0
2.718841553E0,2.713317871E-1,4.117889404E-1,1.379089355E0
2.723724366E0,3.293457031E-1,2.963409424E-1,1.461563110E0
2.728576660E0,3.739471436E-1,1.466674805E-1,1.529357910E0
2.733459473E0,4.087677002E-1,2.999877930E-2,1.588012695E0
2.738342285E0,4.228210449E-1,-2.680969238E-2,1.632598877E0
2.743225098E0,4.142608643E-1,-3.962707520E-2,1.664978027E0
2.748107910E0,3.916625977E-1,-3.291320801E-2,1.696746826E0
2.752990723E0,3.598937988E-1,-7.858276367E-3,1.740112305E0
2.757873535E0,3.287506104E-1,9.231567383E-3,1.801208496E0
2.762756348E0,3.128662109E-1,-1.641845703E-2,1.878784180E0
2.767639160E0,3.189697266E-1,-8.728027344E-2,1.965530396E0
2.772521973E0,3.470764160E-1,-1.941833496E-1,2.060211182E0
2.777404785E0,4.008331299E-1,-3.371276855E-1,2.156738281E0
2.782287598E0,4.826812744E-1,-5.399322510E-1,2.255081177E0
2.787170410E0,5.840911865E-1,-8.282623291E-1,2.374206543E0
2.792053223E0,6.995391846E-1,-1.209442139E0,2.499435425E0
2.796936035E0,8.180541992E-1,-1.668823242E0,2.625885010E0
2.801818848E0,9.414520264E-1,-2.114135742E0,2.732177734E0
2.806701660E0,1.067886353E0,-2.487991333E0,2.822570801E0
2.811584473E0,1.191894531E0,-2.768386841E0,2.901382446E0
2.816467285E0,1.205337524E0,-2.706680298E0,2.919708252E0
2.821350098E0,9.506072998E-1,-2.126983643E0,2.855560303E0
2.826202393E0,5.150604248E-1,-1.177688599E0,2.800582886E0
2.831085205E0,1.106719971E-1,-1.728057861E-1,2.770050049E0
2.835968018E0,-1.373443604E-1,5.871124268E-1,2.724227905E0
2.840850830E0,-2.191925049E-1,1.015945435E0,2.617324829E0
2.845733643E0,-1.965942383E-1,1.143005371E0,2.466445923E0
2.850616455E0,-1.177978516E-1,1.083755493E0,2.274017334E0
2.855499268E0,-1.760864258E-2,8.882751465E-1,2.060211182E0
2.860382080E0,7.461547852E-2,6.475982666E-1,1.879394531E0
2.865264893E0,1.466979980E-1,4.527282715E-1,1.734619141E0
2.870147705E0,2.090148926E-1,3.904113770E-1,1.617935181E0
2.875030518E0,2.493286133E-1,4.356231689E-1,1.564178467E0
2.879913330E0,2.554473877E-1,5.345764160E-1,1.587402344E0
2.884796143E0,2.224578857E-1,6.414794922E-1,1.640548706E0
2.889678955E0,1.748046875E-1,7.819824219E-1,1.675979614E0
2.894561768E0,1.216583252E-1,9.841766357E-1,1.661926270E0
2.899444580E0,7.461547852E-2,1.202270508E0,1.608169556E0
2.904327393E0,4.591369629E-2,1.362304688E0,1.511657715E0
2.909210205E0,3.308105469E-2,1.351928711E0,1.385208130E0
2.914093018E0,5.384826660E-2,1.191268921E0,1.224548340E0
2.918975830E0,8.927917480E-2,9.389801025E-1,1.058380127E0
2.923828125E0,1.295928955E-1,6.866912842E-1,9.233856201E-1
2.928710938E0,1.650238037E-1,5.083160400E-1,8.091430664E-1
2.933593750E0,1.754150391E-1,3.983459473E-1,7.193603516E-1
2.938476563E0,1.717529297E-1,3.537597656E-1,6.503295898E-1
2.943359375E0,1.503601074E-1,3.446044922E-1,5.837402344E-1
2.948242188E0,1.143341064E-1,3.042907715E-1,5.562591553E-1
2.953125000E0,9.111022949E-2,2.627410889E-1,5.635833740E-1
2.958007813E0,9.294128418E-2,2.523498535E-1,5.739593506E-1
2.962890625E0,1.143341064E-1,2.731170654E-1,5.745849609E-1
2.967773438E0,1.204376221E-1,2.554168701E-1,5.336456299E-1
2.972656250E0,8.805847168E-2,1.558380127E-1,4.432373047E-1
2.977539063E0,4.591369629E-2,-5.734252930E-2,3.332824707E-1
2.982421875E0,9.277343750E-3,-2.937469482E-1,2.318725586E-1
2.987304688E0,-3.410339355E-2,-5.136718750E-1,1.194763184E-1
2.992187500E0,-1.135101318E-1,-7.470245361E-1,-3.018188477E-2
2.997070313E0,-2.240753174E-1,-9.559326172E-1,-1.786193848E-1
3.001953125E0,-3.529815674E-1,-1.128814697E0,-2.934570312E-1
3.006835938E0,-4.928741455E-1,-1.258926392E0,-3.734893799E-1
3.011718750E0,-6.437530518E-1,-1.359115601E0,-4.370117188E-1
3.016601563E0,-8.068542480E-1,-1.432418823E0,-4.797821045E-1
3.021453858E0,-9.797363281E-1,-1.449523926E0,-4.962768555E-1
3.026336670E0,-1.146499634E0,-1.426910400E0,-5.115356445E-1
3.031219483E0,-1.302261353E0,-1.406753540E0,-5.365905762E-1
3.036102295E0,-1.447036743E0,-1.382324219E0,-5.579681396E-1
3.040985108E0,-1.560668945E0,-1.313903809E0,-5.738525391E-1
3.045867920E0,-1.618698120E0,-1.106216431E0,-5.781250000E-1
3.050750733E0,-1.622985840E0,-7.836761475E-1,-5.677490234E-1
3.055633545E0,-1.589370728E0,-4.287414551E-1,-5.634613037E-1
3.060516358E0,-1.526458740E0,-1.801300049E-1,-5.567474365E-1
3.065399170E0,-1.428115845E0,-8.789062500E-2,-5.274200439E-1
3.070281983E0,-1.306549072E0,-1.379699707E-1,-4.846649170E-1
3.075164795E0,-1.170318604E0,-2.454986572E-1,-4.712219238E-1
3.080047608E0,-1.015151978E0,-3.218536377E-1,-4.938354492E-1
3.084930420E0,-8.422851562E-1,-3.340606689E-1,-5.359802246E-1
3.089813233E0,-6.724700928E-1,-2.680969238E-1,-5.775146484E-1
3.094696045E0,-5.160827637E-1,-1.428680420E-1,-5.988922119E-1
3.099578858E0,-3.719177246E-1,-1.092529297E-2,-6.007385254E-1
3.104461670E0,-2.375183105E-1,9.963989258E-2,-5.952301025E-1
3.109344483E0,-1.300201416E-1,1.949310303E-1,-5.872955322E-1
3.114227295E0,-5.792236328E-2,2.810668945E-1,-5.604095459E-1
3.119079590E0,-3.166198730E-2,3.183288574E-1,-5.200958252E-1
3.123962403E0,-4.325866699E-2,3.000030518E-1,-4.767303467E-1
3.128845215E0,-7.014465332E-2,2.358703613E-1,-4.205322266E-1
3.133728028E0,-9.947204590E-2,1.442260742E-1,-3.539428711E-1
3.138610840E0,-1.257324219E-1,4.710388184E-2,-2.775726318E-1
3.143493653E0,-1.422271729E-1,-3.108215332E-2,-1.938934326E-1
3.148376465E0,-1.422271729E-1,-8.239746094E-2,-1.126403809E-1
3.153259278E0,-1.202392578E-1,-1.062164307E-1,-4.972839355E-2
3.158142090E0,-5.670166016E-2,-8.666992188E-2,-1.858520508E-2
3.163024903E0,4.713439941E-2,7.400512695E-3,-6.362915039E-3
3.167907715E0,1.986389160E-1,1.295623779E-1,-8.544921875E-4
3.172790528E0,3.928833008E-1,2.065429688E-1,8.911132812E-3
3.177673340E0,6.036376953E-1,2.572479248E-1,2.540588379E-2
3.182556153E0,8.064422607E-1,3.256530762E-1,4.800415039E-2
3.187438965E0,1.008026123E0,3.971252441E-1,6.938171387E-2
3.192321778E0,1.210220337E0,4.466247559E-1,7.672119141E-2
3.197204590E0,1.402053833E0,4.832763672E-1,6.266784668E-2
3.202087403E0,1.565155029E0,5.584106445E-1,4.312133789E-2
3.206970215E0,1.690383911E0,6.481933594E-1,1.318359375E-2
3.211822510E0,1.772232056E0,7.312774658E-1,-1.918029785E-2
3.216705323E0,1.801544189E0,8.027496338E-1,-4.484558105E-2
3.221588135E0,1.781997681E0,8.363494873E-1,-5.705261230E-2
3.226470948E0,1.716644287E0,8.259582520E-1,-6.010437012E-2
3.231353760E0,1.604858398E0,7.917480469E-1,-8.943176270E-2
3.236236573E0,1.444808960E0,7.245483398E-1,-1.737365723E-1
3.241119385E0,1.235275269E0,5.693969727E-1,-3.832550049E-1
3.246002198E0,9.726104736E-1,3.323822021E-1,-7.302246094E-1
3.250885010E0,6.689910889E-1,4.161071777E-2,-1.101043701E0
3.255767823E0,3.733367920E-1,-1.275939941E-1,-1.512756348E0
3.260650635E0,1.186065674E-1,-1.404113770E-1,-1.914718628E0
3.265533448E0,-7.014465332E-2,-2.008056641E-2,-2.262298584E0
3.270416260E0,-1.965942383E-1,1.253051758E-1,-2.470596313E0
3.275299073E0,-2.637939453E-1,2.389221191E-1,-2.403411865E0
3.280181885E0,-2.711181641E-1,3.262786865E-1,-2.124847412E0
3.285064698E0,-2.900543213E-1,4.777679443E-1,-1.803527832E0
3.289947510E0,-3.768005371E-1,6.628570557E-1,-1.507263184E0
3.294830323E0,-5.032501221E-1,7.801513672E-1,-1.271469116E0
3.299713135E0,-6.510772705E-1,8.345184326E-1,-1.141357422E0
3.304595948E0,-7.921905518E-1,9.176025391E-1,-1.156005859E0
3.309448242E0,-8.813781738E-1,1.020217896E0,-1.254974365E0
3.314331055E0,-9.027709961E-1,1.071533203E0,-1.360046387E0
3.319213867E0,-8.416748047E-1,1.031829834E0,-1.432128906E0
3.324096680E0,-6.687927246E-1,9.316406250E-1,-1.444946289E0
3.328979492E0,-3.969573975E-1,7.923736572E-1,-1.363708496E0
3.333862305E0,-1.214599609E-1,7.001190186E-1,-1.163955688E0
3.338745117E0,8.744812012E-2,7.013397217E-1,-8.713378906E-1
3.343627930E0,2.108459473E-1,7.813720703E-1,-5.463562012E-1
3.348510742E0,2.700958252E-1,8.925476074E-1,-2.433624268E-1
3.353393555E0,2.792663574E-1,9.548645020E-1,-2.711486816E-2
3.358276367E0,2.523803711E-1,9.304199219E-1,6.388854980E-2
3.363159180E0,1.827545166E-1,8.485717773E-1,8.894348145E-2
3.368041992E0,8.073425293E-2,7.233276367E-1,1.335296631E-1
3.372924805E0,-4.142761230E-2,5.975036621E-1,1.988830566E-1
3.377807617E0,-1.727752686E-1,4.832763672E-1,2.734069824E-1
3.382690430E0,-2.973785400E-1,3.665924072E-1,3.387756348E-1
3.387573242E0,-3.841400146E-1,2.468566895E-1,3.986358643E-1
3.392456055E0,-3.957366943E-1,-9.704589844E-3,4.737854004E-1
3.397338867E0,-3.407592773E-1,-2.943725586E-1,5.440368652E-1
3.402191162E0,-2.912750244E-1,-3.297882080E-1,5.916900635E-1
3.407073975E0,-2.784576416E-1,-1.721801758E-1,6.264953613E-1
3.411956787E0,-2.497406006E-1,-9.338378906E-2,6.478729248E-1
3.416839600E0,-1.611633301E-1,-2.296142578E-1,6.649780273E-1
3.421722412E0,-2.005004883E-2,-4.385223389E-1,7.022552490E-1
3.426605225E0,1.173858643E-1,-5.839233398E-1,8.543548584E-1
3.431488037E0,2.218475342E-1,-6.022491455E-1,1.136581421E0
3.436370850E0,3.208007812E-1,-5.435943604E-1,1.452392578E0
3.441253662E0,4.496917725E-1,-5.106048584E-1,1.714462280E0
3.446136475E0,5.981292725E-1,-5.649719238E-1,1.880004883E0
3.451019287E0,7.349700928E-1,-6.700439453E-1,1.951477051E0
3.455902100E0,8.418731689E-1,-7.341766357E-1,1.918487549E0
3.460784912E0,9.066314697E-1,-6.987609863E-1,1.798141479E0
3.465667725E0,9.218902588E-1,-5.533752441E-1,1.639328003E0
3.470550537E0,9.005279541E-1,-3.841552734E-1,1.465835571E0
3.475433350E0,8.418731689E-1,-2.308349609E-1,1.273406982E0
3.480316162E0,7.581939697E-1,-1.080474854E-1,1.071823120E0
3.485198975E0,6.580047607E-1,-4.084777832E-2,8.916168213E-1
3.490081787E0,5.517120361E-1,-1.824951172E-2,7.456207275E-1
3.494964600E0,4.466400146E-1,-2.740478516E-2,6.393280029E-1
3.499816895E0,3.586730957E-1,-8.177185059E-2,5.733642578E-1
3.504699707E0,2.817077637E-1,-1.557006836E-1,5.299835205E-1
3.509582520E0,1.821289062E-1,-1.850128174E-1,5.208129883E-1
3.514465332E0,5.201721191E-2,-1.398162842E-1,5.709075928E-1
3.519348145E0,-9.947204590E-2,-4.328918457E-2,6.820831299E-1
3.524230957E0,-2.381286621E-1,5.198669434E-2,8.109741211E-1
3.529113770E0,-3.303680420E-1,8.865356445E-2,9.184875488E-1
3.533996582E0,-3.719177246E-1,8.619689941E-2,9.814147949E-1
3.538879395E0,-3.816833496E-1,1.576690674E-1,1.012573242E0
3.543762207E0,-3.694763184E-1,2.890014648E-1,9.985198975E-1
3.548645020E0,-3.511505127E-1,4.362182617E-1,9.435424805E-1
3.553527832E0,-3.322143555E-1,6.207122803E-1,8.549652100E-1
3.558410645E0,-2.772369385E-1,7.783203125E-1,7.150726318E-1
3.563293457E0,-1.874389648E-1,8.436737061E-1,5.959472656E-1
3.568176270E0,-7.624816895E-2,8.277893066E-1,5.519714355E-1
3.573059082E0,3.491210938E-2,8.161926270E-1,5.758056641E-1
3.577941895E0,1.131134033E-1,7.783203125E-1,6.038970947E-1
3.582824707E0,1.650238037E-1,5.718383789E-1,6.081695557E-1
3.587707520E0,2.084045410E-1,3.061065674E-1,6.038970947E-1
3.592590332E0,2.609405518E-1,1.246795654E-1,6.246643066E-1
3.597442627E0,3.055419922E-1,-1.824951172E-2,6.912536621E-1
3.602325440E0,2.853698730E-1,-1.275939941E-1,7.486724854E-1
3.607208252E0,1.448822021E-1,-1.416473389E-1,7.663879395E-1
3.612091065E0,-4.876708984E-2,-9.765625000E-2,7.822723389E-1
3.616973877E0,-2.130889893E-1,-1.074371338E-1,8.378601074E-1
3.621856690E0,-4.085693359E-1,-1.599731445E-1,8.885650635E-1
3.626739502E0,-6.089324951E-1,-2.418212891E-1,9.441528320E-1
3.631622315E0,-7.622528076E-1,-2.363281250E-1,1.008911133E0
3.636505127E0,-8.667144775E-1,-1.642456055E-1,1.073654175E0
3.641387940E0,-8.948211670E-1,-8.850097656E-2,1.115814209E0
3.646270752E0,-8.636627197E-1,-6.100463867E-2,1.097473145E0
3.651153565E0,-7.854766846E-1,-7.200622559E-2,1.035781860E0
3.656036377E0,-6.981201172E-1,-3.718566895E-2,9.447631836E-1
3.660919190E0,-6.205444336E-1,8.802795410E-2,8.299255371E-1
3.665802002E0,-5.722808838E-1,2.792358398E-1,6.790313721E-1
3.670684815E0,-4.922485352E-1,3.311614990E-1,5.250854492E-1
3.675567627E0,-4.140625000E-1,2.896270752E-1,3.907012939E-1
3.680450440E0,-3.700866699E-1,2.108154297E-1,2.978515625E-1
3.685333252E0,-3.542022705E-1,1.411895752E-1,2.783050537E-1
3.690216065E0,-3.609161377E-1,6.848144531E-2,3.119049072E-1
3.695068360E0,-3.768005371E-1,-1.641845703E-2,3.699340820E-1
3.699951172E0,-3.920745850E-1,-1.465301514E-1,4.273529053E-1
3.704833985E0,-4.140625000E-1,-2.228851318E-1,4.585113525E-1
3.709716797E0,-4.586639404E-1,-1.966247559E-1,4.560699463E-1
3.714599610E0,-5.496826172E-1,-1.795196533E-1,4.206390381E-1
3.719482422E0,-6.932373047E-1,-1.471405029E-1,3.509979248E-1
3.724365235E0,-8.227386475E-1,-1.978454590E-1,2.471466064E-1
3.729248047E0,-8.832092285E-1,-3.303985596E-1,1.427001953E-1
3.734130860E0,-8.532714844E-1,-4.745788574E-1,7.427978516E-2
3.739013672E0,-7.567596436E-1,-5.570373535E-1,3.089904785E-2
3.743896485E0,-5.985565186E-1,-5.081634521E-1,-2.090454102E-3
3.748779297E0,-3.651885986E-1,-3.249053955E-1,-2.090454102E-3
3.753662110E0,-8.602905273E-2,-6.344604492E-2,4.434204102E-2
3.758544922E0,1.277770996E-1,1.442260742E-1,1.060485840E-1
3.763427735E0,2.029113770E-1,2.841186523E-1,1.958312988E-1
3.768310547E0,1.619873047E-1,3.708648682E-1,3.302307129E-1
3.773193360E0,7.217407227E-2,3.922424316E-1,4.756164551E-1
3.778076172E0,-2.005004883E-2,3.751373291E-1,5.935058594E-1
3.782958985E0,-3.837585449E-2,2.835083008E-1,6.393280029E-1
3.787811280E0,-4.791259766E-3,2.199859619E-1,5.996246338E-1
3.792694092E0,2.819824219E-2,2.725219727E-1,5.257110596E-1
3.797576905E0,9.967041016E-2,4.698333740E-1,4.365234375E-1
3.802459717E0,1.448822021E-1,4.820404053E-1,4.071960449E-1
3.807342530E0,1.387634277E-1,3.696441650E-1,4.298095703E-1
3.812225342E0,1.228790283E-1,2.945098877E-1,4.383544922E-1
3.817108155E0,1.240997314E-1,2.694549561E-1,3.907012939E-1
3.821990967E0,1.198272705E-1,2.370910645E-1,3.033447266E-1
3.826873780E0,9.967041016E-2,2.236480713E-1,2.062225342E-1
3.831756592E0,8.073425293E-2,2.541961670E-1,1.127471924E-1
3.836639405E0,7.890319824E-2,3.116149902E-1,2.845764160E-2
3.841522217E0,8.561706543E-2,4.014129639E-1,-3.079223633E-2
3.846405030E0,6.790161133E-2,5.522918701E-1,-2.467346191E-2
3.851287842E0,2.941894531E-2,6.420898438E-1,5.532836914E-2
3.856170655E0,-4.791259766E-3,6.292724609E-1,1.872863770E-1
3.861053467E0,3.158569336E-3,5.529022217E-1,3.564910889E-1
3.865936280E0,3.919982910E-2,5.248107910E-1,5.556335449E-1
3.870819092E0,7.829284668E-2,5.651245117E-1,7.902069092E-1
3.875701905E0,1.265563965E-1,5.217590332E-1,1.043716431E0
3.880584717E0,1.656494141E-1,4.142303467E-1,1.311904907E0
3.885437012E0,2.242889404E-1,2.511291504E-1,1.571517944E0
3.890319825E0,2.884368896E-1,1.118621826E-1,1.795700073E0
3.895202637E0,3.061370850E-1,5.749511719E-2,1.936203003E0
3.900085450E0,2.982025146E-1,-6.773376465E-2,1.920318604E0
3.904968262E0,2.841491699E-1,-1.929626465E-1,1.779220581E0
3.909851075E0,2.505493164E-1,-2.131195068E-1,1.572128296E0
3.914733887E0,2.096252441E-1,-2.082366943E-1,1.327163696E0
3.919616700E0,1.497650146E-1,-1.275939941E-1,1.103591919E0
3.924499512E0,8.805847168E-2,-6.956481934E-2,9.429321289E-1
3.929382325E0,4.591369629E-2,-3.718566895E-2,8.854980469E-1
3.934265137E0,1.658630371E-2,3.672790527E-2,9.099426270E-1
3.939147950E0,-2.677917480E-2,1.161346436E-1,9.453735352E-1
3.944030762E0,-8.541870117E-2,1.833343506E-1,9.038391113E-1
3.948913575E0,-1.568908691E-1,2.706756592E-1,8.097534180E-1
3.953796387E0,-2.295837402E-1,2.547912598E-1,7.517242432E-1
3.958679200E0,-2.442474365E-1,2.303619385E-1,7.492828369E-1
3.963562012E0,-2.552337646E-1,2.016601562E-1,7.480621338E-1
3.968444825E0,-2.631683350E-1,2.303619385E-1,7.223968506E-1
3.973327637E0,-2.839508057E-1,2.627410889E-1,7.199554443E-1
3.978210450E0,-3.041076660E-1,2.468566895E-1,7.645568848E-1
3.983062744E0,-2.931213379E-1,1.540069580E-1,8.097534180E-1
3.987945557E0,-2.411804199E-1,3.305053711E-2,7.938842773E-1
3.992828369E0,-1.440582275E-1,-1.947021484E-2,7.223968506E-1
3.997711182E0,-3.593444824E-2,-4.211425781E-3,6.289367676E-1
4.002593994E0,5.323791504E-2,1.777648926E-2,5.281524658E-1
4.007476807E0,1.143341064E-1,4.405212402E-2,4.432373047E-1
4.012359619E0,1.515808105E-1,7.765197754E-2,3.754272461E-1
4.017242432E0,1.772460938E-1,1.082000732E-1,3.155670166E-1
4.022125244E0,1.919097900E-1,1.344604492E-1,2.697448730E-1
4.027008057E0,1.974029541E-1,1.576690674E-1,2.471466064E-1
4.031890869E0,1.919097900E-1,1.998291016E-1,2.349395752E-1
4.036773682E0,1.766357422E-1,2.517547607E-1,2.043914795E-1
4.041656494E0,1.613616943E-1,2.890014648E-1,1.567382812E-1
4.046539307E0,1.534271240E-1,2.914428711E-1,1.133728027E-1
4.051422119E0,1.454772949E-1,2.688598633E-1,7.427978516E-2
4.056304932E0,1.253204346E-1,2.438049316E-1,4.006958008E-2
4.061187744E0,8.683776855E-2,2.163238525E-1,1.501464844E-2
4.066070557E0,4.042053223E-2,1.735534668E-1,7.080078125E-3
4.070953369E0,-2.944946289E-3,1.051330566E-1,7.690429688E-3
4.075836182E0,-3.288269043E-2,4.039001465E-2,1.501464844E-2
4.080688477E0,-4.388427734E-2,-5.184936523E-2,1.745605469E-2
4.085571289E0,-3.898620605E-2,-1.355285645E-1,1.013183594E-2
4.090454102E0,-3.105163574E-2,-1.593627930E-1,2.182006836E-3
4.095336914E0,-5.181884766E-2,-1.245422363E-1,1.196289062E-2
4.100219727E0,-8.847045898E-2,-5.856323242E-2,3.639221191E-2
4.105102539E0,-1.159515381E-1,-1.152038574E-2,5.595397949E-2
4.109985352E0,-1.245117188E-1,-9.704589844E-3,7.121276855E-2
4.114868164E0,-1.263427734E-1,1.892089844E-3,1.035919189E-1
4.119750977E0,-1.000671387E-1,5.259704590E-2,2.263793945E-1
4.124633789E0,-4.937744141E-2,1.197967529E-1,4.108581543E-1
4.129516602E0,-4.449462891E-2,1.253051758E-1,4.554595947E-1
4.134399414E0,-8.419799805E-2,8.680725098E-2,3.974151611E-1
4.139282227E0,-1.232910156E-1,3.182983398E-2,3.235015869E-1
4.144165039E0,-1.135101318E-1,1.008605957E-1,4.078063965E-1
4.149047852E0,-7.502746582E-2,3.867492676E-1,6.710968018E-1
4.153930664E0,-6.587219238E-2,8.467407227E-1,9.252166748E-1
4.158813477E0,-1.153564453E-1,1.083755493E0,9.343719482E-1
4.163696289E0,-2.589111328E-1,1.179656982E0,7.657775879E-1
4.168579102E0,-3.981781006E-1,1.223037720E0,5.672454834E-1
4.173461914E0,-4.690399170E-1,1.267623901E0,4.243011475E-1
4.178314209E0,-4.983673096E-1,1.256011963E0,3.760375977E-1
4.183197022E0,-4.983673096E-1,1.248077393E0,3.705444336E-1
4.188079834E0,-4.727020264E-1,1.205932617E0,3.112945557E-1
4.192962647E0,-3.713073730E-1,9.279785156E-1,1.219177246E-1
4.197845459E0,-2.051544189E-1,5.431365967E-1,-6.683349609E-2
4.202728272E0,-3.288269043E-2,2.065429688E-1,-1.609039307E-1
4.207611084E0,1.167755127E-1,-9.078979492E-3,-1.541900635E-1
4.212493897E0,1.925201416E-1,-7.139587402E-2,-1.095886230E-1
4.217376709E0,1.491394043E-1,2.267456055E-2,-7.965087891E-2
4.222259522E0,3.857421875E-2,1.625518799E-1,-6.683349609E-2
4.227142334E0,1.068115234E-4,1.430053711E-1,-5.216979980E-2
4.232025147E0,-1.333618164E-2,2.816772461E-2,-3.689575195E-2
4.236907959E0,-1.821899414E-2,-2.990722656E-3,-4.240417480E-2
4.241790772E0,-2.371215820E-2,-1.458740234E-2,-6.439208984E-2
4.246673584E0,-2.127075195E-2,-7.322692871E-2,-7.843017578E-2
4.251556397E0,-2.677917480E-2,-1.086578369E-1,-6.622314453E-2
4.256439209E0,-3.837585449E-2,-1.282043457E-1,-6.805419922E-2
4.261322022E0,-5.059814453E-2,-1.428680420E-1,-6.254577637E-2
4.266204834E0,-6.097412109E-2,-1.660766602E-1,-5.644226074E-2
4.271087647E0,-6.892395020E-2,-1.856231689E-1,-5.094909668E-2
4.275939942E0,-7.685852051E-2,-1.941833496E-1,-4.116821289E-2
4.280822754E0,-8.602905273E-2,-1.856231689E-1,-2.529907227E-2
4.285705567E0,-9.458923340E-2,-1.593627930E-1,-7.583618164E-3
4.290588379E0,-1.031341553E-1,-1.153869629E-1,1.196289062E-2
4.295471192E0,-1.098480225E-1,-7.749938965E-2,2.906799316E-2
4.300354004E0,-1.177978516E-1,-5.734252930E-2,3.945922852E-2
4.305236817E0,-1.245117188E-1,-4.023742676E-2,4.922485352E-2
4.310119629E0,-1.257324219E-1,-5.416870117E-3,6.571960449E-2
4.315002442E0,-1.196136475E-1,3.060913086E-2,8.404541016E-2
4.319885254E0,-1.074066162E-1,4.527282715E-2,9.016418457E-2
4.324768067E0,-9.152221680E-2,5.137634277E-2,8.953857422E-2
4.329650879E0,-7.197570801E-2,5.320739746E-2,8.526611328E-2
4.334533692E0,-5.242919922E-2,3.427124023E-2,6.877136230E-2
4.339416504E0,-3.837585449E-2,-9.704589844E-3,4.556274414E-2
4.344299317E0,-2.799987793E-2,-7.261657715E-2,2.113342285E-2
4.349182129E0,-1.821899414E-2,-1.275939941E-1,5.249023438E-3
4.354064942E0,-9.674072266E-3,-1.709594727E-1,-1.429748535E-2
4.358947754E0,-5.386352539E-3,-2.002868652E-1,-3.994750977E-2
4.363830567E0,-6.011962891E-3,-2.198333740E-1,-6.132507324E-2
4.368713379E0,-1.272583008E-2,-2.436523438E-1,-8.026123047E-2
4.373565674E0,-2.493286133E-2,-2.607574463E-1,-9.309387207E-2
4.378448487E0,-4.142761230E-2,-2.662658691E-1,-9.980773926E-2
4.383331299E0,-5.426025391E-2,-2.583160400E-1,-1.010437012E-1
4.388214112E0,-6.282043457E-2,-2.363281250E-1,-9.370422363E-2
4.393096924E0,-6.219482422E-2,-2.137298584E-1,-8.699035645E-2
4.397979737E0,-5.731201172E-2,-1.837921143E-1,-7.659912109E-2
4.402862549E0,-4.510498047E-2,-1.446990967E-1,-6.132507324E-2
4.407745362E0,-3.349304199E-2,-1.257629395E-1,-5.766296387E-2
4.412628174E0,-2.493286133E-2,-1.282043457E-1,-5.827331543E-2
4.417510987E0,-1.821899414E-2,-1.361541748E-1,-5.766296387E-2
4.422393799E0,-9.674072266E-3,-1.367492676E-1,-5.705261230E-2
4.427276612E0,-2.334594727E-3,-1.337127686E-1,-6.071472168E-2
4.432159424E0,3.768920898E-3,-1.337127686E-1,-6.254577637E-2
4.437042237E0,5.599975586E-3,-1.373748779E-1,-6.500244141E-2
4.441925049E0,6.210327148E-3,-1.416473389E-1,-7.110595703E-2
4.446807862E0,4.379272461E-3,-1.477508545E-1,-7.110595703E-2
4.451690674E0,-2.944946289E-3,-1.569213867E-1,-6.744384766E-2
4.456573487E0,-1.455688477E-2,-1.642456055E-1,-6.439208984E-2
4.461456299E0,-2.555847168E-2,-1.654663086E-1,-6.010437012E-2
4.466308594E0,-3.227233887E-2,-1.581420898E-1,-5.644226074E-2
4.471191407E0,-3.654479980E-2,-1.483612061E-1,-5.461120605E-2
4.476074219E0,-3.532409668E-2,-1.416473389E-1,-5.644226074E-2
4.480957032E0,-2.861022949E-2,-1.398162842E-1,-6.010437012E-2
4.485839844E0,-2.310180664E-2,-1.416473389E-1,-6.376647949E-2
4.490722657E0,-2.249145508E-2,-1.446990967E-1,-6.622314453E-2
4.495605469E0,-2.615356445E-2,-1.477508545E-1,-6.744384766E-2
4.500488282E0,-3.410339355E-2,-1.508178711E-1,-7.049560547E-2
4.505371094E0,-4.693603516E-2,-1.501922607E-1,-7.049560547E-2
4.510253907E0,-6.037902832E-2,-1.446990967E-1,-6.988525391E-2
4.515136719E0,-7.136535645E-2,-1.361541748E-1,-6.622314453E-2
4.520019532E0,-7.992553711E-2,-1.251525879E-1,-6.376647949E-2
4.524902344E0,-8.419799805E-2,-1.110992432E-1,-5.644226074E-2
4.529785157E0,-8.174133301E-2,-9.582519531E-2,-4.972839355E-2
4.534667969E0,-7.563781738E-2,-8.239746094E-2,-4.240417480E-2
4.539550782E0,-6.343078613E-2,-7.017517090E-2,-3.445434570E-2
4.544433594E0,-4.998779297E-2,-6.039428711E-2,-3.140258789E-2
4.549316407E0,-3.593444824E-2,-5.551147461E-2,-2.711486816E-2
4.554199219E0,-2.249145508E-2,-5.368041992E-2,-2.467346191E-2
4.559082032E0,-9.048461914E-3,-5.001831055E-2,-2.589416504E-2
4.563934326E0,3.158569336E-3,-4.818725586E-2,-2.467346191E-2
4.568817139E0,1.171875000E-2,-4.450988770E-2,-2.467346191E-2
4.573699951E0,1.658630371E-2,-4.695129395E-2,-2.285766602E-2
4.578582764E0,1.538085938E-2,-5.368041992E-2,-2.040100098E-2
4.583465576E0,8.056640625E-3,-6.161499023E-2,-1.795959473E-2
4.588348389E0,-4.791259766E-3,-7.383728027E-2,-1.370239258E-2
4.593231201E0,-2.066040039E-2,-8.422851562E-2,-1.002502441E-2
4.598114014E0,-3.959655762E-2,-9.338378906E-2,-5.752563477E-3
4.602996826E0,-5.792236328E-2,-9.887695312E-2,-3.921508789E-3
4.607879639E0,-7.502746582E-2,-1.025390625E-1,-1.480102539E-3
4.612762451E0,-8.724975586E-2,-1.007232666E-1,-2.593994141E-4
4.617645264E0,-9.274291992E-2,-9.828186035E-2,-1.480102539E-3
4.622528076E0,-8.908081055E-2,-9.277343750E-2,-5.752563477E-3
4.627410889E0,-7.807922363E-2,-8.544921875E-2,-1.185607910E-2
4.632293701E0,-6.037902832E-2,-7.933044434E-2,-2.162170410E-2
4.637176514E0,-4.449462891E-2,-7.933044434E-2,-2.955627441E-2
4.642059326E0,-2.738952637E-2,-8.239746094E-2,-3.689575195E-2
4.646942139E0,-1.333618164E-2,-8.422851562E-2,-4.240417480E-2
4.651824951E0,-1.724243164E-3,-8.361816406E-2,-4.666137695E-2
4.656707764E0,5.599975586E-3,-7.933044434E-2,-5.094909668E-2
4.661560059E0,9.277343750E-3,-7.505798340E-2,-5.216979980E-2
4.666442871E0,9.872436523E-3,-6.773376465E-2,-4.911804199E-2
4.671325684E0,9.872436523E-3,-6.283569336E-2,-4.728698730E-2
4.676208496E0,8.056640625E-3,-5.917358398E-2,-4.666137695E-2
4.681091309E0,4.989624023E-3,-5.551147461E-2,-4.544067383E-2
4.685974121E0,1.327514648E-3,-5.368041992E-2,-4.116821289E-2
4.690856934E0,-3.555297852E-3,-5.245971680E-2,-3.811645508E-2
4.695739746E0,-9.048461914E-3,-5.123901367E-2,-3.811645508E-2
4.700622559E0,-1.333618164E-2,-5.062866211E-2,-3.811645508E-2
4.705505371E0,-1.943969727E-2,-5.245971680E-2,-4.116821289E-2
4.710388184E0,-2.371215820E-2,-5.856323242E-2,-4.362487793E-2
4.715270996E0,-2.983093262E-2,-6.895446777E-2,-5.033874512E-2
4.720153809E0,-3.288269043E-2,-7.749938965E-2,-5.400085449E-2
4.725036621E0,-3.166198730E-2,-7.566833496E-2,-5.522155762E-2
4.729919434E0,-2.861022949E-2,-6.773376465E-2,-5.461120605E-2
4.734802246E0,-1.943969727E-2,-5.001831055E-2,-4.850769043E-2
4.739685059E0,-9.674072266E-3,-3.230285645E-2,-4.484558105E-2
4.744567871E0,-1.113891602E-3,-2.496337891E-2,-4.116821289E-2
4.749450684E0,1.937866211E-3,-2.130126953E-2,-3.384399414E-2
4.754333496E0,1.327514648E-3,-1.824951172E-2,-2.589416504E-2
4.759185791E0,-4.165649414E-3,-1.519775391E-2,-1.736450195E-2
4.764068604E0,-9.674072266E-3,-9.078979492E-3,-1.002502441E-2
4.768951416E0,-1.638793945E-2,-5.416870117E-3,-2.090454102E-3
4.773834229E0,-1.943969727E-2,-4.806518555E-3,4.638671875E-3
4.778717041E0,-2.005004883E-2,-7.263183594E-3,7.690429688E-3
4.783599854E0,-1.882934570E-2,-1.092529297E-2,8.300781250E-3
4.788482666E0,-1.577758789E-2,-1.336669922E-2,8.911132812E-3
4.793365479E0,-1.211547852E-2,-1.763916016E-2,7.080078125E-3
4.798248291E0,-1.089477539E-2,-1.947021484E-2,3.402709961E-3
4.803131104E0,-8.453369141E-3,-1.885986328E-2,-8.544921875E-4
4.808013916E0,-9.048461914E-3,-2.130126953E-2,-7.583618164E-3
4.812896729E0,-9.048461914E-3,-2.191162109E-2,-1.492309570E-2
4.817779541E0,-1.394653320E-2,-2.130126953E-2,-2.345275879E-2
4.822662354E0,-1.882934570E-2,-2.435302734E-2,-3.323364258E-2
4.827545166E0,-2.493286133E-2,-2.680969238E-2,-4.177856445E-2
4.832427979E0,-3.044128418E-2,-2.740478516E-2,-4.484558105E-2
4.837310791E0,-3.593444824E-2,-2.618408203E-2,-5.155944824E-2
4.842193604E0,-3.959655762E-2,-2.435302734E-2,-5.278015137E-2
4.847076416E0,-4.142761230E-2,-2.008056641E-2,-5.094909668E-2
4.851928711E0,-4.081726074E-2,-1.397705078E-2,-4.728698730E-2
4.856811524E0,-3.898620605E-2,-2.365112305E-3,-4.116821289E-2
4.861694336E0,-3.349304199E-2,2.084350586E-2,-3.262329102E-2
4.866577149E0,-1.882934570E-2,3.794860840E-2,-2.529907227E-2
4.871459961E0,-5.035400391E-4,4.161071777E-2,-2.285766602E-2
4.876320972E0,1.538085938E-2,3.855895996E-2,-2.589416504E-2
4.881203784E0,2.697753906E-2,2.999877930E-2,-3.018188477E-2
4.886086597E0,3.186035156E-2,1.655578613E-2,-3.872680664E-2
4.890969409E0,3.491210938E-2,1.892089844E-3,-4.789733887E-2
4.895852222E0,3.491210938E-2,-1.458740234E-2,-5.644226074E-2
4.900735034E0,3.247070312E-2,-3.352355957E-2,-6.376647949E-2
4.905617847E0,2.758789062E-2,-4.635620117E-2,-6.866455078E-2
4.910500659E0,2.146911621E-2,-5.245971680E-2,-7.171630859E-2
4.915383472E0,1.721191406E-2,-5.184936523E-2,-6.866455078E-2
4.920266284E0,1.171875000E-2,-4.635620117E-2,-6.132507324E-2
4.925149097E0,6.210327148E-3,-3.535461426E-2,-4.972839355E-2
4.930031909E0,1.327514648E-3,-2.313232422E-2,-3.323364258E-2
4.934914722E0,-1.113891602E-3,-9.078979492E-3,-1.918029785E-2
4.939797534E0,-1.724243164E-3,1.892089844E-3,-5.752563477E-3
4.944680347E0,-1.113891602E-3,7.400512695E-3,5.859375000E-3
4.949532642E0,-1.724243164E-3,1.045227051E-2,1.684570312E-2
4.954415454E0,1.068115234E-4,1.045227051E-2,2.296447754E-2
4.959298267E0,2.548217773E-3,8.621215820E-3,2.845764160E-2
4.964181079E0,4.379272461E-3,4.348754883E-3,3.150939941E-2
4.969063892E0,8.056640625E-3,-1.144409180E-3,3.211975098E-2
4.973946704E0,9.872436523E-3,-6.637573242E-3,2.967834473E-2
4.978829517E0,1.049804688E-2,-1.519775391E-2,2.418518066E-2
4.983712329E0,6.820678711E-3,-2.680969238E-2,1.991271973E-2
4.988595142E0,-1.113891602E-3,-3.230285645E-2,1.684570312E-2
4.993477954E0,-1.211547852E-2,-3.596496582E-2,1.318359375E-2
4.998360767E0,-2.188110352E-2,-3.657531738E-2,1.074218750E-2
5.003243579E0,-3.105163574E-2,-3.413391113E-2,8.911132812E-3
5.008126392E0,-3.776550293E-2,-2.803039551E-2,8.300781250E-3
5.013009204E0,-4.203796387E-2,-1.885986328E-2,8.911132812E-3
5.017892017E0,-4.325866699E-2,-8.483886719E-3,8.300781250E-3
5.022774829E0,-4.081726074E-2,-2.365112305E-3,8.300781250E-3
5.027657642E0,-4.020690918E-2,-1.092529297E-2,9.613037109E-4
5.032540454E0,-3.776550293E-2,-7.263183594E-3,-1.480102539E-3
5.037423267E0,-3.776550293E-2,3.121948242E-2,-6.362915039E-3
5.042275562E0,-3.227233887E-2,8.987426758E-2,-5.752563477E-3
5.047158374E0,-1.455688477E-2,1.094207764E-1,-6.362915039E-3
5.052041187E0,8.651733398E-3,1.271209717E-1,2.182006836E-3
5.056923999E0,2.514648438E-2,1.069793701E-1,1.379394531E-2
5.061806812E0,4.347229004E-2,9.291076660E-2,3.089904785E-2
5.066689624E0,5.323791504E-2,9.353637695E-2,4.006958008E-2
5.071572437E0,5.690002441E-2,8.436584473E-2,3.639221191E-2
5.076455249E0,6.057739258E-2,8.619689941E-2,3.334045410E-2
5.081338062E0,6.301879883E-2,8.192443848E-2,3.517150879E-2
5.086220874E0,6.423950195E-2,8.070373535E-2,3.700256348E-2
5.091103687E0,6.546020508E-2,8.497619629E-2,3.945922852E-2
5.095986499E0,6.851196289E-2,8.619689941E-2,4.190063477E-2
5.100869312E0,7.461547852E-2,8.497619629E-2,4.434204102E-2
5.105752124E0,7.890319824E-2,8.619689941E-2,4.739379883E-2
5.110634937E0,7.951354980E-2,8.436584473E-2,4.922485352E-2
5.115517749E0,7.646179199E-2,8.253479004E-2,4.739379883E-2
5.120400562E0,6.668090820E-2,7.826232910E-2,4.251098633E-2
5.125283374E0,5.384826660E-2,6.665039062E-2,3.578186035E-2
5.130166187E0,4.101562500E-2,5.198669434E-2,2.662658691E-2
5.135048999E0,3.002929688E-2,3.427124023E-2,1.623535156E-2
5.139901294E0,2.024841309E-2,2.084350586E-2,1.586914062E-3
5.144784106E0,1.231384277E-2,8.621215820E-3,-1.185607910E-2
5.149666919E0,3.768920898E-3,7.629394531E-5,-2.589416504E-2
5.154549731E0,-2.334594727E-3,-8.483886719E-3,-4.177856445E-2
5.159432544E0,-6.011962891E-3,-1.274108887E-2,-5.705261230E-2
5.164315356E0,-4.791259766E-3,-1.336669922E-2,-6.927490234E-2
5.169198169E0,1.327514648E-3,-1.214599609E-2,-7.781982422E-2
5.174080981E0,1.231384277E-2,-1.397705078E-2,-8.576965332E-2
5.178963794E0,2.514648438E-2,-1.702880859E-2,-8.821105957E-2
5.183846606E0,3.857421875E-2,-1.947021484E-2,-8.699035645E-2
5.188729419E0,4.774475098E-2,-2.496337891E-2,-8.515930176E-2
5.193612231E0,5.506896973E-2,-3.413391113E-2,-7.965087891E-2
5.198495044E0,5.996704102E-2,-4.450988770E-2,-7.537841797E-2
5.203377856E0,6.484985352E-2,-5.490112305E-2,-6.744384766E-2
5.208260669E0,7.217407227E-2,-6.344604492E-2,-6.010437012E-2
5.213143481E0,7.890319824E-2,-6.956481934E-2,-5.094909668E-2
5.218026294E0,8.500671387E-2,-7.444763184E-2,-4.116821289E-2
5.222909106E0,8.866882324E-2,-7.627868652E-2,-2.955627441E-2
5.227791919E0,9.111022949E-2,-7.749938965E-2,-1.673889160E-2
5.232674731E0,9.234619141E-2,-7.566833496E-2,-4.531860352E-3
5.237527026E0,9.294128418E-2,-7.017517090E-2,7.080078125E-3
5.242409839E0,9.478759766E-2,-6.222534180E-2,1.869201660E-2
5.247292651E0,9.294128418E-2,-5.551147461E-2,2.662658691E-2
5.252175464E0,9.111022949E-2,-4.818725586E-2,3.456115723E-2
5.257058276E0,8.866882324E-2,-4.757690430E-2,3.761291504E-2
5.261941089E0,8.317565918E-2,-4.818725586E-2,3.823852539E-2
5.266823901E0,7.400512695E-2,-5.001831055E-2,3.761291504E-2
5.271706714E0,6.362915039E-2,-5.429077148E-2,3.456115723E-2
5.276589526E0,5.201721191E-2,-5.978393555E-2,3.028869629E-2
5.281472339E0,3.979492188E-2,-6.344604492E-2,2.540588379E-2
5.286355151E0,2.941894531E-2,-6.283569336E-2,1.991271973E-2
5.291237964E0,1.902770996E-2,-6.161499023E-2,1.379394531E-2
5.296120776E0,1.109313965E-2,-6.039428711E-2,7.690429688E-3
5.301003589E0,3.158569336E-3,-6.161499023E-2,4.028320312E-3
5.305886401E0,-2.334594727E-3,-6.161499023E-2,9.613037109E-4
5.310769214E0,-6.011962891E-3,-6.468200684E-2,3.662109375E-4
5.315652026E0,-9.674072266E-3,-6.773376465E-2,-3.311157227E-3
5.320534839E0,-1.089477539E-2,-7.749938965E-2,-1.002502441E-2
5.325417651E0,-1.089477539E-2,-8.972167969E-2,-1.736450195E-2
5.330300464E0,-1.089477539E-2,-9.887695312E-2,-2.529907227E-2
5.335152759E0,-8.453369141E-3,-1.056060791E-1,-3.323364258E-2
5.340035571E0,-3.555297852E-3,-1.037597656E-1,-3.689575195E-2
5.344918384E0,2.548217773E-3,-9.950256348E-2,-3.933715820E-2
5.349801196E0,9.872436523E-3,-8.789062500E-2,-3.750610352E-2
5.354684009E0,1.721191406E-2,-7.688903809E-2,-3.384399414E-2
5.359566821E0,2.453613281E-2,-6.651306152E-2,-3.018188477E-2
5.364449634E0,2.941894531E-2,-6.100463867E-2,-2.467346191E-2
5.369332446E0,3.735351562E-2,-5.184936523E-2,-1.736450195E-2
5.374215259E0,4.347229004E-2,-4.818725586E-2,-1.185607910E-2
5.379098071E0,4.774475098E-2,-5.062866211E-2,-5.142211914E-3
5.383980884E0,5.323791504E-2,-5.184936523E-2,9.613037109E-4
5.388863696E0,5.630493164E-2,-5.551147461E-2,5.859375000E-3
5.393746509E0,5.812072754E-2,-5.734252930E-2,1.318359375E-2
5.398629321E0,6.240844727E-2,-5.673217773E-2,1.806640625E-2
5.403512134E0,6.546020508E-2,-5.673217773E-2,2.050781250E-2
5.408394946E0,6.668090820E-2,-5.612182617E-2,2.050781250E-2
5.413277759E0,6.973266602E-2,-5.612182617E-2,2.113342285E-2
5.418160571E0,7.461547852E-2,-5.612182617E-2,2.113342285E-2
5.423043384E0,7.522583008E-2,-5.978393555E-2,1.501464844E-2
5.427895679E0,7.217407227E-2,-6.468200684E-2,8.911132812E-3
5.432778491E0,6.607055664E-2,-7.383728027E-2,-3.311157227E-3
5.437661304E0,5.262756348E-2,-9.950256348E-2,-2.162170410E-2
5.442544116E0,4.530334473E-2,-7.383728027E-2,-1.002502441E-2
5.447426929E0,4.469299316E-2,-5.734252930E-2,-1.246643066E-2
5.452309741E0,3.613281250E-2,-6.344604492E-2,-2.833557129E-2
5.457192554E0,2.146911621E-2,-6.405639648E-2,-2.955627441E-2
5.462075366E0,7.431030273E-3,-4.757690430E-2,-2.955627441E-2
5.466958179E0,-7.827758789E-3,-4.635620117E-2,-3.628540039E-2
5.471840991E0,-2.005004883E-2,-3.718566895E-2,-3.140258789E-2
5.476723804E0,-2.615356445E-2,-2.740478516E-2,-3.140258789E-2
5.481606616E0,-2.983093262E-2,-1.641845703E-2,-2.651977539E-2
5.486489429E0,-3.044128418E-2,-9.078979492E-3,-2.102661133E-2
5.491372241E0,-2.922058105E-2,-4.806518555E-3,-1.429748535E-2
5.496255054E0,-2.861022949E-2,6.713867188E-4,-7.583618164E-3
5.501137866E0,-2.555847168E-2,9.841918945E-3,-2.593994141E-4
5.506020679E0,-2.249145508E-2,1.472473145E-2,5.859375000E-3
5.510903491E0,-1.821899414E-2,1.596069336E-2,1.318359375E-2
5.515786304E0,-1.272583008E-2,1.472473145E-2,1.379394531E-2
5.520669116E0,-7.232666016E-3,9.841918945E-3,1.135253906E-2
5.525521411E0,-4.165649414E-3,4.959106445E-3,1.257324219E-2
5.530404224E0,-2.334594727E-3,-9.704589844E-3,1.257324219E-2
5.535287036E0,-4.791259766E-3,-2.008056641E-2,1.135253906E-2
5.540169849E0,-4.791259766E-3,-2.069091797E-2,1.196289062E-2
5.545052661E0,-2.334594727E-3,-2.558898926E-2,1.013183594E-2
5.549935474E0,2.548217773E-3,-2.740478516E-2,1.074218750E-2
5.554818286E0,5.599975586E-3,-2.803039551E-2,1.074218750E-2
5.559701099E0,5.599975586E-3,-3.108215332E-2,1.013183594E-2
5.564583911E0,3.768920898E-3,-3.474426270E-2,7.080078125E-3
5.569466724E0,7.171630859E-4,-4.206848145E-2,6.469726562E-3
5.574349536E0,-5.386352539E-3,-5.368041992E-2,1.135253906E-2
5.579232349E0,-1.150512695E-2,-6.468200684E-2,1.745605469E-2
5.584115161E0,-1.638793945E-2,-7.139587402E-2,2.357482910E-2
5.588997974E0,-1.943969727E-2,-7.383728027E-2,2.906799316E-2
5.593880786E0,-2.188110352E-2,-7.566833496E-2,3.334045410E-2
5.598763599E0,-2.127075195E-2,-7.994079590E-2,3.578186035E-2
5.603646411E0,-1.760864258E-2,-8.972167969E-2,3.639221191E-2
5.608529224E0,-1.333618164E-2,-9.216308594E-2,3.578186035E-2
5.613412036E0,-7.232666016E-3,-8.117675781E-2,3.700256348E-2
5.618294849E0,1.068115234E-4,-5.978393555E-2,4.006958008E-2
5.623147144E0,1.109313965E-2,-2.680969238E-2,4.495239258E-2
5.628029956E0,2.331542969E-2,3.738403320E-3,4.983520508E-2
5.632912769E0,3.430175781E-2,1.350402832E-2,5.595397949E-2
5.637795581E0,4.225158691E-2,1.718139648E-2,6.083679199E-2
5.642678394E0,4.469299316E-2,2.511596680E-2,6.327819824E-2
5.647561206E0,4.286193848E-2,3.732299805E-2,6.755065918E-2
5.652444019E0,4.164123535E-2,6.054687500E-2,7.977294922E-2
5.657326831E0,4.347229004E-2,8.619689941E-2,9.748840332E-2
5.662209644E0,5.018615723E-2,1.087951660E-1,1.164245605E-1
5.667092456E0,5.996704102E-2,1.246795654E-1,1.390228271E-1
5.671975269E0,6.362915039E-2,1.087951660E-1,1.555175781E-1
5.676858081E0,5.812072754E-2,6.481933594E-2,1.585693359E-1
5.681740894E0,4.164123535E-2,-1.144409180E-3,1.579589844E-1
5.686623706E0,1.843261719E-2,-6.344604492E-2,1.518554688E-1
5.691506519E0,5.599975586E-3,-5.551147461E-2,1.512451172E-1
5.696389331E0,3.768920898E-3,-2.618408203E-2,1.488037109E-1
5.701272144E0,6.210327148E-3,-2.130126953E-2,1.439208984E-1
5.706154956E0,8.056640625E-3,-2.435302734E-2,1.371917725E-1
5.711037769E0,1.937866211E-3,-7.263183594E-3,1.152038574E-1
5.715920581E0,-5.386352539E-3,5.015563965E-2,9.809875488E-2
5.720772876E0,-6.011962891E-3,9.291076660E-2,9.442138672E-2
5.725655689E0,-1.455688477E-2,1.039123535E-1,8.221435547E-2
5.730538501E0,-2.615356445E-2,9.046936035E-2,6.327819824E-2
5.735421314E0,-3.044128418E-2,5.566406250E-2,5.532836914E-2
5.740304126E0,-3.410339355E-2,3.732299805E-2,5.473327637E-2
5.745186939E0,-3.898620605E-2,3.550720215E-2,5.410766602E-2
5.750069751E0,-4.081726074E-2,3.794860840E-2,5.349731445E-2
5.754952564E0,-3.837585449E-2,3.550720215E-2,4.922485352E-2
5.759835376E0,-3.349304199E-2,2.267456055E-2,3.395080566E-2
5.764718189E0,-2.677917480E-2,1.411437988E-2,1.623535156E-2
5.769601001E0,-1.943969727E-2,1.899719238E-2,2.182006836E-3
5.774483814E0,-1.211547852E-2,2.145385742E-2,-1.307678223E-2
5.779366626E0,-4.165649414E-3,1.350402832E-2,-3.079223633E-2
5.784249439E0,7.171630859E-4,1.596069336E-2,-3.445434570E-2
5.789132251E0,-5.035400391E-4,3.112792969E-3,-3.811645508E-2
5.794015064E0,-6.607055664E-3,-4.695129395E-2,-5.339050293E-2
5.798897876E0,-1.394653320E-2,-6.222534180E-2,-5.216979980E-2
5.803780689E0,-1.943969727E-2,-8.605957031E-2,-5.522155762E-2
5.808663501E0,-2.983093262E-2,-3.596496582E-2,-4.484558105E-2
5.813546314E0,-4.388427734E-2,1.167297363E-2,-3.811645508E-2
5.818398608E0,-5.059814453E-2,-2.365112305E-3,-3.323364258E-2
5.823281421E0,-5.059814453E-2,-4.023742676E-2,-2.162170410E-2
5.828164233E0,-5.059814453E-2,-7.749938965E-2,-1.185607910E-2
5.833047046E0,-4.510498047E-2,-1.080474854E-1,6.469726562E-3
5.837929858E0,-3.471374512E-2,-1.477508545E-1,2.418518066E-2
5.842812671E0,-2.983093262E-2,-1.709594727E-1,3.884887695E-2
5.847695483E0,-2.738952637E-2,-1.740264893E-1,4.617309570E-2
5.852578296E0,-2.371215820E-2,-1.416473389E-1,5.778503418E-2
5.857461108E0,-1.272583008E-2,-1.239318848E-1,5.654907227E-2
5.862343921E0,-1.211547852E-2,-9.582519531E-2,5.227661133E-2
5.867226733E0,-2.615356445E-2,-1.214599609E-2,5.717468262E-2
5.872109546E0,-3.532409668E-2,1.979827881E-1,7.855224609E-2
5.876992358E0,-9.674072266E-3,3.965301514E-1,1.054229736E-1
5.881875171E0,4.835510254E-2,3.177185059E-1,1.139678955E-1
5.886757983E0,1.021118164E-1,1.711120605E-1,1.231536865E-1
5.891640796E0,1.363220215E-1,1.191864014E-1,1.530761719E-1
5.896523608E0,1.461029053E-1,1.680603027E-1,1.775054932E-1
5.901406421E0,1.326599121E-1,2.438049316E-1,1.903381348E-1
5.906289233E0,1.033325195E-1,2.627410889E-1,2.001037598E-1
5.911172046E0,7.768249512E-2,2.053222656E-1,1.933898926E-1
5.916024341E0,5.935668945E-2,1.369018555E-1,1.732330322E-1
5.920907153E0,4.652404785E-2,8.987426758E-2,1.561279297E-1
5.925789966E0,3.613281250E-2,3.550720215E-2,1.384124756E-1
5.930672778E0,2.575683594E-2,-3.291320801E-2,1.121520996E-1
5.935555591E0,1.658630371E-2,-9.887695312E-2,8.404541016E-2
5.940438403E0,4.989624023E-3,-1.422576904E-1,4.922485352E-2
5.945321216E0,-1.333618164E-2,-1.538543701E-1,1.440429688E-2
5.950204028E0,-3.837585449E-2,-1.404113770E-1,-1.795959473E-2
5.955086841E0,-6.648254395E-2,-1.098785400E-1,-4.421997070E-2
5.959969653E0,-9.030151367E-2,-7.139587402E-2,-6.805419922E-2
5.964852466E0,-1.037445068E-1,-3.535461426E-2,-8.821105957E-2
5.969735278E0,-1.074066162E-1,-5.493164062E-4,-1.065368652E-1
5.974618091E0,-1.031341553E-1,2.816772461E-2,-1.212005615E-1
5.979500903E0,-9.335327148E-2,5.015563965E-2,-1.309661865E-1
5.984383716E0,-7.992553711E-2,7.154846191E-2,-1.346435547E-1
5.989266528E0,-6.465148926E-2,9.169006348E-2,-1.334228516E-1
5.994149341E0,-4.815673828E-2,1.057586670E-1,-1.279144287E-1
5.999032153E0,-3.105163574E-2,1.124572754E-1,-1.181335449E-1
6.003914966E0,-1.394653320E-2,1.075744629E-1,-1.083679199E-1
6.008767261E0,1.068115234E-4,8.987426758E-2,-9.980773926E-2
6.013650073E0,1.353454590E-2,5.993652344E-2,-9.065246582E-2
6.018532886E0,2.514648438E-2,2.816772461E-2,-8.026123047E-2
6.023415698E0,3.125000000E-2,-5.493164062E-4,-7.171630859E-2
6.028298511E0,3.613281250E-2,-2.862548828E-2,-6.376647949E-2
6.033181323E0,4.164123535E-2,-5.245971680E-2,-5.766296387E-2
6.038064136E0,4.408264160E-2,-7.994079590E-2,-5.155944824E-2
6.042946948E0,4.530334473E-2,-1.062164307E-1,-4.666137695E-2
6.047829761E0,3.857421875E-2,-1.196441650E-1,-4.116821289E-2
6.052712573E0,2.331542969E-2,-1.233062744E-1,-3.323364258E-2
6.057595386E0,1.599121094E-2,-1.190490723E-1,-1.551818848E-2
6.062478198E0,1.599121094E-2,-1.043853760E-1,-3.311157227E-3
6.067361011E0,1.353454590E-2,-9.460449219E-2,9.613037109E-4
6.072243823E0,3.158569336E-3,-1.019439697E-1,2.807617188E-3
6.077126636E0,-5.386352539E-3,-1.086578369E-1,2.182006836E-3
6.082009448E0,-1.028442383E-2,-1.043853760E-1,2.807617188E-3
6.086892261E0,-1.089477539E-2,-8.789062500E-2,-8.544921875E-4
6.091775073E0,-8.453369141E-3,-6.895446777E-2,-3.311157227E-3
6.096657886E0,-4.791259766E-3,-4.573059082E-2,-7.583618164E-3
6.101540698E0,-2.944946289E-3,-2.374267578E-2,-1.002502441E-2
6.106392993E0,-4.165649414E-3,-2.365112305E-3,-9.414672852E-3
6.111275806E0,-4.791259766E-3,1.718139648E-2,-1.002502441E-2
6.116158618E0,-4.791259766E-3,2.816772461E-2,-1.002502441E-2
6.121041431E0,-2.944946289E-3,3.244018555E-2,-7.583618164E-3
6.125924243E0,-1.113891602E-3,3.244018555E-2,-5.142211914E-3
6.130807056E0,1.937866211E-3,3.060913086E-2,1.586914062E-3
6.135689868E0,1.068115234E-4,2.021789551E-2,6.469726562E-3
6.140572681E0,-2.944946289E-3,9.841918945E-3,1.074218750E-2
6.145455493E0,-7.827758789E-3,1.892089844E-3,8.911132812E-3
6.150338306E0,-1.577758789E-2,-1.458740234E-2,7.080078125E-3
6.155221118E0,-2.371215820E-2,-2.984619141E-2,7.690429688E-3
6.160103931E0,-2.493286133E-2,-3.352355957E-2,8.300781250E-3
6.164986743E0,-1.638793945E-2,-1.947021484E-2,5.859375000E-3
6.169869556E0,-1.724243164E-3,-6.042480469E-3,3.662109375E-4
6.174752368E0,4.989624023E-3,-2.313232422E-2,-3.921508789E-3
6.179635181E0,-5.035400391E-4,-2.496337891E-2,-4.531860352E-3
6.184517993E0,-6.011962891E-3,-1.641845703E-2,-5.752563477E-3
6.189400806E0,-9.048461914E-3,-1.580810547E-2,-4.531860352E-3
6.194283618E0,-1.089477539E-2,-1.397705078E-2,-5.752563477E-3
6.199166431E0,-1.089477539E-2,-1.336669922E-2,-6.362915039E-3
6.204018726E0,-9.674072266E-3,-1.519775391E-2,-6.362915039E-3
6.208901538E0,-9.674072266E-3,-1.458740234E-2,-7.583618164E-3
6.213784351E0,-7.232666016E-3,-1.214599609E-2,-1.002502441E-2
6.218667163E0,-4.165649414E-3,-7.263183594E-3,-1.307678223E-2
6.223549976E0,-1.724243164E-3,-1.144409180E-3,-1.429748535E-2
6.228432788E0,7.171630859E-4,3.112792969E-3,-1.736450195E-2
6.233315601E0,4.989624023E-3,6.790161133E-3,-1.980590820E-2
6.238198413E0,9.277343750E-3,8.621215820E-3,-2.345275879E-2
6.243081226E0,1.353454590E-2,9.231567383E-3,-2.529907227E-2
6.247964038E0,1.721191406E-2,8.010864258E-3,-3.018188477E-2
6.252846851E0,2.146911621E-2,4.959106445E-3,-3.201293945E-2
6.257729663E0,2.453613281E-2,-1.144409180E-3,-3.445434570E-2
6.262612476E0,2.514648438E-2,-9.078979492E-3,-3.567504883E-2
6.267495288E0,2.697753906E-2,-1.885986328E-2,-3.933715820E-2
6.272378101E0,2.819824219E-2,-3.169250488E-2,-4.240417480E-2
6.277260913E0,2.880859375E-2,-4.145812988E-2,-4.606628418E-2
6.282143726E0,3.247070312E-2,-5.429077148E-2,-4.850769043E-2
6.287026538E0,3.369140625E-2,-6.222534180E-2,-5.094909668E-2
6.291909351E0,3.369140625E-2,-6.834411621E-2,-5.216979980E-2
6.296761646E0,3.308105469E-2,-6.956481934E-2,-5.216979980E-2
6.301644458E0,3.186035156E-2,-7.078552246E-2,-5.216979980E-2
6.306527271E0,3.186035156E-2,-6.895446777E-2,-5.278015137E-2
6.311410083E0,3.186035156E-2,-6.405639648E-2,-5.216979980E-2
6.316292896E0,3.247070312E-2,-5.856323242E-2,-5.094909668E-2
6.321175708E0,3.308105469E-2,-5.245971680E-2,-5.033874512E-2
6.326058521E0,3.369140625E-2,-4.879760742E-2,-4.972839355E-2
6.330941333E0,3.491210938E-2,-4.513549805E-2,-4.911804199E-2
6.335824146E0,3.675842285E-2,-4.267883301E-2,-4.666137695E-2
6.340706958E0,3.735351562E-2,-4.145812988E-2,-4.850769043E-2
6.345589771E0,3.675842285E-2,-4.267883301E-2,-4.728698730E-2
6.350472583E0,3.491210938E-2,-4.328918457E-2,-4.728698730E-2
6.355355396E0,3.491210938E-2,-4.450988770E-2,-4.666137695E-2
6.360238208E0,3.308105469E-2,-4.450988770E-2,-4.606628418E-2
6.365121021E0,2.880859375E-2,-4.328918457E-2,-4.606628418E-2
6.370003833E0,2.514648438E-2,-4.206848145E-2,-4.544067383E-2
6.374886646E0,2.024841309E-2,-3.901672363E-2,-4.362487793E-2
6.379769458E0,1.538085938E-2,-3.596496582E-2,-4.116821289E-2
6.384652271E0,1.109313965E-2,-3.474426270E-2,-3.933715820E-2
6.389535083E0,8.651733398E-3,-3.169250488E-2,-3.872680664E-2
6.394387378E0,6.820678711E-3,-3.108215332E-2,-3.811645508E-2
6.399270190E0,5.599975586E-3,-2.925109863E-2,-3.750610352E-2
6.404153003E0,6.210327148E-3,-2.740478516E-2,-3.689575195E-2
6.409035815E0,4.989624023E-3,-2.558898926E-2,-3.750610352E-2
6.413918628E0,3.158569336E-3,-2.008056641E-2,-3.750610352E-2
6.418801440E0,1.937866211E-3,-1.397705078E-2,-3.567504883E-2
6.423684253E0,2.548217773E-3,-6.637573242E-3,-3.567504883E-2
6.428567065E0,3.768920898E-3,1.296997070E-3,-3.445434570E-2
6.433449878E0,5.599975586E-3,9.841918945E-3,-3.384399414E-2
6.438332690E0,8.651733398E-3,1.899719238E-2,-3.140258789E-2
6.443215503E0,1.109313965E-2,2.633666992E-2,-2.833557129E-2
6.448098315E0,1.416015625E-2,3.182983398E-2,-2.711486816E-2
6.452981128E0,1.721191406E-2,3.855895996E-2,-2.407836914E-2
6.457863940E0,1.965332031E-2,4.161071777E-2,-2.040100098E-2
6.462746753E0,2.209472656E-2,4.649353027E-2,-1.736450195E-2
6.467629565E0,2.514648438E-2,5.198669434E-2,-1.492309570E-2
6.472512378E0,2.819824219E-2,5.505371094E-2,-1.124572754E-2
6.477395190E0,3.002929688E-2,5.871582031E-2,-1.002502441E-2
6.482278003E0,3.125000000E-2,6.054687500E-2,-7.583618164E-3
6.487130298E0,3.247070312E-2,6.176757812E-2,-4.531860352E-3
6.492013110E0,3.430175781E-2,6.298828125E-2,-3.311157227E-3
6.496895923E0,3.675842285E-2,6.542968750E-2,-8.544921875E-4
6.501778735E0,3.735351562E-2,6.604003906E-2,9.613037109E-4
6.506661548E0,3.797912598E-2,6.726074219E-2,3.662109375E-4
6.511544360E0,3.797912598E-2,6.909179688E-2,3.662109375E-4
6.516427173E0,3.797912598E-2,7.031250000E-2,-2.090454102E-3
6.521309985E0,3.979492188E-2,7.031250000E-2,-4.531860352E-3
6.526192798E0,4.164123535E-2,7.276916504E-2,-7.583618164E-3
6.531075610E0,4.469299316E-2,7.336425781E-2,-1.063537598E-2
6.535958423E0,4.652404785E-2,7.398986816E-2,-1.246643066E-2
6.540841235E0,4.774475098E-2,7.643127441E-2,-1.673889160E-2
6.545724048E0,4.835510254E-2,7.643127441E-2,-1.980590820E-2
6.550606860E0,4.896545410E-2,7.765197754E-2,-2.285766602E-2
6.555489673E0,4.896545410E-2,7.826232910E-2,-2.529907227E-2
6.560372485E0,4.652404785E-2,8.192443848E-2,-2.651977539E-2
6.565255298E0,4.408264160E-2,8.436584473E-2,-2.589416504E-2
6.570138110E0,4.101562500E-2,8.865356445E-2,-2.407836914E-2
6.575020923E0,3.613281250E-2,9.109497070E-2,-2.345275879E-2
6.579903735E0,3.125000000E-2,9.780883789E-2,-2.040100098E-2
6.584756030E0,2.636718750E-2,9.963989258E-2,-1.858520508E-2
6.589638843E0,2.209472656E-2,1.014709473E-1,-1.673889160E-2
6.594521655E0,1.780700684E-2,1.039123535E-1,-1.370239258E-2
6.599404468E0,1.658630371E-2,1.051330566E-1,-1.124572754E-2
6.604287280E0,1.416015625E-2,1.057586670E-1,-1.002502441E-2
6.609170093E0,1.416015625E-2,1.063537598E-1,-6.362915039E-3
6.614052905E0,1.293945312E-2,1.069793701E-1,-3.311157227E-3
6.618935718E0,1.231384277E-2,1.069793701E-1,-8.544921875E-4
6.623818530E0,1.353454590E-2,1.069793701E-1,9.613037109E-4
6.628701343E0,1.538085938E-2,1.075744629E-1,4.028320312E-3
6.633584155E0,1.475524902E-2,1.075744629E-1,5.859375000E-3
6.638466968E0,1.599121094E-2,1.082000732E-1,7.080078125E-3
6.643349780E0,1.599121094E-2,1.063537598E-1,1.013183594E-2
6.648232593E0,1.780700684E-2,1.057586670E-1,1.318359375E-2
6.653115405E0,1.902770996E-2,1.039123535E-1,1.318359375E-2
6.657998218E0,2.024841309E-2,1.026916504E-1,1.379394531E-2
6.662881030E0,2.268981934E-2,1.008605957E-1,1.379394531E-2
6.667763843E0,2.514648438E-2,1.020812988E-1,1.440429688E-2
6.672646655E0,2.697753906E-2,1.051330566E-1,1.440429688E-2
6.677529468E0,2.819824219E-2,1.057586670E-1,1.562500000E-2
6.682381763E0,2.941894531E-2,1.082000732E-1,1.623535156E-2
6.687264575E0,3.125000000E-2,1.100158691E-1,1.623535156E-2
6.692147388E0,3.369140625E-2,1.106414795E-1,1.562500000E-2
6.697030200E0,3.430175781E-2,1.087951660E-1,1.562500000E-2
6.701913013E0,3.552246094E-2,1.075744629E-1,1.379394531E-2
6.706795825E0,3.613281250E-2,1.026916504E-1,1.135253906E-2
6.711678638E0,3.797912598E-2,9.780883789E-2,1.135253906E-2
6.716561450E0,3.552246094E-2,9.109497070E-2,1.135253906E-2
6.721444263E0,3.308105469E-2,8.436584473E-2,8.300781250E-3
6.726327075E0,3.002929688E-2,7.887268066E-2,7.080078125E-3
6.731209888E0,2.697753906E-2,7.336425781E-2,6.469726562E-3
6.736092700E0,2.146911621E-2,6.970214844E-2,5.859375000E-3
6.740975513E0,1.780700684E-2,6.848144531E-2,7.080078125E-3
6.745858325E0,1.475524902E-2,6.665039062E-2,5.249023438E-3
6.750741138E0,1.416015625E-2,6.237792969E-2,2.182006836E-3
6.755623950E0,1.475524902E-2,5.749511719E-2,-2.593994141E-4
6.760506763E0,1.658630371E-2,5.259704590E-2,-2.090454102E-3
6.765389575E0,1.902770996E-2,4.710388184E-2,-5.142211914E-3
6.770272388E0,2.146911621E-2,4.161071777E-2,-8.193969727E-3
6.775124683E0,2.391052246E-2,3.794860840E-2,-1.185607910E-2
6.780007495E0,2.575683594E-2,3.488159180E-2,-1.185607910E-2
6.784890308E0,2.819824219E-2,3.305053711E-2,-1.246643066E-2
6.789773120E0,2.941894531E-2,3.182983398E-2,-1.185607910E-2
6.794655933E0,3.186035156E-2,3.244018555E-2,-1.002502441E-2
6.799538745E0,3.430175781E-2,2.999877930E-2,-8.193969727E-3
6.804421558E0,3.491210938E-2,2.633666992E-2,-6.973266602E-3
6.809304370E0,3.491210938E-2,2.206420898E-2,-5.752563477E-3
6.814187183E0,3.369140625E-2,1.655578613E-2,-2.700805664E-3
6.819069995E0,3.308105469E-2,1.350402832E-2,-1.480102539E-3
6.823952808E0,3.186035156E-2,7.400512695E-3,-8.544921875E-4
6.828835620E0,3.002929688E-2,1.892089844E-3,-2.593994141E-4
6.833718433E0,2.758789062E-2,-4.211425781E-3,-1.480102539E-3
6.838601245E0,2.453613281E-2,-1.092529297E-2,-8.544921875E-4
6.843484058E0,2.209472656E-2,-1.885986328E-2,-4.531860352E-3
6.848366870E0,1.843261719E-2,-2.803039551E-2,-6.973266602E-3
6.853249683E0,1.599121094E-2,-3.169250488E-2,-1.063537598E-2
6.858132495E0,1.231384277E-2,-3.596496582E-2,-1.429748535E-2
6.863015308E0,9.872436523E-3,-3.901672363E-2,-1.795959473E-2
6.867898120E0,5.599975586E-3,-3.840637207E-2,-2.040100098E-2
6.872750415E0,3.768920898E-3,-3.718566895E-2,-2.529907227E-2
6.877633228E0,2.548217773E-3,-3.718566895E-2,-2.711486816E-2
6.882516040E0,1.937866211E-3,-3.413391113E-2,-2.896118164E-2
6.887398853E0,2.548217773E-3,-3.291320801E-2,-3.201293945E-2
6.892281665E0,4.989624023E-3,-3.474426270E-2,-3.384399414E-2
6.897164478E0,8.056640625E-3,-3.840637207E-2,-3.567504883E-2
6.902047290E0,1.416015625E-2,-4.328918457E-2,-3.750610352E-2
6.906930103E0,2.024841309E-2,-4.879760742E-2,-3.811645508E-2
6.911812915E0,2.391052246E-2,-5.429077148E-2,-3.811645508E-2
6.916695728E0,2.819824219E-2,-5.856323242E-2,-3.811645508E-2
6.921578540E0,3.125000000E-2,-6.039428711E-2,-3.689575195E-2
6.926461353E0,3.125000000E-2,-6.161499023E-2,-3.445434570E-2
6.931344165E0,3.247070312E-2,-6.100463867E-2,-3.323364258E-2
6.936226978E0,3.247070312E-2,-5.978393555E-2,-3.079223633E-2
6.941109790E0,3.308105469E-2,-5.917358398E-2,-2.896118164E-2
6.945992603E0,3.247070312E-2,-5.673217773E-2,-2.651977539E-2
6.950875415E0,3.125000000E-2,-5.490112305E-2,-2.407836914E-2
6.955758228E0,2.941894531E-2,-5.062866211E-2,-2.223205566E-2
6.960641040E0,2.575683594E-2,-4.818725586E-2,-2.102661133E-2
6.965523853E0,2.209472656E-2,-4.513549805E-2,-2.102661133E-2
6.970376148E0,1.965332031E-2,-4.328918457E-2,-2.162170410E-2
6.975258960E0,1.843261719E-2,-4.389953613E-2,-2.345275879E-2
6.980141773E0,1.658630371E-2,-4.389953613E-2,-2.407836914E-2
6.985024585E0,1.475524902E-2,-4.635620117E-2,-2.589416504E-2
6.989907398E0,1.416015625E-2,-4.940795898E-2,-2.955627441E-2
6.994790210E0,1.293945312E-2,-5.307006836E-2,-3.262329102E-2
6.999673023E0,1.231384277E-2,-5.917358398E-2,-3.689575195E-2
7.004555835E0,1.109313965E-2,-6.405639648E-2,-3.933715820E-2
7.009438648E0,8.056640625E-3,-6.529235840E-2,-4.299926758E-2
7.014321460E0,4.989624023E-3,-6.651306152E-2,-4.362487793E-2
7.019204273E0,3.158569336E-3,-6.651306152E-2,-4.484558105E-2
7.024087085E0,1.327514648E-3,-6.222534180E-2,-4.484558105E-2
7.028969898E0,1.327514648E-3,-5.978393555E-2,-4.544067383E-2
7.033852710E0,3.158569336E-3,-5.917358398E-2,-4.544067383E-2
7.038735523E0,5.599975586E-3,-5.551147461E-2,-4.299926758E-2
7.043618335E0,9.872436523E-3,-5.307006836E-2,-4.116821289E-2
7.048501148E0,1.416015625E-2,-4.879760742E-2,-4.055786133E-2
7.053383960E0,2.024841309E-2,-4.389953613E-2,-3.750610352E-2
7.058266773E0,2.575683594E-2,-3.962707520E-2,-3.628540039E-2
7.063149585E0,3.125000000E-2,-3.413391113E-2,-3.323364258E-2
7.068001880E0,3.369140625E-2,-3.047180176E-2,-3.201293945E-2
7.072884692E0,3.552246094E-2,-2.925109863E-2,-3.201293945E-2
7.077767505E0,3.491210938E-2,-2.803039551E-2,-3.018188477E-2
7.082650317E0,3.247070312E-2,-2.496337891E-2,-2.833557129E-2
7.087533130E0,3.063964844E-2,-2.435302734E-2,-2.833557129E-2
7.092415942E0,2.819824219E-2,-2.558898926E-2,-2.774047852E-2
7.097298755E0,2.514648438E-2,-2.558898926E-2,-2.529907227E-2
7.102181567E0,2.209472656E-2,-2.680969238E-2,-2.529907227E-2
7.107064380E0,1.843261719E-2,-2.925109863E-2,-2.467346191E-2
7.111947192E0,1.599121094E-2,-3.291320801E-2,-2.285766602E-2
7.116830005E0,1.538085938E-2,-3.901672363E-2,-2.285766602E-2
7.121712817E0,1.599121094E-2,-4.145812988E-2,-2.345275879E-2
7.126595630E0,1.538085938E-2,-4.084777832E-2,-2.223205566E-2
7.131478442E0,1.658630371E-2,-4.023742676E-2,-2.162170410E-2
7.136361255E0,1.599121094E-2,-3.840637207E-2,-2.040100098E-2
7.141244067E0,1.599121094E-2,-3.535461426E-2,-2.162170410E-2
7.146126880E0,1.721191406E-2,-3.291320801E-2,-1.918029785E-2
7.151009692E0,1.658630371E-2,-2.803039551E-2,-1.858520508E-2
7.155892505E0,1.843261719E-2,-2.313232422E-2,-1.858520508E-2
7.160775317E0,1.721191406E-2,-1.641845703E-2,-1.795959473E-2
7.165627612E0,1.658630371E-2,-1.092529297E-2,-1.858520508E-2
7.170510425E0,1.475524902E-2,-4.806518555E-3,-1.736450195E-2
7.175393237E0,1.599121094E-2,6.713867188E-4,-1.551818848E-2
7.180276050E0,1.538085938E-2,6.179809570E-3,-1.429748535E-2
7.185158862E0,1.538085938E-2,9.841918945E-3,-1.307678223E-2
7.190041675E0,1.538085938E-2,1.167297363E-2,-1.063537598E-2
7.194924487E0,1.293945312E-2,1.167297363E-2,-9.414672852E-3
7.199807300E0,9.872436523E-3,9.841918945E-3,-9.414672852E-3
7.204690112E0,7.431030273E-3,4.959106445E-3,-8.804321289E-3
7.209572925E0,3.768920898E-3,1.296997070E-3,-6.973266602E-3
7.214455737E0,-5.035400391E-4,-3.585815430E-3,-5.752563477E-3
7.219338550E0,-4.791259766E-3,-9.704589844E-3,-5.142211914E-3
7.224221362E0,-7.827758789E-3,-1.274108887E-2,-6.973266602E-3
7.229104175E0,-9.674072266E-3,-1.397705078E-2,-7.583618164E-3
7.233986987E0,-1.028442383E-2,-1.397705078E-2,-8.804321289E-3
7.238869800E0,-1.089477539E-2,-1.152038574E-2,-1.002502441E-2
7.243752612E0,-9.674072266E-3,-6.637573242E-3,-9.414672852E-3
7.248635425E0,-8.453369141E-3,-1.770019531E-3,-9.414672852E-3
7.253518237E0,-4.791259766E-3,4.959106445E-3,-8.193969727E-3
7.258401050E0,-2.944946289E-3,1.228332520E-2,-8.193969727E-3
7.263253345E0,1.068115234E-4,2.021789551E-2,-5.752563477E-3
7.268136157E0,3.158569336E-3,2.877807617E-2,-5.752563477E-3
7.273018970E0,7.431030273E-3,3.855895996E-2,-3.311157227E-3
7.277901782E0,1.171875000E-2,4.710388184E-2,-2.593994141E-4
7.282784595E0,1.658630371E-2,5.566406250E-2,2.182006836E-3
7.287667407E0,2.331542969E-2,6.359863281E-2,5.859375000E-3
7.292550220E0,3.002929688E-2,7.031250000E-2,8.300781250E-3
7.297433032E0,3.735351562E-2,7.765197754E-2,1.135253906E-2
7.302315845E0,4.469299316E-2,8.497619629E-2,1.318359375E-2
7.307198657E0,5.140686035E-2,9.169006348E-2,1.684570312E-2
7.312081470E0,6.118774414E-2,1.008605957E-1,1.928710938E-2
7.316964282E0,6.912231445E-2,1.106414795E-1,2.235412598E-2
7.321847095E0,7.768249512E-2,1.222381592E-1,2.601623535E-2
7.326729907E0,8.561706543E-2,1.356811523E-1,3.334045410E-2
7.331612720E0,9.294128418E-2,1.521759033E-1,3.884887695E-2
7.336495532E0,9.539794922E-2,1.662292480E-1,4.861450195E-2
7.341378345E0,8.988952637E-2,1.802825928E-1,6.449890137E-2
7.346261157E0,7.461547852E-2,1.955413818E-1,8.587646484E-2
7.351143970E0,4.835510254E-2,2.059326172E-1,1.011505127E-1
7.355996265E0,2.331542969E-2,2.059326172E-1,1.066436768E-1
7.360879077E0,7.431030273E-3,1.900482178E-1,9.992980957E-2
7.365761890E0,1.937866211E-3,1.631774902E-1,9.016418457E-2
7.370644702E0,1.937866211E-3,1.301879883E-1,7.794189453E-2
7.375527515E0,5.599975586E-3,1.051330566E-1,6.999206543E-2
7.380410327E0,6.210327148E-3,9.413146973E-2,6.449890137E-2
7.385293140E0,1.327514648E-3,9.841918945E-2,6.144714355E-2
7.390175952E0,-6.607055664E-3,1.173553467E-1,5.961608887E-2
7.395058765E0,-1.638793945E-2,1.454467773E-1,6.144714355E-2
7.399941577E0,-2.371215820E-2,1.796569824E-1,6.327819824E-2
7.404824390E0,-2.861022949E-2,2.144775391E-1,6.816101074E-2
7.409707202E0,-3.166198730E-2,2.419738770E-1,7.365417480E-2
7.414590015E0,-3.105163574E-2,2.651824951E-1,8.038330078E-2
7.419472827E0,-2.983093262E-2,2.810668945E-1,8.770751953E-2
7.424355640E0,-2.799987793E-2,2.957305908E-1,9.686279297E-2
7.429238452E0,-2.371215820E-2,3.110046387E-1,1.042022705E-1
7.434121265E0,-1.943969727E-2,3.287200928E-1,1.139678955E-1
7.439004077E0,-1.455688477E-2,3.458251953E-1,1.237487793E-1
7.443886890E0,-7.827758789E-3,3.623199463E-1,1.335296631E-1
7.448769702E0,7.171630859E-4,3.800354004E-1,1.414794922E-1
7.453621997E0,9.277343750E-3,3.965301514E-1,1.488037109E-1
7.458504810E0,1.721191406E-2,4.130096436E-1,1.555175781E-1
7.463387622E0,2.453613281E-2,4.301147461E-1,1.604003906E-1
7.468270435E0,3.186035156E-2,4.496612549E-1,1.665191650E-1
7.473153247E0,3.797912598E-2,4.698333740E-1,1.720123291E-1
7.478036060E0,4.469299316E-2,4.942626953E-1,1.781158447E-1
7.482918872E0,5.079650879E-2,5.180816650E-1,1.854553223E-1
7.487801685E0,5.690002441E-2,5.431365967E-1,1.940002441E-1
7.492684497E0,6.423950195E-2,5.693969727E-1,2.037811279E-1
7.497567310E0,7.217407227E-2,5.950622559E-1,2.153778076E-1
7.502450122E0,7.951354980E-2,6.182708740E-1,2.288208008E-1
7.507332935E0,8.439636230E-2,6.408691406E-1,2.410430908E-1
7.512215747E0,8.866882324E-2,6.628570557E-1,2.538604736E-1
7.517098560E0,9.049987793E-2,6.817932129E-1,2.660827637E-1
7.521981372E0,9.111022949E-2,6.964569092E-1,2.764739990E-1
7.526864185E0,8.927917480E-2,7.098999023E-1,2.850341797E-1
7.531746997E0,8.561706543E-2,7.208862305E-1,2.947998047E-1
7.536629810E0,7.829284668E-2,7.300567627E-1,3.021240234E-1
7.541512622E0,7.095336914E-2,7.373962402E-1,3.088378906E-1
7.546395435E0,6.484985352E-2,7.398376465E-1,3.076171875E-1
7.551247730E0,6.057739258E-2,7.410583496E-1,3.033447266E-1
7.556130542E0,6.057739258E-2,7.392120361E-1,2.947998047E-1
7.561013355E0,6.240844727E-2,7.386169434E-1,2.880706787E-1
7.565896167E0,6.729125977E-2,7.410583496E-1,2.825775146E-1
7.570778980E0,7.095336914E-2,7.502136230E-1,2.795257568E-1
7.575661792E0,7.829284668E-2,7.593841553E-1,2.776947021E-1
7.580544605E0,8.561706543E-2,7.758789062E-1,2.776947021E-1
7.585427417E0,8.805847168E-2,8.009185791E-1,2.776947021E-1
7.590310230E0,8.866882324E-2,8.241271973E-1,2.789154053E-1
7.595193042E0,8.927917480E-2,8.461151123E-1,2.789154053E-1
7.600075855E0,8.805847168E-2,8.668823242E-1,2.795257568E-1
7.604958667E0,8.500671387E-2,8.821716309E-1,2.807464600E-1
7.609841480E0,7.951354980E-2,8.949890137E-1,2.838134766E-1
7.614724292E0,7.156372070E-2,9.053802490E-1,2.892913818E-1
7.619607105E0,6.484985352E-2,9.139404297E-1,2.923583984E-1
7.624489917E0,5.874633789E-2,9.206542969E-1,2.966308594E-1
7.629372730E0,5.140686035E-2,9.255371094E-1,3.027343750E-1
7.634255542E0,4.591369629E-2,9.328613281E-1,3.082427979E-1
7.639138355E0,3.979492188E-2,9.402008057E-1,3.143463135E-1
7.643990649E0,3.613281250E-2,9.463043213E-1,3.192291260E-1
7.648873462E0,3.491210938E-2,9.524078369E-1,3.235015869E-1
7.653756274E0,3.735351562E-2,9.573059082E-1,3.265686035E-1
7.658639087E0,3.979492188E-2,9.615783691E-1,3.296203613E-1
7.663521899E0,4.713439941E-2,9.664611816E-1,3.314514160E-1
7.668404712E0,5.630493164E-2,9.719696045E-1,3.308410645E-1
7.673287524E0,6.607055664E-2,9.786834717E-1,3.326721191E-1
7.678170337E0,7.646179199E-2,9.847869873E-1,3.338928223E-1
7.683053149E0,8.561706543E-2,9.939575195E-1,3.351135254E-1
7.687935962E0,9.416198730E-2,9.994506836E-1,3.332824707E-1
7.692818774E0,1.015014648E-1,1.003723145E0,3.338928223E-1
7.697701587E0,1.063842773E-1,1.004959106E0,3.332824707E-1
7.702584399E0,1.100463867E-1,1.005554199E0,3.320617676E-1
7.707467212E0,1.149291992E-1,1.005554199E0,3.302307129E-1
7.712350024E0,1.204376221E-1,1.003723145E0,3.277893066E-1
7.717232837E0,1.253204346E-1,1.003112793E0,3.265686035E-1
7.722115649E0,1.302185059E-1,1.001281738E0,3.235015869E-1
7.726998462E0,1.332550049E-1,9.957885742E-1,3.198394775E-1
7.731881274E0,1.369323730E-1,9.927368164E-1,3.173980713E-1
7.736764087E0,1.387634277E-1,9.945678711E-1,3.131256104E-1
7.741616382E0,1.387634277E-1,9.921264648E-1,3.088378906E-1
7.746499194E0,1.381530762E-1,9.902954102E-1,3.063964844E-1
7.751382007E0,1.351013184E-1,9.866180420E-1,3.021240234E-1
7.756264819E0,1.320343018E-1,9.829559326E-1,3.002929688E-1
7.761147632E0,1.277770996E-1,9.799041748E-1,2.984619141E-1
7.766030444E0,1.222686768E-1,9.731903076E-1,2.966308594E-1
7.770913257E0,1.149291992E-1,9.652404785E-1,2.960205078E-1
7.775796069E0,1.076049805E-1,9.579162598E-1,2.947998047E-1
7.780678882E0,1.008911133E-1,9.493560791E-1,2.923583984E-1
7.785561694E0,9.722900391E-2,9.383697510E-1,2.886962891E-1
7.790444507E0,9.539794922E-2,9.255371094E-1,2.825775146E-1
7.795327319E0,9.416198730E-2,9.108734131E-1,2.746276855E-1
7.800210132E0,9.356689453E-2,8.925476074E-1,2.679290771E-1
7.805092944E0,9.356689453E-2,8.736114502E-1,2.599792480E-1
7.809975757E0,9.356689453E-2,8.571166992E-1,2.526397705E-1
7.814858569E0,9.234619141E-2,8.412322998E-1,2.453155518E-1
7.819741382E0,8.683776855E-2,8.253479004E-1,2.386016846E-1
7.824624194E0,8.256530762E-2,8.155822754E-1,2.330932617E-1
7.829507007E0,8.073425293E-2,8.076324463E-1,2.282104492E-1
7.834359302E0,7.707214355E-2,8.027496338E-1,2.263793945E-1
7.839242114E0,7.339477539E-2,7.960357666E-1,2.214965820E-1
7.844124927E0,6.790161133E-2,7.887115479E-1,2.202758789E-1
7.849007739E0,6.301879883E-2,7.832031250E-1,2.178344727E-1
7.853890552E0,5.812072754E-2,7.789306641E-1,2.166137695E-1
7.858773364E0,5.140686035E-2,7.722015381E-1,2.153778076E-1
7.863656177E0,4.652404785E-2,7.636566162E-1,2.141571045E-1
7.868538989E0,4.042053223E-2,7.557220459E-1,2.098846436E-1
7.873421802E0,3.369140625E-2,7.459411621E-1,2.068328857E-1
7.878304614E0,2.697753906E-2,7.331085205E-1,2.007293701E-1
7.883187427E0,2.209472656E-2,7.129516602E-1,1.940002441E-1
7.888070239E0,1.721191406E-2,6.927947998E-1,1.897277832E-1
7.892953052E0,1.231384277E-2,6.744689941E-1,1.836242676E-1
7.897835864E0,5.599975586E-3,6.524810791E-1,1.775054932E-1
7.902718677E0,-1.724243164E-3,6.323242188E-1,1.695709229E-1
7.907601489E0,-9.674072266E-3,6.133880615E-1,1.634674072E-1
7.912484302E0,-1.699829102E-2,5.938415527E-1,1.567382812E-1
7.917367114E0,-2.371215820E-2,5.742950439E-1,1.494140625E-1
7.922249927E0,-3.105163574E-2,5.547332764E-1,1.427001953E-1
7.927132739E0,-3.715515137E-2,5.333557129E-1,1.359710693E-1
7.931985034E0,-4.203796387E-2,5.101470947E-1,1.274108887E-1
7.936867847E0,-4.449462891E-2,4.832763672E-1,1.188659668E-1
7.941750659E0,-4.632568359E-2,4.576110840E-1,1.133728027E-1
7.946633472E0,-4.693603516E-2,4.325561523E-1,1.048126221E-1
7.951516284E0,-4.571533203E-2,4.056854248E-1,9.870910645E-2
7.956399097E0,-4.203796387E-2,3.769836426E-1,9.016418457E-2
7.961281909E0,-3.715515137E-2,3.458251953E-1,8.404541016E-2
7.966164722E0,-3.044128418E-2,3.134460449E-1,7.794189453E-2
7.971047534E0,-2.066040039E-2,2.786254883E-1,7.243347168E-2
7.975930347E0,-9.674072266E-3,2.431945801E-1,6.938171387E-2
7.980813159E0,6.820678711E-3,2.102050781E-1,6.510925293E-2
7.985695972E0,2.268981934E-2,1.821136475E-1,6.083679199E-2
7.990578784E0,3.735351562E-2,1.558380127E-1,5.595397949E-2
7.995461597E0,4.835510254E-2,1.381225586E-1,5.288696289E-2
8.000344409E0,5.384826660E-2,1.234588623E-1,5.105590820E-2
8.005227222E0,5.384826660E-2,1.082000732E-1,4.617309570E-2
8.010110034E0,5.201721191E-2,9.475708008E-2,4.190063477E-2
8.014992847E0,4.652404785E-2,8.070373535E-2,3.761291504E-2
8.019875659E0,3.797912598E-2,6.542968750E-2,3.211975098E-2
8.024758472E0,2.697753906E-2,4.710388184E-2,2.601623535E-2
8.029610767E0,1.721191406E-2,3.488159180E-2,1.928710938E-2
8.034493579E0,7.431030273E-3,2.450561523E-2,1.379394531E-2
8.039376392E0,-2.944946289E-3,8.621215820E-3,1.379394531E-2
8.044259204E0,-1.150512695E-2,-7.858276367E-3,9.521484375E-3
8.049142017E0,-1.943969727E-2,-2.191162109E-2,4.028320312E-3
8.054024829E0,-2.433776855E-2,-3.596496582E-2,-1.480102539E-3
8.058907642E0,-2.799987793E-2,-5.368041992E-2,-6.973266602E-3
8.063790454E0,-3.227233887E-2,-7.200622559E-2,-1.370239258E-2
8.068673267E0,-3.593444824E-2,-9.399414062E-2,-1.918029785E-2
8.073556079E0,-4.020690918E-2,-1.184234619E-1,-2.651977539E-2
8.078438892E0,-4.571533203E-2,-1.416473389E-1,-3.628540039E-2
8.083321704E0,-4.937744141E-2,-1.691436768E-1,-4.972839355E-2
8.088204517E0,-4.998779297E-2,-1.972351074E-1,-6.195068359E-2
8.093087329E0,-5.120849609E-2,-2.198333740E-1,-7.415771484E-2
8.097970142E0,-5.120849609E-2,-2.436523438E-1,-8.638000488E-2
8.102852954E0,-5.120849609E-2,-2.674865723E-1,-9.675598145E-2
8.107735767E0,-5.303955078E-2,-2.888641357E-1,-1.053161621E-1
8.112618579E0,-5.426025391E-2,-3.102416992E-1,-1.138610840E-1
8.117501392E0,-5.792236328E-2,-3.340606689E-1,-1.212005615E-1
8.122353687E0,-6.159973145E-2,-3.603363037E-1,-1.273040771E-1
8.127236499E0,-6.648254395E-2,-3.872070312E-1,-1.346435547E-1
8.132119312E0,-6.831359863E-2,-4.165344238E-1,-1.419677734E-1
8.137002124E0,-7.197570801E-2,-4.476928711E-1,-1.486816406E-1
8.141884937E0,-7.197570801E-2,-4.794616699E-1,-1.547851562E-1
8.146767749E0,-6.892395020E-2,-5.081634521E-1,-1.602935791E-1
8.151650562E0,-6.343078613E-2,-5.295410156E-1,-1.633453369E-1
8.156533374E0,-5.731201172E-2,-5.490875244E-1,-1.688537598E-1
8.161416187E0,-4.998779297E-2,-5.637512207E-1,-1.761779785E-1
8.166298999E0,-4.203796387E-2,-5.808563232E-1,-1.841125488E-1
8.171181812E0,-3.654479980E-2,-5.998077393E-1,-1.938934326E-1
8.176064624E0,-3.349304199E-2,-6.230163574E-1,-2.048797607E-1
8.180947437E0,-3.349304199E-2,-6.468353271E-1,-2.146606445E-1
8.185830249E0,-3.532409668E-2,-6.718750000E-1,-2.244262695E-1
8.190713062E0,-3.898620605E-2,-6.938629150E-1,-2.348175049E-1
8.195595874E0,-4.571533203E-2,-7.158660889E-1,-2.445983887E-1
8.200478687E0,-5.364990234E-2,-7.384643555E-1,-2.574157715E-1
8.205361499E0,-5.914306641E-2,-7.604675293E-1,-2.690277100E-1
8.210244312E0,-6.587219238E-2,-7.812347412E-1,-2.800140381E-1
8.215127124E0,-7.136535645E-2,-8.001556396E-1,-2.928466797E-1
8.219979419E0,-7.870483398E-2,-8.135986328E-1,-3.032379150E-1
8.224862231E0,-8.786010742E-2,-8.221588135E-1,-3.117828369E-1
8.229745044E0,-1.000671387E-1,-8.307037354E-1,-3.185119629E-1
8.234627856E0,-1.110687256E-1,-8.392639160E-1,-3.252258301E-1
8.239510669E0,-1.257324219E-1,-8.441467285E-1,-3.319549561E-1
8.244393481E0,-1.464996338E-1,-8.429260254E-1,-3.380584717E-1
8.249276294E0,-1.727752686E-1,-8.343658447E-1,-3.429412842E-1
8.254159106E0,-2.033081055E-1,-8.270416260E-1,-3.472137451E-1
8.259041919E0,-2.344665527E-1,-8.221588135E-1,-3.490600586E-1
8.263924731E0,-2.607269287E-1,-8.221588135E-1,-3.508758545E-1
8.268807544E0,-2.802734375E-1,-8.227691650E-1,-3.551635742E-1
8.273690356E0,-2.955627441E-1,-8.246002197E-1,-3.600463867E-1
8.278573169E0,-3.047180176E-1,-8.398742676E-1,-3.600463867E-1
8.283455981E0,-3.096008301E-1,-8.575897217E-1,-3.588256836E-1
8.288338794E0,-3.108215332E-1,-8.740692139E-1,-3.508758545E-1
8.293221606E0,-3.059387207E-1,-8.911743164E-1,-3.362274170E-1
8.298104419E0,-2.992248535E-1,-9.009552002E-1,-3.221740723E-1
8.302987231E0,-2.894439697E-1,-9.027862549E-1,-3.056793213E-1
8.307870044E0,-2.760162354E-1,-8.985137939E-1,-2.897949219E-1
8.312752856E0,-2.625732422E-1,-8.899536133E-1,-2.733001709E-1
8.317605151E0,-2.472991943E-1,-8.814086914E-1,-2.580261230E-1
8.322487964E0,-2.314147949E-1,-8.740692139E-1,-2.452087402E-1
8.327370776E0,-2.100372314E-1,-8.655242920E-1,-2.329864502E-1
8.332253589E0,-1.868133545E-1,-8.582000732E-1,-2.225952148E-1
8.337136401E0,-1.605529785E-1,-8.533020020E-1,-2.109985352E-1
8.342019214E0,-1.342773438E-1,-8.484191895E-1,-1.969451904E-1
8.346902026E0,-1.037445068E-1,-8.502502441E-1,-1.847381592E-1
8.351784839E0,-7.197570801E-2,-8.557434082E-1,-1.712951660E-1
8.356667651E0,-4.081726074E-2,-8.649139404E-1,-1.584625244E-1
8.361550464E0,-8.453369141E-3,-8.716278076E-1,-1.486816406E-1
8.366433276E0,2.024841309E-2,-8.777465820E-1,-1.389007568E-1
8.371316089E0,4.652404785E-2,-8.807983398E-1,-1.303558350E-1
8.376198901E0,6.912231445E-2,-8.820190430E-1,-1.224212646E-1
8.381081714E0,8.866882324E-2,-8.765106201E-1,-1.163177490E-1
8.385964526E0,1.063842773E-1,-8.710327148E-1,-1.114196777E-1
8.390847339E0,1.216583252E-1,-8.643035889E-1,-1.089782715E-1
8.395730151E0,1.344757080E-1,-8.539276123E-1,-1.071472168E-1
8.400612964E0,1.461029053E-1,-8.429260254E-1,-1.065368652E-1
8.405495776E0,1.570892334E-1,-8.276519775E-1,-1.071472168E-1
8.410378589E0,1.668701172E-1,-8.123779297E-1,-1.108093262E-1
8.415230884E0,1.741943359E-1,-7.910003662E-1,-1.138610840E-1
8.420113696E0,1.772460938E-1,-7.677917480E-1,-1.175384521E-1
8.424996509E0,1.760253906E-1,-7.396850586E-1,-1.212005615E-1
8.429879321E0,1.717529297E-1,-7.140350342E-1,-1.254730225E-1
8.434762134E0,1.632080078E-1,-6.816558838E-1,-1.242523193E-1
8.439644946E0,1.509857178E-1,-6.394958496E-1,-1.260833740E-1
8.444527759E0,1.320343018E-1,-5.857391357E-1,-1.260833740E-1
8.449410571E0,1.057739258E-1,-5.209960938E-1,-1.242523193E-1
8.454293384E0,7.156372070E-2,-4.574737549E-1,-1.212005615E-1
8.459176196E0,3.430175781E-2,-3.975982666E-1,-1.169128418E-1
8.464059009E0,1.327514648E-3,-3.407897949E-1,-1.101989746E-1
8.468941821E0,-2.677917480E-2,-2.894744873E-1,-1.047058105E-1
8.473824634E0,-4.571533203E-2,-2.448730469E-1,-9.921264648E-2
8.478707446E0,-5.426025391E-2,-2.094573975E-1,-9.492492676E-2
8.483590259E0,-5.181884766E-2,-1.801300049E-1,-9.309387207E-2
8.488473071E0,-4.081726074E-2,-1.575317383E-1,-9.431457520E-2
8.493355884E0,-2.371215820E-2,-1.422576904E-1,-9.858703613E-2
8.498238696E0,-2.334594727E-3,-1.312561035E-1,-1.022644043E-1
8.503121509E0,2.087402344E-2,-1.220855713E-1,-1.083679199E-1
8.508004321E0,4.225158691E-2,-1.172027588E-1,-1.181335449E-1
8.512856616E0,5.874633789E-2,-1.159820557E-1,-1.291351318E-1
8.517739429E0,7.095336914E-2,-1.178283691E-1,-1.401214600E-1
8.522622241E0,7.646179199E-2,-1.220855713E-1,-1.517486572E-1
8.527505054E0,7.829284668E-2,-1.282043457E-1,-1.627349854E-1
8.532387866E0,7.829284668E-2,-1.324920654E-1,-1.725158691E-1
8.537270679E0,7.707214355E-2,-1.373748779E-1,-1.755676270E-1
8.542153491E0,7.951354980E-2,-1.428680420E-1,-1.743469238E-1
8.547036304E0,8.012390137E-2,-1.465301514E-1,-1.664123535E-1
8.551919116E0,8.256530762E-2,-1.434783936E-1,-1.547851562E-1
8.556801929E0,8.561706543E-2,-1.306457520E-1,-1.383056641E-1
8.561684741E0,8.622741699E-2,-1.037597656E-1,-1.193542480E-1
8.566567554E0,8.927917480E-2,-7.078552246E-2,-9.980773926E-2
8.571450366E0,9.478759766E-2,-3.169250488E-2,-7.659912109E-2
8.576333179E0,9.967041016E-2,3.738403320E-3,-5.400085449E-2
8.581215991E0,1.088256836E-1,3.305053711E-2,-3.262329102E-2
8.586098804E0,1.210479736E-1,5.381774902E-2,-1.858520508E-2
8.590981616E0,1.381530762E-1,6.604003906E-2,-7.583618164E-3
8.595864429E0,1.583099365E-1,7.398986816E-2,-3.311157227E-3
8.600747241E0,1.790924072E-1,8.070373535E-2,-7.583618164E-3
8.605599536E0,1.992340088E-1,8.558654785E-2,-1.551818848E-2
8.610482349E0,2.151184082E-1,8.865356445E-2,-3.201293945E-2
8.615365161E0,2.285614014E-1,8.741760254E-2,-5.094909668E-2
8.620247974E0,2.383422852E-1,8.375549316E-2,-7.049560547E-2
8.625130786E0,2.420043945E-1,7.521057129E-2,-9.065246582E-2
8.630013599E0,2.383422852E-1,6.787109375E-2,-1.101989746E-1
8.634896411E0,2.261199951E-1,6.054687500E-2,-1.303558350E-1
8.639779224E0,2.053527832E-1,5.137634277E-2,-1.499023438E-1
8.644662036E0,1.790924072E-1,3.977966309E-2,-1.670074463E-1
8.649544849E0,1.466979980E-1,3.121948242E-2,-1.810607910E-1
8.654427661E0,1.112670898E-1,1.777648926E-2,-1.932830811E-1
8.659310474E0,7.461547852E-2,7.629394531E-5,-2.018280029E-1
8.664193286E0,3.797912598E-2,-1.397705078E-2,-2.085571289E-1
8.669076099E0,3.768920898E-3,-2.496337891E-2,-2.140502930E-1
8.673958911E0,-3.166198730E-2,-2.925109863E-2,-2.213745117E-1
8.678841724E0,-6.159973145E-2,-2.862548828E-2,-2.274932861E-1
8.683724536E0,-8.969116211E-2,-2.435302734E-2,-2.342071533E-1
8.688607349E0,-1.183929443E-1,-1.702880859E-2,-2.439880371E-1
8.693490161E0,-1.446685791E-1,-5.416870117E-3,-2.513122559E-1
8.698372974E0,-1.746063232E-1,1.228332520E-2,-2.586364746E-1
8.703225269E0,-2.069854736E-1,3.672790527E-2,-2.659759521E-1
8.708108081E0,-2.424011230E-1,6.176757812E-2,-2.769775391E-1
8.712990894E0,-2.815093994E-1,8.680725098E-2,-2.940826416E-1
8.717873706E0,-3.144836426E-1,1.014709473E-1,-3.093414307E-1
8.722756519E0,-3.364868164E-1,9.536743164E-2,-3.246154785E-1
8.727639331E0,-3.401489258E-1,6.115722656E-2,-3.368377686E-1
8.732522144E0,-3.224334717E-1,-1.770019531E-3,-3.508758545E-1
8.737404956E0,-3.004455566E-1,-7.200622559E-2,-3.679809570E-1
8.742287769E0,-2.790527344E-1,-1.306457520E-1,-3.826446533E-1
8.747170581E0,-2.644042969E-1,-1.721801758E-1,-3.856964111E-1
8.752053394E0,-2.552337646E-1,-2.057800293E-1,-3.624877930E-1
8.756936206E0,-2.534027100E-1,-2.277832031E-1,-3.191223145E-1
8.761819019E0,-2.558441162E-1,-2.320556641E-1,-2.671966553E-1
8.766701831E0,-2.582855225E-1,-2.228851318E-1,-2.146606445E-1
8.771584644E0,-2.552337646E-1,-2.088470459E-1,-1.657867432E-1
8.776467456E0,-2.448425293E-1,-1.917419434E-1,-1.273040771E-1
8.781350269E0,-2.320251465E-1,-1.728057861E-1,-9.431457520E-2
8.786233081E0,-2.191925049E-1,-1.526336670E-1,-6.254577637E-2
8.791115894E0,-2.057495117E-1,-1.355285645E-1,-3.201293945E-2
8.795998706E0,-1.813201904E-1,-1.355285645E-1,-3.311157227E-3
8.800851001E0,-1.403961182E-1,-1.672973633E-1,1.318359375E-2
8.805733814E0,-9.091186523E-2,-2.222747803E-1,2.174377441E-2
8.810616626E0,-4.020690918E-2,-2.864227295E-1,2.540588379E-2
8.815499439E0,7.431030273E-3,-3.603363037E-1,2.723693848E-2
8.820382251E0,4.896545410E-2,-4.385223389E-1,2.418518066E-2
8.825265064E0,8.134460449E-2,-5.234375000E-1,2.050781250E-2
8.830147876E0,1.015014648E-1,-6.016235352E-1,1.501464844E-2
8.835030689E0,1.051635742E-1,-6.651611328E-1,8.911132812E-3
8.839913501E0,9.294128418E-2,-7.146301270E-1,7.080078125E-3
8.844796314E0,5.996704102E-2,-7.415161133E-1,2.182006836E-3
8.849679126E0,8.056640625E-3,-7.439575195E-1,4.028320312E-3
8.854561939E0,-5.303955078E-2,-7.341766357E-1,1.013183594E-2
8.859444751E0,-1.141357422E-1,-7.189178467E-1,1.562500000E-2
8.864327564E0,-1.752166748E-1,-7.103729248E-1,2.050781250E-2
8.869210376E0,-2.399597168E-1,-6.987609863E-1,3.150939941E-2
8.874093189E0,-3.041076660E-1,-6.816558838E-1,5.288696289E-2
8.878976001E0,-3.535919189E-1,-6.669921875E-1,8.770751953E-2
8.883858814E0,-3.871765137E-1,-6.462249756E-1,1.237487793E-1
8.888741626E0,-4.049072266E-1,-6.187286377E-1,1.579589844E-1
8.893624439E0,-4.030609131E-1,-5.900268555E-1,1.842346191E-1
8.898476733E0,-3.853607178E-1,-5.442047119E-1,2.037811279E-1
8.903359546E0,-3.578643799E-1,-4.812927246E-1,2.123260498E-1
8.908242358E0,-3.303680420E-1,-4.049377441E-1,2.098846436E-1
8.913125171E0,-3.028869629E-1,-3.450622559E-1,1.903381348E-1
8.918007983E0,-2.576904297E-1,-3.230743408E-1,1.500244141E-1
8.922890796E0,-2.698974609E-1,-2.210540771E-1,7.365417480E-2
8.927773608E0,-3.456420898E-1,-1.062164307E-1,-3.567504883E-2
8.932656421E0,-4.586639404E-1,-2.925109863E-2,-1.560058594E-1
8.937539233E0,-5.722808838E-1,1.840209961E-2,-2.800140381E-1
8.942422046E0,-6.327514648E-1,2.999877930E-2,-3.973083496E-1
8.947304858E0,-6.040496826E-1,2.206420898E-2,-4.932098389E-1
8.952187671E0,-4.928741455E-1,2.572631836E-2,-5.512542725E-1
8.957070483E0,-3.224334717E-1,2.206420898E-2,-5.775146484E-1
8.961953296E0,-1.153564453E-1,-6.042480469E-3,-5.817871094E-1
8.966836108E0,8.744812012E-2,-4.084777832E-2,-5.903472900E-1
8.971718921E0,2.560424805E-1,-5.673217773E-2,-6.013336182E-1
8.976601733E0,3.880004883E-1,-6.651306152E-2,-5.964508057E-1
8.981484546E0,4.747467041E-1,-6.161499023E-2,-5.756835938E-1
8.986367358E0,4.906311035E-1,-2.008056641E-2,-5.708007812E-1
8.991219653E0,4.832916260E-1,-1.824951172E-2,-5.671234131E-1
8.996102466E0,4.912414551E-1,-6.712341309E-2,-5.506439209E-1
9.000985278E0,5.248413086E-1,-1.147613525E-1,-5.243682861E-1
9.005868091E0,5.633239746E-1,-1.159820557E-1,-4.950561523E-1
9.010750903E0,5.950927734E-1,-8.239746094E-2,-4.675598145E-1
9.015633716E0,6.213531494E-1,-4.757690430E-2,-4.455566406E-1
9.020516528E0,6.476287842E-1,-2.191162109E-2,-4.272460938E-1
9.025399341E0,6.696166992E-1,-7.858276367E-3,-4.101409912E-1
9.030282153E0,6.830444336E-1,-1.770019531E-3,-3.979187012E-1
9.035164966E0,6.842651367E-1,3.738403320E-3,-3.881530762E-1
9.040047778E0,6.732788086E-1,1.350402832E-2,-3.820343018E-1
9.044930591E0,6.537322998E-1,1.411437988E-2,-3.814239502E-1
9.049813403E0,6.262359619E-1,7.400512695E-3,-3.826446533E-1
9.054696216E0,5.944671631E-1,3.738403320E-3,-3.912048340E-1
9.059579028E0,5.639343262E-1,-8.483886719E-3,-4.028015137E-1
9.064461841E0,5.376586914E-1,-3.108215332E-2,-4.144134521E-1
9.069344653E0,5.175018311E-1,-5.062866211E-2,-4.241943359E-1
9.074227466E0,4.979553223E-1,-6.405639648E-2,-4.357910156E-1
9.079110278E0,4.777984619E-1,-8.850097656E-2,-4.431152344E-1
9.083962573E0,4.588623047E-1,-1.019439697E-1,-4.480133057E-1
9.088845386E0,4.386901855E-1,-1.013183594E-1,-4.516754150E-1
9.093728198E0,4.173278809E-1,-9.216308594E-2,-4.498443604E-1
9.098611011E0,3.947143555E-1,-8.299255371E-2,-4.461822510E-1
9.103493823E0,3.666229248E-1,-6.283569336E-2,-4.431152344E-1
9.108376636E0,3.415679932E-1,-3.962707520E-2,-4.412994385E-1
9.113259448E0,3.189697266E-1,-1.824951172E-2,-4.425201416E-1
9.118142261E0,2.982025146E-1,-5.493164062E-4,-4.418945312E-1
9.123025073E0,2.804870605E-1,1.899719238E-2,-4.394531250E-1
9.127907886E0,2.652130127E-1,4.222106934E-2,-4.351806641E-1
9.132790698E0,2.523803711E-1,6.665039062E-2,-4.247894287E-1
9.137673511E0,2.322235107E-1,9.231567383E-2,-4.156341553E-1
9.142556323E0,2.090148926E-1,1.161346436E-1,-4.003601074E-1
9.147439136E0,1.821289062E-1,1.375122070E-1,-3.808135986E-1
9.152321948E0,1.522064209E-1,1.601104736E-1,-3.569946289E-1
9.157204761E0,1.295928955E-1,1.863861084E-1,-3.295135498E-1
9.162087573E0,1.161651611E-1,2.193756104E-1,-3.020172119E-1
9.166970386E0,1.143341064E-1,2.578582764E-1,-2.818603516E-1
9.171853198E0,1.167755127E-1,3.024444580E-1,-2.678070068E-1
9.176736011E0,1.259307861E-1,3.476562500E-1,-2.610931396E-1
9.181588306E0,1.479187012E-1,3.904113770E-1,-2.561950684E-1
9.186471118E0,1.796875000E-1,4.295196533E-1,-2.555847168E-1
9.191353931E0,2.169494629E-1,4.716644287E-1,-2.574157715E-1
9.196236743E0,2.554473877E-1,5.107574463E-1,-2.598724365E-1
9.201119556E0,2.933197021E-1,5.510711670E-1,-2.610931396E-1
9.206002368E0,3.330230713E-1,5.987243652E-1,-2.623138428E-1
9.210885181E0,3.757781982E-1,6.469726562E-1,-2.580261230E-1
9.215767993E0,4.191436768E-1,6.915740967E-1,-2.488708496E-1
9.220650806E0,4.655761719E-1,7.300567627E-1,-2.299346924E-1
9.225533618E0,5.083465576E-1,7.526550293E-1,-2.067260742E-1
9.230416431E0,5.443878174E-1,7.685394287E-1,-1.853332520E-1
9.235299243E0,5.712585449E-1,7.966461182E-1,-1.688537598E-1
9.240182056E0,5.920257568E-1,8.363494873E-1,-1.578521729E-1
9.245064868E0,6.066894531E-1,8.815460205E-1,-1.523437500E-1
9.249947681E0,6.158599854E-1,9.304199219E-1,-1.493072510E-1
9.254830493E0,6.189117432E-1,9.731903076E-1,-1.499023438E-1
9.259713306E0,6.060791016E-1,1.011062622E0,-1.517486572E-1
9.264596118E0,5.779876709E-1,1.029983521E0,-1.486816406E-1
9.269478931E0,5.394897461E-1,1.009216309E0,-1.376800537E-1
9.274361743E0,4.936828613E-1,9.573059082E-1,-1.212005615E-1
9.279214038E0,4.448089600E-1,8.974304199E-1,-1.004333496E-1
9.284096851E0,3.990020752E-1,8.528442383E-1,-7.110595703E-2
9.288979663E0,3.574523926E-1,8.290252686E-1,-3.689575195E-2
9.293862476E0,3.256835938E-1,8.137512207E-1,4.638671875E-3
9.298745288E0,3.061370850E-1,7.978668213E-1,5.288696289E-2
9.303628101E0,3.012542725E-1,7.807617188E-1,1.060485840E-1
9.308510913E0,2.988128662E-1,7.722015381E-1,1.634674072E-1
9.313393726E0,2.920989990E-1,7.587738037E-1,2.184295654E-1
9.318276538E0,2.768096924E-1,7.251739502E-1,2.666931152E-1
9.323159351E0,2.493286133E-1,6.677551270E-1,3.063964844E-1
9.328042163E0,2.047424316E-1,5.962829590E-1,3.406066895E-1
9.332924976E0,1.491394043E-1,5.186920166E-1,3.687133789E-1
9.337807788E0,8.683776855E-2,4.349975586E-1,3.876495361E-1
9.342690601E0,2.391052246E-2,3.470458984E-1,3.949737549E-1
9.347573413E0,-4.081726074E-2,2.566375732E-1,3.882598877E-1
9.352456226E0,-1.061859131E-1,1.607360840E-1,3.735961914E-1
9.357339038E0,-1.746063232E-1,5.688476562E-2,3.552703857E-1
9.362221851E0,-2.442474365E-1,-6.956481934E-2,3.320617676E-1
9.367104663E0,-3.236541748E-1,-2.241058350E-1,3.021240234E-1
9.371987476E0,-4.152832031E-1,-3.866119385E-1,2.630310059E-1
9.376839771E0,-5.179138184E-1,-5.435943604E-1,2.202758789E-1
9.381722583E0,-6.223754883E-1,-6.786041260E-1,1.762847900E-1
9.386605396E0,-7.243804932E-1,-7.897796631E-1,1.365814209E-1
9.391488208E0,-8.184661865E-1,-8.777465820E-1,1.042022705E-1
9.396371021E0,-9.076538086E-1,-9.492187500E-1,8.282470703E-2
9.401253833E0,-9.925537109E-1,-1.009078979E0,7.609558105E-2
9.406136646E0,-1.070755005E0,-1.067718506E0,9.197998047E-2
9.411019458E0,-1.137939453E0,-1.134918213E0,1.329193115E-1
9.415902271E0,-1.193542480E0,-1.211273193E0,1.982727051E-1
9.420785083E0,-1.247299194E0,-1.298629761E0,2.874755859E-1
9.425667896E0,-1.304107666E0,-1.389038086E0,3.864288330E-1
9.430550708E0,-1.367630005E0,-1.479446411E0,4.829406738E-1
9.435433521E0,-1.436050415E0,-1.558258057E0,5.654144287E-1
9.440316333E0,-1.507522583E0,-1.635833740E0,6.332244873E-1
9.445199146E0,-1.572280884E0,-1.708526611E0,7.004089355E-1
9.450081958E0,-1.606475830E0,-1.753723145E0,7.608947754E-1
9.454964771E0,-1.624801636E0,-1.800155640E0,8.012084961E-1
9.459847583E0,-1.636413574E0,-1.841690063E0,8.244171143E-1
9.464730396E0,-1.646194458E0,-1.894226074E0,8.287048340E-1
9.469582690E0,-1.647415161E0,-1.969360352E0,8.085327148E-1
9.474465503E0,-1.633361816E0,-2.079330444E0,7.511138916E-1
9.479348315E0,-1.602813721E0,-2.197219849E0,6.643676758E-1
9.484231128E0,-1.563110352E0,-2.279083252E0,5.617370605E-1
9.489113940E0,-1.533782959E0,-2.294967651E0,4.517974854E-1
9.493996753E0,-1.530731201E0,-2.229598999E0,3.296203613E-1
9.498879565E0,-1.559448242E0,-2.092147827E0,1.976623535E-1
9.503762378E0,-1.601593018E0,-1.937606812E0,6.510925293E-2
9.508645190E0,-1.643127441E0,-1.809921265E0,-6.439208984E-2
9.513528003E0,-1.700561523E0,-1.669433594E0,-2.116088867E-1
9.518410815E0,-1.750030518E0,-1.599792480E0,-3.588256836E-1
9.523293628E0,-1.793411255E0,-1.638885498E0,-4.858856201E-1
9.528176440E0,-1.849609375E0,-1.686538696E0,-5.866699219E-1
9.533059253E0,-1.913131714E0,-1.693862915E0,-6.605987549E-1
9.537942065E0,-1.960174561E0,-1.675537109E0,-6.868591309E-1
9.542824878E0,-1.980331421E0,-1.632171631E0,-6.581573486E-1
9.547707690E0,-1.962631226E0,-1.560699463E0,-5.781250000E-1
9.552590503E0,-1.889923096E0,-1.524047852E0,-4.840545654E-1
9.557473315E0,-1.761642456E0,-1.537475586E0,-3.808135986E-1
9.562356128E0,-1.588150024E0,-1.591232300E0,-2.671966553E-1
9.567208423E0,-1.375579834E0,-1.655380249E0,-1.578521729E-1
9.572091235E0,-1.136108398E0,-1.711578369E0,-6.010437012E-2
9.576974048E0,-8.758850098E-1,-1.763504028E0,2.357482910E-2
9.581856860E0,-6.058807373E-1,-1.816040039E0,1.127471924E-1
9.586739673E0,-3.603057861E-1,-1.838027954E0,2.141571045E-1
9.591622485E0,-1.678924561E-1,-1.808105469E0,3.100738525E-1
9.596505298E0,-2.188110352E-2,-1.758621216E0,3.888702393E-1
9.601388110E0,8.744812012E-2,-1.713409424E0,4.517974854E-1
9.606270923E0,1.693115234E-1,-1.691421509E0,5.012664795E-1
9.611153735E0,2.352752686E-1,-1.710357666E0,5.342559814E-1
9.616036548E0,2.743682861E-1,-1.756790161E0,5.641937256E-1
9.620919360E0,2.700958252E-1,-1.791595459E0,6.002349854E-1
9.625802173E0,2.212371826E-1,-1.786102295E0,6.368865967E-1
9.630684985E0,1.424255371E-1,-1.775115967E0,6.576538086E-1
9.635567798E0,5.812072754E-2,-1.764114380E0,6.704864502E-1
9.640450610E0,-1.394653320E-2,-1.753723145E0,6.808624268E-1
9.645333423E0,-7.197570801E-2,-1.748229980E0,6.930847168E-1
9.650216235E0,-1.208496094E-1,-1.724411011E0,6.985778809E-1
9.655099048E0,-1.605529785E-1,-1.672485352E0,6.881866455E-1
9.659981860E0,-1.935424805E-1,-1.604064941E0,6.643676758E-1
9.664834155E0,-2.252960205E-1,-1.531372070E0,6.264953613E-1
9.669716968E0,-2.601318359E-1,-1.462951660E0,5.745849609E-1
9.674599780E0,-2.992248535E-1,-1.394546509E0,5.116577148E-1
9.679482593E0,-3.340454102E-1,-1.318176270E0,4.377441406E-1
9.684365405E0,-3.670349121E-1,-1.241821289E0,3.613891602E-1
9.689248218E0,-4.189453125E-1,-1.169128418E0,2.801361084E-1
9.694131030E0,-4.702606201E-1,-1.077499390E0,1.976623535E-1
9.699013843E0,-5.063018799E-1,-9.779205322E-1,1.255950928E-1
9.703896655E0,-5.289154053E-1,-8.807983398E-1,5.654907227E-2
9.708779468E0,-5.453948975E-1,-7.916107178E-1,-2.090454102E-3
9.713662280E0,-5.533447266E-1,-7.146301270E-1,-6.254577637E-2
9.718545093E0,-5.496826172E-1,-6.535491943E-1,-1.218109131E-1
9.723427905E0,-5.435638428E-1,-6.169128418E-1,-1.798400879E-1
