"Time (s)","Acceleration x (m/s^2)","Acceleration y (m/s^2)","Acceleration z (m/s^2)"
0.000000000E0,3.612850428E0,-8.705317497E0,2.276885748E0
5.005000000E-3,3.612850428E0,-8.705317497E0,2.276885748E0
9.949000000E-3,3.612850428E0,-8.705317497E0,2.276885748E0
1.495400000E-2,3.612850428E0,-8.705317497E0,2.276885748E0
1.995900000E-2,2.173935175E0,-9.557653427E0,1.244984865E-1
2.496400000E-2,2.157175779E0,-9.572018623E0,1.101332754E-1
2.996800000E-2,2.159569979E0,-9.612719536E0,1.388636976E-1
3.497300000E-2,2.142810583E0,-9.631873131E0,1.508347094E-1
3.997800000E-2,2.126051188E0,-9.653421402E0,1.412578970E-1
4.498300000E-2,2.138022184E0,-9.624691010E0,1.604115069E-1
4.998800000E-2,2.135627985E0,-9.593565941E0,1.771709323E-1
5.499300000E-2,2.116474390E0,-9.595960617E0,1.891419291E-1
5.999800000E-2,2.106897593E0,-9.574412346E0,1.843535304E-1
6.500300000E-2,2.061407566E0,-9.555258751E0,1.747767180E-1
7.000700000E-2,2.099714994E0,-9.550470352E0,1.963245422E-1
7.495100000E-2,2.102109194E0,-9.536105156E0,1.795651317E-1
7.995600000E-2,2.106897593E0,-9.531316757E0,1.651999205E-1
8.496100000E-2,2.116474390E0,-9.536105156E0,1.580173075E-1
8.996600000E-2,2.130839586E0,-9.550470352E0,1.197100878E-1
9.497100000E-2,2.133233786E0,-9.557653427E0,1.221042871E-1
9.997600000E-2,2.169146776E0,-9.548076630E0,1.244984865E-1
1.049800000E-1,2.147598982E0,-9.564835548E0,1.244984865E-1
1.099850000E-1,2.138022184E0,-9.583989143E0,1.125274822E-1
1.149900000E-1,2.109291792E0,-9.567230225E0,1.149216816E-1
1.199950000E-1,2.097320795E0,-9.588777542E0,1.268926859E-1
1.250000000E-1,2.102109194E0,-9.540893555E0,1.101332754E-1
1.300050000E-1,2.111685991E0,-9.538499832E0,1.173158810E-1
1.349490000E-1,2.140416384E0,-9.538499832E0,1.364694983E-1
1.399540000E-1,2.142810583E0,-9.509769440E0,1.508347094E-1
1.449580000E-1,2.140416384E0,-9.502586365E0,1.460463107E-1
1.499630000E-1,2.157175779E0,-9.514557838E0,1.651999205E-1
1.549680000E-1,2.159569979E0,-9.536105156E0,1.628057212E-1
1.599730000E-1,2.173935175E0,-9.526528358E0,1.508347094E-1
1.649780000E-1,2.190694571E0,-9.576807022E0,1.580173075E-1
1.699830000E-1,2.157175779E0,-9.593565941E0,1.675941199E-1
1.749880000E-1,2.166752577E0,-9.612719536E0,1.747767180E-1
1.799920000E-1,2.152387381E0,-9.641449928E0,1.436520964E-1
1.849970000E-1,2.138022184E0,-9.691728592E0,1.077390760E-1
1.900020000E-1,2.140416384E0,-9.696516991E0,1.149216816E-1
1.950070000E-1,2.145204782E0,-9.698910713E0,1.244984865E-1
1.997680000E-1,2.145204782E0,-9.651026726E0,1.484405100E-1
2.049560000E-1,2.154781580E0,-9.646238327E0,1.675941199E-1
2.099610000E-1,2.147598982E0,-9.622296333E0,1.651999205E-1
2.149660000E-1,2.157175779E0,-9.603142738E0,1.699883193E-1
2.199700000E-1,2.152387381E0,-9.603142738E0,1.795651317E-1
2.249750000E-1,2.188300371E0,-9.581595421E0,1.484405100E-1
2.299800000E-1,2.183511972E0,-9.579200745E0,1.101332754E-1
2.349850000E-1,2.152387381E0,-9.574412346E0,1.053448766E-1
2.399900000E-1,2.157175779E0,-9.595960617E0,9.816227108E-2
2.449950000E-1,2.149993181E0,-9.555258751E0,8.619125932E-2
2.500000000E-1,2.130839586E0,-9.552865028E0,7.182604820E-2
2.550040000E-1,2.109291792E0,-9.562441826E0,7.900865376E-2
2.599480000E-1,2.080561161E0,-9.540893555E0,7.182604820E-2
2.649530000E-1,2.047042370E0,-9.516951561E0,8.379705995E-2
2.699580000E-1,2.020706177E0,-9.502586365E0,1.029506698E-1
2.749630000E-1,2.001552582E0,-9.509769440E0,1.197100878E-1
2.799680000E-1,2.013523579E0,-9.512163162E0,1.340752989E-1
2.849730000E-1,2.008735180E0,-9.514557838E0,1.508347094E-1
2.899780000E-1,1.999158382E0,-9.504981041E0,1.340752989E-1
2.949820000E-1,2.013523579E0,-9.488221169E0,1.580173075E-1
2.999870000E-1,2.018311977E0,-9.536105156E0,1.340752989E-1
3.049920000E-1,2.047042370E0,-9.540893555E0,1.173158810E-1
3.099970000E-1,2.056619167E0,-9.564835548E0,1.197100878E-1
3.150020000E-1,2.063801765E0,-9.567230225E0,1.005564705E-1
3.200070000E-1,2.087743998E0,-9.548076630E0,1.077390760E-1
3.249510000E-1,2.087743998E0,-9.538499832E0,7.182604820E-2
3.299550000E-1,2.092532396E0,-9.562441826E0,6.943184882E-2
3.349600000E-1,2.111685991E0,-9.514557838E0,3.591302410E-2
3.399650000E-1,2.099714994E0,-9.497797966E0,5.506663769E-2
3.449700000E-1,2.109291792E0,-9.457097054E0,1.173158810E-1
3.499750000E-1,2.068590164E0,-9.437943459E0,1.580173075E-1
3.549800000E-1,2.023100376E0,-9.423578262E0,2.346317619E-1
3.599850000E-1,1.991975784E0,-9.394847870E0,2.777273953E-1
3.649900000E-1,1.934514999E0,-9.409213066E0,2.896983922E-1
3.699940000E-1,1.941697598E0,-9.418789864E0,3.064578176E-1
3.749990000E-1,1.956062794E0,-9.469067574E0,2.968810201E-1
3.799430000E-1,1.972822189E0,-9.493009567E0,2.873041928E-1
3.849480000E-1,2.006340981E0,-9.550470352E0,2.657563984E-1
3.899530000E-1,2.025494576E0,-9.564835548E0,2.418143749E-1
3.949580000E-1,2.025494576E0,-9.569623947E0,2.154781520E-1
3.999630000E-1,2.035071373E0,-9.586383820E0,2.011129409E-1
4.049670000E-1,2.059013367E0,-9.555258751E0,1.963245422E-1
4.099720000E-1,2.075772762E0,-9.552865028E0,2.154781520E-1
4.149770000E-1,2.049436569E0,-9.512163162E0,2.466027737E-1
4.199820000E-1,2.049436569E0,-9.478644371E0,2.370259613E-1
4.249870000E-1,2.011129379E0,-9.478644371E0,2.513911724E-1
4.299920000E-1,1.984793186E0,-9.478644371E0,2.729389966E-1
4.349970000E-1,1.934514999E0,-9.473855972E0,3.040636182E-1
4.400020000E-1,1.939303398E0,-9.440337181E0,3.399766386E-1
4.450060000E-1,1.934514999E0,-9.459490776E0,3.567360640E-1
4.499500000E-1,1.946485996E0,-9.493009567E0,3.830722570E-1
4.549550000E-1,1.956062794E0,-9.519346237E0,3.711012602E-1
4.599600000E-1,2.013523579E0,-9.521739960E0,3.878606856E-1
4.649650000E-1,2.008735180E0,-9.533711433E0,3.950432837E-1
4.699700000E-1,2.051830769E0,-9.514557838E0,3.854664862E-1
4.749750000E-1,2.080561161E0,-9.531316757E0,3.950432837E-1
4.799790000E-1,2.099714994E0,-9.612719536E0,4.285621047E-1
4.849840000E-1,2.092532396E0,-9.686940193E0,4.620809257E-1
4.899890000E-1,2.094926596E0,-9.701305389E0,4.836287498E-1
4.949940000E-1,2.111685991E0,-9.746794701E0,5.099649429E-1
4.999990000E-1,2.147598982E0,-9.768342972E0,5.650315881E-1
5.050040000E-1,2.252943754E0,-9.782708168E0,6.392518282E-1
5.098870000E-1,2.403778553E0,-9.787496567E0,7.709329724E-1
5.149530000E-1,2.554613113E0,-9.768342972E0,8.212111592E-1
5.199570000E-1,2.707842112E0,-9.765948296E0,8.690952063E-1
5.249620000E-1,2.861071110E0,-9.777919769E0,8.164227605E-1
5.299670000E-1,2.937685490E0,-9.773131371E0,7.661445141E-1
5.349720000E-1,2.992752075E0,-9.768342972E0,6.296750307E-1
5.399770000E-1,2.966415882E0,-9.744400978E0,4.860229492E-1
5.449820000E-1,2.968810081E0,-9.751583099E0,3.806780577E-1
5.499870000E-1,2.916137695E0,-9.739612579E0,3.256114423E-1
5.549920000E-1,2.913743496E0,-9.701305389E0,2.346317619E-1
5.599960000E-1,2.908955097E0,-9.648633003E0,1.747767180E-1
5.650010000E-1,2.899378300E0,-9.555258751E0,7.182604820E-2
5.699480000E-1,2.882618904E0,-9.418789864E0,9.576806799E-3
5.749530000E-1,2.863465309E0,-9.361329079E0,-5.027823523E-2
5.799570000E-1,2.820369720E0,-9.287108421E0,-6.464344263E-2
5.849620000E-1,2.789244890E0,-9.241618156E0,-7.422025502E-2
5.899670000E-1,2.724601507E0,-9.150638580E0,-6.464344263E-2
5.949720000E-1,2.664746523E0,-9.100360870E0,-4.788403213E-2
5.999770000E-1,2.576161146E0,-9.064447403E0,-3.351882473E-2
6.049820000E-1,2.497152328E0,-9.047688484E0,4.070143029E-2
6.099870000E-1,2.430114746E0,-9.057265282E0,8.619125932E-2
6.149910000E-1,2.394201756E0,-9.071630478E0,1.604115069E-1
6.199960000E-1,2.351106167E0,-9.105149269E0,2.274491638E-1
6.250010000E-1,2.310404539E0,-9.179368973E0,3.184288144E-1
6.300060000E-1,2.264914751E0,-9.246406555E0,3.495534360E-1
6.349500000E-1,2.231395960E0,-9.272743225E0,4.118026793E-1
6.399550000E-1,2.226607561E0,-9.318233490E0,4.309563041E-1
6.449600000E-1,2.226607561E0,-9.332598686E0,4.716577232E-1
6.499650000E-1,2.197877169E0,-9.323021889E0,4.644751251E-1
6.549690000E-1,2.181117773E0,-9.358934402E0,4.429273009E-1
6.599740000E-1,2.197877169E0,-9.445125580E0,3.830722570E-1
6.649790000E-1,2.243366957E0,-9.538499832E0,3.974374831E-1
6.699840000E-1,2.288856745E0,-9.646238327E0,3.830722570E-1
6.749890000E-1,2.317587137E0,-9.823410034E0,4.213795066E-1
6.799940000E-1,2.351106167E0,-1.000536919E1,3.758896589E-1
6.849990000E-1,2.370259762E0,-1.019929886E1,2.896983922E-1
6.900030000E-1,2.341529369E0,-1.028788471E1,1.819593310E-1
6.950080000E-1,2.324769735E0,-1.032379818E1,4.309562966E-2
6.999520000E-1,2.310404539E0,-1.032379818E1,-7.182604820E-2
7.049570000E-1,2.272097349E0,-1.029267311E1,-1.963245422E-1
7.099620000E-1,2.217030764E0,-1.025675964E1,-3.327940404E-1
7.149670000E-1,2.147598982E0,-1.016099167E1,-4.860229492E-1
7.199720000E-1,2.094926596E0,-1.007240677E1,-5.578489900E-1
7.249770000E-1,2.035071373E0,-9.971850395E0,-6.177040339E-1
7.299810000E-1,1.956062794E0,-9.895236015E0,-6.129156351E-1
7.349860000E-1,1.910573006E0,-9.842563629E0,-5.698199868E-1
7.399910000E-1,1.877054095E0,-9.763554573E0,-5.171475410E-1
7.449960000E-1,1.812410712E0,-9.746794701E0,-4.453215301E-1
7.500010000E-1,1.812410712E0,-9.753977776E0,-3.950432837E-1
7.550060000E-1,1.831564307E0,-9.787496567E0,-3.040636182E-1
7.599500000E-1,1.862688899E0,-9.830592155E0,-2.489969730E-1
7.649540000E-1,1.886630893E0,-9.847352028E0,-2.346317619E-1
7.699590000E-1,1.898601890E0,-9.859322548E0,-2.442085743E-1
7.749640000E-1,1.905784607E0,-9.840168953E0,-2.561795712E-1
7.799690000E-1,1.865083098E0,-9.799467087E0,-2.777273953E-1
7.849740000E-1,1.860294700E0,-9.746794701E0,-2.920926213E-1
7.899790000E-1,1.857900500E0,-9.706093788E0,-3.184288144E-1
7.949840000E-1,1.845929503E0,-9.634267807E0,-3.615244627E-1
7.999890000E-1,1.819593310E0,-9.583989143E0,-4.285621047E-1
8.049930000E-1,1.829170108E0,-9.493009567E0,-5.195417404E-1
8.099980000E-1,1.831564307E0,-9.440337181E0,-5.578489900E-1
8.150030000E-1,1.841141105E0,-9.385271072E0,-5.841852427E-1
8.199470000E-1,1.821987510E0,-9.287108421E0,-5.913678408E-1
8.249520000E-1,1.826775908E0,-9.222464561E0,-5.746083856E-1
8.299570000E-1,1.805228114E0,-9.184157372E0,-5.339069963E-1
8.349620000E-1,1.788468719E0,-9.124302864E0,-4.477157295E-1
8.399660000E-1,1.800439715E0,-9.076418877E0,-3.806780577E-1
8.449710000E-1,1.766920805E0,-9.045293808E0,-3.232172430E-1
8.499760000E-1,1.800439715E0,-9.035717010E0,-2.561795712E-1
8.549810000E-1,1.814804912E0,-9.040505409E0,-1.819593310E-1
8.599860000E-1,1.855506301E0,-9.054870605E0,-7.182604820E-2
8.649910000E-1,1.946485996E0,-9.030928612E0,2.633621916E-2
8.699960000E-1,2.063801765E0,-9.006986618E0,6.224924326E-2
8.750010000E-1,2.166752577E0,-8.963891029E0,1.125274822E-1
8.800050000E-1,2.293645144E0,-8.916007042E0,1.029506698E-1
8.849490000E-1,2.389413357E0,-8.858546257E0,1.077390760E-1
8.899540000E-1,2.466027737E0,-8.779537201E0,1.484405100E-1
8.949590000E-1,2.513911724E0,-8.662221909E0,2.825157940E-1
8.999640000E-1,2.477998734E0,-8.573636055E0,3.830722570E-1
9.049690000E-1,2.434903145E0,-8.485051155E0,4.572925270E-1
9.099740000E-1,2.391807556E0,-8.427590370E0,5.410895944E-1
9.149780000E-1,2.382230759E0,-8.415618896E0,6.607996821E-1
9.199830000E-1,2.367865562E0,-8.367734909E0,7.757213712E-1
9.249880000E-1,2.382230759E0,-8.310274124E0,9.744400978E-1
9.299930000E-1,2.415749550E0,-8.233659744E0,1.165976286E0
9.349980000E-1,2.437297344E0,-8.204929352E0,1.359906554E0
9.400030000E-1,2.492363930E0,-8.147468567E0,1.527500629E0
9.450080000E-1,2.547430515E0,-8.101978302E0,1.640028119E0
9.499520000E-1,2.643198729E0,-8.116343498E0,1.742978811E0
9.549560000E-1,2.731784105E0,-8.159439087E0,1.877054095E0
9.599610000E-1,2.774879694E0,-8.269572258E0,1.932120800E0
9.649660000E-1,2.786850691E0,-8.441955566E0,1.960851192E0
9.699710000E-1,2.712630510E0,-8.590395927E0,1.987187386E0
9.749760000E-1,2.616862535E0,-8.798690796E0,2.047042370E0
9.799810000E-1,2.494758129E0,-9.014169693E0,2.111685991E0
9.849860000E-1,2.403778553E0,-9.172186852E0,2.339135170E0
9.899910000E-1,2.420537949E0,-9.205705643E0,2.468421936E0
9.949950000E-1,2.557007313E0,-9.138668060E0,2.461239338E0
1.000000000E0,2.767697096E0,-9.078812599E0,2.466027737E0
1.005005000E0,2.882618904E0,-8.956708908E0,2.683900118E0
1.009949000E0,3.354276657E0,-8.798690796E0,3.208230257E0
1.014954000E0,3.622427225E0,-8.554482460E0,4.000710964E0
1.019959000E0,4.474762917E0,-8.418013573E0,4.347870350E0
1.024964000E0,5.212177277E0,-8.480262756E0,4.194641590E0
1.029968000E0,5.849034786E0,-8.571242332E0,3.976768970E0
1.034973000E0,6.749254704E0,-8.571242332E0,3.445256233E0
1.039978000E0,7.697358608E0,-8.530540466E0,2.334346771E0
1.044983000E0,8.406042099E0,-8.616731644E0,1.199495077E0
1.049988000E0,8.398859978E0,-9.097966194E0,2.705447972E-1
1.054993000E0,8.106766701E0,-9.634267807E0,-5.267243981E-1
1.059998000E0,7.453149796E0,-1.028309631E1,-7.613561153E-1
1.065003000E0,6.928819656E0,-1.094629002E1,-2.418143749E-1
1.070007000E0,6.265625954E0,-1.159511852E1,6.655880809E-1
1.074951000E0,5.875370979E0,-1.191115379E1,1.154005170E0
1.079956000E0,5.353435040E0,-1.213620853E1,1.371877551E0
1.084961000E0,4.721365929E0,-1.231337929E1,1.450886250E0
1.089966000E0,4.108449936E0,-1.236844635E1,1.467645645E0
1.094971000E0,3.689464808E0,-1.234689808E1,1.446097851E0
1.099976000E0,3.172317266E0,-1.209071827E1,1.333570361E0
1.104980000E0,2.868253708E0,-1.179862595E1,1.065419793E0
1.109985000E0,2.691082716E0,-1.133893967E1,7.613561153E-1
1.114990000E0,2.557007313E0,-1.077630138E1,5.386953950E-1
1.119995000E0,2.367865562E0,-1.016817474E1,4.668693244E-1
1.125000000E0,2.193088770E0,-9.548076630E0,5.219359994E-1
1.130005000E0,2.042253971E0,-8.813055992E0,6.655880809E-1
1.134949000E0,1.920149803E0,-8.245630264E0,7.996633649E-1
1.139954000E0,1.831564307E0,-7.821856976E0,9.672574997E-1
1.144958000E0,1.783680320E0,-7.580042362E0,1.106121182E0
1.149963000E0,1.853112102E0,-7.450755596E0,1.201889277E0
1.154968000E0,2.140416384E0,-7.357381821E0,1.326387763E0
1.159973000E0,2.545036316E0,-7.292738438E0,1.611297727E0
1.164978000E0,2.937685490E0,-7.316680431E0,1.812410712E0
1.169983000E0,3.323152065E0,-7.264008045E0,2.147598982E0
1.174988000E0,3.603273630E0,-7.280767441E0,2.418143749E0
1.179992000E0,3.823540211E0,-7.323863029E0,2.724601507E0
1.184936000E0,3.957615376E0,-7.371747017E0,2.990357876E0
1.190002000E0,4.022258759E0,-7.362170219E0,3.215412855E0
1.195007000E0,4.012681961E0,-7.364564419E0,3.342305660E0
1.199951000E0,3.955221176E0,-7.388506413E0,3.371036053E0
1.204956000E0,3.890577793E0,-7.393294811E0,3.397372246E0
1.209961000E0,3.787626982E0,-7.400477409E0,3.438073635E0
1.214966000E0,3.713406801E0,-7.338228226E0,3.493140221E0
1.219970000E0,3.564966440E0,-7.266402245E0,3.521870613E0
1.224975000E0,3.469198227E0,-7.192182064E0,3.548206806E0
1.229980000E0,3.371036053E0,-7.158663273E0,3.584120035E0
1.234985000E0,3.232172251E0,-7.074865818E0,3.610456228E0
1.239990000E0,3.102885485E0,-6.988674641E0,3.636792421E0
1.244995000E0,3.026270866E0,-6.926425457E0,3.672705412E0
1.250000000E0,3.007117271E0,-6.835445881E0,3.667917013E0
1.255004000E0,3.055001259E0,-6.763619900E0,3.632004023E0
1.259948000E0,3.098097086E0,-6.727706909E0,3.632004023E0
1.264953000E0,3.184288263E0,-6.694188118E0,3.679888010E0
1.269958000E0,3.270479441E0,-6.663063526E0,3.749319792E0
1.274963000E0,3.354276657E0,-6.715735912E0,3.821146011E0
1.279968000E0,3.608062029E0,-6.766014099E0,3.821146011E0
1.284973000E0,3.926490784E0,-6.823474884E0,3.768473387E0
1.289978000E0,4.311957359E0,-6.847416878E0,3.608062029E0
1.294982000E0,4.723760128E0,-6.931213856E0,3.505111217E0
1.299987000E0,5.166687489E0,-7.053318024E0,3.390189648E0
1.304992000E0,5.640739441E0,-7.151480675E0,3.263296843E0
1.309997000E0,6.131550789E0,-7.357381821E0,2.928108692E0
1.315002000E0,6.430825710E0,-7.603984833E0,2.681505919E0
1.320007000E0,6.636727333E0,-7.934384346E0,2.446874142E0
1.324951000E0,6.727706909E0,-8.157045364E0,2.229001760E0
1.329955000E0,6.698976517E0,-8.216899872E0,2.092532396E0
1.334960000E0,6.593631268E0,-8.154650688E0,2.121262789E0
1.339965000E0,6.406883717E0,-8.046912193E0,2.202665567E0
1.344970000E0,6.263231754E0,-7.891288757E0,2.346317768E0
1.349975000E0,6.131550789E0,-7.740454197E0,2.571372509E0
1.354980000E0,6.093243122E0,-7.615955830E0,2.791639090E0
1.359985000E0,6.105214119E0,-7.546523571E0,3.047818661E0
1.364990000E0,6.212953568E0,-7.534552574E0,3.234566450E0
1.369994000E0,6.358999729E0,-7.668628216E0,3.560178041E0
1.374999000E0,6.497863293E0,-7.814674377E0,3.873818398E0
1.380004000E0,6.607996464E0,-8.015787125E0,4.220977783E0
1.384948000E0,6.689399719E0,-8.212111473E0,4.498704910E0
1.389953000E0,6.751648903E0,-8.458714485E0,4.692635536E0
1.394958000E0,6.785167694E0,-8.741230011E0,4.735731125E0
1.399841000E0,6.739677906E0,-9.100360870E0,4.661510944E0
1.404967000E0,6.710947514E0,-9.368511200E0,4.513070107E0
1.409972000E0,6.643909931E0,-9.593565941E0,4.340687752E0
1.414977000E0,6.569689274E0,-9.753977776E0,4.110844135E0
1.419982000E0,6.490680695E0,-9.868899345E0,3.845088005E0
1.424987000E0,6.380547523E0,-9.907206535E0,3.608062029E0
1.429992000E0,6.244078159E0,-9.873687744E0,3.564966440E0
1.434997000E0,6.076483727E0,-9.744400978E0,3.634398222E0
1.440002000E0,5.884947777E0,-9.603142738E0,3.742137194E0
1.445006000E0,5.741295815E0,-9.392453194E0,3.818751812E0
1.449950000E0,5.612008572E0,-9.165003777E0,3.871424198E0
1.454955000E0,5.513846397E0,-8.949525833E0,3.897760391E0
1.459960000E0,5.494692802E0,-8.801085472E0,3.931279182E0
1.464965000E0,5.556941986E0,-8.734047890E0,4.039018154E0
1.469970000E0,5.729324818E0,-8.741230011E0,4.213795185E0
1.474975000E0,5.928043365E0,-8.851364136E0,4.417302132E0
1.479979000E0,6.035782337E0,-9.100360870E0,4.608838081E0
1.484984000E0,5.983109951E0,-9.588777542E0,4.781220913E0
1.489989000E0,5.781997204E0,-1.011310768E1,4.771644115E0
1.494994000E0,5.568912983E0,-1.074038887E1,4.671087742E0
1.499999000E0,5.379771233E0,-1.135569859E1,4.410119534E0
1.505004000E0,5.181052685E0,-1.190157700E1,3.986345768E0
1.509948000E0,5.037400246E0,-1.232056236E1,3.471592426E0
1.514953000E0,4.860229492E0,-1.274912453E1,2.633621931E0
1.519957000E0,4.692635536E0,-1.306755257E1,1.843535304E0
1.524962000E0,4.326322556E0,-1.332133865E1,1.158793569E0
1.529967000E0,3.883395195E0,-1.343865395E1,8.020575643E-1
1.534972000E0,3.344699860E0,-1.336922264E1,8.116343617E-1
1.539977000E0,2.767697096E0,-1.314656162E1,1.144428372E0
1.544982000E0,2.240972757E0,-1.289517021E1,1.733402014E0
1.549987000E0,1.915361404E0,-1.262462521E1,2.257732153E0
1.554992000E0,1.486799240E0,-1.205001736E1,2.734178305E0
1.559996000E0,9.265560508E-1,-1.125753593E1,3.098097086E0
1.565001000E0,3.543418646E-1,-1.042195988E1,3.351882458E0
1.569948000E0,-4.070143029E-2,-9.512163162E0,3.330334663E0
1.574953000E0,-4.692635238E-1,-8.530540466E0,3.078943491E0
1.579957000E0,-9.002198577E-1,-7.955932140E0,2.700659513E0
1.584962000E0,-1.185129881E0,-7.599195957E0,2.171540976E0
1.589967000E0,-1.271321058E0,-7.424419403E0,1.692700624E0
1.594972000E0,-1.288080573E0,-7.426813602E0,1.357512355E0
1.599977000E0,-1.163581967E0,-7.541735172E0,8.571242094E-1
1.604982000E0,-2.585737705E-1,-7.738059998E0,1.867477298E-1
1.609987000E0,7.206547260E-1,-7.898471355E0,-7.182605099E-3
1.614991000E0,1.561019540E0,-8.027758598E0,2.322375625E-1
1.619996000E0,2.274491549E0,-8.111555099E0,6.679822803E-1
1.625001000E0,2.940079689E0,-8.259995461E0,1.120486379E0
1.630006000E0,3.564966440E0,-8.528146744E0,1.453280449E0
1.634950000E0,4.316745758E0,-8.911218643E0,1.786074519E0
1.639955000E0,4.867412090E0,-9.433155060E0,1.491587639E0
1.644960000E0,5.135562420E0,-9.957485199E0,1.276109457E0
1.649965000E0,4.888959885E0,-1.036928749E1,1.623268723E0
1.654969000E0,4.582501888E0,-1.089840603E1,1.798045516E0
1.659974000E0,4.338293552E0,-1.140358257E1,1.357512355E0
1.664979000E0,3.878606796E0,-1.182017422E1,7.422025204E-1
1.669984000E0,3.201047659E0,-1.193030739E1,5.746083856E-1
1.674989000E0,2.279279947E0,-1.176271248E1,7.469909191E-1
1.679994000E0,1.362300754E0,-1.142034245E1,1.063025594E0
1.684999000E0,6.224924326E-1,-1.099417400E1,1.271321058E0
1.690003000E0,0.000000000E0,-1.045069027E1,1.522712231E0
1.695008000E0,-4.884171486E-1,-9.787496567E0,1.735796213E0
1.699952000E0,-6.607996821E-1,-9.397241592E0,1.704671621E0
1.704957000E0,-4.477157295E-1,-8.980650902E0,1.431732655E0
1.709962000E0,1.149216816E-1,-8.540117264E0,5.434837937E-1
1.714967000E0,1.244984865E-1,-8.276755333E0,7.278373241E-1
1.719972000E0,-4.309562966E-2,-8.066065788E0,1.300051570E0
1.724977000E0,-4.788403213E-2,-7.860164165E0,1.757344007E0
1.729981000E0,1.460463107E-1,-7.678205013E0,2.075772762E0
1.734986000E0,3.663128614E-1,-7.637503624E0,2.094926596E0
1.739991000E0,4.955997467E-1,-7.742848396E0,1.805228114E0
1.744996000E0,7.589619160E-1,-7.814674377E0,1.115697980E0
1.750001000E0,6.272808313E-1,-7.874529362E0,1.036689281E0
1.755006000E0,7.206547260E-1,-8.123526573E0,1.113303781E0
1.759950000E0,5.291185975E-1,-8.331821442E0,1.151610970E0
1.764954000E0,9.097966552E-1,-8.353369713E0,1.204283476E0
1.769959000E0,1.458068848E0,-8.200140953E0,6.200982332E-1
1.774964000E0,1.297657371E0,-8.477868080E0,1.757344007E0
1.779969000E0,1.237802267E0,-8.700529099E0,1.991975784E0
1.784974000E0,1.216254473E0,-8.856152534E0,1.644816518E0
1.789979000E0,1.280897856E0,-8.930372238E0,1.149216771E0
1.794984000E0,1.419761658E0,-8.973467827E0,6.081272364E-1
1.799989000E0,1.520318031E0,-8.930372238E0,2.394201756E-1
1.804993000E0,1.606509328E0,-8.853757858E0,1.747767180E-1
1.809998000E0,1.721431017E0,-8.650250435E0,3.423708379E-1
1.815003000E0,1.740584612E0,-8.336610794E0,5.746083856E-1
1.820008000E0,1.802833915E0,-8.006210327E0,7.086837292E-1
1.824952000E0,1.941697598E0,-7.680599213E0,7.637503147E-1
1.829957000E0,1.972822189E0,-7.424419403E0,7.805097699E-1
1.834962000E0,2.051830769E0,-7.220912457E0,7.182605267E-1
1.839966000E0,1.908178806E0,-7.050923824E0,6.440402865E-1
1.844971000E0,1.752555609E0,-7.050923824E0,5.985504389E-1
1.849976000E0,1.690306425E0,-7.151480675E0,6.081272364E-1
1.854981000E0,1.549048543E0,-7.295132637E0,6.224924326E-1
1.859986000E0,1.278503656E0,-7.575253963E0,7.086837292E-1
1.864991000E0,1.199495077E0,-7.908048153E0,7.086837292E-1
1.869996000E0,1.055842996E0,-8.432378769E0,6.967126727E-1
1.875001000E0,9.217676520E-1,-8.767566681E0,8.188169599E-1
1.880005000E0,7.996633649E-1,-9.042900085E0,9.097966552E-1
1.884949000E0,6.991068721E-1,-9.184157372E0,9.026140571E-1
1.889954000E0,6.392518282E-1,-9.334992409E0,9.169792533E-1
1.894959000E0,6.679822803E-1,-9.346963882E0,9.313444495E-1
1.899964000E0,8.667010069E-1,-9.411606789E0,8.858546019E-1
1.904969000E0,9.935936928E-1,-9.409213066E0,9.385270476E-1
1.909791000E0,1.209071875E0,-9.349357605E0,9.217676520E-1
1.914978000E0,1.302445769E0,-9.346963882E0,9.433154464E-1
1.919983000E0,1.455674648E0,-9.361329079E0,1.115697980E0
1.924988000E0,1.599326730E0,-9.349357605E0,1.379060149E0
1.929993000E0,1.647210717E0,-9.366117477E0,1.934514999E0
1.934998000E0,1.690306425E0,-9.375694275E0,2.394201756E0
1.940003000E0,1.604115129E0,-9.267954826E0,2.722207308E0
1.945008000E0,1.493981838E0,-9.100360870E0,2.896984100E0
1.949952000E0,1.474828243E0,-8.870517731E0,3.019088268E0
1.954956000E0,1.532289028E0,-8.552088737E0,3.062183857E0
1.959961000E0,1.728613615E0,-8.039729118E0,2.801215887E0
1.964966000E0,1.896207690E0,-7.513004780E0,2.564189911E0
1.969971000E0,1.831564307E0,-7.034164429E0,2.262520552E0
1.974976000E0,1.726219416E0,-6.641515732E0,2.018311977E0
1.979981000E0,1.699883223E0,-6.315904140E0,1.968033791E0
1.984986000E0,1.563413739E0,-6.064512730E0,2.099714994E0
1.989991000E0,1.300051570E0,-6.050147533E0,2.501940727E0
1.994995000E0,1.163581967E0,-6.157886982E0,2.705447912E0
2.000000000E0,1.015141487E0,-6.452373505E0,2.887407303E0
2.005005000E0,8.619126081E-1,-6.928819656E0,3.004723072E0
2.009949000E0,6.320692301E-1,-7.592013359E0,3.122039080E0
2.014954000E0,4.788403511E-1,-8.336610794E0,3.351882458E0
2.019959000E0,1.532289088E-1,-9.363722801E0,3.785232782E0
2.024964000E0,1.675941236E-2,-1.024478912E1,4.165910721E0
2.029968000E0,-5.267243832E-2,-1.107078838E1,4.501099110E0
2.034973000E0,-2.633621916E-2,-1.175074196E1,4.728548527E0
2.039978000E0,1.747767180E-1,-1.232295609E1,4.790797710E0
2.044983000E0,4.477157295E-1,-1.276827812E1,4.637568474E0
2.049988000E0,9.600749016E-1,-1.307712936E1,4.393360138E0
2.054993000E0,1.386242747E0,-1.303642845E1,4.206612587E0
2.059998000E0,1.929726601E0,-1.278264332E1,4.101267338E0
2.065003000E0,2.580949545E0,-1.231816769E1,4.046200752E0
2.070007000E0,3.234566450E0,-1.179623222E1,4.098873138E0
2.074951000E0,3.804386616E0,-1.124317074E1,4.139574528E0
2.079956000E0,4.426878929E0,-1.061349583E1,3.964797974E0
2.084961000E0,4.872200489E0,-1.021127033E1,3.641580820E0
2.089966000E0,5.142745018E0,-9.789890289E0,3.318363667E0
2.094971000E0,5.137956619E0,-9.399636269E0,3.210624456E0
2.099976000E0,4.905719280E0,-8.973467827E0,2.925714493E0
2.104980000E0,4.826710701E0,-8.647856712E0,2.358288765E0
2.109985000E0,4.872200489E0,-8.403648376E0,1.807622313E0
2.114990000E0,4.685452938E0,-8.444349289E0,1.568202138E0
2.119995000E0,4.297592163E0,-8.489839554E0,1.410184860E0
2.125000000E0,3.852270603E0,-8.439560890E0,1.256955862E0
2.130005000E0,3.165134668E0,-8.561665535E0,1.101332784E0
2.134949000E0,2.288856745E0,-8.791508675E0,8.954314590E-1
2.139954000E0,1.070208192E0,-9.227252960E0,7.852981687E-1
2.144958000E0,-7.182605099E-3,-9.811438560E0,8.858546019E-1
2.149963000E0,-9.911994934E-1,-1.057040024E1,9.074024558E-1
2.154968000E0,-1.754949808E0,-1.142034245E1,7.733271718E-1
2.159973000E0,-2.202665567E0,-1.237323475E1,5.482721925E-1
2.164978000E0,-2.650381327E0,-1.332373238E1,1.436520964E-1
2.169983000E0,-3.229778051E0,-1.516966152E1,1.125274822E-1
2.174988000E0,-3.258508444E0,-1.653435707E1,3.327940404E-1
2.179992000E0,-2.750937700E0,-1.754949760E1,6.536170840E-1
2.184997000E0,-2.059013367E0,-1.826296997E1,8.259995580E-1
2.190002000E0,-1.482010841E0,-1.875378227E1,8.427590132E-1
2.195007000E0,-9.935936928E-1,-1.928050613E1,7.876923680E-1
2.199951000E0,-4.548983276E-1,-1.948640823E1,3.782838583E-1
2.204956000E0,2.777273953E-1,-1.953668594E1,-3.926490843E-1
2.209961000E0,1.249773264E0,-1.949119568E1,-1.254561663E0
2.214966000E0,2.315192938E0,-1.918713188E1,-2.090138197E0
2.219970000E0,3.198653460E0,-1.879448318E1,-2.588132143E0
2.224975000E0,4.034229755E0,-1.819114494E1,-2.573766708E0
2.229980000E0,5.346252441E0,-1.722149277E1,-2.626439333E0
2.234985000E0,6.385335922E0,-1.640506935E1,-2.961627483E0
2.239990000E0,6.864176273E0,-1.543781281E1,-3.603273630E0
2.244995000E0,6.852205276E0,-1.436760426E1,-4.244919777E0
2.250000000E0,6.689399719E0,-1.310585976E1,-4.809951305E0
2.255004000E0,6.358999729E0,-1.166455078E1,-4.951209068E0
2.259948000E0,6.100425720E0,-1.074038887E1,-4.697423935E0
2.264953000E0,5.793968201E0,-1.004846478E1,-3.869029999E0
2.269958000E0,6.045359135E0,-9.366117477E0,-2.432508945E0
2.274963000E0,5.944802761E0,-8.360552788E0,-1.553836942E0
2.279968000E0,5.157110691E0,-6.916848660E0,-1.867477298E0
2.284973000E0,3.579331636E0,-5.264849663E0,-2.106897593E0
2.289978000E0,2.645592928E0,-4.359841347E0,-1.692700624E0
2.294982000E0,2.806004286E0,-3.821146011E0,-1.053448766E-1
2.299987000E0,3.184288263E0,-3.842693806E0,1.587355733E0
2.304992000E0,2.796427488E0,-4.407725334E0,2.466027737E0
2.309997000E0,2.133233786E0,-5.066130638E0,2.308010340E0
2.315002000E0,1.383848548E0,-5.844246387E0,1.977610588E0
2.320007000E0,8.667010069E-1,-6.282385349E0,1.819593310E0
2.324951000E0,4.213795066E-1,-6.675034523E0,1.872265697E0
2.329955000E0,5.746084079E-2,-6.936002254E0,2.051830769E0
2.334960000E0,-1.723825186E-1,-7.132327080E0,2.360682964E0
2.339965000E0,-3.806780577E-1,-7.242460251E0,2.698265314E0
2.344970000E0,-6.057330370E-1,-7.352593422E0,2.985569477E0
2.349975000E0,-7.254431248E-1,-7.412448406E0,3.014299870E0
2.354980000E0,-6.584054828E-1,-7.400477409E0,2.940079689E0
2.359985000E0,-5.410895944E-1,-7.333439827E0,2.801215887E0
2.364990000E0,-3.615244627E-1,-7.256825447E0,2.600103140E0
2.369994000E0,-2.202665508E-1,-7.156269073E0,2.389413357E0
2.374999000E0,-7.422025502E-2,-7.003039837E0,2.183511972E0
2.380004000E0,-2.394201607E-2,-6.888118267E0,2.023100376E0
2.384948000E0,2.873042040E-2,-6.775590897E0,1.865083098E0
2.389953000E0,5.267243832E-2,-6.675034523E0,1.685518026E0
2.394958000E0,7.661445439E-2,-6.627150536E0,1.498770237E0
2.399963000E0,5.506663769E-2,-6.631938934E0,1.273715258E0
2.404967000E0,-9.576806799E-3,-6.629544735E0,9.145850539E-1
2.409972000E0,-1.221042871E-1,-6.701370716E0,5.793967843E-1
2.414977000E0,-2.585737705E-1,-6.689399719E0,2.873041928E-1
2.419982000E0,-4.309563041E-1,-6.660669327E0,2.178723514E-1
2.424987000E0,-5.267243981E-1,-6.624756336E0,4.070142806E-1
2.429992000E0,-5.506663918E-1,-6.593631268E0,8.283938169E-1
2.434997000E0,-4.309563041E-1,-6.631938934E0,1.436521053E0
2.440002000E0,-2.825157940E-1,-6.646304131E0,1.898601890E0
2.445006000E0,-1.580173075E-1,-6.660669327E0,2.370259762E0
2.449950000E0,-6.943184882E-2,-6.629544735E0,2.822763920E0
2.454955000E0,6.464344263E-2,-6.531382084E0,3.248931646E0
2.459960000E0,1.843535304E-1,-6.428431511E0,3.615244627E0
2.464965000E0,4.812345505E-1,-6.227318764E0,4.058171749E0
2.469970000E0,7.685387731E-1,-5.995080948E0,4.367023945E0
2.474975000E0,1.005564690E0,-5.731719017E0,4.568136692E0
2.479979000E0,1.340752959E0,-5.389348030E0,4.752490520E0
2.484984000E0,1.924938202E0,-5.133168221E0,4.814739704E0
2.489989000E0,2.559401512E0,-4.958391666E0,4.848258495E0
2.494994000E0,3.471592426E0,-4.941632271E0,4.683058739E0
2.499999000E0,4.201824188E0,-5.214571476E0,4.271255970E0
2.505004000E0,5.001487255E0,-5.712565422E0,3.711012602E0
2.509948000E0,6.095637321E0,-6.299144745E0,3.064578056E0
2.514953000E0,7.041347027E0,-6.995857239E0,2.533065319E0
2.519957000E0,7.797914982E0,-7.680599213E0,2.185906172E0
2.524962000E0,8.971074104E0,-8.394071579E0,1.920149803E0
2.529967000E0,9.777919769E0,-8.920795441E0,1.900996208E0
2.534972000E0,1.045787334E1,-9.466673851E0,2.001552582E0
2.539977000E0,1.087685871E1,-1.007001209E1,2.042253971E0
2.544982000E0,1.112106705E1,-1.067813969E1,1.956062794E0
2.549987000E0,1.124317074E1,-1.123838234E1,1.874659896E0
2.554992000E0,1.107797146E1,-1.199255657E1,2.061407566E0
2.559996000E0,1.058716011E1,-1.251209831E1,2.437297344E0
2.565001000E0,9.749189377E0,-1.292150688E1,2.832340717E0
2.569948000E0,8.815450668E0,-1.317050362E1,3.227383852E0
2.574953000E0,7.915230751E0,-1.332852077E1,3.610456228E0
2.579957000E0,7.180211067E0,-1.326627159E1,3.952826977E0
2.584962000E0,6.315904140E0,-1.296460247E1,4.460397720E0
2.589967000E0,5.693411827E0,-1.252885723E1,4.910507679E0
2.594972000E0,5.135562420E0,-1.202607536E1,5.339069843E0
2.599977000E0,4.707000732E0,-1.149935055E1,5.523423195E0
2.604982000E0,4.388571739E0,-1.102529907E1,5.394136429E0
2.609987000E0,4.254496574E0,-1.058237171E1,4.848258495E0
2.614991000E0,4.235342979E0,-1.040998936E1,4.352658749E0
2.619996000E0,4.302380562E0,-1.054885292E1,3.840299606E0
2.625001000E0,4.491522312E0,-1.107078838E1,3.306392431E0
2.630006000E0,4.656722069E0,-1.182256794E1,2.863465309E0
2.634950000E0,4.525041103E0,-1.253364563E1,2.676717520E0
2.639955000E0,4.077325344E0,-1.314416695E1,2.980781078E0
2.644960000E0,3.435679436E0,-1.367089176E1,3.509899616E0
2.649965000E0,2.760514498E0,-1.392946529E1,3.679888010E0
2.654969000E0,1.860294700E0,-1.418085670E1,3.016694069E0
2.659974000E0,7.781155705E-1,-1.439154625E1,1.757344007E0
2.664979000E0,9.097966552E-2,-1.453280449E1,-2.873042040E-2
2.669984000E0,-3.088520169E-1,-1.463096619E1,-1.886630893E0
2.674989000E0,-3.591302633E-1,-1.467406178E1,-2.734178305E0
2.679994000E0,-4.022258818E-1,-1.455435181E1,-2.743755102E0
2.684999000E0,-5.817909837E-1,-1.395340729E1,-2.324769735E0
2.690003000E0,-9.935936928E-1,-1.268687439E1,-1.991975784E0
2.695008000E0,-1.357512355E0,-1.133175659E1,-1.707065821E0
2.699952000E0,-1.479616642E0,-9.804255486E0,-6.344634295E-1
2.704957000E0,-1.577778935E0,-8.717288017E0,1.063025594E0
2.709962000E0,-1.951274395E0,-7.953537941E0,2.561795712E0
2.714967000E0,-2.439691544E0,-7.467514992E0,3.646369219E0
2.719972000E0,-2.588132143E0,-7.295132637E0,4.098873138E0
2.724977000E0,-2.497152328E0,-7.371747017E0,4.012681961E0
2.729981000E0,-2.468421936E0,-7.620744228E0,3.632004023E0
2.734986000E0,-2.281674147E0,-8.030152321E0,3.038241863E0
2.739991000E0,-1.917755604E0,-8.528146744E0,2.707842112E0
2.744996000E0,-8.212111592E-1,-9.074024200E0,2.406172752E0
2.750001000E0,6.991068721E-1,-9.682151794E0,2.126051188E0
2.755006000E0,2.140416384E0,-1.043871975E1,1.510741234E0
2.759950000E0,3.275267839E0,-1.135809326E1,6.368576288E-1
2.764954000E0,3.818751812E0,-1.197100830E1,1.340752989E-1
2.769959000E0,4.084507942E0,-1.253364563E1,2.154781483E-2
2.774964000E0,3.943250179E0,-1.297896767E1,8.140286058E-2
2.779969000E0,3.411737442E0,-1.330936718E1,2.059013397E-1
2.784974000E0,2.657563925E0,-1.345062542E1,4.118026793E-1
2.789979000E0,1.798045516E0,-1.340513515E1,3.830722570E-1
2.794984000E0,1.285686255E0,-1.316332054E1,-1.532289088E-1
2.799989000E0,7.541735172E-1,-1.276348972E1,-8.044517636E-1
2.804993000E0,2.849099934E-1,-1.224155331E1,-9.097966552E-1
2.809998000E0,1.771709323E-1,-1.161906052E1,-5.315127969E-1
2.815003000E0,3.567360640E-1,-1.090080070E1,1.005564705E-1
2.820008000E0,7.565677166E-1,-9.868899345E0,1.115697980E0
2.824952000E0,9.768342972E-1,-9.081207275E0,1.956062794E0
2.829957000E0,9.720458984E-1,-8.415618896E0,2.789244890E0
2.834962000E0,1.039083481E0,-7.924807549E0,3.423708439E0
2.839966000E0,1.271321058E0,-7.618350029E0,3.691859007E0
2.844971000E0,1.522712231E0,-7.328651428E0,3.756502390E0
2.849976000E0,1.845929503E0,-7.062894821E0,3.296815634E0
2.854981000E0,1.742978811E0,-6.912060261E0,2.887407303E0
2.859986000E0,1.268926859E0,-6.768408298E0,2.985569477E0
2.864991000E0,7.829039693E-1,-6.694188118E0,3.081337690E0
2.869996000E0,2.777273953E-1,-6.710947514E0,2.887407303E0
2.875001000E0,-7.661445439E-2,-6.885724068E0,2.470816135E0
2.880005000E0,2.394201756E-1,-7.041347027E0,1.010353088E0
2.884827000E0,4.141969085E-1,-7.292738438E0,8.092401624E-1
2.889954000E0,-5.746084079E-2,-7.541735172E0,1.762132406E0
2.894959000E0,-2.920926213E-1,-7.721300602E0,1.632845521E0
2.899964000E0,1.580173075E-1,-7.819462776E0,9.552865028E-1
2.904969000E0,6.272808313E-1,-7.862558365E0,5.363011956E-1
2.909974000E0,1.175553083E0,-7.967903137E0,7.422025502E-2
2.914978000E0,1.628057122E0,-7.929595947E0,-3.016694188E-1
2.919983000E0,2.027888775E0,-7.797914982E0,-3.112462163E-1
2.924988000E0,2.284068346E0,-7.671022415E0,-9.576806426E-2
2.929993000E0,2.243366957E0,-7.496245384E0,2.154781483E-2
2.934998000E0,2.159569979E0,-7.299921036E0,2.394201607E-2
2.940003000E0,2.140416384E0,-7.125144482E0,-1.436521020E-2
2.945008000E0,2.126051188E0,-7.058106422E0,1.149216816E-1
2.949952000E0,2.188300371E0,-6.995857239E0,2.059013397E-1
2.954956000E0,2.176329374E0,-6.993463039E0,3.040636182E-1
2.959961000E0,2.090138197E0,-7.055712223E0,4.237737060E-1
2.964966000E0,1.934514999E0,-7.170634270E0,4.932055473E-1
2.969971000E0,1.570596337E0,-7.357381821E0,6.248866320E-1
2.974976000E0,1.369483352E0,-7.410054207E0,8.283938169E-1
2.979981000E0,1.240196466E0,-7.438784599E0,1.060631394E0
2.984986000E0,1.194706678E0,-7.474697590E0,1.218648672E0
2.989991000E0,1.012747288E0,-7.472303391E0,1.441309452E0
2.994995000E0,7.661445141E-1,-7.613561630E0,1.635239720E0
3.000000000E0,5.458779931E-1,-7.898471355E0,1.678335428E0
3.005005000E0,4.788403511E-1,-8.171410561E0,1.790862918E0
3.009949000E0,5.051765442E-1,-8.367734909E0,1.893813491E0
3.014954000E0,4.548983276E-1,-8.358158112E0,2.308010340E0
3.019959000E0,6.033388376E-1,-8.315062523E0,2.657563925E0
3.024964000E0,8.571242094E-1,-8.137891769E0,2.983175278E0
3.029968000E0,1.072602391E0,-7.783549786E0,3.145981073E0
3.034973000E0,1.398213744E0,-7.462726593E0,3.181894064E0
3.039978000E0,1.788468719E0,-7.132327080E0,3.234566450E0
3.044983000E0,2.090138197E0,-6.842628479E0,3.236960649E0
3.049988000E0,2.387019157E0,-6.521805286E0,3.229778051E0
3.054993000E0,2.501940727E0,-6.241683960E0,3.215412855E0
3.059998000E0,2.561795712E0,-6.093243122E0,3.191470861E0
3.065003000E0,2.657563925E0,-6.062118530E0,3.224989653E0
3.070007000E0,2.717418909E0,-6.177040577E0,3.284844637E0
3.074951000E0,2.647987127E0,-6.361393929E0,3.260902643E0
3.079956000E0,2.458845139E0,-6.624756336E0,3.184288263E0
3.084961000E0,1.987187386E0,-7.084442616E0,3.002328873E0
3.089966000E0,1.556231141E0,-7.618350029E0,2.973598480E0
3.094971000E0,1.235408068E0,-8.209717751E0,3.090914488E0
3.099976000E0,1.029506683E0,-8.894459724E0,3.313575268E0
3.104980000E0,8.475474119E-1,-9.521739960E0,3.711012602E0
3.109985000E0,7.781155705E-1,-1.022802925E1,4.146757126E0
3.114990000E0,1.005564690E0,-1.113303757E1,4.639962673E0
3.119995000E0,1.520318031E0,-1.191115379E1,4.927267075E0
3.125000000E0,2.023100376E0,-1.260786629E1,5.147533417E0
3.130005000E0,2.659958124E0,-1.321359921E1,5.195417881E0
3.134949000E0,3.447650433E0,-1.370441055E1,5.135562420E0
3.139954000E0,3.960009575E0,-1.392707157E1,4.991910458E0
3.144958000E0,4.268861771E0,-1.361582470E1,4.728548527E0
3.149963000E0,4.417302132E0,-1.297178459E1,4.546588898E0
3.154968000E0,4.213795185E0,-1.214578533E1,4.441244125E0
3.159973000E0,3.720589399E0,-1.130781460E1,4.108449936E0
3.164978000E0,3.339911461E0,-1.049378586E1,3.643975019E0
3.169983000E0,3.181894064E0,-9.792284966E0,3.011905670E0
3.174988000E0,3.383007050E0,-9.114726067E0,1.963245392E0
3.179931000E0,3.648763418E0,-8.726864815E0,1.599326730E0
3.184997000E0,3.948038578E0,-8.475474358E0,1.460463047E0
3.190002000E0,4.153939724E0,-8.346187592E0,1.268926859E0
3.195007000E0,4.304774761E0,-8.250418663E0,9.193734527E-1
3.199951000E0,4.606443882E0,-8.228871346E0,5.793967843E-1
3.204956000E0,4.513070107E0,-8.310274124E0,1.149216816E-1
3.209961000E0,4.118026733E0,-8.506598473E0,-3.591302633E-1
3.214966000E0,3.344699860E0,-8.894459724E0,-7.445967197E-1
3.219970000E0,2.475604534E0,-9.423578262E0,-8.331822157E-1
3.224975000E0,1.460463047E0,-1.010353088E1,-6.799532771E-1
3.229980000E0,2.873041928E-1,-1.088643551E1,-6.392518282E-1
3.234985000E0,-1.175553083E0,-1.203325748E1,-7.254431248E-1
3.239990000E0,-2.176329374E0,-1.305079365E1,-9.265560508E-1
3.244995000E0,-2.753331900E0,-1.401565647E1,-1.113303781E0
3.250000000E0,-3.035847664E0,-1.509544182E1,-1.326387763E0
3.255004000E0,-3.296815634E0,-1.658702850E1,-1.400607944E0
3.259948000E0,-3.076549292E0,-1.780328369E1,-1.017535686E0
3.264953000E0,-2.609679937E0,-1.879448318E1,-2.154781483E-2
3.269958000E0,-2.116474390E0,-1.941458130E1,1.187524080E0
3.274963000E0,-1.168370485E0,-1.961330032E1,1.460463047E0
3.279968000E0,-1.532289088E-1,-1.956781006E1,1.419761658E0
3.284973000E0,1.101332784E0,-1.935712051E1,1.077390790E0
3.289978000E0,2.300827742E0,-1.903629684E1,3.232172430E-1
3.294982000E0,3.509899616E0,-1.862688828E1,-2.873041928E-1
3.299987000E0,4.283226967E0,-1.816959763E1,-7.541735172E-1
3.304992000E0,4.754884720E0,-1.755907440E1,-1.005564690E0
3.309997000E0,4.932055473E0,-1.684799767E1,-1.065419793E0
3.315002000E0,5.341464043E0,-1.613452530E1,-1.716642618E0
3.320007000E0,6.141127586E0,-1.525106525E1,-3.390189648E0
3.324951000E0,6.490680695E0,-1.446337223E1,-4.484339714E0
3.329955000E0,6.768408298E0,-1.348653793E1,-4.692635536E0
3.334960000E0,7.534552574E0,-1.221282291E1,-4.912901878E0
3.339965000E0,8.104372978E0,-1.120007515E1,-5.030217648E0
3.344970000E0,7.886500359E0,-1.017296314E1,-5.329493046E0
3.349975000E0,7.316680431E0,-9.162610054E0,-4.709394932E0
3.354980000E0,7.012616634E0,-7.900865555E0,-4.237737179E0
3.359985000E0,6.938396454E0,-7.077260017E0,-4.367023945E0
3.364990000E0,7.079654217E0,-6.193799973E0,-4.213795185E0
3.369994000E0,6.641515732E0,-5.353435040E0,-2.202665567E0
3.374999000E0,4.723760128E0,-4.876988888E0,-6.560112834E-1
3.380004000E0,4.194641590E0,-4.108449936E0,7.110779285E-1
3.384948000E0,3.816357613E0,-4.211400986E0,1.766920805E0
3.389953000E0,3.083731890E0,-4.910507679E0,2.482787132E0
3.394958000E0,2.236184359E0,-5.676652431E0,2.367865562E0
3.399963000E0,1.343147159E0,-6.191405773E0,1.936909199E0
3.404967000E0,5.291185975E-1,-6.536170483E0,1.577778935E0
3.409972000E0,-3.519476354E-1,-6.849811077E0,1.340752959E0
3.414977000E0,-8.403648138E-1,-7.077260017E0,1.460463047E0
3.419982000E0,-1.074996591E0,-7.165845871E0,1.742978811E0
3.424987000E0,-1.151610970E0,-7.134721279E0,2.059013367E0
3.429992000E0,-1.005564690E0,-7.096413612E0,2.422932148E0
3.434997000E0,-7.757213712E-1,-7.067683220E0,2.726995707E0
3.440002000E0,-5.410895944E-1,-6.940790653E0,2.935291290E0
3.445006000E0,-3.830722570E-1,-6.761225700E0,2.961627483E0
3.449950000E0,-2.873041928E-1,-6.548141479E0,2.906560898E0
3.454955000E0,-3.327940404E-1,-6.394912720E0,2.794033289E0
3.459960000E0,-4.836287498E-1,-6.265625954E0,2.578555346E0
3.464965000E0,-6.655880809E-1,-6.119579315E0,2.365471363E0
3.469970000E0,-9.361328483E-1,-5.832275391E0,2.080561161E0
3.474975000E0,-1.139639974E0,-5.640739441E0,1.805228114E0
3.479979000E0,-1.302445769E0,-5.501875401E0,1.529894829E0
3.484984000E0,-1.340752959E0,-5.382165432E0,1.309628367E0
3.489989000E0,-1.312022567E0,-5.343858242E0,1.170764685E0
3.494994000E0,-1.316810966E0,-5.394136429E0,1.091755986E0
3.499999000E0,-1.319205165E0,-5.413290024E0,1.142034173E0
3.505004000E0,-1.283292055E0,-5.451597214E0,1.345541358E0
3.509948000E0,-1.170764685E0,-5.506663799E0,1.553836942E0
3.514953000E0,-1.060631394E0,-5.544970989E0,1.771709204E0
3.519957000E0,-8.954314590E-1,-5.580883980E0,1.889025092E0
3.524962000E0,-7.589619160E-1,-5.635950565E0,1.941697598E0
3.529967000E0,-5.339069963E-1,-5.679046631E0,2.051830769E0
3.534972000E0,-2.370259613E-1,-5.767632008E0,2.267308950E0
3.539977000E0,1.173158810E-1,-5.901707172E0,2.477998734E0
3.544982000E0,5.291185975E-1,-5.966350555E0,2.638410330E0
3.549987000E0,7.972691655E-1,-5.798756599E0,2.911349297E0
3.554992000E0,1.175553083E0,-5.681440830E0,3.224989653E0
3.559996000E0,1.951274395E0,-5.796362400E0,3.509899616E0
3.565001000E0,2.796427488E0,-5.999869347E0,3.684676409E0
3.569948000E0,3.634398222E0,-6.464344501E0,3.725377798E0
3.574953000E0,4.438849926E0,-6.842628479E0,3.620033026E0
3.579957000E0,5.272032261E0,-7.187393665E0,3.404554844E0
3.584962000E0,6.258443356E0,-7.618350029E0,3.062183857E0
3.589967000E0,7.735665798E0,-8.245630264E0,2.700659513E0
3.594972000E0,8.590395927E0,-8.511386871E0,2.497152328E0
3.599977000E0,9.706093788E0,-8.671798706E0,2.298433542E0
3.604982000E0,1.073799419E1,-9.042900085E0,2.161964178E0
3.609987000E0,1.154005241E1,-9.722852707E0,2.300827742E0
3.614991000E0,1.188721180E1,-1.068053341E1,2.729389906E0
3.619996000E0,1.191354752E1,-1.174834728E1,3.342305660E0
3.625001000E0,1.176271248E1,-1.248336792E1,3.780444384E0
3.630006000E0,1.121204662E1,-1.314416695E1,3.861847401E0
3.634950000E0,1.043393135E1,-1.359427738E1,3.687070608E0
3.639955000E0,9.373299599E0,-1.384806252E1,3.632004023E0
3.644960000E0,8.123526573E0,-1.396298409E1,4.022258759E0
3.649965000E0,6.713341713E0,-1.385285091E1,4.817133904E0
3.654969000E0,5.956773758E0,-1.365892029E1,5.372588634E0
3.659974000E0,5.554547787E0,-1.339076996E1,5.856217384E0
3.664979000E0,5.401319027E0,-1.314656162E1,6.196194172E0
3.669984000E0,5.418078423E0,-1.289038181E1,6.351817131E0
3.674989000E0,5.564124584E0,-1.260786629E1,6.306327343E0
3.679994000E0,5.758055210E0,-1.224634171E1,6.217741966E0
3.684999000E0,6.021417141E0,-1.198537350E1,6.014234543E0
3.690003000E0,6.418854713E0,-1.192551899E1,5.616796970E0
3.695008000E0,6.837840080E0,-1.214339066E1,4.915296078E0
3.699952000E0,7.242460251E0,-1.263659668E1,4.094084740E0
3.704957000E0,7.345410824E0,-1.313219643E1,3.165134668E0
3.709962000E0,6.892906666E0,-1.361103630E1,1.795651317E0
3.714967000E0,6.028599739E0,-1.385285091E1,5.913678408E-1
3.719972000E0,4.955997467E0,-1.379778481E1,-2.059013397E-1
3.724977000E0,4.211400986E0,-1.361103630E1,-1.113303781E0
3.729981000E0,3.260902643E0,-1.354878712E1,-1.903390408E0
3.734986000E0,2.358288765E0,-1.367807388E1,-1.857900500E0
3.739991000E0,2.042253971E0,-1.363976669E1,-1.101332784E0
3.744996000E0,1.714248419E0,-1.323993587E1,2.513911724E-1
3.750001000E0,8.523358107E-1,-1.243069553E1,1.592144132E0
3.755006000E0,-2.849099934E-1,-1.142991924E1,2.207453966E0
3.759950000E0,-1.362300754E0,-1.046266174E1,1.946485996E0
3.764954000E0,-2.111685991E0,-9.849745750E0,1.096544385E0
3.769959000E0,-2.190694571E0,-9.442731857E0,3.830722570E-1
3.774964000E0,-2.181117773E0,-9.016563416E0,1.412578970E-1
3.779969000E0,-2.346317768E0,-8.504204750E0,2.609679997E-1
3.785951000E0,-2.372653961E0,-7.821856976E0,1.089361787E0
3.790955000E0,-2.482787132E0,-7.436390400E0,2.473210335E0
3.795960000E0,-2.489969730E0,-7.326257229E0,3.430891037E0
3.800965000E0,-2.580949545E0,-7.536946774E0,3.885789394E0
3.805970000E0,-2.827552319E0,-7.984662533E0,3.797203779E0
3.810975000E0,-2.633621931E0,-8.449137688E0,4.036623955E0
3.815980000E0,-2.703053713E0,-8.997409821E0,4.503493309E0
3.820985000E0,-2.789244890E0,-9.940725327E0,3.854664803E0
3.825989000E0,-1.924938202E0,-1.081700325E1,2.573766708E0
3.830994000E0,3.687070608E-1,-1.133415127E1,1.221042871E-1
3.835999000E0,1.431732655E0,-1.192073059E1,-8.212111592E-1
3.841004000E0,1.666364431E0,-1.256955910E1,-8.188169599E-1
3.845948000E0,1.630451322E0,-1.299093819E1,-5.027823448E-1
3.850953000E0,1.482010841E0,-1.319205093E1,-1.987187415E-1
3.855775000E0,1.359906554E0,-1.309388924E1,2.992752194E-1
3.860963000E0,1.333570361E0,-1.275870132E1,1.089361787E0
3.865967000E0,1.522712231E0,-1.221761131E1,1.580173135E0
3.870972000E0,1.692700624E0,-1.159511852E1,1.462857246E0
3.875977000E0,1.754949808E0,-1.110909557E1,1.017535686E0
3.880982000E0,1.759738207E0,-1.072123528E1,6.512228847E-1
3.885987000E0,1.726219416E0,-1.036210537E1,7.709329724E-1
3.890992000E0,1.841141105E0,-9.945513725E0,1.446097851E0
3.895997000E0,1.968033791E0,-9.607931137E0,2.056619167E0
3.901001000E0,2.200271368E0,-9.282320023E0,2.449268341E0
3.906006000E0,2.420537949E0,-8.935160637E0,2.698265314E0
3.910950000E0,2.676717520E0,-8.609549522E0,2.777273893E0
3.915955000E0,2.863465309E0,-8.341399193E0,2.722207308E0
3.920960000E0,2.983175278E0,-8.068459511E0,2.633621931E0
3.925965000E0,2.980781078E0,-7.905653954E0,2.535459518E0
3.930970000E0,2.827552319E0,-7.656657219E0,2.384624958E0
3.935975000E0,2.604891539E0,-7.290344238E0,2.197877169E0
3.940979000E0,2.044648170E0,-6.947973251E0,2.030282974E0
3.945984000E0,1.381454349E0,-6.706159115E0,1.951274395E0
3.950989000E0,6.727706790E-1,-6.490680695E0,1.912967205E0
3.955994000E0,2.322375625E-1,-6.483498096E0,1.843535304E0
3.960816000E0,-4.309562966E-2,-6.677428722E0,1.596932530E0
3.966004000E0,-8.379705995E-2,-6.840234280E0,1.458068848E0
3.971009000E0,-2.489969730E-1,-7.003039837E0,1.254561663E0
3.975952000E0,-4.381389022E-1,-7.146692276E0,1.151610970E0
3.980957000E0,-4.836287498E-1,-7.319074631E0,9.289502501E-1
3.985962000E0,-4.908113480E-1,-7.374141216E0,7.924807668E-1
3.990967000E0,5.051765442E-1,-7.486668587E0,7.469909191E-1
3.995972000E0,1.355118155E0,-7.570465565E0,8.140285611E-1
4.000977000E0,1.651999116E0,-7.642292023E0,7.661445141E-1
4.005982000E0,1.561019540E0,-7.584830761E0,6.057330370E-1
4.010987000E0,1.259350061E0,-7.520187378E0,7.158663273E-1
4.015991000E0,1.244984865E0,-7.386112213E0,8.212111592E-1
4.020996000E0,1.453280449E0,-7.321468830E0,9.720458984E-1
4.026001000E0,1.608903527E0,-7.321468830E0,9.600749016E-1
4.031006000E0,1.604115129E0,-7.338228226E0,8.762778044E-1
4.035950000E0,1.613691926E0,-7.481880188E0,7.829039693E-1
4.040955000E0,1.173158884E0,-7.687781811E0,7.302315235E-1
4.045777000E0,8.954314590E-1,-7.876923561E0,6.560112834E-1
4.050964000E0,1.434126854E0,-8.078036308E0,8.044517636E-1
4.055969000E0,1.790862918E0,-8.343792915E0,1.240196466E0
4.060974000E0,1.496376038E0,-8.580819130E0,1.403002143E0
4.065979000E0,9.720458984E-1,-8.695740700E0,1.144428372E0
4.070984000E0,2.920926213E-1,-8.604761124E0,1.089361787E0
4.075989000E0,-5.267243832E-2,-8.398859978E0,1.206677675E0
4.080994000E0,-1.221042871E-1,-8.044517517E0,1.561019540E0
4.085999000E0,-4.548983276E-2,-7.807491779E0,1.908178806E0
4.091003000E0,2.298433632E-1,-7.611167431E0,2.382230759E0
4.096008000E0,8.738836050E-1,-7.472303391E0,2.861071110E0
4.100952000E0,1.395819545E0,-7.309497833E0,3.335123062E0
4.105957000E0,1.848323703E0,-7.295132637E0,3.773261786E0
4.110962000E0,2.329558372E0,-7.264008045E0,4.065354347E0
4.115967000E0,2.928108692E0,-7.103596210E0,4.062960148E0
4.120972000E0,3.366247654E0,-6.947973251E0,3.940855980E0
4.125976000E0,3.622427225E0,-6.543353081E0,3.696647406E0
4.130981000E0,3.667917013E0,-5.992686749E0,3.531447411E0
4.135986000E0,3.423708439E0,-5.607220173E0,3.531447411E0
4.140991000E0,3.193865061E0,-5.343858242E0,3.596091032E0
4.145996000E0,2.889801502E0,-5.291185856E0,3.564966440E0
4.151001000E0,2.430114746E0,-5.408501625E0,3.567360640E0
4.156006000E0,1.692700624E0,-5.837063789E0,3.483563423E0
4.160950000E0,1.173158884E0,-6.440402508E0,3.248931646E0
4.165954000E0,8.044517636E-1,-7.290344238E0,3.112462282E0
4.170959000E0,5.003881454E-1,-8.214506149E0,3.071760893E0
4.175964000E0,1.556231081E-1,-9.217676163E0,3.138798475E0
4.180969000E0,-1.388636976E-1,-1.028070164E1,3.296815634E0
4.185974000E0,-2.322375625E-1,-1.152808094E1,3.756502390E0
4.190979000E0,1.915361360E-2,-1.244266605E1,4.235342979E0
4.195984000E0,4.740519226E-1,-1.326387787E1,4.764461517E0
4.200989000E0,1.019929886E0,-1.394622517E1,5.307945251E0
4.205993000E0,1.759738207E0,-1.437957573E1,5.770026207E0
4.210998000E0,2.406172752E0,-1.449210262E1,6.136339188E0
4.215881000E0,3.148375273E0,-1.392707157E1,6.445190907E0
4.221008000E0,3.667917013E0,-1.304121685E1,6.495469093E0
4.225952000E0,4.158728123E0,-1.198776817E1,6.380547523E0
4.230957000E0,4.522646904E0,-1.094868469E1,6.227318764E0
4.235962000E0,4.707000732E0,-9.933543205E0,5.956773758E0
4.240966000E0,4.709394932E0,-8.985439301E0,5.504269600E0
4.245971000E0,4.771644115E0,-7.996633530E0,4.747702122E0
4.250976000E0,4.948814869E0,-7.441178799E0,4.091690540E0
4.255981000E0,5.061342239E0,-7.046135426E0,3.569754839E0
4.260986000E0,4.891354084E0,-6.845022678E0,3.131615877E0
4.265991000E0,4.589684486E0,-6.754043102E0,2.691082716E0
4.270996000E0,4.254496574E0,-6.787561893E0,2.327163935E0
4.276001000E0,3.995922565E0,-7.024587631E0,1.733402014E0
4.281005000E0,3.816357613E0,-7.354987621E0,1.165976286E0
4.285949000E0,3.481169224E0,-7.850587368E0,8.690952063E-1
4.290954000E0,2.983175278E0,-8.487444878E0,7.398083210E-1
4.295959000E0,2.068590164E0,-9.215282440E0,6.153098345E-1
4.300964000E0,7.661445141E-1,-1.003170490E1,4.309563041E-1
4.305969000E0,-1.007958889E0,-1.129105568E1,9.576806799E-3
4.310974000E0,-2.123656988E0,-1.255279922E1,-3.615244627E-1
4.315978000E0,-2.571372509E0,-1.394861889E1,-7.541735172E-1
4.320983000E0,-3.100491285E0,-1.559822369E1,-9.193734527E-1
4.325988000E0,-3.584120035E0,-1.743218231E1,-5.219359994E-1
4.330993000E0,-3.514688015E0,-1.904108620E1,1.675941236E-2
4.335998000E0,-3.100491285E0,-2.093250465E1,7.517793179E-1
4.341003000E0,-2.518700123E0,-2.234029579E1,1.118092179E0
4.346008000E0,-1.836352706E0,-2.341529274E1,1.048660398E0
4.350952000E0,-9.648633003E-1,-2.399229431E1,7.062895298E-1
4.355956000E0,3.663128614E-1,-2.418143654E1,3.208230138E-1
4.360961000E0,1.654393315E0,-2.413594818E1,-2.370259613E-1
4.365966000E0,2.920926094E0,-2.375048065E1,-1.347935557E0
4.370971000E0,4.027047157E0,-2.291969299E1,-2.351106167E0
4.375976000E0,5.073313236E0,-2.161485291E1,-3.105279684E0
4.380981000E0,5.791574001E0,-1.991736412E1,-3.500322819E0
4.385986000E0,6.308721542E0,-1.799003220E1,-3.763684988E0
4.390990000E0,6.569689274E0,-1.615128517E1,-3.897760391E0
4.395995000E0,6.804321289E0,-1.408987713E1,-3.904942989E0
4.401000000E0,7.498639584E0,-1.250012684E1,-4.649539471E0
4.406005000E0,8.499416351E0,-1.107078838E1,-5.114014626E0
4.410949000E0,8.286332130E0,-9.674968719E0,-4.718971729E0
4.415954000E0,8.408436775E0,-8.384494781E0,-4.103661537E0
4.420959000E0,8.542511940E0,-7.254431248E0,-4.089296341E0
4.425841000E0,8.104372978E0,-5.750872612E0,-4.067748547E0
4.430907000E0,8.609549522E0,-4.232948780E0,-3.301604033E0
4.435973000E0,8.528146744E0,-3.019088268E0,-2.255337954E0
4.440978000E0,8.039729118E0,-2.169146776E0,-1.436521020E-2
4.445983000E0,6.241683960E0,-2.485181332E0,1.060631394E0
4.450988000E0,4.331110954E0,-3.450044632E0,9.935936928E-1
4.455993000E0,2.849100113E0,-4.572925091E0,1.185129881E0
4.460998000E0,1.699883223E0,-5.386953831E0,1.347935557E0
4.466002000E0,3.950432837E-1,-6.102819920E0,1.381454349E0
4.471007000E0,-4.501099288E-1,-6.605602264E0,1.465251446E0
4.475951000E0,-1.096544385E0,-6.660669327E0,1.515529633E0
4.480956000E0,-1.498770237E0,-6.533776283E0,1.900996208E0
4.485961000E0,-1.953668594E0,-6.509834290E0,2.264914751E0
4.490966000E0,-2.214636564E0,-6.524199486E0,2.547430515E0
4.495971000E0,-2.248155355E0,-6.483498096E0,2.760514498E0
4.500976000E0,-2.190694571E0,-6.342240334E0,2.925714493E0
4.506957000E0,-1.982398987E0,-6.114790916E0,3.043030262E0
4.511962000E0,-1.721431017E0,-5.904101372E0,3.117250681E0
4.516967000E0,-1.417367458E0,-5.688623428E0,3.062183857E0
4.521972000E0,-1.027112484E0,-5.489904404E0,2.885013103E0
4.526976000E0,-6.392518282E-1,-5.358223438E0,2.664746523E0
4.531981000E0,-3.064578176E-1,-5.236119270E0,2.430114746E0
4.536986000E0,-8.858546615E-2,-5.200206280E0,2.157175779E0
4.541991000E0,1.029506698E-1,-5.193023682E0,1.877054095E0
4.546996000E0,2.561795712E-1,-5.161899090E0,1.546654344E0
4.552001000E0,2.130839527E-1,-5.123591423E0,1.465251446E0
4.557006000E0,-1.436521020E-2,-5.109226227E0,1.534683347E0
4.561949000E0,-2.322375625E-1,-5.039794445E0,1.709460020E0
4.566954000E0,-3.758896589E-1,-4.996698856E0,1.905784607E0
4.571901000E0,-4.548983276E-1,-4.975151062E0,2.123656988E0
4.576967000E0,-4.812345505E-1,-4.958391666E0,2.360682964E0
4.581972000E0,-3.830722570E-1,-4.965574265E0,2.487575531E0
4.586976000E0,-2.106897533E-1,-4.951209068E0,2.530671120E0
4.591981000E0,-3.830722719E-2,-4.876988888E0,2.494758129E0
4.596986000E0,1.628057212E-1,-4.853046894E0,2.286462545E0
4.601991000E0,5.339069963E-1,-4.800374508E0,2.015917778E0
4.606996000E0,9.816226959E-1,-4.577713490E0,1.970427990E0
4.612001000E0,1.374271750E0,-4.323928356E0,2.248155355E0
4.617006000E0,1.934514999E0,-4.237737179E0,2.619256735E0
4.621949000E0,2.624045134E0,-4.244919777E0,3.145981073E0
4.626954000E0,3.459621429E0,-4.544194698E0,3.684676409E0
4.631959000E0,4.225766182E0,-5.406107426E0,3.861847401E0
4.636964000E0,5.298368454E0,-6.347028732E0,3.960009575E0
4.641969000E0,6.191405773E0,-7.072471619E0,3.730166197E0
4.646974000E0,7.275979042E0,-7.730877399E0,3.428496838E0
4.651979000E0,8.066065788E0,-8.358158112E0,3.148375273E0
4.656984000E0,8.925583839E0,-8.834604263E0,2.882618904E0
4.661988000E0,9.603142738E0,-9.394847870E0,2.662352324E0
4.666993000E0,1.010592556E1,-1.036928749E1,2.427720547E0
4.671998000E0,1.006043530E1,-1.162145519E1,2.497152328E0
4.677003000E0,1.005085850E1,-1.293826580E1,2.540247917E0
4.682008000E0,1.016817474E1,-1.405396366E1,2.588132143E0
4.687989000E0,9.696516991E0,-1.513135433E1,2.899378300E0
4.692994000E0,8.236053467E0,-1.597411346E1,2.719813108E0
4.697999000E0,6.485892296E0,-1.656308746E1,2.439691544E0
4.703004000E0,4.845864296E0,-1.680490112E1,3.004723072E0
4.707948000E0,3.950432777E0,-1.656548119E1,4.125209332E0
4.712953000E0,3.368641853E0,-1.600523758E1,5.087678432E0
4.717958000E0,3.253720045E0,-1.526064205E1,5.719748020E0
4.722962000E0,3.481169224E0,-1.455435181E1,6.016628742E0
4.727967000E0,3.940855980E0,-1.396777248E1,6.078877926E0
4.732972000E0,4.716577530E0,-1.332133865E1,6.093243122E0
4.737977000E0,5.420472622E0,-1.292390060E1,6.133944988E0
4.742982000E0,6.112396717E0,-1.266053867E1,6.224924564E0
4.747987000E0,6.914454460E0,-1.266293240E1,6.069301128E0
4.752992000E0,7.867346764E0,-1.296460247E1,5.442020416E0
4.757996000E0,8.760383606E0,-1.341710663E1,4.407725334E0
4.763001000E0,9.414001465E0,-1.395819569E1,2.600103140E0
4.768006000E0,9.469067574E0,-1.419043350E1,1.074996591E0
4.772950000E0,8.923190117E0,-1.432690334E1,-4.118026793E-1
4.777955000E0,7.702147007E0,-1.432211494E1,-1.529894829E0
4.782960000E0,6.548141479E0,-1.422155857E1,-1.774103403E0
4.787965000E0,4.905719280E0,-1.431732655E1,-2.149993181E0
4.792970000E0,3.081337690E0,-1.403002167E1,-2.229001760E0
4.797974000E0,1.984793186E0,-1.337161636E1,-2.173935175E0
4.802979000E0,7.805097699E-1,-1.229662037E1,-1.096544385E0
4.807984000E0,-4.309563041E-1,-1.122880554E1,-3.591302410E-2
4.812989000E0,-1.290474772E0,-1.016099167E1,8.834604025E-1
4.817994000E0,-2.542642117E0,-9.349357605E0,1.551442742E0
4.822999000E0,-3.040636063E0,-8.207323074E0,1.419761658E0
4.828004000E0,-3.330334663E0,-7.457938194E0,1.312022567E0
4.833008000E0,-3.292027235E0,-6.907271862E0,1.374271750E0
4.837952000E0,-3.095702887E0,-6.579266071E0,2.025494576E0
4.842957000E0,-2.990357876E0,-6.428431511E0,3.071760893E0
4.847962000E0,-2.899378300E0,-6.435614109E0,3.828328609E0
4.852967000E0,-2.789244890E0,-6.670246124E0,4.335899353E0
4.857972000E0,-2.887407303E0,-7.163451672E0,4.422090530E0
4.862977000E0,-2.681505919E0,-7.635109425E0,4.424484730E0
4.868958000E0,-1.661576033E0,-8.020575523E0,3.490746021E0
4.873963000E0,-5.051765442E-1,-8.418013573E0,2.604891539E0
4.878968000E0,7.038952708E-1,-8.935160637E0,1.824381709E0
4.883973000E0,2.319981337E0,-9.651026726E0,8.858546019E-1
4.888978000E0,3.191470861E0,-1.096304989E1,3.878606856E-1
4.893982000E0,3.452438831E0,-1.198297977E1,4.644751251E-1
4.898987000E0,3.409343243E0,-1.266532707E1,1.175553083E0
4.903992000E0,3.088520288E0,-1.309867764E1,2.001552582E0
4.908997000E0,2.700659513E0,-1.323993587E1,2.396595955E0
4.914002000E0,2.121262789E0,-1.291193008E1,2.035071373E0
4.919007000E0,1.616086125E0,-1.237802315E1,1.364694953E0
4.923951000E0,1.252167463E0,-1.182735634E1,6.368576288E-1
4.928956000E0,7.805097699E-1,-1.135330486E1,1.915361285E-1
4.933960000E0,2.896983922E-1,-1.092713642E1,1.580173075E-1
4.938965000E0,-3.351882473E-2,-1.051772785E1,5.027823448E-1
4.943970000E0,-6.703764945E-2,-1.017775154E1,1.115697980E0
4.948975000E0,1.675941199E-1,-9.722852707E0,1.582567334E0
4.953980000E0,5.961562395E-1,-9.358934402E0,2.020706177E0
4.958985000E0,1.096544385E0,-8.944737434E0,2.387019157E0
4.963990000E0,1.525106430E0,-8.406042099E0,2.683900118E0
4.968994000E0,1.685518026E0,-7.836222172E0,2.868253708E0
4.973999000E0,2.351106167E0,-7.354987621E0,2.853888512E0
4.979004000E0,3.019088268E0,-7.110779285E0,2.595314741E0
4.983948000E0,3.181894064E0,-6.773196697E0,2.300827742E0
4.988953000E0,3.007117271E0,-6.423643112E0,1.972822189E0
4.993958000E0,2.552218914E0,-6.086060524E0,1.668758631E0
4.998963000E0,1.865083098E0,-5.817910194E0,1.738190413E0
5.003968000E0,1.012747288E0,-5.638344765E0,1.987187386E0
5.008972000E0,5.482721925E-1,-5.597643375E0,2.008735180E0
5.013977000E0,3.447650373E-1,-5.688623428E0,1.819593310E0
5.018982000E0,2.489969730E-1,-5.858611584E0,1.539471745E0
5.023865000E0,-1.197100803E-2,-6.124367714E0,1.252167463E0
5.028992000E0,-1.029506698E-1,-6.275202751E0,1.127668977E0
5.033997000E0,-3.998316824E-1,-6.617573261E0,8.499416113E-1
5.039002000E0,-3.902548850E-1,-6.885724068E0,5.027823448E-1
5.044006000E0,2.154781483E-2,-7.096413612E0,5.027823448E-1
5.048950000E0,8.882488012E-1,-7.400477409E0,7.469909191E-1
5.053955000E0,1.256955862E0,-7.723694801E0,9.528923035E-1
5.058960000E0,1.477222443E0,-7.915230751E0,1.017535686E0
5.063965000E0,1.774103403E0,-8.037335396E0,1.177947283E0
5.068970000E0,1.977610588E0,-8.066065788E0,1.309628367E0
5.073975000E0,2.157175779E0,-8.049305916E0,1.414973259E0
5.078980000E0,2.451662540E0,-7.946355343E0,1.467645645E0
5.083984000E0,2.612074137E0,-7.977479935E0,1.434126854E0
5.088989000E0,2.719813108E0,-8.082824707E0,1.326387763E0
5.093994000E0,2.700659513E0,-8.250418663E0,1.187524080E0
5.098999000E0,2.279279947E0,-8.379706383E0,1.110909581E0
5.104004000E0,1.939303398E0,-8.497021675E0,1.118092179E0
5.109985000E0,2.264914751E0,-8.765172005E0,8.236053586E-1
5.114990000E0,2.087743998E0,-9.028534889E0,7.038952708E-1
5.119995000E0,1.661576033E0,-9.239224434E0,7.350199223E-1
5.125000000E0,1.256955862E0,-9.445125580E0,7.637503147E-1
5.130005000E0,7.709329724E-1,-9.607931137E0,8.236053586E-1
5.134949000E0,2.849099934E-1,-9.502586365E0,1.027112484E0
5.139954000E0,5.746084079E-2,-9.485827446E0,1.379060149E0
5.144958000E0,1.125274822E-1,-9.399636269E0,1.762132406E0
5.149963000E0,2.298433632E-1,-9.200917244E0,2.138022184E0
5.154968000E0,5.051765442E-1,-9.030928612E0,2.477998734E0
5.159973000E0,1.134851575E0,-8.913613319E0,2.944868088E0
5.164978000E0,1.570596337E0,-8.813055992E0,3.342305660E0
5.169983000E0,1.915361404E0,-8.631096840E0,3.811569214E0
5.174988000E0,2.300827742E0,-8.317456245E0,4.228160381E0
5.179992000E0,2.707842112E0,-7.884106159E0,4.321534157E0
5.184997000E0,3.203441858E0,-7.259219646E0,4.082113743E0
5.190002000E0,3.579331636E0,-6.303933144E0,3.763684988E0
5.195007000E0,3.770867586E0,-5.540182590E0,3.454833031E0
5.199768000E0,3.569754839E0,-4.872200489E0,3.270479441E0
5.204956000E0,3.289633036E0,-4.663905144E0,3.289633036E0
5.209961000E0,2.786850691E0,-4.620809078E0,3.363853455E0
5.214966000E0,2.200271368E0,-4.910507679E0,3.500322819E0
5.219970000E0,1.326387763E0,-5.705382824E0,3.603273630E0
5.224975000E0,7.541735172E-1,-6.521805286E0,3.579331636E0
5.229980000E0,2.418143749E-1,-7.400477409E0,3.605667830E0
5.234985000E0,-2.274491638E-1,-8.228871346E0,3.622427225E0
5.239990000E0,-7.086837292E-1,-9.112331390E0,3.766079187E0
5.244995000E0,-1.029506683E0,-1.024718285E1,3.976768970E0
5.250000000E0,-1.079784989E0,-1.117613316E1,4.206612587E0
5.255004000E0,-8.667010069E-1,-1.210508347E1,4.493916512E0
5.259948000E0,-2.657563984E-1,-1.283292103E1,4.848258495E0
5.264953000E0,5.147533417E-1,-1.337640476E1,5.121197224E0
5.269958000E0,1.345541358E0,-1.366849709E1,5.269638062E0
5.274963000E0,2.351106167E0,-1.363258457E1,5.461174011E0
5.279968000E0,3.100491285E0,-1.303403378E1,5.614402771E0
5.284973000E0,3.694253206E0,-1.220324612E1,5.564124584E0
5.289978000E0,4.120420933E0,-1.128387260E1,5.339069843E0
5.294982000E0,4.321534157E0,-1.030464458E1,5.147533417E0
5.299987000E0,4.299986362E0,-9.303867340E0,5.042188644E0
5.304992000E0,4.192247391E0,-8.109161377E0,4.529829502E0
5.309997000E0,4.388571739E0,-7.371747017E0,3.892971992E0
5.315002000E0,4.656722069E0,-6.854599476E0,3.354276657E0
5.320007000E0,4.793191910E0,-6.610390663E0,2.920926094E0
5.324951000E0,4.656722069E0,-6.591237068E0,2.509123325E0
5.329955000E0,4.443638325E0,-6.799532890E0,1.980004787E0
5.334960000E0,4.386177540E0,-7.098807812E0,1.137245774E0
5.339965000E0,4.414907932E0,-7.615955830E0,6.320692301E-1
5.344970000E0,4.316745758E0,-8.286332130E0,3.782838583E-1
5.349975000E0,4.012681961E0,-9.109937668E0,2.082955539E-1
5.354980000E0,3.313575268E0,-1.017775154E1,6.224924326E-2
5.359985000E0,2.372653961E0,-1.130542088E1,1.675941236E-2
5.364990000E0,8.547300100E-1,-1.280179691E1,-3.830722719E-2
5.369994000E0,-4.884171486E-1,-1.437957573E1,5.746084079E-2
5.374999000E0,-1.599326730E0,-1.596453667E1,9.816227108E-2
5.380004000E0,-2.164358377E0,-1.762132454E1,-2.035071403E-1
5.384948000E0,-2.396595955E0,-1.962287712E1,-4.644751251E-1
5.389953000E0,-2.068590164E0,-2.137303925E1,-3.711012602E-1
5.394958000E0,-1.261744261E0,-2.299391365E1,-4.285621047E-1
5.399963000E0,-8.259995580E-1,-2.371696281E1,-2.585737705E-1
5.404967000E0,-4.189853072E-1,-2.372893333E1,-4.237737060E-1
5.410949000E0,5.267243981E-1,-2.276167488E1,-1.077390790E0
5.415954000E0,1.601720929E0,-2.171062088E1,-1.424550056E0
5.420959000E0,2.990357876E0,-2.059731674E1,-1.628057122E0
5.425964000E0,4.438849926E0,-1.936190987E1,-1.687912226E0
5.430968000E0,5.932831764E0,-1.774342918E1,-1.728613615E0
5.435973000E0,6.751648903E0,-1.651280975E1,-2.068590164E0
5.440978000E0,6.888118267E0,-1.536838055E1,-2.794033289E0
5.445983000E0,6.459556103E0,-1.431253815E1,-3.502717018E0
5.450988000E0,6.095637321E0,-1.317768574E1,-3.447650433E0
5.455993000E0,6.143521786E0,-1.200692177E1,-2.956839085E0
5.460998000E0,7.443572998E0,-1.074278259E1,-2.437297344E0
5.466002000E0,7.505822182E0,-9.950302124E0,-2.401384354E0
5.471007000E0,7.041347027E0,-9.138668060E0,-2.829946518E0
5.475829000E0,6.749254704E0,-8.070854187E0,-2.463633537E0
5.480956000E0,6.852205276E0,-7.333439827E0,-1.980004787E0
5.485961000E0,7.388506413E0,-6.473921299E0,-1.810016513E0
5.490966000E0,7.656657219E0,-5.480327606E0,-2.461239338E0
5.495971000E0,6.895300865E0,-4.766855717E0,-1.898601890E0
5.500976000E0,5.250484467E0,-4.139574528E0,-1.292868972E0
5.505980000E0,3.821146011E0,-3.833117008E0,-3.208230138E-1
5.510985000E0,3.215412855E0,-4.039018154E0,1.391031146E0
5.515990000E0,2.461239338E0,-4.551377296E0,1.994369984E0
5.520995000E0,1.130063176E0,-5.327098846E0,1.790862918E0
5.526000000E0,3.830722719E-2,-5.853823185E0,1.460463047E0
5.531005000E0,-7.685387731E-1,-6.162675381E0,1.233013868E0
5.535949000E0,-1.041477680E0,-6.349422932E0,1.218648672E0
5.540953000E0,-1.043871999E0,-6.378153324E0,1.331176162E0
5.545958000E0,-1.036689281E0,-6.284779549E0,1.505952835E0
5.550963000E0,-1.244984865E0,-6.110002518E0,1.728613615E0
5.555968000E0,-1.302445769E0,-5.932831764E0,1.898601890E0
5.560973000E0,-1.180341482E0,-5.760449409E0,2.094926596E0
5.565978000E0,-9.433154464E-1,-5.580883980E0,2.291250944E0
5.570924000E0,-8.283938169E-1,-5.453991413E0,2.418143749E0
5.575990000E0,-7.613561153E-1,-5.413290024E0,2.432508945E0
5.580995000E0,-6.560112834E-1,-5.346252441E0,2.480392933E0
5.586000000E0,-6.057330370E-1,-5.312733650E0,2.612074137E0
5.591005000E0,-5.650315881E-1,-5.319916248E0,2.676717520E0
5.595949000E0,-5.698199868E-1,-5.398924828E0,2.664746523E0
5.600953000E0,-5.410895944E-1,-5.468356609E0,2.576161146E0
5.605958000E0,-5.554547906E-1,-5.588066578E0,2.343923569E0
5.610963000E0,-6.153098345E-1,-5.774814606E0,2.145204782E0
5.615968000E0,-6.320692301E-1,-5.920860767E0,1.956062794E0
5.620973000E0,-6.105214357E-1,-6.030993938E0,1.831564307E0
5.625978000E0,-6.105214357E-1,-6.160281181E0,1.769315004E0
5.630983000E0,-5.578489900E-1,-6.263231754E0,1.740584612E0
5.635988000E0,-4.548983276E-1,-6.277596951E0,1.900996208E0
5.640992000E0,-3.591302633E-1,-6.272808552E0,2.109291792E0
5.645997000E0,-1.412578970E-1,-6.284779549E0,2.394201756E0
5.651002000E0,1.388636976E-1,-6.270414352E0,2.664746523E0
5.656007000E0,4.644751251E-1,-6.246472359E0,2.774879694E0
5.660951000E0,8.164227605E-1,-6.071695328E0,3.016694069E0
5.665956000E0,1.211466074E0,-5.853823185E0,3.394978046E0
5.670961000E0,1.460463047E0,-5.394136429E0,3.761290789E0
5.675965000E0,1.812410712E0,-5.109226227E0,4.070142746E0
5.680970000E0,2.224213362E0,-4.910507679E0,4.314351559E0
5.685975000E0,2.966415882E0,-4.898536682E0,4.335899353E0
5.690980000E0,4.177882195E0,-5.121197224E0,3.933673382E0
5.695985000E0,5.655104637E0,-5.662287235E0,3.251325846E0
5.700990000E0,7.012616634E0,-6.224924564E0,2.794033289E0
5.705995000E0,8.087613106E0,-6.825869083E0,2.794033289E0
5.711000000E0,9.100360870E0,-7.350199223E0,3.136404276E0
5.716004000E0,1.006761837E1,-7.852981567E0,3.677493811E0
5.720948000E0,1.142513084E1,-8.485051155E0,3.885789394E0
5.725953000E0,1.263420200E1,-9.054870605E0,4.350264549E0
5.730958000E0,1.291193008E1,-1.010831928E1,4.350264549E0
5.735963000E0,1.257434750E1,-1.131739140E1,4.125209332E0
5.740968000E0,1.215536213E1,-1.247139645E1,3.916913986E0
5.745973000E0,1.152329254E1,-1.342907715E1,3.861847401E0
5.750794000E0,1.019211674E1,-1.436281586E1,4.113238335E0
5.755982000E0,8.674192429E0,-1.476983070E1,4.249708176E0
5.760987000E0,7.026981831E0,-1.495418358E1,4.359841347E0
5.765992000E0,5.724536419E0,-1.489432907E1,4.458003521E0
5.770997000E0,5.044582844E0,-1.460702419E1,4.695029736E0
5.776002000E0,4.929661274E0,-1.405396366E1,5.224148273E0
5.781007000E0,4.965574265E0,-1.350329781E1,5.875370979E0
5.786988000E0,5.133168221E0,-1.281376743E1,6.375759125E0
5.791993000E0,5.384559631E0,-1.232295609E1,6.009446144E0
5.796998000E0,5.360617638E0,-1.238281155E1,5.157110691E0
5.802003000E0,5.509057999E0,-1.300530338E1,4.007893562E0
5.807008000E0,5.971138954E0,-1.396777248E1,3.009511471E0
5.811951000E0,6.160281181E0,-1.499249077E1,2.303221941E0
5.816956000E0,5.954379559E0,-1.595735455E1,1.754949808E0
5.821961000E0,5.051765442E0,-1.680969048E1,9.145850539E-1
5.826966000E0,4.017470360E0,-1.692221832E1,9.337386489E-2
5.831971000E0,3.033453465E0,-1.660139465E1,-2.633621991E-1
5.836976000E0,1.848323703E0,-1.606509399E1,-4.525041282E-1
5.841981000E0,4.261679053E-1,-1.499249077E1,-3.567360640E-1
5.846986000E0,-7.302315235E-1,-1.358470058E1,-2.082955539E-1
5.851990000E0,-8.619126081E-1,-1.195185471E1,-2.489969730E-1
5.856995000E0,-3.734954596E-1,-1.097262669E1,-6.009446383E-1
5.862000000E0,-1.675941199E-1,-1.015859795E1,-1.568202138E0
5.867005000E0,-6.943184733E-1,-9.421183586E0,-1.862688899E0
5.871949000E0,-6.105214357E-1,-8.626308441E0,-1.565807939E0
5.876954000E0,-5.458779931E-1,-7.788338184E0,-2.825157940E-1
5.881959000E0,-6.703764796E-1,-6.950367451E0,1.903390408E0
5.886963000E0,-5.027823448E-1,-6.619967937E0,3.476380825E0
5.891968000E0,-2.274491638E-1,-6.485892296E0,4.079719543E0
5.896973000E0,-3.639186621E-1,-6.524199486E0,4.108449936E0
5.901978000E0,-7.733271718E-1,-6.672640324E0,3.835511208E0
5.906983000E0,-1.218648672E0,-7.043741226E0,3.627215624E0
5.911988000E0,-1.510741234E0,-8.001421928E0,3.268085241E0
5.916993000E0,-1.474828243E0,-9.050082207E0,3.215412855E0
5.921998000E0,-1.422155857E0,-1.034534550E1,3.421314240E0
5.927002000E0,-6.799532771E-1,-1.140118885E1,3.122039080E0
5.932007000E0,3.639186621E-1,-1.252406883E1,2.355894566E0
5.936951000E0,1.503558636E0,-1.365892029E1,1.364694953E0
5.941956000E0,2.094926596E0,-1.490151119E1,1.077390760E-1
5.946961000E0,2.346317768E0,-1.545936012E1,-1.127668977E0
5.953003000E0,2.351106167E0,-1.529894924E1,-1.568202138E0
5.958008000E0,1.898601890E0,-1.478180122E1,-8.236053586E-1
5.962952000E0,1.211466074E0,-1.421198082E1,1.340752989E-1
5.967957000E0,7.158663273E-1,-1.339316463E1,9.002198577E-1
5.972962000E0,7.876923680E-1,-1.241154194E1,1.252167463E0
5.977967000E0,1.060631394E0,-1.154723454E1,1.252167463E0
5.982971000E0,1.180341482E0,-1.096783829E1,1.371877551E0
5.987976000E0,1.127668977E0,-1.043153667E1,1.611297727E0
5.992981000E0,1.091755986E0,-9.883264542E0,1.850717902E0
5.997986000E0,1.398213744E0,-9.179368973E0,1.975216389E0
6.002991000E0,1.731007814E0,-8.327033043E0,2.262520552E0
6.007996000E0,1.898601890E0,-7.675810814E0,2.463633537E0
6.013001000E0,2.070984364E0,-7.192182064E0,2.573766708E0
6.018006000E0,2.193088770E0,-6.907271862E0,2.470816135E0
6.022949000E0,2.291250944E0,-6.823474884E0,2.473210335E0
6.027954000E0,2.296039343E0,-6.864176273E0,2.542642117E0
6.032959000E0,2.331952572E0,-6.849811077E0,2.528276920E0
6.037964000E0,2.049436569E0,-6.890512466E0,2.454056740E0
6.042969000E0,1.606509328E0,-6.859387875E0,2.377442360E0
6.047974000E0,1.197100878E0,-6.856993675E0,2.315192938E0
6.052979000E0,6.847416759E-1,-6.756437302E0,2.149993181E0
6.057984000E0,7.398083210E-1,-6.375759125E0,9.409212470E-1
6.062988000E0,7.422025502E-2,-6.349422932E0,1.364694953E0
6.067993000E0,-5.243301988E-1,-6.531382084E0,1.723825216E0
6.072998000E0,-4.668693244E-1,-6.679822922E0,1.218648672E0
6.078003000E0,-1.771709323E-1,-6.861782074E0,1.007958889E0
6.083008000E0,-2.944868207E-1,-7.005434036E0,1.108515382E0
6.087952000E0,-7.900865376E-2,-7.113173485E0,8.643068075E-1
6.092957000E0,2.968810201E-1,-7.120356083E0,3.232172430E-1
6.097961000E0,5.243301988E-1,-7.091625214E0,1.771709323E-1
6.102966000E0,6.368576288E-1,-7.062894821E0,1.628057212E-1
6.107971000E0,8.164227605E-1,-6.924031258E0,2.011129409E-1
6.112976000E0,1.110909581E0,-6.811503887E0,2.729389966E-1
6.117981000E0,1.458068848E0,-6.780379295E0,3.184288144E-1
6.122986000E0,1.699883223E0,-6.780379295E0,3.639186621E-1
6.127991000E0,1.821987510E0,-6.840234280E0,3.375824392E-1
6.132996000E0,1.877054095E0,-6.943184853E0,4.237737060E-1
6.138000000E0,1.786074519E0,-7.149086475E0,4.716577232E-1
6.143005000E0,1.611297727E0,-7.424419403E0,4.596867263E-1
6.147949000E0,1.074996591E0,-7.647080421E0,4.357447028E-1
6.152954000E0,1.288080573E0,-7.975085735E0,2.370259613E-1
6.157959000E0,1.455674648E0,-8.327033043E0,1.987187415E-1
6.162964000E0,1.292868972E0,-8.607154846E0,2.346317619E-1
6.167969000E0,1.144428372E0,-8.726864815E0,3.926490843E-1
6.172973000E0,8.307880163E-1,-8.779537201E0,6.392518282E-1
6.177978000E0,4.118026793E-1,-8.899248123E0,8.810662031E-1
6.182983000E0,8.619125932E-2,-8.856152534E0,1.185129881E0
6.187988000E0,-4.788403213E-2,-8.734047890E0,1.369483352E0
6.192993000E0,-7.900865376E-2,-8.602366447E0,1.656787634E0
6.197998000E0,-4.548983276E-2,-8.348581314E0,1.994369984E0
6.203003000E0,2.226607651E-1,-8.133103371E0,2.300827742E0
6.208008000E0,6.847416759E-1,-7.946355343E0,2.655169725E0
6.212951000E0,1.218648672E0,-7.587224960E0,3.083731890E0
6.217956000E0,1.848323703E0,-7.273584843E0,3.366247654E0
6.222961000E0,2.513911724E0,-7.019799232E0,3.552995205E0
6.227966000E0,3.050212860E0,-6.742072105E0,3.562572241E0
6.232971000E0,3.627215624E0,-6.349422932E0,3.392583847E0
6.237976000E0,4.041412354E0,-6.011840343E0,3.349488258E0
6.242981000E0,4.067748547E0,-5.662287235E0,3.696647406E0
6.247985000E0,3.883395195E0,-5.509057999E0,4.144362926E0
6.252990000E0,3.495534420E0,-5.456385612E0,4.481945515E0
6.257995000E0,3.062183857E0,-5.521028996E0,4.714183331E0
6.263000000E0,2.564189911E0,-5.808333397E0,4.805162907E0
6.268005000E0,1.946485996E0,-6.246472359E0,4.759673119E0
6.272949000E0,1.134851575E0,-7.072471619E0,4.683058739E0
6.277954000E0,6.416460276E-1,-7.826645374E0,4.587290287E0
6.282959000E0,2.777273953E-1,-8.731653214E0,4.647145271E0
6.287963000E0,5.985504389E-2,-9.722852707E0,4.850652695E0
6.292968000E0,-1.077390760E-1,-1.071644688E1,5.099649429E0
6.297973000E0,-6.703764945E-2,-1.165976238E1,5.461174011E0
6.302978000E0,4.788403399E-3,-1.262462521E1,5.944802761E0
6.307983000E0,3.830722570E-1,-1.318726254E1,6.179434776E0
6.312988000E0,1.029506683E0,-1.352005672E1,6.342240334E0
6.317993000E0,1.831564307E0,-1.352963352E1,6.416460514E0
6.322997000E0,2.580949545E0,-1.315374374E1,6.332663536E0
6.328002000E0,3.172317266E0,-1.239957047E1,6.023811340E0
6.333007000E0,3.713406801E0,-1.119528675E1,5.540182590E0
6.337951000E0,3.840299606E0,-1.013704967E1,5.360617638E0
6.342956000E0,3.878606796E0,-9.114726067E0,5.030217648E0
6.347961000E0,3.964797974E0,-8.250418663E0,4.213795185E0
6.352966000E0,4.319139957E0,-7.659051418E0,3.265691042E0
6.359008000E0,4.723760128E0,-7.218518257E0,2.530671120E0
6.363952000E0,4.821922302E0,-7.067683220E0,2.140416384E0
6.368957000E0,4.738125324E0,-7.070077419E0,1.498770237E0
6.373962000E0,4.443638325E0,-7.168240070E0,9.816226959E-1
6.378967000E0,3.933673382E0,-7.395689011E0,4.094084799E-1
6.383971000E0,3.433285236E0,-7.788338184E0,-2.154781483E-2
6.388976000E0,2.949656487E0,-8.238448143E0,-4.692635238E-1
6.393981000E0,2.319981337E0,-8.585607529E0,-7.541735172E-1
6.398986000E0,1.783680320E0,-9.380482674E0,-1.094150186E0
6.403991000E0,1.003170490E0,-1.044350815E1,-1.436521053E0
6.408996000E0,3.471592367E-1,-1.204283428E1,-1.970427990E0
6.414001000E0,-4.405331016E-1,-1.422634697E1,-2.329558372E0
6.419006000E0,-1.515529633E0,-1.669716263E1,-2.533065319E0
6.423949000E0,-2.166752577E0,-1.888546371E1,-2.808398485E0
6.428954000E0,-2.475604534E0,-2.195483017E1,-2.681505919E0
6.433959000E0,-2.243366957E0,-2.399708366E1,-2.432508945E0
6.438964000E0,-1.793257117E0,-2.550543022E1,-2.370259762E0
6.443969000E0,-1.352723956E0,-2.642959213E1,-1.946485996E0
6.448974000E0,-6.200982332E-1,-2.641283226E1,-1.690306425E0
6.453979000E0,5.961562395E-1,-2.557965088E1,-1.900996208E0
6.458983000E0,1.470039845E0,-2.408088112E1,-2.087743998E0
6.463988000E0,2.281674147E0,-2.264914894E1,-1.757344007E0
6.468993000E0,3.153163671E0,-2.102109146E1,-1.106121182E0
6.473998000E0,4.417302132E0,-1.917037392E1,-7.852981687E-1
6.478881000E0,5.494692802E0,-1.691503525E1,-1.249773264E0
6.484008000E0,5.978321552E0,-1.532049656E1,-2.188300371E0
6.488952000E0,5.767632008E0,-1.412339592E1,-3.205836058E0
6.494994000E0,5.588066578E0,-1.292390060E1,-4.443638325E0
6.499999000E0,7.161057472E0,-1.156399441E1,-4.575319290E0
6.505004000E0,9.588777542E0,-1.061589050E1,-4.426878929E0
6.509948000E0,1.000058079E1,-9.761159897E0,-5.391742229E0
6.514953000E0,9.502586365E0,-9.052476883E0,-6.564900875E0
6.519957000E0,9.330204010E0,-7.709329605E0,-5.688623428E0
6.524962000E0,1.049857426E1,-6.308721542E0,-3.773261786E0
6.529967000E0,1.056561184E1,-5.228936672E0,-2.683900118E0
6.534972000E0,1.039322948E1,-4.560954094E0,-1.510741234E0
6.539977000E0,9.569623947E0,-4.144362926E0,-2.609679997E-1
6.544982000E0,7.259219646E0,-3.998316765E0,-7.493851185E-1
6.549987000E0,4.345476151E0,-3.722983599E0,-3.902548850E-1
6.554992000E0,2.640804529E0,-4.369418144E0,1.158793569E0
6.559996000E0,1.884236693E0,-5.214571476E0,1.917755604E0
6.565001000E0,9.504981041E-1,-5.992686749E0,1.781286120E0
6.569948000E0,-5.410895944E-1,-6.540958881E0,1.570596337E0
6.574953000E0,-1.719036818E0,-6.789956093E0,1.601720929E0
6.579957000E0,-2.288856745E0,-6.655880928E0,2.056619167E0
6.584962000E0,-2.310404539E0,-6.490680695E0,2.365471363E0
6.589967000E0,-2.281674147E0,-6.332663536E0,2.750937700E0
6.594972000E0,-2.116474390E0,-6.191405773E0,3.090914488E0
6.599977000E0,-1.757344007E0,-6.133944988E0,3.191470861E0
6.604982000E0,-1.405396342E0,-6.064512730E0,3.155557871E0
6.609987000E0,-1.149216771E0,-5.951985359E0,2.983175278E0
6.614991000E0,-1.022324085E0,-5.789179802E0,2.899378300E0
6.619996000E0,-8.810662031E-1,-5.566518784E0,2.813186884E0
6.625001000E0,-5.817909837E-1,-5.346252441E0,2.765302896E0
6.630006000E0,-3.256114423E-1,-5.245696068E0,2.528276920E0
6.634950000E0,-1.891419291E-1,-5.228936672E0,2.279279947E0
6.639955000E0,-1.580173075E-1,-5.252878666E0,2.011129379E0
6.644960000E0,-2.681505978E-1,-5.353435040E0,1.752555609E0
6.649965000E0,-4.309563041E-1,-5.449203014E0,1.534683347E0
6.654969000E0,-6.775590777E-1,-5.516240597E0,1.271321058E0
6.659974000E0,-1.039083481E0,-5.621585369E0,1.053448796E0
6.664979000E0,-1.462857246E0,-5.695806026E0,9.026140571E-1
6.669984000E0,-1.786074519E0,-5.729324818E0,9.433154464E-1
6.674989000E0,-1.824381709E0,-5.734113216E0,1.110909581E0
6.679994000E0,-1.716642618E0,-5.817910194E0,1.266532660E0
6.684999000E0,-1.496376038E0,-5.894524574E0,1.544260144E0
6.690003000E0,-1.177947283E0,-6.035782337E0,1.941697598E0
6.695008000E0,-1.010353088E0,-6.172252178E0,2.334346771E0
6.699952000E0,-8.068459630E-1,-6.344634533E0,2.794033289E0
6.704957000E0,-6.344634295E-1,-6.411672115E0,3.141192675E0
6.709962000E0,-4.548983276E-1,-6.418854713E0,3.471592426E0
6.714967000E0,-3.351882398E-1,-6.404489517E0,3.725377798E0
6.719972000E0,-1.364694983E-1,-6.387730122E0,3.940855980E0
6.724977000E0,1.556231081E-1,-6.332663536E0,4.199429989E0
6.729981000E0,6.871358752E-1,-6.184223175E0,4.460397720E0
6.734986000E0,1.319205165E0,-6.172252178E0,4.589684486E0
6.739991000E0,2.133233786E0,-6.177040577E0,4.572925091E0
6.744996000E0,3.031059265E0,-6.452373505E0,4.505887508E0
6.750001000E0,4.086902142E0,-7.067683220E0,4.182670593E0
6.755006000E0,5.738901615E0,-7.426813602E0,3.744531393E0
6.759950000E0,6.876147270E0,-7.872135162E0,3.536235809E0
6.764954000E0,8.046912193E0,-8.056488991E0,3.452438831E0
6.769959000E0,9.315838814E0,-8.164227486E0,3.392583847E0
6.774964000E0,1.068053341E1,-8.231265068E0,3.220201254E0
6.779969000E0,1.196861458E1,-8.410830498E0,3.011905670E0
6.784974000E0,1.317768574E1,-8.734047890E0,2.750937700E0
6.789979000E0,1.333809757E1,-9.586383820E0,2.288856745E0
6.794984000E0,1.304121685E1,-1.048181534E1,1.862688899E0
6.799989000E0,1.277785492E1,-1.128866100E1,1.740584612E0
6.804993000E0,1.226310158E1,-1.187524033E1,2.042253971E0
6.809998000E0,1.118810463E1,-1.242830086E1,2.616862535E0
6.815003000E0,9.406818390E0,-1.326866627E1,3.466804028E0
6.820008000E0,8.049305916E0,-1.380496693E1,4.381389141E0
6.824952000E0,7.012616634E0,-1.411142445E1,5.461174011E0
6.829957000E0,6.347028732E0,-1.420719242E1,6.586448669E0
6.834962000E0,6.052541733E0,-1.414015484E1,7.716512203E0
6.839966000E0,6.224924564E0,-1.391031170E1,8.678980827E0
6.844971000E0,7.125144482E0,-1.327824306E1,8.853757858E0
6.849976000E0,8.013393402E0,-1.261504841E1,7.958326340E0
6.854981000E0,8.432378769E0,-1.201171017E1,6.631938934E0
6.859986000E0,8.367734909E0,-1.159511852E1,5.085284233E0
6.864991000E0,8.312667847E0,-1.137724686E1,3.466804028E0
6.869996000E0,8.547300339E0,-1.151371574E1,2.138022184E0
6.875001000E0,8.853757858E0,-1.195185471E1,1.096544385E0
6.880005000E0,8.681375504E0,-1.222479343E1,4.285621047E-1
6.884949000E0,7.730877399E0,-1.265575027E1,-4.453215301E-1
6.889954000E0,6.622362137E0,-1.282573891E1,-1.197100878E0
6.894959000E0,5.552153587E0,-1.296460247E1,-2.023100376E0
6.899964000E0,4.254496574E0,-1.314416695E1,-2.477998734E0
6.904969000E0,2.114080191E0,-1.343147182E1,-1.884236693E0
6.909974000E0,9.600749016E-1,-1.340992355E1,-1.070208192E0
6.914978000E0,4.979939461E-1,-1.332373238E1,-2.585737705E-1
6.919983000E0,3.112462163E-1,-1.312740803E1,5.602431893E-1
6.924988000E0,9.337386489E-2,-1.268687439E1,1.443703651E0
6.929993000E0,-2.250549644E-1,-1.217212105E1,2.466027737E0
6.934998000E0,-1.261744261E0,-1.134612179E1,3.514688015E0
6.940003000E0,-2.011129379E0,-1.053209305E1,3.409343243E0
6.945008000E0,-2.193088770E0,-9.813833237E0,2.509123325E0
6.949952000E0,-1.989581585E0,-9.227252960E0,1.359906554E0
6.954956000E0,-1.628057122E0,-8.686163902E0,4.118026793E-1
6.959961000E0,-1.391031146E0,-8.240841866E0,1.101332754E-1
6.964966000E0,-1.259350061E0,-7.793126583E0,7.781155705E-1
6.969971000E0,-1.278503656E0,-7.496245384E0,2.173935175E0
6.974976000E0,-1.546654344E0,-7.376535416E0,3.600879431E0
6.979981000E0,-2.142810583E0,-7.524975777E0,4.211400986E0
6.984986000E0,-2.760514498E0,-7.781155586E0,4.149151325E0
6.989991000E0,-3.325546265E0,-8.200140953E0,3.730166197E0
6.994995000E0,-3.584120035E0,-8.851364136E0,3.280056238E0
7.000000000E0,-2.791639090E0,-9.447520256E0,2.813186884E0
7.005005000E0,-8.212111592E-1,-9.844957352E0,1.924938202E0
7.009949000E0,1.046266198E0,-1.044829655E1,1.101332784E0
7.014954000E0,2.406172752E0,-1.124077702E1,1.460463107E-1
7.019959000E0,3.055001259E0,-1.200692177E1,-7.086837292E-1
7.024964000E0,3.081337690E0,-1.269645119E1,-1.319205165E0
7.029968000E0,2.913743496E0,-1.311783123E1,-1.252167463E0
7.034973000E0,2.806004286E0,-1.324711800E1,-7.422025204E-1
7.039978000E0,2.580949545E0,-1.311543655E1,-9.337386489E-2
7.044983000E0,2.207453966E0,-1.282095051E1,4.764461517E-1
7.049988000E0,1.795651317E0,-1.250252151E1,8.714894056E-1
7.054993000E0,1.546654344E0,-1.208353615E1,8.714894056E-1
7.059998000E0,1.426944256E0,-1.168609810E1,6.296750307E-1
7.065003000E0,1.276109457E0,-1.125993061E1,2.825157940E-1
7.070007000E0,9.935936928E-1,-1.083136845E1,1.125274822E-1
7.074951000E0,6.153098345E-1,-1.047942066E1,5.626373887E-1
7.079956000E0,6.799532771E-1,-1.018014526E1,2.166752577E0
7.084961000E0,1.022324085E0,-9.504981041E0,3.021482468E0
7.089966000E0,1.436521053E0,-8.892065048E0,2.652775526E0
7.094971000E0,1.759738207E0,-8.279149055E0,2.015917778E0
7.099976000E0,1.831564307E0,-7.776367188E0,1.771709204E0
7.104980000E0,1.783680320E0,-7.328651428E0,1.912967205E0
7.109985000E0,1.613691926E0,-7.015010834E0,2.035071373E0
7.114990000E0,1.304839969E0,-6.809109688E0,2.370259762E0
7.119995000E0,1.137245774E0,-6.593631268E0,2.557007313E0
7.125000000E0,1.036689281E0,-6.337451935E0,2.480392933E0
7.130005000E0,5.793967843E-1,-6.028599739E0,2.808398485E0
7.134949000E0,2.968810201E-1,-5.940014362E0,3.248931646E0
7.139954000E0,4.740519226E-1,-6.090848923E0,3.028665066E0
7.144958000E0,4.381389022E-1,-6.361393929E0,2.604891539E0
7.149963000E0,-2.873042040E-2,-6.526593685E0,2.152387381E0
7.154968000E0,2.130839527E-1,-6.689399719E0,1.544260144E0
7.159973000E0,5.434837937E-1,-6.909666061E0,1.264138460E0
7.164978000E0,9.097966552E-2,-6.947973251E0,1.151610970E0
7.169983000E0,1.987187415E-1,-6.945579052E0,1.017535686E0
7.174988000E0,1.199495077E0,-7.125144482E0,1.053448796E0
7.179992000E0,1.683123827E0,-7.275979042E0,1.072602391E0
7.184997000E0,1.915361404E0,-7.338228226E0,1.027112484E0
7.190002000E0,2.054224968E0,-7.335834026E0,1.065419793E0
7.195007000E0,2.236184359E0,-7.295132637E0,1.067813993E0
7.199951000E0,2.432508945E0,-7.249642849E0,1.051054597E0
7.204956000E0,2.712630510E0,-7.177816868E0,1.089361787E0
7.209961000E0,2.853888512E0,-7.129932880E0,1.096544385E0
7.214966000E0,2.968810081E0,-7.070077419E0,9.816226959E-1
7.219970000E0,3.055001259E0,-7.079654217E0,8.643068075E-1
7.224975000E0,3.059789658E0,-7.175422668E0,5.961562395E-1
7.229980000E0,3.050212860E0,-7.359776020E0,4.046200812E-1
7.234985000E0,2.961627483E0,-7.687781811E0,2.920926213E-1
7.239990000E0,2.525882721E0,-8.058882713E0,2.130839527E-1
7.244995000E0,2.600103140E0,-8.386888504E0,0.000000000E0
7.250000000E0,2.896984100E0,-8.760383606E0,-9.337386489E-2
7.255004000E0,2.731784105E0,-9.102754593E0,-4.788403213E-2
7.259948000E0,2.418143749E0,-9.425971985E0,1.244984865E-1
7.264953000E0,2.042253971E0,-9.588777542E0,2.250549644E-1
7.269958000E0,1.599326730E0,-9.658209801E0,3.471592367E-1
7.274963000E0,1.137245774E0,-9.761159897E0,4.165911078E-1
7.279968000E0,8.236053586E-1,-9.775525093E0,6.584054828E-1
7.284973000E0,5.722141862E-1,-9.744400978E0,1.082179189E0
7.289978000E0,4.429273009E-1,-9.598354340E0,1.704671621E0
7.294982000E0,5.674257874E-1,-9.464279175E0,2.176329374E0
7.299987000E0,8.283938169E-1,-9.315838814E0,2.753331900E0
7.304992000E0,1.314416766E0,-9.071630478E0,3.232172251E0
7.309997000E0,1.908178806E0,-8.753201485E0,3.660734415E0
7.315002000E0,2.434903145E0,-8.202534676E0,3.993528366E0
7.320007000E0,2.877830505E0,-7.201758862E0,4.165910721E0
7.324951000E0,3.138798475E0,-6.263231754E0,4.094084740E0
7.329955000E0,3.222595453E0,-5.379771233E0,4.055777550E0
7.334960000E0,3.117250681E0,-4.680664539E0,4.115632534E0
7.339965000E0,2.743755102E0,-4.237737179E0,4.206612587E0
7.344970000E0,2.293645144E0,-4.110844135E0,4.307168961E0
7.349975000E0,1.443703651E0,-4.386177540E0,4.292803764E0
7.354980000E0,6.943184733E-1,-4.996698856E0,4.254496574E0
7.359863000E0,-6.464344263E-2,-6.105214119E0,4.256890774E0
7.364990000E0,-4.165911078E-1,-6.871358871E0,4.283226967E0
7.369994000E0,-8.379706144E-1,-7.836222172E0,4.369418144E0
7.374999000E0,-1.237802267E0,-8.829815865E0,4.541800499E0
7.380004000E0,-1.446097851E0,-1.004846478E1,4.855441093E0
7.384948000E0,-1.340752959E0,-1.089601231E1,5.145139217E0
7.389953000E0,-1.127668977E0,-1.171961689E1,5.463568211E0
7.394958000E0,-6.344634295E-1,-1.245463753E1,5.815515995E0
7.399963000E0,1.316810995E-1,-1.306515884E1,5.985504150E0
7.404967000E0,1.113303781E0,-1.349132633E1,5.940014362E0
7.409972000E0,2.595314741E0,-1.362779617E1,5.894524574E0
7.414977000E0,3.787626982E0,-1.336203957E1,5.892130375E0
7.419982000E0,4.788403511E0,-1.270363426E1,5.801150799E0
7.424987000E0,5.360617638E0,-1.171961689E1,5.595249176E0
7.429992000E0,5.774814606E0,-1.065180302E1,5.181052685E0
7.434997000E0,6.007051945E0,-9.624691010E0,4.740519524E0
7.440002000E0,6.014234543E0,-8.429984093E0,4.153939724E0
7.445006000E0,5.786785603E0,-7.589619160E0,3.550601006E0
7.449950000E0,5.583278179E0,-6.957550049E0,2.873042107E0
7.454955000E0,5.492298603E0,-6.584054470E0,2.274491549E0
7.459960000E0,5.264849663E0,-6.440402508E0,1.731007814E0
7.464965000E0,4.908113480E0,-6.548141479E0,1.429338455E0
7.469970000E0,4.544194698E0,-6.926425457E0,1.266532660E0
7.474975000E0,4.319139957E0,-7.460332394E0,1.122880578E0
7.479979000E0,4.079719543E0,-7.941566944E0,1.017535686E0
7.484984000E0,3.701435804E0,-8.451532364E0,9.744400978E-1
7.489989000E0,3.083731890E0,-9.153033257E0,1.134851575E0
7.494994000E0,2.030282974E0,-1.008437729E1,1.218648672E0
7.499999000E0,6.536170840E-1,-1.156399441E1,1.134851575E0
7.505004000E0,-1.204283476E0,-1.318247414E1,9.600749016E-1
7.509948000E0,-2.794033289E0,-1.476983070E1,6.488286853E-1
7.514953000E0,-3.919308186E0,-1.638112831E1,3.327940404E-1
7.519957000E0,-4.256890774E0,-1.776497650E1,-2.274491638E-1
7.524962000E0,-4.671087742E0,-1.946725464E1,-7.206547260E-1
7.529967000E0,-4.594472885E0,-2.141134644E1,-5.841852427E-1
7.534972000E0,-4.041412354E0,-2.249113083E1,-4.357447028E-1
7.539977000E0,-3.201047659E0,-2.323333359E1,-5.506663769E-2
7.544982000E0,-2.145204782E0,-2.342008018E1,3.208230138E-1
7.549987000E0,-6.081272364E-1,-2.305137444E1,2.609679997E-1
7.554869000E0,1.527500629E0,-2.252704430E1,-2.418143749E-1
7.559996000E0,3.069366693E0,-2.215594292E1,-6.991068721E-1
7.565001000E0,4.594472885E0,-2.155739212E1,-1.391031146E0
7.569948000E0,5.963956356E0,-2.068829727E1,-1.893813491E0
7.574953000E0,7.242460251E0,-1.959414673E1,-2.116474390E0
7.579957000E0,8.130708694E0,-1.844971848E1,-2.841917515E0
7.584962000E0,8.329427719E0,-1.701559067E1,-3.648763418E0
7.589967000E0,8.228871346E0,-1.600284386E1,-4.204218388E0
7.594972000E0,8.339004517E0,-1.483447361E1,-4.441244125E0
7.599977000E0,9.718064308E0,-1.350090313E1,-4.352658749E0
7.604982000E0,9.703699112E0,-1.237562847E1,-4.750096321E0
7.609987000E0,8.870517731E0,-1.127429581E1,-5.997475147E0
7.614991000E0,8.609549522E0,-9.713275909E0,-6.361393929E0
7.619996000E0,9.186552048E0,-8.252813339E0,-6.035782337E0
7.625001000E0,9.756371498E0,-6.825869083E0,-5.990292549E0
7.630006000E0,1.025436592E1,-5.363011837E0,-5.542576790E0
7.634950000E0,1.040520096E1,-4.132391930E0,-3.835511208E0
7.639955000E0,8.714894295E0,-3.191470861E0,-1.625662923E0
7.644960000E0,5.947196960E0,-2.375048161E0,3.232172430E-1
7.649965000E0,3.193865061E0,-2.181117773E0,2.099714994E0
7.654969000E0,2.396595955E0,-2.583343744E0,3.421314240E0
7.659974000E0,1.862688899E0,-3.586514235E0,3.694253206E0
7.664979000E0,8.762778044E-1,-4.443638325E0,3.555389643E0
7.669984000E0,-3.830722570E-1,-5.178658485E0,3.045424461E0
7.674989000E0,-1.398213744E0,-5.597643375E0,2.647987127E0
7.679994000E0,-1.764526606E0,-5.549759388E0,2.470816135E0
7.684999000E0,-1.965639591E0,-5.391742229E0,2.434903145E0
7.690003000E0,-2.346317768E0,-5.104437828E0,2.767697096E0
7.695008000E0,-2.746149302E0,-4.915296078E0,3.272873640E0
7.699952000E0,-2.930502892E0,-4.809951305E0,3.699041605E0
7.704957000E0,-2.576161146E0,-4.718971729E0,3.919308186E0
7.709962000E0,-2.226607561E0,-4.692635536E0,3.919308186E0
7.714967000E0,-1.953668594E0,-4.695029736E0,3.859453201E0
7.719972000E0,-1.738190413E0,-4.726154327E0,3.739742994E0
7.724977000E0,-1.616086125E0,-4.740519524E0,3.672705412E0
7.729981000E0,-1.505952835E0,-4.819528103E0,3.512293816E0
7.734986000E0,-1.264138460E0,-4.982333660E0,3.186682463E0
7.739991000E0,-1.151610970E0,-5.169081688E0,2.885013103E0
7.744996000E0,-1.101332784E0,-5.437232018E0,2.432508945E0
7.750001000E0,-9.911994934E-1,-5.650316238E0,2.094926596E0
7.755006000E0,-8.523358107E-1,-5.932831764E0,1.810016513E0
7.759950000E0,-6.727706790E-1,-6.193799973E0,1.537077546E0
7.764954000E0,-5.506663918E-1,-6.459556103E0,1.149216771E0
7.769959000E0,-5.770025849E-1,-6.648698330E0,9.121908545E-1
7.774964000E0,-6.823474765E-1,-6.751648903E0,7.924807668E-1
7.779969000E0,-7.565677166E-1,-6.835445881E0,7.685387731E-1
7.784974000E0,-7.062895298E-1,-6.943184853E0,8.116343617E-1
7.789979000E0,-6.248866320E-1,-7.024587631E0,9.911994934E-1
7.794984000E0,-4.548983276E-1,-7.077260017E0,1.400607944E0
7.799989000E0,-2.681505978E-1,-7.101202011E0,1.774103403E0
7.804993000E0,-1.149216816E-1,-7.091625214E0,2.238578558E0
7.809998000E0,1.939303428E-1,-7.120356083E0,2.681505919E0
7.815003000E0,5.315127969E-1,-7.050923824E0,3.157952070E0
7.820008000E0,6.895300746E-1,-6.801927090E0,3.773261786E0
7.824952000E0,1.307234168E0,-6.615179062E0,4.285621166E0
7.829957000E0,1.884236693E0,-6.418854713E0,4.601655483E0
7.834962000E0,2.643198729E0,-6.268020153E0,4.833893299E0
7.839966000E0,3.529053211E0,-6.251260757E0,4.853046894E0
7.844971000E0,4.716577530E0,-6.282385349E0,4.668693542E0
7.849976000E0,5.748478413E0,-6.426037312E0,4.623203278E0
7.854981000E0,7.290344238E0,-7.237671852E0,4.055777550E0
7.859986000E0,8.559270859E0,-7.824251175E0,3.636792421E0
7.864991000E0,9.880870819E0,-8.288725853E0,3.275267839E0
7.869996000E0,1.122880554E1,-8.573636055E0,2.992752075E0
7.875001000E0,1.245942593E1,-8.777143478E0,2.796427488E0
7.880005000E0,1.315135002E1,-9.157821655E0,2.482787132E0
7.884949000E0,1.335006905E1,-1.001494598E1,2.308010340E0
7.889954000E0,1.343626022E1,-1.076672459E1,2.219424963E0
7.894959000E0,1.324711800E1,-1.137964058E1,2.264914751E0
7.899964000E0,1.240196514E1,-1.185129833E1,2.786850691E0
7.904969000E0,1.125993061E1,-1.218409252E1,3.687070608E0
7.909974000E0,9.847352028E0,-1.242111874E1,4.805162907E0
7.914978000E0,8.877699852E0,-1.250491524E1,5.552153587E0
7.919983000E0,7.967903137E0,-1.244745445E1,6.392518520E0
7.924988000E0,7.264008045E0,-1.237084007E1,7.050923824E0
7.929993000E0,6.679822922E0,-1.240914726E1,7.343016624E0
7.934998000E0,6.241683960E0,-1.253604031E1,7.501033783E0
7.940003000E0,5.882553577E0,-1.268208599E1,7.536946774E0
7.945008000E0,5.748478413E0,-1.277067184E1,7.252037048E0
7.949952000E0,5.777208805E0,-1.286404610E1,6.689399719E0
7.954956000E0,5.968744755E0,-1.319205093E1,5.803544998E0
7.959961000E0,6.258443356E0,-1.387918758E1,4.565742493E0
7.964966000E0,6.560112476E0,-1.463096619E1,3.172317266E0
7.969971000E0,6.473921299E0,-1.521515179E1,1.932120800E0
7.974976000E0,5.956773758E0,-1.564131927E1,1.486799240E0
7.979981000E0,5.252878666E0,-1.555752277E1,1.343147159E0
7.984986000E0,4.544194698E0,-1.508825874E1,1.094150186E0
7.989991000E0,3.785232782E0,-1.450167942E1,4.118026793E-1
7.994995000E0,3.203441858E0,-1.401086807E1,-3.447650373E-1
8.000000000E0,2.363077164E0,-1.375468922E1,-1.403002143E0
8.005005000E0,2.003946781E0,-1.351526833E1,-1.527500629E0
8.009949000E0,1.642422318E0,-1.321838760E1,-2.801215947E-1
8.014954000E0,7.254431248E-1,-1.293108368E1,1.584961534E0
8.019959000E0,-5.506663918E-1,-1.244984913E1,2.913743496E0
8.024964000E0,-1.865083098E0,-1.184890461E1,2.734178305E0
8.029968000E0,-3.327940464E0,-1.085052204E1,1.395819545E0
8.034973000E0,-4.053383350E0,-1.004128170E1,6.464344859E-1
8.039978000E0,-3.952826977E0,-9.241618156E0,4.979939461E-1
8.045960000E0,-2.959233284E0,-8.303091049E0,1.491587639E0
8.050964000E0,-2.422932148E0,-7.546523571E0,3.186682463E0
8.055969000E0,-2.207453966E0,-7.000645638E0,4.340687752E0
8.060974000E0,-2.116474390E0,-6.576871872E0,4.915296078E0
8.065979000E0,-2.047042370E0,-6.382941723E0,4.429273129E0
8.070984000E0,-2.233790159E0,-6.679822922E0,3.181894064E0
8.075989000E0,-2.482787132E0,-7.292738438E0,2.063801765E0
8.080994000E0,-2.262520552E0,-7.970297337E0,1.290474772E0
8.085999000E0,-1.307234168E0,-8.647856712E0,5.578489900E-1
8.091003000E0,9.816227108E-2,-9.464279175E0,-5.267243832E-2
8.096008000E0,2.116474390E0,-1.065898609E1,-7.062895298E-1
8.100952000E0,3.550601006E0,-1.166215611E1,-8.188169599E-1
8.105957000E0,4.450820923E0,-1.273475838E1,-3.136404157E-1
8.110962000E0,5.011064053E0,-1.356315231E1,2.130839527E-1
8.115967000E0,5.018246651E0,-1.408748245E1,5.889736414E-1
8.120972000E0,4.548983097E0,-1.427423096E1,6.057330370E-1
8.125976000E0,3.598485231E0,-1.399650288E1,5.027823448E-1
8.130981000E0,2.782062292E0,-1.335964584E1,3.543418646E-1
8.135986000E0,1.613691926E0,-1.267729759E1,3.854664862E-1
8.140991000E0,4.836287498E-1,-1.207156467E1,7.493851185E-1
8.145996000E0,-1.939303428E-1,-1.146822643E1,1.118092179E0
8.151001000E0,-5.554547906E-1,-1.094150162E1,1.443703651E0
8.156006000E0,-6.272808313E-1,-1.027591324E1,1.912967205E0
8.160950000E0,-5.099649429E-1,-9.789890289E0,2.272097349E0
8.165954000E0,-1.268926859E-1,-9.313444138E0,2.619256735E0
8.170959000E0,3.256114423E-1,-8.846575737E0,2.868253708E0
8.175964000E0,8.475474119E-1,-8.298302650E0,2.949656487E0
8.180969000E0,1.371877551E0,-7.714118004E0,2.885013103E0
8.185974000E0,1.982398987E0,-7.113173485E0,2.741360903E0
8.190979000E0,2.176329374E0,-6.715735912E0,2.774879694E0
8.195984000E0,2.284068346E0,-6.449979305E0,2.710236311E0
8.200989000E0,2.370259762E0,-6.356605530E0,2.489969730E0
8.205993000E0,2.353500366E0,-6.426037312E0,2.296039343E0
8.210998000E0,2.269703150E0,-6.514622688E0,2.197877169E0
8.216003000E0,1.929726601E0,-6.612784863E0,2.209848166E0
8.221008000E0,1.649604917E0,-6.639121532E0,1.977610588E0
8.225952000E0,1.168370485E0,-6.574477673E0,1.795651317E0
8.230957000E0,5.434837937E-1,-6.655880928E0,2.094926596E0
8.235962000E0,9.337386489E-2,-6.840234280E0,1.958456993E0
8.240966000E0,-2.729389966E-1,-7.034164429E0,1.587355733E0
8.245971000E0,-5.171475410E-1,-7.249642849E0,1.424550056E0
8.250976000E0,-7.374141216E-1,-7.321468830E0,1.448492050E0
8.255981000E0,-6.943184733E-1,-7.338228226E0,1.484405041E0
8.260986000E0,6.943184882E-2,-7.469909191E0,1.479616642E0
8.265991000E0,6.344634295E-1,-7.606379032E0,1.355118155E0
8.270996000E0,7.182605267E-1,-7.687781811E0,8.619126081E-1
8.276001000E0,2.585737705E-1,-7.675810814E0,8.355764151E-1
8.281005000E0,6.991068721E-1,-7.680599213E0,8.547300100E-1
8.285949000E0,1.515529633E0,-7.733271599E0,6.871358752E-1
8.290954000E0,1.874659896E0,-7.663839817E0,5.363011956E-1
8.295959000E0,1.810016513E0,-7.489062786E0,4.165911078E-1
8.300964000E0,1.616086125E0,-7.364564419E0,4.333505034E-1
8.305786000E0,1.592144132E0,-7.311892033E0,3.399766386E-1
8.310974000E0,2.078166962E0,-7.371747017E0,3.591302633E-1
8.315978000E0,2.410961151E0,-7.424419403E0,6.248866320E-1
8.320983000E0,2.506729126E0,-7.553706169E0,8.427590132E-1
8.325988000E0,2.442085743E0,-7.716512203E0,9.983820915E-1
8.330993000E0,2.260126352E0,-7.860164165E0,1.225831270E0
8.335998000E0,2.130839586E0,-8.022970200E0,1.333570361E0
8.341003000E0,2.003946781E0,-8.224082947E0,1.429338455E0
8.346008000E0,1.807622313E0,-8.343792915E0,1.405396342E0
8.350952000E0,1.731007814E0,-8.446743965E0,1.221042871E0
8.355956000E0,1.575384736E0,-8.425195694E0,1.235408068E0
8.360778000E0,1.386242747E0,-8.398859978E0,1.462857246E0
8.365966000E0,1.242590666E0,-8.324639320E0,1.623268723E0
8.370971000E0,1.187524080E0,-8.286332130E0,1.716642618E0
8.375976000E0,1.233013868E0,-8.271966934E0,1.960851192E0
8.380981000E0,1.539471745E0,-8.322244644E0,2.193088770E0
8.385986000E0,1.817199111E0,-8.432378769E0,2.248155355E0
8.390990000E0,1.982398987E0,-8.573636055E0,2.418143749E0
8.395995000E0,2.090138197E0,-8.678980827E0,2.633621931E0
8.401000000E0,2.185906172E0,-8.619126320E0,2.726995707E0
8.406005000E0,2.425326347E0,-8.480262756E0,2.815581083E0
8.410949000E0,2.719813108E0,-8.315062523E0,2.966415882E0
8.415954000E0,2.928108692E0,-8.113949776E0,3.057395458E0
8.420959000E0,3.126827478E0,-7.730877399E0,3.270479441E0
8.425964000E0,3.105279684E0,-7.347805023E0,3.598485231E0
8.430968000E0,2.942473888E0,-6.924031258E0,4.017470360E0
8.435973000E0,2.568978310E0,-6.528987885E0,4.343081951E0
8.440978000E0,2.159569979E0,-6.311115742E0,4.601655483E0
8.445983000E0,1.735796213E0,-6.284779549E0,4.663905144E0
8.450988000E0,1.261744261E0,-6.526593685E0,4.489128113E0
8.455993000E0,8.595184088E-1,-6.962338448E0,4.307168961E0
8.460998000E0,3.974374831E-1,-7.532158375E0,4.091690540E0
8.466002000E0,-1.436521020E-2,-8.262390137E0,3.933673382E0
8.471007000E0,-4.381389022E-1,-9.136273384E0,3.813963413E0
8.476989000E0,-8.164227605E-1,-1.045069027E1,3.900154591E0
8.481994000E0,-7.230489254E-1,-1.159272480E1,4.027047157E0
8.486999000E0,-3.399766386E-1,-1.278503704E1,4.335899353E0
8.492003000E0,2.178723514E-1,-1.350808620E1,4.625597477E0
8.497008000E0,8.930372596E-1,-1.393664837E1,4.812345505E0
8.501952000E0,1.750161409E0,-1.399650288E1,4.994304657E0
8.506957000E0,2.612074137E0,-1.370441055E1,5.123591423E0
8.511962000E0,3.229778051E0,-1.300769806E1,5.161899090E0
8.516967000E0,3.854664803E0,-1.183453941E1,5.051765442E0
8.521972000E0,4.314351559E0,-1.090080070E1,4.929661274E0
8.526976000E0,4.601655483E0,-9.969455719E0,4.927267075E0
8.531981000E0,4.685452938E0,-9.078812599E0,5.056553841E0
8.536986000E0,4.793191910E0,-8.231265068E0,4.797980309E0
8.541991000E0,5.137956619E0,-7.599195957E0,4.237737179E0
8.546996000E0,5.779603004E0,-7.108384609E0,3.567360640E0
8.552001000E0,5.966350555E0,-6.955155849E0,3.265691042E0
8.557006000E0,5.781997204E0,-6.962338448E0,3.019088268E0
8.561949000E0,5.420472622E0,-7.108384609E0,2.798821688E0
8.566954000E0,5.001487255E0,-7.481880188E0,2.454056740E0
8.571901000E0,4.867412090E0,-7.800309181E0,2.020706177E0
8.576967000E0,4.953603268E0,-8.171410561E0,1.362300754E0
8.581972000E0,4.865017891E0,-8.779537201E0,9.528923035E-1
8.586976000E0,4.347870350E0,-9.433155060E0,7.206547260E-1
8.591981000E0,3.090914488E0,-1.021605873E1,7.110779285E-1
8.596986000E0,1.654393315E0,-1.096544361E1,7.805097699E-1
8.601991000E0,4.501099288E-1,-1.175313568E1,7.637503147E-1
8.606996000E0,-9.385270476E-1,-1.323275280E1,7.326257229E-1
8.612001000E0,-1.841141105E0,-1.464772606E1,8.523358107E-1
8.617006000E0,-1.965639591E0,-1.589989376E1,5.458779931E-1
8.621949000E0,-1.539471745E0,-1.693658257E1,9.097966552E-2
8.626954000E0,-1.393425345E0,-1.850238991E1,-2.394201607E-2
8.631959000E0,-9.313444495E-1,-1.981201935E1,2.561795712E-1
8.636964000E0,-3.734954596E-1,-2.100911903E1,3.926490843E-1
8.641969000E0,-2.202665508E-1,-2.168189049E1,5.841852427E-1
8.646974000E0,-7.182605099E-3,-2.194046402E1,5.051765442E-1
8.651979000E0,8.331822157E-1,-2.171780396E1,-5.027823523E-2
8.657960000E0,2.652775526E0,-2.091095734E1,-9.696516991E-1
8.662965000E0,4.319139957E0,-2.004904556E1,-1.527500629E0
8.667970000E0,5.892130375E0,-1.914403725E1,-1.915361404E0
8.672975000E0,6.296750546E0,-1.797805977E1,-2.090138197E0
8.677980000E0,6.186617374E0,-1.702995682E1,-2.202665567E0
8.682984000E0,5.681440830E0,-1.597890186E1,-2.494758129E0
8.687989000E0,5.528211594E0,-1.461420727E1,-2.741360903E0
8.692994000E0,6.038176537E0,-1.307712936E1,-2.770091295E0
8.697999000E0,6.797138691E0,-1.152808094E1,-2.111685991E0
8.703004000E0,6.550535679E0,-1.013226128E1,-2.506729126E0
8.707948000E0,6.203376770E0,-9.085995674E0,-2.798821688E0
8.712953000E0,6.588842869E0,-8.116343498E0,-3.007117271E0
8.717958000E0,6.878541470E0,-7.129932880E0,-3.289633036E0
8.722962000E0,6.883329868E0,-6.268020153E0,-3.746925592E0
8.727967000E0,6.562506676E0,-5.015852451E0,-3.134010077E0
8.732972000E0,5.054159641E0,-4.288015366E0,-1.074996591E0
8.737977000E0,3.742137194E0,-3.694253206E0,1.747767180E-1
8.742982000E0,3.648763418E0,-3.337517262E0,1.668758631E0
8.747987000E0,3.213018656E0,-3.634398222E0,2.738966703E0
8.752992000E0,2.384624958E0,-4.299986362E0,2.916137695E0
8.757996000E0,1.096544385E0,-5.152322292E0,2.631227732E0
8.763001000E0,2.322375625E-1,-5.789179802E0,2.343923569E0
8.768006000E0,-1.556231081E-1,-6.246472359E0,1.750161409E0
8.772950000E0,-2.322375625E-1,-6.411672115E0,1.379060149E0
8.777955000E0,-2.298433632E-1,-6.416460514E0,1.333570361E0
8.782960000E0,-2.920926213E-1,-6.368576527E0,1.477222443E0
8.787965000E0,-3.543418646E-1,-6.337451935E0,1.733402014E0
8.792970000E0,-3.830722570E-1,-6.198588371E0,1.900996208E0
8.797974000E0,-3.303998411E-1,-6.074089527E0,1.912967205E0
8.802979000E0,-1.675941199E-1,-5.887341976E0,1.874659896E0
8.807984000E0,-3.830722719E-2,-5.705382824E0,1.793257117E0
8.812989000E0,1.077390760E-1,-5.492298603E0,1.687912226E0
8.817994000E0,1.915361285E-1,-5.224148273E0,1.587355733E0
8.822999000E0,1.436520964E-1,-5.169081688E0,1.572990537E0
8.828004000E0,2.154781483E-2,-5.176264286E0,1.592144132E0
8.833008000E0,-4.788403213E-2,-5.209783077E0,1.651999116E0
8.838990000E0,-7.661445439E-2,-5.310339451E0,1.740584612E0
8.843995000E0,-1.675941199E-1,-5.497087002E0,1.714248419E0
8.849000000E0,-3.806780577E-1,-5.714959621E0,1.680729628E0
8.854005000E0,-6.224924326E-1,-6.047753334E0,1.620874524E0
8.858948000E0,-8.020575643E-1,-6.306327343E0,1.529894829E0
8.863953000E0,-8.978256583E-1,-6.517016888E0,1.443703651E0
8.868958000E0,-9.169792533E-1,-6.698976517E0,1.395819545E0
8.873963000E0,-9.313444495E-1,-6.854599476E0,1.417367458E0
8.878968000E0,-9.552865028E-1,-6.904877663E0,1.561019540E0
8.883973000E0,-1.063025594E0,-6.924031258E0,1.932120800E0
8.888978000E0,-1.072602391E0,-6.936002254E0,2.224213362E0
8.893982000E0,-1.031900883E0,-6.938396454E0,2.643198729E0
8.898987000E0,-9.385270476E-1,-6.979097843E0,3.126827478E0
8.903992000E0,-7.398083210E-1,-6.931213856E0,3.682282209E0
8.908997000E0,-5.267243981E-1,-6.883329868E0,4.232948780E0
8.914002000E0,-9.576806426E-2,-6.746860504E0,4.695029736E0
8.919007000E0,4.046200812E-1,-6.754043102E0,4.850652695E0
8.923951000E0,1.094150186E0,-6.758831501E0,4.819528103E0
8.928956000E0,2.018311977E0,-6.777985096E0,4.625597477E0
8.933960000E0,3.114856482E0,-6.727706909E0,4.357447147E0
8.938965000E0,4.340687752E0,-6.885724068E0,3.837905407E0
8.943970000E0,5.832275391E0,-7.206547260E0,2.987963676E0
8.948975000E0,6.775590897E0,-7.589619160E0,2.559401512E0
8.953980000E0,7.829039574E0,-7.802703381E0,2.382230759E0
8.958985000E0,8.978256226E0,-7.963114738E0,2.379836559E0
8.963990000E0,9.923966408E0,-8.183381081E0,2.456450939E0
8.968994000E0,1.080024433E1,-8.537723541E0,2.475604534E0
8.973999000E0,1.169328117E1,-9.093177795E0,2.607285738E0
8.979004000E0,1.214099693E1,-9.641449928E0,3.033453465E0
8.983948000E0,1.228704357E1,-1.019211674E1,3.512293816E0
8.988953000E0,1.208592987E1,-1.061589050E1,3.928884983E0
8.993958000E0,1.139400578E1,-1.092953110E1,4.285621166E0
8.998963000E0,1.039562416E1,-1.122162342E1,4.611232281E0
9.003968000E0,9.165003777E0,-1.163582039E1,5.070919037E0
9.008972000E0,8.157045364E0,-1.195903778E1,5.590460777E0
9.013977000E0,7.259219646E0,-1.221282291E1,6.268020153E0
9.018982000E0,6.576871872E0,-1.240435886E1,7.113173485E0
9.023987000E0,6.172252178E0,-1.256955910E1,7.769184589E0
9.028992000E0,6.016628742E0,-1.280419064E1,7.931990147E0
9.033997000E0,6.210559368E0,-1.280897903E1,7.680599213E0
9.039002000E0,6.500257492E0,-1.258871269E1,7.108384609E0
9.044006000E0,6.809109688E0,-1.229662037E1,6.303933144E0
9.048950000E0,7.031770229E0,-1.212902546E1,5.353435040E0
9.053955000E0,7.141903877E0,-1.225352383E1,4.199429989E0
9.058960000E0,7.132327080E0,-1.261744308E1,2.798821688E0
9.063965000E0,6.981492043E0,-1.332133865E1,1.039083481E0
9.068970000E0,6.667851925E0,-1.381693840E1,1.604115069E-1
9.073975000E0,5.971138954E0,-1.407311726E1,1.053448766E-1
9.078980000E0,5.257667065E0,-1.413536644E1,3.806780577E-1
9.083984000E0,4.642356873E0,-1.409227085E1,7.996633649E-1
9.088989000E0,3.239354849E0,-1.398932076E1,1.264138460E0
9.093994000E0,1.987187386E0,-1.373792934E1,1.347935557E0
9.098999000E0,9.816226959E-1,-1.363737297E1,1.019929886E0
9.104004000E0,1.891419291E-1,-1.341950035E1,6.847416759E-1
9.108948000E0,-3.830722570E-1,-1.281616211E1,6.631938815E-1
9.113953000E0,-9.121908545E-1,-1.199495029E1,9.193734527E-1
9.118957000E0,-1.843535304E0,-1.088404083E1,1.041477680E0
9.123962000E0,-2.585737944E0,-1.005085850E1,6.584054828E-1
9.128967000E0,-3.205836058E0,-9.308655739E0,4.668693244E-1
9.133972000E0,-2.952050686E0,-8.717288017E0,8.403648138E-1
9.138977000E0,-2.092532396E0,-8.159439087E0,1.661576033E0
9.143982000E0,-1.575384736E0,-7.599195957E0,3.160346270E0
9.148987000E0,-1.288080573E0,-7.098807812E0,4.388571739E0
9.153992000E0,-1.266532660E0,-6.967126846E0,4.469974518E0
9.158996000E0,-1.278503656E0,-7.086836815E0,3.988739967E0
9.164001000E0,-1.312022567E0,-7.510610580E0,3.174711466E0
9.169006000E0,-1.285686255E0,-8.145073891E0,2.312798738E0
9.173950000E0,-9.409212470E-1,-8.781931877E0,1.510741234E0
9.178955000E0,1.675941236E-2,-9.785101891E0,8.379706144E-1
9.183960000E0,1.185129881E0,-1.081939793E1,5.578489900E-1
9.188965000E0,2.535459518E0,-1.194227791E1,2.968810201E-1
9.193969000E0,3.794809580E0,-1.295023727E1,1.604115069E-1
9.198974000E0,4.843470097E0,-1.387200451E1,1.747767180E-1
9.203979000E0,5.492298603E0,-1.462138939E1,2.992752194E-1
9.208984000E0,5.451597214E0,-1.498052025E1,4.141969085E-1
9.213989000E0,4.699818134E0,-1.473391724E1,2.777273953E-1
9.218994000E0,3.620033026E0,-1.408987713E1,5.243301988E-1
9.223999000E0,2.736572504E0,-1.312740803E1,7.302315235E-1
9.229004000E0,1.675941229E0,-1.230859089E1,1.429338455E0
9.234008000E0,7.661445141E-1,-1.165018559E1,2.169146776E0
9.238952000E0,2.394201700E-3,-1.092953110E1,2.525882721E0
9.243957000E0,-3.064578176E-1,-1.035492229E1,2.485181332E0
9.248962000E0,-4.836287498E-1,-9.876082420E0,2.327163935E0
9.253967000E0,-4.381389022E-1,-9.318233490E0,2.082955360E0
9.258972000E0,-1.268926859E-1,-8.841787338E0,1.821987510E0
9.263977000E0,3.423708379E-1,-8.427590370E0,1.649604917E0
9.268981000E0,7.637503147E-1,-8.042123795E0,1.759738207E0
9.273986000E0,1.029506683E0,-7.850587368E0,2.439691544E0
9.278991000E0,1.493981838E0,-7.692570210E0,2.829946518E0
9.283996000E0,1.956062794E0,-7.474697590E0,2.738966703E0
9.289001000E0,2.341529369E0,-7.326257229E0,2.442085743E0
9.294006000E0,2.583343744E0,-7.247248650E0,2.102109194E0
9.298950000E0,2.607285738E0,-7.232883453E0,1.759738207E0
9.303955000E0,2.418143749E0,-7.216124058E0,1.656787634E0
9.308959000E0,2.169146776E0,-7.038952827E0,1.659181833E0
9.313964000E0,1.865083098E0,-6.964732647E0,1.867477298E0
9.318969000E0,1.419761658E0,-6.928819656E0,1.946485996E0
9.323974000E0,9.361328483E-1,-6.964732647E0,1.929726601E0
9.328979000E0,4.955997467E-1,-6.955155849E0,1.855506301E0
9.333984000E0,-1.005564705E-1,-6.861782074E0,1.781286120E0
9.338989000E0,-3.256114423E-1,-6.859387875E0,1.738190413E0
9.343994000E0,-4.070143029E-2,-6.969521046E0,1.460463047E0
9.348998000E0,1.316810995E-1,-7.146692276E0,1.163581967E0
9.354003000E0,-2.154781483E-2,-7.256825447E0,9.696516991E-1
9.359008000E0,9.097966552E-2,-7.252037048E0,9.744400978E-1
9.363952000E0,8.331822157E-1,-7.283161640E0,8.954314590E-1
9.368957000E0,1.101332784E0,-7.268796444E0,8.331822157E-1
9.373962000E0,1.077390790E0,-7.208941460E0,6.584054828E-1
9.378967000E0,6.272808313E-1,-6.888118267E0,4.381389022E-1
9.383971000E0,8.140285611E-1,-6.627150536E0,3.136404157E-1
9.388976000E0,2.224213362E0,-6.521805286E0,3.926490843E-1
9.393981000E0,2.679111719E0,-6.445190907E0,5.386953950E-1
9.398986000E0,2.609679937E0,-6.466738701E0,5.817909837E-1
9.403991000E0,2.188300371E0,-6.639121532E0,7.517793179E-1
9.408996000E0,1.869871497E0,-6.782773495E0,8.427590132E-1
9.414001000E0,1.783680320E0,-6.959944248E0,7.445967197E-1
9.419006000E0,2.106897593E0,-7.079654217E0,5.722141862E-1
9.423949000E0,2.231395960E0,-7.261613846E0,5.219359994E-1
9.428954000E0,2.049436569E0,-7.457938194E0,5.674257874E-1
9.433959000E0,1.838746905E0,-7.735665798E0,5.147533417E-1
9.438964000E0,1.766920805E0,-8.013393402E0,2.633621991E-1
9.443969000E0,1.312022567E0,-8.298302650E0,-1.173158810E-1
9.448974000E0,9.241618514E-1,-8.674192429E0,-3.687070608E-1
9.453979000E0,4.548983276E-1,-8.882488251E0,-4.764461517E-1
9.458983000E0,4.309562966E-2,-9.066842079E0,-4.501099288E-1
9.463988000E0,-3.399766386E-1,-9.150638580E0,-2.489969730E-1
9.468993000E0,-5.626373887E-1,-9.205705643E0,-2.633621916E-2
9.473998000E0,-6.105214357E-1,-9.227252960E0,4.094084799E-1
9.479003000E0,-4.453215301E-1,-9.191340446E0,9.457096457E-1
9.484008000E0,-4.788403213E-2,-9.066842079E0,1.587355733E0
9.488952000E0,4.141969085E-1,-8.918401718E0,2.149993181E0
9.493957000E0,1.084573388E0,-8.774748802E0,2.664746523E0
9.498961000E0,1.728613615E0,-8.602366447E0,3.198653460E0
9.503966000E0,2.391807556E0,-8.257601738E0,3.711012602E0
9.508971000E0,2.949656487E0,-7.793126583E0,4.039018154E0
9.513976000E0,3.476380825E0,-7.381323814E0,4.340687752E0
9.518981000E0,4.048594952E0,-6.842628479E0,4.544194698E0
9.523986000E0,4.338293552E0,-6.263231754E0,4.989516258E0
9.528991000E0,4.319139957E0,-5.765237808E0,5.559336185E0
9.533995000E0,3.732560396E0,-5.298368454E0,5.980715752E0
9.539000000E0,3.110068083E0,-5.149928093E0,6.083666325E0
9.544005000E0,2.449268341E0,-5.272032261E0,5.911283970E0
9.548949000E0,1.728613615E0,-5.614402771E0,5.607220173E0
9.553954000E0,1.051054597E0,-6.327875137E0,5.236119270E0
9.559996000E0,3.782838583E-1,-7.422025204E0,4.896142483E0
9.565001000E0,-6.703764945E-2,-8.336610794E0,4.829104900E0
9.569948000E0,-3.208230138E-1,-9.543288231E0,4.750096321E0
9.574953000E0,-3.782838583E-1,-1.055842972E1,4.853046894E0
9.579957000E0,-2.968810201E-1,-1.140597725E1,4.934449673E0
9.584962000E0,-4.788403213E-2,-1.208114147E1,4.936843872E0
9.589967000E0,3.998316824E-1,-1.255758762E1,5.023035049E0
9.594972000E0,9.672574997E-1,-1.274912453E1,5.159504890E0
9.599977000E0,1.764526606E0,-1.255519390E1,5.264849663E0
9.604982000E0,2.525882721E0,-1.204044056E1,5.334281445E0
9.609803000E0,3.347094059E0,-1.104205799E1,5.339069843E0
9.614991000E0,3.754108191E0,-1.037647057E1,5.197812080E0
9.619996000E0,4.125209332E0,-9.497797966E0,4.855441093E0
9.625001000E0,4.352658749E0,-8.688557625E0,4.553771496E0
9.630006000E0,4.331110954E0,-7.838616371E0,3.883395195E0
9.634950000E0,4.469974518E0,-7.395689011E0,2.913743496E0
9.639955000E0,4.786009312E0,-7.230489254E0,1.996764183E0
9.644960000E0,5.046977043E0,-7.266402245E0,1.441309452E0
9.649965000E0,5.090072632E0,-7.424419403E0,1.158793569E0
9.654969000E0,4.855441093E0,-7.721300602E0,9.193734527E-1
9.659974000E0,4.505887508E0,-8.190564156E0,5.075707436E-1
9.664979000E0,4.192247391E0,-8.760383606E0,4.070143029E-2
9.669984000E0,3.957615376E0,-9.325415611E0,-2.873042040E-2
9.674989000E0,3.505111217E0,-9.880870819E0,4.788403213E-2
9.679994000E0,2.806004286E0,-1.057997704E1,1.436521020E-2
9.684999000E0,1.685518026E0,-1.159990692E1,-4.788403213E-2
9.690003000E0,-3.351882473E-2,-1.330457878E1,-3.447650373E-1
9.695008000E0,-1.561019540E0,-1.497812557E1,-6.248866320E-1
9.699952000E0,-2.439691544E0,-1.666843224E1,-9.265560508E-1
9.704957000E0,-2.975992680E0,-1.827733612E1,-1.096544385E0
9.709962000E0,-3.040636063E0,-1.949358940E1,-1.132457376E0
9.714967000E0,-3.323152065E0,-2.086067963E1,-1.048660398E0
9.719972000E0,-3.201047659E0,-2.258689880E1,-3.471592367E-1
9.724977000E0,-2.832340717E0,-2.333867836E1,-4.548983276E-2
9.729981000E0,-2.343923569E0,-2.351345444E1,2.681505978E-1
9.734986000E0,-1.381454349E0,-2.294363403E1,1.221042871E-1
9.739991000E0,1.891419291E-1,-2.205059814E1,-2.873041928E-1
9.744996000E0,2.348711967E0,-2.127248192E1,-6.584054828E-1
9.750001000E0,3.921702385E0,-2.037226295E1,-9.672574997E-1
9.755006000E0,5.207388878E0,-1.949119568E1,-1.070208192E0
9.759950000E0,6.423643112E0,-1.842338181E1,-7.876923680E-1
9.764954000E0,7.187393665E0,-1.746091270E1,-5.099649429E-1
9.769959000E0,7.412448406E0,-1.657266426E1,-7.996633649E-1
9.774964000E0,7.390900612E0,-1.561977196E1,-2.080561161E0
9.779969000E0,7.685387611E0,-1.431253815E1,-3.081337690E0
9.784974000E0,8.765172005E0,-1.312980175E1,-3.938461781E0
9.789979000E0,9.823410034E0,-1.220085144E1,-4.510675907E0
9.794984000E0,9.150638580E0,-1.120965195E1,-5.135562420E0
9.799989000E0,8.547300339E0,-1.010831928E1,-5.925649166E0
9.804993000E0,9.009381294E0,-8.305485725E0,-5.463568211E0
9.809998000E0,9.409213066E0,-7.036558628E0,-5.571307182E0
9.815003000E0,9.452308655E0,-5.916072369E0,-5.758055210E0
9.820008000E0,9.725247383E0,-4.735731125E0,-5.221754074E0
9.824952000E0,9.397241592E0,-3.754108191E0,-3.500322819E0
9.829957000E0,7.230489254E0,-3.232172251E0,-9.911994934E-1
9.834962000E0,4.620809078E0,-2.923320293E0,8.116343617E-1
9.839966000E0,2.803610086E0,-3.373430252E0,2.296039343E0
9.844971000E0,2.011129379E0,-4.539406300E0,2.961627483E0
9.849976000E0,1.185129881E0,-5.607220173E0,3.122039080E0
9.854981000E0,-2.394201700E-3,-6.385335922E0,2.964021683E0
9.859986000E0,-7.517793179E-1,-6.878541470E0,2.705447912E0
9.864991000E0,-9.313444495E-1,-6.940790653E0,2.480392933E0
9.869996000E0,-1.177947283E0,-6.785167694E0,2.552218914E0
9.875001000E0,-1.568202138E0,-6.629544735E0,2.880224705E0
9.880005000E0,-1.750161409E0,-6.519411087E0,3.227383852E0
9.884949000E0,-1.754949808E0,-6.320692539E0,3.531447411E0
9.889954000E0,-1.714248419E0,-6.119579315E0,3.632004023E0
9.894959000E0,-1.592144132E0,-5.762843609E0,3.691859007E0
9.899964000E0,-1.539471745E0,-5.470750809E0,3.766079187E0
9.904969000E0,-1.577778935E0,-5.324704647E0,3.610456228E0
9.909974000E0,-1.565807939E0,-5.243301868E0,3.239354849E0
9.914978000E0,-1.496376038E0,-5.149928093E0,2.832340717E0
9.920960000E0,-1.328781962E0,-5.042188644E0,2.446874142E0
9.925965000E0,-1.108515382E0,-5.058948040E0,2.149993181E0
9.930970000E0,-9.696516991E-1,-5.085284233E0,1.786074519E0
9.935791000E0,-8.810662031E-1,-5.159504890E0,1.312022567E0
9.940918000E0,-6.464344859E-1,-5.272032261E0,7.876923680E-1
9.945984000E0,-3.232172430E-1,-5.446808815E0,3.040636182E-1
9.950989000E0,-1.029506698E-1,-5.681440830E0,1.843535304E-1
9.955994000E0,-2.394201607E-2,-5.851428986E0,4.118026793E-1
9.960999000E0,2.394201756E-1,-6.050147533E0,8.283938169E-1
9.966004000E0,5.482721925E-1,-6.167463779E0,1.266532660E0
9.971009000E0,7.541735172E-1,-6.330269337E0,1.685518026E0
9.975952000E0,8.331822157E-1,-6.421248913E0,2.195482969E0
9.980957000E0,8.595184088E-1,-6.476315498E0,2.834734917E0
9.985962000E0,1.003170490E0,-6.500257492E0,3.359065056E0
9.990967000E0,1.113303781E0,-6.354211330E0,3.979163170E0
9.995972000E0,1.110909581E0,-6.026205540E0,4.663905144E0
1.000097700E1,1.182735682E0,-5.849034786E0,5.008669853E0
1.000598200E1,1.405396342E0,-5.702988625E0,5.046977043E0
1.001098700E1,1.738190413E0,-5.542576790E0,4.855441093E0
1.001599100E1,2.303221941E0,-5.588066578E0,4.570530891E0
1.002099600E1,3.485957623E0,-5.602431774E0,4.197035789E0
1.002600100E1,4.450820923E0,-5.841852188E0,3.869029999E0
1.003100600E1,5.322310448E0,-6.148310184E0,3.569754839E0
1.003582800E1,6.567295074E0,-6.734889507E0,2.777273893E0
1.004095500E1,7.410054207E0,-7.173028469E0,2.415749550E0
1.004596000E1,8.504204750E0,-7.783549786E0,2.355894566E0
1.005096400E1,9.720458984E0,-8.415618896E0,2.911349297E0
1.005596900E1,1.036689377E1,-8.963891029E0,3.670311213E0
1.006097400E1,1.075954247E1,-9.619902611E0,4.465186119E0
1.006597900E1,1.086249352E1,-1.039083576E1,5.011064053E0
1.007098400E1,1.063504410E1,-1.124317074E1,5.152322292E0
1.007598900E1,1.030703831E1,-1.199734497E1,5.082890034E0
1.008099400E1,9.883264542E0,-1.272278786E1,5.011064053E0
1.008599900E1,9.387664795E0,-1.308910084E1,5.111620426E0
1.009100300E1,8.650250435E0,-1.323275280E1,5.444414616E0
1.009600800E1,7.838616371E0,-1.313219643E1,5.846640587E0
1.010095200E1,7.132327080E0,-1.299572659E1,6.054935932E0
1.010595700E1,6.576871872E0,-1.280897903E1,6.040570736E0
1.011096200E1,6.143521786E0,-1.240914726E1,5.882553577E0
1.011596700E1,5.942408562E0,-1.211466026E1,5.509057999E0
1.012097200E1,5.767632008E0,-1.182256794E1,5.066130638E0
1.012597600E1,5.616796970E0,-1.157835960E1,4.639962673E0
1.013098100E1,5.509057999E0,-1.146822643E1,4.163516521E0
1.013598600E1,5.434837818E0,-1.165976238E1,3.481169224E0
1.014099100E1,5.616796970E0,-1.235886955E1,2.494758129E0
1.014599600E1,6.076483727E0,-1.308191776E1,1.980004787E0
1.015100100E1,6.469132900E0,-1.379539013E1,1.970427990E0
1.015600600E1,6.505045891E0,-1.443464184E1,2.073378563E0
1.016095000E1,6.035782337E0,-1.495418358E1,2.044648170E0
1.016595400E1,5.291185856E0,-1.530852604E1,1.711854219E0
1.017095900E1,3.943250179E0,-1.545457172E1,1.453280449E0
1.017596400E1,2.772485495E0,-1.542105293E1,1.158793569E0
1.018096900E1,1.505952835E0,-1.503079796E1,9.552865028E-1
1.018597400E1,-4.788403399E-3,-1.421916389E1,8.954314590E-1
1.019097900E1,-1.264138460E0,-1.295981407E1,1.007958889E0
1.019598400E1,-1.984793186E0,-1.136048698E1,1.024718285E0
1.020098900E1,-2.205059767E0,-1.036449909E1,5.027823448E-1
1.020599300E1,-2.379836559E0,-9.732429504E0,-1.460463107E-1
1.021099800E1,-2.018311977E0,-9.042900085E0,-2.130839527E-1
1.021600300E1,-1.417367458E0,-8.097189903E0,8.451532125E-1
1.022100800E1,-7.326257229E-1,-7.249642849E0,2.877830505E0
1.022595200E1,-3.567360640E-1,-6.531382084E0,5.231330872E0
1.023095700E1,-3.280056417E-1,-5.911283970E0,5.793968201E0
1.023596200E1,-6.488286853E-1,-5.817910194E0,5.102043629E0
1.024096600E1,-9.959878922E-1,-6.038176537E0,3.785232782E0
1.024597100E1,-1.130063176E0,-6.545747280E0,2.308010340E0
1.025097600E1,-8.738836050E-1,-7.290344238E0,1.039083481E0
1.025598100E1,3.351882473E-2,-8.408436775E0,2.274491638E-1
1.026098600E1,9.121908545E-1,-9.425971985E0,9.097966552E-2
1.026599100E1,1.903390408E0,-1.053927612E1,2.418143749E-1
1.027099600E1,3.040636063E0,-1.167891598E1,6.057330370E-1
1.027600100E1,4.072536945E0,-1.284489250E1,1.065419793E0
1.028198200E1,5.233725071E0,-1.391270638E1,1.127668977E0
1.028698700E1,5.523423195E0,-1.458547688E1,8.020575643E-1
1.029199200E1,4.838681698E0,-1.524388218E1,8.930372596E-1
1.029699700E1,4.091690540E0,-1.534683323E1,9.193734527E-1
1.030200100E1,3.177105665E0,-1.497573185E1,8.858546019E-1
1.030700600E1,1.821987510E0,-1.443224812E1,8.786720037E-1
1.031195000E1,1.675941199E-1,-1.375229454E1,1.199495077E0
1.031695500E1,-9.074024558E-1,-1.302445698E1,1.429338455E0
1.032196000E1,-1.412579060E0,-1.202846909E1,1.285686255E0
1.032696500E1,-1.319205165E0,-1.114740276E1,7.278373241E-1
1.033197000E1,-1.110909581E0,-1.027112484E1,4.477157295E-1
1.033697400E1,-9.744400978E-1,-9.617507935E0,1.113303781E0
1.034197900E1,-5.315127969E-1,-9.057265282E0,1.774103403E0
