"Time (s)","Gyroscope x (rad/s)","Gyroscope y (rad/s)","Gyroscope z (rad/s)"
1.160000000E-1,3.377501369E-1,8.158254623E-2,-6.199051142E-1
1.180000000E-1,3.862196207E-1,8.158254623E-2,-6.433409452E-1
1.200000000E-1,4.304280579E-1,7.306043804E-2,-6.598525047E-1
1.220000000E-1,4.810280800E-1,5.015726760E-2,-6.742335558E-1
1.240000000E-1,5.278996825E-1,2.352567762E-2,-6.934083104E-1
1.260000000E-1,5.784996748E-1,-1.056275517E-2,-7.104525566E-1
1.280000000E-1,6.312302351E-1,-4.145539552E-2,-7.301598787E-1
1.300000000E-1,6.871565580E-1,-7.660908997E-2,-7.530630827E-1
1.320000000E-1,7.382892370E-1,-1.053712070E-1,-7.749009728E-1
1.340000000E-1,7.963460684E-1,-1.314701736E-1,-7.962062359E-1
1.360000000E-1,8.544029593E-1,-1.655586064E-1,-8.191093802E-1
1.380000000E-1,9.124597907E-1,-1.916575581E-1,-8.436104655E-1
1.400000000E-1,9.683861136E-1,-2.220175713E-1,-8.659809828E-1
1.420000000E-1,1.028573513E0,-2.497144192E-1,-8.910146952E-1
1.440000000E-1,1.087162971E0,-2.731502056E-1,-9.139178395E-1
1.460000000E-1,1.139360905E0,-2.923249602E-1,-9.378862977E-1
1.480000000E-1,1.192091465E0,-3.099018037E-1,-9.661157727E-1
1.500000000E-1,1.240560889E0,-3.253481090E-1,-9.927473664E-1
1.520000000E-1,1.286899924E0,-3.312070668E-1,-1.023640037E0
1.540000000E-1,1.334304094E0,-3.301418126E-1,-1.055065393E0
1.560000000E-1,1.373718858E0,-3.333376050E-1,-1.088088512E0
1.580000000E-1,1.413133621E0,-3.338702321E-1,-1.121111631E0
1.600000000E-1,1.448819876E0,-3.269460201E-1,-1.157330632E0
1.620000000E-1,1.487169385E0,-3.237502277E-1,-1.194082260E0
1.640000000E-1,1.521257877E0,-3.125649393E-1,-1.231366396E0
1.660000000E-1,1.552683115E0,-3.099018037E-1,-1.266520143E0
1.680000000E-1,1.586238980E0,-3.008470535E-1,-1.302739143E0
1.700000000E-1,1.617664218E0,-2.901944220E-1,-1.331501245E0
1.720000000E-1,1.645893693E0,-2.726175785E-1,-1.360263348E0
1.740000000E-1,1.672525287E0,-2.465186268E-1,-1.385297060E0
1.760000000E-1,1.699156880E0,-2.209523022E-1,-1.398612857E0
1.780000000E-1,1.722592711E0,-1.937880814E-1,-1.399145484E0
1.800000000E-1,1.754550576E0,-1.762112379E-1,-1.388492823E0
1.820000000E-1,1.783845305E0,-1.660912335E-1,-1.358132839E0
1.840000000E-1,1.811542153E0,-1.730154455E-1,-1.319250703E0
1.860000000E-1,1.832314849E0,-1.911249310E-1,-1.261726499E0
1.880000000E-1,1.855750561E0,-2.246807218E-1,-1.195147514E0
1.900000000E-1,1.881849527E0,-2.768786252E-1,-1.120579004E0
1.920000000E-1,1.912209511E0,-3.333376050E-1,-1.031096935E0
1.940000000E-1,1.942036986E0,-4.079060256E-1,-9.139178395E-1
1.960000000E-1,1.975592732E0,-5.000513196E-1,-7.807599306E-1
1.980000000E-1,2.005420208E0,-6.012513638E-1,-6.252314448E-1
2.000000000E-1,2.042704344E0,-7.056471705E-1,-4.622461200E-1
2.020000000E-1,2.082118988E0,-7.935314178E-1,-2.955323756E-1
2.040000000E-1,2.119403362E0,-8.569146395E-1,-1.171007603E-1
2.060000000E-1,2.158818007E0,-8.984599113E-1,5.121088028E-2
2.080000000E-1,2.201961279E0,-9.197651744E-1,2.083372474E-1
2.100000000E-1,2.234451771E0,-9.224283099E-1,3.468215168E-1
2.120000000E-1,2.270138025E0,-9.133735895E-1,4.634678662E-1
2.140000000E-1,2.301030636E0,-8.920683265E-1,5.534826517E-1
2.160000000E-1,2.336717129E0,-8.665019870E-1,6.243226528E-1
2.180000000E-1,2.380392790E0,-8.462619781E-1,6.669332385E-1
2.200000000E-1,2.429927588E0,-8.372072577E-1,6.914342642E-1
2.220000000E-1,2.477864504E0,-8.483924866E-1,6.999563575E-1
2.240000000E-1,2.532192945E0,-8.798177838E-1,6.962279677E-1
2.260000000E-1,2.586521387E0,-9.208304286E-1,6.861079335E-1
2.280000000E-1,2.638719320E0,-9.730283618E-1,6.711942554E-1
2.300000000E-1,2.691449881E0,-1.031617880E0,6.568132043E-1
2.320000000E-1,2.740984678E0,-1.081685305E0,6.371058226E-1
2.340000000E-1,2.789453983E0,-1.128556848E0,6.179310679E-1
2.360000000E-1,2.837390900E0,-1.165841103E0,5.934300423E-1
2.380000000E-1,2.877871037E0,-1.183417916E0,5.667984486E-1
2.400000000E-1,2.918883562E0,-1.193537951E0,5.391016006E-1
2.420000000E-1,2.952439308E0,-1.182885289E0,5.087415576E-1
2.440000000E-1,2.989191055E0,-1.149329543E0,4.778489470E-1
2.460000000E-1,3.022746801E0,-1.098729491E0,4.469562769E-1
2.480000000E-1,3.056835175E0,-1.030552626E0,4.219225943E-1
2.500000000E-1,3.085597277E0,-9.437335730E-1,3.963562846E-1
2.520000000E-1,3.115957260E0,-8.329461813E-1,3.707899451E-1
2.540000000E-1,3.145251989E0,-7.083103657E-1,3.484194279E-1
2.560000000E-1,3.172416210E0,-5.597060919E-1,3.265815079E-1
2.580000000E-1,3.194786787E0,-3.929923475E-1,3.100699186E-1
2.600000000E-1,3.218222618E0,-2.166912556E-1,2.962214947E-1
2.620000000E-1,3.238995314E0,-3.346591815E-2,2.823730707E-1
2.640000000E-1,3.257637501E0,1.588141471E-1,2.738509774E-1
2.660000000E-1,3.275214195E0,3.526921272E-1,2.701225579E-1
2.680000000E-1,3.287997484E0,5.337868929E-1,2.669267654E-1
2.700000000E-1,3.293323755E0,7.042290568E-1,2.685246468E-1
2.720000000E-1,3.300780535E0,8.576270342E-1,2.775793970E-1
2.740000000E-1,3.303443670E0,9.854586720E-1,2.914278209E-1
2.760000000E-1,3.301845789E0,1.087191224E0,3.090046644E-1
2.780000000E-1,3.299715281E0,1.160161853E0,3.319078386E-1
2.800000000E-1,3.293856382E0,1.201174498E0,3.585394323E-1
2.820000000E-1,3.280007839E0,1.218751311E0,3.835731149E-1
2.840000000E-1,3.260833263E0,1.202239752E0,4.091394246E-1
2.860000000E-1,3.237397432E0,1.168683887E0,4.341731369E-1
2.880000000E-1,3.212896347E0,1.120747089E0,4.645331502E-1
2.900000000E-1,3.182536364E0,1.053635478E0,4.874362946E-1
2.920000000E-1,3.147382736E0,9.780018330E-1,5.146005154E-1
2.940000000E-1,3.104239464E0,8.874543905E-1,5.375037193E-1
2.960000000E-1,3.057367802E0,7.915806770E-1,5.582763553E-1
2.980000000E-1,3.003039360E0,6.925112009E-1,5.753205419E-1
3.000000000E-1,2.946580410E0,5.833216906E-1,5.870384574E-1
3.020000000E-1,2.876805782E0,4.618816376E-1,5.976910591E-1
3.040000000E-1,2.808096170E0,3.287236989E-1,6.147353053E-1
3.060000000E-1,2.732462406E0,1.827825755E-1,6.269858479E-1
3.080000000E-1,2.641915083E0,2.991725877E-2,6.434974074E-1
3.100000000E-1,2.552965641E0,-1.293396354E-1,6.578784585E-1
3.120000000E-1,2.450700283E0,-2.944554687E-1,6.711942554E-1
3.140000000E-1,2.350032806E0,-4.606365860E-1,6.845100522E-1
3.160000000E-1,2.236049652E0,-6.353397965E-1,6.951627135E-1
3.180000000E-1,2.115674973E0,-8.084450960E-1,7.015542984E-1
3.200000000E-1,1.985712767E0,-9.895399213E-1,7.020869255E-1
3.220000000E-1,1.846695900E0,-1.165308475E0,6.893037558E-1
3.240000000E-1,1.708211541E0,-1.337348580E0,6.749227047E-1
3.260000000E-1,1.559074759E0,-1.506192803E0,6.466932297E-1
3.280000000E-1,1.410470486E0,-1.658525467E0,6.099416018E-1
3.300000000E-1,1.253876686E0,-1.805531859E0,5.747879148E-1
3.320000000E-1,1.096217752E0,-1.936026573E0,5.321773887E-1
3.340000000E-1,9.305692911E-1,-2.050542355E0,4.853057861E-1
3.360000000E-1,7.622576356E-1,-2.151742458E0,4.442931414E-1
3.380000000E-1,5.944786668E-1,-2.230039358E0,4.006173313E-1
3.400000000E-1,4.208406806E-1,-2.291291952E0,3.558762670E-1
3.420000000E-1,2.450721860E-1,-2.337630987E0,3.074067831E-1
3.440000000E-1,7.196687907E-2,-2.367458344E0,2.653288543E-1
3.460000000E-1,-1.053995043E-1,-2.378643513E0,2.168593556E-1
3.480000000E-1,-2.795700729E-1,-2.387698412E0,1.715856493E-1
3.500000000E-1,-4.510775208E-1,-2.383970022E0,1.358993202E-1
3.520000000E-1,-6.209870577E-1,-2.377578259E0,1.007456332E-1
3.540000000E-1,-7.834397554E-1,-2.365327835E0,6.985298544E-2
3.560000000E-1,-9.395008087E-1,-2.358936310E0,4.055824503E-2
3.580000000E-1,-1.087572575E0,-2.352544546E0,8.600338362E-3
3.600000000E-1,-1.222860932E0,-2.352544546E0,-1.856388152E-2
3.620000000E-1,-1.346431613E0,-2.354675293E0,-4.679336399E-2
3.640000000E-1,-1.463077903E0,-2.361599445E0,-8.194706589E-2
3.660000000E-1,-1.564278007E0,-2.381306887E0,-1.112418100E-1
3.680000000E-1,-1.653760076E0,-2.396753073E0,-1.431997120E-1
3.700000000E-1,-1.733654857E0,-2.423384666E0,-1.767555177E-1
3.720000000E-1,-1.799168587E0,-2.450548887E0,-2.151050121E-1
3.740000000E-1,-1.856692791E0,-2.475049973E0,-2.518565953E-1
3.760000000E-1,-1.898238063E0,-2.501148939E0,-2.939344943E-1
3.780000000E-1,-1.936587572E0,-2.524052143E0,-3.386755586E-1
3.800000000E-1,-1.958425403E0,-2.543759346E0,-3.855471611E-1
3.820000000E-1,-1.974404454E0,-2.564532042E0,-4.340166450E-1
3.840000000E-1,-1.979198098E0,-2.573054314E0,-4.894103408E-1
3.860000000E-1,-1.975469708E0,-2.581576347E0,-5.400103927E-1
3.880000000E-1,-1.962153912E0,-2.576782703E0,-5.943388343E-1
3.900000000E-1,-1.939250708E0,-2.560271025E0,-6.481345892E-1
3.920000000E-1,-1.901433825E0,-2.531508923E0,-7.019304037E-1
3.940000000E-1,-1.857758045E0,-2.483572006E0,-7.482693791E-1
3.960000000E-1,-1.800233841E0,-2.418058395E0,-7.940757275E-1
3.980000000E-1,-1.738981128E0,-2.338696241E0,-8.372188807E-1
4.000000000E-1,-1.666010618E0,-2.244953156E0,-8.686441779E-1
4.020000000E-1,-1.580789566E0,-2.134165525E0,-8.990041614E-1
4.040000000E-1,-1.484915853E0,-2.014856100E0,-9.240378737E-1
4.060000000E-1,-1.387444258E0,-1.888089776E0,-9.400168061E-1
4.080000000E-1,-1.279852629E0,-1.749072909E0,-9.549304843E-1
4.100000000E-1,-1.162673593E0,-1.611121297E0,-9.597241879E-1
4.120000000E-1,-1.040168285E0,-1.465712786E0,-9.623873234E-1
4.140000000E-1,-9.155324101E-1,-1.318706393E0,-9.581263065E-1
4.160000000E-1,-7.861028910E-1,-1.177026391E0,-9.474736452E-1
4.180000000E-1,-6.470860243E-1,-1.042270541E0,-9.298968315E-1
4.200000000E-1,-5.117975473E-1,-9.149714708E-1,-9.096568227E-1
4.220000000E-1,-3.754437864E-1,-7.898030281E-1,-8.840904832E-1
4.240000000E-1,-2.369595617E-1,-6.646345258E-1,-8.569262624E-1
4.260000000E-1,-9.794265777E-2,-5.490534306E-1,-8.249683380E-1
4.280000000E-1,3.201949224E-2,-4.430597425E-1,-7.892820239E-1
4.300000000E-1,1.651774198E-1,-3.349354863E-1,-7.466714978E-1
4.320000000E-1,2.839543223E-1,-2.326702029E-1,-7.056588531E-1
4.340000000E-1,4.011332989E-1,-1.341333240E-1,-6.598525047E-1
4.360000000E-1,5.060617924E-1,-3.666171059E-2,-6.071219444E-1
4.380000000E-1,6.072617769E-1,5.654884875E-2,-5.522608757E-1
4.400000000E-1,6.983418465E-1,1.486941427E-1,-4.984650612E-1
4.420000000E-1,7.851608396E-1,2.339152247E-1,-4.366798103E-1
4.440000000E-1,8.629250526E-1,3.106141984E-1,-3.791555762E-1
4.460000000E-1,9.358956218E-1,3.825194836E-1,-3.248271346E-1
4.480000000E-1,1.003539801E0,4.443047941E-1,-2.598460615E-1
4.500000000E-1,1.069053531E0,4.965026975E-1,-2.001913190E-1
4.520000000E-1,1.127110362E0,5.412437916E-1,-1.410691887E-1
4.540000000E-1,1.181971431E0,5.721364021E-1,-8.301232755E-2
4.560000000E-1,1.234701991E0,5.950395465E-1,-2.761862054E-2
4.580000000E-1,1.281573534E0,6.056922078E-1,2.351402864E-2
4.600000000E-1,1.330043077E0,6.024964452E-1,7.677720487E-2
4.620000000E-1,1.372653604E0,5.806584954E-1,1.247140616E-1
4.640000000E-1,1.414731503E0,5.540269017E-1,1.694551259E-1
4.660000000E-1,1.449352503E0,5.156774521E-1,2.141961902E-1
4.680000000E-1,1.483973622E0,4.682732224E-1,2.568067610E-1
4.700000000E-1,1.512735724E0,4.144774079E-1,2.983520329E-1
4.720000000E-1,1.539899945E0,3.622795045E-1,3.409625590E-1
4.740000000E-1,1.560140014E0,3.100815713E-1,3.825078607E-1
4.760000000E-1,1.576651573E0,2.578836679E-1,4.251183867E-1
4.780000000E-1,1.588369489E0,2.083489001E-1,4.629352391E-1
4.800000000E-1,1.595293641E0,1.652057171E-1,5.007520914E-1
4.820000000E-1,1.595293641E0,1.257909834E-1,5.375037193E-1
4.840000000E-1,1.594761014E0,9.170255065E-2,5.774510503E-1
4.860000000E-1,1.587836862E0,5.921200663E-2,6.131374240E-1
4.880000000E-1,1.575053692E0,3.258042037E-2,6.514868736E-1
4.900000000E-1,1.560672641E0,1.074251719E-2,6.861079335E-1
4.920000000E-1,1.538302064E0,-1.269328222E-2,7.223269343E-1
4.940000000E-1,1.515398860E0,-3.133539483E-2,7.516216636E-1
4.960000000E-1,1.485571504E0,-5.264066532E-2,7.825142741E-1
4.980000000E-1,1.450950503E0,-6.595645100E-2,8.070153594E-1
5.000000000E-1,1.410470486E0,-7.554382831E-2,8.272553682E-1
5.020000000E-1,1.365196705E0,-8.619645983E-2,8.506911397E-1
5.040000000E-1,1.316194654E0,-9.205541015E-2,8.677353859E-1
5.060000000E-1,1.261333585E0,-1.000448838E-1,8.810511827E-1
5.080000000E-1,1.200080872E0,-1.011101529E-1,8.943669796E-1
5.100000000E-1,1.137230396E0,-9.578382969E-2,9.028890729E-1
5.120000000E-1,1.065325022E0,-8.939225227E-2,9.092806578E-1
5.140000000E-1,9.880934954E-1,-7.447855920E-2,9.156722426E-1
5.160000000E-1,9.044703245E-1,-5.956487730E-2,9.162048697E-1
5.180000000E-1,8.229776621E-1,-3.825960681E-2,9.204659462E-1
5.200000000E-1,7.297670841E-1,-1.642170362E-2,9.220638275E-1
5.220000000E-1,6.365565658E-1,1.020988449E-2,9.225964546E-1
5.240000000E-1,5.422807336E-1,3.258042037E-2,9.178027511E-1
5.260000000E-1,4.389501810E-1,5.282042548E-2,9.140743613E-1
5.280000000E-1,3.388153911E-1,7.891938835E-2,9.060848951E-1
5.300000000E-1,2.360174507E-1,8.744149655E-2,8.986279964E-1
5.320000000E-1,1.321542561E-1,9.649623185E-2,8.842469454E-1
5.340000000E-1,3.095422871E-2,1.050183401E-1,8.714638352E-1
5.360000000E-1,-7.557212561E-2,1.044857129E-1,8.597459197E-1
5.380000000E-1,-1.805005819E-1,9.330043942E-2,8.453648686E-1
5.400000000E-1,-2.843637764E-1,7.572359592E-2,8.309838176E-1
5.420000000E-1,-3.839659095E-1,5.708147958E-2,8.182006478E-1
5.440000000E-1,-4.846332967E-1,2.938462794E-2,8.048848510E-1
5.460000000E-1,-5.799744129E-1,-5.236436147E-3,7.867753506E-1
5.480000000E-1,-6.742502451E-1,-4.784697667E-2,7.691984773E-1
5.500000000E-1,-7.626670599E-1,-9.471856803E-2,7.489585280E-1
5.520000000E-1,-8.468229175E-1,-1.517101675E-1,7.292511463E-1
5.540000000E-1,-9.304460883E-1,-2.102996707E-1,7.058153152E-1
5.560000000E-1,-1.009275675E0,-2.758133709E-1,6.786510944E-1
5.580000000E-1,-1.083311439E0,-3.493165374E-1,6.573458314E-1
5.600000000E-1,-1.154151440E0,-4.292113185E-1,6.259205341E-1
5.620000000E-1,-1.222328305E0,-5.107039809E-1,5.982236862E-1
5.640000000E-1,-1.280385256E0,-6.028492451E-1,5.721247792E-1
5.660000000E-1,-1.336844206E0,-6.944619417E-1,5.449605584E-1
5.680000000E-1,-1.389574766E0,-7.903356552E-1,5.193942189E-1
5.700000000E-1,-1.439109445E0,-8.872746229E-1,4.943605065E-1
5.720000000E-1,-1.485981107E0,-9.767567515E-1,4.655984044E-1
5.740000000E-1,-1.526461124E0,-1.058249474E0,4.410973489E-1
5.760000000E-1,-1.561614752E0,-1.133883238E0,4.160636365E-1
5.780000000E-1,-1.594637990E0,-1.204190612E0,3.910299540E-1
5.800000000E-1,-1.618606448E0,-1.268638968E0,3.697246909E-1
5.820000000E-1,-1.635650635E0,-1.325098038E0,3.526804745E-1
5.840000000E-1,-1.651629567E0,-1.375697970E0,3.398973048E-1
5.860000000E-1,-1.664412737E0,-1.418841124E0,3.308425546E-1
5.880000000E-1,-1.667075872E0,-1.458788514E0,3.217878342E-1
5.900000000E-1,-1.668673754E0,-1.503529668E0,3.185920417E-1
5.920000000E-1,-1.664412737E0,-1.540281177E0,3.143309951E-1
5.940000000E-1,-1.654292703E0,-1.579163313E0,3.047436178E-1
5.960000000E-1,-1.643107414E0,-1.618578076E0,2.940909863E-1
5.980000000E-1,-1.620204329E0,-1.652666569E0,2.781120241E-1
6.000000000E-1,-1.599431634E0,-1.680363417E0,2.647962272E-1
6.020000000E-1,-1.569604278E0,-1.708592892E0,2.488172650E-1
6.040000000E-1,-1.542972684E0,-1.719778180E0,2.296425104E-1
6.060000000E-1,-1.515808463E0,-1.724571824E0,2.094025165E-1
6.080000000E-1,-1.490774751E0,-1.721908689E0,1.907604039E-1
6.100000000E-1,-1.464675784E0,-1.702733874E0,1.699877530E-1
6.120000000E-1,-1.435381055E0,-1.671841264E0,1.497477591E-1
6.140000000E-1,-1.409282088E0,-1.627100229E0,1.332361698E-1
6.160000000E-1,-1.384248376E0,-1.571706533E0,1.140614226E-1
6.180000000E-1,-1.357084155E0,-1.506725430E0,9.701720625E-2
6.200000000E-1,-1.328854680E0,-1.438548565E0,7.997298986E-2
6.220000000E-1,-1.301157832E0,-1.366643310E0,6.505930424E-2
6.240000000E-1,-1.272395730E0,-1.295803189E0,5.440666899E-2
6.260000000E-1,-1.242035747E0,-1.223897934E0,3.789508715E-2
6.280000000E-1,-1.214338899E0,-1.161047459E0,2.884034440E-2
6.300000000E-1,-1.179717779E0,-1.103523135E0,1.552455127E-2
6.320000000E-1,-1.145629406E0,-1.052390575E0,2.208757214E-3
6.340000000E-1,-1.113671422E0,-1.008714676E0,-9.509141557E-3
6.360000000E-1,-1.082246184E0,-9.735609889E-1,-2.229230478E-2
6.380000000E-1,-1.049755692E0,-9.453315139E-1,-3.187967464E-2
6.400000000E-1,-1.020993590E0,-9.266893864E-1,-4.359757528E-2
6.420000000E-1,-9.906334877E-1,-9.160367250E-1,-5.584810302E-2
6.440000000E-1,-9.613387585E-1,-9.133735895E-1,-6.330495328E-2
6.460000000E-1,-9.320439696E-1,-9.128409624E-1,-7.022916526E-2
6.480000000E-1,-9.075429440E-1,-9.240261912E-1,-7.502285391E-2
6.500000000E-1,-8.857050538E-1,-9.336135983E-1,-8.461022377E-2
6.520000000E-1,-8.596060872E-1,-9.463967681E-1,-8.940391243E-2
6.540000000E-1,-8.409639597E-1,-9.613104463E-1,-9.259969741E-2
6.560000000E-1,-8.217892051E-1,-9.778220057E-1,-9.419759363E-2
6.580000000E-1,-8.074081540E-1,-9.916704297E-1,-9.792602062E-2
6.600000000E-1,-7.978208065E-1,-1.008714676E0,-1.037849635E-1
6.620000000E-1,-7.951576114E-1,-1.023628473E0,-1.016544402E-1
6.640000000E-1,-7.919618487E-1,-1.035878897E0,-1.032523364E-1
6.660000000E-1,-7.935597301E-1,-1.047064185E0,-9.845864773E-2
6.680000000E-1,-7.972881794E-1,-1.059314728E0,-9.419759363E-2
6.700000000E-1,-8.058102727E-1,-1.068902135E0,-8.993653953E-2
6.720000000E-1,-8.164628744E-1,-1.076891541E0,-8.088180423E-2
6.740000000E-1,-8.303112984E-1,-1.087011576E0,-6.703337282E-2
6.760000000E-1,-8.446924090E-1,-1.087011576E0,-6.223968789E-2
6.780000000E-1,-8.590734601E-1,-1.095001101E0,-5.105441809E-2
6.800000000E-1,-8.745197654E-1,-1.104588389E0,-4.839126021E-2
6.820000000E-1,-8.904986978E-1,-1.105653763E0,-4.572809860E-2
6.840000000E-1,-9.054123759E-1,-1.114708424E0,-4.306494072E-2
6.860000000E-1,-9.181955457E-1,-1.119502187E0,-4.732599482E-2
6.880000000E-1,-9.315113425E-1,-1.125361085E0,-5.318494514E-2
6.900000000E-1,-9.410987496E-1,-1.137611628E0,-6.170705333E-2
6.920000000E-1,-9.480229616E-1,-1.142937899E0,-6.969653070E-2
6.940000000E-1,-9.512187243E-1,-1.141340017E0,-8.514285088E-2
6.960000000E-1,-9.485555887E-1,-1.151992679E0,-1.016544402E-1
6.980000000E-1,-9.458923936E-1,-1.157318950E0,-1.245575994E-1
7.000000000E-1,-9.368376732E-1,-1.164243221E0,-1.501239240E-1
7.020000000E-1,-9.208587408E-1,-1.163710594E0,-1.815492064E-1
7.040000000E-1,-9.000861049E-1,-1.159982204E0,-2.172355354E-1
7.060000000E-1,-8.734545112E-1,-1.157318950E0,-2.598460615E-1
7.080000000E-1,-8.414965868E-1,-1.148264289E0,-3.099134564E-1
7.100000000E-1,-8.052776456E-1,-1.132817984E0,-3.695681989E-1
7.120000000E-1,-7.584060431E-1,-1.108849525E0,-4.308208525E-1
7.140000000E-1,-7.051428556E-1,-1.080087423E0,-5.043240190E-1
7.160000000E-1,-6.481512785E-1,-1.039607406E0,-5.847514272E-1
7.180000000E-1,-5.821049213E-1,-9.847462177E-1,-6.731683016E-1
7.200000000E-1,-5.101996064E-1,-9.192325473E-1,-7.749009728E-1
7.220000000E-1,-4.287069738E-1,-8.467946053E-1,-8.808947206E-1
7.240000000E-1,-3.440185189E-1,-7.599756122E-1,-9.943452477E-1
7.260000000E-1,-2.561342716E-1,-6.625040174E-1,-1.112589598E0
7.280000000E-1,-1.533363611E-1,-5.543797612E-1,-1.237758040E0
7.300000000E-1,-4.947316647E-2,-4.308091998E-1,-1.367720127E0
7.320000000E-1,5.758581683E-2,-2.960533798E-1,-1.497149706E0
7.340000000E-1,1.763626933E-1,-1.447859555E-1,-1.621252894E0
7.360000000E-1,2.978027463E-1,1.660146564E-2,-1.738431931E0
7.380000000E-1,4.272322655E-1,1.918373108E-1,-1.842295051E0
7.400000000E-1,5.587922931E-1,3.787910640E-1,-1.931244612E0
7.420000000E-1,6.967439651E-1,5.753322244E-1,-1.994627714E0
7.440000000E-1,8.362934589E-1,7.862543464E-1,-2.031912088E0
7.460000000E-1,9.795714021E-1,1.001437545E0,-2.042564631E0
7.480000000E-1,1.122316599E0,1.216620803E0,-2.020726681E0
7.500000000E-1,1.263464093E0,1.430738688E0,-1.984507799E0
7.520000000E-1,1.406741977E0,1.638465166E0,-1.931244612E0
7.540000000E-1,1.540432572E0,1.841930509E0,-1.868926644E0
7.560000000E-1,1.673057914E0,2.045928478E0,-1.807141423E0
7.580000000E-1,1.801422119E0,2.231817007E0,-1.744290829E0
7.600000000E-1,1.917003274E0,2.409183264E0,-1.690495014E0
7.620000000E-1,2.029921293E0,2.562581301E0,-1.634036064E0
7.640000000E-1,2.138045311E0,2.696271896E0,-1.585566521E0
7.660000000E-1,2.233919144E0,2.817711830E0,-1.545619249E0
7.680000000E-1,2.330858231E0,2.917846680E0,-1.504073858E0
7.700000000E-1,2.415546656E0,2.999339342E0,-1.460398078E0
7.720000000E-1,2.495441437E0,3.058461428E0,-1.415124416E0
7.740000000E-1,2.565748692E0,3.106930971E0,-1.365056992E0
7.760000000E-1,2.628066540E0,3.141019344E0,-1.313924432E0
7.780000000E-1,2.680797100E0,3.163922548E0,-1.256932735E0
7.800000000E-1,2.718614101E0,3.169781446E0,-1.196212769E0
7.820000000E-1,2.751104593E0,3.163922548E0,-1.128568530E0
7.840000000E-1,2.772409916E0,3.150606632E0,-1.062522173E0
7.860000000E-1,2.784660339E0,3.121311903E0,-9.900842309E-1
7.880000000E-1,2.780931950E0,3.081364632E0,-9.192441702E-1
7.900000000E-1,2.761757135E0,3.035558224E0,-8.404147029E-1
7.920000000E-1,2.724473000E0,2.983892918E0,-7.551935911E-1
7.940000000E-1,2.663220406E0,2.927433968E0,-6.657114625E-1
7.960000000E-1,2.542312860E0,2.876833916E0,-5.666419268E-1
7.980000000E-1,2.378794909E0,2.814516068E0,-4.585177004E-1
8.000000000E-1,2.165742397E0,2.744741201E0,-3.280229270E-1
8.020000000E-1,1.915405393E0,2.643008709E0,-1.890060455E-1
8.040000000E-1,1.634175777E0,2.513579130E0,-4.199967906E-2
8.060000000E-1,1.340162992E0,2.345267534E0,9.435404837E-2
8.080000000E-1,1.031769276E0,2.132214785E0,2.392298877E-1
8.100000000E-1,7.127228975E-1,1.879747272E0,3.697246909E-1
8.120000000E-1,3.984701633E-1,1.597452521E0,4.927626252E-1
8.140000000E-1,9.007635713E-2,1.284797668E0,5.944952965E-1
8.160000000E-1,-2.012732327E-1,9.636207223E-1,6.770532131E-1
8.180000000E-1,-4.729154110E-1,6.280627251E-1,7.404363751E-1
8.200000000E-1,-7.168607712E-1,2.957005203E-1,7.841122150E-1
8.220000000E-1,-9.458923936E-1,-2.281328477E-2,8.011564016E-1
8.240000000E-1,-1.149357796E0,-3.269460201E-1,8.048848510E-1
8.260000000E-1,-1.340572596E0,-6.113713980E-1,7.889058590E-1
8.280000000E-1,-1.508351564E0,-8.750240803E-1,7.670679688E-1
8.300000000E-1,-1.660151720E0,-1.110980034E0,7.255226970E-1
8.320000000E-1,-1.805027485E0,-1.322967410E0,6.781184673E-1
8.340000000E-1,-1.930195928E0,-1.521639109E0,6.291163564E-1
8.360000000E-1,-2.044711828E0,-1.694744468E0,5.726574063E-1
8.380000000E-1,-2.150705576E0,-1.853468657E0,5.140678883E-1
8.400000000E-1,-2.242850780E0,-2.004203558E0,4.608047307E-1
8.420000000E-1,-2.322745562E0,-2.135763645E0,4.091394246E-1
8.440000000E-1,-2.388792038E0,-2.246551037E0,3.596046865E-1
8.460000000E-1,-2.447914124E0,-2.344555140E0,3.074067831E-1
8.480000000E-1,-2.507568836E0,-2.434569836E0,2.477519959E-1
8.500000000E-1,-2.555505753E0,-2.520856380E0,1.907604039E-1
8.520000000E-1,-2.594920397E0,-2.595957279E0,1.364319623E-1
8.540000000E-1,-2.625813007E0,-2.653481722E0,8.370141685E-2
8.560000000E-1,-2.642324686E0,-2.688635349E0,3.256876767E-2
8.580000000E-1,-2.646053076E0,-2.696624756E0,-1.962914318E-2
8.600000000E-1,-2.636998415E0,-2.690233231E0,-6.596811116E-2
8.620000000E-1,-2.603442430E0,-2.650818348E0,-1.064481288E-1
8.640000000E-1,-2.557103634E0,-2.582108974E0,-1.410691887E-1
8.660000000E-1,-2.491589785E0,-2.480908871E0,-1.682334095E-1
8.680000000E-1,-2.401042461E0,-2.367458344E0,-1.826144606E-1
8.700000000E-1,-2.301440239E0,-2.230571985E0,-1.874081492E-1
8.720000000E-1,-2.180532932E0,-2.076641321E0,-1.831471026E-1
8.740000000E-1,-2.045244455E0,-1.899275064E0,-1.708965749E-1
8.760000000E-1,-1.895042300E0,-1.702201247E0,-1.527870893E-1
8.780000000E-1,-1.730991721E0,-1.485952735E0,-1.336123496E-1
8.800000000E-1,-1.551494837E0,-1.245203257E0,-1.053828597E-1
8.820000000E-1,-1.356018901E0,-9.831483364E-1,-6.969653070E-2
8.840000000E-1,-1.145629406E0,-6.928640008E-1,-2.602072433E-2
8.860000000E-1,-9.139345288E-1,-3.711544573E-1,2.351402864E-2
8.880000000E-1,-6.726523042E-1,-2.707434073E-2,8.476667851E-2
8.900000000E-1,-4.207175076E-1,3.340499997E-1,1.486824900E-1
8.920000000E-1,-1.703805774E-1,7.127512097E-1,2.115330398E-1
8.940000000E-1,7.942371815E-2,1.081864953E0,2.882320285E-1
8.960000000E-1,3.132490814E-1,1.434999824E0,3.617351949E-1
8.980000000E-1,5.209754705E-1,1.762035728E0,4.267162979E-1
9.000000000E-1,6.972765923E-1,2.046993732E0,4.778489470E-1
9.020000000E-1,8.368260860E-1,2.287743330E0,5.209921002E-1
9.040000000E-1,9.396240115E-1,2.478425503E0,5.572110415E-1
9.060000000E-1,9.955503345E-1,2.621703386E0,5.806468725E-1
9.080000000E-1,1.011529207E0,2.710120201E0,5.966258049E-1
9.100000000E-1,9.822345376E-1,2.745273829E0,6.072784662E-1
9.120000000E-1,9.087314010E-1,2.746339083E0,6.120721102E-1
9.140000000E-1,7.958134413E-1,2.714913845E0,6.110068560E-1
9.160000000E-1,6.488071084E-1,2.649932861E0,6.014195085E-1
9.180000000E-1,4.703754485E-1,2.556189775E0,5.886363387E-1
9.200000000E-1,2.594532669E-1,2.434216976E0,5.715921521E-1
9.220000000E-1,2.669317462E-2,2.285612822E0,5.561457872E-1
9.240000000E-1,-2.263069153E-1,2.131149530E0,5.337752700E-1
9.260000000E-1,-4.984817207E-1,1.980947375E0,5.108721256E-1
9.280000000E-1,-7.749176025E-1,1.844061017E0,4.842405021E-1
9.300000000E-1,-1.032711506E0,1.732740998E0,4.629352391E-1
9.320000000E-1,-1.242035747E0,1.650715709E0,4.485541880E-1
9.340000000E-1,-1.391172647E0,1.607039809E0,4.464236498E-1
9.360000000E-1,-1.499296904E0,1.604909301E0,4.586741924E-1
9.380000000E-1,-1.565875888E0,1.646454573E0,4.837078750E-1
9.400000000E-1,-1.594105363E0,1.716761947E0,5.060784221E-1
9.420000000E-1,-1.586115837E0,1.809972525E0,5.332426429E-1
9.440000000E-1,-1.556821108E0,1.908509493E0,5.620047450E-1
9.460000000E-1,-1.516341090E0,2.011840105E0,5.843752623E-1
9.480000000E-1,-1.460414767E0,2.117300987E0,6.003542542E-1
9.500000000E-1,-1.400227308E0,2.216903210E0,6.078110933E-1
9.520000000E-1,-1.334181070E0,2.302124262E0,6.056805849E-1
9.540000000E-1,-1.267602086E0,2.364974976E0,5.971584320E-1
9.560000000E-1,-1.196229458E0,2.413444281E0,5.790489912E-1
9.580000000E-1,-1.130715728E0,2.441141129E0,5.524173975E-1
9.600000000E-1,-1.063071489E0,2.448598146E0,5.220573545E-1
9.620000000E-1,-1.000220895E0,2.441673756E0,4.821099937E-1
9.640000000E-1,-9.405661225E-1,2.417172670E0,4.373689294E-1
9.660000000E-1,-8.777155280E-1,2.379355907E0,3.984867930E-1
9.680000000E-1,-8.228544593E-1,2.325560093E0,3.532131016E-1
9.700000000E-1,-7.690586448E-1,2.256318092E0,3.084720373E-1
9.720000000E-1,-7.275133729E-1,2.172694683E0,2.637309730E-1
9.740000000E-1,-6.865007281E-1,2.083745241E0,2.173919827E-1
9.760000000E-1,-6.518796682E-1,1.988936782E0,1.801077574E-1
9.780000000E-1,-6.225849390E-1,1.890932560E0,1.417582780E-1
9.800000000E-1,-5.991491675E-1,1.802515745E0,1.039414182E-1
9.820000000E-1,-5.853006840E-1,1.717827320E0,7.038562000E-2
9.840000000E-1,-5.751807094E-1,1.640063047E0,4.109087586E-2
9.860000000E-1,-5.698543787E-1,1.568690419E0,1.818770915E-2
9.880000000E-1,-5.709196329E-1,1.501578808E0,-4.544015974E-4
9.900000000E-1,-5.821049213E-1,1.442456603E0,-1.803125069E-2
9.920000000E-1,-5.964859724E-1,1.389726043E0,-3.347757086E-2
9.940000000E-1,-6.177912354E-1,1.339658737E0,-3.667335957E-2
9.960000000E-1,-6.422923207E-1,1.299178720E0,-3.773862496E-2
9.980000000E-1,-6.737175584E-1,1.266688108E0,-4.199967906E-2
1.000000000E0,-7.072733641E-1,1.238991261E0,-3.933652118E-2
1.002000000E0,-7.450902462E-1,1.219283938E0,-3.454283252E-2
1.004000000E0,-7.834397554E-1,1.196913362E0,-2.548809350E-2
1.006000000E0,-8.244524002E-1,1.181999683E0,-1.536809001E-2
1.008000000E0,-8.638671041E-1,1.173477650E0,-9.870333597E-4
1.010000000E0,-9.032818675E-1,1.167086005E0,2.031823620E-2
1.012000000E0,-9.442945123E-1,1.164422870E0,4.162350670E-2
1.014000000E0,-9.805134535E-1,1.158563972E0,6.665720046E-2
1.016000000E0,-1.010873556E0,1.151107073E0,9.169089049E-2
1.018000000E0,-1.044429302E0,1.142052293E0,1.257793307E-1
1.020000000E0,-1.072126150E0,1.132997632E0,1.614656448E-1
1.022000000E0,-1.097159863E0,1.125008106E0,1.955540776E-1
1.024000000E0,-1.117932558E0,1.107431293E0,2.344361991E-1
1.026000000E0,-1.138172507E0,1.093582869E0,2.749162316E-1
1.028000000E0,-1.153086185E0,1.073342800E0,3.159288764E-1
1.030000000E0,-1.160543084E0,1.053635478E0,3.580067754E-1
1.032000000E0,-1.169597864E0,1.031797528E0,4.006173313E-1
1.034000000E0,-1.176522017E0,1.008361816E0,4.400320649E-1
1.036000000E0,-1.178119898E0,9.806649685E-1,4.821099937E-1
1.038000000E0,-1.173326254E0,9.535007477E-1,5.305795074E-1
1.040000000E0,-1.164804101E0,9.210101962E-1,5.758531690E-1
1.042000000E0,-1.156282067E0,8.943786025E-1,6.227247715E-1
1.044000000E0,-1.141368389E0,8.677470088E-1,6.600089669E-1
1.046000000E0,-1.128052592E0,8.411154151E-1,7.004889846E-1
1.048000000E0,-1.109410405E0,8.182122707E-1,7.319142818E-1
1.050000000E0,-1.083311439E0,7.974396348E-1,7.665353417E-1
1.052000000E0,-1.058277726E0,7.713406682E-1,7.942321897E-1
1.054000000E0,-1.031646132E0,7.441764474E-1,8.192659020E-1
1.056000000E0,-1.006612539E0,7.175448537E-1,8.400385380E-1
1.058000000E0,-9.794481993E-1,6.930438280E-1,8.570827246E-1
1.060000000E0,-9.522839785E-1,6.685427427E-1,8.672027588E-1
1.062000000E0,-9.293808341E-1,6.477701068E-1,8.688006401E-1
1.064000000E0,-9.080755711E-1,6.344543099E-1,8.640069366E-1
1.066000000E0,-8.846397400E-1,6.285953522E-1,8.624090552E-1
1.068000000E0,-8.681281805E-1,6.269974709E-1,8.570827246E-1
1.070000000E0,-8.532145023E-1,6.381827593E-1,8.432343006E-1
1.072000000E0,-8.393660784E-1,6.429764032E-1,8.331143260E-1
1.074000000E0,-8.319092393E-1,6.546943188E-1,8.229942918E-1
1.076000000E0,-8.297786713E-1,6.621511579E-1,8.160700798E-1
1.078000000E0,-8.239197135E-1,6.775975227E-1,8.048848510E-1
1.080000000E0,-8.303112984E-1,6.903806329E-1,7.974280119E-1
1.082000000E0,-8.292460442E-1,7.052943707E-1,7.894384861E-1
1.084000000E0,-8.351050019E-1,7.132838368E-1,7.798511386E-1
1.086000000E0,-8.462902904E-1,7.180774808E-1,7.734595537E-1
1.088000000E0,-8.532145023E-1,7.239364386E-1,7.633395791E-1
1.090000000E0,-8.654650450E-1,7.319259048E-1,7.500237823E-1
1.092000000E0,-8.750523925E-1,7.340564728E-1,7.383058667E-1
1.094000000E0,-8.846397400E-1,7.271322608E-1,7.233921885E-1
1.096000000E0,-8.995534778E-1,7.207406759E-1,7.042174339E-1
1.098000000E0,-9.080755711E-1,7.090227604E-1,6.866405606E-1
1.100000000E0,-9.256523848E-1,6.973048449E-1,6.701290011E-1
1.102000000E0,-9.373703003E-1,6.855869889E-1,6.498889923E-1
1.104000000E0,-9.469577074E-1,6.658796072E-1,6.285837293E-1
1.106000000E0,-9.602734447E-1,6.499006152E-1,6.062132120E-1
1.108000000E0,-9.687955976E-1,6.296606064E-1,5.827773809E-1
1.110000000E0,-9.794481993E-1,6.094206572E-1,5.582763553E-1
1.112000000E0,-9.879703522E-1,5.838543177E-1,5.316447616E-1
1.114000000E0,-9.975576997E-1,5.625490546E-1,5.066110492E-1
1.116000000E0,-9.991555810E-1,5.407111049E-1,4.783815742E-1
1.118000000E0,-1.004481912E0,5.252647996E-1,4.544131458E-1
1.120000000E0,-1.003416657E0,5.087532401E-1,4.299120605E-1
1.122000000E0,-1.005547285E0,4.959700704E-1,4.059436321E-1
1.124000000E0,-1.002884030E0,4.799911082E-1,3.825078607E-1
1.126000000E0,-1.001286149E0,4.618816376E-1,3.532131016E-1
1.128000000E0,-1.000220895E0,4.496310949E-1,3.249836266E-1
1.130000000E0,-9.959598184E-1,4.368479252E-1,2.978194058E-1
1.132000000E0,-9.927639961E-1,4.256626666E-1,2.701225579E-1
1.134000000E0,-9.879703522E-1,4.240647852E-1,2.429583073E-1
1.136000000E0,-9.821113944E-1,4.192710817E-1,2.110003978E-1
1.138000000E0,-9.762524366E-1,4.166079164E-1,1.854340881E-1
1.140000000E0,-9.693282247E-1,4.240647852E-1,1.582698673E-1
1.142000000E0,-9.613387585E-1,4.256626666E-1,1.348340660E-1
1.144000000E0,-9.533492327E-1,4.277932048E-1,1.055393144E-1
1.146000000E0,-9.506860971E-1,4.320542514E-1,7.784246653E-2
1.148000000E0,-9.469577074E-1,4.373805821E-1,4.588456079E-2
1.150000000E0,-9.416313767E-1,4.400437176E-1,2.138350159E-2
1.152000000E0,-9.395008087E-1,4.400437176E-1,-3.650192171E-3
1.154000000E0,-9.379029274E-1,4.453700483E-1,-2.602072433E-2
1.156000000E0,-9.379029274E-1,4.506963491E-1,-5.691336840E-2
1.158000000E0,-9.389681816E-1,4.560226798E-1,-7.981653512E-2
1.160000000E0,-9.421640038E-1,4.576205611E-1,-1.048502326E-1
1.162000000E0,-9.448271394E-1,4.602837265E-1,-1.293512881E-1
1.164000000E0,-9.421640038E-1,4.645448029E-1,-1.501239240E-1
1.166000000E0,-9.421640038E-1,4.714690149E-1,-1.703639328E-1
1.168000000E0,-9.410987496E-1,4.826542735E-1,-1.879407912E-1
1.170000000E0,-9.363050461E-1,4.922416508E-1,-2.060502619E-1
1.172000000E0,-9.325765967E-1,5.007637143E-1,-2.225618511E-1
1.174000000E0,-9.256523848E-1,5.135468841E-1,-2.417365909E-1
1.176000000E0,-9.176629186E-1,5.210037827E-1,-2.587808073E-1
1.178000000E0,-9.064776897E-1,5.375153422E-1,-2.731618583E-1
1.180000000E0,-8.968902826E-1,5.593532324E-1,-2.918039560E-1
1.182000000E0,-8.809113503E-1,5.716037750E-1,-3.051197529E-1
1.184000000E0,-8.681281805E-1,5.811911225E-1,-3.179029226E-1
1.186000000E0,-8.505513072E-1,5.710711479E-1,-3.253597617E-1
1.188000000E0,-8.409639597E-1,5.598858595E-1,-3.349471390E-1
1.190000000E0,-8.191260695E-1,5.396458507E-1,-3.397408128E-1
1.192000000E0,-8.063428998E-1,5.183405876E-1,-3.408060968E-1
1.194000000E0,-7.845050097E-1,4.911763668E-1,-3.424039781E-1
1.196000000E0,-7.695912719E-1,4.624142647E-1,-3.408060968E-1
1.198000000E0,-7.504165769E-1,4.347174168E-1,-3.434692323E-1
1.200000000E0,-7.333723307E-1,4.027594924E-1,-3.434692323E-1
1.202000000E0,-7.136649489E-1,3.745300174E-1,-3.370776772E-1
1.204000000E0,-6.902291775E-1,3.431047499E-1,-3.322839737E-1
1.206000000E0,-6.651954651E-1,3.148752749E-1,-3.237618804E-1
1.208000000E0,-6.444228292E-1,2.893089354E-1,-3.152397573E-1
1.210000000E0,-6.225849390E-1,2.626773417E-1,-3.024565876E-1
1.212000000E0,-5.970185995E-1,2.307194322E-1,-2.907387018E-1
1.214000000E0,-5.714522600E-1,2.051531076E-1,-2.795534432E-1
1.216000000E0,-5.442880392E-1,1.801194102E-1,-2.625092268E-1
1.218000000E0,-5.187217593E-1,1.513572931E-1,-2.428018600E-1
1.220000000E0,-4.952859581E-1,1.279215068E-1,-2.236271054E-1
1.222000000E0,-4.670564532E-1,1.082141325E-1,-1.996586770E-1
1.224000000E0,-4.398922324E-1,9.276781231E-2,-1.772881448E-1
1.226000000E0,-4.175217152E-1,7.785411924E-2,-1.538523585E-1
1.228000000E0,-3.994122148E-1,6.400569528E-2,-1.309491843E-1
1.230000000E0,-3.695848584E-1,5.761411041E-2,-1.064481288E-1
1.232000000E0,-3.498774767E-1,4.962463304E-2,-8.407758921E-2
1.234000000E0,-3.291048408E-1,4.749410972E-2,-6.596811116E-2
1.236000000E0,-3.072669208E-1,4.483094811E-2,-4.785862938E-2
1.238000000E0,-2.817006111E-1,4.802674055E-2,-3.401020169E-2
1.240000000E0,-2.587974370E-1,4.110252485E-2,-1.803125069E-2
1.242000000E0,-2.364269197E-1,2.459094301E-2,-3.117560409E-3
1.244000000E0,-2.103279680E-1,6.481462624E-3,7.535074838E-3
1.246000000E0,-1.826311201E-1,-2.387854829E-2,1.978560537E-2
1.248000000E0,-1.490753144E-1,-5.530382320E-2,3.043824062E-2
1.250000000E0,-1.123237163E-1,-8.193540573E-2,3.523192927E-2
1.252000000E0,-7.610475272E-2,-1.138933152E-1,3.629719093E-2
1.254000000E0,-3.242895007E-2,-1.463838518E-1,3.896034881E-2
1.256000000E0,1.018158905E-2,-1.762112379E-1,3.097087145E-2
1.258000000E0,6.024897844E-2,-2.092344016E-1,2.191613242E-2
1.260000000E0,1.081858352E-1,-2.438554764E-1,1.339402422E-2
1.262000000E0,1.630468965E-1,-2.747480869E-1,3.806652501E-3
1.264000000E0,2.211037576E-1,-3.114996850E-1,-6.845982745E-3
1.266000000E0,2.796932757E-1,-3.445228636E-1,-2.175967023E-2
1.268000000E0,3.425438106E-1,-3.786112964E-1,-3.507546708E-2
1.270000000E0,4.021985829E-1,-4.116344452E-1,-4.945652187E-2
1.272000000E0,4.661144018E-1,-4.382660389E-1,-6.490284950E-2
1.274000000E0,5.289649367E-1,-4.654302597E-1,-8.194706589E-2
1.276000000E0,5.923480988E-1,-4.888660610E-1,-9.632812440E-2
1.278000000E0,6.557313204E-1,-5.107039809E-1,-1.123070717E-1
1.280000000E0,7.159186602E-1,-5.373355746E-1,-1.277533919E-1
1.282000000E0,7.766386867E-1,-5.634345412E-1,-1.400039196E-1
1.284000000E0,8.341629505E-1,-5.826092362E-1,-1.570481360E-1
1.286000000E0,8.911545277E-1,-6.039144993E-1,-1.714292020E-1
1.288000000E0,9.433524609E-1,-6.166976690E-1,-1.884734184E-1
1.290000000E0,9.950177073E-1,-6.310787201E-1,-2.097786814E-1
1.292000000E0,1.045085073E0,-6.374703050E-1,-2.342797518E-1
1.294000000E0,1.088228226E0,-6.481229663E-1,-2.566502690E-1
1.296000000E0,1.129773498E0,-6.539819241E-1,-2.827492356E-1
1.298000000E0,1.169188261E0,-6.635692716E-1,-3.125765920E-1
1.300000000E0,1.204874635E0,-6.710261106E-1,-3.440018892E-1
1.302000000E0,1.237897754E0,-6.747545600E-1,-3.759597838E-1
1.304000000E0,1.266659856E0,-6.832766533E-1,-4.159071743E-1
1.306000000E0,1.299150348E0,-6.854071617E-1,-4.526587427E-1
1.308000000E0,1.326314569E0,-6.939293146E-1,-4.942040443E-1
1.310000000E0,1.356674671E0,-6.987229586E-1,-5.336188078E-1
1.312000000E0,1.383838892E0,-7.040492892E-1,-5.762293339E-1
1.314000000E0,1.412068367E0,-7.083103657E-1,-6.236335635E-1
1.316000000E0,1.437102079E0,-7.099082470E-1,-6.726356745E-1
1.318000000E0,1.463201046E0,-7.125713825E-1,-7.264314890E-1
1.320000000E0,1.493561029E0,-7.131040096E-1,-7.802273035E-1
1.322000000E0,1.518062115E0,-7.147019506E-1,-8.377515078E-1
1.324000000E0,1.544160962E0,-7.083103657E-1,-8.968736529E-1
1.326000000E0,1.569727302E0,-7.008535266E-1,-9.586589336E-1
1.328000000E0,1.588369489E0,-6.880703568E-1,-1.016715884E0
1.330000000E0,1.609674692E0,-6.598408818E-1,-1.073174834E0
1.332000000E0,1.622457862E0,-6.310787201E-1,-1.125372767E0
1.334000000E0,1.638436794E0,-6.028492451E-1,-1.174374819E0
1.336000000E0,1.647491574E0,-5.639671683E-1,-1.215920091E0
1.338000000E0,1.657611609E0,-5.250850320E-1,-1.255867481E0
1.340000000E0,1.666666269E0,-4.782134295E-1,-1.286227465E0
1.342000000E0,1.675721049E0,-4.329397380E-1,-1.305402279E0
1.344000000E0,1.678384185E0,-3.796765506E-1,-1.326707482E0
1.346000000E0,1.686373711E0,-3.269460201E-1,-1.336827517E0
1.348000000E0,1.687971592E0,-2.731502056E-1,-1.340555906E0
1.350000000E0,1.693830490E0,-2.294744104E-1,-1.333631754E0
1.352000000E0,1.692765236E0,-1.868638694E-1,-1.323511720E0
1.354000000E0,1.698091626E0,-1.538407058E-1,-1.297412753E0
1.356000000E0,1.706081033E0,-1.304049045E-1,-1.260661244E0
1.358000000E0,1.720994711E0,-1.261438578E-1,-1.208995938E0
1.360000000E0,1.744430542E0,-1.490470171E-1,-1.152536988E0
1.362000000E0,1.767866373E0,-2.012449354E-1,-1.082762241E0
1.364000000E0,1.802487373E0,-2.598344088E-1,-9.964757562E-1
1.366000000E0,1.844565272E0,-3.413270712E-1,-9.021999836E-1
1.368000000E0,1.896763206E0,-4.361355305E-1,-7.914125323E-1
1.370000000E0,1.961211681E0,-5.304113626E-1,-6.737009287E-1
1.372000000E0,2.027257919E0,-6.065776944E-1,-5.421409011E-1
1.374000000E0,2.092771769E0,-6.678303480E-1,-4.036566317E-1
1.376000000E0,2.161481142E0,-7.003208995E-1,-2.731618583E-1
1.378000000E0,2.222201347E0,-7.125713825E-1,-1.442649812E-1
1.380000000E0,2.280790806E0,-7.104408741E-1,-3.187967464E-2
1.382000000E0,2.328194857E0,-6.928640008E-1,6.612456590E-2
1.384000000E0,2.375599146E0,-6.752871871E-1,1.481498629E-1
1.386000000E0,2.415546656E0,-6.545145512E-1,2.141961902E-1
1.388000000E0,2.449102402E0,-6.353397965E-1,2.621330619E-1
1.390000000E0,2.484256029E0,-6.198934913E-1,2.983520329E-1
1.392000000E0,2.511952877E0,-6.108387113E-1,3.207225502E-1
1.394000000E0,2.541247606E0,-5.911313891E-1,3.329730928E-1
1.396000000E0,2.568411827E0,-5.687608123E-1,3.356362581E-1
1.398000000E0,2.599304438E0,-5.447924137E-1,3.297773004E-1
1.400000000E0,2.628599167E0,-5.149649978E-1,3.191246688E-1
1.402000000E0,2.648839235E0,-4.771481752E-1,3.036783338E-1
1.404000000E0,2.669079304E0,-4.286786914E-1,2.898299098E-1
1.406000000E0,2.678666592E0,-3.716870844E-1,2.786446512E-1
1.408000000E0,2.685058355E0,-3.067060113E-1,2.658614814E-1
1.410000000E0,2.688254118E0,-2.363986224E-1,2.621330619E-1
1.412000000E0,2.690384626E0,-1.511775404E-1,2.626656890E-1
1.414000000E0,2.679731846E0,-5.264066532E-2,2.663941383E-1
1.416000000E0,2.669611931E0,5.654884875E-2,2.711878121E-1
1.418000000E0,2.652567625E0,1.763909906E-1,2.834383249E-1
1.420000000E0,2.637121439E0,2.941026390E-1,3.004825711E-1
1.422000000E0,2.616881371E0,4.096837044E-1,3.185920417E-1
1.424000000E0,2.598771811E0,5.135468841E-1,3.398973048E-1
1.426000000E0,2.587586641E0,6.094206572E-1,3.601373136E-1
1.428000000E0,2.570542336E0,6.903806329E-1,3.787794113E-1
1.430000000E0,2.558291912E0,7.665470243E-1,3.947583735E-1
1.432000000E0,2.548704624E0,8.347238898E-1,4.144657552E-1
1.434000000E0,2.541780233E0,8.842586279E-1,4.352383912E-1
1.436000000E0,2.531660318E0,9.364565015E-1,4.490868151E-1
1.438000000E0,2.524736166E0,9.748060107E-1,4.682615697E-1
1.440000000E0,2.517279148E0,1.004633307E0,4.879689217E-1
1.442000000E0,2.515148640E0,1.021144867E0,5.098068118E-1
1.444000000E0,2.510887623E0,1.025938630E0,5.311121345E-1
1.446000000E0,2.505028725E0,1.016351223E0,5.497542024E-1
1.448000000E0,2.496506691E0,9.865239263E-1,5.694615841E-1
1.450000000E0,2.487451792E0,9.428480864E-1,5.934300423E-1
1.452000000E0,2.479995012E0,8.917154670E-1,6.056805849E-1
1.454000000E0,2.469875097E0,8.155491352E-1,6.227247715E-1
1.456000000E0,2.454428673E0,7.297953963E-1,6.360405684E-1
1.458000000E0,2.434188604E0,6.397806406E-1,6.482911110E-1
1.460000000E0,2.415546656E0,5.471026897E-1,6.546826959E-1
1.462000000E0,2.394773960E0,4.490984678E-1,6.632047892E-1
1.464000000E0,2.359620333E0,3.553552628E-1,6.701290011E-1
1.466000000E0,2.332988739E0,2.621447146E-1,6.754553318E-1
1.468000000E0,2.291975975E0,1.662709862E-1,6.781184673E-1
1.470000000E0,2.249365568E0,7.092990726E-2,6.759879589E-1
1.472000000E0,2.203026533E0,-2.973749861E-2,6.717268825E-1
1.474000000E0,2.145502329E0,-1.341333240E-1,6.664005518E-1
1.476000000E0,2.086380243E0,-2.539754510E-1,6.562805772E-1
1.478000000E0,2.027257919E0,-3.764807582E-1,6.461605430E-1
1.480000000E0,1.956418037E0,-5.112366080E-1,6.307142377E-1
1.482000000E0,1.880784273E0,-6.470577121E-1,6.189963222E-1
1.484000000E0,1.799824238E0,-7.892704010E-1,6.067458391E-1
1.486000000E0,1.715135813E0,-9.357441068E-1,5.944952965E-1
1.488000000E0,1.624588370E0,-1.086478949E0,5.753205419E-1
1.490000000E0,1.526051521E0,-1.240942121E0,5.598742366E-1
1.492000000E0,1.426449418E0,-1.389013767E0,5.380363464E-1
1.494000000E0,1.322053552E0,-1.541346431E0,5.156657696E-1
1.496000000E0,1.215527177E0,-1.685157061E0,4.874362946E-1
1.498000000E0,1.104739785E0,-1.828967690E0,4.576089382E-1
1.500000000E0,9.907566905E-1,-1.955201387E0,4.197920561E-1
1.502000000E0,8.714471459E-1,-2.076641321E0,3.825078607E-1
1.504000000E0,7.516050339E-1,-2.184765577E0,3.441583514E-1
1.506000000E0,6.232407689E-1,-2.277443647E0,3.068741262E-1
1.508000000E0,4.980722666E-1,-2.352544546E0,2.669267654E-1
1.510000000E0,3.643817306E-1,-2.407938480E0,2.301751524E-1
1.512000000E0,2.322890311E-1,-2.447885752E0,1.934235543E-1
1.514000000E0,9.167425334E-2,-2.472386837E0,1.497477591E-1
1.516000000E0,-4.574474320E-2,-2.483572006E0,1.098003685E-1
1.518000000E0,-1.884900630E-1,-2.489963770E0,6.985298544E-2
1.520000000E0,-3.253764212E-1,-2.476647854E0,2.884034440E-2
1.522000000E0,-4.622627795E-1,-2.454277277E0,-9.509141557E-3
1.524000000E0,-5.842354298E-1,-2.421786785E0,-4.519546777E-2
1.526000000E0,-7.030123472E-1,-2.387698412E0,-7.768601179E-2
1.528000000E0,-8.217892051E-1,-2.344555140E0,-1.069807559E-1
1.530000000E0,-9.256523848E-1,-2.294487715E0,-1.373407692E-1
1.532000000E0,-1.025787234E0,-2.243887663E0,-1.666355133E-1
1.534000000E0,-1.119530439E0,-2.200744629E0,-1.932671070E-1
1.536000000E0,-1.200490475E0,-2.159199238E0,-2.214965820E-1
1.538000000E0,-1.276124120E0,-2.126176119E0,-2.497260720E-1
1.540000000E0,-1.343235731E0,-2.102740288E0,-2.768902779E-1
1.542000000E0,-1.397564173E0,-2.084098339E0,-3.040544987E-1
1.544000000E0,-1.442305326E0,-2.073445559E0,-3.360123932E-1
1.546000000E0,-1.477991581E0,-2.066521406E0,-3.647745252E-1
1.548000000E0,-1.501960039E0,-2.063325644E0,-3.935366273E-1
1.550000000E0,-1.518471599E0,-2.064923525E0,-4.217661023E-1
1.552000000E0,-1.526993752E0,-2.066521406E0,-4.494629502E-1
1.554000000E0,-1.523797989E0,-2.054803610E0,-4.819535017E-1
1.556000000E0,-1.516873717E0,-2.040422440E0,-5.091177225E-1
1.558000000E0,-1.495035768E0,-2.015921354E0,-5.378798246E-1
1.560000000E0,-1.468936920E0,-1.975973964E0,-5.634461641E-1
1.562000000E0,-1.434315801E0,-1.929102421E0,-5.868819356E-1
1.564000000E0,-1.391705275E0,-1.873176098E0,-6.065893173E-1
1.566000000E0,-1.337376833E0,-1.804999232E0,-6.252314448E-1
1.568000000E0,-1.276124120E0,-1.730963349E0,-6.422756910E-1
1.570000000E0,-1.204218864E0,-1.643611789E0,-6.523956656E-1
1.572000000E0,-1.129650474E0,-1.556792855E0,-6.641135812E-1
1.574000000E0,-1.043896675E0,-1.460386515E0,-6.662440896E-1
1.576000000E0,-9.506860971E-1,-1.363980055E0,-6.694399118E-1
1.578000000E0,-8.537471294E-1,-1.262247443E0,-6.657114625E-1
1.580000000E0,-7.514818311E-1,-1.156253695E0,-6.614503860E-1
1.582000000E0,-6.401618123E-1,-1.056651592E0,-6.486672163E-1
1.584000000E0,-5.219175220E-1,-9.495925307E-1,-6.353514791E-1
1.586000000E0,-4.052711725E-1,-8.499904275E-1,-6.172419786E-1
1.588000000E0,-2.822332382E-1,-7.525187731E-1,-5.943388343E-1
1.590000000E0,-1.602605730E-1,-6.555798054E-1,-5.677072406E-1
1.592000000E0,-2.763526700E-2,-5.644997954E-1,-5.373471975E-1
1.594000000E0,9.327214211E-2,-4.744850099E-1,-5.053892732E-1
1.596000000E0,2.168427110E-1,-3.913944662E-1,-4.686377048E-1
1.598000000E0,3.414785564E-1,-3.104344308E-1,-4.276250601E-1
1.600000000E0,4.559943974E-1,-2.316049337E-1,-3.850145340E-1
1.602000000E0,5.689123273E-1,-1.549059600E-1,-3.429366052E-1
1.604000000E0,6.733081341E-1,-8.353330195E-2,-2.971302867E-1
1.606000000E0,7.755734324E-1,-1.162801683E-2,-2.550523579E-1
1.608000000E0,8.677187562E-1,5.761411041E-2,-2.103113234E-1
1.610000000E0,9.556030035E-1,1.209972948E-1,-1.639723629E-1
1.612000000E0,1.039758682E0,1.870436221E-1,-1.202965528E-1
1.614000000E0,1.116990328E0,2.546878755E-1,-7.608811557E-2
1.616000000E0,1.184101939E0,3.122121096E-1,-3.614072874E-2
1.618000000E0,1.249615669E0,3.681384325E-1,3.806652501E-3
1.620000000E0,1.308205128E0,4.198037088E-1,4.268877208E-2
1.622000000E0,1.364664078E0,4.581532180E-1,8.103825152E-2
1.624000000E0,1.415264130E0,4.922416508E-1,1.124635264E-1
1.626000000E0,1.466396809E0,5.231342912E-1,1.508130133E-1
1.628000000E0,1.503680944E0,5.412437916E-1,1.801077574E-1
1.630000000E0,1.545758963E0,5.588206053E-1,2.147288322E-1
1.632000000E0,1.578249454E0,5.668100715E-1,2.461540997E-1
1.634000000E0,1.607544184E0,5.774627328E-1,2.797099054E-1
1.636000000E0,1.631512642E0,5.790606141E-1,3.143309951E-1
1.638000000E0,1.651219964E0,5.822564363E-1,3.473541439E-1
1.640000000E0,1.667731524E0,5.886479616E-1,3.819752038E-1
1.642000000E0,1.672525287E0,5.865174532E-1,4.165962934E-1
1.644000000E0,1.678384185E0,5.923764110E-1,4.485541880E-1
1.646000000E0,1.676786304E0,5.945069194E-1,4.842405021E-1
1.648000000E0,1.669329524E0,6.003658772E-1,5.124700069E-1
1.650000000E0,1.656546354E0,6.019637585E-1,5.406994820E-1
1.652000000E0,1.637904167E0,6.035616994E-1,5.683963299E-1
1.654000000E0,1.613935828E0,6.046269536E-1,5.934300423E-1
1.656000000E0,1.585173607E0,6.035616994E-1,6.184636950E-1
1.658000000E0,1.544160962E0,6.014311314E-1,6.344426870E-1
1.660000000E0,1.503680944E0,5.993006229E-1,6.482911110E-1
1.662000000E0,1.457342029E0,5.902459025E-1,6.648026705E-1
1.664000000E0,1.400350451E0,5.801258683E-1,6.791837215E-1
1.666000000E0,1.341760993E0,5.636143088E-1,6.946300864E-1
1.668000000E0,1.275714636E0,5.444395542E-1,6.999563575E-1
1.670000000E0,1.207005143E0,5.247321725E-1,7.132721543E-1
1.672000000E0,1.129240870E0,5.023616552E-1,7.233921885E-1
1.674000000E0,1.047215581E0,4.826542735E-1,7.329795361E-1
1.676000000E0,9.598640203E-1,4.576205611E-1,7.415016294E-1
1.678000000E0,8.698492646E-1,4.299237132E-1,7.494911551E-1
1.680000000E0,7.750408053E-1,4.016942382E-1,7.596111298E-1
1.682000000E0,6.738407612E-1,3.676058054E-1,7.681332231E-1
1.684000000E0,5.726407170E-1,3.303215802E-1,7.761227489E-1
1.686000000E0,4.634512365E-1,2.919721007E-1,7.798511386E-1
1.688000000E0,3.542617261E-1,2.477636486E-1,7.835795879E-1
1.690000000E0,2.466700822E-1,2.035552114E-1,7.819816470E-1
1.692000000E0,1.321542561E-1,1.556183547E-1,7.761227489E-1
1.694000000E0,1.976896077E-2,1.023551822E-1,7.766553760E-1
1.696000000E0,-9.261634201E-2,5.495095253E-2,7.670679688E-1
1.698000000E0,-2.065995485E-1,6.225132383E-4,7.622742653E-1
1.700000000E0,-3.152564168E-1,-5.104276910E-2,7.548174262E-1
1.702000000E0,-4.271090925E-1,-1.043059379E-1,7.462953329E-1
1.704000000E0,-5.347006917E-1,-1.607649177E-1,7.319142818E-1
1.706000000E0,-6.396291256E-1,-2.140280902E-1,7.228595614E-1
1.708000000E0,-7.339049578E-1,-2.726175785E-1,7.090111375E-1
1.710000000E0,-8.297786713E-1,-3.290765285E-1,6.914342642E-1
1.712000000E0,-9.213913679E-1,-3.834049702E-1,6.717268825E-1
1.714000000E0,-1.005547285E0,-4.489186704E-1,6.557479501E-1
1.716000000E0,-1.087039948E0,-5.069755316E-1,6.333774328E-1
1.718000000E0,-1.161608338E0,-5.692934394E-1,6.126047969E-1
1.720000000E0,-1.235111475E0,-6.289482117E-1,5.854405761E-1
1.722000000E0,-1.300625205E0,-6.955271959E-1,5.646678805E-1
1.724000000E0,-1.362943172E0,-7.599756122E-1,5.401668549E-1
1.726000000E0,-1.417804241E0,-8.366746306E-1,5.188615918E-1
1.728000000E0,-1.470534801E0,-9.128409624E-1,4.932952523E-1
1.730000000E0,-1.520069480E0,-9.868767858E-1,4.725226164E-1
1.732000000E0,-1.557353735E0,-1.064108372E0,4.474889338E-1
1.734000000E0,-1.596768498E0,-1.139209509E0,4.261836410E-1
1.736000000E0,-1.628726363E0,-1.213245273E0,4.043457508E-1
1.738000000E0,-1.652162194E0,-1.279824257E0,3.782467842E-1
1.740000000E0,-1.671869516E0,-1.342674851E0,3.558762670E-1
1.742000000E0,-1.687315941E0,-1.401264310E0,3.329730928E-1
1.744000000E0,-1.692109585E0,-1.453462243E0,3.068741262E-1
1.746000000E0,-1.696903229E0,-1.495540142E0,2.839709818E-1
1.748000000E0,-1.694772720E0,-1.531759143E0,2.573393881E-1
1.750000000E0,-1.685717940E0,-1.565847516E0,2.312404066E-1
1.752000000E0,-1.674000144E0,-1.586087584E0,2.062067240E-1
1.754000000E0,-1.654292703E0,-1.608990669E0,1.811730266E-1
1.756000000E0,-1.629791617E0,-1.621241212E0,1.556067020E-1
1.758000000E0,-1.604758024E0,-1.631361246E0,1.321709007E-1
1.760000000E0,-1.577061057E0,-1.640416026E0,1.098003685E-1
1.762000000E0,-1.548831582E0,-1.644144416E0,9.009299427E-2
1.764000000E0,-1.520069480E0,-1.647872806E0,7.091825455E-2
1.766000000E0,-1.487046361E0,-1.640948653E0,5.334140733E-2
1.768000000E0,-1.460414767E0,-1.632426500E0,4.215614125E-2
1.770000000E0,-1.431120038E0,-1.616447568E0,3.523192927E-2
1.772000000E0,-1.397031546E0,-1.596207619E0,2.937297896E-2
1.774000000E0,-1.365073681E0,-1.569576025E0,2.830771357E-2
1.776000000E0,-1.335246325E0,-1.533357024E0,1.925297454E-2
1.778000000E0,-1.307016850E0,-1.500866532E0,1.872034371E-2
1.780000000E0,-1.275058866E0,-1.457190633E0,8.067706600E-3
1.782000000E0,-1.245764136E0,-1.415645361E0,-2.052296884E-3
1.784000000E0,-1.211675763E0,-1.374100089E0,-2.122703940E-2
1.786000000E0,-1.183446288E0,-1.332022190E0,-4.199967906E-2
1.788000000E0,-1.149890423E0,-1.295270562E0,-6.277231872E-2
1.790000000E0,-1.118997812E0,-1.259584308E0,-8.407758921E-2
1.792000000E0,-1.089703083E0,-1.228691697E0,-1.032523364E-1
1.794000000E0,-1.058277726E0,-1.202060103E0,-1.282860339E-1
1.796000000E0,-1.028982997E0,-1.175961137E0,-1.501239240E-1
1.798000000E0,-9.991555810E-1,-1.154655814E0,-1.719618291E-1
1.800000000E0,-9.730566144E-1,-1.133883238E0,-1.906039417E-1
1.802000000E0,-9.458923936E-1,-1.115241051E0,-2.060502619E-1
1.804000000E0,-9.272503257E-1,-1.100327373E0,-2.204313278E-1
1.806000000E0,-9.086081982E-1,-1.084348440E0,-2.337471098E-1
1.808000000E0,-8.878355622E-1,-1.080087423E0,-2.475955486E-1
1.810000000E0,-8.707913160E-1,-1.072097898E0,-2.577155232E-1
1.812000000E0,-8.526818752E-1,-1.069434762E0,-2.678355277E-1
1.814000000E0,-8.361702561E-1,-1.067836881E0,-2.811513245E-1
1.816000000E0,-8.239197135E-1,-1.065706372E0,-2.902060747E-1
1.818000000E0,-8.090060353E-1,-1.072097898E0,-3.013913333E-1
1.820000000E0,-7.983534336E-1,-1.071032643E0,-3.099134564E-1
1.822000000E0,-7.786460519E-1,-1.069967389E0,-3.195008039E-1
1.824000000E0,-7.674607635E-1,-1.069434762E0,-3.338818848E-1
1.826000000E0,-7.504165769E-1,-1.061977863E0,-3.455997705E-1
1.828000000E0,-7.317744493E-1,-1.048129439E0,-3.647745252E-1
1.830000000E0,-7.131323218E-1,-1.031085253E0,-3.850145340E-1
1.832000000E0,-6.865007281E-1,-1.006051540E0,-4.116460979E-1
1.834000000E0,-6.593365073E-1,-9.751588702E-1,-4.430713952E-1
1.836000000E0,-6.343028545E-1,-9.304177761E-1,-4.787577093E-1
1.838000000E0,-5.996817946E-1,-8.792851567E-1,-5.203030109E-1
1.840000000E0,-5.618649125E-1,-8.180325031E-1,-5.666419268E-1
1.842000000E0,-5.251133442E-1,-7.546493411E-1,-6.140461564E-1
1.844000000E0,-4.814375043E-1,-6.694282293E-1,-6.726356745E-1
1.846000000E0,-4.372290969E-1,-5.895334482E-1,-7.360188365E-1
1.848000000E0,-3.844985366E-1,-4.920618534E-1,-8.009999394E-1
1.850000000E0,-3.312353492E-1,-3.844702542E-1,-8.707746863E-1
1.852000000E0,-2.785048187E-1,-2.662259936E-1,-9.469410181E-1
1.854000000E0,-2.199153453E-1,-1.378617436E-1,-1.020976901E0
1.856000000E0,-1.538690031E-1,-3.105909098E-3,-1.096610665E0
1.858000000E0,-8.569213003E-2,1.433678269E-1,-1.165852785E0
1.860000000E0,-1.591736637E-2,2.988963127E-1,-1.234029651E0
1.862000000E0,5.705318600E-2,4.629468918E-1,-1.289955974E0
1.864000000E0,1.294911057E-1,6.323238015E-1,-1.332566500E0
1.866000000E0,2.093858570E-1,8.022333384E-1,-1.367720127E0
1.868000000E0,2.866174877E-1,9.742733836E-1,-1.385829687E0
1.870000000E0,3.622511923E-1,1.140454412E0,-1.387960196E0
1.872000000E0,4.384175241E-1,1.303972363E0,-1.383699179E0
1.874000000E0,5.161817670E-1,1.461631417E0,-1.364524364E0
1.876000000E0,5.950112939E-1,1.613431454E0,-1.337892771E0
1.878000000E0,6.711776257E-1,1.756176710E0,-1.303271770E0
1.880000000E0,7.446808219E-1,1.887204170E0,-1.260128617E0
1.882000000E0,8.160534501E-1,2.009176731E0,-1.209528565E0
1.884000000E0,8.879587650E-1,2.118366241E0,-1.155732751E0
1.886000000E0,9.518745542E-1,2.208913803E0,-1.093947411E0
1.888000000E0,1.012594461E0,2.287743330E0,-1.026835799E0
1.890000000E0,1.071716666E0,2.345267534E0,-9.559957981E-1
1.892000000E0,1.128708243E0,2.386280060E0,-8.856883645E-1
1.894000000E0,1.173981905E0,2.410781145E0,-8.212399483E-1
1.896000000E0,1.219788313E0,2.420368671E0,-7.514652014E-1
1.898000000E0,1.257605076E0,2.414509535E0,-6.848862171E-1
1.900000000E0,1.292758822E0,2.402259111E0,-6.231009364E-1
1.902000000E0,1.324716687E0,2.376160145E0,-5.618482828E-1
1.904000000E0,1.345489383E0,2.346865416E0,-4.984650612E-1
1.906000000E0,1.359870434E0,2.305852652E0,-4.430713952E-1
1.908000000E0,1.368925214E0,2.263774872E0,-3.812860847E-1
1.910000000E0,1.371055722E0,2.216903210E0,-3.200334609E-1
1.912000000E0,1.368392587E0,2.167368412E0,-2.593134344E-1
1.914000000E0,1.355076790E0,2.113572598E0,-1.975281537E-1
1.916000000E0,1.339097738E0,2.048591614E0,-1.400039196E-1
1.918000000E0,1.312998772E0,1.976153612E0,-8.247969300E-2
1.920000000E0,1.274649382E0,1.892530441E0,-2.602072433E-2
1.922000000E0,1.232571483E0,1.806244135E0,2.511192486E-2
1.924000000E0,1.185167193E0,1.705576777E0,7.464667410E-2
1.926000000E0,1.129773498E0,1.599583030E0,1.193877459E-1
1.928000000E0,1.070651412E0,1.483469248E0,1.614656448E-1
1.930000000E0,1.004605055E0,1.362029195E0,2.024783045E-1
1.932000000E0,9.369608760E-1,1.236860752E0,2.349688411E-1
1.934000000E0,8.650555611E-1,1.096246004E0,2.685246468E-1
1.936000000E0,7.920850515E-1,9.519028664E-1,2.962214947E-1
1.938000000E0,7.185818553E-1,8.038312197E-1,3.233857155E-1
1.940000000E0,6.450786591E-1,6.509659290E-1,3.468215168E-1
1.942000000E0,5.747712851E-1,4.943721592E-1,3.670615256E-1
1.944000000E0,5.033985972E-1,3.361805379E-1,3.846383691E-1
1.946000000E0,4.410806894E-1,1.737278253E-1,3.936931193E-1
1.948000000E0,3.787627816E-1,1.713409834E-2,4.059436321E-1
1.950000000E0,3.228364289E-1,-1.453185976E-1,4.112699628E-1
1.952000000E0,2.706385255E-1,-3.008470535E-1,4.123352170E-1
1.954000000E0,2.221690267E-1,-4.579734206E-1,4.128678441E-1
1.956000000E0,1.784932166E-1,-6.119040251E-1,4.112699628E-1
1.958000000E0,1.422742605E-1,-7.668998241E-1,4.096720815E-1
1.960000000E0,1.017942503E-1,-9.224283099E-1,4.027478695E-1
1.962000000E0,6.823845208E-2,-1.084348440E0,3.968889117E-1
1.964000000E0,3.201949224E-2,-1.244670630E0,3.920952082E-1
1.966000000E0,-5.797363818E-3,-1.405525446E0,3.883667886E-1
1.968000000E0,-4.148368910E-2,-1.566912770E0,3.793120682E-1
1.970000000E0,-7.290896028E-2,-1.729898095E0,3.718551993E-1
1.972000000E0,-1.107258201E-1,-1.884894013E0,3.585394323E-1
1.974000000E0,-1.448142529E-1,-2.036694050E0,3.398973048E-1
1.976000000E0,-1.789026856E-1,-2.180504560E0,3.175267577E-1
1.978000000E0,-2.129911184E-1,-2.305673122E0,2.930257022E-1
1.980000000E0,-2.508079708E-1,-2.419123650E0,2.631983459E-1
1.982000000E0,-2.886248231E-1,-2.518725872E0,2.355014682E-1
1.984000000E0,-3.264416754E-1,-2.593294144E0,2.019456625E-1
1.986000000E0,-3.658564389E-1,-2.622588873E0,1.619982868E-1
1.988000000E0,-4.105975032E-1,-2.598087788E0,1.151266843E-1
1.990000000E0,-4.617301524E-1,-2.514997244E0,6.346140802E-2
1.992000000E0,-5.149933100E-1,-2.391959429E0,1.925297454E-2
1.994000000E0,-5.783764720E-1,-2.228441477E0,-2.229230478E-2
1.996000000E0,-6.390964985E-1,-2.036161423E0,-5.211968347E-2
1.998000000E0,-7.056754827E-1,-1.819380283E0,-6.650074571E-2
2.000000000E0,-7.770481706E-1,-1.579163313E0,-7.182706147E-2
2.002000000E0,-8.484207988E-1,-1.318173766E0,-6.330495328E-2
2.004000000E0,-9.272503257E-1,-1.045998931E0,-4.626073316E-2
2.006000000E0,-9.959598184E-1,-7.727587819E-1,-1.590072364E-2
2.008000000E0,-1.067332506E0,-5.048450232E-1,1.818770915E-2
2.010000000E0,-1.131248355E0,-2.529101968E-1,5.493930355E-2
2.012000000E0,-1.185044169E0,-2.654170617E-2,8.849509805E-2
2.014000000E0,-1.232980967E0,1.763909906E-1,1.231161654E-1
2.016000000E0,-1.280385256E0,3.548226357E-1,1.465519667E-1
2.018000000E0,-1.318202019E0,5.055574179E-1,1.699877530E-1
2.020000000E0,-1.356018901E0,6.360521913E-1,1.843688190E-1
2.022000000E0,-1.386911631E0,7.500354052E-1,1.896951348E-1
2.024000000E0,-1.415141106E0,8.443112373E-1,1.918256581E-1
2.026000000E0,-1.440707326E0,9.321954846E-1,1.912930310E-1
2.028000000E0,-1.465208411E0,1.011024952E0,1.864993423E-1
2.030000000E0,-1.487046361E0,1.082397580E0,1.795751303E-1
2.032000000E0,-1.508884192E0,1.148443937E0,1.657267064E-1
2.034000000E0,-1.532320023E0,1.207033396E0,1.518782824E-1
2.036000000E0,-1.557353735E0,1.268286109E0,1.321709007E-1
2.038000000E0,-1.584517956E0,1.315690279E0,1.129961610E-1
2.040000000E0,-1.610084295E0,1.368953466E0,8.796247095E-2
2.042000000E0,-1.639911652E0,1.420618773E0,5.973298848E-2
2.044000000E0,-1.668141127E0,1.465892434E0,2.830771357E-2
2.046000000E0,-1.697968483E0,1.509568214E0,-1.519665122E-3
2.048000000E0,-1.723002195E0,1.540460944E0,-3.081441298E-2
2.050000000E0,-1.748035908E0,1.572418809E0,-6.437021494E-2
2.052000000E0,-1.769873857E0,1.591593504E0,-9.366495907E-2
2.054000000E0,-1.782124400E0,1.597452521E0,-1.181660220E-1
2.056000000E0,-1.786918044E0,1.606507182E0,-1.416018158E-1
2.058000000E0,-1.782657027E0,1.592126131E0,-1.581134051E-1
2.060000000E0,-1.776265383E0,1.570288301E0,-1.666355133E-1
2.062000000E0,-1.760819077E0,1.532471418E0,-1.719618291E-1
2.064000000E0,-1.741111755E0,1.477610350E0,-1.708965749E-1
2.066000000E0,-1.719273806E0,1.424347162E0,-1.613091975E-1
2.068000000E0,-1.693174839E0,1.375877619E0,-1.517218202E-1
2.070000000E0,-1.653227448E0,1.339658737E0,-1.384060234E-1
2.072000000E0,-1.607953787E0,1.323147178E0,-1.197639182E-1
2.074000000E0,-1.552560091E0,1.317820787E0,-9.792602062E-2
2.076000000E0,-1.488111615E0,1.322614551E0,-7.555548102E-2
2.078000000E0,-1.415141106E0,1.335930347E0,-5.158704892E-2
2.080000000E0,-1.334181070E0,1.351376653E0,-1.377019566E-2
2.082000000E0,-1.244698882E0,1.379606128E0,2.138350159E-2
2.084000000E0,-1.138705134E0,1.415292382E0,6.346140802E-2
2.086000000E0,-1.024189353E0,1.454707146E0,1.034087911E-1
2.088000000E0,-9.027492404E-1,1.499980927E0,1.513456553E-1
2.090000000E0,-7.701239586E-1,1.538330317E0,2.008804083E-1
2.092000000E0,-6.327049136E-1,1.571886182E0,2.568067610E-1
2.094000000E0,-4.819701612E-1,1.601713538E0,3.074067831E-1
2.096000000E0,-3.317680061E-1,1.613431454E0,3.628004789E-1
2.098000000E0,-1.762395352E-1,1.617159843E0,4.160636365E-1
2.100000000E0,-2.284158021E-2,1.605974555E0,4.682615697E-1
2.102000000E0,1.262953132E-1,1.569755673E0,5.167310238E-1
2.104000000E0,2.637143135E-1,1.505307198E0,5.524173975E-1
2.106000000E0,3.936764598E-1,1.410498738E0,5.827773809E-1
2.108000000E0,4.954091311E-1,1.280536532E0,6.099416018E-1
2.110000000E0,5.854238868E-1,1.129269123E0,6.317794919E-1
2.112000000E0,6.509376168E-1,9.572291970E-1,6.536174417E-1
2.114000000E0,6.988744736E-1,7.745364904E-1,6.733247638E-1
2.116000000E0,7.239081860E-1,5.875827074E-1,6.956953406E-1
2.118000000E0,7.302997708E-1,4.112816155E-1,7.068805695E-1
2.120000000E0,7.132555246E-1,2.530899644E-1,7.185984850E-1
2.122000000E0,6.615902185E-1,1.225951910E-1,7.239248157E-1
2.124000000E0,5.305628181E-1,5.388568714E-2,7.223269343E-1
2.126000000E0,3.462722301E-1,2.778673172E-2,7.170006037E-1
2.128000000E0,1.284258366E-1,3.311305121E-2,7.084785104E-1
2.130000000E0,-1.080626622E-1,7.039728016E-2,6.999563575E-1
2.132000000E0,-3.349637985E-1,1.556183547E-1,6.829121709E-1
2.134000000E0,-5.410922766E-1,2.749278843E-1,6.637374163E-1
2.136000000E0,-7.237849832E-1,4.315216243E-1,6.440300345E-1
2.138000000E0,-8.771829009E-1,5.977027416E-1,6.280511022E-1
2.140000000E0,-1.001286149E0,7.835912108E-1,6.173984408E-1
2.142000000E0,-1.095561981E0,9.758712649E-1,6.120721102E-1
2.144000000E0,-1.162140965E0,1.164955497E0,6.158005595E-1
2.146000000E0,-1.205816746E0,1.355105042E0,6.227247715E-1
2.148000000E0,-1.231383085E0,1.527677774E0,6.387037039E-1
2.150000000E0,-1.244166255E0,1.678412557E0,6.541500688E-1
2.152000000E0,-1.249492526E0,1.808374643E0,6.711942554E-1
2.154000000E0,-1.243633628E0,1.906378865E0,6.919668913E-1
2.156000000E0,-1.237242103E0,1.976686358E0,7.079458833E-1
2.158000000E0,-1.227654696E0,2.015568495E0,7.249900699E-1
2.160000000E0,-1.209545255E0,2.031547308E0,7.361753583E-1
2.162000000E0,-1.194631457E0,2.025688410E0,7.462953329E-1
2.164000000E0,-1.173326254E0,1.998524189E0,7.484258413E-1
2.166000000E0,-1.151488304E0,1.951120019E0,7.526869178E-1
2.168000000E0,-1.120595694E0,1.884541035E0,7.516216636E-1
2.170000000E0,-1.092366219E0,1.803048372E0,7.510890365E-1
2.172000000E0,-1.059875727E0,1.701848269E0,7.494911551E-1
2.174000000E0,-1.020460963E0,1.594256639E0,7.393711209E-1
2.176000000E0,-9.810461402E-1,1.482403994E0,7.260553241E-1
2.178000000E0,-9.379029274E-1,1.371616602E0,7.143374085E-1
2.180000000E0,-8.926292658E-1,1.261894464E0,6.978258491E-1
2.182000000E0,-8.537471294E-1,1.160694480E0,6.829121709E-1
2.184000000E0,-8.143323660E-1,1.077071309E0,6.605416536E-1
2.186000000E0,-7.781134248E-1,1.000904918E0,6.434974074E-1
2.188000000E0,-7.418944240E-1,9.417828321E-1,6.243226528E-1
2.190000000E0,-7.083386779E-1,8.901175857E-1,6.035500169E-1
2.192000000E0,-6.865007281E-1,8.507028222E-1,5.801142454E-1
2.194000000E0,-6.619997025E-1,8.155491352E-1,5.593416095E-1
2.196000000E0,-6.481512785E-1,7.921133041E-1,5.348405242E-1
2.198000000E0,-6.428249478E-1,7.708080411E-1,5.124700069E-1
2.200000000E0,-6.380312443E-1,7.580248713E-1,4.906320870E-1
2.202000000E0,-6.433575749E-1,7.505680323E-1,4.703920782E-1
2.204000000E0,-6.492165327E-1,7.436438203E-1,4.549457729E-1
2.206000000E0,-6.619997025E-1,7.441764474E-1,4.384341836E-1
2.208000000E0,-6.811744571E-1,7.431111932E-1,4.219225943E-1
2.210000000E0,-7.019470930E-1,7.399154305E-1,4.080741704E-1
2.212000000E0,-7.221871018E-1,7.313932776E-1,3.952910006E-1
2.214000000E0,-7.472207546E-1,7.186101675E-1,3.814425766E-1
2.216000000E0,-7.711892128E-1,7.020985484E-1,3.691920638E-1
2.218000000E0,-7.988860607E-1,6.807932854E-1,3.601373136E-1
2.220000000E0,-8.217892051E-1,6.530964375E-1,3.569415212E-1
2.222000000E0,-8.436270952E-1,6.227363944E-1,3.505499363E-1
2.224000000E0,-8.670629263E-1,5.865174532E-1,3.489520550E-1
2.226000000E0,-8.851723671E-1,5.508311391E-1,3.489520550E-1
2.228000000E0,-9.059450030E-1,5.124816298E-1,3.500173092E-1
2.230000000E0,-9.245871305E-1,4.853174388E-1,3.532131016E-1
2.232000000E0,-9.426966310E-1,4.506963491E-1,3.596046865E-1
2.234000000E0,-9.565450549E-1,4.176732004E-1,3.638657331E-1
2.236000000E0,-9.677303433E-1,3.899763525E-1,3.681267798E-1
2.238000000E0,-9.847745299E-1,3.590837121E-1,3.723878562E-1
2.240000000E0,-9.970250726E-1,3.356479108E-1,3.782467842E-1
2.242000000E0,-1.008210421E0,3.122121096E-1,3.841057420E-1
2.244000000E0,-1.021526217E0,2.972984016E-1,3.873015344E-1
2.246000000E0,-1.033244133E0,2.845152617E-1,3.910299540E-1
2.248000000E0,-1.047092557E0,2.738626301E-1,3.915625811E-1
2.250000000E0,-1.054549336E0,2.557531297E-1,3.958236277E-1
2.252000000E0,-1.065201998E0,2.445678562E-1,3.979541659E-1
2.254000000E0,-1.077985168E0,2.333825827E-1,4.006173313E-1
2.256000000E0,-1.091833591E0,2.163383663E-1,4.043457508E-1
2.258000000E0,-1.104084134E0,2.056857347E-1,4.043457508E-1
2.260000000E0,-1.119530439E0,1.976962537E-1,4.091394246E-1
2.262000000E0,-1.133378863E0,1.849130988E-1,4.080741704E-1
2.264000000E0,-1.145629406E0,1.779888868E-1,4.086067975E-1
2.266000000E0,-1.160010457E0,1.646730900E-1,4.070089161E-1
2.268000000E0,-1.173326254E0,1.545530856E-1,4.064762890E-1
2.270000000E0,-1.185044169E0,1.486941427E-1,4.059436321E-1
2.272000000E0,-1.196762085E0,1.439004540E-1,4.064762890E-1
2.274000000E0,-1.207947254E0,1.439004540E-1,4.022152126E-1
2.276000000E0,-1.218067288E0,1.476288736E-1,4.027478695E-1
2.278000000E0,-1.228187323E0,1.534878314E-1,3.990194201E-1
2.280000000E0,-1.234046221E0,1.641404629E-1,3.931604922E-1
2.282000000E0,-1.240437865E0,1.737278253E-1,3.878341615E-1
2.284000000E0,-1.243633628E0,1.886415184E-1,3.793120682E-1
2.286000000E0,-1.246829391E0,2.040878385E-1,3.697246909E-1
2.288000000E0,-1.250557899E0,2.200668007E-1,3.628004789E-1
2.290000000E0,-1.251623154E0,2.339152247E-1,3.542783558E-1
2.292000000E0,-1.250557899E0,2.525573373E-1,3.430930972E-1
2.294000000E0,-1.243633628E0,2.743952572E-1,3.356362581E-1
2.296000000E0,-1.239905238E0,2.887763083E-1,3.228530884E-1
2.298000000E0,-1.232448339E0,3.116794825E-1,3.153962493E-1
2.300000000E0,-1.222328305E0,3.351152837E-1,2.972867787E-1
2.302000000E0,-1.210610509E0,3.612142205E-1,2.855688632E-1
2.304000000E0,-1.193033576E0,3.851826489E-1,2.759814858E-1
2.306000000E0,-1.180250406E0,4.112816155E-1,2.610678077E-1
2.308000000E0,-1.164804101E0,4.395110905E-1,2.450888306E-1
2.310000000E0,-1.145096779E0,4.725342691E-1,2.328383029E-1
2.312000000E0,-1.122726202E0,5.034269094E-1,2.179246247E-1
2.314000000E0,-1.104084134E0,5.407111049E-1,1.987498701E-1
2.316000000E0,-1.082778811E0,5.763974786E-1,1.817056537E-1
2.318000000E0,-1.058810353E0,6.056922078E-1,1.604003906E-1
2.320000000E0,-1.039635658E0,6.360521913E-1,1.380298585E-1
2.322000000E0,-1.015134573E0,6.712059379E-1,1.129961610E-1
2.324000000E0,-9.874376655E-1,7.068922520E-1,8.902773261E-2
2.326000000E0,-9.671976566E-1,7.431111932E-1,5.866772309E-2
2.328000000E0,-9.405661225E-1,7.745364904E-1,3.629719093E-2
2.330000000E0,-9.149997830E-1,8.001027703E-1,5.937179551E-3
2.332000000E0,-8.889008164E-1,8.251364827E-1,-2.122703940E-2
2.334000000E0,-8.617365956E-1,8.427133560E-1,-4.945652187E-2
2.336000000E0,-8.335071206E-1,8.517680764E-1,-8.034916967E-2
2.338000000E0,-8.042123914E-1,8.666817546E-1,-1.053828597E-1
2.340000000E0,-7.765155435E-1,8.592249155E-1,-1.314818114E-1
2.342000000E0,-7.461555004E-1,8.528333306E-1,-1.549176127E-1
2.344000000E0,-7.131323218E-1,8.389849067E-1,-1.772881448E-1
2.346000000E0,-6.827723384E-1,8.203427792E-1,-1.969955266E-1
2.348000000E0,-6.508144140E-1,7.937112451E-1,-2.119092196E-1
2.350000000E0,-6.215196848E-1,7.686775327E-1,-2.273555398E-1
2.352000000E0,-5.906270146E-1,7.377848625E-1,-2.353450060E-1
2.354000000E0,-5.570712090E-1,7.047616839E-1,-2.433344871E-1
2.356000000E0,-5.304396152E-1,6.669448614E-1,-2.465302795E-1
2.358000000E0,-4.995470047E-1,6.307259202E-1,-2.470629066E-1
2.360000000E0,-4.771764576E-1,5.998332500E-1,-2.475955486E-1
2.362000000E0,-4.548059404E-1,5.662774444E-1,-2.454650104E-1
2.364000000E0,-4.377617240E-1,5.289932489E-1,-2.396060675E-1
2.366000000E0,-4.175217152E-1,5.028942823E-1,-2.300186902E-1
2.368000000E0,-4.047385454E-1,4.720016420E-1,-2.230944782E-1
2.370000000E0,-3.956837952E-1,4.416416287E-1,-2.145723701E-1
2.372000000E0,-3.829006553E-1,4.144774079E-1,-2.087134272E-1
2.374000000E0,-3.727806509E-1,3.851826489E-1,-1.996586770E-1
2.376000000E0,-3.653237820E-1,3.585510552E-1,-1.943323612E-1
2.378000000E0,-3.536058962E-1,3.340499997E-1,-1.900713146E-1
2.380000000E0,-3.434858918E-1,3.042226434E-1,-1.879407912E-1
2.382000000E0,-3.275069296E-1,2.781236768E-1,-1.874081492E-1
2.384000000E0,-3.035385013E-1,2.552205026E-1,-1.852776259E-1
2.386000000E0,-2.848964036E-1,2.291215360E-1,-1.847449988E-1
2.388000000E0,-2.571995556E-1,1.992941499E-1,-1.852776259E-1
2.390000000E0,-2.268395573E-1,1.721299440E-1,-1.852776259E-1
2.392000000E0,-1.975447983E-1,1.454983503E-1,-1.906039417E-1
2.394000000E0,-1.607932150E-1,1.454983503E-1,-2.007239461E-1
2.396000000E0,-1.219110861E-1,1.316499263E-1,-2.071155310E-1
2.398000000E0,-8.196370304E-2,1.007572860E-1,-2.108439505E-1
2.400000000E0,-4.148368910E-2,5.921200663E-2,-2.161702663E-1
2.402000000E0,4.322639666E-3,1.020988449E-2,-2.198986858E-1
2.404000000E0,4.906370863E-2,-4.092276469E-2,-2.262902707E-1
2.406000000E0,9.433741122E-2,-9.578382969E-2,-2.390734404E-1
2.408000000E0,1.401437372E-1,-1.453185976E-1,-2.481281608E-1
2.410000000E0,1.843521744E-1,-1.905922890E-1,-2.614439428E-1
2.412000000E0,2.312237620E-1,-2.321375757E-1,-2.720965743E-1
2.414000000E0,2.823564410E-1,-2.678238750E-1,-2.859450281E-1
2.416000000E0,3.281627595E-1,-3.013796806E-1,-2.981955409E-1
2.418000000E0,3.771648705E-1,-3.290765285E-1,-3.125765920E-1
2.420000000E0,4.282975197E-1,-3.599691689E-1,-3.322839737E-1
2.422000000E0,4.730386138E-1,-3.887313008E-1,-3.498608172E-1
2.424000000E0,5.199102163E-1,-4.212218225E-1,-3.626439869E-1
2.426000000E0,5.710428357E-1,-4.409292042E-1,-3.887429535E-1
2.428000000E0,6.173818111E-1,-4.627671242E-1,-4.105808437E-1
2.430000000E0,6.701123714E-1,-4.835397601E-1,-4.324187636E-1
2.432000000E0,7.249734402E-1,-5.043123960E-1,-4.510608613E-1
2.434000000E0,7.793018818E-1,-5.176281929E-1,-4.718334973E-1
2.436000000E0,8.368260860E-1,-5.346723795E-1,-4.920735061E-1
2.438000000E0,8.895566463E-1,-5.490534306E-1,-5.117808580E-1
2.440000000E0,9.513419271E-1,-5.671629310E-1,-5.288251042E-1
2.442000000E0,1.012061834E0,-5.831418633E-1,-5.479998589E-1
2.444000000E0,1.077042937E0,-5.975229740E-1,-5.655766726E-1
2.446000000E0,1.139360905E0,-6.108387113E-1,-5.863493085E-1
2.448000000E0,1.204342008E0,-6.241545081E-1,-6.081872582E-1
2.450000000E0,1.269855618E0,-6.305460930E-1,-6.310904026E-1
2.452000000E0,1.331640959E0,-6.401335001E-1,-6.550588012E-1
2.454000000E0,1.396622062E0,-6.491882205E-1,-6.779620051E-1
2.456000000E0,1.462668300E0,-6.539819241E-1,-7.051262259E-1
2.458000000E0,1.531910539E0,-6.598408818E-1,-7.317578197E-1
2.460000000E0,1.594228387E0,-6.609061360E-1,-7.573240995E-1
2.462000000E0,1.658144236E0,-6.630366445E-1,-7.850209475E-1
2.464000000E0,1.721527338E0,-6.646345258E-1,-8.185767531E-1
2.466000000E0,1.776921153E0,-6.667650938E-1,-8.446757197E-1
2.468000000E0,1.831782222E0,-6.726240516E-1,-8.851557374E-1
2.470000000E0,1.879186392E0,-6.864724755E-1,-9.251031280E-1
2.472000000E0,1.927655935E0,-6.923313737E-1,-9.725073576E-1
2.474000000E0,1.968135953E0,-6.981903315E-1,-1.018846393E0
2.476000000E0,2.004887581E0,-7.013861537E-1,-1.069979072E0
2.478000000E0,2.038975954E0,-6.933966875E-1,-1.121644258E0
2.480000000E0,2.061879158E0,-6.683629751E-1,-1.174374819E0
2.482000000E0,2.078390598E0,-6.358724236E-1,-1.215387464E0
2.484000000E0,2.077857971E0,-5.858050585E-1,-1.253204346E0
2.486000000E0,2.069335938E0,-5.154976249E-1,-1.283031702E0
2.488000000E0,2.053356886E0,-4.185586870E-1,-1.317652822E0
2.490000000E0,2.029388666E0,-3.210870624E-1,-1.340023279E0
2.492000000E0,1.999561071E0,-2.055059820E-1,-1.354937077E0
2.494000000E0,1.962276936E0,-7.288066298E-2,-1.360263348E0
2.496000000E0,1.923927426E0,6.933201104E-2,-1.348012805E0
2.498000000E0,1.892502189E0,2.008920461E-1,-1.326174855E0
2.500000000E0,1.863740087E0,3.207342029E-1,-1.290488601E0
2.502000000E0,1.837108493E0,4.320542514E-1,-1.242551684E0
2.504000000E0,1.823260069E0,5.273953080E-1,-1.182896972E0
2.506000000E0,1.819531679E0,5.907785296E-1,-1.099273801E0
2.508000000E0,1.822727442E0,6.264648438E-1,-9.954105020E-1
2.510000000E0,1.845098019E0,6.275300980E-1,-8.819599748E-1
2.512000000E0,1.880784273E0,6.190080047E-1,-7.674441338E-1
2.514000000E0,1.936177969E0,5.977027416E-1,-6.380146146E-1
2.516000000E0,1.999561071E0,5.716037750E-1,-5.037913918E-1
2.518000000E0,2.066140175E0,5.460374355E-1,-3.631766140E-1
2.520000000E0,2.145502329E0,5.375153422E-1,-2.268228978E-1
2.522000000E0,2.224331856E0,5.369827151E-1,-9.526285529E-2
2.524000000E0,2.299432755E0,5.513637662E-1,2.617718652E-2
2.526000000E0,2.378794909E0,5.769301057E-1,1.364319623E-1
2.528000000E0,2.453896046E0,6.120837927E-1,2.344361991E-1
2.530000000E0,2.519409657E0,6.584227681E-1,3.159288764E-1
2.532000000E0,2.589184523E0,7.111532688E-1,3.873015344E-1
2.534000000E0,2.658959389E0,7.612206936E-1,4.368363023E-1
2.536000000E0,2.728201389E0,8.048964739E-1,4.693268239E-1
2.538000000E0,2.785725594E0,8.325933218E-1,4.869036674E-1
2.540000000E0,2.843249798E0,8.608227968E-1,4.900994599E-1
2.542000000E0,2.897578239E0,8.714754581E-1,4.810447097E-1
2.544000000E0,2.949776173E0,8.805301785E-1,4.602720737E-1
2.546000000E0,2.994517326E0,8.837260008E-1,4.373689294E-1
2.548000000E0,3.036062479E0,8.794649243E-1,4.149983823E-1
2.550000000E0,3.070683718E0,8.752039075E-1,3.942257464E-1
2.552000000E0,3.097847939E0,8.725407124E-1,3.814425766E-1
2.554000000E0,3.117555141E0,8.778670430E-1,3.739857376E-1
2.556000000E0,3.129273176E0,8.821281195E-1,3.814425766E-1
2.558000000E0,3.131403685E0,9.076943994E-1,3.979541659E-1
2.560000000E0,3.126610041E0,9.465765357E-1,4.149983823E-1
2.562000000E0,3.120218515E0,1.000372291E0,4.379015565E-1
2.564000000E0,3.102641582E0,1.068016529E0,4.666636586E-1
2.566000000E0,3.083466768E0,1.144182801E0,4.959584177E-1
2.568000000E0,3.063759327E0,1.220881820E0,5.236552358E-1
2.570000000E0,3.047247887E0,1.285330296E0,5.465584397E-1
2.572000000E0,3.032334089E0,1.336462975E0,5.721247792E-1
2.574000000E0,3.019018412E0,1.368953466E0,5.971584320E-1
2.576000000E0,3.012626886E0,1.384932399E0,6.200616360E-1
2.578000000E0,3.007833004E0,1.373747110E0,6.424321532E-1
2.580000000E0,3.005169868E0,1.347115517E0,6.679984927E-1
2.582000000E0,3.003571987E0,1.298646092E0,6.940973997E-1
2.584000000E0,3.002506733E0,1.233664989E0,7.244574428E-1
2.586000000E0,2.999843597E0,1.158563972E0,7.574806213E-1
2.588000000E0,2.994517326E0,1.070679665E0,7.894384861E-1
2.590000000E0,2.988658428E0,9.726755023E-1,8.272553682E-1
2.592000000E0,2.982266665E0,8.608227968E-1,8.672027588E-1
2.594000000E0,2.971614122E0,7.436438203E-1,9.098132849E-1
2.596000000E0,2.952971935E0,6.243343353E-1,9.540217519E-1
2.598000000E0,2.934329987E0,5.012963414E-1,9.971649051E-1
2.600000000E0,2.910361528E0,3.830521405E-1,1.037112236E0
2.602000000E0,2.881066799E0,2.621447146E-1,1.080788016E0
2.604000000E0,2.844847679E0,1.375088692E-1,1.121800661E0
2.606000000E0,2.803835154E0,8.611990139E-3,1.161748052E0
2.608000000E0,2.752702475E0,-1.346659511E-1,1.196369171E0
2.610000000E0,2.700504541E0,-2.896617949E-1,1.228859663E0
2.612000000E0,2.635523558E0,-4.622344673E-1,1.259219646E0
2.614000000E0,2.566281319E0,-6.491882205E-1,1.283720732E0
2.616000000E0,2.486919165E0,-8.499904275E-1,1.299699664E0
2.618000000E0,2.403828621E0,-1.063043118E0,1.309287071E0
2.620000000E0,2.317009687E0,-1.276095867E0,1.312482834E0
2.622000000E0,2.211015940E0,-1.487550735E0,1.306091309E0
2.624000000E0,2.106087446E0,-1.700070739E0,1.293308139E0
2.626000000E0,1.986245394E0,-1.907264471E0,1.276796460E0
2.628000000E0,1.861076951E0,-2.109664679E0,1.255491257E0
2.630000000E0,1.726853728E0,-2.307271004E0,1.228859663E0
2.632000000E0,1.582510471E0,-2.505409956E0,1.195303917E0
2.634000000E0,1.427514672E0,-2.706212044E0,1.155889153E0
2.636000000E0,1.267192483E0,-2.900622845E0,1.106886983E0
2.638000000E0,1.097815633E0,-3.080119610E0,1.053623796E0
2.640000000E0,9.204492569E-1,-3.241507053E0,1.000360608E0
2.642000000E0,7.356260419E-1,-3.380523920E0,9.460322261E-1
2.644000000E0,5.449438691E-1,-3.499833584E0,8.927690983E-1
2.646000000E0,3.462722301E-1,-3.590380907E0,8.347122073E-1
2.648000000E0,1.470679492E-1,-3.647905111E0,7.713290453E-1
2.650000000E0,-5.639737844E-2,-3.667079926E0,7.020869255E-1
2.652000000E0,-2.556016445E-1,-3.648970366E0,6.248552799E-1
2.654000000E0,-4.462838173E-1,-3.598902941E0,5.513521433E-1
2.656000000E0,-6.332375407E-1,-3.524334431E0,4.794468284E-1
2.658000000E0,-8.010165691E-1,-3.434319735E0,4.038131237E-1
2.660000000E0,-9.640018940E-1,-3.333652258E0,3.276467621E-1
2.662000000E0,-1.114204168E0,-3.236180782E0,2.424256802E-1
2.664000000E0,-1.243633628E0,-3.149894476E0,1.593351215E-1
2.666000000E0,-1.367204189E0,-3.072130203E0,7.624457031E-2
2.668000000E0,-1.475328445E0,-3.008214474E0,-5.780719221E-3
2.670000000E0,-1.573332667E0,-2.958147049E0,-8.034916967E-2
2.672000000E0,-1.665477991E0,-2.904883862E0,-1.549176127E-1
2.674000000E0,-1.747503281E0,-2.850022793E0,-2.268228978E-1
2.676000000E0,-1.823669672E0,-2.796759605E0,-2.939344943E-1
2.678000000E0,-1.890248537E0,-2.730180502E0,-3.626439869E-1
2.680000000E0,-1.948305488E0,-2.655079603E0,-4.281576872E-1
2.682000000E0,-1.998905420E0,-2.570390940E0,-4.958019257E-1
2.684000000E0,-2.036189795E0,-2.474517345E0,-5.623809099E-1
2.686000000E0,-2.068147659E0,-2.369056225E0,-6.241661906E-1
2.688000000E0,-2.091050863E0,-2.258801460E0,-6.896798611E-1
2.690000000E0,-2.100638151E0,-2.141622543E0,-7.488020062E-1
2.692000000E0,-2.107029676E0,-2.015921354E0,-8.153809905E-1
2.694000000E0,-2.101170778E0,-1.883296132E0,-8.755683899E-1
2.696000000E0,-2.084126472E0,-1.741616011E0,-9.341578484E-1
2.698000000E0,-2.059625387E0,-1.589815974E0,-9.938126206E-1
2.700000000E0,-2.033526421E0,-1.433754921E0,-1.046543241E0
2.702000000E0,-1.995709658E0,-1.271834850E0,-1.100871682E0
2.704000000E0,-1.955229640E0,-1.109382153E0,-1.147743225E0
2.706000000E0,-1.906760216E0,-9.479946494E-1,-1.185027480E0
2.708000000E0,-1.854029655E0,-7.924661636E-1,-1.222311735E0
2.710000000E0,-1.791711688E0,-6.417313814E-1,-1.252671719E0
2.712000000E0,-1.725665331E0,-5.037797689E-1,-1.271313787E0
2.714000000E0,-1.651629567E0,-3.722197115E-1,-1.283031702E0
2.716000000E0,-1.573332667E0,-2.545080781E-1,-1.286227465E0
2.718000000E0,-1.490242124E0,-1.463838518E-1,-1.281433821E0
2.720000000E0,-1.402890563E0,-4.678171501E-2,-1.267585397E0
2.722000000E0,-1.311810493E0,3.897200152E-2,-1.249475956E0
2.724000000E0,-1.210610509E0,1.140730828E-1,-1.216452718E0
2.726000000E0,-1.111008286E0,1.843804717E-1,-1.179168582E0
2.728000000E0,-1.008210421E0,2.461657524E-1,-1.135492682E0
2.730000000E0,-9.032818675E-1,3.026247323E-1,-1.083294868E0
2.732000000E0,-7.994186878E-1,3.510942161E-1,-1.026835799E0
2.734000000E0,-6.928923130E-1,3.883784413E-1,-9.650505185E-1
2.736000000E0,-5.895617604E-1,4.224668741E-1,-9.006020427E-1
2.738000000E0,-4.809048772E-1,4.517616332E-1,-8.313599229E-1
2.740000000E0,-3.786395788E-1,4.714690149E-1,-7.642483115E-1
2.742000000E0,-2.769069076E-1,4.858500659E-1,-6.918104291E-1
2.744000000E0,-1.762395352E-1,4.933069050E-1,-6.220356822E-1
2.746000000E0,-8.196370304E-2,4.965026975E-1,-5.517282486E-1
2.748000000E0,1.124685258E-2,4.943721592E-1,-4.798229635E-1
2.750000000E0,1.007289886E-1,4.842521548E-1,-4.095155895E-1
2.752000000E0,1.854174286E-1,4.650774300E-1,-3.397408128E-1
2.754000000E0,2.669101059E-1,4.421742558E-1,-2.720965743E-1
2.756000000E0,3.489353955E-1,4.198037088E-1,-2.055176347E-1
2.758000000E0,4.165796340E-1,3.926394880E-1,-1.400039196E-1
2.760000000E0,4.868870378E-1,3.590837121E-1,-7.555548102E-2
2.762000000E0,5.524007082E-1,3.233973682E-1,-1.323756389E-2
2.764000000E0,6.125881076E-1,2.861131430E-1,5.121088028E-2
2.766000000E0,6.743733883E-1,2.514920831E-1,1.135287955E-1
2.768000000E0,7.276365757E-1,2.035552114E-1,1.747814417E-1
2.770000000E0,7.814323902E-1,1.593467742E-1,2.370993644E-1
2.772000000E0,8.277713656E-1,1.082141325E-1,3.020804524E-1
2.774000000E0,8.725124002E-1,5.282042548E-2,3.670615256E-1
2.776000000E0,9.119271636E-1,-9.753820486E-4,4.283141792E-1
2.778000000E0,9.502766728E-1,-6.435855478E-2,4.932952523E-1
2.780000000E0,9.817019105E-1,-1.309375316E-1,5.598742366E-1
2.782000000E0,1.012061834E0,-1.980491430E-1,6.307142377E-1
2.784000000E0,1.033367157E0,-2.656933665E-1,6.999563575E-1
2.786000000E0,1.053074479E0,-3.258807361E-1,7.761227489E-1
2.788000000E0,1.067455530E0,-3.823397160E-1,8.501585126E-1
2.790000000E0,1.078640819E0,-4.281460345E-1,9.140743613E-1
2.792000000E0,1.081836700E0,-4.632997513E-1,9.721311927E-1
2.794000000E0,1.083434582E0,-4.973881841E-1,1.023796439E0
2.796000000E0,1.079173446E0,-5.234871507E-1,1.064276457E0
2.798000000E0,1.069053531E0,-5.426618457E-1,1.095701694E0
2.800000000E0,1.063727140E0,-5.613039732E-1,1.122865915E0
2.802000000E0,1.045085073E0,-5.799461007E-1,1.143105984E0
2.804000000E0,1.024845004E0,-5.937945247E-1,1.155889153E0
2.806000000E0,1.001941919E0,-6.028492451E-1,1.168139696E0
2.808000000E0,9.769082665E-1,-6.103060842E-1,1.175596476E0
2.810000000E0,9.465482235E-1,-6.113713980E-1,1.183053374E0
2.812000000E0,9.108619094E-1,-6.097734571E-1,1.185716510E0
2.814000000E0,8.719797730E-1,-6.039144993E-1,1.186249137E0
2.816000000E0,8.277713656E-1,-5.964576602E-1,1.181988120E0
2.818000000E0,7.824976444E-1,-5.826092362E-1,1.173998594E0
2.820000000E0,7.340281606E-1,-5.746197701E-1,1.162813306E0
2.822000000E0,6.834281683E-1,-5.660976768E-1,1.151095390E0
2.824000000E0,6.237733960E-1,-5.517166257E-1,1.134583831E0
2.826000000E0,5.646512508E-1,-5.405313373E-1,1.122333288E0
2.828000000E0,5.097901821E-1,-5.309439898E-1,1.098364830E0
2.830000000E0,4.490701556E-1,-5.272155404E-1,1.082385898E0
2.832000000E0,3.830238283E-1,-5.266829133E-1,1.060015440E0
2.834000000E0,3.212385476E-1,-5.277481675E-1,1.044036388E0
2.836000000E0,2.599858940E-1,-5.373355746E-1,1.029122710E0
2.838000000E0,1.997984946E-1,-5.479881763E-1,1.009948015E0
2.840000000E0,1.412089914E-1,-5.591734648E-1,9.907733202E-1
2.842000000E0,8.581530303E-2,-5.698260665E-1,9.652069807E-1
2.844000000E0,3.148686141E-2,-5.916640162E-1,9.428364635E-1
2.846000000E0,-2.071105316E-2,-6.145671606E-1,9.124764800E-1
2.848000000E0,-7.450685650E-2,-6.396008730E-1,8.751922250E-1
2.850000000E0,-1.197805628E-1,-6.651671529E-1,8.352448344E-1
2.852000000E0,-1.655869037E-1,-7.013861537E-1,7.915690541E-1
2.854000000E0,-2.124584913E-1,-7.360072136E-1,7.446974516E-1
2.856000000E0,-2.508079708E-1,-7.653019428E-1,6.978258491E-1
2.858000000E0,-2.918206155E-1,-7.945966721E-1,6.424321532E-1
2.860000000E0,-3.275069296E-1,-8.089777827E-1,5.833100080E-1
2.862000000E0,-3.610627353E-1,-8.222935200E-1,5.199268460E-1
2.864000000E0,-4.004774988E-1,-8.233588338E-1,4.501520693E-1
2.866000000E0,-4.366964400E-1,-8.201630116E-1,3.777141571E-1
2.868000000E0,-4.729154110E-1,-8.132387996E-1,3.047436178E-1
2.870000000E0,-5.080690980E-1,-8.164346218E-1,2.328383029E-1
2.872000000E0,-5.416249037E-1,-8.190977573E-1,1.651940793E-1
2.874000000E0,-5.735828280E-1,-8.238914609E-1,1.044740528E-1
2.876000000E0,-6.060733795E-1,-8.292177320E-1,4.801509157E-2
2.878000000E0,-6.316396594E-1,-8.372072577E-1,-4.182823934E-3
2.880000000E0,-6.588038802E-1,-8.430662155E-1,-5.105441809E-2
2.882000000E0,-6.790438890E-1,-8.446640968E-1,-9.313233197E-2
2.884000000E0,-7.019470930E-1,-8.483924866E-1,-1.250902414E-1
2.886000000E0,-7.179260254E-1,-8.430662155E-1,-1.586460322E-1
2.888000000E0,-7.360355258E-1,-8.345440626E-1,-1.863428950E-1
2.890000000E0,-7.434923649E-1,-8.228262067E-1,-2.103113234E-1
2.892000000E0,-7.514818311E-1,-8.116409183E-1,-2.268228978E-1
2.894000000E0,-7.584060431E-1,-7.983251214E-1,-2.417365909E-1
2.896000000E0,-7.546775937E-1,-7.807482481E-1,-2.587808073E-1
2.898000000E0,-7.456228733E-1,-7.700956464E-1,-2.699660659E-1
2.900000000E0,-7.360355258E-1,-7.631714344E-1,-2.891407907E-1
2.902000000E0,-7.296439409E-1,-7.626388073E-1,-3.109787107E-1
2.904000000E0,-7.078059912E-1,-7.653019428E-1,-3.312187195E-1
2.906000000E0,-6.865007281E-1,-7.807482481E-1,-3.514587283E-1
2.908000000E0,-6.598691344E-1,-7.967272401E-1,-3.701008260E-1
2.910000000E0,-6.316396594E-1,-8.201630116E-1,-3.828839958E-1
2.912000000E0,-5.975512266E-1,-8.409356475E-1,-3.908734620E-1
2.914000000E0,-5.613322854E-1,-8.718283176E-1,-3.956671655E-1
2.916000000E0,-5.245807171E-1,-9.016556740E-1,-3.951345384E-1
2.918000000E0,-4.819701612E-1,-9.346788526E-1,-3.908734620E-1
2.920000000E0,-4.366964400E-1,-9.639735818E-1,-3.828839958E-1
2.922000000E0,-3.940859139E-1,-9.959314466E-1,-3.727639914E-1
2.924000000E0,-3.562690616E-1,-1.026824236E0,-3.589155674E-1
2.926000000E0,-3.077995777E-1,-1.049194694E0,-3.466650248E-1
2.928000000E0,-2.705153525E-1,-1.066238999E0,-3.290881813E-1
2.930000000E0,-2.342963964E-1,-1.079554796E0,-3.115113378E-1
2.932000000E0,-2.007405907E-1,-1.087544203E0,-2.928692400E-1
2.934000000E0,-1.687826961E-1,-1.087011576E0,-2.673029006E-1
2.936000000E0,-1.400205791E-1,-1.079554796E0,-2.491934448E-1
2.938000000E0,-1.160521358E-1,-1.072630525E0,-2.273555398E-1
2.940000000E0,-9.527949989E-2,-1.058249474E0,-2.081807852E-1
2.942000000E0,-8.036580682E-2,-1.039607406E0,-1.847449988E-1
2.944000000E0,-6.225632876E-2,-1.023628473E0,-1.597113013E-1
2.946000000E0,-5.266895890E-2,-1.003388405E0,-1.405365616E-1
2.948000000E0,-4.254895449E-2,-9.831483364E-1,-1.186986566E-1
2.950000000E0,-3.775526583E-2,-9.618430734E-1,-9.952390939E-2
2.952000000E0,-3.722263500E-2,-9.378746152E-1,-7.235969603E-2
2.954000000E0,-3.296158090E-2,-9.080472589E-1,-5.211968347E-2
2.956000000E0,-3.562474251E-2,-8.872746229E-1,-2.868388593E-2
2.958000000E0,-4.041842744E-2,-8.633062243E-1,-8.443878032E-3
2.960000000E0,-5.053842813E-2,-8.420009017E-1,1.658981480E-2
2.962000000E0,-6.598474830E-2,-8.222935200E-1,3.043824062E-2
2.964000000E0,-7.930054516E-2,-8.031188250E-1,4.268877208E-2
2.966000000E0,-9.474686533E-2,-7.844766974E-1,5.280877650E-2
2.968000000E0,-1.181826666E-1,-7.722261548E-1,5.920035765E-2
2.970000000E0,-1.394879371E-1,-7.562472224E-1,6.612456590E-2
2.972000000E0,-1.623911113E-1,-7.418661714E-1,6.292877346E-2
2.974000000E0,-1.943490058E-1,-7.258871794E-1,6.133088470E-2
2.976000000E0,-2.183174491E-1,-7.147019506E-1,6.292877346E-2
2.978000000E0,-2.460142970E-1,-6.965924501E-1,5.493930355E-2
2.980000000E0,-2.753090262E-1,-6.816787720E-1,4.961298406E-2
2.982000000E0,-3.046037853E-1,-6.651671529E-1,3.576456010E-2
2.984000000E0,-3.338985145E-1,-6.427966356E-1,2.511192486E-2
2.986000000E0,-3.573343158E-1,-6.236218810E-1,7.535074838E-3
2.988000000E0,-3.834332824E-1,-6.071103215E-1,-1.163966861E-2
2.990000000E0,-4.074017107E-1,-5.895334482E-1,-2.815125138E-2
2.992000000E0,-4.271090925E-1,-5.655650496E-1,-4.945652187E-2
2.994000000E0,-4.510775208E-1,-5.485208035E-1,-7.235969603E-2
2.996000000E0,-4.702522457E-1,-5.288134217E-1,-1.016544402E-1
2.998000000E0,-4.841006696E-1,-5.016492009E-1,-1.378733963E-1
3.000000000E0,-5.016775131E-1,-4.707565904E-1,-1.778207868E-1
3.002000000E0,-5.155259371E-1,-4.361355305E-1,-2.236271054E-1
3.004000000E0,-5.261785984E-1,-3.977860212E-1,-2.774229050E-1
3.006000000E0,-5.315049291E-1,-3.557081223E-1,-3.338818848E-1
3.008000000E0,-5.352333188E-1,-3.072386384E-1,-3.924713731E-1
3.010000000E0,-5.384291410E-1,-2.545080781E-1,-4.595829546E-1
3.012000000E0,-5.331028104E-1,-1.911249310E-1,-5.272272229E-1
3.014000000E0,-5.261785984E-1,-1.218827888E-1,-6.007303596E-1
3.016000000E0,-5.149933100E-1,-5.636908486E-2,-6.752988100E-1
3.018000000E0,-5.054059625E-1,2.778673172E-2,-7.472041249E-1
3.020000000E0,-4.915575087E-1,1.060836092E-1,-8.169788718E-1
3.022000000E0,-4.750459492E-1,1.897067875E-1,-8.894168139E-1
3.024000000E0,-4.558711946E-1,2.727973461E-1,-9.496042132E-1
3.026000000E0,-4.393596053E-1,3.542900085E-1,-1.004997969E0
3.028000000E0,-4.164564312E-1,4.379132092E-1,-1.055598021E0
3.030000000E0,-3.956837952E-1,5.210037827E-1,-1.095545411E0
3.032000000E0,-3.749111593E-1,5.961048603E-1,-1.125905395E0
3.034000000E0,-3.541385233E-1,6.749343276E-1,-1.149341106E0
3.036000000E0,-3.333658874E-1,7.457743883E-1,-1.155200124E0
3.038000000E0,-3.120606244E-1,8.182122707E-1,-1.152004361E0
3.040000000E0,-2.944837809E-1,8.815954328E-1,-1.140286446E0
3.042000000E0,-2.731784880E-1,9.433807731E-1,-1.120046377E0
3.044000000E0,-2.524058819E-1,9.977091551E-1,-1.093414783E0
3.046000000E0,-2.321658731E-1,1.046711206E0,-1.071576953E0
3.048000000E0,-2.087300718E-1,1.089321733E0,-1.047075868E0
3.050000000E0,-1.826311201E-1,1.120747089E0,-1.021509528E0
3.052000000E0,-1.634563655E-1,1.143650174E0,-9.964757562E-1
3.054000000E0,-1.336289942E-1,1.156965971E0,-9.623873234E-1
3.056000000E0,-1.107258201E-1,1.153770208E0,-9.240378737E-1
3.058000000E0,-8.675739169E-2,1.143650174E0,-8.840904832E-1
3.060000000E0,-6.705001742E-2,1.124475479E0,-8.425452113E-1
3.062000000E0,-5.000579730E-2,1.097843885E0,-8.004673123E-1
3.064000000E0,-3.615737334E-2,1.067483902E0,-7.589220405E-1
3.066000000E0,-2.071105316E-2,1.032862782E0,-7.173767686E-1
3.068000000E0,-1.165631320E-2,9.907849431E-1,-6.779620051E-1
3.070000000E0,-6.329995580E-3,9.391196966E-1,-6.406777501E-1
3.072000000E0,-4.199468531E-3,8.805301785E-1,-6.017956734E-1
3.074000000E0,-6.329995580E-3,8.171470165E-1,-5.703703761E-1
3.076000000E0,-1.325420849E-2,7.580248713E-1,-5.346840620E-1
3.078000000E0,-2.124368586E-2,6.903806329E-1,-5.016608834E-1
3.080000000E0,-3.349421546E-2,6.232690811E-1,-4.744966626E-1
3.082000000E0,-4.681000859E-2,5.513637662E-1,-4.467998147E-1
3.084000000E0,-6.225632876E-2,4.805237353E-1,-4.222987592E-1
3.086000000E0,-7.823528349E-2,4.075531960E-1,-3.988629580E-1
3.088000000E0,-9.527949989E-2,3.303215802E-1,-3.780903220E-1
3.090000000E0,-1.117910817E-1,2.552205026E-1,-3.573176563E-1
3.092000000E0,-1.293679327E-1,1.774562597E-1,-3.397408128E-1
3.094000000E0,-1.453468949E-1,1.039530784E-1,-3.226965964E-1
3.096000000E0,-1.634563655E-1,2.299304679E-2,-2.992607951E-1
3.098000000E0,-1.751742661E-1,-4.997750372E-2,-2.811513245E-1
3.100000000E0,-1.906205863E-1,-1.250785887E-1,-2.651723623E-1
3.102000000E0,-2.012732327E-1,-2.023101896E-1,-2.454650104E-1
3.104000000E0,-2.103279680E-1,-2.838028371E-1,-2.294860631E-1
3.106000000E0,-2.188500762E-1,-3.578386605E-1,-2.119092196E-1
3.108000000E0,-2.220458686E-1,-4.361355305E-1,-1.975281537E-1
3.110000000E0,-2.305679768E-1,-5.218892097E-1,-1.788860410E-1
3.112000000E0,-2.374921888E-1,-6.012513638E-1,-1.623744667E-1
3.114000000E0,-2.417532355E-1,-6.923313737E-1,-1.458628774E-1
3.116000000E0,-2.438837737E-1,-7.850093246E-1,-1.266881377E-1
3.118000000E0,-2.502753437E-1,-8.707630634E-1,-1.149702370E-1
3.120000000E0,-2.598626912E-1,-9.655714631E-1,-1.037849635E-1
3.122000000E0,-2.651890218E-1,-1.055586338E0,-8.940391243E-2
3.124000000E0,-2.822332382E-1,-1.147199035E0,-7.928390801E-2
3.126000000E0,-2.955490351E-1,-1.240409493E0,-7.182706147E-2
3.128000000E0,-3.125932515E-1,-1.324565411E0,-6.117441878E-2
3.130000000E0,-3.264416754E-1,-1.403394818E0,-5.531547219E-2
3.132000000E0,-3.514753580E-1,-1.463582277E0,-4.892389104E-2
3.134000000E0,-3.775743246E-1,-1.523236990E0,-4.306494072E-2
3.136000000E0,-4.052711725E-1,-1.569043398E0,-3.187967464E-2
3.138000000E0,-4.409575164E-1,-1.598870754E0,-2.868388593E-2
3.140000000E0,-4.782417417E-1,-1.610056043E0,-2.335756645E-2
3.142000000E0,-5.203196406E-1,-1.608990669E0,-1.749861613E-2
3.144000000E0,-5.693217516E-1,-1.594609618E0,-1.110703684E-2
3.146000000E0,-6.183238626E-1,-1.554662228E0,-5.780719221E-3
3.148000000E0,-6.795765162E-1,-1.500866532E0,1.143493690E-3
3.150000000E0,-7.371007800E-1,-1.420971751E0,1.073086541E-2
3.152000000E0,-8.020818233E-1,-1.321902156E0,1.765507832E-2
3.154000000E0,-8.628018498E-1,-1.194603205E0,1.765507832E-2
3.156000000E0,-9.219239950E-1,-1.053988457E0,1.978560537E-2
3.158000000E0,-9.799808264E-1,-9.027209282E-1,1.712244749E-2
3.160000000E0,-1.035374641E0,-7.376050949E-1,1.286139246E-2
3.162000000E0,-1.081713557E0,-5.815439820E-1,7.823016495E-5
3.164000000E0,-1.128052592E0,-4.111018181E-1,-1.803125069E-2
3.166000000E0,-1.167467237E0,-2.465186268E-1,-3.933652118E-2
3.168000000E0,-1.203686237E0,-7.288066298E-2,-6.383758783E-2
3.170000000E0,-1.236709476E0,1.098120287E-1,-8.940391243E-2
3.172000000E0,-1.268667340E0,3.052878976E-1,-1.128397062E-1
3.174000000E0,-1.292103171E0,5.071553588E-1,-1.330797076E-1
3.176000000E0,-1.310745239E0,7.143490911E-1,-1.511891931E-1
3.178000000E0,-1.321397901E0,9.289996624E-1,-1.554502398E-1
3.180000000E0,-1.323528409E0,1.147378683E0,-1.666355133E-1
3.182000000E0,-1.324061036E0,1.367355585E0,-1.682334095E-1
3.184000000E0,-1.313408375E0,1.589462996E0,-1.655702442E-1
3.186000000E0,-1.296364188E0,1.795591474E0,-1.639723629E-1
3.188000000E0,-1.273460984E0,1.983077884E0,-1.549176127E-1
3.190000000E0,-1.243101001E0,2.155650616E0,-1.447976083E-1
3.192000000E0,-1.211675763E0,2.304254770E0,-1.293512881E-1
3.194000000E0,-1.174391508E0,2.437945366E0,-1.128397062E-1
3.196000000E0,-1.128052592E0,2.557255030E0,-9.952390939E-2
3.198000000E0,-1.077985168E0,2.666977167E0,-8.567548543E-2
3.200000000E0,-1.026319861E0,2.764448643E0,-6.969653070E-2
3.202000000E0,-9.703934789E-1,2.849137068E0,-5.584810302E-2
3.204000000E0,-9.139345288E-1,2.931162357E0,-3.986915201E-2
3.206000000E0,-8.564102650E-1,3.005730867E0,-2.122703940E-2
3.208000000E0,-8.020818233E-1,3.073907614E0,3.274020739E-3
3.210000000E0,-7.472207546E-1,3.136225700E0,2.404665947E-2
3.212000000E0,-6.934249401E-1,3.186293125E0,4.908035323E-2
3.214000000E0,-6.438902020E-1,3.233164549E0,7.464667410E-2
3.216000000E0,-5.927575827E-1,3.262459278E0,1.018108949E-1
3.218000000E0,-5.490817428E-1,3.284829855E0,1.257793307E-1
3.220000000E0,-5.048733354E-1,3.280568838E0,1.508130133E-1
3.222000000E0,-4.617301524E-1,3.264589787E0,1.742488146E-1
3.224000000E0,-4.249785542E-1,3.216120481E0,1.998151392E-1
3.226000000E0,-3.898248672E-1,3.147410870E0,2.216530442E-1
3.228000000E0,-3.583995700E-1,3.043015003E0,2.418930531E-1
3.230000000E0,-3.354964256E-1,2.905596018E0,2.631983459E-1
3.232000000E0,-3.141911328E-1,2.733556032E0,2.823730707E-1
3.234000000E0,-2.944837809E-1,2.526362181E0,2.988846600E-1
3.236000000E0,-2.721132338E-1,2.298928499E0,3.207225502E-1
3.238000000E0,-2.571995556E-1,2.045928478E0,3.393646777E-1
3.240000000E0,-2.428185046E-1,1.781743050E0,3.638657331E-1
3.242000000E0,-2.316332310E-1,1.511166096E0,3.894320726E-1
3.244000000E0,-2.289700806E-1,1.233132362E0,4.219225943E-1
3.246000000E0,-2.268395573E-1,9.625554681E-1,4.538804889E-1
3.248000000E0,-2.369595617E-1,7.010332942E-1,4.847731590E-1
3.250000000E0,-2.417532355E-1,4.496310949E-1,5.082089305E-1
3.252000000E0,-2.513405979E-1,2.179362625E-1,5.247205496E-1
3.254000000E0,-2.651890218E-1,1.155145001E-3,5.332426429E-1
3.256000000E0,-2.843637764E-1,-1.980491430E-1,5.359057784E-1
3.258000000E0,-3.046037853E-1,-3.748828769E-1,5.316447616E-1
3.260000000E0,-3.275069296E-1,-5.298787355E-1,5.231226087E-1
3.262000000E0,-3.498774767E-1,-6.582429409E-1,5.055457950E-1
3.264000000E0,-3.749111593E-1,-7.626388073E-1,4.842405021E-1
3.266000000E0,-4.042059183E-1,-8.345440626E-1,4.512173533E-1
3.268000000E0,-4.292396009E-1,-8.728935719E-1,4.155310094E-1
3.270000000E0,-4.665238261E-1,-8.739588261E-1,3.755836487E-1
3.272000000E0,-5.299069881E-1,-8.334788084E-1,3.372341394E-1
3.274000000E0,-5.948880911E-1,-7.354745865E-1,2.898299098E-1
3.276000000E0,-6.806417704E-1,-5.996534824E-1,2.536109686E-1
3.278000000E0,-7.647976279E-1,-4.201565683E-1,2.227182984E-1
3.280000000E0,-8.356376290E-1,-2.071038783E-1,1.992825121E-1
3.282000000E0,-9.022166133E-1,3.630883992E-2,1.918256581E-1
3.284000000E0,-9.613387585E-1,2.988963127E-1,1.902277619E-1
3.286000000E0,-1.015667200E0,5.721364021E-1,2.019456625E-1
3.288000000E0,-1.064669371E0,8.512354493E-1,2.200551480E-1
3.290000000E0,-1.111540914E0,1.120214462E0,2.376319915E-1
3.292000000E0,-1.146162033E0,1.380138755E0,2.642636001E-1
3.294000000E0,-1.188239932E0,1.616627216E0,2.903625667E-1
3.296000000E0,-1.221795678E0,1.821157813E0,3.148636222E-1
3.298000000E0,-1.251623154E0,1.998524189E0,3.377667665E-1
3.300000000E0,-1.283581018E0,2.145530462E0,3.628004789E-1
3.302000000E0,-1.309679985E0,2.263774872E0,3.888994157E-1
3.304000000E0,-1.330985188E0,2.344202280E0,4.123352170E-1
3.306000000E0,-1.354953647E0,2.390541077E0,4.341731369E-1
3.308000000E0,-1.374128461E0,2.407585382E0,4.565436542E-1
3.310000000E0,-1.391705275E0,2.392671824E0,4.725226164E-1
3.312000000E0,-1.407151580E0,2.356985331E0,4.842405021E-1
3.314000000E0,-1.416206360E0,2.306917906E0,4.932952523E-1
3.316000000E0,-1.425261021E0,2.236610651E0,4.975562990E-1
3.318000000E0,-1.427924275E0,2.152987480E0,4.975562990E-1
3.320000000E0,-1.428989530E0,2.060842037E0,4.922299981E-1
3.322000000E0,-1.426326275E0,1.966566324E0,4.847731590E-1
3.324000000E0,-1.416738987E0,1.871757865E0,4.757184088E-1
3.326000000E0,-1.409282088E0,1.776416779E0,4.671962857E-1
3.328000000E0,-1.397564173E0,1.686934590E0,4.533478618E-1
3.330000000E0,-1.387444258E0,1.600648284E0,4.442931414E-1
3.332000000E0,-1.379987359E0,1.520753503E0,4.336405098E-1
3.334000000E0,-1.364541054E0,1.453109264E0,4.272489250E-1
3.336000000E0,-1.360812664E0,1.388660789E0,4.181941748E-1
3.338000000E0,-1.354953647E0,1.326875567E0,4.054110050E-1
3.340000000E0,-1.349094748E0,1.275742888E0,3.947583735E-1
3.342000000E0,-1.347496867E0,1.232599735E0,3.867689073E-1
3.344000000E0,-1.343235731E0,1.192119718E0,3.755836487E-1
3.346000000E0,-1.345898986E0,1.156965971E0,3.670615256E-1
3.348000000E0,-1.343768358E0,1.132465005E0,3.601373136E-1
3.350000000E0,-1.345366240E0,1.096778631E0,3.585394323E-1
3.352000000E0,-1.344833612E0,1.078669190E0,3.510825634E-1
3.354000000E0,-1.345898986E0,1.052037597E0,3.473541439E-1
3.356000000E0,-1.348029494E0,1.029134393E0,3.436257243E-1
3.358000000E0,-1.348562121E0,1.003035426E0,3.420278430E-1
3.360000000E0,-1.353355765E0,9.748060107E-1,3.393646777E-1
3.362000000E0,-1.355486274E0,9.508376122E-1,3.345710039E-1
3.364000000E0,-1.355486274E0,9.178144336E-1,3.308425546E-1
3.366000000E0,-1.353888392E0,8.917154670E-1,3.329730928E-1
3.368000000E0,-1.353355765E0,8.629533648E-1,3.361688852E-1
3.370000000E0,-1.348029494E0,8.315280676E-1,3.430930972E-1
3.372000000E0,-1.342703104E0,8.038312197E-1,3.452236354E-1
3.374000000E0,-1.336844206E0,7.756017447E-1,3.478867710E-1
3.376000000E0,-1.326724172E0,7.473722696E-1,3.580067754E-1
3.378000000E0,-1.316604137E0,7.138164639E-1,3.670615256E-1
3.380000000E0,-1.302755713E0,6.861196160E-1,3.809099495E-1
3.382000000E0,-1.289439917E0,6.541616917E-1,3.873015344E-1
3.384000000E0,-1.275591493E0,6.232690811E-1,4.043457508E-1
3.386000000E0,-1.259079933E0,5.907785296E-1,4.160636365E-1
3.388000000E0,-1.242035747E0,5.625490546E-1,4.272489250E-1
3.390000000E0,-1.223393679E0,5.412437916E-1,4.416299760E-1
3.392000000E0,-1.207947254E0,5.151448250E-1,4.528152347E-1
3.394000000E0,-1.187174678E0,5.023616552E-1,4.538804889E-1
3.396000000E0,-1.171728373E0,4.890458584E-1,4.613373578E-1
3.398000000E0,-1.152553558E0,4.735995233E-1,4.650657773E-1
3.400000000E0,-1.132846236E0,4.602837265E-1,4.693268239E-1
3.402000000E0,-1.117932558E0,4.490984678E-1,4.709247351E-1
3.404000000E0,-1.100888371E0,4.304563701E-1,4.661310315E-1
3.406000000E0,-1.082246184E0,4.182058275E-1,4.666636586E-1
3.408000000E0,-1.066799879E0,4.091510773E-1,4.655984044E-1
3.410000000E0,-1.052951455E0,3.931721449E-1,4.677289426E-1
3.412000000E0,-1.037505150E0,3.814542294E-1,4.666636586E-1
3.414000000E0,-1.023124099E0,3.660079241E-1,4.666636586E-1
3.416000000E0,-1.011406183E0,3.590837121E-1,4.645331502E-1
3.418000000E0,-1.002351403E0,3.436373770E-1,4.666636586E-1
3.420000000E0,-9.932966232E-1,3.308542073E-1,4.640004933E-1
3.422000000E0,-9.831766486E-1,3.202015758E-1,4.645331502E-1
3.424000000E0,-9.783829451E-1,3.132773638E-1,4.703920782E-1
3.426000000E0,-9.709261060E-1,3.010268509E-1,4.767836630E-1
3.428000000E0,-9.650671482E-1,2.972984016E-1,4.799794555E-1
3.430000000E0,-9.554798007E-1,2.999615669E-1,4.842405021E-1
3.432000000E0,-9.560124278E-1,3.015594780E-1,4.906320870E-1
3.434000000E0,-9.533492327E-1,3.079510629E-1,4.879689217E-1
3.436000000E0,-9.512187243E-1,3.143426180E-1,4.874362946E-1
3.438000000E0,-9.549471736E-1,3.249952793E-1,4.853057861E-1
3.440000000E0,-9.549471736E-1,3.356479108E-1,4.831752479E-1
3.442000000E0,-9.586755633E-1,3.473657966E-1,4.778489470E-1
3.444000000E0,-9.677303433E-1,3.601489663E-1,4.671962857E-1
3.446000000E0,-9.714587331E-1,3.686710596E-1,4.613373578E-1
3.448000000E0,-9.773176908E-1,3.825194836E-1,4.485541880E-1
3.450000000E0,-9.847745299E-1,3.979658186E-1,4.384341836E-1
3.452000000E0,-9.901008606E-1,4.102163613E-1,4.261836410E-1
3.454000000E0,-9.943618774E-1,4.251300395E-1,4.102047086E-1
3.456000000E0,-9.991555810E-1,4.469679296E-1,3.958236277E-1
3.458000000E0,-1.009808302E0,4.640121460E-1,3.777141571E-1
3.460000000E0,-1.010340929E0,4.853174388E-1,3.612025678E-1
3.462000000E0,-1.010873556E0,5.066226721E-1,3.425604701E-1
3.464000000E0,-1.009808302E0,5.279279947E-1,3.249836266E-1
3.466000000E0,-1.008743048E0,5.561574697E-1,3.058088720E-1
3.468000000E0,-1.008210421E0,5.785279870E-1,2.903625667E-1
3.470000000E0,-9.991555810E-1,6.078227162E-1,2.701225579E-1
3.472000000E0,-9.932966232E-1,6.333890557E-1,2.541435957E-1
3.474000000E0,-9.842419028E-1,6.546943188E-1,2.355014682E-1
3.476000000E0,-9.735892415E-1,6.818585396E-1,2.189898789E-1
3.478000000E0,-9.602734447E-1,7.084901333E-1,1.998151392E-1
3.480000000E0,-9.410987496E-1,7.340564728E-1,1.859667152E-1
3.482000000E0,-9.261850119E-1,7.644164562E-1,1.699877530E-1
3.484000000E0,-9.054123759E-1,7.814607024E-1,1.529435366E-1
3.486000000E0,-8.835744858E-1,8.027659655E-1,1.374972165E-1
3.488000000E0,-8.622692227E-1,8.246038556E-1,1.225835308E-1
3.490000000E0,-8.361702561E-1,8.421807289E-1,1.055393144E-1
3.492000000E0,-8.100712895E-1,8.538985848E-1,8.742983639E-2
3.494000000E0,-7.829070687E-1,8.586922884E-1,6.612456590E-2
3.496000000E0,-7.552102208E-1,8.576270342E-1,4.748245701E-2
3.498000000E0,-7.232523561E-1,8.496375680E-1,2.937297896E-2
3.500000000E0,-6.955555081E-1,8.357891440E-1,7.535074838E-3
3.502000000E0,-6.667933464E-1,8.203427792E-1,-1.323756389E-2
3.504000000E0,-6.396291256E-1,7.985048890E-1,-3.347757086E-2
3.506000000E0,-6.108670235E-1,7.729385495E-1,-5.265231431E-2
3.508000000E0,-5.810396671E-1,7.457743883E-1,-7.289232314E-2
3.510000000E0,-5.554733276E-1,7.154143453E-1,-9.366495907E-2
3.512000000E0,-5.304396152E-1,6.845217347E-1,-1.112418100E-1
3.514000000E0,-5.054059625E-1,6.514985561E-1,-1.277533919E-1
3.516000000E0,-4.841006696E-1,6.168774962E-1,-1.416018158E-1
3.518000000E0,-4.606648684E-1,5.843869448E-1,-1.522544622E-1
3.520000000E0,-4.468164444E-1,5.529616475E-1,-1.666355133E-1
3.522000000E0,-4.329680204E-1,5.231342912E-1,-1.740923524E-1
3.524000000E0,-4.249785542E-1,4.949047863E-1,-1.852776259E-1
3.526000000E0,-4.185869694E-1,4.672079384E-1,-1.906039417E-1
3.528000000E0,-4.148585498E-1,4.453700483E-1,-1.916692108E-1
3.530000000E0,-4.185869694E-1,4.224668741E-1,-1.964628994E-1
3.532000000E0,-4.207175076E-1,4.048900306E-1,-1.948650032E-1
3.534000000E0,-4.244459271E-1,3.894436955E-1,-2.012565732E-1
3.536000000E0,-4.361638129E-1,3.734647632E-1,-1.991260499E-1
3.538000000E0,-4.414901435E-1,3.537573814E-1,-1.964628994E-1
3.540000000E0,-4.500122368E-1,3.345826268E-1,-1.927344650E-1
3.542000000E0,-4.595996141E-1,3.154079020E-1,-1.927344650E-1
3.544000000E0,-4.611975253E-1,2.887763083E-1,-1.884734184E-1
3.546000000E0,-4.681217372E-1,2.658731341E-1,-1.932671070E-1
3.548000000E0,-4.681217372E-1,2.349804789E-1,-1.911365688E-1
3.550000000E0,-4.627954066E-1,2.035552114E-1,-1.922018379E-1
3.552000000E0,-4.564038217E-1,1.726625711E-1,-1.953976303E-1
3.554000000E0,-4.462838173E-1,1.460309774E-1,-2.001913190E-1
3.556000000E0,-4.303048551E-1,1.119425520E-1,-2.012565732E-1
3.558000000E0,-4.132606387E-1,7.625622302E-2,-2.060502619E-1
3.560000000E0,-3.946185410E-1,4.270042107E-2,-2.119092196E-1
3.562000000E0,-3.685195744E-1,-4.427502863E-4,-2.156376392E-1
3.564000000E0,-3.450837731E-1,-4.198802635E-2,-2.214965820E-1
3.566000000E0,-3.179195523E-1,-8.672909439E-2,-2.278881669E-1
3.568000000E0,-2.859616578E-1,-1.282743812E-1,-2.353450060E-1
3.570000000E0,-2.566669285E-1,-1.692870259E-1,-2.401386946E-1
3.572000000E0,-2.220458686E-1,-2.049733549E-1,-2.454650104E-1
3.574000000E0,-1.890226901E-1,-2.465186268E-1,-2.566502690E-1
3.576000000E0,-1.501405835E-1,-2.838028371E-1,-2.561176419E-1
3.578000000E0,-1.117910817E-1,-3.178912699E-1,-2.609113157E-1
3.580000000E0,-7.503949106E-2,-3.471860290E-1,-2.646397352E-1
3.582000000E0,-3.242895007E-2,-3.759481311E-1,-2.715639472E-1
3.584000000E0,9.648957290E-3,-4.079060256E-1,-2.699660659E-1
3.586000000E0,5.652055517E-2,-4.372007847E-1,-2.731618583E-1
3.588000000E0,1.028595194E-1,-4.648976326E-1,-2.768902779E-1
3.590000000E0,1.502637416E-1,-4.947249889E-1,-2.752923667E-1
3.592000000E0,2.019290179E-1,-5.261502862E-1,-2.784881592E-1
3.594000000E0,2.594532669E-1,-5.538471341E-1,-2.822165787E-1
3.596000000E0,3.201732934E-1,-5.799461007E-1,-2.848797441E-1
3.598000000E0,3.787627816E-1,-6.039144993E-1,-2.907387018E-1
3.600000000E0,4.453417361E-1,-6.294808388E-1,-2.891407907E-1
3.602000000E0,5.065944195E-1,-6.486555934E-1,-2.944671214E-1
3.604000000E0,5.784996748E-1,-6.699608564E-1,-3.013913333E-1
3.606000000E0,6.456112862E-1,-6.763524413E-1,-3.125765920E-1
3.608000000E0,7.164512873E-1,-6.891356111E-1,-3.264250159E-1
3.610000000E0,7.872913480E-1,-6.992555857E-1,-3.322839737E-1
3.612000000E0,8.597292304E-1,-7.104408741E-1,-3.408060968E-1
3.614000000E0,9.311019182E-1,-7.216261625E-1,-3.519913554E-1
3.616000000E0,1.001409292E0,-7.258871794E-1,-3.663724065E-1
3.618000000E0,1.076510310E0,-7.258871794E-1,-3.828839958E-1
3.620000000E0,1.147882938E0,-7.285503745E-1,-3.967324197E-1
3.622000000E0,1.218723059E0,-7.248219252E-1,-4.175050557E-1
3.624000000E0,1.284236670E0,-7.216261625E-1,-4.398756027E-1
3.626000000E0,1.351348281E0,-7.178977132E-1,-4.606482387E-1
3.628000000E0,1.418992519E0,-7.136366963E-1,-4.798229635E-1
3.630000000E0,1.479179978E0,-7.157672048E-1,-5.032587647E-1
3.632000000E0,1.538834691E0,-7.077777386E-1,-5.293577313E-1
3.634000000E0,1.599022031E0,-7.056471705E-1,-5.554566979E-1
3.636000000E0,1.653350472E0,-7.061797976E-1,-5.836861730E-1
3.638000000E0,1.699156880E0,-7.083103657E-1,-6.151114702E-1
3.640000000E0,1.742300034E0,-7.115061283E-1,-6.444061995E-1
3.642000000E0,1.782780051E0,-7.067124844E-1,-6.822230220E-1
3.644000000E0,1.813672662E0,-6.971250772E-1,-7.120504379E-1
3.646000000E0,1.834977984E0,-6.704934835E-1,-7.408125401E-1
3.648000000E0,1.846163273E0,-6.289482117E-1,-7.722378373E-1
3.650000000E0,1.842967391E0,-5.639671683E-1,-7.903472781E-1
3.652000000E0,1.827521086E0,-4.936597645E-1,-8.063262701E-1
3.654000000E0,1.803020000E0,-4.132323563E-1,-8.217725754E-1
3.656000000E0,1.772660017E0,-3.322723210E-1,-8.265662789E-1
3.658000000E0,1.731114745E0,-2.507796586E-1,-8.318925500E-1
3.660000000E0,1.699689507E0,-1.650259644E-1,-8.350883722E-1
3.662000000E0,1.668264270E0,-8.193540573E-2,-8.308272958E-1
3.664000000E0,1.641632676E0,8.079357445E-3,-8.212399483E-1
3.666000000E0,1.616066337E0,1.055509746E-1,-8.137831092E-1
3.668000000E0,1.601152658E0,2.003594190E-1,-7.935431004E-1
3.670000000E0,1.591565251E0,2.919721007E-1,-7.754335999E-1
3.672000000E0,1.588369489E0,3.638773859E-1,-7.434756756E-1
3.674000000E0,1.595826268E0,4.203363657E-1,-6.992672682E-1
3.676000000E0,1.610207319E0,4.389784634E-1,-6.486672163E-1
3.678000000E0,1.635773659E0,4.315216243E-1,-5.874145627E-1
3.680000000E0,1.669329524E0,3.995637000E-1,-5.176398158E-1
3.682000000E0,1.719396830E0,3.542900085E-1,-4.340166450E-1
3.684000000E0,1.782247424E0,3.010268509E-1,-3.482629359E-1
3.686000000E0,1.845630646E0,2.488289028E-1,-2.545197308E-1
3.688000000E0,1.919133782E0,2.190015316E-1,-1.543849856E-1
3.690000000E0,1.988908529E0,1.945004761E-1,-5.211968347E-2
3.692000000E0,2.070401192E0,1.811846793E-1,3.949298337E-2
3.694000000E0,2.142306566E0,1.747930944E-1,1.279098541E-1
3.696000000E0,2.223799229E0,1.710646749E-1,2.051414549E-1
3.698000000E0,2.296769619E0,1.630751938E-1,2.685246468E-1
3.700000000E0,2.366544485E0,1.550857276E-1,3.169941306E-1
3.702000000E0,2.430992842E0,1.449657232E-1,3.505499363E-1
3.704000000E0,2.496506691E0,1.359109730E-1,3.739857376E-1
3.706000000E0,2.557226658E0,1.353783458E-1,3.825078607E-1
3.708000000E0,2.611555099E0,1.284541339E-1,3.814425766E-1
3.710000000E0,2.659492016E0,1.140730828E-1,3.702573180E-1
3.712000000E0,2.703167677E0,1.007572860E-1,3.516151905E-1
3.714000000E0,2.739919424E0,7.146254182E-2,3.223204613E-1
3.716000000E0,2.769214153E0,4.270042107E-2,2.940909863E-1
3.718000000E0,2.791584492E0,1.074251719E-2,2.589372694E-1
3.720000000E0,2.808628798E0,-1.588907093E-2,2.333709449E-1
3.722000000E0,2.818216085E0,-3.985750303E-2,2.062067240E-1
3.724000000E0,2.823009968E0,-6.116277352E-2,1.870319694E-1
3.726000000E0,2.827270985E0,-7.288066298E-2,1.737161875E-1
3.728000000E0,2.820346832E0,-6.755434722E-2,1.699877530E-1
3.730000000E0,2.812357187E0,-5.157539994E-2,1.699877530E-1
3.732000000E0,2.795845747E0,-2.281328477E-2,1.710530221E-1
3.734000000E0,2.781997204E0,2.032988891E-2,1.779772341E-1
3.736000000E0,2.760159254E0,8.104991168E-2,1.923583001E-1
3.738000000E0,2.730331898E0,1.636078209E-1,2.003477663E-1
3.740000000E0,2.701569796E0,2.605468333E-1,2.120656669E-1
3.742000000E0,2.666948795E0,3.766605556E-1,2.243161947E-1
3.744000000E0,2.633925676E0,5.050247908E-1,2.344361991E-1
3.746000000E0,2.595576048E0,6.451069713E-1,2.461540997E-1
3.748000000E0,2.560955048E0,7.921133041E-1,2.626656890E-1
3.750000000E0,2.527399302E0,9.380544424E-1,2.813078165E-1
3.752000000E0,2.500767708E0,1.058429122E0,3.095372915E-1
3.754000000E0,2.484788656E0,1.157498598E0,3.377667665E-1
3.756000000E0,2.473070860E0,1.221414447E0,3.713225722E-1
3.758000000E0,2.468277216E0,1.260296583E0,4.064762890E-1
3.760000000E0,2.469875097E0,1.267753482E0,4.490868151E-1
3.762000000E0,2.476799250E0,1.249111295E0,4.906320870E-1
3.764000000E0,2.483190775E0,1.211294413E0,5.369710326E-1
3.766000000E0,2.495441437E0,1.151639700E0,5.811794996E-1
3.768000000E0,2.508757114E0,1.079201818E0,6.285837293E-1
3.770000000E0,2.523670912E0,9.902523160E-1,6.765205860E-1
3.772000000E0,2.543910742E0,8.874543905E-1,7.244574428E-1
3.774000000E0,2.562020302E0,7.713406682E-1,7.676005960E-1
3.776000000E0,2.573205471E0,6.557595730E-1,8.118090630E-1
3.778000000E0,2.585456133E0,5.316563845E-1,8.496258855E-1
3.780000000E0,2.593978167E0,4.096837044E-1,8.885080218E-1
3.782000000E0,2.599304438E0,2.871783972E-1,9.220638275E-1
3.784000000E0,2.603033066E0,1.646730900E-1,9.588153958E-1
3.786000000E0,2.596108675E0,4.855937138E-2,9.934364557E-1
3.788000000E0,2.584923506E0,-6.276066601E-2,1.025394320E0
3.790000000E0,2.562552929E0,-1.655586064E-1,1.055221677E0
3.792000000E0,2.532725573E0,-2.667586207E-1,1.082385898E0
3.794000000E0,2.499702454E0,-3.690239191E-1,1.108484864E0
3.796000000E0,2.445374012E0,-4.712892175E-1,1.130322814E0
3.798000000E0,2.388915062E0,-5.767502785E-1,1.149497509E0
3.800000000E0,2.324999094E0,-6.907334924E-1,1.161748052E0
3.802000000E0,2.251496077E0,-8.095104098E-1,1.162813306E0
3.804000000E0,2.170003414E0,-9.426683187E-1,1.159084916E0
3.806000000E0,2.078390598E0,-1.082217932E0,1.149497509E0
3.808000000E0,1.978255868E0,-1.224430561E0,1.131920695E0
3.810000000E0,1.872794867E0,-1.374100089E0,1.112745881E0
3.812000000E0,1.762007356E0,-1.523769617E0,1.094636440E0
3.814000000E0,1.641632676E0,-1.677167535E0,1.073863864E0
3.816000000E0,1.515398860E0,-1.827902317E0,1.054689050E0
3.818000000E0,1.383306265E0,-1.974376082E0,1.032851219E0
3.820000000E0,1.247485161E0,-2.120849848E0,1.013143778E0
3.822000000E0,1.102609277E0,-2.262529850E0,9.859796166E-1
3.824000000E0,9.518745542E-1,-2.400481462E0,9.556196332E-1
3.826000000E0,7.979439497E-1,-2.527247906E0,9.194006920E-1
3.828000000E0,6.434807777E-1,-2.647089958E0,8.767901063E-1
3.830000000E0,4.836912453E-1,-2.753083706E0,8.256574869E-1
3.832000000E0,3.270975053E-1,-2.845229149E0,7.707964182E-1
3.834000000E0,1.705037504E-1,-2.921927929E0,7.154027224E-1
3.836000000E0,1.337737963E-2,-2.979452133E0,6.498889923E-1
3.838000000E0,-1.416184753E-1,-3.021530151E0,5.849078894E-1
3.840000000E0,-2.934184968E-1,-3.043900728E0,5.199268460E-1
3.842000000E0,-4.441533089E-1,-3.047096491E0,4.485541880E-1
3.844000000E0,-5.842354298E-1,-3.041770220E0,3.841057420E-1
3.846000000E0,-7.211217880E-1,-3.020997524E0,3.159288764E-1
3.848000000E0,-8.516166210E-1,-2.990637541E0,2.456214726E-1
3.850000000E0,-9.735892415E-1,-2.953353405E0,1.726509184E-1
3.852000000E0,-1.085441947E0,-2.909677505E0,1.039414182E-1
3.854000000E0,-1.190903068E0,-2.856946945E0,3.576456010E-2
3.856000000E0,-1.283581018E0,-2.802618504E0,-2.868388593E-2
3.858000000E0,-1.373063207E0,-2.753616333E0,-8.993653953E-2
3.860000000E0,-1.447631598E0,-2.695559502E0,-1.538523585E-1
3.862000000E0,-1.522732615E0,-2.627382755E0,-2.156376392E-1
3.864000000E0,-1.587713718E0,-2.546955347E0,-2.790207863E-1
3.866000000E0,-1.639379025E0,-2.458538294E0,-3.471976519E-1
3.868000000E0,-1.691044331E0,-2.356805801E0,-4.143092632E-1
3.870000000E0,-1.730459094E0,-2.248148918E0,-4.840840399E-1
3.872000000E0,-1.767210603E0,-2.133100271E0,-5.591850877E-1
3.874000000E0,-1.794374824E0,-2.007399321E0,-6.305577755E-1
3.876000000E0,-1.814614892E0,-1.876904488E0,-6.971367598E-1
3.878000000E0,-1.825800180E0,-1.733626604E0,-7.653136253E-1
3.880000000E0,-1.827398062E0,-1.582359076E0,-8.297620416E-1
3.882000000E0,-1.826865435E0,-1.418308496E0,-8.915473223E-1
3.884000000E0,-1.811951756E0,-1.253192663E0,-9.485388994E-1
3.886000000E0,-1.795972824E0,-1.084881067E0,-9.938126206E-1
3.888000000E0,-1.768808603E0,-9.155040979E-1,-1.035357952E0
3.890000000E0,-1.735785365E0,-7.498556376E-1,-1.065717936E0
3.892000000E0,-1.689446449E0,-5.943271518E-1,-1.085958004E0
3.894000000E0,-1.636183262E0,-4.435923696E-1,-1.098208547E0
3.896000000E0,-1.573332667E0,-3.083038926E-1,-1.101404309E0
3.898000000E0,-1.504090548E0,-1.863312423E-1,-1.097143292E0
3.900000000E0,-1.418336868E0,-8.726172149E-2,-1.082229614E0
3.902000000E0,-1.334181070E0,-4.427502863E-4,-1.062522173E0
3.904000000E0,-1.239372611E0,7.039728016E-2,-1.038021088E0
3.906000000E0,-1.137107253E0,1.289867610E-1,-1.006595850E0
3.908000000E0,-1.028450370E0,1.731951982E-1,-9.677136540E-1
3.910000000E0,-9.144671559E-1,2.051531076E-1,-9.277662635E-1
3.912000000E0,-7.988860607E-1,2.285889089E-1,-8.798294067E-1
3.914000000E0,-6.833049655E-1,2.541552484E-1,-8.292294145E-1
3.916000000E0,-5.687891245E-1,2.701342106E-1,-7.690420151E-1
3.918000000E0,-4.473490715E-1,2.797215581E-1,-7.051262259E-1
3.920000000E0,-3.285722136E-1,2.882436812E-1,-6.369493604E-1
3.922000000E0,-2.103279680E-1,2.941026390E-1,-5.661092997E-1
3.924000000E0,-9.527949989E-2,2.946352661E-1,-4.963345528E-1
3.926000000E0,2.456264757E-2,2.893089354E-1,-4.191029668E-1
3.928000000E0,1.396110952E-1,2.770584226E-1,-3.450671434E-1
3.930000000E0,2.525290549E-1,2.536225915E-1,-2.683681548E-1
3.932000000E0,3.585227728E-1,2.275236398E-1,-2.012565732E-1
3.934000000E0,4.602554440E-1,1.976962537E-1,-1.352102458E-1
3.936000000E0,5.582596660E-1,1.561509818E-1,-6.969653070E-2
3.938000000E0,6.509376168E-1,1.204646602E-1,-1.057440508E-2
3.940000000E0,7.372239828E-1,7.306043804E-2,4.375403747E-2
3.942000000E0,8.219124079E-1,2.885199711E-2,9.968036413E-2
3.944000000E0,8.964808583E-1,-1.748696715E-2,1.513456553E-1
3.946000000E0,9.694514275E-1,-6.915224344E-2,2.008804083E-1
3.948000000E0,1.037095547E0,-1.224154159E-1,2.525456846E-1
3.950000000E0,1.100478768E0,-1.740807146E-1,3.111352026E-1
3.952000000E0,1.156405091E0,-2.353333682E-1,3.643983603E-1
3.954000000E0,1.208603024E0,-2.885965109E-1,4.235205054E-1
3.956000000E0,1.260800958E0,-3.455881178E-1,4.863710403E-1
3.958000000E0,1.304476738E0,-3.903291821E-1,5.529500246E-1
3.960000000E0,1.346554637E0,-4.260155261E-1,6.136700511E-1
3.962000000E0,1.382241011E0,-4.510492086E-1,6.759879589E-1
3.964000000E0,1.417394638E0,-4.691586792E-1,7.313816547E-1
3.966000000E0,1.446156740E0,-4.734197557E-1,7.809163928E-1
3.968000000E0,1.466929436E0,-4.739523828E-1,8.240596056E-1
3.970000000E0,1.489299893E0,-4.664955437E-1,8.645395637E-1
3.972000000E0,1.504213691E0,-4.537123740E-1,8.948996067E-1
3.974000000E0,1.510072589E0,-4.419944584E-1,9.252595901E-1
3.976000000E0,1.510605216E0,-4.212218225E-1,9.492280483E-1
3.978000000E0,1.506876826E0,-4.031123519E-1,9.684028029E-1
3.980000000E0,1.496756792E0,-3.791439235E-1,9.795880318E-1
3.982000000E0,1.481310487E0,-3.573060334E-1,9.897080660E-1
3.984000000E0,1.458407283E0,-3.344028592E-1,9.960996509E-1
3.986000000E0,1.430177808E0,-3.109670579E-1,1.003023744E0
3.988000000E0,1.396622062E0,-2.869986296E-1,1.004088998E0
3.990000000E0,1.355609417E0,-2.710196674E-1,1.006752253E0
3.992000000E0,1.311400890E0,-2.545080781E-1,1.004621744E0
3.994000000E0,1.261866212E0,-2.379965186E-1,9.976975322E-1
3.996000000E0,1.203276634E0,-2.273438871E-1,9.945017695E-1
3.998000000E0,1.143089294E0,-2.156259865E-1,9.817185998E-1
4.000000000E0,1.073314548E0,-2.113649398E-1,9.737290740E-1
4.002000000E0,1.000876665E0,-2.076365054E-1,9.556196332E-1
4.004000000E0,9.252429605E-1,-2.065712512E-1,9.364448786E-1
4.006000000E0,8.496092558E-1,-2.055059820E-1,9.167374969E-1
4.008000000E0,7.707797289E-1,-2.145607173E-1,8.911711574E-1
4.010000000E0,6.860913038E-1,-2.209523022E-1,8.640069366E-1
4.012000000E0,6.040660143E-1,-2.278765142E-1,8.309838176E-1
4.014000000E0,5.167143941E-1,-2.379965186E-1,7.995585203E-1
4.016000000E0,4.293628037E-1,-2.443880886E-1,7.633395791E-1
4.018000000E0,3.468048573E-1,-2.534428239E-1,7.265879512E-1
4.020000000E0,2.642469406E-1,-2.646280825E-1,6.930321455E-1
4.022000000E0,1.784932166E-1,-2.747480869E-1,6.562805772E-1
4.024000000E0,9.700056911E-2,-2.880638838E-1,6.184636950E-1
4.026000000E0,1.763843372E-2,-2.981838882E-1,5.801142454E-1
4.028000000E0,-6.012580171E-2,-3.109670579E-1,5.438952446E-1
4.030000000E0,-1.341616213E-1,-3.162933886E-1,5.050131679E-1
4.032000000E0,-2.044690102E-1,-3.285439014E-1,4.682615697E-1
4.034000000E0,-2.721132338E-1,-3.344028592E-1,4.240531325E-1
4.036000000E0,-3.360290527E-1,-3.439902365E-1,3.894320726E-1
4.038000000E0,-3.930206597E-1,-3.594365418E-1,3.484194279E-1
4.040000000E0,-4.468164444E-1,-3.658281267E-1,3.074067831E-1
4.042000000E0,-4.947533011E-1,-3.839375973E-1,2.669267654E-1
4.044000000E0,-5.378965139E-1,-3.983186781E-1,2.259140909E-1
4.046000000E0,-5.794417858E-1,-4.212218225E-1,1.849014461E-1
4.048000000E0,-6.145954728E-1,-4.473207891E-1,1.508130133E-1
4.050000000E0,-6.412270665E-1,-4.835397601E-1,1.156593189E-1
4.052000000E0,-6.667933464E-1,-5.154976249E-1,7.997298986E-2
4.054000000E0,-6.907618046E-1,-5.549123883E-1,4.801509157E-2
4.056000000E0,-7.035449743E-1,-5.959250331E-1,1.658981480E-2
4.058000000E0,-7.189912796E-1,-6.396008730E-1,-1.590072364E-2
4.060000000E0,-7.291113138E-1,-6.811461449E-1,-4.626073316E-2
4.062000000E0,-7.349702120E-1,-7.232240438E-1,-7.289232314E-2
4.064000000E0,-7.429597378E-1,-7.711609006E-1,-9.313233197E-2
4.066000000E0,-7.402965426E-1,-8.095104098E-1,-1.149702370E-1
4.068000000E0,-7.344375849E-1,-8.537188172E-1,-1.325470805E-1
4.070000000E0,-7.205891609E-1,-9.048514962E-1,-1.389386654E-1
4.072000000E0,-7.062081099E-1,-9.602451921E-1,-1.437323540E-1
4.074000000E0,-6.859681010E-1,-1.009247303E0,-1.479934007E-1
4.076000000E0,-6.673260331E-1,-1.051325321E0,-1.506565660E-1
4.078000000E0,-6.390964985E-1,-1.093403220E0,-1.527870893E-1
4.080000000E0,-6.060733795E-1,-1.130154729E0,-1.570481360E-1
4.082000000E0,-5.757133365E-1,-1.159982204E0,-1.581134051E-1
4.084000000E0,-5.378965139E-1,-1.179156899E0,-1.597113013E-1
4.086000000E0,-5.016775131E-1,-1.198864222E0,-1.597113013E-1
4.088000000E0,-4.564038217E-1,-1.208451629E0,-1.618418247E-1
4.090000000E0,-4.196522236E-1,-1.213777900E0,-1.570481360E-1
4.092000000E0,-3.754437864E-1,-1.204190612E0,-1.543849856E-1
4.094000000E0,-3.328332603E-1,-1.194603205E0,-1.495912969E-1
4.096000000E0,-2.944837809E-1,-1.171167374E0,-1.405365616E-1
4.098000000E0,-2.582648098E-1,-1.138676882E0,-1.384060234E-1
4.100000000E0,-2.231111228E-1,-1.101925254E0,-1.272207648E-1
4.102000000E0,-1.874247938E-1,-1.059847355E0,-1.197639182E-1
4.104000000E0,-1.554668993E-1,-1.011910558E0,-1.043175980E-1
4.106000000E0,-1.229763478E-1,-9.639735818E-1,-8.940391243E-2
4.108000000E0,-9.634476155E-2,-9.181672931E-1,-7.768601179E-2
4.110000000E0,-6.864791363E-2,-8.739588261E-1,-6.117441878E-2
4.112000000E0,-4.521211237E-2,-8.308156729E-1,-5.052178726E-2
4.114000000E0,-2.337421291E-2,-7.977924943E-1,-3.294493631E-2
4.116000000E0,-6.329995580E-3,-7.711609006E-1,-1.909651235E-2
4.118000000E0,1.071422081E-2,-7.546493411E-1,-3.650192171E-3
4.120000000E0,2.616054192E-2,-7.413335443E-1,1.499191951E-2
4.122000000E0,3.734581172E-2,-7.370724678E-1,3.203613684E-2
4.124000000E0,4.693318158E-2,-7.381377220E-1,5.227614567E-2
