"Time (s)","Gyroscope x (rad/s)","Gyroscope y (rad/s)","Gyroscope z (rad/s)"
0.000000000E0,-8.344341815E-2,-1.078113243E-1,-3.226416558E-2
2.503073000E-3,-8.131288737E-2,-1.056808010E-1,-2.906837873E-2
5.006146000E-3,-7.811710238E-2,-9.396289289E-2,-2.054627053E-2
7.509219000E-3,-7.172551751E-2,-8.331026137E-2,-1.308942493E-2
1.001229200E-2,-6.959499419E-2,-8.224499971E-2,-1.202416141E-2
1.251531300E-2,-6.746446341E-2,-8.331026137E-2,-1.521995198E-2
1.501838600E-2,-6.426867098E-2,-8.011447638E-2,-1.628521644E-2
1.752145800E-2,-6.426867098E-2,-7.478815317E-2,-1.735047996E-2
2.002453100E-2,-6.213814765E-2,-6.839657575E-2,-1.628521644E-2
2.251640600E-2,-5.894235894E-2,-6.307025999E-2,-2.054627053E-2
2.501947900E-2,-5.681183189E-2,-6.093973294E-2,-1.948100701E-2
2.752255200E-2,-4.935498908E-2,-5.880920589E-2,-2.161153406E-2
3.002562500E-2,-4.296340793E-2,-5.667867884E-2,-2.267679758E-2
3.252869800E-2,-3.976761550E-2,-4.922183231E-2,-2.267679758E-2
3.503177100E-2,-3.444129974E-2,-4.176498950E-2,-3.013364226E-2
3.753484400E-2,-2.698445693E-2,-3.324288130E-2,-3.226416558E-2
4.003786500E-2,-2.272340283E-2,-2.791656181E-2,-3.652521968E-2
4.254093800E-2,-1.633182168E-2,-2.365550771E-2,-3.972101212E-2
4.504401100E-2,-1.313603111E-2,-1.832919009E-2,-4.504732788E-2
4.754708300E-2,-8.874977008E-3,-1.619866304E-2,-5.037364736E-2
5.005010400E-2,-6.744449958E-3,-1.513339952E-2,-5.463469774E-2
5.256630200E-2,-2.483395394E-3,-1.619866304E-2,-6.422206759E-2
5.506932300E-2,-3.528683446E-4,-1.513339952E-2,-6.741786003E-2
5.757239600E-2,-1.418131869E-3,-1.406813599E-2,-7.061365247E-2
6.007546900E-2,-2.483395394E-3,-1.406813599E-2,-7.487470657E-2
6.257854200E-2,-2.483395394E-3,-5.546028726E-3,-7.593997568E-2
6.508161500E-2,-3.528683446E-4,1.910816412E-3,-7.593997568E-2
6.758468800E-2,7.123951800E-4,6.171870511E-3,-7.913576066E-2
7.008770800E-2,2.842921996E-3,1.256345212E-2,-7.913576066E-2
7.259078100E-2,4.973448813E-3,1.895503327E-2,-8.020102233E-2
7.509385400E-2,4.973448813E-3,2.534661256E-2,-7.913576066E-2
7.759692700E-2,8.169239387E-3,3.599924594E-2,-7.380944490E-2
8.010000000E-2,8.169239387E-3,4.132556543E-2,-7.061365247E-2
8.260192700E-2,8.169239387E-3,4.345609248E-2,-6.741786003E-2
8.510494800E-2,9.234502912E-3,4.878240824E-2,-5.996102095E-2
8.760802100E-2,7.103975862E-3,4.878240824E-2,-5.250417441E-2
9.011109400E-2,3.908185288E-3,4.452135414E-2,-4.930838197E-2
9.261416700E-2,7.123951800E-4,4.132556543E-2,-3.972101212E-2
9.511724000E-2,-1.418131869E-3,4.026029631E-2,-3.439469635E-2
9.762031300E-2,-4.613922443E-3,3.706450760E-2,-2.906837873E-2
1.001233330E-1,-1.633182168E-2,3.173819184E-2,-2.480732463E-2
1.026264060E-1,-2.272340283E-2,2.641187608E-2,-1.841574349E-2
1.051294790E-1,-2.698445693E-2,2.321608737E-2,-1.202416141E-2
1.076325520E-1,-3.444129974E-2,2.108556032E-2,-5.632580724E-3
1.101356250E-1,-4.083288088E-2,1.575924270E-2,-5.632580724E-3
1.126375000E-1,-5.148551613E-2,1.469397917E-2,-1.371526509E-3
1.151405210E-1,-6.000762433E-2,1.256345212E-2,2.889527474E-3
1.176435940E-1,-6.533394009E-2,8.302398026E-3,2.889527474E-3
1.201466670E-1,-6.959499419E-2,2.976079006E-3,6.085318048E-3
1.226497400E-1,-7.918236405E-2,8.455526549E-4,8.215845563E-3
1.251528130E-1,-8.557394147E-2,-2.350237919E-3,7.150581572E-3
1.276558860E-1,-8.983499557E-2,-6.611291785E-3,8.215845563E-3
1.301589060E-1,-9.090025723E-2,-1.300287247E-2,7.150581572E-3
1.326619790E-1,-9.303078800E-2,-2.045971714E-2,6.085318048E-3
1.351650520E-1,-9.196551889E-2,-1.939445361E-2,5.020053592E-3
1.376681250E-1,-8.557394147E-2,-1.832919009E-2,2.889527474E-3
1.401711980E-1,-7.705183327E-2,-1.832919009E-2,2.889527474E-3
1.426685420E-1,-7.385604829E-2,-1.832919009E-2,1.824264065E-3
1.451715630E-1,-6.533394009E-2,-1.300287247E-2,7.590005407E-4
1.476746360E-1,-5.574657023E-2,-8.741818368E-3,1.824264065E-3
1.501777080E-1,-4.722445831E-2,-1.284974394E-3,3.954790998E-3
1.526807290E-1,-4.189814255E-2,6.171870511E-3,7.590005407E-4
1.551838540E-1,-2.804972045E-2,1.362871565E-2,-3.062629839E-4
1.576869270E-1,-1.846234873E-2,1.895503327E-2,-1.371526509E-3
1.601899480E-1,-8.874977008E-3,2.534661256E-2,-3.062629839E-4
1.626930210E-1,2.842921996E-3,3.280345351E-2,-3.502053674E-3
1.651960940E-1,8.169239387E-3,4.132556543E-2,-5.632580724E-3
1.676991670E-1,1.988713630E-2,4.878240824E-2,-4.567317199E-3
1.702022400E-1,2.521345578E-2,5.517398566E-2,-6.697844248E-3
1.727095830E-1,3.160503879E-2,6.263083965E-2,-4.567317199E-3
1.752126040E-1,3.480082750E-2,7.008767873E-2,-4.567317199E-3
1.777156770E-1,3.906188160E-2,7.647926360E-2,1.824264065E-3
1.802187500E-1,4.012714699E-2,8.393610269E-2,5.020053592E-3
1.827218230E-1,3.906188160E-2,8.713190258E-2,6.085318048E-3
1.852248960E-1,3.799661994E-2,8.713190258E-2,1.247689780E-2
1.877279690E-1,3.373556584E-2,8.713190258E-2,1.354216319E-2
1.902309900E-1,2.947450988E-2,8.074031770E-2,1.141163614E-2
1.927340630E-1,2.734398097E-2,7.328347117E-2,1.247689780E-2
1.952371360E-1,2.201766521E-2,6.689189374E-2,1.247689780E-2
1.977402080E-1,1.775661111E-2,6.263083965E-2,1.673795283E-2
2.002432810E-1,1.136502996E-2,5.730451271E-2,1.886847988E-2
2.027665630E-1,3.908185288E-3,4.558661953E-2,1.993374154E-2
2.052696360E-1,7.123951800E-4,3.599924594E-2,2.099900506E-2
2.077727080E-1,-5.679186434E-3,2.854240686E-2,2.526005916E-2
2.102757810E-1,-9.940239601E-3,2.321608737E-2,2.632532455E-2
2.127788540E-1,-1.207076758E-2,1.682450622E-2,2.206427045E-2
2.152819270E-1,-1.420129463E-2,1.682450622E-2,2.206427045E-2
2.177849480E-1,-2.059287578E-2,1.575924270E-2,2.952111326E-2
2.202880210E-1,-2.378866635E-2,1.575924270E-2,2.845585160E-2
2.227910940E-1,-3.231077269E-2,1.469397917E-2,2.845585160E-2
2.252941670E-1,-3.976761550E-2,7.237134036E-3,2.845585160E-2
2.277972400E-1,-4.828972742E-2,7.237134036E-3,2.632532455E-2
2.303002610E-1,-5.787709728E-2,6.171870511E-3,2.206427045E-2
2.328054690E-1,-6.426867098E-2,8.455526549E-4,2.099900506E-2
2.353085420E-1,-6.746446341E-2,1.910816412E-3,1.886847988E-2
2.378116150E-1,-7.066025585E-2,2.976079006E-3,1.460742671E-2
2.403146880E-1,-7.385604829E-2,6.171870511E-3,1.141163614E-2
2.428177080E-1,-7.385604829E-2,8.302398026E-3,1.034637261E-2
2.453208330E-1,-7.598657161E-2,1.575924270E-2,6.085318048E-3
2.478239060E-1,-7.492130995E-2,2.747714147E-2,6.085318048E-3
2.503269270E-1,-7.385604829E-2,3.706450760E-2,1.034637261E-2
2.528300000E-1,-6.959499419E-2,4.878240824E-2,1.247689780E-2
2.553330730E-1,-6.639920175E-2,6.902241707E-2,1.247689780E-2
2.578361460E-1,-5.787709728E-2,8.606663346E-2,1.247689780E-2
2.603392190E-1,-4.935498908E-2,1.063066423E-1,1.354216319E-2
2.628039060E-1,-4.509393498E-2,1.308076978E-1,1.567268930E-2
2.653069790E-1,-3.976761550E-2,1.542434990E-1,1.780321635E-2
2.678100520E-1,-3.124551103E-2,1.830056161E-1,1.567268930E-2
2.703131250E-1,-2.591919340E-2,2.138982415E-1,1.780321635E-2
2.728161980E-1,-1.846234873E-2,2.437256277E-1,1.567268930E-2
2.753192710E-1,-1.207076758E-2,2.778140604E-1,9.281109087E-3
2.778223440E-1,-1.313603111E-2,3.119024932E-1,8.215845563E-3
2.803253650E-1,-6.744449958E-3,3.470561802E-1,3.954790998E-3
2.828284380E-1,-9.940239601E-3,3.811446130E-1,1.824264065E-3
2.853315110E-1,-6.744449958E-3,4.120372534E-1,-6.697844248E-3
2.878345830E-1,-7.809713483E-3,4.397341013E-1,-1.202416141E-2
2.903376560E-1,-6.744449958E-3,4.599741101E-1,-1.841574349E-2
2.928405210E-1,-6.744449958E-3,4.770183265E-1,-2.480732463E-2
2.953435940E-1,-8.874977008E-3,4.876709580E-1,-3.545995802E-2
2.978466670E-1,-6.744449958E-3,4.983236194E-1,-4.398206621E-2
3.003497400E-1,-2.483395394E-3,5.025846362E-1,-5.250417441E-2
3.028528130E-1,-2.483395394E-3,5.025846362E-1,-5.996102095E-2
3.053558860E-1,-1.418131869E-3,5.111067295E-1,-6.635259837E-2
3.078589060E-1,2.842921996E-3,5.153678060E-1,-7.487470657E-2
3.103619790E-1,1.029976644E-2,5.174983740E-1,-8.020102233E-2
3.128650520E-1,1.562608406E-2,5.260204673E-1,-8.126629144E-2
3.153681250E-1,2.095240168E-2,5.260204673E-1,-8.020102233E-2
3.178711980E-1,2.627871931E-2,5.281509757E-1,-8.126629144E-2
3.203742710E-1,2.734398097E-2,5.270856619E-1,-7.593997568E-2
3.228745310E-1,2.414819226E-2,5.217593908E-1,-7.274418324E-2
3.253775520E-1,8.169239387E-3,5.174983740E-1,-6.954838336E-2
3.278806250E-1,-6.744449958E-3,4.983236194E-1,-6.848312914E-2
3.303836980E-1,-1.952761225E-2,4.610393643E-1,-7.487470657E-2
3.328867710E-1,-2.591919340E-2,4.173635840E-1,-7.700523734E-2
3.353898440E-1,-3.337603435E-2,3.800793290E-1,-8.552734554E-2
3.378929170E-1,-3.976761550E-2,3.502519727E-1,-9.191892296E-2
3.403959380E-1,-4.722445831E-2,3.310772479E-1,-9.298418462E-2
3.428990110E-1,-4.935498908E-2,3.236203790E-1,-9.511471540E-2
3.454020830E-1,-5.042025447E-2,3.225550950E-1,-9.191892296E-2
3.479051560E-1,-5.042025447E-2,3.257509172E-1,-9.085366130E-2
3.504082290E-1,-4.509393498E-2,3.364035487E-1,-8.872313052E-2
3.529136460E-1,-3.763708845E-2,3.459908962E-1,-7.913576066E-2
3.554167190E-1,-2.485392801E-2,3.598393500E-1,-7.700523734E-2
3.579197920E-1,-9.940239601E-3,3.843403757E-1,-7.274418324E-2
3.604228650E-1,6.038712338E-3,4.120372534E-1,-6.848312914E-2
3.629259380E-1,1.882187463E-2,4.471909404E-1,-6.848312914E-2
3.654290110E-1,4.332293943E-2,4.855404198E-1,-7.167891413E-2
3.679320830E-1,6.888926774E-2,5.302814841E-1,-6.954838336E-2
3.704351040E-1,9.445559233E-2,5.771530867E-1,-7.807049900E-2
3.729381770E-1,1.189566478E-1,6.304162741E-1,-8.552734554E-2
3.754412500E-1,1.477187574E-1,6.900710464E-1,-9.404944628E-2
3.779443230E-1,1.754156053E-1,7.507910728E-1,-1.036368236E-1
3.804473960E-1,2.073735148E-1,8.168373704E-1,-1.174852476E-1
3.829895830E-1,2.425272018E-1,8.914058208E-1,-1.345294714E-1
3.854926040E-1,2.723545730E-1,9.691700339E-1,-1.526389420E-1
3.879956770E-1,3.075082600E-1,1.046934366E0,-1.782052517E-1
3.904987500E-1,3.415967226E-1,1.128959656E0,-2.016410828E-1
3.930018230E-1,3.746198714E-1,1.217376590E0,-2.272073925E-1
3.955048960E-1,4.119041264E-1,1.307923913E0,-2.602305412E-1
3.980079170E-1,4.449272752E-1,1.395275474E0,-2.932537198E-1
4.005109900E-1,4.768851995E-1,1.483692408E0,-3.305379450E-1
4.030140630E-1,5.162999630E-1,1.569978714E0,-3.678221405E-1
4.055171360E-1,5.503883958E-1,1.653069377E0,-4.072369039E-1
4.080202080E-1,5.802158117E-1,1.734029293E0,-4.466516376E-1
4.105232810E-1,6.089778543E-1,1.811793566E0,-4.892622232E-1
4.129972920E-1,6.420010924E-1,1.890623093E0,-5.254811645E-1
4.155003650E-1,6.696978807E-1,1.965191483E0,-5.648959279E-1
4.180034380E-1,6.973947287E-1,2.037629604E0,-6.032453775E-1
4.205065110E-1,7.240263224E-1,2.109002352E0,-6.437254548E-1
4.230095830E-1,7.463968992E-1,2.181440115E0,-6.810097098E-1
4.255126040E-1,7.666368484E-1,2.254943132E0,-7.150981426E-1
4.280157290E-1,7.868769169E-1,2.324185371E0,-7.513170838E-1
4.305187500E-1,8.092474341E-1,2.398753881E0,-7.843402624E-1
4.330218230E-1,8.348137736E-1,2.471191645E0,-8.184286952E-1
4.355248960E-1,8.582495451E-1,2.542564631E0,-8.450602293E-1
4.380279690E-1,8.816853166E-1,2.619263649E0,-8.812792301E-1
4.405310420E-1,9.104474783E-1,2.693831921E0,-9.185634851E-1
4.430347920E-1,9.370790720E-1,2.770530939E0,-9.505213499E-1
4.455378650E-1,9.605148435E-1,2.846164703E0,-9.846097827E-1
4.480409380E-1,9.850159287E-1,2.928189754E0,-1.016567707E0
4.505440110E-1,1.010582089E0,3.004888773E0,-1.040003538E0
4.530470830E-1,1.028691530E0,3.070935249E0,-1.066635132E0
4.555501560E-1,1.043605208E0,3.135916233E0,-1.087940335E0
4.580532290E-1,1.057453632E0,3.188114166E0,-1.102854013E0
4.605562500E-1,1.064910531E0,3.232855082E0,-1.113506675E0
4.630593230E-1,1.059584260E0,3.268008947E0,-1.123093963E0
4.655623960E-1,1.056388497E0,3.291444778E0,-1.130550861E0
4.680654690E-1,1.045735717E0,3.304227829E0,-1.140138268E0
4.705685420E-1,1.031887412E0,3.304227829E0,-1.143334031E0
4.730874480E-1,1.009516835E0,3.289314032E0,-1.144399285E0
4.755905210E-1,9.796895981E-1,3.266943693E0,-1.147595048E0
4.780935940E-1,9.477316737E-1,3.231789827E0,-1.147595048E0
4.805966670E-1,9.104474783E-1,3.194505692E0,-1.147595048E0
4.830997400E-1,8.710326552E-1,3.144438267E0,-1.146529794E0
4.856028130E-1,8.252263665E-1,3.092240334E0,-1.139073014E0
4.881058860E-1,7.762242556E-1,3.035781384E0,-1.131616235E0
4.906089060E-1,7.304179668E-1,2.971865654E0,-1.125224590E0
4.931119790E-1,6.782199740E-1,2.913276196E0,-1.113506675E0
4.956150520E-1,6.260221004E-1,2.855751753E0,-1.097527742E0
4.981181250E-1,5.759547353E-1,2.798227549E0,-1.082613945E0
5.006211980E-1,5.301483870E-1,2.742834091E0,-1.067700267E0
5.031912500E-1,4.864725769E-1,2.693831921E0,-1.050656080E0
5.056943230E-1,4.481230676E-1,2.645895243E0,-1.029350758E0
5.081973960E-1,4.161651731E-1,2.600088835E0,-1.008045554E0
5.107004690E-1,3.863377571E-1,2.551086426E0,-9.835444689E-1
5.132035420E-1,3.586409390E-1,2.506345510E0,-9.590434432E-1
5.157066150E-1,3.362703919E-1,2.461604357E0,-9.345424175E-1
5.182096360E-1,3.245524764E-1,2.400884390E0,-8.993887305E-1
5.207127080E-1,3.330746293E-1,2.323120117E0,-8.503865600E-1
5.232157810E-1,3.533146083E-1,2.237899065E0,-7.886012793E-1
5.257188540E-1,3.842072487E-1,2.154808521E0,-7.182938457E-1
5.282219270E-1,4.055125117E-1,2.085566521E0,-6.543781161E-1
5.307250000E-1,4.236220121E-1,2.022715807E0,-5.915275216E-1
5.331584380E-1,4.427967668E-1,1.955604076E0,-5.382643938E-1
5.356615110E-1,4.555799365E-1,1.875709295E0,-4.903274775E-1
5.381645830E-1,4.672978222E-1,1.796879888E0,-4.466516376E-1
5.406677080E-1,4.747546315E-1,1.714854598E0,-4.125632346E-1
5.431707290E-1,4.811462462E-1,1.630698681E0,-3.880621791E-1
5.456738020E-1,4.832767546E-1,1.548673511E0,-3.656916320E-1
5.481768750E-1,4.768851995E-1,1.473039746E0,-3.465168774E-1
5.506798960E-1,4.704935849E-1,1.399536610E0,-3.294726610E-1
5.531829690E-1,4.630367458E-1,1.337751389E0,-3.134937286E-1
5.556860420E-1,4.491883218E-1,1.281292319E0,-2.996453047E-1
5.581891150E-1,4.342746139E-1,1.231225014E0,-2.815358043E-1
5.606921880E-1,4.182956815E-1,1.186483860E0,-2.676873803E-1
5.632274480E-1,3.980557024E-1,1.146003842E0,-2.527737021E-1
5.657305210E-1,3.810114861E-1,1.114045978E0,-2.389253080E-1
5.682335940E-1,3.597061932E-1,1.081022859E0,-2.282726467E-1
5.707366670E-1,3.394661844E-1,1.055456400E0,-2.186852694E-1
5.732397400E-1,3.266830146E-1,1.035216451E0,-2.101631761E-1
5.757428130E-1,3.117693365E-1,1.019237518E0,-2.080326378E-1
5.782458860E-1,3.043124974E-1,1.007519603E0,-2.027063370E-1
5.807489060E-1,3.000514507E-1,1.005389094E0,-2.005757987E-1
5.832519790E-1,2.936598659E-1,1.013911128E0,-1.984452605E-1
5.857550520E-1,2.989861667E-1,1.018172264E0,-2.016410828E-1
5.882581250E-1,3.107040823E-1,1.025629163E0,-2.005757987E-1
5.907611980E-1,3.213567138E-1,1.041607976E0,-2.080326378E-1
5.932566670E-1,3.384009302E-1,1.061848044E0,-2.165547609E-1
5.957597400E-1,3.575756550E-1,1.078892350E0,-2.218810618E-1
5.982628130E-1,3.831419945E-1,1.100197554E0,-2.335989773E-1
6.007658860E-1,4.097735882E-1,1.122568130E0,-2.442516088E-1
6.032689580E-1,4.417314827E-1,1.144938588E0,-2.591652870E-1
6.057719790E-1,4.726241231E-1,1.168374419E0,-2.719484270E-1
6.082751040E-1,5.120388865E-1,1.193940759E0,-2.836663723E-1
6.107781250E-1,5.471925735E-1,1.215245962E0,-2.964495122E-1
6.132811980E-1,5.844768286E-1,1.231225014E0,-3.102979362E-1
6.157842710E-1,6.206957698E-1,1.254660726E0,-3.220158517E-1
6.182873440E-1,6.515883803E-1,1.271704912E0,-3.294726610E-1
6.207904170E-1,6.835463643E-1,1.283422828E0,-3.358642757E-1
6.232479170E-1,7.112432122E-1,1.289814472E0,-3.443863690E-1
6.257509380E-1,7.336137295E-1,1.294075608E0,-3.518432081E-1
6.282540110E-1,7.527884841E-1,1.291944981E0,-3.518432081E-1
6.307570830E-1,7.623758316E-1,1.281292319E0,-3.529084921E-1
6.332601560E-1,7.730284929E-1,1.268509150E0,-3.497126997E-1
6.357632290E-1,7.815505862E-1,1.250399709E0,-3.465168774E-1
6.382663020E-1,7.783547640E-1,1.225898623E0,-3.401253223E-1
6.407693230E-1,7.708979249E-1,1.197136521E0,-3.316032290E-1
6.432723960E-1,7.581147552E-1,1.164113402E0,-3.198852837E-1
6.457754690E-1,7.432010770E-1,1.135351181E0,-3.124284744E-1
6.482785420E-1,7.261568904E-1,1.103393316E0,-2.996453047E-1
6.507816150E-1,7.037863731E-1,1.065043807E0,-2.836663723E-1
6.532979690E-1,6.792852879E-1,1.027759671E0,-2.730137110E-1
6.558010420E-1,6.515883803E-1,9.926058650E-1,-2.602305412E-1
6.583041150E-1,6.238915920E-1,9.542564154E-1,-2.474474013E-1
6.608071880E-1,5.940641761E-1,9.169721603E-1,-2.367947698E-1
6.633102610E-1,5.546494722E-1,8.743616343E-1,-2.325337231E-1
6.658133330E-1,4.992556870E-1,8.200331926E-1,-2.346642315E-1
6.683164060E-1,4.193609655E-1,7.390731573E-1,-2.474474013E-1
6.708194270E-1,3.075082600E-1,6.304162741E-1,-2.719484270E-1
6.733225000E-1,1.743503362E-1,5.281509757E-1,-2.985800207E-1
6.758255730E-1,5.397557095E-2,4.610393643E-1,-3.230811059E-1
6.783286460E-1,-2.804972045E-2,4.386688471E-1,-3.390600383E-1
6.808317190E-1,-6.533394009E-2,4.439951777E-1,-3.593000472E-1
6.833610420E-1,-5.681183189E-2,4.642351568E-1,-3.827358484E-1
6.858641150E-1,-1.952761225E-2,4.748878181E-1,-4.083021581E-1
6.883671360E-1,4.012714699E-2,4.695614874E-1,-4.338684976E-1
6.908702080E-1,1.093692780E-1,4.546477795E-1,-4.551737905E-1
6.933732810E-1,1.828724593E-1,4.365383387E-1,-4.594348371E-1
6.958763540E-1,2.467882633E-1,4.194940925E-1,-4.445211291E-1
6.983794270E-1,2.957903743E-1,4.120372534E-1,-4.157590270E-1
7.008825000E-1,3.341398537E-1,4.077762067E-1,-3.752790093E-1
7.033855730E-1,3.650324941E-1,3.971235752E-1,-3.252116144E-1
7.058885940E-1,3.937946260E-1,3.768835664E-1,-2.772747576E-1
7.083916670E-1,4.204262197E-1,3.470561802E-1,-2.229463458E-1
7.108947400E-1,4.523841143E-1,3.076414466E-1,-1.707484424E-1
7.133638020E-1,4.886030853E-1,2.607698441E-1,-1.238768250E-1
7.158668230E-1,5.280178785E-1,2.149635255E-1,-8.126629144E-2
7.183698960E-1,5.631715655E-1,1.734182388E-1,-4.824312031E-2
7.208729690E-1,5.876726508E-1,1.403950751E-1,-2.267679758E-2
7.233760420E-1,6.036515832E-1,1.169592738E-1,-5.632580724E-3
7.258791150E-1,6.111084223E-1,1.020455882E-1,3.954790998E-3
7.283821880E-1,6.079126000E-1,9.778453410E-2,3.954790998E-3
7.308852080E-1,5.993905067E-1,9.565401077E-2,7.590005407E-4
7.333882810E-1,5.866073370E-1,1.020455882E-1,1.824264065E-3
7.358913540E-1,5.684978962E-1,1.105676964E-1,1.824264065E-3
7.383944270E-1,5.514536500E-1,1.180245355E-1,-5.632580724E-3
7.408975000E-1,5.322788954E-1,1.265466362E-1,-1.415468846E-2
7.434096360E-1,5.099083781E-1,1.382645518E-1,-2.161153406E-2
7.459126560E-1,4.907336235E-1,1.489171833E-1,-3.545995802E-2
7.484157810E-1,4.715588689E-1,1.627656072E-1,-5.356943607E-2
7.509188020E-1,4.481230676E-1,1.798098236E-1,-7.487470657E-2
7.534218750E-1,4.246872663E-1,2.000498325E-1,-1.004410312E-1
7.559249480E-1,3.969904184E-1,2.160287946E-1,-1.313336790E-1
7.584280210E-1,3.618367314E-1,2.309424728E-1,-1.579652727E-1
7.609310940E-1,3.288135827E-1,2.458561510E-1,-1.856621206E-1
7.634341150E-1,3.011167049E-1,2.618350983E-1,-2.154894769E-1
7.659371880E-1,2.723545730E-1,2.778140604E-1,-2.442516088E-1
7.684402610E-1,2.531798482E-1,2.991193235E-1,-2.730137110E-1
7.709433330E-1,2.308093160E-1,3.182940483E-1,-2.996453047E-1
7.734571360E-1,2.158956081E-1,3.353382945E-1,-3.230811059E-1
7.759602080E-1,2.009819299E-1,3.513172269E-1,-3.401253223E-1
7.784632810E-1,1.903292984E-1,3.587740660E-1,-3.603653014E-1
7.809663540E-1,1.850029826E-1,3.577088118E-1,-3.795400560E-1
7.834694270E-1,1.754156053E-1,3.566435575E-1,-3.901926875E-1
7.859725000E-1,1.615671813E-1,3.459908962E-1,-4.019106030E-1
7.884755730E-1,1.519798189E-1,3.300119638E-1,-4.114979804E-1
7.909786460E-1,1.360008568E-1,3.129677474E-1,-4.210853279E-1
7.934816670E-1,1.253482252E-1,2.916624844E-1,-4.210853279E-1
7.959847400E-1,1.146955937E-1,2.703571916E-1,-4.168242812E-1
7.984878130E-1,1.072387546E-1,2.447908968E-1,-4.178895354E-1
8.009908330E-1,9.871664643E-2,2.149635255E-1,-4.136284888E-1
8.034657810E-1,9.019453824E-2,1.851361394E-1,-4.093674421E-1
8.059688020E-1,8.699873835E-2,1.563740373E-1,-4.019106030E-1
8.084718750E-1,8.273769170E-2,1.222855896E-1,-3.923232257E-1
8.109749480E-1,7.954189926E-2,8.606663346E-2,-3.795400560E-1
8.134780210E-1,8.699873835E-2,6.156557426E-2,-3.763442934E-1
8.159810940E-1,1.114998013E-1,6.902241707E-2,-3.891274333E-1
8.184841670E-1,1.434577107E-1,7.434873283E-2,-3.976495564E-1
8.209871880E-1,1.807419360E-1,7.434873283E-2,-3.987147808E-1
8.234902610E-1,2.169608921E-1,7.647926360E-2,-3.912579715E-1
8.259933330E-1,2.595714033E-1,7.328347117E-2,-3.827358484E-1
8.284964060E-1,2.947251201E-1,7.221820951E-2,-3.731484711E-1
8.309994790E-1,3.277482986E-1,7.541399449E-2,-3.593000472E-1
8.335293750E-1,3.597061932E-1,7.647926360E-2,-3.422558308E-1
8.360324480E-1,3.905988336E-1,7.647926360E-2,-3.284074068E-1
8.385355210E-1,4.193609655E-1,7.967504859E-2,-3.156242371E-1
8.410385940E-1,4.449272752E-1,8.393610269E-2,-3.071021438E-1
8.435416670E-1,4.726241231E-1,8.713190258E-2,-3.007105589E-1
8.460447400E-1,5.024515390E-1,9.245821834E-2,-2.900579274E-1
8.485478130E-1,5.344094634E-1,9.778453410E-2,-2.868621349E-1
8.510508330E-1,5.599757433E-1,1.073719040E-1,-2.868621349E-1
8.535539060E-1,5.866073370E-1,1.180245355E-1,-2.889926434E-1
8.560569790E-1,6.132389307E-1,1.340034902E-1,-2.879274189E-1
8.585600520E-1,6.345441937E-1,1.542434990E-1,-2.889926434E-1
8.610631250E-1,6.558494568E-1,1.798098236E-1,-2.900579274E-1
8.635702610E-1,6.707631350E-1,2.096371949E-1,-2.964495122E-1
8.660733330E-1,6.856768727E-1,2.469214350E-1,-2.996453047E-1
8.685764060E-1,7.027211189E-1,2.905972302E-1,-3.081673980E-1
8.710794790E-1,7.197653055E-1,3.342730105E-1,-3.156242371E-1
8.735825520E-1,7.346789837E-1,3.736877739E-1,-3.230811059E-1
8.760856250E-1,7.410705686E-1,4.109719694E-1,-3.347989917E-1
8.785886980E-1,7.400052547E-1,4.439951777E-1,-3.433211148E-1
8.810917190E-1,7.421358228E-1,4.780835807E-1,-3.582347929E-1
8.835947920E-1,7.378748059E-1,5.132372975E-1,-3.731484711E-1
8.860978650E-1,7.261568904E-1,5.398688912E-1,-3.880621791E-1
8.886009380E-1,7.069821358E-1,5.611741543E-1,-4.040411115E-1
8.911039580E-1,6.856768727E-1,5.739573240E-1,-4.242811501E-1
8.935562500E-1,6.558494568E-1,5.856752396E-1,-4.391948283E-1
8.960592710E-1,6.260221004E-1,5.910015106E-1,-4.519779682E-1
8.985623440E-1,5.972599983E-1,5.910015106E-1,-4.658263922E-1
9.010654170E-1,5.663673282E-1,5.899362564E-1,-4.796748459E-1
9.035684900E-1,5.280178785E-1,5.824794173E-1,-4.967190325E-1
9.060715630E-1,4.917988479E-1,5.718267560E-1,-5.095022321E-1
9.085746360E-1,4.555799365E-1,5.569130778E-1,-5.212201476E-1
9.110776560E-1,4.236220121E-1,5.334773064E-1,-5.382643938E-1
9.135807290E-1,3.874030411E-1,5.100414753E-1,-5.531780124E-1
9.160838020E-1,3.543798923E-1,4.812793732E-1,-5.648959279E-1
9.185868750E-1,3.245524764E-1,4.514519870E-1,-5.691570044E-1
9.210899480E-1,2.968556583E-1,4.120372534E-1,-5.680916905E-1
9.236121360E-1,2.627672255E-1,3.704919815E-1,-5.627654195E-1
9.261151560E-1,2.318745703E-1,3.417298496E-1,-5.489169955E-1
9.286182290E-1,2.031124532E-1,3.204245865E-1,-5.414600968E-1
9.311213020E-1,1.892640442E-1,3.129677474E-1,-5.393296480E-1
9.336243750E-1,1.786113977E-1,3.204245865E-1,-5.340032578E-1
9.361274480E-1,1.764808595E-1,3.385340869E-1,-5.340032578E-1
9.386305210E-1,1.881987751E-1,3.651656508E-1,-5.371990800E-1
9.411335420E-1,2.031124532E-1,4.035151303E-1,-5.414600968E-1
9.436366150E-1,2.254829854E-1,4.418646097E-1,-5.435906649E-1
9.461396880E-1,2.489188164E-1,4.823446274E-1,-5.542433262E-1
9.486427610E-1,2.691587806E-1,5.270856619E-1,-5.574391484E-1
9.511458330E-1,2.904640734E-1,5.728920102E-1,-5.595695972E-1
9.536799480E-1,3.170956373E-1,6.165678501E-1,-5.563738346E-1
9.561830210E-1,3.415967226E-1,6.591783762E-1,-5.574391484E-1
9.586860940E-1,3.650324941E-1,6.943320632E-1,-5.553085804E-1
9.611891670E-1,3.948598802E-1,7.294857502E-1,-5.542433262E-1
9.636922400E-1,4.385357201E-1,7.710310817E-1,-5.638306737E-1
9.661953130E-1,4.758199155E-1,7.965974212E-1,-5.680916905E-1
9.686983330E-1,5.067125559E-1,8.029889464E-1,-5.574391484E-1
9.712014060E-1,5.461273789E-1,8.253594637E-1,-5.563738346E-1
9.737044790E-1,5.876726508E-1,8.434689641E-1,-5.680916905E-1
9.762075520E-1,6.292178631E-1,8.509258628E-1,-5.680916905E-1
9.787106250E-1,6.750242114E-1,8.669047952E-1,-5.766138434E-1
9.812136980E-1,7.250915766E-1,8.722310662E-1,-5.872664452E-1
9.836778130E-1,7.698326707E-1,8.743616343E-1,-5.968538523E-1
9.861808330E-1,8.039211035E-1,8.786226511E-1,-6.128327847E-1
9.886839060E-1,8.316179514E-1,8.711658120E-1,-6.309422851E-1
9.911869790E-1,8.550537229E-1,8.637089729E-1,-6.522475481E-1
9.936900520E-1,8.667716384E-1,8.509258628E-1,-6.724876165E-1
9.961931250E-1,8.784895539E-1,8.338815570E-1,-6.852707267E-1
9.986961980E-1,8.806200624E-1,8.093805313E-1,-7.033802271E-1
1.001199271E0,8.795548677E-1,7.774226665E-1,-7.225549817E-1
1.003702292E0,8.731632233E-1,7.412036657E-1,-7.406644225E-1
1.006205365E0,8.625105619E-1,7.017889619E-1,-7.566433549E-1
1.008708438E0,8.433358669E-1,6.591783762E-1,-7.694265246E-1
1.011211511E0,8.209652901E-1,6.112415195E-1,-7.790138721E-1
1.013752188E0,8.007253408E-1,5.558478236E-1,-7.832749486E-1
1.016255261E0,7.762242556E-1,4.983236194E-1,-7.843402624E-1
1.018758333E0,7.442663312E-1,4.280161858E-1,-7.800791860E-1
1.021261406E0,7.048515677E-1,3.587740660E-1,-7.715570331E-1
1.023764479E0,6.707631350E-1,2.852708995E-1,-7.630349398E-1
1.026267552E0,6.313484311E-1,2.032456100E-1,-7.502518296E-1
1.028770625E0,5.855420828E-1,1.265466362E-1,-7.417297363E-1
1.031273698E0,5.397357345E-1,6.050030515E-2,-7.395991683E-1
1.033776771E0,4.992556870E-1,-1.284974394E-3,-7.459907532E-1
1.036279844E0,4.641020298E-1,-4.496078193E-2,-7.545128465E-1
1.038782917E0,4.364051819E-1,-7.265762985E-2,-7.651655078E-1
1.041285990E0,4.119041264E-1,-8.224499971E-2,-7.747528553E-1
1.043749271E0,3.820767105E-1,-7.159236819E-2,-7.800791860E-1
1.046252292E0,3.682283163E-1,-8.650605381E-2,-7.917971015E-1
1.048755365E0,3.639672697E-1,-1.024850085E-1,-7.992539406E-1
1.051258438E0,3.629019856E-1,-1.056808010E-1,-8.045802116E-1
1.053761511E0,3.607714474E-1,-1.067460626E-1,-8.109718561E-1
1.056264583E0,3.543798923E-1,-9.396289289E-2,-8.162981272E-1
1.058767656E0,3.352051377E-1,-7.052710652E-2,-8.184286952E-1
1.061270729E0,3.245524764E-1,-6.413552165E-2,-8.205592036E-1
1.063773802E0,3.288135827E-1,-7.265762985E-2,-8.237549663E-1
1.066276875E0,3.405314684E-1,-8.224499971E-2,-8.248202205E-1
1.068779948E0,3.543798923E-1,-8.970184624E-2,-8.280160427E-1
1.071283021E0,3.650324941E-1,-9.396289289E-2,-8.258854747E-1
1.073824636E0,3.735546172E-1,-9.502816200E-2,-8.258854747E-1
1.076327708E0,3.810114861E-1,-9.183236957E-2,-8.237549663E-1
1.078830781E0,3.884683251E-1,-8.650605381E-2,-8.184286952E-1
1.081333854E0,3.948598802E-1,-1.078113243E-1,-8.173633814E-1
1.083836927E0,4.150998890E-1,-1.387039721E-1,-8.109718561E-1
1.086340000E0,4.321441054E-1,-1.674660891E-1,-8.077760339E-1
1.088843073E0,4.406662285E-1,-1.802492440E-1,-8.056454659E-1
1.091346146E0,4.396009445E-1,-1.898366213E-1,-8.024497032E-1
1.093849219E0,4.374704361E-1,-2.058155686E-1,-7.981886268E-1
1.096352292E0,4.396009445E-1,-2.260555774E-1,-7.917971015E-1
1.098855365E0,4.427967668E-1,-2.462955862E-1,-7.896665335E-1
1.101358438E0,4.481230676E-1,-2.601440251E-1,-7.928623557E-1
1.103823542E0,4.491883218E-1,-2.686661482E-1,-7.949928641E-1
1.106326615E0,4.534493685E-1,-2.739924490E-1,-7.981886268E-1
1.108829688E0,4.545146525E-1,-2.782535255E-1,-7.981886268E-1
1.111332761E0,4.523841143E-1,-2.793187499E-1,-8.003191948E-1
1.113835833E0,4.555799365E-1,-2.793187499E-1,-8.035150170E-1
1.116338906E0,4.555799365E-1,-2.814492881E-1,-8.067107201E-1
1.118841979E0,4.534493685E-1,-2.846450806E-1,-8.184286952E-1
1.121345052E0,4.555799365E-1,-2.846450806E-1,-8.333423138E-1
1.123848125E0,4.481230676E-1,-2.878408730E-1,-8.482559919E-1
1.126351198E0,4.427967668E-1,-2.878408730E-1,-8.663654923E-1
1.128854271E0,4.374704361E-1,-2.835797966E-1,-8.876708150E-1
1.131357344E0,4.300135672E-1,-2.707966566E-1,-9.068455696E-1
1.133859479E0,4.204262197E-1,-2.548176944E-1,-9.238897562E-1
1.136362552E0,4.161651731E-1,-2.313818932E-1,-9.409339428E-1
1.138865625E0,4.140346348E-1,-1.983587295E-1,-9.526518583E-1
1.141368698E0,4.182956815E-1,-1.621397585E-1,-9.696961045E-1
1.143871771E0,4.257525206E-1,-1.205944866E-1,-9.878056049E-1
1.146374844E0,4.449272752E-1,-6.520078331E-2,-1.000588655E0
1.148877917E0,4.694283307E-1,-1.300287247E-2,-1.017632961E0
1.151380990E0,4.886030853E-1,4.771714285E-2,-1.028285503E0
1.153884063E0,5.067125559E-1,1.190897971E-1,-1.032546639E0
1.156387136E0,5.365399718E-1,1.755487621E-1,-1.044264555E0
1.158890208E0,5.802158117E-1,2.245509028E-1,-1.054917216E0
1.161393281E0,6.238915920E-1,2.735530138E-1,-1.067700267E0
1.163934271E0,6.590452790E-1,3.268162012E-1,-1.066635132E0
1.166437344E0,6.973947287E-1,3.747530282E-1,-1.059178233E0
1.168940417E0,7.325484157E-1,4.077762067E-1,-1.043199301E0
1.171443490E0,7.772895098E-1,4.237551391E-1,-1.027220368E0
1.173946563E0,8.209652901E-1,4.269509614E-1,-1.009110808E0
1.176449636E0,8.667716384E-1,4.205593467E-1,-9.952624440E-1
1.178952708E0,9.157737494E-1,4.109719694E-1,-9.888707995E-1
1.181455781E0,9.551885128E-1,4.013846219E-1,-9.867402911E-1
1.183958854E0,9.892769456E-1,3.886014521E-1,-9.867402911E-1
1.186461927E0,1.018038988E0,3.704919815E-1,-9.888707995E-1
1.188965000E0,1.036148429E0,3.481214643E-1,-9.888707995E-1
1.191468073E0,1.056388497E0,3.257509172E-1,-9.878056049E-1
1.193970156E0,1.064910531E0,3.001846075E-1,-9.846097827E-1
1.196473229E0,1.072367311E0,2.703571916E-1,-9.792834520E-1
1.198976302E0,1.083020091E0,2.447908968E-1,-9.771529436E-1
1.201479375E0,1.090476871E0,2.138982415E-1,-9.771529436E-1
1.203982448E0,1.100064278E0,1.883319318E-1,-9.792834520E-1
1.206485521E0,1.104325294E0,1.585045606E-1,-9.846097827E-1
1.208988594E0,1.103260040E0,1.276119202E-1,-9.910013080E-1
1.211491667E0,1.101129532E0,9.352348000E-2,-9.952624440E-1
1.213994740E0,1.101129532E0,5.304346234E-2,-1.008045554E0
1.216497813E0,1.095803142E0,9.367661551E-3,-1.013371825E0
1.219000886E0,1.087280989E0,-3.537340835E-2,-1.017632961E0
1.221503958E0,1.075563192E0,-8.544079214E-2,-1.025089741E0
1.224007292E0,1.062780023E0,-1.514871269E-1,-1.030416131E0
1.226510365E0,1.052127361E0,-2.196639925E-1,-1.038938165E0
1.229013438E0,1.037213683E0,-2.782535255E-1,-1.047460318E0
1.231516511E0,1.025495768E0,-3.400388062E-1,-1.055982351E0
1.234019583E0,1.009516835E0,-3.975630105E-1,-1.063439369E0
1.236522656E0,1.000994682E0,-4.508261681E-1,-1.063439369E0
1.239025729E0,9.946032763E-1,-4.987630248E-1,-1.055982351E0
1.241528802E0,9.807548523E-1,-5.498957038E-1,-1.046394944E0
1.244031875E0,9.658411741E-1,-5.988978148E-1,-1.036807775E0
1.246534948E0,9.487969875E-1,-6.510956883E-1,-1.032546639E0
1.249038021E0,9.274916649E-1,-7.075546980E-1,-1.028285503E0
1.251541094E0,8.891421556E-1,-7.480347157E-1,-1.027220368E0
1.254046250E0,8.465316296E-1,-7.757315636E-1,-1.037872910E0
1.256549323E0,8.103126884E-1,-7.927757502E-1,-1.059178233E0
1.259052396E0,7.772895098E-1,-7.938410640E-1,-1.080483556E0
1.261555469E0,7.506579161E-1,-7.789273858E-1,-1.099658132E0
1.264058542E0,7.325484157E-1,-7.490999699E-1,-1.122028828E0
1.266561615E0,7.261568904E-1,-7.096852660E-1,-1.140138268E0
1.269064688E0,7.346789837E-1,-6.660094261E-1,-1.146529794E0
1.271567761E0,7.453316450E-1,-6.148767471E-1,-1.149725556E0
1.274070833E0,7.655716538E-1,-5.680052042E-1,-1.147595048E0
1.276573906E0,7.932684422E-1,-5.243293643E-1,-1.139073014E0
1.279076979E0,8.177695870E-1,-4.827840924E-1,-1.129485607E0
1.281580052E0,8.465316296E-1,-4.486956596E-1,-1.123093963E0
1.284071354E0,8.731632233E-1,-4.178030193E-1,-1.117767692E0
1.286574427E0,8.987295628E-1,-3.996935487E-1,-1.118832946E0
1.289077500E0,9.221653938E-1,-3.890408874E-1,-1.119898200E0
1.291580573E0,9.413400888E-1,-3.858451247E-1,-1.124159336E0
1.294083646E0,9.551885128E-1,-3.869103789E-1,-1.126289725E0
1.296586719E0,9.658411741E-1,-3.901061714E-1,-1.129485607E0
1.299089792E0,9.786242843E-1,-3.933019340E-1,-1.129485607E0
1.301592865E0,9.871464372E-1,-3.954325020E-1,-1.126289725E0
1.304095938E0,9.935380220E-1,-3.996935487E-1,-1.119898200E0
1.306599011E0,9.956685305E-1,-4.007588029E-1,-1.108180285E0
1.309102083E0,1.000994682E0,-3.986282647E-1,-1.095397234E0
1.311605156E0,1.003125310E0,-3.975630105E-1,-1.084744453E0
1.314120104E0,1.002060056E0,-4.007588029E-1,-1.074091911E0
1.316623177E0,9.956685305E-1,-4.071503878E-1,-1.064504504E0
1.319126250E0,9.882116914E-1,-4.135419726E-1,-1.058112860E0
1.321629323E0,9.807548523E-1,-4.156724811E-1,-1.049590826E0
1.324132396E0,9.647759199E-1,-4.209988117E-1,-1.041068673E0
1.326635469E0,9.456011653E-1,-4.284556508E-1,-1.033611894E0
1.329138542E0,9.274916649E-1,-4.401735663E-1,-1.026155114E0
1.331641615E0,9.051211476E-1,-4.518914521E-1,-1.021893978E0
1.334144688E0,8.859463930E-1,-4.678703845E-1,-1.019763470E0
1.336647761E0,8.689022064E-1,-4.923714697E-1,-1.026155114E0
1.339150833E0,8.475968838E-1,-5.200682878E-1,-1.036807775E0
1.341653906E0,8.252263665E-1,-5.456346273E-1,-1.053851962E0
1.344384323E0,8.060516715E-1,-5.584177971E-1,-1.074091911E0
1.346887396E0,7.836810946E-1,-5.797230601E-1,-1.096462369E0
1.349390469E0,7.655716538E-1,-6.287252307E-1,-1.125224590E0
1.351893542E0,7.581147552E-1,-6.798578501E-1,-1.162508726E0
1.354396615E0,7.613105774E-1,-7.214031219E-1,-1.198727727E0
1.356899688E0,7.655716538E-1,-7.672094703E-1,-1.232816100E0
1.359402761E0,7.730284929E-1,-8.012978435E-1,-1.267969847E0
1.361905833E0,7.890074253E-1,-8.289947510E-1,-1.302058339E0
1.364408906E0,8.124431968E-1,-8.673442602E-1,-1.329755068E0
1.366911979E0,8.348137736E-1,-9.323253036E-1,-1.358517289E0
1.369415052E0,8.593147993E-1,-1.019676805E0,-1.376626730E0
1.371918125E0,8.752937913E-1,-1.137921095E0,-1.390475154E0
1.374253177E0,9.019253254E-1,-1.239121079E0,-1.407519341E0
1.376756250E0,9.637106657E-1,-1.284927487E0,-1.428824663E0
1.379259323E0,1.052127361E0,-1.303037047E0,-1.457586765E0
1.381762396E0,1.149066329E0,-1.314754844E0,-1.483153105E0
1.384265469E0,1.254527450E0,-1.320081234E0,-1.510849953E0
1.386768542E0,1.358923197E0,-1.314754844E0,-1.535351038E0
1.389271615E0,1.470775962E0,-1.291319132E0,-1.556656241E0
1.391774688E0,1.590085506E0,-1.240186453E0,-1.576896191E0
1.394277761E0,1.725373983E0,-1.175205350E0,-1.588614225E0
1.396780833E0,1.869184494E0,-1.089984298E0,-1.591809869E0
1.399283906E0,2.020452023E0,-9.941105843E-1,-1.579026818E0
1.401786979E0,2.180241585E0,-8.918452859E-1,-1.553460479E0
1.404244063E0,2.362401724E0,-7.810578942E-1,-1.522567868E0
1.406747136E0,2.550953150E0,-6.745315194E-1,-1.476761460E0
1.409250208E0,2.746961594E0,-5.925062299E-1,-1.427759409E0
1.411753281E0,2.942970276E0,-5.435041189E-1,-1.361712933E0
1.414256354E0,3.114477634E0,-6.010283232E-1,-1.259447694E0
1.416759427E0,3.241243839E0,-7.288599610E-1,-1.139073014E0
1.419262500E0,3.372271538E0,-8.066242337E-1,-1.035742402E0
1.421765573E0,3.528865337E0,-8.684095144E-1,-9.441297650E-1
1.424268646E0,3.713155746E0,-9.536305666E-1,-8.567781448E-1
1.426771719E0,3.901707411E0,-1.042047381E0,-7.768834233E-1
1.429274792E0,4.067888260E0,-1.123007417E0,-7.278812528E-1
1.431777865E0,4.145652771E0,-1.118746400E0,-8.013844490E-1
1.434322031E0,4.144587517E0,-1.098506331E0,-9.111065865E-1
1.436825104E0,4.090259075E0,-1.132594705E0,-9.366728663E-1
1.439328177E0,3.985863209E0,-1.202902198E0,-8.919318914E-1
1.441831250E0,3.852705240E0,-1.304102182E0,-8.131023645E-1
1.444334323E0,3.696111679E0,-1.421281099E0,-7.427949905E-1
1.446837396E0,3.536322117E0,-1.529938102E0,-6.969886422E-1
1.449340469E0,3.378663063E0,-1.609832764E0,-6.724876165E-1
1.451843542E0,3.231656790E0,-1.650312901E0,-6.671612263E-1
1.454346615E0,3.095303059E0,-1.637529612E0,-6.746180654E-1
1.456849688E0,2.979189157E0,-1.575744390E0,-6.863359809E-1
1.459352761E0,2.867336512E0,-1.492653847E0,-6.980538964E-1
1.461855833E0,2.755483866E0,-1.395714879E0,-7.097717524E-1
1.464321302E0,2.650022745E0,-1.296645403E0,-7.161633968E-1
1.466824375E0,2.552018642E0,-1.219946384E0,-7.087064981E-1
1.469327448E0,2.450818300E0,-1.173074841E0,-6.959233880E-1
1.471830521E0,2.348553181E0,-1.154965281E0,-6.831401587E-1
1.474333594E0,2.254810095E0,-1.158161163E0,-6.586391330E-1
1.476836667E0,2.160001516E0,-1.174139977E0,-6.352033615E-1
1.479339740E0,2.068388939E0,-1.199706435E0,-6.224201322E-1
1.481842813E0,1.985298276E0,-1.223142266E0,-6.117675304E-1
1.484345886E0,1.904338121E0,-1.248708487E0,-6.021801829E-1
1.486848958E0,1.830834985E0,-1.264687538E0,-5.989843607E-1
1.489352031E0,1.762658119E0,-1.280666351E0,-5.989843607E-1
1.491855104E0,1.704068661E0,-1.293449640E0,-5.957885981E-1
1.494335052E0,1.650805473E0,-1.306232691E0,-5.936580896E-1
1.496838125E0,1.612455964E0,-1.306232691E0,-5.968538523E-1
1.499341250E0,1.593281269E0,-1.296645403E0,-5.968538523E-1
1.501844271E0,1.583693862E0,-1.271078944E0,-5.957885981E-1
1.504347344E0,1.599672914E0,-1.225272655E0,-5.862011909E-1
1.506850417E0,1.624173880E0,-1.160291672E0,-5.766138434E-1
1.509353490E0,1.659327507E0,-1.077201009E0,-5.670264959E-1
1.511856563E0,1.699807644E0,-9.781315923E-1,-5.585044026E-1
1.514359636E0,1.742418170E0,-8.620178699E-1,-5.478517413E-1
1.516862708E0,1.786093950E0,-7.395125628E-1,-5.382643938E-1
1.519365781E0,1.822312951E0,-6.063546538E-1,-5.265464783E-1
1.521868854E0,1.856401324E0,-4.710662067E-1,-5.244159102E-1
1.524373177E0,1.886228681E0,-3.272556067E-1,-5.350685716E-1
1.526876250E0,1.914990902E0,-1.770534515E-1,-5.638306737E-1
1.529379323E0,1.944818139E0,-1.939445361E-2,-6.085717678E-1
1.531882396E0,1.976776123E0,1.403950751E-1,-6.703570485E-1
1.534385469E0,2.010864735E0,2.895319462E-1,-7.364033461E-1
1.536888542E0,2.049214125E0,4.205593467E-1,-8.067107201E-1
1.539391615E0,2.087563753E0,5.174983740E-1,-8.684960604E-1
1.541894688E0,2.119521618E0,5.686309934E-1,-9.206939340E-1
1.544397761E0,2.151479483E0,5.856752396E-1,-9.579781890E-1
1.546900833E0,2.181306839E0,5.654351711E-1,-9.835444689E-1
1.549403854E0,2.209003687E0,5.132372975E-1,-9.995234609E-1
1.551906979E0,2.232439518E0,4.376035631E-1,-1.016567707E0
1.554397552E0,2.254810095E0,3.438603878E-1,-1.031481385E0
1.556900677E0,2.277180433E0,2.320077270E-1,-1.045329809E0
1.559403698E0,2.296355247E0,1.137634814E-1,-1.058112860E0
1.561906771E0,2.313399553E0,-1.193760894E-2,-1.068765640E0
1.564409844E0,2.331509113E0,-1.387039721E-1,-1.079418182E0
1.566912917E0,2.342161655E0,-2.622745335E-1,-1.084744453E0
1.569415990E0,2.356009960E0,-3.783882856E-1,-1.087940335E0
1.571919063E0,2.365597486E0,-4.902409315E-1,-1.086875081E0
1.574422136E0,2.379445791E0,-5.903757215E-1,-1.089005589E0
1.576925208E0,2.395424843E0,-6.766620278E-1,-1.090070844E0
1.579428281E0,2.412468910E0,-7.501652241E-1,-1.093266726E0
1.581931354E0,2.429513216E0,-8.140810728E-1,-1.093266726E0
1.584430938E0,2.450818300E0,-8.673442602E-1,-1.090070844E0
1.586934011E0,2.471058369E0,-9.067589641E-1,-1.081548810E0
1.589437083E0,2.501951218E0,-9.333905578E-1,-1.066635132E0
1.591940156E0,2.530713081E0,-9.515000582E-1,-1.042134047E0
1.594443229E0,2.558410168E0,-9.706748128E-1,-1.014437199E0
1.596946302E0,2.589302778E0,-9.791969061E-1,-9.867402911E-1
1.599449375E0,2.621260881E0,-9.823927283E-1,-9.537171125E-1
1.601952500E0,2.652153254E0,-9.802621603E-1,-9.217591882E-1
1.604455521E0,2.681980848E0,-9.632179737E-1,-8.951275945E-1
1.606958594E0,2.708612442E0,-9.312599897E-1,-8.642349839E-1
1.609461667E0,2.733113289E0,-8.971715569E-1,-8.493213058E-1
1.611964740E0,2.754418373E0,-8.630831838E-1,-8.301466107E-1
1.614487761E0,2.770397425E0,-8.375168443E-1,-8.109718561E-1
1.616990886E0,2.781049967E0,-8.247337341E-1,-7.854055166E-1
1.619493906E0,2.778919697E0,-8.268641829E-1,-7.545128465E-1
1.621996979E0,2.771462917E0,-8.492347598E-1,-7.289465070E-1
1.624500052E0,2.759744883E0,-8.833231926E-1,-7.055107355E-1
1.627003125E0,2.745896578E0,-9.184768796E-1,-6.788791418E-1
1.629506198E0,2.722460747E0,-9.451084733E-1,-6.554433107E-1
1.632009271E0,2.687306881E0,-9.696094990E-1,-6.341381073E-1
1.634512344E0,2.654283762E0,-9.791969061E-1,-6.053759456E-1
1.637015417E0,2.614869118E0,-9.728053212E-1,-5.766138434E-1
1.639518490E0,2.575454473E0,-9.578915834E-1,-5.478517413E-1
1.642021563E0,2.540300608E0,-9.323253036E-1,-5.180243850E-1
1.644508281E0,2.506212234E0,-8.801273704E-1,-4.977843165E-1
1.647011354E0,2.476384878E0,-8.130158186E-1,-4.828706086E-1
1.649514427E0,2.449753284E0,-7.395125628E-1,-4.690221846E-1
1.652017500E0,2.426317453E0,-6.638789177E-1,-4.583695829E-1
1.654520573E0,2.408208132E0,-5.861146450E-1,-4.445211291E-1
1.657023646E0,2.392229080E0,-5.104809403E-1,-4.232158661E-1
1.659526719E0,2.384772301E0,-4.348472357E-1,-4.008453488E-1
1.662029792E0,2.382641554E0,-3.634745777E-1,-3.752790093E-1
1.664532865E0,2.381576538E0,-2.899714112E-1,-3.497126997E-1
1.667035938E0,2.389033318E0,-2.154029459E-1,-3.230811059E-1
1.669539011E0,2.398620605E0,-1.397692263E-1,-2.943189740E-1
1.672042083E0,2.410338402E0,-6.946183741E-2,-2.676873803E-1
1.674535469E0,2.423121691E0,-1.193760894E-2,-2.389253080E-1
1.677038542E0,2.442296505E0,2.321608737E-2,-2.048368454E-1
1.679541563E0,2.452949047E0,3.599924594E-2,-1.728789508E-1
1.682044636E0,2.452949047E0,3.067292832E-2,-1.355947256E-1
1.684547708E0,2.454014301E0,1.469397917E-2,-9.724523872E-2
1.687050781E0,2.442296505E0,-8.741818368E-3,-6.528733671E-2
1.689553854E0,2.423121691E0,-3.537340835E-2,-3.439469635E-2
1.692056927E0,2.398620605E0,-5.454815552E-2,-2.436790615E-3
1.694560000E0,2.364532232E0,-7.159236819E-2,2.419479750E-2
1.697063073E0,2.316595316E0,-8.437552303E-2,5.721797049E-2
1.699566146E0,2.261201620E0,-8.757131547E-2,9.343692660E-2
1.702069219E0,2.200481415E0,-7.052710652E-2,1.232643053E-1
1.704551458E0,2.132304668E0,-4.496078193E-2,1.520264149E-1
1.707054479E0,2.054540634E0,-4.480765201E-3,1.775927544E-1
1.709557604E0,1.973580360E0,4.771714285E-2,2.052896023E-1
1.712060625E0,1.893685579E0,1.201550663E-1,2.319211960E-1
1.714563698E0,1.809529662E0,2.085719407E-1,2.606832981E-1
1.717066771E0,1.727504373E0,3.097719550E-1,2.862496376E-1
1.719569844E0,1.644413829E0,4.237551391E-1,3.139464855E-1
1.722072917E0,1.555997014E0,5.462604165E-1,3.405780494E-1
1.724575990E0,1.473971725E0,6.687657237E-1,3.682749271E-1
1.727079063E0,1.394076943E0,7.891405821E-1,3.959717751E-1
1.729582136E0,1.312051654E0,9.137763381E-1,4.226033390E-1
1.732085208E0,1.232156873E0,1.027759671E0,4.503002167E-1
1.734627969E0,1.162914872E0,1.123633265E0,4.748012722E-1
1.737131042E0,1.092607498E0,1.205658674E0,4.961065352E-1
1.739634115E0,1.030822158E0,1.269574404E0,5.131506920E-1
1.742137188E0,9.775590301E-1,1.312184930E0,5.269991755E-1
1.744640313E0,9.221653938E-1,1.336686015E0,5.387170911E-1
1.747143333E0,8.731632233E-1,1.345208168E0,5.515002012E-1
1.749646406E0,8.305526972E-1,1.342012286E0,5.536307693E-1
1.752149479E0,7.943336964E-1,1.324968100E0,5.578917861E-1
1.754652552E0,7.591800094E-1,1.290879726E0,5.536307693E-1
1.757155625E0,7.304179668E-1,1.253595471E0,5.515002012E-1
1.759658698E0,7.037863731E-1,1.210984945E0,5.483043790E-1
1.762161771E0,6.728937030E-1,1.165178537E0,5.472391844E-1
1.764674688E0,6.441315413E-1,1.117241859E0,5.472391844E-1
1.767177761E0,6.164346933E-1,1.078892350E0,5.461739302E-1
1.769680833E0,5.898031592E-1,1.044803858E0,5.365865231E-1
1.772183906E0,5.621063113E-1,1.024563789E0,5.238033533E-1
1.774686979E0,5.344094634E-1,1.006454349E0,5.067591667E-1
1.777190052E0,5.045820475E-1,9.926058650E-1,4.865191579E-1
1.779693125E0,4.704935849E-1,9.819532633E-1,4.652138948E-1
1.782196198E0,4.364051819E-1,9.723658562E-1,4.417780936E-1
1.784699271E0,4.065777957E-1,9.681047797E-1,4.151464999E-1
1.787202344E0,3.724893630E-1,9.681047797E-1,3.917107284E-1
1.789705417E0,3.437272310E-1,9.702353477E-1,3.661443889E-1
1.792208490E0,3.149651289E-1,9.744963646E-1,3.437738419E-1
1.794661719E0,2.830072343E-1,9.755616188E-1,3.203380704E-1
1.797164740E0,2.595714033E-1,9.787574410E-1,3.011633158E-1
1.799667813E0,2.414619476E-1,9.734311700E-1,2.819885910E-1
1.802170886E0,2.222872078E-1,9.542564154E-1,2.585527897E-1
1.804673958E0,2.084387839E-1,9.286900759E-1,2.329864502E-1
1.807177031E0,1.924598217E-1,8.967321515E-1,2.116811872E-1
1.809680104E0,1.775461286E-1,8.637089729E-1,1.882453859E-1
1.812183177E0,1.658282280E-1,8.360121250E-1,1.616137922E-1
1.814686250E0,1.498492956E-1,8.083152771E-1,1.328516901E-1
1.817189323E0,1.349355876E-1,7.838141918E-1,1.030242965E-1
1.819692396E0,1.264134794E-1,7.689005136E-1,7.000112534E-2
1.822195469E0,1.200219095E-1,7.657047510E-1,3.484743088E-2
1.824737188E0,1.125650704E-1,7.699658275E-1,-3.502053674E-3
1.827240261E0,1.061734855E-1,7.816836834E-1,-4.078627378E-2
1.829743333E0,1.029777005E-1,8.040542603E-1,-7.593997568E-2
1.832246406E0,1.029777005E-1,8.413384557E-1,-1.089631394E-1
1.834749479E0,9.871664643E-2,8.882099986E-1,-1.377252638E-1
1.837252552E0,9.552085400E-2,9.425384998E-1,-1.664873660E-1
1.839755625E0,1.008471698E-1,9.968668818E-1,-1.835315824E-1
1.842258698E0,1.051082239E-1,1.051195383E0,-1.984452605E-1
1.844761771E0,1.125650704E-1,1.097001672E0,-2.080326378E-1
1.847264844E0,1.221524402E-1,1.131090164E0,-2.208158076E-1
1.849767917E0,1.296092868E-1,1.141742826E0,-2.229463458E-1
1.852270990E0,1.413271725E-1,1.144938588E0,-2.165547609E-1
1.854736979E0,1.509145498E-1,1.155591249E0,-2.090978920E-1
1.857240000E0,1.541103423E-1,1.164113402E0,-1.973800063E-1
1.859743073E0,1.636977047E-1,1.170504928E0,-1.856621206E-1
1.862246146E0,1.732850820E-1,1.176896453E0,-1.856621206E-1
1.864749219E0,1.818071902E-1,1.188614368E0,-1.984452605E-1
1.867252292E0,1.860682368E-1,1.200332284E0,-2.186852694E-1
1.869755365E0,1.839377135E-1,1.210984945E0,-2.410558164E-1
1.872258438E0,1.786113977E-1,1.210984945E0,-2.581000328E-1
1.874761511E0,1.775461286E-1,1.202462912E0,-2.655568719E-1
1.877264583E0,1.700892895E-1,1.183288097E0,-2.655568719E-1
1.879767656E0,1.626324505E-1,1.155591249E0,-2.666221559E-1
1.882270729E0,1.605019271E-1,1.132155418E0,-2.708832026E-1
1.884774375E0,1.573061198E-1,1.120437503E0,-2.868621349E-1
1.887277396E0,1.551755965E-1,1.115111232E0,-3.028410971E-1
1.889780469E0,1.498492956E-1,1.119372249E0,-3.241463602E-1
1.892283542E0,1.498492956E-1,1.127894402E0,-3.422558308E-1
1.894786615E0,1.487840265E-1,1.126829147E0,-3.656916320E-1
1.897289688E0,1.455882341E-1,1.127894402E0,-3.912579715E-1
1.899792761E0,1.402619183E-1,1.142808080E0,-4.178895354E-1
1.902295833E0,1.402619183E-1,1.148134351E0,-4.391948283E-1
1.904798906E0,1.519798189E-1,1.140677571E0,-4.487822056E-1
1.907301979E0,1.743503362E-1,1.120437503E0,-4.466516376E-1
1.909805052E0,2.063082457E-1,1.094871163E0,-4.466516376E-1
1.912308125E0,2.446577251E-1,1.061848044E0,-4.498474598E-1
1.914845833E0,2.744851112E-1,1.026694298E0,-4.605000913E-1
1.917348906E0,3.032472134E-1,9.947363734E-1,-4.711527228E-1
1.919851979E0,3.309440911E-1,9.595826864E-1,-4.818053544E-1
1.922355052E0,3.575756550E-1,9.361469150E-1,-4.935232699E-1
1.924858125E0,3.810114861E-1,9.222984314E-1,-5.041759014E-1
1.927361198E0,4.097735882E-1,9.265595078E-1,-5.126980543E-1
1.929864271E0,4.385357201E-1,9.404079318E-1,-5.233507156E-1
1.932367344E0,4.704935849E-1,9.670395255E-1,-5.318728089E-1
1.934870417E0,5.067125559E-1,1.000062823E0,-5.371990800E-1
1.937373490E0,5.386704803E-1,1.029890180E0,-5.446559191E-1
1.939876563E0,5.674325824E-1,1.051195383E0,-5.542433262E-1
1.942379636E0,5.961947441E-1,1.066109180E0,-5.680916905E-1
1.944857396E0,6.206957698E-1,1.077826977E0,-5.840706825E-1
1.947360469E0,6.388052702E-1,1.088479638E0,-6.043106914E-1
1.949863542E0,6.526536942E-1,1.095936537E0,-6.266812682E-1
1.952366615E0,6.686326861E-1,1.105523825E0,-6.490517259E-1
1.954869688E0,6.846116185E-1,1.115111232E0,-6.724876165E-1
1.957372761E0,7.048515677E-1,1.122568130E0,-6.927275658E-1
1.959875833E0,7.272221446E-1,1.114045978E0,-7.108370066E-1
1.962378906E0,7.549189925E-1,1.089544892E0,-7.289465070E-1
1.964881979E0,7.708979249E-1,1.077826977E0,-7.513170838E-1
1.967385052E0,7.687674165E-1,1.087414384E0,-7.651655078E-1
1.969888125E0,7.719632387E-1,1.095936537E0,-7.758181095E-1
1.972391198E0,7.826158404E-1,1.103393316E0,-7.875359654E-1
1.974918854E0,7.964642644E-1,1.115111232E0,-7.928623557E-1
1.977421927E0,8.103126884E-1,1.130024910E0,-7.981886268E-1
1.979925000E0,8.262916803E-1,1.146003842E0,-8.024497032E-1
1.982428073E0,8.486621976E-1,1.164113402E0,-8.003191948E-1
1.984931146E0,8.742284775E-1,1.181157589E0,-7.971233726E-1
1.987434219E0,9.093821645E-1,1.193940759E0,-7.896665335E-1
1.989937292E0,9.445359111E-1,1.203528047E0,-7.768834233E-1
1.992440365E0,9.860811234E-1,1.200332284E0,-7.662307620E-1
1.994943438E0,1.030822158E0,1.185418606E0,-7.555781007E-1
1.997446511E0,1.080889583E0,1.165178537E0,-7.406644225E-1
1.999949583E0,1.133087397E0,1.138546944E0,-7.300117612E-1
2.002452656E0,1.192742229E0,1.117241859E0,-7.236202359E-1
2.004937761E0,1.250266433E0,1.091675401E0,-7.246854901E-1
2.007440781E0,1.309921145E0,1.063978672E0,-7.246854901E-1
2.009943854E0,1.369575977E0,1.032020569E0,-7.289465070E-1
2.012446927E0,1.427100182E0,9.968668818E-1,-7.342728376E-1
2.014950000E0,1.487820268E0,9.659742713E-1,-7.406644225E-1
2.017453073E0,1.541083336E0,9.361469150E-1,-7.449254394E-1
2.019956146E0,1.589020133E0,9.073847532E-1,-7.545128465E-1
2.022459219E0,1.632695913E0,8.807531595E-1,-7.609044313E-1
2.024962292E0,1.667849660E0,8.626437187E-1,-7.694265246E-1
2.027465365E0,1.701938152E0,8.509258628E-1,-7.768834233E-1
2.029968438E0,1.729634881E0,8.455994725E-1,-7.875359654E-1
2.032471511E0,1.753070831E0,8.445342183E-1,-8.056454659E-1
2.034956302E0,1.771180153E0,8.519910574E-1,-8.280160427E-1
2.037459375E0,1.786093950E0,8.722310662E-1,-8.503865600E-1
2.039962396E0,1.791420341E0,8.977974057E-1,-8.738223910E-1
2.042465469E0,1.791420341E0,9.340163469E-1,-8.961929083E-1
2.044968490E0,1.786093950E0,9.798226953E-1,-9.153676629E-1
2.047471563E0,1.778637171E0,1.024563789E0,-9.292160273E-1
2.049974583E0,1.769049764E0,1.071435452E0,-9.366728663E-1
2.052477656E0,1.757331848E0,1.106589079E0,-9.441297650E-1
2.054980677E0,1.750940204E0,1.127894402E0,-9.483907819E-1
2.057483750E0,1.752005577E0,1.132155418E0,-9.430645108E-1
2.059986771E0,1.756266475E0,1.124698639E0,-9.366728663E-1
2.062489844E0,1.764788747E0,1.099132299E0,-9.228245020E-1
2.065002136E0,1.775441289E0,1.054391265E0,-9.047150016E-1
2.067505208E0,1.790354967E0,9.958016276E-1,-8.929970860E-1
2.070008229E0,1.809529662E0,9.191026688E-1,-8.812792301E-1
2.072511302E0,1.828704476E0,8.296205401E-1,-8.759528399E-1
2.075014323E0,1.842552900E0,7.337468266E-1,-8.748875856E-1
2.077517396E0,1.850009799E0,6.325467825E-1,-8.759528399E-1
2.080020417E0,1.859597087E0,5.356078148E-1,-8.791486621E-1
2.082523490E0,1.860662341E0,4.429298937E-1,-8.887360692E-1
2.085026511E0,1.857466578E0,3.672961891E-1,-8.940623403E-1
2.087529583E0,1.844683409E0,3.033803701E-1,-9.036497474E-1
2.090032604E0,1.822312951E0,2.650308907E-1,-9.185634851E-1
2.092535677E0,1.799942374E0,2.447908968E-1,-9.377381802E-1
2.095131354E0,1.766919255E0,2.437256277E-1,-9.494560957E-1
2.097634427E0,1.732830763E0,2.533129752E-1,-9.622392654E-1
2.100137448E0,1.690220237E0,2.682266831E-1,-9.782181978E-1
2.102640521E0,1.646544456E0,2.969887853E-1,-9.910013080E-1
2.105143542E0,1.596477032E0,3.342730105E-1,-1.002719164E0
2.107646615E0,1.554931760E0,3.811446130E-1,-1.013371825E0
2.110149636E0,1.508060217E0,4.376035631E-1,-1.020828724E0
2.112652708E0,1.460123301E0,5.015193820E-1,-1.020828724E0
2.115155729E0,1.414316893E0,5.696962476E-1,-1.015502453E0
2.117658802E0,1.370641112E0,6.431994438E-1,-1.003784537E0
2.120161823E0,1.337617993E0,7.167026401E-1,-9.856750369E-1
2.122664896E0,1.304594874E0,7.891405821E-1,-9.622392654E-1
2.125107708E0,1.279028535E0,8.615784049E-1,-9.377381802E-1
2.127610781E0,1.254527450E0,9.265595078E-1,-9.100412726E-1
2.130113802E0,1.231091738E0,9.926058650E-1,-8.844749928E-1
2.132616875E0,1.217243195E0,1.042673349E0,-8.631697297E-1
2.135119896E0,1.200199008E0,1.078892350E0,-8.429297209E-1
2.137622969E0,1.185285330E0,1.102328062E0,-8.258854747E-1
2.140125990E0,1.170371652E0,1.110850215E0,-8.067107201E-1
2.142629063E0,1.154392719E0,1.095936537E0,-7.907317877E-1
2.145132083E0,1.135217905E0,1.070370078E0,-7.768834233E-1
2.147635156E0,1.112847447E0,1.032020569E0,-7.672960162E-1
2.150138177E0,1.088346362E0,9.936711192E-1,-7.598391771E-1
2.152641250E0,1.060649395E0,9.531911016E-1,-7.502518296E-1
2.155133229E0,1.027626395E0,9.105805755E-1,-7.427949905E-1
2.157636302E0,9.924727678E-1,8.722310662E-1,-7.385339141E-1
2.160139323E0,9.530580044E-1,8.370773792E-1,-7.342728376E-1
2.162642396E0,9.061864614E-1,7.934015989E-1,-7.342728376E-1
2.165145417E0,8.625105619E-1,7.539868355E-1,-7.289465070E-1
2.167648490E0,8.209652901E-1,7.145720720E-1,-7.289465070E-1
2.170151511E0,7.804853320E-1,6.815489531E-1,-7.300117612E-1
2.172654583E0,7.346789837E-1,6.442646980E-1,-7.310770750E-1
2.175157604E0,6.931337118E-1,6.144372821E-1,-7.353380919E-1
2.177660677E0,6.558494568E-1,5.910015106E-1,-7.385339141E-1
2.180163698E0,6.164346933E-1,5.686309934E-1,-7.438601851E-1
2.182666771E0,5.791504979E-1,5.515868068E-1,-7.470560074E-1
2.185146146E0,5.461273789E-1,5.419993997E-1,-7.555781007E-1
2.187649219E0,5.141694546E-1,5.377383232E-1,-7.619696856E-1
2.190152240E0,4.864725769E-1,5.377383232E-1,-7.694265246E-1
2.192655313E0,4.630367458E-1,5.419993997E-1,-7.790138721E-1
2.195158333E0,4.491883218E-1,5.430647135E-1,-7.843402624E-1
2.197661406E0,4.406662285E-1,5.409341455E-1,-7.875359654E-1
2.200164427E0,4.353398979E-1,5.388035774E-1,-7.886012793E-1
2.202667500E0,4.353398979E-1,5.334773064E-1,-7.875359654E-1
2.205170521E0,4.449272752E-1,5.302814841E-1,-7.790138721E-1
2.207673594E0,4.545146525E-1,5.196288228E-1,-7.736876011E-1
2.210176615E0,4.715588689E-1,5.089762807E-1,-7.651655078E-1
2.212679688E0,4.886030853E-1,4.983236194E-1,-7.502518296E-1
2.215192240E0,5.099083781E-1,4.812793732E-1,-7.395991683E-1
2.217695313E0,5.312136412E-1,4.727572501E-1,-7.257506847E-1
2.220198333E0,5.525189042E-1,4.684962034E-1,-7.140328288E-1
2.222701406E0,5.770199895E-1,4.727572501E-1,-6.916623116E-1
2.225204427E0,5.983252525E-1,4.802141190E-1,-6.703570485E-1
2.227707500E0,6.249568462E-1,4.961930513E-1,-6.511822939E-1
2.230210521E0,6.462621093E-1,5.260204673E-1,-6.277465224E-1
2.232713594E0,6.601105928E-1,5.526520610E-1,-6.011149287E-1
2.235216615E0,6.782199740E-1,5.633046627E-1,-5.712875128E-1
2.237719688E0,6.899378896E-1,5.537172556E-1,-5.425254107E-1
2.240222708E0,6.952642798E-1,5.324120522E-1,-5.158938169E-1
2.242725781E0,6.995252967E-1,4.961930513E-1,-4.903274775E-1
2.245209115E0,6.952642798E-1,4.429298937E-1,-4.668916762E-1
2.247712188E0,6.803505421E-1,3.790141046E-1,-4.423905909E-1
2.250215208E0,6.579800248E-1,3.055108786E-1,-4.264116585E-1
2.252718281E0,6.238915920E-1,2.266814262E-1,-4.125632346E-1
2.255221354E0,5.802158117E-1,1.435908675E-1,-4.008453488E-1
2.257724375E0,5.237568021E-1,5.410872400E-2,-3.912579715E-1
2.260227396E0,4.566451609E-1,-2.685129642E-2,-3.816705942E-1
2.262730469E0,3.831419945E-1,-9.822395444E-2,-3.720832169E-1
2.265233490E0,3.064430356E-1,-1.525523961E-1,-3.571695387E-1
2.267736563E0,2.158956081E-1,-1.834450215E-1,-3.497126997E-1
2.270239583E0,1.317398101E-1,-1.909018755E-1,-3.379947841E-1
2.272742656E0,4.758399352E-2,-1.855755597E-1,-3.262768984E-1
2.275306302E0,-3.657182679E-2,-1.632050276E-1,-3.102979362E-1
2.277809375E0,-1.175318509E-1,-1.355081648E-1,-2.943189740E-1
2.280312448E0,-1.942308396E-1,-9.822395444E-2,-2.719484270E-1
2.282815469E0,-2.666687667E-1,-5.774394423E-2,-2.538389862E-1
2.285318490E0,-3.295192719E-1,-3.415501444E-3,-2.389253080E-1
2.287821563E0,-3.859782815E-1,6.476136297E-2,-2.186852694E-1
2.290324583E0,-4.360456467E-1,1.521129757E-1,-1.984452605E-1
2.292827656E0,-4.797214270E-1,2.554435134E-1,-1.867273748E-1
2.295330677E0,-5.170056224E-1,3.779488206E-1,-1.664873660E-1
2.297833750E0,-5.383109450E-1,5.100414753E-1,-1.505084038E-1
2.300336771E0,-5.532245636E-1,6.325467825E-1,-1.355947256E-1
2.302839844E0,-5.660077929E-1,7.401384115E-1,-1.132241935E-1
2.305310417E0,-5.649424791E-1,8.392079473E-1,-8.978839219E-2
2.307813490E0,-5.532245636E-1,9.191026688E-1,-7.061365247E-2
2.310316511E0,-5.393761992E-1,9.744963646E-1,-5.889575556E-2
2.312819583E0,-5.180708766E-1,1.009650111E0,-5.143890902E-2
2.315322604E0,-4.914393723E-1,1.030955434E0,-4.611259326E-2
2.317825677E0,-4.605467319E-1,1.034151196E0,-4.398206621E-2
2.320328698E0,-4.296540618E-1,1.017107010E0,-3.865575045E-2
2.322831771E0,-4.019572139E-1,9.798226953E-1,-3.972101212E-2
2.325334792E0,-3.699992895E-1,9.340163469E-1,-4.291680455E-2
2.327837865E0,-3.465635180E-1,8.754268885E-1,-4.930838197E-2
2.330340886E0,-3.295192719E-1,8.061847687E-1,-5.889575556E-2
2.332843958E0,-3.199319243E-1,7.390731573E-1,-6.528733671E-2
2.335345938E0,-3.188666701E-1,6.740921140E-1,-7.167891413E-2
2.337849011E0,-3.209971786E-1,6.144372821E-1,-7.700523734E-2
2.340352031E0,-3.337803781E-1,5.601089001E-1,-8.339681476E-2
2.342855104E0,-3.518898189E-1,5.143025517E-1,-8.552734554E-2
2.345358125E0,-3.678687811E-1,4.812793732E-1,-8.233155310E-2
2.347861198E0,-3.838477433E-1,4.482562244E-1,-7.593997568E-2
2.350364219E0,-3.998266757E-1,4.280161858E-1,-6.315681338E-2
2.352867292E0,-4.147403836E-1,4.131025076E-1,-4.717785493E-2
2.355370313E0,-4.360456467E-1,4.067109227E-1,-3.119890578E-2
2.357873386E0,-4.509593546E-1,4.077762067E-1,-1.095889788E-2
2.360376406E0,-4.669382870E-1,4.131025076E-1,1.354216319E-2
2.362879479E0,-4.871782959E-1,4.131025076E-1,3.378216922E-2
2.365355469E0,-5.084835291E-1,4.173635840E-1,5.721797049E-2
2.367858490E0,-5.265929699E-1,4.173635840E-1,7.852323353E-2
2.370361563E0,-5.404414535E-1,4.248204231E-1,1.019590348E-1
2.372864583E0,-5.532245636E-1,4.248204231E-1,1.243295670E-1
2.375367656E0,-5.617467165E-1,4.258856773E-1,1.435043216E-1
2.377870677E0,-5.681383014E-1,4.269509614E-1,1.562874615E-1
2.380373750E0,-5.723993182E-1,4.269509614E-1,1.722664237E-1
2.382876771E0,-5.745298862E-1,4.226898849E-1,1.861148477E-1
2.385379844E0,-5.755951405E-1,4.152330458E-1,1.946369708E-1
2.387882865E0,-5.713340640E-1,4.067109227E-1,2.020938098E-1
2.390385938E0,-5.692035556E-1,3.928624988E-1,2.063548565E-1
2.392888958E0,-5.692035556E-1,3.726224899E-1,2.095506489E-1
2.395414323E0,-5.617467165E-1,3.523825109E-1,2.148769796E-1
2.397917396E0,-5.478982925E-1,3.332077563E-1,2.202032804E-1
2.400420417E0,-5.425719619E-1,3.055108786E-1,2.202032804E-1
2.402923490E0,-5.287235379E-1,2.778140604E-1,2.202032804E-1
2.405426511E0,-5.116792917E-1,2.447908968E-1,2.233990729E-1
2.407929583E0,-4.903740883E-1,2.085719407E-1,2.191380262E-1
2.410432604E0,-4.680035412E-1,1.776793003E-1,2.159422338E-1
2.412935677E0,-4.488287866E-1,1.403950751E-1,2.127464414E-1
2.415438698E0,-4.232624769E-1,1.063066423E-1,2.074201107E-1
2.417941771E0,-3.891740441E-1,7.434873283E-2,1.999632716E-1
2.420444792E0,-3.625424504E-1,4.239082709E-2,1.893106401E-1
2.422947865E0,-3.327150941E-1,1.788976789E-2,1.797232628E-1
2.425443386E0,-2.996919155E-1,-8.741818368E-3,1.701358855E-1
2.427946458E0,-2.656034827E-1,-3.430814296E-2,1.605485380E-1
2.430449479E0,-2.347108424E-1,-5.454815552E-2,1.498958766E-1
2.432952552E0,-2.038182020E-1,-7.265762985E-2,1.403085291E-1
2.435455625E0,-1.707950234E-1,-9.289763123E-2,1.349821985E-1
2.437958646E0,-1.452287138E-1,-1.099418551E-1,1.253948212E-1
2.440461667E0,-1.239234284E-1,-1.269860715E-1,1.147421971E-1
2.442964792E0,-1.090097427E-1,-1.365734488E-1,1.062200889E-1
2.445467761E0,-9.729184210E-2,-1.440302730E-1,9.343692660E-2
2.447970833E0,-8.876973391E-2,-1.461608112E-1,8.384955674E-2
2.450473854E0,-8.237814903E-2,-1.493566036E-1,7.106639445E-2
2.452976927E0,-8.237814903E-2,-1.461608112E-1,6.147902459E-2
2.455469479E0,-8.450867981E-2,-1.376387030E-1,4.869585857E-2
2.457972552E0,-8.770447224E-2,-1.323123872E-1,3.697796166E-2
2.460475573E0,-8.983499557E-2,-1.195292249E-1,2.419479750E-2
2.462978646E0,-9.942237288E-2,-1.056808010E-1,1.354216319E-2
2.465481667E0,-1.058139503E-1,-9.928921610E-2,1.824264065E-3
2.467984740E0,-1.122055352E-1,-1.003544852E-1,-9.893634357E-3
2.470487761E0,-1.143360585E-1,-1.035502702E-1,-2.374206111E-2
2.472990833E0,-1.207276359E-1,-1.120723784E-1,-3.439469635E-2
2.475493854E0,-1.239234284E-1,-1.227250099E-1,-5.037364736E-2
2.477996927E0,-1.335107982E-1,-1.365734488E-1,-6.209154427E-2
2.480499948E0,-1.441634446E-1,-1.450955421E-1,-7.380944490E-2
2.483003021E0,-1.537508219E-1,-1.514871269E-1,-9.085366130E-2
2.485488646E0,-1.665339768E-1,-1.536176503E-1,-1.025715619E-1
2.487991719E0,-1.803824008E-1,-1.578787118E-1,-1.142894551E-1
2.490494740E0,-1.910350323E-1,-1.610745043E-1,-1.228115633E-1
2.492997813E0,-2.080792487E-1,-1.717271358E-1,-1.302684098E-1
2.495500833E0,-2.219276875E-1,-1.791839749E-1,-1.334641874E-1
2.498003906E0,-2.315150648E-1,-1.940976679E-1,-1.355947256E-1
2.500506927E0,-2.528203130E-1,-2.068808377E-1,-1.409210265E-1
2.503010000E0,-2.783866525E-1,-2.154029459E-1,-1.441168487E-1
2.505513021E0,-2.964961231E-1,-2.260555774E-1,-1.494431496E-1
2.508016094E0,-3.135403395E-1,-2.377734780E-1,-1.547694802E-1
2.510519115E0,-3.348456025E-1,-2.516218722E-1,-1.579652727E-1
2.513022188E0,-3.518898189E-1,-2.676008642E-1,-1.622263193E-1
2.515537969E0,-3.753256202E-1,-2.771882415E-1,-1.675526202E-1
2.518041042E0,-3.966308832E-1,-2.686661482E-1,-1.771399975E-1
2.520544063E0,-4.243277609E-1,-2.399040014E-1,-1.814010739E-1
2.523047136E0,-4.488287866E-1,-1.940976679E-1,-1.856621206E-1
2.525550156E0,-4.680035412E-1,-1.301818639E-1,-1.867273748E-1
2.528053229E0,-4.861130416E-1,-4.815657064E-2,-1.867273748E-1
2.530556250E0,-4.967656434E-1,3.067292832E-2,-1.835315824E-1
2.533059323E0,-5.052877665E-1,1.105676964E-1,-1.824663281E-1
2.535562344E0,-5.084835291E-1,1.872666776E-1,-1.750094891E-1
2.538065417E0,-5.042224526E-1,2.522477508E-1,-1.686179042E-1
2.540568438E0,-4.988961816E-1,3.076414466E-1,-1.579652727E-1
2.543071511E0,-4.903740883E-1,3.577088118E-1,-1.462473571E-1
2.545576615E0,-4.797214270E-1,3.928624988E-1,-1.345294714E-1
2.548079688E0,-4.626772404E-1,4.237551391E-1,-1.270726174E-1
2.550582708E0,-4.488287866E-1,4.493214786E-1,-1.174852476E-1
2.553085781E0,-4.264582694E-1,4.716920257E-1,-1.078978777E-1
2.555588802E0,-4.115445912E-1,4.940625429E-1,-1.047020853E-1
2.558091875E0,-3.891740441E-1,5.153678060E-1,-1.025715619E-1
2.560594896E0,-3.678687811E-1,5.302814841E-1,-1.025715619E-1
2.563097969E0,-3.497593105E-1,5.388035774E-1,-9.831050038E-2
2.565600990E0,-3.252582252E-1,5.441299677E-1,-9.831050038E-2
2.568104063E0,-2.986266613E-1,5.494562387E-1,-9.404944628E-2
2.570607083E0,-2.730603218E-1,5.473257303E-1,-8.978839219E-2
2.573110156E0,-2.442982197E-1,5.398688912E-1,-8.233155310E-2
2.575612917E0,-2.155361027E-1,5.281509757E-1,-7.593997568E-2
2.578115990E0,-1.857087314E-1,5.132372975E-1,-6.635259837E-2
2.580619011E0,-1.526855528E-1,4.972583055E-1,-5.463469774E-2
2.583122083E0,-1.239234284E-1,4.759530723E-1,-4.824312031E-2
2.585625104E0,-9.622658044E-2,4.546477795E-1,-4.398206621E-2
2.588128177E0,-6.746446341E-2,4.322772324E-1,-3.972101212E-2
2.590631198E0,-4.509393498E-2,4.099067450E-1,-3.652521968E-2
2.593134271E0,-2.165813930E-2,3.811446130E-1,-3.652521968E-2
2.595637292E0,-3.548658919E-3,3.502519727E-1,-3.545995802E-2
2.598140365E0,1.029976644E-2,3.140330017E-1,-3.652521968E-2
2.600643386E0,1.775661111E-2,2.724877298E-1,-3.439469635E-2
2.603146458E0,2.201766521E-2,2.288119495E-1,-3.545995802E-2
2.605653177E0,1.882187463E-2,1.936582476E-1,-3.759048507E-2
2.608156250E0,6.038712338E-3,1.521129757E-1,-3.759048507E-2
2.610659271E0,-1.633182168E-2,1.031108499E-1,-3.226416558E-2
2.613162344E0,-4.509393498E-2,5.943504348E-2,-3.013364226E-2
2.615665365E0,-8.663920313E-2,1.469397917E-2,-3.013364226E-2
2.618168438E0,-1.367066056E-1,-2.791656181E-2,-2.587258816E-2
2.620671458E0,-1.910350323E-1,-5.561341718E-2,-2.054627053E-2
2.623174531E0,-2.453634739E-1,-8.650605381E-2,-1.521995198E-2
2.625677552E0,-2.996919155E-1,-1.259208024E-1,-5.632580724E-3
2.628180625E0,-3.486940265E-1,-1.546829194E-1,1.034637261E-2
2.630683646E0,-3.881087899E-1,-1.653355658E-1,2.845585160E-2
2.633186719E0,-4.243277609E-1,-1.759881973E-1,4.656533152E-2
2.635724583E0,-4.488287866E-1,-1.834450215E-1,6.254428625E-2
2.638227656E0,-4.648077786E-1,-1.855755597E-1,8.065376431E-2
2.640730677E0,-4.733298719E-1,-1.759881973E-1,9.769798070E-2
2.643233750E0,-4.754603803E-1,-1.578787118E-1,1.083506122E-1
2.645736771E0,-4.680035412E-1,-1.291165948E-1,1.179379895E-1
2.648239844E0,-4.509593546E-1,-9.502816200E-2,1.221990511E-1
2.650742865E0,-4.307193160E-1,-6.307025999E-2,1.243295670E-1
2.653245938E0,-4.083487988E-1,-2.791656181E-2,1.243295670E-1
2.655748958E0,-3.817172050E-1,4.041343462E-3,1.211337671E-1
2.658252031E0,-3.604119122E-1,3.280345351E-2,1.179379895E-1
2.660755052E0,-3.369761407E-1,5.517398566E-2,1.136769280E-1
2.663258125E0,-3.146056235E-1,7.541399449E-2,1.104811430E-1
2.665722865E0,-2.954308689E-1,8.606663346E-2,1.051548272E-1
2.668225938E0,-2.826476991E-1,9.139295667E-2,9.982851148E-2
2.670729011E0,-2.751908600E-1,9.458874166E-2,8.917587250E-2
2.673232031E0,-2.666687667E-1,9.884979576E-2,8.384955674E-2
2.675735052E0,-2.592119277E-1,9.884979576E-2,7.213165611E-2
2.678238125E0,-2.581466436E-1,1.009803265E-1,6.680534035E-2
2.680741146E0,-2.624076903E-1,1.031108499E-1,5.721797049E-2
2.683244219E0,-2.666687667E-1,1.105676964E-1,4.550006986E-2
2.685747240E0,-2.645381987E-1,1.276119202E-1,3.910848871E-2
2.688250313E0,-2.677340209E-1,1.574392915E-1,3.165164217E-2
2.690753386E0,-2.762561440E-1,1.893972009E-1,2.952111326E-2
2.693256406E0,-2.794519067E-1,2.277466804E-1,2.845585160E-2
2.695758125E0,-2.837129533E-1,2.724877298E-1,2.632532455E-2
2.698261198E0,-2.911697924E-1,3.140330017E-1,2.526005916E-2
2.700764219E0,-2.911697924E-1,3.566435575E-1,2.845585160E-2
2.703267292E0,-2.879740298E-1,3.907319903E-1,3.165164217E-2
2.705770313E0,-2.847782373E-1,4.248204231E-1,3.378216922E-2
2.708273386E0,-2.805171907E-1,4.525172710E-1,4.123901576E-2
2.710776406E0,-2.741255760E-1,4.802141190E-1,4.763059691E-2
2.713279479E0,-2.656034827E-1,5.057804585E-1,5.508743972E-2
2.715782500E0,-2.581466436E-1,5.228246450E-1,6.360954791E-2
2.718285573E0,-2.442982197E-1,5.302814841E-1,6.893586367E-2
2.720788594E0,-2.315150648E-1,5.324120522E-1,7.000112534E-2
2.723291667E0,-2.187318802E-1,5.302814841E-1,7.000112534E-2
2.725799688E0,-2.038182020E-1,5.217593908E-1,7.426217943E-2
2.728302761E0,-1.899697781E-1,5.079109669E-1,7.426217943E-2
2.730805781E0,-1.793171316E-1,4.951277971E-1,7.426217943E-2
2.733308854E0,-1.707950234E-1,4.823446274E-1,7.213165611E-2
2.735811875E0,-1.644034535E-1,4.727572501E-1,7.106639445E-2
2.738314948E0,-1.558813453E-1,4.621046484E-1,6.893586367E-2
2.740818021E0,-1.473592371E-1,4.482562244E-1,6.787060201E-2
2.743321042E0,-1.367066056E-1,4.301467240E-1,6.680534035E-2
2.745824063E0,-1.292497516E-1,4.152330458E-1,6.360954791E-2
2.748327136E0,-1.175318509E-1,4.003193676E-1,6.360954791E-2
2.750830156E0,-1.036834270E-1,3.747530282E-1,6.893586367E-2
2.753333229E0,-9.729184210E-2,3.427951336E-1,7.639271021E-2
2.755834896E0,-9.729184210E-2,3.140330017E-1,8.171903342E-2
2.758337969E0,-9.835711122E-2,2.991193235E-1,8.598008752E-2
2.760840990E0,-1.004876345E-1,2.927277386E-1,9.130640328E-2
2.763344063E0,-1.068792120E-1,2.959235311E-1,9.982851148E-2
2.765847083E0,-1.164665818E-1,3.129677474E-1,1.083506122E-1
2.768350156E0,-1.196623743E-1,3.353382945E-1,1.200685129E-1
2.770853177E0,-1.132707968E-1,3.641003966E-1,1.339169443E-1
2.773356250E0,-1.100750044E-1,3.928624988E-1,1.456348300E-1
2.775859271E0,-1.026181653E-1,4.205593467E-1,1.562874615E-1
2.778362344E0,-9.090025723E-2,4.471909404E-1,1.712011695E-1
2.780865365E0,-8.344341815E-2,4.684962034E-1,1.839843392E-1
2.783368438E0,-7.385604829E-2,4.834099114E-1,1.925064325E-1
2.785870261E0,-5.894235894E-2,4.919320047E-1,2.020938098E-1
2.788373333E0,-4.615919665E-2,4.940625429E-1,2.106159329E-1
2.790876354E0,-3.444129974E-2,4.866057038E-1,2.127464414E-1
2.793379427E0,-2.378866635E-2,4.684962034E-1,2.084853649E-1
2.795882448E0,-1.526655816E-2,4.471909404E-1,2.116811872E-1
2.798385521E0,-8.874977008E-3,4.162983000E-1,2.127464414E-1
2.800888542E0,-4.613922443E-3,3.811446130E-1,2.074201107E-1
2.803391615E0,7.123951800E-4,3.427951336E-1,1.978327334E-1
2.805894636E0,-2.483395394E-3,3.065761626E-1,1.893106401E-1
2.808397708E0,-4.613922443E-3,2.692919672E-1,1.786580086E-1
2.810900729E0,-1.313603111E-2,2.383993119E-1,1.669400930E-1
2.813403802E0,-2.804972045E-2,2.128329873E-1,1.541569531E-1
2.815955990E0,-4.296340793E-2,1.872666776E-1,1.477653682E-1
2.818459063E0,-6.000762433E-2,1.670266688E-1,1.360474825E-1
2.820962083E0,-7.385604829E-2,1.425255984E-1,1.296558678E-1
2.823465156E0,-8.663920313E-2,1.212203354E-1,1.243295670E-1
2.825968177E0,-1.015528962E-1,1.041761115E-1,1.147421971E-1
2.828471250E0,-1.090097427E-1,9.032768756E-2,1.104811430E-1
2.830974271E0,-1.079444811E-1,8.074031770E-2,1.094158739E-1
2.833477344E0,-1.090097427E-1,7.754452527E-2,1.062200889E-1
2.835980365E0,-1.100750044E-1,6.902241707E-2,1.008937731E-1
2.838483438E0,-1.047486886E-1,5.836978182E-2,9.556745738E-2
2.840986458E0,-9.196551889E-2,3.706450760E-2,9.237166494E-2
2.843489531E0,-8.344341815E-2,1.256345212E-2,8.811061084E-2
2.845975573E0,-7.492130995E-2,-1.087234542E-2,8.278429508E-2
2.848478646E0,-6.426867098E-2,-3.324288130E-2,7.958849519E-2
2.850981667E0,-5.574657023E-2,-4.922183231E-2,7.852323353E-2
2.853484740E0,-4.509393498E-2,-5.454815552E-2,7.639271021E-2
2.855987813E0,-4.828972742E-2,-4.709130898E-2,7.106639445E-2
2.858490833E0,-5.681183189E-2,-2.365550771E-2,6.893586367E-2
2.860993854E0,-6.320340931E-2,1.043292321E-2,6.680534035E-2
2.863496927E0,-7.385604829E-2,5.304346234E-2,6.574007869E-2
2.865999948E0,-9.196551889E-2,1.063066423E-1,6.254428625E-2
2.868503021E0,-1.090097427E-1,1.574392915E-1,6.574007869E-2
2.871006042E0,-1.281844974E-1,2.053761482E-1,6.041375548E-2
2.873509115E0,-1.505550295E-1,2.501171827E-1,5.615270883E-2
2.875985729E0,-1.686645001E-1,2.874014378E-1,5.828323215E-2
2.878488802E0,-1.835781932E-1,3.108372092E-1,5.295691639E-2
2.880991823E0,-1.995571405E-1,3.225550950E-1,4.976112023E-2
2.883494896E0,-2.112750411E-1,3.246856332E-1,4.336954281E-2
2.885997917E0,-2.187318802E-1,3.236203790E-1,3.484743088E-2
2.888500990E0,-2.240582108E-1,3.129677474E-1,2.206427045E-2
2.891004011E0,-2.347108424E-1,2.980540693E-1,6.085318048E-3
2.893507083E0,-2.400371581E-1,2.842056155E-1,-4.567317199E-3
2.896010156E0,-2.474939972E-1,2.618350983E-1,-1.415468846E-2
2.898513177E0,-2.624076903E-1,2.341382504E-1,-2.480732463E-2
2.901016198E0,-2.709298134E-1,2.000498325E-1,-3.545995802E-2
2.903519271E0,-2.773213685E-1,1.659613997E-1,-5.143890902E-2
2.906029375E0,-2.890392840E-1,1.276119202E-1,-6.209154427E-2
2.908532448E0,-2.943656147E-1,7.860978693E-2,-7.700523734E-2
2.911035469E0,-3.007571697E-1,3.599924594E-2,-9.191892296E-2
2.913538542E0,-3.039529622E-1,-1.193760894E-2,-1.068326160E-1
2.916041563E0,-3.082140088E-1,-5.667867884E-2,-1.196157783E-1
2.918544636E0,-3.060835004E-1,-9.822395444E-2,-1.292031407E-1
2.921047656E0,-3.039529622E-1,-1.408344954E-1,-1.430515647E-1
2.923550729E0,-3.039529622E-1,-1.791839749E-1,-1.600957811E-1
2.926053750E0,-2.975614071E-1,-2.026197761E-1,-1.739442050E-1
2.928556823E0,-2.911697924E-1,-2.207292467E-1,-1.718136966E-1
2.931059844E0,-2.805171907E-1,-2.292513698E-1,-1.643568575E-1
2.933562917E0,-2.666687667E-1,-2.356429547E-1,-1.568999887E-1
2.936153854E0,-2.549508512E-1,-2.281861007E-1,-1.537041962E-1
2.938656927E0,-2.368413657E-1,-2.122071385E-1,-1.430515647E-1
2.941159948E0,-2.240582108E-1,-1.930323988E-1,-1.345294714E-1
2.943663021E0,-2.102097720E-1,-1.717271358E-1,-1.323989332E-1
2.946166042E0,-1.931655705E-1,-1.546829194E-1,-1.270726174E-1
2.948669115E0,-1.889045089E-1,-1.397692263E-1,-1.185505092E-1
2.951172136E0,-1.878392547E-1,-1.301818639E-1,-1.153547242E-1
2.953675208E0,-1.878392547E-1,-1.227250099E-1,-1.132241935E-1
2.956178229E0,-1.931655705E-1,-1.205944866E-1,-1.089631394E-1
2.958681302E0,-1.974266171E-1,-1.110071167E-1,-1.110936701E-1
2.961184323E0,-2.059487253E-1,-1.099418551E-1,-1.142894551E-1
2.963687396E0,-2.155361027E-1,-1.078113243E-1,-1.206810400E-1
2.966112656E0,-2.240582108E-1,-1.046155393E-1,-1.323989332E-1
2.968615729E0,-2.368413657E-1,-1.046155393E-1,-1.387905180E-1
2.971118750E0,-2.485592663E-1,-9.928921610E-2,-1.505084038E-1
2.973621823E0,-2.538855970E-1,-9.609343112E-2,-1.600957811E-1
2.976124844E0,-2.613424361E-1,-9.928921610E-2,-1.707484424E-1
2.978627917E0,-2.709298134E-1,-1.056808010E-1,-1.803357899E-1
2.981130938E0,-2.719950676E-1,-1.142029092E-1,-1.845968366E-1
2.983634011E0,-2.751908600E-1,-1.237902716E-1,-1.899231672E-1
2.986137031E0,-2.741255760E-1,-1.291165948E-1,-1.941842139E-1
2.988640104E0,-2.709298134E-1,-1.344429106E-1,-1.963147521E-1
2.991143125E0,-2.634729743E-1,-1.440302730E-1,-1.952494979E-1
2.993646198E0,-2.592119277E-1,-1.429650187E-1,-1.952494979E-1
2.996155261E0,-2.506898046E-1,-1.365734488E-1,-1.931189597E-1
2.998658333E0,-2.357761115E-1,-1.259208024E-1,-1.845968366E-1
3.001161406E0,-2.304497808E-1,-1.131376401E-1,-1.760747433E-1
3.003664427E0,-2.219276875E-1,-8.863657713E-2,-1.675526202E-1
3.006167448E0,-2.080792487E-1,-6.520078331E-2,-1.579652727E-1
3.008670521E0,-1.963613629E-1,-4.176498950E-2,-1.451821029E-1
3.011173542E0,-1.984918863E-1,-3.430814296E-2,-1.345294714E-1
3.013676615E0,-1.995571405E-1,-3.004708886E-2,-1.281378865E-1
3.016179636E0,-1.910350323E-1,-2.791656181E-2,-1.206810400E-1
3.018682708E0,-1.846434623E-1,-3.004708886E-2,-1.100284085E-1
3.021185729E0,-1.782518774E-1,-3.537340835E-2,-1.036368236E-1
3.023688802E0,-1.665339768E-1,-4.069972783E-2,-9.831050038E-2
3.026190938E0,-1.526855528E-1,-4.496078193E-2,-9.724523872E-2
3.028694011E0,-1.335107982E-1,-5.135236308E-2,-9.511471540E-2
3.031197031E0,-1.143360585E-1,-6.520078331E-2,-9.085366130E-2
3.033700104E0,-9.835711122E-2,-9.076710790E-2,-8.765786886E-2
3.036203125E0,-8.770447224E-2,-1.131376401E-1,-8.659260720E-2
3.038706198E0,-7.172551751E-2,-1.418997496E-1,-8.339681476E-2
3.041209219E0,-6.107288599E-2,-1.685313433E-1,-8.446207643E-2
3.043712292E0,-5.255078152E-2,-1.940976679E-1,-8.446207643E-2
3.046215313E0,-3.870235384E-2,-2.175334692E-1,-8.552734554E-2
3.048718386E0,-3.018024750E-2,-2.356429547E-1,-8.552734554E-2
3.051221406E0,-2.272340283E-2,-2.601440251E-1,-8.233155310E-2
3.053724479E0,-1.100550406E-2,-2.729271948E-1,-8.659260720E-2
3.056203490E0,-2.483395394E-3,-2.803840339E-1,-8.339681476E-2
3.058706563E0,2.842921996E-3,-2.782535255E-1,-8.446207643E-2
3.061209636E0,1.349555701E-2,-2.676008642E-1,-8.659260720E-2
3.063712656E0,1.882187463E-2,-2.494913638E-1,-8.233155310E-2
3.066215677E0,2.627871931E-2,-2.249903232E-1,-7.913576066E-2
3.068718750E0,3.586609289E-2,-1.972934604E-1,-7.593997568E-2
3.071221823E0,5.397557095E-2,-1.685313433E-1,-7.061365247E-2
3.073724844E0,6.569347531E-2,-1.429650187E-1,-7.061365247E-2
3.076227917E0,7.421558350E-2,-1.152681708E-1,-6.635259837E-2
3.078730938E0,8.486821502E-2,-9.183236957E-2,-6.102628261E-2
3.081234011E0,8.912927657E-2,-6.839657575E-2,-6.102628261E-2
3.083737031E0,9.658611566E-2,-4.069972783E-2,-6.209154427E-2
3.086245261E0,1.040429622E-1,-1.193760894E-2,-6.315681338E-2
3.088748333E0,1.040429622E-1,7.237134036E-3,-6.848312914E-2
3.091251354E0,1.040429622E-1,2.215082385E-2,-7.167891413E-2
3.093754427E0,1.051082239E-1,4.132556543E-2,-7.700523734E-2
3.096257500E0,1.051082239E-1,6.156557426E-2,-8.233155310E-2
3.098760521E0,9.871664643E-2,7.328347117E-2,-8.552734554E-2
3.101263594E0,1.008471698E-1,8.393610269E-2,-9.085366130E-2
3.103766615E0,1.008471698E-1,8.713190258E-2,-9.511471540E-2
3.106269688E0,9.765138477E-2,8.500136435E-2,-1.025715619E-1
3.108772708E0,9.445559233E-2,7.541399449E-2,-1.078978777E-1
3.111275781E0,9.339033067E-2,6.050030515E-2,-1.132241935E-1
3.113778802E0,9.019453824E-2,4.452135414E-2,-1.185505092E-1
3.116306771E0,8.806400746E-2,3.173819184E-2,-1.292031407E-1
3.118809844E0,8.912927657E-2,2.321608737E-2,-1.387905180E-1
3.121312917E0,9.445559233E-2,2.976079006E-3,-1.483778954E-1
3.123815938E0,9.658611566E-2,-1.939445361E-2,-1.547694802E-1
3.126319011E0,9.339033067E-2,-4.283025488E-2,-1.632915735E-1
3.128822083E0,9.552085400E-2,-6.413552165E-2,-1.696831584E-1
3.131325104E0,9.978190809E-2,-8.117973804E-2,-1.824663281E-1
3.133828125E0,1.061734855E-1,-9.289763123E-2,-1.920537055E-1
3.136331198E0,1.189566478E-1,-9.822395444E-2,-2.048368454E-1
3.138834219E0,1.519798189E-1,-8.331026137E-2,-2.453168631E-1
3.141337292E0,1.999166757E-1,-6.093973294E-2,-3.071021438E-1
3.143840313E0,2.372009009E-1,-6.413552165E-2,-3.539737463E-1
3.146336458E0,2.744851112E-1,-8.437552303E-2,-3.774095178E-1
3.148839531E0,3.138998747E-1,-1.035502702E-1,-3.891274333E-1
3.151342552E0,3.490535617E-1,-1.184639558E-1,-4.061716497E-1
3.153845625E0,3.746198714E-1,-1.216597483E-1,-4.125632346E-1
3.156348646E0,3.916640878E-1,-1.173986942E-1,-4.093674421E-1
3.158851719E0,4.033820033E-1,-1.163334325E-1,-4.253463745E-1
3.161354792E0,3.959251344E-1,-1.333776414E-1,-4.445211291E-1
3.163857813E0,3.724893630E-1,-1.376387030E-1,-4.232158661E-1
3.166360886E0,3.543798923E-1,-1.312471181E-1,-4.051063955E-1
3.168863906E0,3.224219680E-1,-1.237902716E-1,-3.869968951E-1
3.171366979E0,2.840724885E-1,-1.099418551E-1,-3.571695387E-1
3.173870000E0,2.457229942E-1,-9.502816200E-2,-3.241463602E-1
3.176374271E0,2.020471990E-1,-7.691868395E-2,-2.857968807E-1
3.178877344E0,1.605019271E-1,-6.520078331E-2,-2.431863546E-1
3.181380365E0,1.168261170E-1,-5.241762847E-2,-2.122937143E-1
3.183883438E0,9.658611566E-2,-5.546028726E-3,-2.080326378E-1
3.186386511E0,5.823662505E-2,2.976079006E-3,-1.739442050E-1
3.188889531E0,2.521345578E-2,6.171870511E-3,-1.345294714E-1
3.191392604E0,-2.483395394E-3,4.041343462E-3,-1.025715619E-1
3.193895677E0,-2.804972045E-2,4.041343462E-3,-7.487470657E-2
3.196398698E0,-4.828972742E-2,5.106606986E-3,-5.250417441E-2
3.198901719E0,-6.320340931E-2,1.256345212E-2,-3.545995802E-2
3.201404792E0,-7.385604829E-2,1.788976789E-2,-2.267679758E-2
3.203907813E0,-8.024762571E-2,2.321608737E-2,-1.202416141E-2
3.206442136E0,-8.237814903E-2,3.386871889E-2,-7.763107773E-3
3.208945208E0,-8.983499557E-2,4.239082709E-2,-1.371526509E-3
3.211448229E0,-9.409605712E-2,5.091293529E-2,1.247689780E-2
3.213951302E0,-9.942237288E-2,5.623925105E-2,2.526005916E-2
3.216454375E0,-1.004876345E-1,5.943504348E-2,3.484743088E-2
3.218957396E0,-1.004876345E-1,6.689189374E-2,4.443480447E-2
3.221460469E0,-9.516131878E-2,8.074031770E-2,5.615270883E-2
3.223963490E0,-8.770447224E-2,9.352348000E-2,6.467480958E-2
3.226466563E0,-8.557394147E-2,1.073719040E-1,7.532744855E-2
3.228969583E0,-7.492130995E-2,1.254813820E-1,8.278429508E-2
3.231472656E0,-6.533394009E-2,1.403950751E-1,8.704534918E-2
3.233975677E0,-6.320340931E-2,1.542434990E-1,8.811061084E-2
3.236430052E0,-6.213814765E-2,1.712877154E-1,9.024114162E-2
3.238933125E0,-6.000762433E-2,1.872666776E-1,8.491481841E-2
3.241436198E0,-6.320340931E-2,2.000498325E-1,8.065376431E-2
3.243939219E0,-6.639920175E-2,2.085719407E-1,7.745797187E-2
3.246442292E0,-6.639920175E-2,2.149635255E-1,6.787060201E-2
3.248945313E0,-7.172551751E-2,2.117677182E-1,6.147902459E-2
3.251448386E0,-7.172551751E-2,2.149635255E-1,5.295691639E-2
3.253951406E0,-6.852973253E-2,2.213550955E-1,4.336954281E-2
3.256454479E0,-6.852973253E-2,2.192245722E-1,3.591270000E-2
3.258957552E0,-6.426867098E-2,2.192245722E-1,1.993374154E-2
3.261460573E0,-5.894235894E-2,2.213550955E-1,-1.371526509E-3
3.263963594E0,-5.574657023E-2,2.085719407E-1,-2.374206111E-2
3.266462344E0,-5.468130484E-2,1.862014085E-1,-4.504732788E-2
3.268965417E0,-5.574657023E-2,1.553087533E-1,-5.996102095E-2
3.271468490E0,-6.213814765E-2,1.180245355E-1,-7.167891413E-2
3.273971511E0,-6.959499419E-2,7.967504859E-2,-8.020102233E-2
3.276474583E0,-7.385604829E-2,4.878240824E-2,-9.298418462E-2
3.278977604E0,-7.598657161E-2,2.960766666E-2,-1.057673544E-1
3.281480677E0,-7.705183327E-2,2.108556032E-2,-1.142894551E-1
3.283983750E0,-7.279077917E-2,2.002029680E-2,-1.174852476E-1
3.286486771E0,-6.746446341E-2,1.362871565E-2,-1.217463017E-1
3.288989792E0,-6.426867098E-2,8.302398026E-3,-1.217463017E-1
3.291492865E0,-6.213814765E-2,6.171870511E-3,-1.206810400E-1
3.293995886E0,-5.894235894E-2,8.455526549E-4,-1.142894551E-1
3.296525156E0,-5.574657023E-2,5.106606986E-3,-1.036368236E-1
3.299028229E0,-5.255078152E-2,7.237134036E-3,-9.511471540E-2
3.301531250E0,-5.042025447E-2,1.788976789E-2,-8.446207643E-2
3.304034323E0,-4.402866960E-2,2.854240686E-2,-8.020102233E-2
3.306537396E0,-4.402866960E-2,3.919503465E-2,-7.380944490E-2
3.309040417E0,-3.976761550E-2,4.984766990E-2,-6.422206759E-2
3.311543490E0,-3.337603435E-2,5.836978182E-2,-5.250417441E-2
3.314046511E0,-2.911498398E-2,6.156557426E-2,-4.717785493E-2
3.316549583E0,-3.018024750E-2,6.369610131E-2,-3.759048507E-2
3.319052604E0,-3.018024750E-2,6.156557426E-2,-2.800311521E-2
3.321555677E0,-3.124551103E-2,6.050030515E-2,-1.948100701E-2
3.324058750E0,-3.231077269E-2,6.050030515E-2,-8.828370832E-3
3.326526250E0,-3.657182679E-2,6.263083965E-2,-1.371526509E-3
3.329029323E0,-4.296340793E-2,6.689189374E-2,5.020053592E-3
3.331532396E0,-4.722445831E-2,7.328347117E-2,9.281109087E-3
3.334035417E0,-5.681183189E-2,7.754452527E-2,1.460742671E-2
3.336538490E0,-6.320340931E-2,8.926242590E-2,1.886847988E-2
3.339041511E0,-7.279077917E-2,9.991505742E-2,2.526005916E-2
3.341544583E0,-8.344341815E-2,1.180245355E-1,3.058637865E-2
3.344047604E0,-9.090025723E-2,1.414603442E-1,3.271690756E-2
3.346550677E0,-9.942237288E-2,1.659613997E-1,3.697796166E-2
3.349053750E0,-1.090097427E-1,1.947235018E-1,4.230427742E-2
3.351556771E0,-1.217928976E-1,2.192245722E-1,4.763059691E-2
3.354059792E0,-1.356413364E-1,2.415951043E-1,5.295691639E-2
3.356564115E0,-1.484245062E-1,2.671613991E-1,5.934849381E-2
3.359067188E0,-1.601423919E-1,2.884666920E-1,6.147902459E-2
3.361570208E0,-1.686645001E-1,3.087067008E-1,6.360954791E-2
3.364073281E0,-1.825129241E-1,3.236203790E-1,6.360954791E-2
3.366576354E0,-1.910350323E-1,3.449256420E-1,6.574007869E-2
3.369079375E0,-2.006224096E-1,3.726224899E-1,6.254428625E-2
3.371582448E0,-2.123403102E-1,4.045804143E-1,6.147902459E-2
3.374085469E0,-2.187318802E-1,4.407993853E-1,6.041375548E-2
3.376588542E0,-2.261887342E-1,4.780835807E-1,6.360954791E-2
3.379091563E0,-2.272540033E-1,5.143025517E-1,6.467480958E-2
3.381594636E0,-2.272540033E-1,5.494562387E-1,6.467480958E-2
3.384097656E0,-2.293845266E-1,5.814141631E-1,6.893586367E-2
3.386603281E0,-2.251234800E-1,6.027194262E-1,7.319691777E-2
3.389106354E0,-2.176666260E-1,6.208289266E-1,7.426217943E-2
3.391609375E0,-2.134055793E-1,6.314815879E-1,7.106639445E-2
3.394112448E0,-2.080792487E-1,6.293510199E-1,7.106639445E-2
3.396615521E0,-2.070139945E-1,6.261551976E-1,6.787060201E-2
3.399118542E0,-2.027529478E-1,6.229594350E-1,6.254428625E-2
3.401621615E0,-2.006224096E-1,6.155025363E-1,6.147902459E-2
3.404124636E0,-1.974266171E-1,6.059151888E-1,5.189164728E-2
3.406627708E0,-1.974266171E-1,5.973930955E-1,4.123901576E-2
3.409130729E0,-2.006224096E-1,5.867404938E-1,3.484743088E-2
3.411633802E0,-2.080792487E-1,5.792836547E-1,2.419479750E-2
3.414136875E0,-2.144708335E-1,5.718267560E-1,1.247689780E-2
3.416635990E0,-2.240582108E-1,5.665004849E-1,3.954790998E-3
3.419139063E0,-2.336455882E-1,5.579783320E-1,-7.763107773E-3
3.421642136E0,-2.421676964E-1,5.441299677E-1,-1.521995198E-2
3.424145156E0,-2.528203130E-1,5.302814841E-1,-2.267679758E-2
3.426648229E0,-2.656034827E-1,5.185635686E-1,-2.800311521E-2
3.429151250E0,-2.815824151E-1,5.047151446E-1,-3.332943097E-2
3.431654323E0,-2.986266613E-1,4.929972887E-1,-3.759048507E-2
3.434157344E0,-3.178013861E-1,4.855404198E-1,-3.652521968E-2
3.436660417E0,-3.401719332E-1,4.802141190E-1,-3.759048507E-2
3.439163490E0,-3.561508656E-1,4.759530723E-1,-4.078627378E-2
3.441666511E0,-3.838477433E-1,4.802141190E-1,-4.291680455E-2
3.444169531E0,-4.051530063E-1,4.834099114E-1,-3.972101212E-2
3.446674896E0,-4.296540618E-1,4.802141190E-1,-3.652521968E-2
3.449177969E0,-4.552204013E-1,4.759530723E-1,-3.226416558E-2
3.451681042E0,-4.775909185E-1,4.727572501E-1,-3.013364226E-2
3.454184063E0,-4.946351349E-1,4.759530723E-1,-2.161153406E-2
3.456687136E0,-5.084835291E-1,4.823446274E-1,-1.735047996E-2
3.459190156E0,-5.191361904E-1,4.929972887E-1,-7.763107773E-3
3.461693229E0,-5.276582837E-1,5.036499500E-1,1.824264065E-3
3.464196250E0,-5.351151228E-1,5.121720433E-1,1.354216319E-2
3.466699323E0,-5.351151228E-1,5.185635686E-1,2.099900506E-2
3.469202344E0,-5.351151228E-1,5.281509757E-1,3.165164217E-2
3.471705417E0,-5.319193602E-1,5.334773064E-1,4.123901576E-2
3.474208438E0,-5.340498090E-1,5.334773064E-1,5.189164728E-2
3.476762292E0,-5.255277157E-1,5.388035774E-1,5.508743972E-2
3.479265365E0,-5.170056224E-1,5.398688912E-1,6.041375548E-2
3.481768386E0,-5.031571984E-1,5.451951623E-1,6.680534035E-2
3.484271458E0,-4.893088043E-1,5.505214930E-1,7.319691777E-2
3.486774531E0,-4.797214270E-1,5.505214930E-1,8.065376431E-2
3.489277552E0,-4.648077786E-1,5.515868068E-1,8.704534918E-2
3.491780573E0,-4.477635622E-1,5.515868068E-1,9.556745738E-2
3.494283646E0,-4.328498542E-1,5.451951623E-1,9.982851148E-2
3.496786719E0,-4.211319685E-1,5.419993997E-1,1.062200889E-1
3.499289740E0,-4.094140530E-1,5.345425606E-1,1.115464047E-1
3.501792813E0,-3.976961672E-1,5.228246450E-1,1.158074662E-1
3.504295886E0,-3.849129975E-1,5.068457127E-1,1.264601052E-1
3.506748021E0,-3.742603660E-1,4.951277971E-1,1.339169443E-1
3.509251094E0,-3.668035269E-1,4.780835807E-1,1.435043216E-1
3.511754167E0,-3.518898189E-1,4.493214786E-1,1.562874615E-1
3.514257188E0,-3.412371874E-1,4.173635840E-1,1.658748388E-1
3.516760261E0,-3.273887634E-1,3.843403757E-1,1.754622161E-1
3.519263281E0,-3.092792928E-1,3.470561802E-1,1.807885468E-1
3.521766354E0,-2.847782373E-1,3.119024932E-1,1.893106401E-1
3.524269375E0,-2.645381987E-1,2.703571916E-1,1.957022250E-1
3.526772448E0,-2.442982197E-1,2.373340577E-1,1.978327334E-1
3.529275469E0,-2.208624035E-1,2.053761482E-1,1.988980174E-1
3.531778542E0,-1.899697781E-1,1.670266688E-1,1.999632716E-1
3.534281563E0,-1.654687226E-1,1.286771744E-1,2.010285556E-1
3.536783125E0,-1.399023831E-1,9.139295667E-2,2.010285556E-1
3.539286198E0,-1.143360585E-1,4.878240824E-2,2.020938098E-1
3.541789271E0,-8.983499557E-2,7.237134036E-3,1.988980174E-1
3.544292292E0,-6.426867098E-2,-3.111235239E-2,1.957022250E-1
3.546795313E0,-3.763708845E-2,-6.626604497E-2,1.893106401E-1
3.549298386E0,-1.633182168E-2,-9.609343112E-2,1.829190552E-1
3.551801458E0,7.123951800E-4,-1.184639558E-1,1.743969619E-1
3.554304479E0,1.562608406E-2,-1.365734488E-1,1.626790464E-1
3.556807552E0,2.201766521E-2,-1.536176503E-1,1.562874615E-1
3.559310573E0,2.095240168E-2,-1.632050276E-1,1.562874615E-1
3.561813646E0,1.882187463E-2,-1.759881973E-1,1.605485380E-1
3.564316667E0,1.136502996E-2,-1.791839749E-1,1.637443304E-1
3.566821667E0,7.123951800E-4,-1.781187207E-1,1.669400930E-1
3.569324740E0,-9.940239601E-3,-1.770534515E-1,1.722664237E-1
3.571827761E0,-2.378866635E-2,-1.642702818E-1,1.765274704E-1
3.574330833E0,-3.976761550E-2,-1.472260803E-1,1.786580086E-1
3.576833906E0,-5.574657023E-2,-1.227250099E-1,1.786580086E-1
3.579336927E0,-6.639920175E-2,-8.331026137E-2,1.786580086E-1
3.581839948E0,-7.492130995E-2,-4.389551654E-2,1.786580086E-1
3.584343073E0,-8.663920313E-2,5.106606986E-3,1.786580086E-1
3.586846094E0,-9.729184210E-2,5.623925105E-2,1.829190552E-1
3.589349115E0,-1.079444811E-1,1.116329581E-1,1.807885468E-1
3.591852188E0,-1.122055352E-1,1.648961306E-1,1.818538010E-1
3.594355208E0,-1.239234284E-1,2.245509028E-1,1.839843392E-1
3.596870365E0,-1.324455440E-1,2.842056155E-1,1.850495934E-1
3.599373438E0,-1.409676522E-1,3.385340869E-1,1.871801019E-1
3.601876511E0,-1.505550295E-1,3.917972445E-1,1.914411783E-1
3.604379531E0,-1.601423919E-1,4.450604320E-1,1.914411783E-1
3.606882604E0,-1.654687226E-1,4.983236194E-1,1.893106401E-1
3.609385677E0,-1.729255617E-1,5.419993997E-1,1.861148477E-1
3.611888698E0,-1.750560850E-1,5.846099257E-1,1.850495934E-1
3.614391719E0,-1.697297692E-1,6.197636724E-1,1.829190552E-1
3.616894792E0,-1.612076610E-1,6.463952065E-1,1.807885468E-1
3.619397813E0,-1.526855528E-1,6.645047069E-1,1.807885468E-1
3.621900886E0,-1.313802749E-1,6.772878766E-1,1.797232628E-1
3.624403906E0,-1.175318509E-1,6.783531308E-1,1.775927544E-1
3.626894011E0,-1.004876345E-1,6.708962917E-1,1.786580086E-1
3.629397083E0,-8.450867981E-2,6.559826136E-1,1.733317077E-1
3.631900156E0,-6.000762433E-2,6.613088846E-1,1.648095846E-1
3.634403229E0,-1.207076758E-2,6.932668686E-1,1.488306224E-1
3.636906250E0,3.480082750E-2,7.145720720E-1,1.253948212E-1
3.639409271E0,8.593347669E-2,7.294857502E-1,9.876324236E-2
3.641912344E0,1.370661110E-1,7.209636569E-1,7.532744855E-2
3.644415365E0,1.732850820E-1,6.836794615E-1,6.360954791E-2
3.646918438E0,1.839377135E-1,6.282857656E-1,6.041375548E-2
3.649421458E0,1.754156053E-1,5.590436459E-1,5.615270883E-2
3.651924531E0,1.562408656E-1,4.908667505E-1,4.869585857E-2
3.654427552E0,1.274787486E-1,4.290814698E-1,4.336954281E-2
3.656930104E0,9.978190809E-2,3.747530282E-1,3.910848871E-2
3.659433229E0,6.888926774E-2,3.300119638E-1,4.230427742E-2
3.661936198E0,3.906188160E-2,2.810098529E-1,4.443480447E-2
3.664439271E0,1.349555701E-2,2.437256277E-1,4.123901576E-2
3.666942344E0,-3.528683446E-4,2.117677182E-1,3.591270000E-2
3.669445365E0,-8.874977008E-3,1.691571921E-1,3.591270000E-2
3.671948438E0,-1.846234873E-2,1.222855896E-1,3.804322705E-2
3.674451458E0,-2.698445693E-2,7.008767873E-2,4.123901576E-2
3.676954531E0,-3.657182679E-2,1.895503327E-2,4.336954281E-2
3.679457552E0,-4.615919665E-2,-3.111235239E-2,4.336954281E-2
3.681960625E0,-6.213814765E-2,-7.372289151E-2,4.443480447E-2
3.684463698E0,-7.705183327E-2,-1.152681708E-1,5.402217805E-2
3.686994531E0,-9.303078800E-2,-1.482913345E-1,6.147902459E-2
3.689497604E0,-1.143360585E-1,-1.706618667E-1,7.000112534E-2
3.692000625E0,-1.399023831E-1,-1.770534515E-1,7.213165611E-2
3.694503698E0,-1.665339768E-1,-1.685313433E-1,7.745797187E-2
3.697006771E0,-1.931655705E-1,-1.472260803E-1,8.491481841E-2
3.699509792E0,-2.219276875E-1,-1.131376401E-1,9.237166494E-2
3.702012865E0,-2.517550588E-1,-7.265762985E-2,1.019590348E-1
3.704515886E0,-2.837129533E-1,-2.259024419E-2,1.104811430E-1
3.707018958E0,-3.124750555E-1,3.812977299E-2,1.158074662E-1
3.709521979E0,-3.305845559E-1,1.073719040E-1,1.211337671E-1
3.712025052E0,-3.423024714E-1,1.808750927E-1,1.275253594E-1
3.714528073E0,-3.486940265E-1,2.522477508E-1,1.328516901E-1
3.717003698E0,-3.465635180E-1,3.161635399E-1,1.371127367E-1
3.719506771E0,-3.369761407E-1,3.736877739E-1,1.392432451E-1
3.722009792E0,-3.209971786E-1,4.258856773E-1,1.424390674E-1
3.724512865E0,-3.018224537E-1,4.738225341E-1,1.403085291E-1
3.727015938E0,-2.837129533E-1,5.238899589E-1,1.403085291E-1
3.729518958E0,-2.592119277E-1,5.686309934E-1,1.371127367E-1
3.732022031E0,-2.379066348E-1,6.123068333E-1,1.349821985E-1
3.734525052E0,-2.123403102E-1,6.581131816E-1,1.339169443E-1
3.737028125E0,-1.899697781E-1,7.017889619E-1,1.349821985E-1
3.739531146E0,-1.633381993E-1,7.422689199E-1,1.381779909E-1
3.742034219E0,-1.462939680E-1,7.731615305E-1,1.435043216E-1
3.744537240E0,-1.249886900E-1,8.029889464E-1,1.477653682E-1
3.747073021E0,-1.090097427E-1,8.306857944E-1,1.562874615E-1
3.749576094E0,-1.004876345E-1,8.573173881E-1,1.616137922E-1
3.752079115E0,-9.303078800E-2,8.764921427E-1,1.701358855E-1
3.754582188E0,-8.983499557E-2,8.882099986E-1,1.807885468E-1
3.757085261E0,-8.770447224E-2,8.946016431E-1,1.935716867E-1
3.759588281E0,-8.770447224E-2,8.892753124E-1,2.074201107E-1
3.762091354E0,-9.516131878E-2,8.679700494E-1,2.180727422E-1
3.764594375E0,-1.015528962E-1,8.381426334E-1,2.244643271E-1
3.767097448E0,-1.154013202E-1,8.008584380E-1,2.351169586E-1
3.769600469E0,-1.271192282E-1,7.625089884E-1,2.415085733E-1
3.772103542E0,-1.399023831E-1,7.209636569E-1,2.415085733E-1
3.774606563E0,-1.537508219E-1,6.783531308E-1,2.415085733E-1
3.777160938E0,-1.590771377E-1,6.346772909E-1,2.425738275E-1
3.779664011E0,-1.601423919E-1,5.952625871E-1,2.436390817E-1
3.782167031E0,-1.633381993E-1,5.494562387E-1,2.468349040E-1
3.784670104E0,-1.675992459E-1,4.972583055E-1,2.447043359E-1
3.787173177E0,-1.686645001E-1,4.450604320E-1,2.489654124E-1
3.789676198E0,-1.686645001E-1,3.917972445E-1,2.500306666E-1
3.792179271E0,-1.665339768E-1,3.406645954E-1,2.479001284E-1
3.794682292E0,-1.622729152E-1,2.959235311E-1,2.479001284E-1
3.797185365E0,-1.665339768E-1,2.501171827E-1,2.436390817E-1
3.799688386E0,-1.654687226E-1,2.096371949E-1,2.447043359E-1
3.802191406E0,-1.686645001E-1,1.851361394E-1,2.436390817E-1
3.804694479E0,-1.729255617E-1,1.712877154E-1,2.436390817E-1
3.807148073E0,-1.782518774E-1,1.808750927E-1,2.489654124E-1
3.809651146E0,-1.910350323E-1,2.053761482E-1,2.510959506E-1
3.812154167E0,-1.995571405E-1,2.394645810E-1,2.596180439E-1
3.814657240E0,-2.059487253E-1,2.831403613E-1,2.692053914E-1
3.817160313E0,-2.102097720E-1,3.321424723E-1,2.851843834E-1
3.819663333E0,-2.123403102E-1,3.811446130E-1,3.043591082E-1
3.822166406E0,-2.112750411E-1,4.301467240E-1,3.214033544E-1
3.824669427E0,-2.080792487E-1,4.802141190E-1,3.437738419E-1
3.827172500E0,-1.974266171E-1,5.377383232E-1,3.576222658E-1
3.829675521E0,-1.771866083E-1,5.995236039E-1,3.650791347E-1
3.832178594E0,-1.590771377E-1,6.549173594E-1,3.842538595E-1
3.834681615E0,-1.473592371E-1,6.996583939E-1,4.140812457E-1
3.837175104E0,-1.399023831E-1,7.433342338E-1,4.481697083E-1
3.839678177E0,-1.356413364E-1,7.902057767E-1,4.748012722E-1
3.842181198E0,-1.409676522E-1,8.349468708E-1,5.003675818E-1
3.844684271E0,-1.548160911E-1,8.807531595E-1,5.291296840E-1
3.847187344E0,-1.707950234E-1,9.180374146E-1,5.515002012E-1
3.849690365E0,-1.984918863E-1,9.521258473E-1,5.728055239E-1
3.852193438E0,-2.315150648E-1,9.744963646E-1,5.962412953E-1
3.854696458E0,-2.613424361E-1,9.862142801E-1,6.186118126E-1
3.857199531E0,-2.954308689E-1,9.904753566E-1,6.441780925E-1
3.859702552E0,-3.284540474E-1,9.968668818E-1,6.718750000E-1
3.862205625E0,-3.550856411E-1,1.016041756E0,7.123550177E-1
3.864708646E0,-3.827824593E-1,1.038412213E0,7.517697215E-1
3.867244115E0,-4.072835445E-1,1.059717536E0,7.890539765E-1
3.869747188E0,-4.317846000E-1,1.077826977E0,8.284686804E-1
3.872250261E0,-4.488287866E-1,1.086349130E0,8.689487576E-1
3.874753281E0,-4.797214270E-1,1.099132299E0,9.115592837E-1
3.877256354E0,-5.020919442E-1,1.098067045E0,9.584308863E-1
3.879759375E0,-5.180708766E-1,1.079957485E0,1.002106667E0
3.882262448E0,-5.404414535E-1,1.053325891E0,1.044717193E0
3.884765469E0,-5.564203858E-1,1.026694298E0,1.084131956E0
3.887268542E0,-5.723993182E-1,9.989973903E-1,1.124611974E0
3.889771563E0,-5.766603947E-1,9.691700339E-1,1.157635212E0
3.892274583E0,-5.947698951E-1,9.361469150E-1,1.199180484E0
3.894777656E0,-6.182056665E-1,9.052542448E-1,1.243921518E0
3.897228177E0,-6.427067518E-1,8.807531595E-1,1.289727807E0
3.899731250E0,-6.672077775E-1,8.679700494E-1,1.335534215E0
3.902234323E0,-6.885131001E-1,8.775574565E-1,1.374948859E0
3.904737344E0,-7.162099481E-1,8.860795498E-1,1.425016284E0
3.907240417E0,-7.428415418E-1,9.073847532E-1,1.479344726E0
3.909743438E0,-7.716035843E-1,9.382774234E-1,1.538999557E0
3.912246511E0,-8.024962544E-1,9.808880091E-1,1.597589016E0
3.914749531E0,-8.365846872E-1,1.037347078E0,1.654047966E0
3.917252604E0,-8.696078658E-1,1.103393316E0,1.712637424E0
3.919755625E0,-9.005005360E-1,1.172635436E0,1.766965866E0
3.922258698E0,-9.260668159E-1,1.245073318E0,1.822359681E0
3.924761719E0,-9.431110620E-1,1.315380692E0,1.875622749E0
3.927284583E0,-9.590899944E-1,1.381427169E0,1.928885937E0
3.929787656E0,-9.686774015E-1,1.444277644E0,1.980018616E0
3.932290677E0,-9.793300033E-1,1.491149306E0,2.031151295E0
3.934793750E0,-9.814605117E-1,1.530563951E0,2.079087973E0
3.937296823E0,-9.814605117E-1,1.551869273E0,2.122763872E0
3.939799844E0,-9.857215881E-1,1.563587189E0,2.162178516E0
3.942302917E0,-9.867868423E-1,1.568913460E0,2.193071127E0
3.944805938E0,-9.835910201E-1,1.563587189E0,2.220768213E0
3.947309011E0,-9.761341810E-1,1.544412494E0,2.241008282E0
3.949812031E0,-9.740036726E-1,1.515650272E0,2.272965908E0
3.952315104E0,-9.644162655E-1,1.487953544E0,2.313446045E0
3.954818125E0,-9.580247402E-1,1.455995560E0,2.352860689E0
3.957330573E0,-9.569594264E-1,1.426168203E0,2.391210318E0
3.959833594E0,-9.654815793E-1,1.397405982E0,2.427429438E0
3.962336667E0,-9.740036726E-1,1.354795575E0,2.454061031E0
3.964839688E0,-9.803953171E-1,1.303662777E0,2.475366116E0
3.967342761E0,-9.963742495E-1,1.244008183E0,2.491345167E0
3.969845833E0,-1.010222793E0,1.173700690E0,2.495606184E0
3.972348854E0,-1.020875335E0,1.103393316E0,2.503062963E0
3.974851875E0,-1.026201725E0,1.039477587E0,2.514780998E0
3.977354948E0,-1.029397607E0,9.681047797E-1,2.521172523E0
3.979857969E0,-1.032593369E0,8.946016431E-1,2.525433540E0
3.982361042E0,-1.037919641E0,8.242942691E-1,2.527564049E0
3.984864063E0,-1.040050149E0,7.497257590E-1,2.525433540E0
3.987356719E0,-1.035789132E0,6.677004695E-1,2.526498795E0
3.989859792E0,-1.021940589E0,5.750225782E-1,2.528629303E0
3.992362865E0,-1.011288047E0,4.887362421E-1,2.516911268E0
3.994865886E0,-9.953089356E-1,4.077762067E-1,2.512650251E0
3.997368906E0,-9.761341810E-1,3.182940483E-1,2.511584997E0
3.999871979E0,-9.612205625E-1,2.735530138E-1,2.511584997E0
4.002375052E0,-9.399152398E-1,2.298772037E-1,2.531825066E0
4.004878073E0,-9.207404852E-1,1.915277243E-1,2.557391405E0
4.007381146E0,-8.919784427E-1,1.744834930E-1,2.584022999E0
4.009884167E0,-8.664121032E-1,1.606350839E-1,2.604263067E0
4.012387240E0,-8.238015175E-1,1.190897971E-1,2.579761744E0
4.014890261E0,-7.524288893E-1,3.919503465E-2,2.503062963E0
4.017397240E0,-6.682730317E-1,-3.537340835E-2,2.430625200E0
4.019900313E0,-5.702688098E-1,-1.227250099E-1,2.324098825E0
4.022403333E0,-4.562856555E-1,-2.303166240E-1,2.164309263E0
4.024906406E0,-3.391066492E-1,-3.677356243E-1,1.989606023E0
4.027409479E0,-2.517550588E-1,-5.051546097E-1,1.819163799E0
4.029912500E0,-2.091445178E-1,-6.265946627E-1,1.651917338E0
4.032415573E0,-2.091445178E-1,-7.267294526E-1,1.516628981E0
4.034918594E0,-2.389718890E-1,-8.183420897E-1,1.420755267E0
4.037421667E0,-2.826476991E-1,-8.971715569E-1,1.337664723E0
4.039924688E0,-3.231277168E-1,-9.600221515E-1,1.283336163E0
4.042427761E0,-3.625424504E-1,-1.004763126E0,1.253508806E0
4.044930781E0,-4.019572139E-1,-1.021807432E0,1.243921518E0
4.047469375E0,-4.530898631E-1,-9.994369149E-1,1.244986773E0
4.049972396E0,-5.074182749E-1,-9.408473969E-1,1.243921518E0
4.052475469E0,-5.542898774E-1,-8.577568531E-1,1.246052027E0
4.054978490E0,-6.064877510E-1,-7.544263005E-1,1.252443671E0
4.057481563E0,-6.586856842E-1,-6.447041631E-1,1.250313163E0
4.059984583E0,-7.098183036E-1,-5.403083563E-1,1.247117281E0
4.062487656E0,-7.577552199E-1,-4.540219903E-1,1.243921518E0
4.064990677E0,-7.993004322E-1,-3.922367096E-1,1.230072975E0
4.067493750E0,-8.312584162E-1,-3.496261537E-1,1.216224670E0
4.069996771E0,-8.621510267E-1,-3.379082680E-1,1.208767891E0
4.072499844E0,-8.855867982E-1,-3.581482470E-1,1.214094162E0
4.075002865E0,-9.058268070E-1,-4.007588029E-1,1.221550941E0
4.077449792E0,-9.207404852E-1,-4.465651214E-1,1.231138349E0
4.079952865E0,-9.303278923E-1,-4.753272533E-1,1.239660382E0
4.082455938E0,-9.313931465E-1,-5.030241013E-1,1.248182535E0
4.084958958E0,-9.335236549E-1,-5.339167714E-1,1.267357349E0
4.087461979E0,-9.388499856E-1,-5.648093820E-1,1.283336163E0
4.089965052E0,-9.388499856E-1,-5.818535686E-1,1.301445723E0
4.092468125E0,-9.367194772E-1,-5.882452130E-1,1.317424655E0
4.094971146E0,-9.281973839E-1,-5.861146450E-1,1.340860486E0
4.097474219E0,-9.164794683E-1,-5.765272975E-1,1.368557215E0
4.099977240E0,-8.951741457E-1,-5.573525429E-1,1.384536266E0
4.102480313E0,-8.610857725E-1,-5.200682878E-1,1.393058419E0
4.104983386E0,-8.291278481E-1,-4.945019782E-1,1.417559505E0
4.107515729E0,-7.875825763E-1,-4.891756773E-1,1.494258404E0
4.110018802E0,-7.343194485E-1,-4.827840924E-1,1.564565778E0
4.112521823E0,-6.778604388E-1,-4.454998970E-1,1.599719524E0
4.115024896E0,-6.267278194E-1,-3.741272092E-1,1.626351118E0
4.117527969E0,-5.798561573E-1,-2.910366654E-1,1.646591067E0
4.120030990E0,-5.361803770E-1,-2.132724077E-1,1.666831017E0
4.122534063E0,-5.042224526E-1,-1.568134576E-1,1.665765882E0
4.125037136E0,-4.786562026E-1,-1.035502702E-1,1.646591067E0
4.127540156E0,-4.690688252E-1,-5.561341718E-2,1.621024847E0
4.130043177E0,-4.797214270E-1,-3.430814296E-2,1.568826914E0
4.132546250E0,-5.031571984E-1,-3.430814296E-2,1.499584794E0
4.135049271E0,-5.351151228E-1,-5.348289013E-2,1.431407809E0
4.137518698E0,-5.766603947E-1,-9.609343112E-2,1.362165809E0
4.140021771E0,-6.203362346E-1,-1.600092351E-1,1.302510977E0
4.142524844E0,-6.618815064E-1,-2.271208465E-1,1.248182535E0
4.145027865E0,-7.076878548E-1,-3.027545512E-1,1.183201432E0
4.147530938E0,-7.428415418E-1,-3.528219461E-1,1.129938245E0
4.150033958E0,-7.747994065E-1,-3.730619550E-1,1.073479414E0
4.152537031E0,-7.982351780E-1,-3.762577474E-1,1.024477243E0
4.155040052E0,-8.142141700E-1,-3.666703701E-1,9.818666577E-1
4.157543125E0,-8.216710091E-1,-3.506914079E-1,9.328645468E-1
4.160046146E0,-8.269973397E-1,-3.666703701E-1,9.019718766E-1
4.162549219E0,-8.387152553E-1,-3.442998528E-1,8.881235123E-1
4.165052240E0,-8.451067805E-1,-2.580134869E-1,8.774708509E-1
4.167553542E0,-8.323236108E-1,-1.972934604E-1,8.721445799E-1
4.170056615E0,-8.227363229E-1,-1.685313433E-1,8.774708509E-1
4.172559688E0,-8.163446784E-1,-1.280513257E-1,8.774708509E-1
4.175062708E0,-8.110184073E-1,-8.650605381E-2,8.614919186E-1
4.177565729E0,-8.131489158E-1,-7.691868395E-2,8.348603249E-1
4.180068802E0,-8.174099326E-1,-5.454815552E-2,8.327297568E-1
4.182571875E0,-8.206057549E-1,-2.578603476E-2,8.316645026E-1
4.185074896E0,-8.174099326E-1,-1.832919009E-2,8.220771551E-1
4.187577969E0,-8.120836616E-1,-3.004708886E-2,8.092939854E-1
4.190080990E0,-8.056920767E-1,-4.815657064E-2,7.837277055E-1
4.192584063E0,-8.078225851E-1,-1.300287247E-2,7.517697215E-1
4.195087136E0,-8.099530935E-1,3.173819184E-2,7.475087047E-1
4.197590000E0,-8.067572713E-1,4.984766990E-2,7.656182051E-1
4.200093073E0,-8.099530935E-1,7.967504859E-2,7.826623917E-1
4.202596146E0,-8.184751868E-1,1.510477066E-1,7.911845446E-1
4.205099167E0,-8.195405006E-1,2.479866743E-1,8.060981631E-1
4.207602240E0,-8.110184073E-1,3.278814256E-1,8.188813925E-1
4.210105261E0,-8.067572713E-1,3.928624988E-1,8.274034858E-1
4.212608333E0,-7.993004322E-1,4.706267416E-1,8.455129862E-1
4.215111354E0,-8.184751868E-1,6.495909691E-1,8.582960963E-1
4.217614427E0,-8.227363229E-1,8.200331926E-1,8.806666732E-1
4.220117448E0,-7.939741611E-1,8.455994725E-1,9.083634615E-1
4.222620521E0,-7.609509826E-1,8.392079473E-1,9.349950552E-1
4.225123594E0,-7.332541347E-1,8.615784049E-1,9.754751325E-1
4.227629375E0,-6.863825321E-1,8.562521338E-1,1.025542498E0
4.230132448E0,-6.437720060E-1,7.944668531E-1,1.051108837E0
4.232635521E0,-5.947698951E-1,7.529215813E-1,1.064957142E0
4.235138542E0,-5.500288606E-1,7.273553014E-1,1.053239226E0
4.237641615E0,-5.106140971E-1,6.922015548E-1,1.042586684E0
4.240144636E0,-4.669382870E-1,6.250899434E-1,1.015955091E0
4.242647708E0,-4.094140530E-1,5.579783320E-1,9.871929884E-1
4.245150729E0,-3.465635180E-1,4.940625429E-1,9.573656321E-1
4.247653802E0,-2.826476991E-1,4.205593467E-1,9.232771993E-1
4.250156823E0,-2.240582108E-1,3.076414466E-1,8.710792661E-1
4.252659896E0,-1.601423919E-1,2.064414173E-1,8.242076635E-1
4.255162917E0,-1.026181653E-1,1.233508661E-1,7.645529509E-1
4.257664323E0,-5.894235894E-2,4.239082709E-2,7.006371021E-1
4.260167396E0,-2.485392801E-2,-1.513339952E-2,6.409823298E-1
4.262670469E0,1.349555701E-2,-3.856920078E-2,5.909149647E-1
4.265173490E0,4.012714699E-2,-4.069972783E-2,5.387170911E-1
4.267676563E0,5.823662505E-2,-2.045971714E-2,4.971717894E-1
4.270179583E0,7.847663760E-2,7.237134036E-3,4.673444033E-1
4.272682656E0,9.658611566E-2,4.771714285E-2,4.524307549E-1
4.275185677E0,1.114998013E-1,1.031108499E-1,4.556265175E-1
4.277688750E0,1.200219095E-1,1.478519291E-1,4.534959793E-1
4.280191771E0,1.306745410E-1,1.872666776E-1,4.439086318E-1
4.282694844E0,1.477187574E-1,2.341382504E-1,4.630833566E-1
4.285197917E0,1.732850820E-1,2.980540693E-1,4.950412810E-1
4.287701042E0,1.977861524E-1,3.672961891E-1,5.344560146E-1
4.290204115E0,2.265482694E-1,4.354730546E-1,5.728055239E-1
4.292707188E0,2.542451322E-1,5.025846362E-1,6.047633886E-1
4.295210208E0,2.893988192E-1,5.728920102E-1,6.548307538E-1
4.297713281E0,3.277482986E-1,6.378731132E-1,7.187466025E-1
4.300216302E0,3.618367314E-1,7.060499787E-1,7.762708068E-1
4.302719375E0,3.959251344E-1,7.763573527E-1,8.305992484E-1
4.305222396E0,4.214914739E-1,8.466647863E-1,8.796014190E-1
4.307725469E0,4.502536058E-1,9.585174322E-1,9.371256232E-1
4.310228490E0,4.779504538E-1,1.067174435E0,1.001041412E0
4.312731563E0,4.907336235E-1,1.143873334E0,1.052174091E0
4.315234636E0,5.003210306E-1,1.213115454E0,1.109698296E0
4.317774063E0,5.109736919E-1,1.291944981E0,1.165091991E0
4.320277188E0,5.152347088E-1,1.363317609E0,1.210898280E0
4.322780208E0,5.120388865E-1,1.403797626E0,1.250313163E0
4.325283229E0,4.992556870E-1,1.414450288E0,1.274814129E0
4.327786302E0,4.726241231E-1,1.394210339E0,1.282271028E0
4.330289323E0,4.427967668E-1,1.350534439E0,1.282271028E0
4.332792396E0,4.087083042E-1,1.300467014E0,1.272683620E0
4.335295417E0,3.767504096E-1,1.250399709E0,1.262031078E0
4.337798490E0,3.618367314E-1,1.191810131E0,1.239660382E0
4.340301511E0,3.522493541E-1,1.131090164E0,1.218355179E0
4.342804583E0,3.575756550E-1,1.073565960E0,1.202376246E0
4.345307656E0,3.533146083E-1,1.039477587E0,1.184266686E0
4.347772656E0,3.309440911E-1,1.099132299E0,1.172548890E0
4.350275729E0,3.586409390E-1,1.072500706E0,1.164026737E0
4.352778802E0,4.087083042E-1,9.222984314E-1,1.143786788E0
4.355281823E0,4.459925592E-1,7.752920985E-1,1.126742482E0
4.357784844E0,4.662325382E-1,6.708962917E-1,1.107567787E0
4.360287917E0,4.630367458E-1,6.016541719E-1,1.097980380E0
4.362790990E0,4.332093894E-1,5.686309934E-1,1.092654109E0
4.365294011E0,3.778156638E-1,6.037846804E-1,1.088392973E0
4.367797083E0,2.936598659E-1,7.167026401E-1,1.088392973E0
4.370300104E0,2.286787927E-1,7.603784204E-1,1.082001448E0
4.372803177E0,1.711545587E-1,7.518563271E-1,1.064957142E0
4.375306250E0,1.157608554E-1,7.081805468E-1,1.051108837E0
4.377810365E0,6.782399863E-2,6.346772909E-1,1.030868769E0
4.380313438E0,6.038712338E-3,5.686309934E-1,1.014889836E0
4.382816511E0,-5.255078152E-2,5.185635686E-1,1.003171921E0
4.385319531E0,-1.164665818E-1,4.706267416E-1,9.967803955E-1
4.387822604E0,-1.825129241E-1,4.045804143E-1,9.829319119E-1
4.390325625E0,-2.517550588E-1,3.321424723E-1,9.658877254E-1
4.392828698E0,-3.124750555E-1,2.458561510E-1,9.573656321E-1
4.395331719E0,-3.838477433E-1,1.531782299E-1,9.424519539E-1
4.397834792E0,-4.562856555E-1,5.517398566E-2,9.222119451E-1
4.400337813E0,-5.372456312E-1,-7.159236819E-2,8.881235123E-1
4.402840886E0,-6.245972514E-1,-2.122071385E-1,8.540350795E-1
4.405343958E0,-7.034267187E-1,-3.176682591E-1,8.316645026E-1
4.407863542E0,-7.801256776E-1,-3.751924932E-1,8.146203160E-1
4.410366615E0,-8.557594419E-1,-3.751924932E-1,8.071634769E-1
4.412869636E0,-9.260668159E-1,-3.283208907E-1,8.199465871E-1
4.415372708E0,-9.942436814E-1,-2.761229575E-1,8.391213417E-1
4.417875781E0,-1.051768064E0,-2.335124314E-1,8.529698253E-1
4.420378802E0,-1.103965878E0,-1.951629370E-1,8.764055967E-1
4.422881875E0,-1.160424948E0,-1.781187207E-1,9.072982669E-1
4.425384896E0,-1.203035474E0,-1.685313433E-1,9.360603094E-1
4.427887969E0,-1.234993339E0,-1.440302730E-1,9.722793102E-1
4.430390990E0,-1.268016577E0,-1.163334325E-1,1.001041412E0
4.432894063E0,-1.320214391E0,-1.024850085E-1,1.012759328E0
4.435397083E0,-1.363890171E0,-1.078113243E-1,1.019150853E0
4.437935833E0,-1.393717647E0,-1.397692263E-1,1.030868769E0
4.440438906E0,-1.413957596E0,-1.738576591E-1,1.050043464E0
4.442941927E0,-1.438458681E0,-2.068808377E-1,1.079870820E0
4.445445000E0,-1.468286157E0,-2.345776856E-1,1.106502414E0
4.447948073E0,-1.514092326E0,-2.569482327E-1,1.135264635E0
4.450451094E0,-1.609966159E0,-2.516218722E-1,1.192788839E0
4.452954167E0,-1.691991448E0,-2.175334692E-1,1.230072975E0
4.455457188E0,-1.727145076E0,-1.440302730E-1,1.238595247E0
4.457960261E0,-1.736732483E0,-6.839657575E-2,1.236464620E0
4.460463281E0,-1.718623042E0,-2.898182534E-2,1.239660382E0
4.462966354E0,-1.698382974E0,-2.152498066E-2,1.240725756E0
4.465469375E0,-1.673881888E0,-5.241762847E-2,1.247117281E0
4.467923333E0,-1.637662888E0,-1.142029092E-1,1.259900451E0
4.470426406E0,-1.599313498E0,-1.813144982E-1,1.280140400E0
4.472929479E0,-1.549246073E0,-2.558829784E-1,1.315294266E0
4.475432500E0,-1.487460732E0,-3.027545512E-1,1.349382639E0
4.477935573E0,-1.413957596E0,-3.080808818E-1,1.369622588E0
4.480438594E0,-1.329801798E0,-3.027545512E-1,1.373883724E0
4.482941667E0,-1.236058712E0,-2.878408730E-1,1.361100435E0
4.485444688E0,-1.131662846E0,-2.761229575E-1,1.347252131E0
4.487947813E0,-1.024071217E0,-2.697314024E-1,1.333403587E0
4.490450781E0,-9.132836461E-1,-2.633398175E-1,1.312098384E0
4.492953854E0,-7.971699238E-1,-2.622745335E-1,1.298249841E0
4.495456927E0,-6.853172779E-1,-2.984935045E-1,1.282271028E0
4.497965417E0,-5.766603947E-1,-3.347124755E-1,1.267357349E0
4.500468490E0,-4.754603803E-1,-3.826493323E-1,1.255639434E0
4.502971563E0,-3.699992895E-1,-4.295209050E-1,1.238595247E0
4.505474583E0,-2.698645294E-1,-4.668051600E-1,1.210898280E0
4.507977656E0,-1.739908308E-1,-4.763925076E-1,1.175744653E0
4.510480677E0,-6.639920175E-2,-4.636093378E-1,1.133134007E0
4.512983750E0,4.332293943E-2,-4.391082823E-1,1.076675057E0
4.515486771E0,1.583714038E-1,-4.007588029E-1,1.021281362E0
4.517989844E0,2.734198570E-1,-3.549524546E-1,9.829319119E-1
4.520492865E0,3.874030411E-1,-3.048850894E-1,9.424519539E-1
4.522995938E0,4.960599244E-1,-2.654703557E-1,8.966456056E-1
4.525499011E0,6.025863290E-1,-2.505566180E-1,8.423171639E-1
4.528048542E0,7.069821358E-1,-2.430997789E-1,7.858581543E-1
4.530551615E0,7.985948324E-1,-2.377734780E-1,7.293992043E-1
4.533054636E0,8.763590455E-1,-2.239250541E-1,6.633528471E-1
4.535557708E0,9.456011653E-1,-2.345776856E-1,5.866538882E-1
4.538060781E0,9.967337847E-1,-2.399040014E-1,4.939760268E-1
4.540563802E0,1.011647344E0,-1.866408288E-1,4.044938982E-1
4.543066875E0,1.024430633E0,-1.578787118E-1,3.256644011E-1
4.545569896E0,1.039344311E0,-1.759881973E-1,2.542917430E-1
4.548072969E0,1.038278937E0,-2.047503144E-1,1.935716867E-1
4.550575990E0,1.028691530E0,-2.558829784E-1,1.328516901E-1
4.553079063E0,1.008451581E0,-3.240598142E-1,7.852323353E-2
4.555582136E0,9.722327590E-1,-3.901061714E-1,2.632532455E-2
4.558074948E0,9.179043174E-1,-4.497609437E-1,-1.308942493E-2
4.560578021E0,8.497274518E-1,-4.987630248E-1,-4.717785493E-2
4.563081094E0,7.645063996E-1,-5.147420168E-1,-7.807049900E-2
4.565584115E0,6.611757874E-1,-4.998283088E-1,-1.100284085E-1
4.568087188E0,5.610410571E-1,-4.625441134E-1,-1.377252638E-1
4.570590208E0,4.598409832E-1,-4.305861890E-1,-1.632915735E-1
4.573093281E0,3.671630323E-1,-4.050198793E-1,-1.867273748E-1
4.575596302E0,2.744851112E-1,-3.794535398E-1,-2.037715912E-1
4.578099375E0,1.945903450E-1,-3.549524546E-1,-2.208158076E-1
4.580602396E0,1.328050643E-1,-3.496261537E-1,-2.282726467E-1
4.583105469E0,7.847663760E-2,-3.645398319E-1,-2.325337231E-1
4.585608490E0,4.012714699E-2,-3.794535398E-1,-2.304031849E-1
4.588109167E0,4.973448813E-3,-3.943672180E-1,-2.272073925E-1
4.590612240E0,-3.124551103E-2,-4.135419726E-1,-2.197505534E-1
4.593115313E0,-6.639920175E-2,-4.391082823E-1,-2.112284303E-1
4.595618333E0,-9.729184210E-2,-4.678703845E-1,-2.112284303E-1
4.598121406E0,-1.239234284E-1,-4.902409315E-1,-2.144242227E-1
4.600624427E0,-1.462939680E-1,-5.008935332E-1,-2.144242227E-1
4.603127500E0,-1.686645001E-1,-4.923714697E-1,-2.069673836E-1
4.605630521E0,-1.857087314E-1,-4.945019782E-1,-1.995105445E-1
4.608133594E0,-2.016876638E-1,-5.030241013E-1,-1.984452605E-1
4.610636615E0,-2.166013569E-1,-5.019588470E-1,-1.952494979E-1
4.613139688E0,-2.357761115E-1,-4.881104231E-1,-1.909884214E-1
4.615642761E0,-2.592119277E-1,-4.731967151E-1,-1.856621206E-1
4.618169792E0,-2.805171907E-1,-4.646746218E-1,-1.835315824E-1
4.620672865E0,-3.028877079E-1,-4.561524987E-1,-1.835315824E-1
4.623175938E0,-3.305845559E-1,-4.465651214E-1,-1.877926290E-1
4.625678958E0,-3.465635180E-1,-4.444346130E-1,-1.877926290E-1
4.628182031E0,-3.625424504E-1,-4.444346130E-1,-1.845968366E-1
4.630685052E0,-3.817172050E-1,-4.508261681E-1,-1.835315824E-1
4.633188125E0,-3.976961672E-1,-4.572177827E-1,-1.824663281E-1
4.635691146E0,-4.126098752E-1,-4.668051600E-1,-1.814010739E-1
4.638194219E0,-4.285888076E-1,-4.806535840E-1,-1.728789508E-1
4.640697240E0,-4.435025156E-1,-4.902409315E-1,-1.622263193E-1
4.643200313E0,-4.541551173E-1,-4.987630248E-1,-1.473126113E-1
4.645703386E0,-4.722646177E-1,-4.881104231E-1,-1.281378865E-1
4.648164688E0,-4.978309274E-1,-4.508261681E-1,-1.078978777E-1
4.650667761E0,-5.244625211E-1,-4.007588029E-1,-9.085366130E-2
4.653170833E0,-5.585509539E-1,-3.485608995E-1,-7.274418324E-2
4.655673854E0,-5.883783102E-1,-3.208640516E-1,-5.250417441E-2
4.658176927E0,-6.054224968E-1,-2.995587885E-1,-2.906837873E-2
4.660679948E0,-6.235319972E-1,-2.697314024E-1,-9.893634357E-3
4.663183021E0,-6.331193447E-1,-2.526871562E-1,1.824264065E-3
4.665686042E0,-6.309888363E-1,-2.260555774E-1,1.993374154E-2
4.668189115E0,-6.384457350E-1,-1.887713522E-1,5.721797049E-2
4.670692136E0,-6.554899216E-1,-1.504218727E-1,1.040895581E-1
4.673195208E0,-6.618815064E-1,-1.301818639E-1,1.467001140E-1
4.675698281E0,-6.490982771E-1,-1.323123872E-1,1.829190552E-1
4.678191042E0,-6.469678283E-1,-1.418997496E-1,2.116811872E-1
4.680694115E0,-6.395109296E-1,-1.525523961E-1,2.393780351E-1
4.683197188E0,-6.331193447E-1,-1.525523961E-1,2.649443448E-1
4.685700208E0,-6.235319972E-1,-1.536176503E-1,2.830538452E-1
4.688203281E0,-6.182056665E-1,-1.514871269E-1,2.862496376E-1
4.690706302E0,-6.203362346E-1,-1.344429106E-1,2.979675233E-1
4.693209375E0,-6.203362346E-1,-1.131376401E-1,3.118159771E-1
4.695712396E0,-6.032919884E-1,-9.289763123E-2,3.331212401E-1
4.698215469E0,-5.723993182E-1,-7.052710652E-2,3.437738419E-1
4.700718490E0,-5.447024703E-1,-3.430814296E-2,3.448391259E-1
4.703221563E0,-5.191361904E-1,1.043292321E-2,3.565570414E-1
4.705724636E0,-4.935698807E-1,6.156557426E-2,3.618833423E-1
4.708261927E0,-4.626772404E-1,1.148287430E-1,3.661443889E-1
4.710765000E0,-4.285888076E-1,1.744834930E-1,3.704054356E-1
4.713268073E0,-3.976961672E-1,2.266814262E-1,3.640138805E-1
4.715771094E0,-3.678687811E-1,2.735530138E-1,3.522959650E-1
4.718274167E0,-3.433677256E-1,3.108372092E-1,3.405780494E-1
4.720777188E0,-3.156708777E-1,3.332077563E-1,3.235338628E-1
4.723280261E0,-2.858434916E-1,3.385340869E-1,3.054243624E-1
4.725783333E0,-2.581466436E-1,3.406645954E-1,2.905106843E-1
4.728286354E0,-2.347108424E-1,3.417298496E-1,2.755970061E-1
4.730789427E0,-2.155361027E-1,3.481214643E-1,2.596180439E-1
4.733292448E0,-1.984918863E-1,3.502519727E-1,2.393780351E-1
4.735795521E0,-1.793171316E-1,3.491866887E-1,2.202032804E-1
4.738268177E0,-1.633381993E-1,3.417298496E-1,1.988980174E-1
4.740771250E0,-1.505550295E-1,3.321424723E-1,1.754622161E-1
4.743274323E0,-1.324455440E-1,3.012498319E-1,1.424390674E-1
4.745777344E0,-1.122055352E-1,2.660961449E-1,1.126116663E-1
4.748280417E0,-1.015528962E-1,2.447908968E-1,9.130640328E-2
4.750783438E0,-9.729184210E-2,2.181593180E-1,7.000112534E-2
4.753286511E0,-9.409605712E-2,1.989845634E-1,5.082638562E-2
4.755789531E0,-8.876973391E-2,1.808750927E-1,2.952111326E-2
4.758292604E0,-8.131288737E-2,1.521129757E-1,6.085318048E-3
4.760795625E0,-7.598657161E-2,1.371992826E-1,-1.202416141E-2
4.763298698E0,-6.959499419E-2,1.382645518E-1,-2.587258816E-2
4.765801771E0,-6.852973253E-2,1.510477066E-1,-3.332943097E-2
4.768311354E0,-7.066025585E-2,1.585045606E-1,-3.652521968E-2
4.770814427E0,-7.066025585E-2,1.627656072E-1,-4.291680455E-2
4.773317448E0,-6.639920175E-2,1.606350839E-1,-5.250417441E-2
4.775820521E0,-5.255078152E-2,1.510477066E-1,-5.996102095E-2
4.778323594E0,-5.361604318E-2,1.606350839E-1,-6.102628261E-2
4.780826615E0,-5.681183189E-2,1.638308614E-1,-6.528733671E-2
4.783329688E0,-4.083288088E-2,1.435908675E-1,-7.700523734E-2
4.785832708E0,-2.698445693E-2,1.201550663E-1,-8.659260720E-2
4.788335781E0,-3.018024750E-2,1.063066423E-1,-7.593997568E-2
4.790838802E0,-6.746446341E-2,1.009803265E-1,-4.504732788E-2
4.793341875E0,-1.100750044E-1,7.967504859E-2,-1.308942493E-2
4.795844948E0,-1.462939680E-1,2.854240686E-2,1.886847988E-2
4.798368698E0,-1.814476550E-1,-5.546028726E-3,5.189164728E-2
4.800871719E0,-2.091445178E-1,-9.807081893E-3,6.254428625E-2
4.803374792E0,-2.229929566E-1,-1.619866304E-2,6.041375548E-2
4.805877813E0,-2.315150648E-1,-3.430814296E-2,6.360954791E-2
4.808380886E0,-2.592119277E-1,-6.093973294E-2,7.745797187E-2
4.810883958E0,-3.082140088E-1,-1.355081648E-1,9.343692660E-2
4.813386979E0,-4.136750996E-1,-2.995587885E-1,1.190032437E-1
4.815890052E0,-5.777256489E-1,-6.255294085E-1,1.925064325E-1
4.818393073E0,-7.215362191E-1,-8.151463270E-1,2.755970061E-1
4.820896146E0,-8.120836616E-1,-8.108852506E-1,3.309907019E-1
4.823399167E0,-8.568246961E-1,-7.522957921E-1,3.640138805E-1
4.825902240E0,-8.738689423E-1,-6.819883585E-1,3.831886053E-1
4.828378490E0,-8.600204587E-1,-6.074199080E-1,3.938412368E-1
4.830881563E0,-8.323236108E-1,-5.435041189E-1,3.970370293E-1
4.833384636E0,-7.875825763E-1,-4.955672622E-1,3.959717751E-1
4.835887656E0,-7.524288893E-1,-4.273903966E-1,3.746664822E-1
4.838390729E0,-7.204709649E-1,-3.645398319E-1,3.491001725E-1
4.840893750E0,-6.853172779E-1,-3.070156276E-1,3.214033544E-1
4.843396823E0,-6.501635909E-1,-2.590787411E-1,2.937064767E-1
4.845899844E0,-6.245972514E-1,-2.090113610E-1,2.692053914E-1
4.848402917E0,-6.086183190E-1,-1.685313433E-1,2.532264590E-1
4.850905938E0,-5.894435644E-1,-1.408344954E-1,2.393780351E-1
4.853409011E0,-5.777256489E-1,-1.056808010E-1,2.297906578E-1
4.855912083E0,-5.809214711E-1,-6.520078331E-2,2.223338187E-1
4.858416094E0,-5.734646320E-1,-3.750393912E-2,2.127464414E-1
4.860919167E0,-5.702688098E-1,-1.513339952E-2,2.052896023E-1
4.863422188E0,-5.692035556E-1,1.682450622E-2,1.935716867E-1
4.865925261E0,-5.713340640E-1,5.410872400E-2,1.786580086E-1
4.868428333E0,-5.798561573E-1,1.063066423E-1,1.594832540E-1
4.870931354E0,-5.905088186E-1,1.531782299E-1,1.392432451E-1
4.873434427E0,-6.064877510E-1,2.160287946E-1,1.264601052E-1
4.875937448E0,-6.405761838E-1,2.405298352E-1,1.168727204E-1
4.878440521E0,-7.971699238E-1,1.276119202E-1,1.456348300E-1
4.880943542E0,-1.195578575E0,1.116329581E-1,1.925064325E-1
4.883446615E0,-1.400109172E0,1.553087533E-1,2.628138363E-1
4.885949688E0,-1.353237629E0,6.689189374E-2,2.745317221E-1
4.888472604E0,-1.214753389E0,-1.284974394E-3,2.681401670E-1
4.890975677E0,-1.064551234E0,-3.856920078E-2,2.532264590E-1
4.893478750E0,-8.898478746E-1,-5.135236308E-2,2.287253737E-1
4.895981771E0,-6.650773287E-1,-6.946183741E-2,1.925064325E-1
4.898484844E0,-4.019572139E-1,-1.163334325E-1,1.541569531E-1
4.900987865E0,-1.633381993E-1,-1.504218727E-1,1.168727204E-1
4.903490938E0,4.973448813E-3,-1.514871269E-1,8.171903342E-2
4.905993958E0,1.104345396E-1,-1.110071167E-1,6.467480958E-2
4.908497031E0,1.796766669E-1,-6.946183741E-2,5.508743972E-2
4.911000052E0,2.158956081E-1,-4.496078193E-2,3.484743088E-2
4.913503125E0,2.031124532E-1,-2.365550771E-2,2.419479750E-2
4.916006146E0,1.647629738E-1,-9.807081893E-3,1.460742671E-2
4.918471042E0,1.274787486E-1,-8.741818368E-3,1.567268930E-2
4.920974115E0,9.552085400E-2,-3.004708886E-2,1.780321635E-2
4.923477188E0,6.675873697E-2,-5.241762847E-2,1.886847988E-2
4.925980208E0,3.693135455E-2,-5.561341718E-2,2.206427045E-2
4.928483229E0,1.349555701E-2,-5.028710142E-2,2.419479750E-2
4.930986302E0,-3.548658919E-3,-4.709130898E-2,2.632532455E-2
4.933489375E0,-1.633182168E-2,-3.856920078E-2,2.526005916E-2
4.935992396E0,-2.591919340E-2,-2.472077124E-2,2.952111326E-2
4.938495469E0,-2.591919340E-2,-1.193760894E-2,2.952111326E-2
4.940998490E0,-2.165813930E-2,-2.197108697E-4,3.058637865E-2
4.943501563E0,-1.420129463E-2,8.302398026E-3,3.058637865E-2
4.946004636E0,-6.744449958E-3,1.362871565E-2,2.845585160E-2
4.948540052E0,-6.744449958E-3,2.215082385E-2,2.419479750E-2
4.951043125E0,-4.613922443E-3,3.280345351E-2,2.312953584E-2
4.953546146E0,-3.548658919E-3,3.493398055E-2,1.567268930E-2
4.956049219E0,-6.744449958E-3,3.493398055E-2,1.141163614E-2
4.958552292E0,-9.940239601E-3,3.386871889E-2,8.215845563E-3
4.961055313E0,-1.207076758E-2,3.067292832E-2,7.150581572E-3
4.963558386E0,-1.313603111E-2,3.067292832E-2,8.215845563E-3
4.966061458E0,-1.739708334E-2,2.641187608E-2,6.085318048E-3
4.968564479E0,-2.059287578E-2,2.641187608E-2,5.020053592E-3
4.971067500E0,-2.165813930E-2,3.173819184E-2,5.020053592E-3
4.973570573E0,-2.378866635E-2,3.280345351E-2,5.020053592E-3
4.976073594E0,-2.485392801E-2,3.280345351E-2,5.020053592E-3
4.978545313E0,-2.591919340E-2,3.706450760E-2,7.150581572E-3
4.981048386E0,-2.059287578E-2,4.026029631E-2,7.150581572E-3
4.983551458E0,-1.739708334E-2,4.345609248E-2,8.215845563E-3
4.986054479E0,-1.739708334E-2,4.984766990E-2,8.215845563E-3
