"Time (s)","Gyroscope x (rad/s)","Gyroscope y (rad/s)","Gyroscope z (rad/s)"
3.480000000E-3,2.459692508E-1,2.855009437E-1,-3.766420484E-1
5.480000000E-3,2.253918201E-1,2.816088796E-1,-3.957184851E-1
7.480000000E-3,2.056521475E-1,2.803522348E-1,-4.164181054E-1
9.480000000E-3,1.878323406E-1,2.807711065E-1,-4.384267032E-1
1.148000000E-2,1.711120754E-1,2.803173363E-1,-4.625296891E-1
1.348000000E-2,1.554739326E-1,2.791828513E-1,-4.890761673E-1
1.548000000E-2,1.405688226E-1,2.777866125E-1,-5.169315934E-1
1.748000000E-2,1.259953231E-1,2.749940753E-1,-5.468814373E-1
1.948000000E-2,1.112123802E-1,2.703863978E-1,-5.795889497E-1
2.148000000E-2,9.731955826E-2,2.641032338E-1,-6.150016785E-1
2.348000000E-2,8.344419301E-2,2.580643892E-1,-6.505714655E-1
2.548000000E-2,6.675884128E-2,2.584483624E-1,-6.751456857E-1
2.748000000E-2,4.827580601E-2,2.620786428E-1,-6.860889196E-1
2.948000000E-2,3.097959422E-2,2.569299042E-1,-6.946585178E-1
3.148000000E-2,1.603957638E-2,2.409427017E-1,-7.091796398E-1
3.348000000E-2,4.276056774E-3,2.208714187E-1,-7.321481705E-1
3.548000000E-2,-5.218534265E-3,2.022662014E-1,-7.626390457E-1
3.748000000E-2,-1.415462047E-2,1.858601123E-1,-8.003032804E-1
3.948000000E-2,-2.188642882E-2,1.703615934E-1,-8.456294537E-1
4.148000000E-2,-2.661627159E-2,1.533097178E-1,-8.972039223E-1
4.348000000E-2,-2.790781483E-2,1.340587437E-1,-9.548172951E-1
4.548000000E-2,-2.527236752E-2,1.161167547E-1,-1.018364668E0
4.748000000E-2,-2.010619268E-2,1.028173491E-1,-1.085577369E0
4.948000000E-2,-1.452113967E-2,9.487609565E-2,-1.154919267E0
5.148000000E-2,-8.779006079E-3,9.039060026E-2,-1.226390481E0
5.348000000E-2,-2.967059612E-3,8.698721230E-2,-1.298716903E0
5.548000000E-2,4.747295752E-3,8.464846760E-2,-1.369821668E0
5.748000000E-2,1.483529899E-2,8.402015269E-2,-1.439809322E0
5.948000000E-2,2.588323317E-2,8.438666910E-2,-1.507737517E0
6.148000000E-2,3.921754658E-2,8.674286306E-2,-1.573588848E0
6.348000000E-2,5.632177368E-2,8.960520476E-2,-1.638270736E0
6.548000000E-2,7.939502597E-2,8.855800331E-2,-1.698693991E0
6.748000000E-2,1.124515608E-1,8.307766914E-2,-1.752642155E0
6.948000000E-2,1.552644968E-1,7.674212754E-2,-1.799853325E0
7.148000000E-2,2.039417177E-1,7.164576650E-2,-1.842107773E0
7.348000000E-2,2.572091818E-1,7.113961875E-2,-1.882983327E0
7.548000000E-2,3.158173263E-1,8.136724681E-2,-1.923614621E0
7.748000000E-2,3.791378736E-1,1.025555432E-1,-1.965083599E0
7.948000000E-2,4.453207552E-1,1.279151738E-1,-2.007529974E0
8.148000000E-2,5.135980248E-1,1.499237865E-1,-2.050692081E0
8.348000000E-2,5.836904645E-1,1.610938907E-1,-2.095093250E0
8.548000000E-2,6.548300982E-1,1.564862132E-1,-2.139040709E0
8.748000000E-2,7.260918617E-1,1.403942853E-1,-2.181556940E0
8.948000000E-2,7.967602611E-1,1.218588874E-1,-2.222537279E0
9.148000000E-2,8.678126335E-1,1.086292937E-1,-2.260358572E0
9.348000000E-2,9.390394688E-1,1.051386371E-1,-2.294689178E0
9.548000000E-2,1.008119583E0,1.103397161E-1,-2.326663494E0
9.748000000E-2,1.074738860E0,1.197295859E-1,-2.356718063E0
9.948000000E-2,1.139106631E0,1.289100200E-1,-2.384730577E0
1.014800000E-1,1.201292634E0,1.335874945E-1,-2.410666227E0
1.034800000E-1,1.261646152E0,1.298175901E-1,-2.433844090E0
1.054800000E-1,1.318404317E0,1.181762442E-1,-2.454962730E0
1.074800000E-1,1.370868802E0,1.043008789E-1,-2.473340988E0
1.094800000E-1,1.418725729E0,9.201376140E-2,-2.487757444E0
1.114800000E-1,1.461259484E0,8.133234084E-2,-2.500253916E0
1.134800000E-1,1.499080777E0,7.288494706E-2,-2.511336803E0
1.154800000E-1,1.531840563E0,6.628760695E-2,-2.521861076E0
1.174800000E-1,1.558753490E0,5.886995420E-2,-2.533083677E0
1.194800000E-1,1.579488039E0,5.110324174E-2,-2.544271231E0
1.214800000E-1,1.593921900E0,4.511675984E-2,-2.553887844E0
1.234800000E-1,1.602962732E0,4.173082113E-2,-2.561584711E0
1.254800000E-1,1.606942058E0,4.192280769E-2,-2.568182230E0
1.274800000E-1,1.604463696E0,4.548327997E-2,-2.573400736E0
1.294800000E-1,1.595248342E0,5.038765445E-2,-2.578043222E0
1.314800000E-1,1.581722140E0,5.429719388E-2,-2.583401442E0
1.334800000E-1,1.564530611E0,5.461135134E-2,-2.590016127E0
1.354800000E-1,1.543010712E0,5.127777159E-2,-2.597748041E0
1.374800000E-1,1.517528892E0,4.516912252E-2,-2.607207775E0
1.394800000E-1,1.488835692E0,3.639011458E-2,-2.618953705E0
1.414800000E-1,1.457594275E0,2.555162087E-2,-2.632253170E0
1.435378120E-1,1.424677372E0,1.197295822E-2,-2.647140980E0
1.454800000E-1,1.390765667E0,-2.356194425E-3,-2.664245129E0
1.474800000E-1,1.356749177E0,-1.799434423E-2,-2.684787512E0
1.494800000E-1,1.321772695E0,-3.951425478E-2,-2.709867954E0
1.514800000E-1,1.285749197E0,-6.499606371E-2,-2.739015102E0
1.534800000E-1,1.250249147E0,-8.862782270E-2,-2.772350788E0
1.554800000E-1,1.216232657E0,-1.064476296E-1,-2.809282064E0
1.574800000E-1,1.184066296E0,-1.200262904E-1,-2.848604202E0
1.594800000E-1,1.153313518E0,-1.343729049E-1,-2.891766310E0
1.614800000E-1,1.124690175E0,-1.500110477E-1,-2.938366413E0
1.634800000E-1,1.097881913E0,-1.645845473E-1,-2.986066341E0
1.654800000E-1,1.072784066E0,-1.758768260E-1,-3.035145044E0
1.674800000E-1,1.050566077E0,-1.823694557E-1,-3.085427999E0
1.694800000E-1,1.030791402E0,-1.834340990E-1,-3.134000540E0
1.714800000E-1,1.013268352E0,-1.807113886E-1,-3.180269241E0
1.734800000E-1,9.998292923E-1,-1.761211753E-1,-3.225944519E0
1.754800000E-1,9.902474284E-1,-1.714262366E-1,-3.271672010E0
1.774784370E-1,9.838246703E-1,-1.679355800E-1,-3.318377018E0
1.794800000E-1,9.805783033E-1,-1.643052995E-1,-3.366425991E0
1.814800000E-1,9.811542630E-1,-1.590344012E-1,-3.415975809E0
1.834800000E-1,9.851685166E-1,-1.496270746E-1,-3.466136694E0
1.854800000E-1,9.912248254E-1,-1.322261393E-1,-3.514325142E0
1.874800000E-1,9.993755221E-1,-1.103048101E-1,-3.560768366E0
1.894800000E-1,1.009009719E0,-9.286896884E-2,-3.606827497E0
1.914800000E-1,1.020179868E0,-8.166395873E-2,-3.653026581E0
1.934800000E-1,1.032938242E0,-7.394959778E-2,-3.698981047E0
1.954800000E-1,1.046970606E0,-6.733480096E-2,-3.744202375E0
1.974800000E-1,1.061526656E0,-5.989969894E-2,-3.789441347E0
1.994800000E-1,1.076903105E0,-5.120795965E-2,-3.835308552E0
2.014800000E-1,1.093902588E0,-4.260348529E-2,-3.881437778E0
2.034800000E-1,1.110605359E0,-3.626793995E-2,-3.925786495E0
2.054800000E-1,1.126557708E0,-3.305653483E-2,-3.967517376E0
2.074800000E-1,1.142213225E0,-3.269001842E-2,-4.005338669E0
2.094800000E-1,1.156158447E0,-3.696607426E-2,-4.037452698E0
2.114800000E-1,1.168462992E0,-4.848524556E-2,-4.064417839E0
2.134800000E-1,1.180732727E0,-6.644468755E-2,-4.086758137E0
2.154800000E-1,1.191082478E0,-8.922123164E-2,-4.103425980E0
2.174800000E-1,1.198779345E0,-1.180540696E-1,-4.114002705E0
2.194800000E-1,1.204120159E0,-1.515643895E-1,-4.120512962E0
2.214800000E-1,1.206598520E0,-1.850921661E-1,-4.122519970E0
2.234800000E-1,1.206354141E0,-2.164208293E-1,-4.117982388E0
2.254800000E-1,1.202462077E0,-2.455852777E-1,-4.106358051E0
2.274800000E-1,1.194887280E0,-2.738770545E-1,-4.087404251E0
2.294800000E-1,1.183280826E0,-3.021164834E-1,-4.062655449E0
2.314800000E-1,1.167503119E0,-3.303384781E-1,-4.033648014E0
2.334800000E-1,1.149089813E0,-3.582462668E-1,-3.999736071E0
2.354800000E-1,1.127395391E0,-3.822270930E-1,-3.961949825E0
2.374800000E-1,1.103100419E0,-4.005181491E-1,-3.921004295E0
2.394800000E-1,1.077095032E0,-4.133114219E-1,-3.875608206E0
2.414800000E-1,1.048209786E0,-4.213748276E-1,-3.826512098E0
2.434800000E-1,1.017526984E0,-4.271693230E-1,-3.773384333E0
2.454800000E-1,9.864077568E-1,-4.320737123E-1,-3.716399431E0
2.474800000E-1,9.573305249E-1,-4.368908107E-1,-3.656604290E0
2.494800000E-1,9.306444526E-1,-4.423362315E-1,-3.595011711E0
2.514800000E-1,9.043248892E-1,-4.492826462E-1,-3.532371759E0
2.534800000E-1,8.768883348E-1,-4.625296891E-1,-3.466799736E0
2.554800000E-1,8.470955491E-1,-4.890587032E-1,-3.397492886E0
2.574800000E-1,8.160287142E-1,-5.225864649E-1,-3.327295780E0
2.594800000E-1,7.856948376E-1,-5.498136282E-1,-3.259280205E0
2.614800000E-1,7.553610206E-1,-5.706877708E-1,-3.193708181E0
2.634800000E-1,7.228106260E-1,-5.892755389E-1,-3.129776716E0
2.654800000E-1,6.846402884E-1,-6.195744276E-1,-3.064606190E0
2.674800000E-1,6.403613091E-1,-6.558947563E-1,-2.997044563E0
2.694800000E-1,5.955237746E-1,-6.697351933E-1,-2.930093527E0
2.714800000E-1,5.539151430E-1,-6.551616788E-1,-2.867488623E0
2.734800000E-1,5.161287785E-1,-6.195569634E-1,-2.811376333E0
2.754800000E-1,4.830896854E-1,-5.712985992E-1,-2.761721849E0
2.774800000E-1,4.551120400E-1,-5.162858367E-1,-2.715627670E0
2.794800000E-1,4.304679930E-1,-4.588645101E-1,-2.668451309E0
2.814800000E-1,4.081277847E-1,-4.014082849E-1,-2.618622303E0
2.834800000E-1,3.883008361E-1,-3.445628881E-1,-2.567728281E0
2.854800000E-1,3.710744381E-1,-2.904925942E-1,-2.517026663E0
2.874800000E-1,3.565009534E-1,-2.394417226E-1,-2.467668772E0
2.894800000E-1,3.451912105E-1,-1.924574524E-1,-2.421382427E0
2.914800000E-1,3.371103406E-1,-1.515469402E-1,-2.379180431E0
2.934800000E-1,3.325724900E-1,-1.169196069E-1,-2.342109680E0
2.954800000E-1,3.319790661E-1,-8.798204362E-2,-2.310920715E0
2.974800000E-1,3.333229721E-1,-6.230825558E-2,-2.284985065E0
2.994800000E-1,3.360631466E-1,-3.672172874E-2,-2.264634609E0
3.014800000E-1,3.403566480E-1,-1.178097259E-2,-2.250357628E0
3.034800000E-1,3.449294269E-1,1.003564335E-2,-2.240758419E0
3.054800000E-1,3.499559760E-1,2.745402977E-2,-2.235574722E0
3.074800000E-1,3.538829684E-1,3.926990926E-2,-2.234108686E0
3.094800000E-1,3.561169803E-1,4.534365237E-2,-2.234771967E0
3.114800000E-1,3.586128056E-1,4.654793069E-2,-2.237564564E0
3.134800000E-1,3.615100384E-1,4.483750835E-2,-2.242172241E0
3.154800000E-1,3.633251786E-1,3.907792270E-2,-2.248786926E0
3.174800000E-1,3.640756905E-1,2.727949619E-2,-2.257478714E0
3.194800000E-1,3.653148711E-1,8.587019518E-3,-2.267636538E0
3.214800000E-1,3.674092591E-1,-1.890191622E-2,-2.278719425E0
3.234800000E-1,3.688927889E-1,-5.471607298E-2,-2.289854527E0
3.254800000E-1,3.691720366E-1,-9.642943740E-2,-2.301338673E0
3.274800000E-1,3.683342934E-1,-1.383522451E-1,-2.313905239E0
3.294800000E-1,3.670601845E-1,-1.724559814E-1,-2.328478575E0
3.314800000E-1,3.659082651E-1,-2.030690610E-1,-2.344832420E0
3.334800000E-1,3.635346293E-1,-2.458296269E-1,-2.360330820E0
3.354800000E-1,3.603755832E-1,-3.156428039E-1,-2.374851942E0
3.374784370E-1,3.581241071E-1,-4.176049232E-1,-2.392741680E0
3.394800000E-1,3.575306833E-1,-5.373868942E-1,-2.418973923E0
3.414800000E-1,3.582462668E-1,-6.461034417E-1,-2.454264641E0
3.434800000E-1,3.597821593E-1,-7.206639051E-1,-2.494197607E0
3.454800000E-1,3.648436368E-1,-7.604923248E-1,-2.536347389E0
3.474800000E-1,3.754203320E-1,-7.833212018E-1,-2.579683781E0
3.494800000E-1,3.876201808E-1,-8.049284220E-1,-2.619739294E0
3.514800000E-1,3.988949955E-1,-8.149815202E-1,-2.653406620E0
3.534800000E-1,4.110599458E-1,-7.963588238E-1,-2.681314468E0
3.554800000E-1,4.264188409E-1,-7.584677339E-1,-2.704038620E0
3.574800000E-1,4.446749985E-1,-7.196865082E-1,-2.721806049E0
3.594800000E-1,4.641005099E-1,-6.893876195E-1,-2.734721422E0
3.614800000E-1,4.852539003E-1,-6.682167649E-1,-2.742505550E0
3.634800000E-1,5.080828071E-1,-6.504318714E-1,-2.745368004E0
3.654800000E-1,5.309466124E-1,-6.315299273E-1,-2.744006634E0
3.674800000E-1,5.538104177E-1,-6.111968756E-1,-2.740603209E0
3.694800000E-1,5.776516199E-1,-5.921902061E-1,-2.736379623E0
3.714800000E-1,6.025050879E-1,-5.756270289E-1,-2.732138395E0
3.734800000E-1,6.274458766E-1,-5.597270727E-1,-2.729782104E0
3.754800000E-1,6.530847549E-1,-5.431464911E-1,-2.730078936E0
3.774800000E-1,6.818128824E-1,-5.237733126E-1,-2.733046055E0
3.794800000E-1,7.118150592E-1,-5.010491014E-1,-2.738665819E0
3.814800000E-1,7.404384613E-1,-4.753927886E-1,-2.747270346E0
3.834800000E-1,7.691491246E-1,-4.453731179E-1,-2.758353233E0
3.854800000E-1,7.972314954E-1,-4.107457995E-1,-2.769802570E0
3.874800000E-1,8.238303065E-1,-3.726626933E-1,-2.782037258E0
3.894800000E-1,8.491724730E-1,-3.300243020E-1,-2.795232058E0
3.914800000E-1,8.721061349E-1,-2.807711065E-1,-2.809124947E0
3.934800000E-1,8.921774030E-1,-2.257059813E-1,-2.823925257E0
3.954800000E-1,9.104509950E-1,-1.666614860E-1,-2.838481426E0
3.974800000E-1,9.270316362E-1,-1.066570729E-1,-2.851972818E0
3.994800000E-1,9.407324791E-1,-5.002113804E-2,-2.864416838E0
4.014800000E-1,9.519898295E-1,2.670353744E-3,-2.875150681E0
4.034800000E-1,9.606815577E-1,5.349434167E-2,-2.882062197E0
4.054800000E-1,9.657953978E-1,1.044754088E-1,-2.885814667E0
4.074800000E-1,9.678723216E-1,1.542696506E-1,-2.887647152E0
4.094800000E-1,9.674534798E-1,2.004161626E-1,-2.885884523E0
4.114800000E-1,9.644514918E-1,2.441366613E-1,-2.881049871E0
4.134800000E-1,9.587966204E-1,2.846632004E-1,-2.873719454E0
4.154800000E-1,9.511346221E-1,3.213500082E-1,-2.863788605E0
4.174800000E-1,9.410815239E-1,3.571292758E-1,-2.852182150E0
4.194800000E-1,9.284628034E-1,3.937811852E-1,-2.838620901E0
4.214800000E-1,9.138544202E-1,4.317421019E-1,-2.821726084E0
4.234800000E-1,8.981289864E-1,4.715006948E-1,-2.800642490E0
4.254800000E-1,8.809898496E-1,5.119923353E-1,-2.775335312E0
4.274800000E-1,8.623322845E-1,5.518207550E-1,-2.745158672E0
4.294800000E-1,8.430638313E-1,5.895023942E-1,-2.709501505E0
4.314800000E-1,8.235335946E-1,6.240948439E-1,-2.669114590E0
4.334800000E-1,8.048585653E-1,6.542716026E-1,-2.624591112E0
4.354800000E-1,7.868467569E-1,6.788632870E-1,-2.575198412E0
4.374800000E-1,7.697250843E-1,6.986727715E-1,-2.522279978E0
4.394800000E-1,7.545407414E-1,7.142934203E-1,-2.468227148E0
4.414800000E-1,7.395309210E-1,7.282386422E-1,-2.414034605E0
4.434800000E-1,7.242592573E-1,7.417998314E-1,-2.360400677E0
4.454800000E-1,7.101570368E-1,7.536331415E-1,-2.309541941E0
4.474800000E-1,6.977826357E-1,7.647683620E-1,-2.264215708E0
4.494800000E-1,6.867521405E-1,7.762351632E-1,-2.225556612E0
4.514800000E-1,6.762627363E-1,7.894298434E-1,-2.191836834E0
4.534800000E-1,6.660001874E-1,8.042826056E-1,-2.162323236E0
4.554800000E-1,6.548824310E-1,8.178961873E-1,-2.138010979E0
4.574800000E-1,6.424556971E-1,8.291186690E-1,-2.118009329E0
4.594800000E-1,6.291912198E-1,8.381071091E-1,-2.102283955E0
4.614800000E-1,6.146525741E-1,8.458563685E-1,-2.090520382E0
4.634800000E-1,5.982988477E-1,8.524886370E-1,-2.081322670E0
4.654800000E-1,5.799729228E-1,8.564504981E-1,-2.075353622E0
4.674800000E-1,5.592558384E-1,8.580736518E-1,-2.072613478E0
4.694800000E-1,5.363047719E-1,8.587194681E-1,-2.071810484E0
4.714800000E-1,5.108578801E-1,8.589987159E-1,-2.072752953E0
4.734800000E-1,4.837878048E-1,8.568868637E-1,-2.075667620E0
4.754800000E-1,4.557054639E-1,8.494168520E-1,-2.080938578E0
4.774800000E-1,4.256683588E-1,8.340579271E-1,-2.088775158E0
4.794800000E-1,3.932226896E-1,8.041255474E-1,-2.099543810E0
4.814800000E-1,3.601486981E-1,7.483971715E-1,-2.113087654E0
4.834800000E-1,3.299545050E-1,6.581462026E-1,-2.129633188E0
4.854800000E-1,3.050311804E-1,5.390449166E-1,-2.152479649E0
4.874800000E-1,2.863561809E-1,4.094367921E-1,-2.183232307E0
4.894800000E-1,2.718175650E-1,2.907020450E-1,-2.220372915E0
4.914800000E-1,2.580120265E-1,1.985137463E-1,-2.260114193E0
4.934800000E-1,2.438748628E-1,1.338318437E-1,-2.298389196E0
4.954800000E-1,2.292664498E-1,8.857546002E-2,-2.332266092E0
4.974800000E-1,2.157576084E-1,5.277875811E-2,-2.359318733E0
4.994800000E-1,2.058441341E-1,1.991420612E-2,-2.379477262E0
5.014800000E-1,2.002241760E-1,-1.113520097E-2,-2.392113447E0
5.034800000E-1,1.982519478E-1,-4.082325101E-2,-2.397244692E0
5.054800000E-1,1.983915716E-1,-6.962118298E-2,-2.397768259E0
5.074800000E-1,2.000321895E-1,-9.902998060E-2,-2.394504547E0
5.094800000E-1,2.025978118E-1,-1.318421662E-1,-2.387488127E0
5.114800000E-1,2.064724565E-1,-1.666440368E-1,-2.377068520E0
5.134800000E-1,2.124763876E-1,-2.010270208E-1,-2.363350391E0
5.154800000E-1,2.205921561E-1,-2.339613885E-1,-2.347031593E0
5.174800000E-1,2.311688513E-1,-2.622008026E-1,-2.327448845E0
5.194800000E-1,2.420946211E-1,-2.850471735E-1,-2.304009199E0
5.214800000E-1,2.531774640E-1,-3.047693968E-1,-2.277113676E0
5.234800000E-1,2.655692995E-1,-3.216292858E-1,-2.247547626E0
5.254800000E-1,2.794621289E-1,-3.370230794E-1,-2.215625763E0
5.274800000E-1,2.948908210E-1,-3.549650609E-1,-2.181155443E0
5.294800000E-1,3.109652996E-1,-3.789982498E-1,-2.144398689E0
5.314800000E-1,3.266558349E-1,-4.089829922E-1,-2.105460405E0
5.334800000E-1,3.409326077E-1,-4.407480061E-1,-2.063712120E0
5.354800000E-1,3.527484834E-1,-4.682020247E-1,-2.020532846E0
5.374800000E-1,3.616496623E-1,-4.916941524E-1,-1.977074027E0
5.394800000E-1,3.671823740E-1,-5.217661858E-1,-1.933179021E0
5.414800000E-1,3.675314188E-1,-5.617865920E-1,-1.889126897E0
5.434800000E-1,3.619987369E-1,-6.045994759E-1,-1.844359279E0
5.454800000E-1,3.508984447E-1,-6.434854269E-1,-1.798352361E0
5.474800000E-1,3.350159526E-1,-6.750933528E-1,-1.751542568E0
5.494800000E-1,3.152937293E-1,-7.009067535E-1,-1.703755498E0
5.514800000E-1,2.927615345E-1,-7.262489796E-1,-1.656526923E0
5.534800000E-1,2.681174874E-1,-7.548549175E-1,-1.612370014E0
5.554800000E-1,2.407158166E-1,-7.835655808E-1,-1.569784045E0
5.574800000E-1,2.099980116E-1,-8.072322011E-1,-1.528454661E0
5.594800000E-1,1.754055917E-1,-8.247553110E-1,-1.488591313E0
5.614800000E-1,1.363800317E-1,-8.372693658E-1,-1.448693037E0
5.634800000E-1,9.239772707E-2,-8.451931477E-1,-1.408149123E0
5.654800000E-1,4.356341809E-2,-8.499928117E-1,-1.366383314E0
5.674800000E-1,-1.038470864E-2,-8.544782996E-1,-1.323832273E0
5.694800000E-1,-6.990043819E-2,-8.591383100E-1,-1.281246185E0
5.714800000E-1,-1.345474273E-1,-8.641997576E-1,-1.238660216E0
5.734800000E-1,-2.034530342E-1,-8.700466156E-1,-1.196719885E0
5.754800000E-1,-2.753955126E-1,-8.777958751E-1,-1.158165574E0
5.774800000E-1,-3.485422432E-1,-8.872555494E-1,-1.128599763E0
5.794800000E-1,-4.215668142E-1,-8.990016580E-1,-1.109924674E0
5.814800000E-1,-4.954815209E-1,-9.179908037E-1,-1.097916842E0
5.834800000E-1,-5.707052350E-1,-9.471727014E-1,-1.088910937E0
5.854800000E-1,-6.448817253E-1,-9.846274853E-1,-1.081772566E0
5.874800000E-1,-7.173652053E-1,-1.023548365E0,-1.076030374E0
5.894800000E-1,-7.882255912E-1,-1.059275270E0,-1.070218444E0
5.914800000E-1,-8.565203547E-1,-1.090534091E0,-1.063760757E0
5.934800000E-1,-9.228253961E-1,-1.115579605E0,-1.058594584E0
5.954800000E-1,-9.873850942E-1,-1.131758690E0,-1.055243492E0
5.974800000E-1,-1.048070192E0,-1.138041973E0,-1.053550601E0
5.994800000E-1,-1.104636312E0,-1.134289503E0,-1.054754853E0
6.014800000E-1,-1.157031059E0,-1.120134830E0,-1.057774186E0
6.034800000E-1,-1.204242229E0,-1.097323418E0,-1.061840892E0
6.054800000E-1,-1.246182561E0,-1.066256523E0,-1.067914605E0
6.074800000E-1,-1.281874537E0,-1.025834680E0,-1.075768590E0
6.094800000E-1,-1.311230898E0,-9.784490466E-1,-1.084634900E0
6.114800000E-1,-1.335176826E0,-9.279043078E-1,-1.094565749E0
6.134815620E-1,-1.352822185E0,-8.767312169E-1,-1.105858088E0
6.154800000E-1,-1.364096999E0,-8.287346959E-1,-1.118354678E0
6.174800000E-1,-1.370275497E0,-7.880685329E-1,-1.131322384E0
6.194800000E-1,-1.370257974E0,-7.566700578E-1,-1.144499660E0
6.214800000E-1,-1.364568233E0,-7.337887883E-1,-1.157746673E0
6.234800000E-1,-1.352787256E0,-7.175397873E-1,-1.172616959E0
6.254800000E-1,-1.333798051E0,-7.023903131E-1,-1.190977812E0
6.274800000E-1,-1.306483626E0,-6.829822659E-1,-1.213911414E0
6.294800000E-1,-1.268226027E0,-6.605547667E-1,-1.242185712E0
6.314800000E-1,-1.218885541E0,-6.397504210E-1,-1.273898363E0
6.334800000E-1,-1.159020782E0,-6.221225858E-1,-1.307949781E0
6.354800000E-1,-1.088893414E0,-6.051580310E-1,-1.344863415E0
6.374800000E-1,-1.008887529E0,-5.869018435E-1,-1.382929087E0
6.394800000E-1,-9.207658768E-1,-5.687329769E-1,-1.421465993E0
6.414800000E-1,-8.265181184E-1,-5.528155565E-1,-1.459566474E0
6.434800000E-1,-7.272263169E-1,-5.419072509E-1,-1.494315982E0
6.454800000E-1,-6.249500513E-1,-5.377882719E-1,-1.523934245E0
6.474800000E-1,-5.220803618E-1,-5.380151868E-1,-1.544825792E0
6.494800000E-1,-4.211828411E-1,-5.349434018E-1,-1.553657174E0
6.514800000E-1,-3.264463842E-1,-5.188514590E-1,-1.549974561E0
6.534800000E-1,-2.411696017E-1,-4.845383167E-1,-1.533655763E0
6.554800000E-1,-1.657364666E-1,-4.314279258E-1,-1.504595995E0
6.574800000E-1,-1.006356850E-1,-3.665540516E-1,-1.464680314E0
6.594800000E-1,-4.729842395E-2,-3.000744581E-1,-1.417172432E0
6.614800000E-1,-4.450589418E-3,-2.389181256E-1,-1.365336180E0
6.634800000E-1,3.192207217E-2,-1.894031316E-1,-1.312662125E0
6.654800000E-1,6.314601004E-2,-1.522101611E-1,-1.262501359E0
6.674800000E-1,8.911651373E-2,-1.238136590E-1,-1.216197729E0
6.694800000E-1,1.107236892E-1,-1.024682820E-1,-1.174938202E0
6.714800000E-1,1.296256036E-1,-8.808676898E-2,-1.140468001E0
6.734800000E-1,1.452113986E-1,-8.129743487E-2,-1.113502622E0
6.754800000E-1,1.543918252E-1,-8.168140799E-2,-1.093989849E0
6.774800000E-1,1.559277177E-1,-8.752825856E-2,-1.081964493E0
6.794800000E-1,1.508662552E-1,-9.622000158E-2,-1.077374339E0
6.814800000E-1,1.399579495E-1,-1.054353416E-1,-1.079922438E0
6.834800000E-1,1.225919276E-1,-1.205498874E-1,-1.088544369E0
6.854800000E-1,1.006880477E-1,-1.519658118E-1,-1.101512194E0
6.874800000E-1,7.787659019E-2,-1.887224466E-1,-1.118476748E0
6.894800000E-1,5.564109609E-2,-2.119004279E-1,-1.138321161E0
6.914800000E-1,3.460988030E-2,-2.169269770E-1,-1.158078313E0
6.934800000E-1,1.658062823E-2,-2.053903490E-1,-1.176858068E0
6.954800000E-1,2.914699726E-3,-1.811302751E-1,-1.195218921E0
6.974800000E-1,-5.462880712E-3,-1.497841626E-1,-1.212480187E0
6.994800000E-1,-8.255407214E-3,-1.168323383E-1,-1.227716923E0
7.014800000E-1,-4.956734832E-3,-8.541641384E-2,-1.240545154E0
7.034800000E-1,5.515240598E-3,-5.653121322E-2,-1.249882579E0
7.054800000E-1,2.146754973E-2,-3.026400879E-2,-1.255886555E0
7.074800000E-1,3.963642567E-2,-7.260569837E-3,-1.258958340E0
7.094800000E-1,6.028367206E-2,1.345648803E-2,-1.257684231E0
7.114800000E-1,8.384561539E-2,3.104940802E-2,-1.252430797E0
7.134800000E-1,1.085769311E-1,4.452335089E-2,-1.244925857E0
7.154800000E-1,1.334827840E-1,5.537929758E-2,-1.234611034E0
7.174784370E-1,1.584584415E-1,6.515314430E-2,-1.221259236E0
7.194800000E-1,1.844114810E-1,7.513642311E-2,-1.206354141E0
7.214800000E-1,2.107485086E-1,8.613199741E-2,-1.190192342E0
7.234800000E-1,2.378883809E-1,9.724974632E-2,-1.171936274E0
7.254800000E-1,2.678731382E-1,1.087165624E-1,-1.152824879E0
7.274800000E-1,3.002839088E-1,1.228537261E-1,-1.133992791E0
7.294800000E-1,3.343003690E-1,1.393296272E-1,-1.115282893E0
7.314800000E-1,3.699225485E-1,1.574112475E-1,-1.097567797E0
7.334800000E-1,4.055795968E-1,1.761211753E-1,-1.082453251E0
7.354800000E-1,4.406083822E-1,1.954245120E-1,-1.070637345E0
7.374800000E-1,4.757069349E-1,2.165430039E-1,-1.062347054E0
7.394800000E-1,5.111371279E-1,2.387086749E-1,-1.058332801E0
7.414800000E-1,5.467069149E-1,2.587799728E-1,-1.057337880E0
7.434800000E-1,5.817008018E-1,2.701071501E-1,-1.059781313E0
7.454800000E-1,6.155078411E-1,2.677684128E-1,-1.067076802E0
7.474800000E-1,6.475869417E-1,2.538755834E-1,-1.079521060E0
7.494800000E-1,6.783221960E-1,2.315004766E-1,-1.097846985E0
7.514800000E-1,7.094414234E-1,2.024931014E-1,-1.120763183E0
7.534800000E-1,7.420092821E-1,1.714436859E-1,-1.147780895E0
7.554800000E-1,7.748214602E-1,1.452288479E-1,-1.181186438E0
7.574800000E-1,8.083841205E-1,1.257160604E-1,-1.221294165E0
7.594800000E-1,8.422435522E-1,1.114567220E-1,-1.266969442E0
7.614800000E-1,8.746542931E-1,1.037598252E-1,-1.319032550E0
7.634800000E-1,9.083740711E-1,9.969320893E-2,-1.377780318E0
7.654800000E-1,9.441882372E-1,9.707520902E-2,-1.442724109E0
7.674800000E-1,9.786410332E-1,9.885545075E-2,-1.512397647E0
7.694800000E-1,1.011924386E0,1.030616909E-1,-1.585265160E0
7.714800000E-1,1.043462515E0,1.057145894E-1,-1.658813238E0
7.734800000E-1,1.069555163E0,1.077391729E-1,-1.729464173E0
7.754800000E-1,1.088701487E0,1.129751652E-1,-1.794198513E0
7.774800000E-1,1.101232886E0,1.261698455E-1,-1.850537658E0
7.794800000E-1,1.106957674E0,1.517389268E-1,-1.898097873E0
7.814800000E-1,1.104880691E0,1.905550510E-1,-1.935116291E0
7.834800000E-1,1.095508218E0,2.385516018E-1,-1.960615635E0
7.854800000E-1,1.080323935E0,2.893232405E-1,-1.975415945E0
7.874800000E-1,1.061212540E0,3.393618166E-1,-1.979220867E0
7.894800000E-1,1.040163875E0,3.874979913E-1,-1.973827720E0
7.914800000E-1,1.019918084E0,4.336096048E-1,-1.963739753E0
7.934800000E-1,1.001592040E0,4.782551229E-1,-1.953634262E0
7.954800000E-1,9.859190583E-1,5.207364559E-1,-1.947316170E0
7.974800000E-1,9.748013020E-1,5.610709786E-1,-1.947892189E0
7.994800000E-1,9.690067768E-1,6.024178267E-1,-1.955397129E0
8.014800000E-1,9.691813588E-1,6.514441371E-1,-1.969813466E0
8.034800000E-1,9.746267796E-1,7.095984817E-1,-1.990827203E0
8.054800000E-1,9.850463867E-1,7.698822021E-1,-2.015802860E0
8.074800000E-1,1.000318050E0,8.275653124E-1,-2.044269323E0
8.094800000E-1,1.017910957E0,8.854578733E-1,-2.075423479E0
8.114800000E-1,1.036114693E0,9.459509850E-1,-2.105478048E0
8.134800000E-1,1.055836916E0,1.010336161E0,-2.132216454E0
8.154800000E-1,1.078386545E0,1.081371069E0,-2.155429363E0
8.174800000E-1,1.103973150E0,1.160469413E0,-2.175273657E0
8.194800000E-1,1.132387042E0,1.248852849E0,-2.191575050E0
8.214800000E-1,1.165408731E0,1.347324371E0,-2.201034784E0
8.234800000E-1,1.205690861E0,1.454958797E0,-2.199847937E0
8.254800000E-1,1.253320932E0,1.570412397E0,-2.183895588E0
8.274800000E-1,1.307129383E0,1.689391494E0,-2.152776241E0
8.294800000E-1,1.368791938E0,1.795891404E0,-2.110120535E0
8.314800000E-1,1.458606601E0,1.785890698E0,-2.048580170E0
8.334800000E-1,1.635617852E0,1.413158178E0,-1.950929046E0
8.354800000E-1,1.876543045E0,7.772300243E-1,-1.827848434E0
8.374800000E-1,2.079402685E0,2.803871334E-1,-1.707996607E0
8.394800000E-1,2.218802214E0,3.080506064E-2,-1.605231643E0
8.414800000E-1,2.312474012E0,-3.762929887E-2,-1.526464939E0
8.434800000E-1,2.377417803E0,1.727875904E-3,-1.473895669E0
8.454800000E-1,2.432587624E0,5.277875811E-2,-1.442078233E0
8.474800000E-1,2.488507986E0,6.000442058E-2,-1.423438191E0
8.494800000E-1,2.543765068E0,2.885029279E-2,-1.409859538E0
8.514800000E-1,2.591831446E0,-1.192059834E-2,-1.392650604E0
8.534800000E-1,2.628762484E0,-3.860668465E-2,-1.368599892E0
8.554800000E-1,2.655151844E0,-4.316199198E-2,-1.337044358E0
8.574800000E-1,2.674106121E0,-3.080506064E-2,-1.297355533E0
8.594800000E-1,2.687492847E0,-1.000073645E-2,-1.252169013E0
8.614800000E-1,2.695486546E0,1.897172816E-2,-1.202514410E0
8.634800000E-1,2.700617790E0,4.749041051E-2,-1.149805427E0
8.654800000E-1,2.708716154E0,6.194173545E-2,-1.098353148E0
8.674800000E-1,2.719572067E0,6.277949363E-2,-1.049641013E0
8.694800000E-1,2.730637312E0,5.585053563E-2,-1.003930807E0
8.714800000E-1,2.741126776E0,4.293509945E-2,-9.619556665E-1
8.734800000E-1,2.752663374E0,1.968731359E-2,-9.227904677E-1
8.754800000E-1,2.766818047E0,-1.406735368E-2,-8.856847882E-1
8.774800000E-1,2.782368898E0,-5.084143952E-2,-8.488059640E-1
8.794800000E-1,2.798810005E0,-8.759807795E-2,-8.095011711E-1
8.814800000E-1,2.818741560E0,-1.230806187E-1,-7.676132321E-1
8.834800000E-1,2.843281031E0,-1.539380401E-1,-7.237356901E-1
8.854800000E-1,2.869687796E0,-1.762782484E-1,-6.780953407E-1
8.874800000E-1,2.898101807E0,-1.897871047E-1,-6.298544407E-1
8.894800000E-1,2.932083368E0,-1.952848881E-1,-5.786464810E-1
8.914800000E-1,2.972417831E0,-1.893158704E-1,-5.265483856E-1
8.934800000E-1,3.015998840E0,-1.679530293E-1,-4.753578603E-1
8.954800000E-1,3.061813593E0,-1.305331737E-1,-4.245338738E-1
8.974800000E-1,3.110141754E0,-7.901105285E-2,-3.754377663E-1
8.994800000E-1,3.160110474E0,-1.509709843E-2,-3.289422095E-1
9.014800000E-1,3.211388350E0,5.824163556E-2,-2.844537497E-1
9.034800000E-1,3.262875557E0,1.373399645E-1,-2.429847419E-1
9.054800000E-1,3.313821793E0,2.153038085E-1,-2.036973834E-1
9.074800000E-1,3.362341881E0,2.833367586E-1,-1.649685204E-1
9.094800000E-1,3.407022238E0,3.343876302E-1,-1.264840066E-1
9.114800000E-1,3.447304487E0,3.674790859E-1,-8.777260780E-2
9.134800000E-1,3.482001543E0,3.822096586E-1,-4.803146049E-2
9.154800000E-1,3.510014296E0,3.468667269E-1,-6.283185445E-3
9.174800000E-1,3.527746677E0,1.730668545E-1,4.035201296E-2
9.194800000E-1,3.526734352E0,-1.580570191E-1,9.091419727E-2
9.214800000E-1,3.502980471E0,-5.182231665E-1,1.399055868E-1
9.234800000E-1,3.457951069E0,-7.639306188E-1,1.832072139E-1
9.254800000E-1,3.391960144E0,-8.210203052E-1,2.207143307E-1
9.274800000E-1,3.312704802E0,-6.933844090E-1,2.536486983E-1
9.294800000E-1,3.227410555E0,-4.435230792E-1,2.774724364E-1
9.314800000E-1,3.132726431E0,-1.416858286E-1,2.868623137E-1
9.334800000E-1,3.024114609E0,1.544267386E-1,2.774200737E-1
9.354800000E-1,2.902569771E0,4.002912641E-1,2.467546463E-1
9.374800000E-1,2.773240805E0,5.701292753E-1,1.982868612E-1
9.394800000E-1,2.642620564E0,6.638708711E-1,1.403593719E-1
9.414800000E-1,2.521913528E0,7.051828504E-1,8.143706620E-2
9.434800000E-1,2.417228699E0,7.305250168E-1,2.556907386E-2
9.454800000E-1,2.326628685E0,7.673514485E-1,-2.619739249E-2
9.474800000E-1,2.253778458E0,8.164300919E-1,-7.347836345E-2
9.494800000E-1,2.205188513E0,8.657705784E-1,-1.167101637E-1
9.514800000E-1,2.181295156E0,9.035220146E-1,-1.573414356E-1
9.534800000E-1,2.176635027E0,9.223716259E-1,-1.975538135E-1
9.554800000E-1,2.184820652E0,9.215163589E-1,-2.388657629E-1
9.574800000E-1,2.199847937E0,9.057037234E-1,-2.806140482E-1
9.594800000E-1,2.215416193E0,8.800124526E-1,-3.228510022E-1
9.614800000E-1,2.229658127E0,8.461879492E-1,-3.649832606E-1
9.634800000E-1,2.243969917E0,8.049632907E-1,-4.054923356E-1
9.654800000E-1,2.259904623E0,7.585200667E-1,-4.431391060E-1
9.674800000E-1,2.279330254E0,7.096159458E-1,-4.773824513E-1
9.694800000E-1,2.303328514E0,6.597344279E-1,-5.083795190E-1
9.714800000E-1,2.332039118E0,6.062924862E-1,-5.342452526E-1
9.734800000E-1,2.364240408E0,5.466545820E-1,-5.555208325E-1
9.754800000E-1,2.396598816E0,4.845033884E-1,-5.733231902E-1
9.774800000E-1,2.426513910E0,4.222649634E-1,-5.871985555E-1
9.794800000E-1,2.451943159E0,3.612656891E-1,-5.988399386E-1
9.814800000E-1,2.471124411E0,3.061482012E-1,-6.105335951E-1
9.834800000E-1,2.484930038E0,2.616074085E-1,-6.257005334E-1
9.854800000E-1,2.495297194E0,2.235941291E-1,-6.457718015E-1
9.874800000E-1,2.504547358E0,1.841322333E-1,-6.681469679E-1
9.894800000E-1,2.514635563E0,1.412320435E-1,-6.901904345E-1
9.914800000E-1,2.526957512E0,9.758135676E-2,-7.120943069E-1
9.934800000E-1,2.542700291E0,5.960299447E-2,-7.342774868E-1
9.954800000E-1,2.563312769E0,3.120648675E-2,-7.543487549E-1
9.974800000E-1,2.589998722E0,7.347836159E-3,-7.735822797E-1
9.994800000E-1,2.621379852E0,-1.972221956E-2,-7.949625850E-1
1.001480000E0,2.652149916E0,-5.441936478E-2,-8.163079619E-1
1.003480000E0,2.659934044E0,-1.016828790E-1,-8.332027197E-1
1.005480000E0,2.624608755E0,-1.584758908E-1,-8.394335508E-1
1.007480000E0,2.570765257E0,-2.141169906E-1,-8.394510150E-1
1.009480000E0,2.529592991E0,-2.689552307E-1,-8.467290401E-1
1.011480000E0,2.498630762E0,-3.326248527E-1,-8.638856411E-1
1.013480000E0,2.468035221E0,-4.153534472E-1,-8.879188299E-1
1.015480000E0,2.430964470E0,-5.206840634E-1,-9.153728485E-1
1.017480000E0,2.380210161E0,-6.399424076E-1,-9.439089894E-1
1.019480000E0,2.311880589E0,-7.582408190E-1,-9.735097289E-1
1.021480000E0,2.227563620E0,-8.587892652E-1,-1.003878474E0
1.023480000E0,2.134851933E0,-9.271886945E-1,-1.035486341E0
1.025480000E0,2.043152332E0,-9.559692144E-1,-1.069188714E0
1.027480000E0,1.960353851E0,-9.478010535E-1,-1.106259465E0
1.029480000E0,1.889423609E0,-9.151284695E-1,-1.147239804E0
1.031480000E0,1.827708840E0,-8.718268871E-1,-1.190436721E0
1.033480000E0,1.771037936E0,-8.289615512E-1,-1.234837890E0
1.035480000E0,1.716705799E0,-7.887840867E-1,-1.281647682E0
1.037480000E0,1.663979411E0,-7.449763417E-1,-1.331948042E0
1.039480000E0,1.611584663E0,-6.946235895E-1,-1.386507034E0
1.041480000E0,1.559957862E0,-6.400471330E-1,-1.444067955E0
1.043480000E0,1.510530114E0,-5.884726644E-1,-1.501594067E0
1.045480000E0,1.464854836E0,-5.463229418E-1,-1.555297852E0
1.047480000E0,1.423525453E0,-5.121319890E-1,-1.603678346E0
1.049480000E0,1.385250330E0,-4.849571884E-1,-1.646421432E0
1.051480000E0,1.351670265E0,-4.631580114E-1,-1.681799293E0
1.053480000E0,1.323797345E0,-4.432438016E-1,-1.708206058E0
1.055480000E0,1.300776482E0,-4.256683588E-1,-1.724315524E0
1.057480000E0,1.283515096E0,-4.112519324E-1,-1.731820345E0
1.059480000E0,1.270809174E0,-3.955963254E-1,-1.732972264E0
1.061480000E0,1.261838078E0,-3.724881709E-1,-1.729027867E0
1.063480000E0,1.258504510E0,-3.416307569E-1,-1.722064018E0
1.065480000E0,1.260633826E0,-3.028669953E-1,-1.714803457E0
1.067480000E0,1.268121362E0,-2.545737326E-1,-1.707420707E0
1.069480000E0,1.280949473E0,-1.992467940E-1,-1.698746443E0
1.071480000E0,1.297861695E0,-1.372701526E-1,-1.691101909E0
1.073480000E0,1.319259524E0,-6.880088151E-2,-1.685481906E0
1.075480000E0,1.346277118E0,-1.483529806E-3,-1.679076552E0
1.077480000E0,1.379368663E0,6.000442058E-2,-1.670472026E0
1.079480000E0,1.417765856E0,1.206895187E-1,-1.662234068E0
1.081480000E0,1.460857987E0,1.725432426E-1,-1.655409932E0
1.083480000E0,1.508714914E0,1.911310107E-1,-1.645374298E0
1.085480000E0,1.560376763E0,1.718625724E-1,-1.633087158E0
1.087480000E0,1.614237547E0,1.352979243E-1,-1.623348236E0
1.089480000E0,1.670245171E0,9.958848357E-2,-1.617169738E0
1.091480000E0,1.728399515E0,6.799802929E-2,-1.614656448E0
1.093480000E0,1.789311528E0,3.651228920E-2,-1.615843296E0
1.095480000E0,1.852614641E0,1.605702913E-3,-1.621061802E0
1.097480000E0,1.917523384E0,-3.752457723E-2,-1.629823327E0
1.099480000E0,1.985294580E0,-7.838273793E-2,-1.641586900E0
1.101480000E0,2.054863453E0,-1.208989546E-1,-1.655532002E0
1.103480000E0,2.124850988E0,-1.650383323E-1,-1.670367360E0
1.105480000E0,2.196269989E0,-2.041511685E-1,-1.683649302E0
1.107480000E0,2.270463943E0,-2.314481139E-1,-1.691276431E0
1.109480000E0,2.345809698E0,-2.460216135E-1,-1.691538215E0
1.111480000E0,2.421609402E0,-2.443809956E-1,-1.683754086E0
1.113480000E0,2.497915268E0,-2.219360620E-1,-1.667644620E0
1.115480000E0,2.572545528E0,-1.850223541E-1,-1.644361973E0
1.117480000E0,2.643632650E0,-1.516865641E-1,-1.613731384E0
1.119480000E0,2.710129738E0,-1.324355900E-1,-1.574112415E0
1.121480000E0,2.772560120E0,-1.185951233E-1,-1.525801778E0
1.123480000E0,2.830784321E0,-1.098161191E-1,-1.470457315E0
1.125480000E0,2.882900000E0,-1.194852367E-1,-1.411639690E0
1.127480000E0,2.927789927E0,-1.534144431E-1,-1.353293419E0
1.129480000E0,2.966885090E0,-2.019520402E-1,-1.296395659E0
1.131480000E0,2.997637987E0,-2.444333583E-1,-1.248311877E0
1.133480000E0,3.023416281E0,-2.778215110E-1,-1.202531815E0
1.135480000E0,3.056944132E0,-3.084520400E-1,-1.140345812E0
1.137480000E0,3.093962669E0,-3.297625184E-1,-1.071771741E0
1.139480000E0,3.122603416E0,-3.406533599E-1,-1.017998219E0
1.141480000E0,3.147823572E0,-3.457148075E-1,-9.711535573E-1
1.143480000E0,3.174509525E0,-3.477742970E-1,-9.192649126E-1
1.145480000E0,3.200200796E0,-3.504970074E-1,-8.656309247E-1
1.147480000E0,3.223919868E0,-3.569721878E-1,-8.122413158E-1
1.149480000E0,3.243362904E0,-3.675139844E-1,-7.602130771E-1
1.151480000E0,3.257587194E0,-3.822096586E-1,-7.102966309E-1
1.153480000E0,3.267168999E0,-4.020889401E-1,-6.640977859E-1
1.155480000E0,3.273277760E0,-4.269075394E-1,-6.213197708E-1
1.157480000E0,3.276070356E0,-4.565781355E-1,-5.799030662E-1
1.159480000E0,3.275633812E0,-4.913800061E-1,-5.403190255E-1
1.161480000E0,3.273556948E0,-5.295329094E-1,-5.027421117E-1
1.163480000E0,3.269874334E0,-5.709495544E-1,-4.678878784E-1
1.165480000E0,3.264585972E0,-6.149492860E-1,-4.363323152E-1
1.167480000E0,3.259908438E0,-6.587396264E-1,-4.064348340E-1
1.169480000E0,3.256121159E0,-7.015001774E-1,-3.794345856E-1
1.171480000E0,3.252682924E0,-7.419568896E-1,-3.551919460E-1
1.173480000E0,3.250012398E0,-7.779805064E-1,-3.323805034E-1
1.175480000E0,3.249872923E0,-8.128522038E-1,-3.088883758E-1
1.177480000E0,3.251722813E0,-8.422086239E-1,-2.889218032E-1
1.179480000E0,3.254044294E0,-8.655087948E-1,-2.750988007E-1
1.181480000E0,3.257831573E0,-8.898386359E-1,-2.625324130E-1
1.183480000E0,3.263468981E0,-9.142557979E-1,-2.514146864E-1
1.185480000E0,3.270502567E0,-9.390220642E-1,-2.418502718E-1
1.187480000E0,3.278112411E0,-9.642595053E-1,-2.332108915E-1
1.189480000E0,3.287502050E0,-9.896889329E-1,-2.259154171E-1
1.191480000E0,3.297974110E0,-1.016444802E0,-2.185326815E-1
1.193480000E0,3.308847427E0,-1.045330048E0,-2.110975683E-1
1.195480000E0,3.322443724E0,-1.075402021E0,-2.052332610E-1
1.197480000E0,3.338378429E0,-1.106259465E0,-2.018996924E-1
1.199480000E0,3.355919123E0,-1.138076782E0,-2.008524835E-1
1.201480000E0,3.376007795E0,-1.170906544E0,-2.013760954E-1
1.203480000E0,3.399011135E0,-1.204486609E0,-2.047445774E-1
1.205480000E0,3.423533201E0,-1.237403512E0,-2.108532190E-1
1.207480000E0,3.449922562E0,-1.268784523E0,-2.187072039E-1
1.209480000E0,3.479593039E0,-1.298298120E0,-2.275909334E-1
1.211480000E0,3.512195826E0,-1.326397896E0,-2.368760854E-1
1.213480000E0,3.546613693E0,-1.353625059E0,-2.460390627E-1
1.215480000E0,3.587768555E0,-1.382702231E0,-2.548006177E-1
1.217480000E0,3.627248049E0,-1.407468438E0,-2.618517578E-1
1.219478437E0,3.661316872E0,-1.425445318E0,-2.669306695E-1
1.221480000E0,3.698841333E0,-1.443177819E0,-2.699326277E-1
1.223480000E0,3.737797022E0,-1.458606601E0,-2.692694068E-1
1.225480000E0,3.783332825E0,-1.471836209E0,-2.626895010E-1
1.227480000E0,3.825220585E0,-1.481627464E0,-2.527411282E-1
1.229480000E0,3.858364344E0,-1.488469124E0,-2.398605943E-1
1.231480000E0,3.892380953E0,-1.495659947E0,-2.207317948E-1
1.233480000E0,3.926100731E0,-1.502693534E0,-1.971523911E-1
1.235480000E0,3.959401608E0,-1.509971619E0,-1.695761830E-1
1.237480000E0,3.992213726E0,-1.518314242E0,-1.384569705E-1
1.239480000E0,4.023873806E0,-1.527058363E0,-1.049640998E-1
1.241480000E0,4.053806305E0,-1.536622763E0,-6.892304868E-2
1.243480000E0,4.082412243E0,-1.548717856E0,-3.120648675E-2
1.245480000E0,4.108243465E0,-1.564705133E0,7.173303049E-3
1.247480000E0,4.131072044E0,-1.584462285E0,4.647811875E-2
1.249480000E0,4.150794506E0,-1.607326031E0,8.709193021E-2
1.251480000E0,4.166066170E0,-1.632423878E0,1.279326379E-1
1.253480000E0,4.177968979E0,-1.659057617E0,1.679181308E-1
1.255480000E0,4.185666084E0,-1.685045600E0,2.069087774E-1
1.257480000E0,4.188476086E0,-1.708572626E0,2.439272106E-1
1.259480000E0,4.186782837E0,-1.730127454E0,2.792003155E-1
1.261480000E0,4.180727005E0,-1.748697758E0,3.128153682E-1
1.263480000E0,4.170987606E0,-1.762887239E0,3.448072374E-1
1.265480000E0,4.158194542E0,-1.771491766E0,3.773925304E-1
1.267480000E0,4.142888069E0,-1.774371505E0,4.102396369E-1
1.269480000E0,4.124666691E0,-1.771125197E0,4.422140718E-1
1.271480000E0,4.102413654E0,-1.760339022E0,4.757592976E-1
1.273480000E0,4.075361252E0,-1.743007898E0,5.099328160E-1
1.275480000E0,4.043194771E0,-1.721418262E0,5.427799225E-1
1.277480000E0,4.006752491E0,-1.695918918E0,5.750859976E-1
1.279480000E0,3.966347933E0,-1.667539954E0,6.062226892E-1
1.281480000E0,3.921493053E0,-1.639579773E0,6.343747973E-1
1.283480000E0,3.872937918E0,-1.613993168E0,6.578146219E-1
1.285480000E0,3.819391251E0,-1.589680791E0,6.787236333E-1
1.287480000E0,3.758775949E0,-1.563378692E0,7.023903131E-1
1.289480000E0,3.690551043E0,-1.534685493E0,7.312754989E-1
1.291480000E0,3.613843918E0,-1.505643129E0,7.663915157E-1
1.293480000E0,3.528026104E0,-1.479288697E0,8.081398010E-1
1.295480000E0,3.432155132E0,-1.459409356E0,8.551240563E-1
1.297480000E0,3.325916767E0,-1.447541118E0,9.067683816E-1
1.299480000E0,3.211004496E0,-1.445237279E0,9.621825814E-1
1.301480000E0,3.088796377E0,-1.454068661E0,1.018835902E0
1.303480000E0,2.959834099E0,-1.475030065E0,1.075978041E0
1.305480000E0,2.824326754E0,-1.509133816E0,1.132701278E0
1.307480000E0,2.683932304E0,-1.555838823E0,1.187364936E0
1.309480000E0,2.539995193E0,-1.611148357E0,1.239271045E0
1.311480000E0,2.393020868E0,-1.672182441E0,1.286918521E0
1.313480000E0,2.246710062E0,-1.738051176E0,1.329033256E0
1.315480000E0,2.103191614E0,-1.805892229E0,1.363870144E0
1.317480000E0,1.962710023E0,-1.871708512E0,1.392231703E0
1.319480000E0,1.827551723E0,-1.933842301E0,1.416107774E0
1.321480000E0,1.699636579E0,-1.992275834E0,1.434643149E0
1.323480000E0,1.578755021E0,-2.048580170E0,1.447244406E0
1.325480000E0,1.464523196E0,-2.104954243E0,1.454592347E0
1.327480000E0,1.356155753E0,-2.160735130E0,1.458833456E0
1.329480000E0,1.252710104E0,-2.216882229E0,1.460892916E0
1.331480000E0,1.154413104E0,-2.274792433E0,1.460456610E0
1.333480000E0,1.062643766E0,-2.333068848E0,1.459025383E0
1.335480000E0,9.779428840E-1,-2.390263319E0,1.457175374E0
1.337480000E0,9.005375504E-1,-2.445101500E0,1.454208374E0
1.339480000E0,8.305149078E-1,-2.495820761E0,1.450159192E0
1.341480000E0,7.682415843E-1,-2.541094780E0,1.445359468E0
1.343480000E0,7.151137590E-1,-2.580364466E0,1.438674927E0
1.345480000E0,6.710790992E-1,-2.613072157E0,1.429634094E0
1.347480000E0,6.358059645E-1,-2.639007568E0,1.418376684E0
1.349478437E0,6.094340682E-1,-2.657141685E0,1.404012680E0
1.351480000E0,5.920854807E-1,-2.666095257E0,1.386175394E0
1.353480000E0,5.831319690E-1,-2.665327311E0,1.364079475E0
1.355480000E0,5.816833377E-1,-2.654279232E0,1.336765170E0
1.357480000E0,5.864655375E-1,-2.633056164E0,1.304197311E0
1.359480000E0,5.969375372E-1,-2.602634907E0,1.265992045E0
1.361480000E0,6.144605875E-1,-2.565005779E0,1.222672939E0
1.363480000E0,6.373767853E-1,-2.520011187E0,1.176002860E0
1.365480000E0,6.640628576E-1,-2.464771509E0,1.127011418E0
1.367480000E0,6.938556433E-1,-2.397139788E0,1.075820923E0
1.369480000E0,7.249224782E-1,-2.317849636E0,1.023740292E0
1.371480000E0,7.568271160E-1,-2.229082108E0,9.728639722E-1
1.373480000E0,7.878066897E-1,-2.135183334E0,9.237504005E-1
1.375480000E0,8.155574203E-1,-2.040150166E0,8.769406676E-1
1.377480000E0,8.394859433E-1,-1.948433161E0,8.326267600E-1
1.379480000E0,8.577595353E-1,-1.864378095E0,7.899709344E-1
1.381480000E0,8.699244857E-1,-1.789137006E0,7.498807311E-1
1.383480000E0,8.764519691E-1,-1.724734306E0,7.146250606E-1
1.385480000E0,8.753175139E-1,-1.673910379E0,6.847974062E-1
1.387480000E0,8.647582531E-1,-1.638375521E0,6.613052487E-1
1.389480000E0,8.446869850E-1,-1.618234396E0,6.444802880E-1
1.391480000E0,8.163079619E-1,-1.613818645E0,6.344795227E-1
1.393480000E0,7.801272869E-1,-1.624971390E0,6.319836974E-1
1.395480000E0,7.360576987E-1,-1.650976777E0,6.350729465E-1
1.397480000E0,6.849719286E-1,-1.690281510E0,6.416877508E-1
1.399480000E0,6.285105348E-1,-1.739412546E0,6.519677639E-1
1.401480000E0,5.679650307E-1,-1.796345234E0,6.653020382E-1
1.403480000E0,5.035449266E-1,-1.861515760E0,6.808180213E-1
1.405480000E0,4.347265959E-1,-1.934121490E0,6.978698969E-1
1.407480000E0,3.625048697E-1,-2.011334896E0,7.146075964E-1
1.409480000E0,2.879793346E-1,-2.091689825E0,7.299315929E-1
1.411480000E0,2.118829638E-1,-2.174261332E0,7.453253865E-1
1.413480000E0,1.351233870E-1,-2.257757902E0,7.610682845E-1
1.415480000E0,5.780530348E-2,-2.340975285E0,7.759908438E-1
1.417480000E0,-2.036799304E-2,-2.423459530E0,7.905817628E-1
1.419480000E0,-9.953612834E-2,-2.505961180E0,8.053647280E-1
1.421480000E0,-1.803797781E-1,-2.590051174E0,8.199033141E-1
1.423480000E0,-2.618866563E-1,-2.673826933E0,8.330805302E-1
1.425480000E0,-3.398854136E-1,-2.750865698E0,8.425576687E-1
1.427480000E0,-4.120373428E-1,-2.815669775E0,8.451407552E-1
1.429480000E0,-4.799131751E-1,-2.864469290E0,8.420864344E-1
1.431480000E0,-5.444729328E-1,-2.895693302E0,8.345466256E-1
1.433480000E0,-6.026447415E-1,-2.911558151E0,8.200953007E-1
1.435480000E0,-6.503096819E-1,-2.915799379E0,7.993956804E-1
1.437480000E0,-6.867521405E-1,-2.910580873E0,7.735997438E-1
1.439480000E0,-7.142061591E-1,-2.894576311E0,7.432135344E-1
1.441480000E0,-7.335968018E-1,-2.865970135E0,7.097032070E-1
1.443480000E0,-7.449588776E-1,-2.826543331E0,6.742730737E-1
1.445480000E0,-7.483099103E-1,-2.777342319E0,6.387032270E-1
1.447480000E0,-7.443131208E-1,-2.715662479E0,6.040409803E-1
1.449480000E0,-7.341727614E-1,-2.636267424E0,5.687679052E-1
1.451480000E0,-7.171034217E-1,-2.540187120E0,5.323254466E-1
1.453480000E0,-6.931051612E-1,-2.433215857E0,4.947484732E-1
1.455480000E0,-6.640803218E-1,-2.318966627E0,4.539077878E-1
1.457480000E0,-6.311284900E-1,-2.201750278E0,4.101174772E-1
1.459480000E0,-5.965535641E-1,-2.084603786E0,3.657861054E-1
1.461480000E0,-5.635493398E-1,-1.969045520E0,3.221703172E-1
1.463480000E0,-5.337042212E-1,-1.856367111E0,2.816961408E-1
1.465480000E0,-5.057615042E-1,-1.745154738E0,2.472258806E-1
1.467480000E0,-4.795641303E-1,-1.635181546E0,2.205747068E-1
1.469480000E0,-4.559498131E-1,-1.529816031E0,2.021440268E-1
1.471480000E0,-4.343426228E-1,-1.427277923E0,1.924400032E-1
1.473480000E0,-4.132415950E-1,-1.325874209E0,1.929112375E-1
1.475480000E0,-3.901334405E-1,-1.234087348E0,2.057219595E-1
1.477480000E0,-3.652625084E-1,-1.167695045E0,2.320938855E-1
1.479480000E0,-3.396759629E-1,-1.133416772E0,2.715383172E-1
1.481480000E0,-3.125186563E-1,-1.120710850E0,3.226415515E-1
1.483480000E0,-2.828480601E-1,-1.115544677E0,3.841644228E-1
1.485480000E0,-2.505769134E-1,-1.109977007E0,4.543266594E-1
1.487480000E0,-2.184977680E-1,-1.093186975E0,5.308768153E-1
1.489480000E0,-1.909215599E-1,-1.054161429E0,6.115982533E-1
1.491480000E0,-1.714785993E-1,-9.975603819E-1,6.921103001E-1
1.493480000E0,-1.629439443E-1,-9.356884360E-1,7.690618634E-1
1.495480000E0,-1.661029905E-1,-8.745146990E-1,8.407949209E-1
1.497480000E0,-1.812698990E-1,-8.180532455E-1,9.047263265E-1
1.499480000E0,-2.057568580E-1,-7.698298097E-1,9.600881934E-1
1.501480000E0,-2.359161526E-1,-7.271565199E-1,1.007246971E0
1.503480000E0,-2.687108815E-1,-6.870488524E-1,1.046970606E0
1.505480000E0,-3.003711700E-1,-6.486341357E-1,1.079852700E0
1.507480000E0,-3.280870020E-1,-6.118600965E-1,1.108074665E0
1.509480000E0,-3.516838551E-1,-5.732010603E-1,1.133451700E0
1.511480000E0,-3.720169365E-1,-5.230751634E-1,1.154832006E0
1.513480000E0,-3.900810778E-1,-4.550073445E-1,1.171115875E0
1.515480000E0,-4.078485370E-1,-3.707951903E-1,1.180575609E0
1.517480000E0,-4.289670289E-1,-2.787465453E-1,1.183176160E0
1.519480000E0,-4.552516937E-1,-1.879370511E-1,1.176962733E0
1.521480000E0,-4.826708138E-1,-1.127831787E-1,1.155181050E0
1.523480000E0,-5.093045235E-1,-5.883504823E-2,1.119174957E0
1.525480000E0,-5.375090241E-1,-1.036725566E-2,1.081161618E0
1.527480000E0,-5.685584545E-1,4.281292483E-2,1.050216913E0
1.529480000E0,-6.023305655E-1,1.017003357E-1,1.031000853E0
1.531480000E0,-6.372371316E-1,1.711295396E-1,1.023478508E0
1.533480000E0,-6.694384813E-1,2.530552745E-1,1.023269057E0
1.535480000E0,-6.939079762E-1,3.441614807E-1,1.026655078E0
1.537480000E0,-7.089178562E-1,4.374318719E-1,1.028976321E0
1.539480000E0,-7.165972590E-1,5.218011141E-1,1.027719617E0
1.541480000E0,-7.203671932E-1,5.905321240E-1,1.023722887E0
1.543480000E0,-7.225313783E-1,6.403089166E-1,1.017998219E0
1.545480000E0,-7.246606946E-1,6.675011516E-1,1.011889577E0
1.547480000E0,-7.286924124E-1,6.697351933E-1,1.007508755E0
1.549480000E0,-7.338062525E-1,6.488610506E-1,1.006339431E0
1.551480000E0,-7.380997539E-1,6.078632474E-1,1.010929585E0
1.553480000E0,-7.407875657E-1,5.501278043E-1,1.022570968E0
1.555480000E0,-7.412588000E-1,4.805414975E-1,1.039937019E0
1.557480000E0,-7.386058569E-1,3.988775313E-1,1.061858296E0
1.559480000E0,-7.331081033E-1,3.075619340E-1,1.088753819E0
1.561480000E0,-7.239276767E-1,2.202081978E-1,1.120536327E0
1.563480000E0,-7.107155323E-1,1.467647403E-1,1.154308438E0
1.565480000E0,-6.955485940E-1,8.405505866E-2,1.189214945E0
1.567480000E0,-6.802245975E-1,2.853613347E-2,1.225186229E0
1.569480000E0,-6.635741591E-1,-2.087413706E-2,1.259412169E0
1.571480000E0,-6.444802880E-1,-6.688101590E-2,1.291334152E0
1.573480000E0,-6.240948439E-1,-1.121199504E-1,1.322313786E0
1.575480000E0,-6.000092626E-1,-1.554739326E-1,1.351338625E0
1.577480000E0,-5.665338635E-1,-1.895253062E-1,1.377675653E0
1.579480000E0,-5.235463977E-1,-2.075022012E-1,1.401010752E0
1.581480000E0,-4.782725871E-1,-2.069087774E-1,1.420942307E0
1.583480000E0,-4.358610809E-1,-1.893158704E-1,1.435358763E0
1.585480000E0,-3.993487954E-1,-1.569050997E-1,1.438709855E0
1.587480000E0,-3.708999157E-1,-1.086816490E-1,1.429651499E0
1.589480000E0,-3.561693430E-1,-5.117305368E-2,1.417748451E0
1.591480000E0,-3.631157577E-1,5.689773243E-3,1.412599683E0
1.593480000E0,-3.984586596E-1,4.745550081E-2,1.412704349E0
1.595480000E0,-4.693364799E-1,6.602580845E-2,1.415915847E0
1.597480000E0,-5.657484531E-1,8.370599151E-2,1.419423938E0
1.599480000E0,-6.643246412E-1,1.281420738E-1,1.414536953E0
1.601480000E0,-7.502123117E-1,2.071356773E-1,1.398671985E0
1.603480000E0,-8.227481842E-1,3.052755296E-1,1.377989769E0
1.605480000E0,-8.844630718E-1,4.051781893E-1,1.357901096E0
1.607480000E0,-9.269443750E-1,5.111894608E-1,1.333623528E0
1.609480000E0,-9.407673478E-1,6.297845840E-1,1.298490047E0
1.611480000E0,-9.343969226E-1,7.386582494E-1,1.258626699E0
1.613480000E0,-9.305397272E-1,8.044397235E-1,1.226303220E0
1.615480000E0,-9.444325566E-1,8.201650977E-1,1.203683734E0
1.617480000E0,-9.683959484E-1,8.111068606E-1,1.183420539E0
1.619480000E0,-9.857270718E-1,8.039335608E-1,1.161289692E0
1.621480000E0,-9.902648926E-1,8.048062325E-1,1.140275955E0
1.623480000E0,-9.813637137E-1,8.130616546E-1,1.123206615E0
1.625480000E0,-9.584999084E-1,8.268322945E-1,1.108685493E0
1.627480000E0,-9.239423871E-1,8.425402641E-1,1.095822453E0
1.629480000E0,-8.820893764E-1,8.577769399E-1,1.085542440E0
1.631480000E0,-8.394859433E-1,8.699768186E-1,1.078840375E0
1.633480000E0,-8.006872535E-1,8.780925870E-1,1.076100230E0
1.635480000E0,-7.659552097E-1,8.858069777E-1,1.076885581E0
1.637480000E0,-7.350803018E-1,8.933816552E-1,1.080987096E0
1.639480000E0,-7.057936788E-1,9.002408385E-1,1.088649154E0
1.641480000E0,-6.765070558E-1,9.068207145E-1,1.098405480E0
1.643480000E0,-6.484945416E-1,9.120392799E-1,1.108371377E0
1.645480000E0,-6.219305992E-1,9.135227799E-1,1.118110299E0
1.647480000E0,-5.966058969E-1,9.093863368E-1,1.128076077E0
1.649480000E0,-5.743005872E-1,8.995077610E-1,1.140328288E0
1.651480000E0,-5.560619235E-1,8.841139674E-1,1.155425429E0
1.653480000E0,-5.407553315E-1,8.633270860E-1,1.172616959E0
1.655480000E0,-5.285205841E-1,8.375136852E-1,1.193194389E0
1.657480000E0,-5.200732350E-1,8.086982965E-1,1.218292117E0
1.659480000E0,-5.163207650E-1,7.777012587E-1,1.247125030E0
1.661480000E0,-5.166872740E-1,7.448890805E-1,1.279064536E0
1.663480000E0,-5.196717978E-1,7.094414234E-1,1.314477324E0
1.665480000E0,-5.256233811E-1,6.688101888E-1,1.351617932E0
1.667480000E0,-5.337216854E-1,6.203947067E-1,1.389159918E0
1.669480000E0,-5.423959494E-1,5.640729666E-1,1.427784085E0
1.671480000E0,-5.503371954E-1,4.994783103E-1,1.467176080E0
1.673480000E0,-5.592558384E-1,4.270995259E-1,1.505625725E0
1.675480000E0,-5.707750320E-1,3.509333432E-1,1.543063045E0
1.677480000E0,-5.846154690E-1,2.722539008E-1,1.577864885E0
1.679480000E0,-6.057165265E-1,1.928937882E-1,1.609071374E0
1.681480000E0,-6.525087953E-1,1.135511175E-1,1.644833207E0
1.683480000E0,-7.592880130E-1,2.380629070E-2,1.697577000E0
1.685480000E0,-9.609084725E-1,-9.066985548E-2,1.771753550E0
1.687480000E0,-1.253809571E0,-2.259677798E-1,1.859072328E0
1.689480000E0,-1.578842282E0,-3.321710527E-1,1.939130664E0
1.691480000E0,-1.854761362E0,-3.378433883E-1,1.987179518E0
1.693480000E0,-2.045351267E0,-2.542944849E-1,1.995696783E0
1.695480000E0,-2.179445028E0,-1.669407487E-1,1.975485802E0
1.697480000E0,-2.294305086E0,-1.219112501E-1,1.936634779E0
1.699480000E0,-2.400089502E0,-1.051735431E-1,1.884222507E0
1.701480000E0,-2.476604700E0,-7.751007378E-2,1.823729396E0
1.703480000E0,-2.518161058E0,-4.605923966E-2,1.762189150E0
1.705480000E0,-2.551496744E0,-5.630432069E-2,1.707787156E0
1.707480000E0,-2.589056253E0,-1.166403517E-1,1.667958856E0
1.709480000E0,-2.625481367E0,-2.093871534E-1,1.641010880E0
1.711480000E0,-2.657351017E0,-3.188018501E-1,1.622161388E0
1.713480000E0,-2.676968575E0,-4.229805470E-1,1.607221365E0
1.715480000E0,-2.673896790E0,-5.054822564E-1,1.591670513E0
1.717480000E0,-2.645500183E0,-5.646314621E-1,1.573658705E0
1.719480000E0,-2.595741034E0,-6.041631699E-1,1.550550461E0
1.721480000E0,-2.525316954E0,-6.291038990E-1,1.519989729E0
1.723480000E0,-2.432255983E0,-6.395758986E-1,1.479463220E0
1.725480000E0,-2.318931818E0,-6.390872002E-1,1.429197788E0
1.727480000E0,-2.186635733E0,-6.370102763E-1,1.372439623E0
1.729480000E0,-2.038090706E0,-6.402565837E-1,1.309241295E0
1.731480000E0,-1.877869606E0,-6.605198383E-1,1.239009261E0
1.733480000E0,-1.710387707E0,-7.075913548E-1,1.164972425E0
1.735480000E0,-1.540898800E0,-7.722034454E-1,1.091598749E0
1.737480000E0,-1.368687153E0,-8.351225853E-1,1.022902608E0
1.739480000E0,-1.167293668E0,-8.910429478E-1,9.570687413E-1
1.741480000E0,-9.167516232E-1,-9.475741386E-1,8.907985687E-1
1.743480000E0,-6.392791867E-1,-1.007822871E0,8.262737989E-1
1.745480000E0,-3.675663471E-1,-1.063289523E0,7.627612352E-1
1.747480000E0,-1.218588874E-1,-1.098806977E0,6.942919493E-1
1.749480000E0,8.765043318E-2,-1.114846468E0,6.156125069E-1
1.751480000E0,2.619564533E-1,-1.117586732E0,5.239303708E-1
1.753480000E0,4.083546698E-1,-1.102594256E0,4.165402651E-1
1.755480000E0,5.288522243E-1,-1.064930081E0,2.970550358E-1
1.757480000E0,6.116855145E-1,-1.002883673E0,1.796292812E-1
1.759480000E0,6.416004896E-1,-9.205040932E-1,7.815584540E-2
1.761480000E0,6.215990186E-1,-8.282459974E-1,-8.569566533E-3
1.763480000E0,5.714557171E-1,-7.310485840E-1,-9.281660616E-2
1.765480000E0,5.109800696E-1,-6.302384138E-1,-1.832770258E-1
1.767480000E0,4.516213834E-1,-5.276653767E-1,-2.826037109E-1
1.769480000E0,3.987553716E-1,-4.253018200E-1,-3.899589181E-1
1.771480000E0,3.554537594E-1,-3.236713111E-1,-5.040336251E-1
1.773480000E0,3.236189485E-1,-2.239082903E-1,-6.214942932E-1
1.775480000E0,3.018198013E-1,-1.315280050E-1,-7.368605733E-1
1.777480000E0,2.882062197E-1,-5.068436265E-2,-8.459959626E-1
1.779480000E0,2.804744244E-1,1.345648803E-2,-9.453401566E-1
1.781480000E0,2.750988007E-1,5.565854907E-2,-1.032170296E0
1.783480000E0,2.713463306E-1,7.094763219E-2,-1.106346726E0
1.785480000E0,2.688679695E-1,5.729915947E-2,-1.168428063E0
1.787480000E0,2.687981427E-1,1.733111963E-2,-1.218623757E0
1.789480000E0,2.731963992E-1,-4.626867920E-2,-1.257055879E0
1.791480000E0,2.825688124E-1,-1.270948797E-1,-1.284370303E0
1.793480000E0,2.980498672E-1,-2.164906412E-1,-1.302434444E0
1.795480000E0,3.185575008E-1,-3.096912205E-1,-1.313255548E0
1.797480000E0,3.445803523E-1,-4.006577730E-1,-1.321144462E0
1.799480000E0,3.775845170E-1,-4.831420481E-1,-1.328754067E0
1.801480000E0,4.153185487E-1,-5.536358953E-1,-1.338178873E0
1.803480000E0,4.562639594E-1,-6.110572219E-1,-1.350221634E0
1.805480000E0,4.997401237E-1,-6.558947563E-1,-1.363014817E0
1.807480000E0,5.433384180E-1,-6.886720061E-1,-1.376418948E0
1.809480000E0,5.850692987E-1,-7.117976546E-1,-1.391673207E0
1.811480000E0,6.225589514E-1,-7.265630960E-1,-1.408602834E0
1.813480000E0,6.482501626E-1,-7.259522676E-1,-1.425602436E0
1.815480000E0,6.546031833E-1,-7.007671595E-1,-1.441362739E0
1.817480000E0,6.410768628E-1,-6.570640802E-1,-1.454400301E0
1.819480000E0,6.125407815E-1,-6.064495444E-1,-1.463807583E0
1.821480000E0,5.725203753E-1,-5.511226058E-1,-1.467647314E0
1.823480000E0,5.243492723E-1,-4.913450778E-1,-1.466041684E0
1.825480000E0,4.709596336E-1,-4.278849065E-1,-1.457821131E0
1.827480000E0,4.103967249E-1,-3.638662398E-1,-1.438692331E0
1.829480000E0,3.418751061E-1,-3.043330610E-1,-1.409440637E0
1.831480000E0,2.644348443E-1,-2.507514656E-1,-1.369437695E0
1.833480000E0,1.729446799E-1,-2.055823356E-1,-1.312749386E0
1.835480000E0,7.161086053E-2,-1.673072577E-1,-1.240126252E0
1.837480000E0,-2.548180707E-2,-1.271123290E-1,-1.158793926E0
1.839480000E0,-1.088736355E-1,-7.887142897E-2,-1.077077627E0
1.841480000E0,-1.747074574E-1,-2.199114859E-2,-1.002150655E0
1.843480000E0,-2.223374993E-1,4.153883457E-2,-9.388300776E-1
1.845480000E0,-2.527760267E-1,1.078264415E-1,-8.922297359E-1
1.847480000E0,-2.667386830E-1,1.704663038E-1,-8.650375605E-1
1.849480000E0,-2.645221055E-1,2.224771231E-1,-8.555604219E-1
1.851480000E0,-2.503674924E-1,2.581691146E-1,-8.592779636E-1
1.853480000E0,-2.370331585E-1,2.790083289E-1,-8.699418902E-1
1.855480000E0,-2.388657629E-1,2.897072136E-1,-8.812341690E-1
1.857486250E0,-2.598097026E-1,2.918365002E-1,-8.880234957E-1
1.859480000E0,-2.945417762E-1,2.864085436E-1,-8.898561001E-1
1.861480000E0,-3.317172825E-1,2.740865052E-1,-8.924915791E-1
1.863480000E0,-3.569547236E-1,2.558129132E-1,-9.030333757E-1
1.865480000E0,-3.555410206E-1,2.259677798E-1,-9.265778661E-1
1.867480000E0,-3.133040667E-1,1.693143845E-1,-9.607862830E-1
1.869480000E0,-2.209935933E-1,8.817403018E-2,-1.003424644E0
1.871480000E0,-7.641051710E-2,6.859143730E-3,-1.056133628E0
1.873480000E0,1.108982190E-1,-6.031857803E-2,-1.114514947E0
1.875480000E0,3.168645203E-1,-1.204975322E-1,-1.169859290E0
1.877480000E0,5.130918622E-1,-1.951801628E-1,-1.212253332E0
1.879480000E0,6.772226691E-1,-3.003886044E-1,-1.234890223E0
1.881480000E0,8.115955591E-1,-4.142364562E-1,-1.242203236E0
1.883480000E0,9.410815239E-1,-4.978202581E-1,-1.257806420E0
1.885480000E0,1.077758312E0,-5.485744476E-1,-1.301718950E0
1.887480000E0,1.214208126E0,-5.906892419E-1,-1.368844271E0
1.889480000E0,1.340133667E0,-6.441311836E-1,-1.446022749E0
1.891480000E0,1.446301937E0,-7.132288218E-1,-1.524161100E0
1.893480000E0,1.530234814E0,-7.776663303E-1,-1.600798488E0
1.895480000E0,1.602282047E0,-8.004080057E-1,-1.685639024E0
1.897480000E0,1.675795317E0,-7.613824010E-1,-1.789625645E0
1.899480000E0,1.742658854E0,-6.851987839E-1,-1.899808288E0
1.901480000E0,1.780602336E0,-6.144257188E-1,-1.981594443E0
1.903480000E0,1.785628915E0,-5.619436502E-1,-2.019921780E0
1.905480000E0,1.769676566E0,-5.124810338E-1,-2.034268618E0
1.907480000E0,1.744892955E0,-4.576427937E-1,-2.047690153E0
1.909480000E0,1.710178256E0,-4.103792608E-1,-2.067359924E0
1.911480000E0,1.656579256E0,-3.876550794E-1,-2.088618040E0
1.913480000E0,1.583013654E0,-3.938859105E-1,-2.100416422E0
1.915480000E0,1.494665027E0,-4.213573933E-1,-2.097658873E0
1.917480000E0,1.399684191E0,-4.625296891E-1,-2.085790634E0
1.919480000E0,1.306728005E0,-5.174726844E-1,-2.070239782E0
1.921480000E0,1.218379498E0,-5.928708911E-1,-2.051599741E0
1.923480000E0,1.132247448E0,-6.933146119E-1,-2.031371355E0
1.925480000E0,1.052032113E0,-8.080700040E-1,-2.012417078E0
1.927480000E0,9.824633002E-1,-9.204168320E-1,-1.992712259E0
1.929480000E0,9.181479216E-1,-1.030547142E0,-1.970476747E0
1.931480000E0,8.559967279E-1,-1.144813776E0,-1.946286440E0
1.933480000E0,7.985056043E-1,-1.263304234E0,-1.916231871E0
1.935480000E0,7.466867566E-1,-1.387589097E0,-1.873069882E0
1.937478437E0,7.022331953E-1,-1.517738342E0,-1.814461708E0
1.939480000E0,6.677280664E-1,-1.651831985E0,-1.742309809E0
1.941480000E0,6.435901523E-1,-1.788787961E0,-1.660226941E0
1.943480000E0,6.302907467E-1,-1.919984341E0,-1.571581721E0
1.945480000E0,6.289817691E-1,-2.033360958E0,-1.476164579E0
1.947480000E0,6.398028135E-1,-2.124955893E0,-1.377658129E0
1.949480000E0,6.606245637E-1,-2.196653843E0,-1.281071663E0
1.951480000E0,6.855129600E-1,-2.249188423E0,-1.185567260E0
1.953480000E0,7.079579234E-1,-2.279731512E0,-1.086711764E0
1.955480000E0,7.243465185E-1,-2.286468506E0,-9.830392599E-1
1.957480000E0,7.341902256E-1,-2.268387079E0,-8.789652586E-1
1.959480000E0,7.381870151E-1,-2.225992918E0,-7.760083079E-1
1.961480000E0,7.376110554E-1,-2.159495831E0,-6.738017797E-1
1.963480000E0,7.313627601E-1,-2.068668842E0,-5.738118887E-1
1.965480000E0,7.177841067E-1,-1.956252337E0,-4.819726646E-1
1.967480000E0,6.964736581E-1,-1.825579524E0,-4.007101357E-1
1.969480000E0,6.672742963E-1,-1.678971887E0,-3.307049870E-1
1.971480000E0,6.282486916E-1,-1.518593550E0,-2.757096589E-1
1.973480000E0,5.767091513E-1,-1.346312046E0,-2.293188125E-1
1.975480000E0,5.121493936E-1,-1.164762974E0,-1.870818436E-1
1.977480000E0,4.366464615E-1,-9.756565094E-1,-1.503252089E-1
1.979480000E0,3.525564969E-1,-7.793767452E-1,-1.132718697E-1
1.981480000E0,2.634225488E-1,-5.776341558E-1,-7.829546928E-2
1.983480000E0,1.725257933E-1,-3.755773902E-1,-5.206317082E-2
1.985480000E0,8.185594529E-2,-1.796816438E-1,-2.876302600E-2
1.987480000E0,-3.630284918E-3,9.861109778E-3,-6.021386012E-3
1.989480000E0,-8.199556917E-2,1.889842451E-1,1.111774705E-2
1.991480000E0,-1.524021477E-1,3.531150222E-1,2.220058814E-2
1.993480000E0,-2.097885758E-1,5.083096623E-1,2.892010473E-2
1.995480000E0,-2.517637312E-1,6.551268101E-1,2.881538495E-2
1.997480000E0,-2.821150124E-1,7.843335271E-1,1.930334233E-2
1.999480000E0,-3.017150760E-1,8.918457627E-1,1.850049011E-3
2.001480000E0,-3.093945086E-1,9.801070690E-1,-1.816887781E-2
2.003480000E0,-3.046123087E-1,1.053602934E0,-4.117231816E-2
2.005480000E0,-2.881538570E-1,1.113188505E0,-6.977826357E-2
2.007480000E0,-2.603158653E-1,1.162685990E0,-1.006880477E-1
2.009480000E0,-2.202430964E-1,1.209670305E0,-1.334653348E-1
2.011480000E0,-1.682671905E-1,1.260040402E0,-1.660506278E-1
2.013480000E0,-1.070235893E-1,1.310532808E0,-1.960528344E-1
2.015480000E0,-4.201007634E-2,1.350657940E0,-2.281494439E-1
2.017480000E0,2.577851340E-2,1.376139760E0,-2.648886144E-1
2.019480000E0,9.314822406E-2,1.379874706E0,-3.054151535E-1
2.021480000E0,1.549852341E-1,1.357098222E0,-3.468318284E-1
2.023480000E0,2.098234892E-1,1.312155962E0,-3.858050406E-1
2.025480000E0,2.577153146E-1,1.253146410E0,-4.199611247E-1
2.027480000E0,2.993065119E-1,1.188726306E0,-4.477642179E-1
2.029480000E0,3.348588645E-1,1.123992085E0,-4.698077142E-1
2.031480000E0,3.660478890E-1,1.057564855E0,-4.857251346E-1
2.033480000E0,3.932750523E-1,9.910677671E-1,-4.947310388E-1
2.035480000E0,4.147600532E-1,9.302256107E-1,-4.980820715E-1
2.037480000E0,4.320388138E-1,8.811469078E-1,-4.975410104E-1
2.039480000E0,4.485321641E-1,8.485441804E-1,-4.929158986E-1
2.041480000E0,4.637688994E-1,8.286474347E-1,-4.872435629E-1
2.043480000E0,4.794419408E-1,8.167617321E-1,-4.852364361E-1
2.045480000E0,5.003510118E-1,8.046665788E-1,-4.885351062E-1
2.047480000E0,5.268450975E-1,7.852236032E-1,-4.971395731E-1
2.049480000E0,5.562539101E-1,7.615220547E-1,-5.107356906E-1
2.051480000E0,5.852786899E-1,7.360926270E-1,-5.282588005E-1
2.053480000E0,6.103416085E-1,7.118674517E-1,-5.429719090E-1
2.055480000E0,6.281265616E-1,6.963165402E-1,-5.518032908E-1
2.057480000E0,6.375687718E-1,6.925117373E-1,-5.557128191E-1
2.059480000E0,6.414085031E-1,6.982189417E-1,-5.538278818E-1
2.061480000E0,6.454925537E-1,7.109598517E-1,-5.454851985E-1
2.063480000E0,6.512696147E-1,7.224615812E-1,-5.310513377E-1
2.065480000E0,6.564532518E-1,7.271390557E-1,-5.134932995E-1
2.067480000E0,6.607816815E-1,7.284131646E-1,-4.937187433E-1
2.069480000E0,6.647435427E-1,7.305075526E-1,-4.749389887E-1
2.071480000E0,6.698399186E-1,7.338935137E-1,-4.616221189E-1
2.073480000E0,6.763325334E-1,7.365289330E-1,-4.527209401E-1
2.075480000E0,6.821270585E-1,7.357086539E-1,-4.472057223E-1
2.077480000E0,6.851115227E-1,7.300013900E-1,-4.452683926E-1
2.079480000E0,6.916914582E-1,7.276975513E-1,-4.476420581E-1
2.081480000E0,7.047988772E-1,7.305250168E-1,-4.577649534E-1
2.083480000E0,7.167543769E-1,7.238054872E-1,-4.707152843E-1
2.085480000E0,7.228804827E-1,6.989694834E-1,-4.791452289E-1
2.087480000E0,7.244338393E-1,6.604500413E-1,-4.869992137E-1
2.089480000E0,7.209606171E-1,6.122614741E-1,-4.974537492E-1
2.091480000E0,7.148170471E-1,5.683315396E-1,-5.108753443E-1
2.093480000E0,7.129321098E-1,5.450837612E-1,-5.317843556E-1
2.095480000E0,7.153406739E-1,5.425705314E-1,-5.652423501E-1
2.097480000E0,7.197737694E-1,5.554335713E-1,-6.139020920E-1
2.099480000E0,7.253763080E-1,5.799379945E-1,-6.769434214E-1
2.101480000E0,7.311358452E-1,6.132563353E-1,-7.505788207E-1
2.103480000E0,7.318863869E-1,6.464001536E-1,-8.317017555E-1
2.105480000E0,7.211526036E-1,6.680771112E-1,-9.196314216E-1
2.107480000E0,6.972066760E-1,6.734527349E-1,-1.009411216E0
2.109480000E0,6.615844965E-1,6.629981995E-1,-1.090446830E0
2.111480000E0,6.202551126E-1,6.451784372E-1,-1.154378176E0
2.113480000E0,5.816484094E-1,6.297147870E-1,-1.199652076E0
2.115480000E0,5.498310924E-1,6.218433380E-1,-1.229130626E0
2.117480000E0,5.258502364E-1,6.277949214E-1,-1.243965983E0
2.119480000E0,5.075591803E-1,6.466270089E-1,-1.244000912E0
2.121480000E0,4.941201508E-1,6.741857529E-1,-1.232970357E0
2.123480000E0,4.886398315E-1,7.122164965E-1,-1.220281839E0
2.125480000E0,4.917814136E-1,7.595847249E-1,-1.213213325E0
2.127480000E0,4.974711835E-1,8.050680161E-1,-1.213178396E0
2.129480000E0,4.953767955E-1,8.346338868E-1,-1.217279911E0
2.131480000E0,4.825311899E-1,8.495041132E-1,-1.221154571E0
2.133480000E0,4.637165368E-1,8.643917441E-1,-1.221782804E0
2.135480000E0,4.447098970E-1,8.859291077E-1,-1.219199777E0
2.137537812E0,4.284434319E-1,9.104684591E-1,-1.214976072E0
2.139480000E0,4.173955023E-1,9.378177524E-1,-1.209792376E0
2.141480000E0,4.103792608E-1,9.625316262E-1,-1.204853177E0
2.143480000E0,4.027870893E-1,9.738413692E-1,-1.199669480E0
2.145480000E0,3.940255344E-1,9.696176648E-1,-1.192827821E0
2.147480000E0,3.917216957E-1,9.593725801E-1,-1.188796163E0
2.149480000E0,4.094018936E-1,9.542587399E-1,-1.198814273E0
2.151480000E0,4.456349015E-1,9.360724092E-1,-1.223109245E0
2.153480000E0,4.812221825E-1,8.693310618E-1,-1.235832691E0
2.155480000E0,5.035973191E-1,7.474721670E-1,-1.215133071E0
2.157480000E0,5.089205503E-1,5.895896554E-1,-1.160609007E0
2.159480000E0,4.975061119E-1,4.230678082E-1,-1.077199817E0
2.161480000E0,4.795990288E-1,2.773153782E-1,-9.763197303E-1
2.163480000E0,4.682194889E-1,1.716007739E-1,-8.762251139E-1
2.165480000E0,4.708374739E-1,1.077217236E-1,-7.894124389E-1
2.167480000E0,4.861091077E-1,7.888887823E-2,-7.234564424E-1
2.169480000E0,5.103167892E-1,7.440338284E-2,-6.839770675E-1
2.171480000E0,5.438445807E-1,8.300785720E-2,-6.732782125E-1
2.173480000E0,5.871636868E-1,9.817477316E-2,-6.894399524E-1
2.175480000E0,6.401518583E-1,1.214051023E-1,-7.237880230E-1
2.177480000E0,7.040134668E-1,1.643227488E-1,-7.715576887E-1
2.179480000E0,7.757813931E-1,2.218662500E-1,-8.269718885E-1
2.181480000E0,8.491724730E-1,2.759191096E-1,-8.833111525E-1
2.183480000E0,9.273458123E-1,3.316823840E-1,-9.494765401E-1
2.185480000E0,1.013146162E0,3.932052255E-1,-1.031960845E0
2.187480000E0,1.097934246E0,4.416206479E-1,-1.123939633E0
2.189480000E0,1.165286541E0,4.518482983E-1,-1.216930866E0
2.191480000E0,1.194276452E0,4.042357206E-1,-1.303708553E0
2.193480000E0,1.171342850E0,3.081727922E-1,-1.372491956E0
2.195480000E0,1.106783032E0,2.179218084E-1,-1.409004331E0
2.197480000E0,1.037563324E0,2.095965892E-1,-1.407450914E0
2.199480000E0,9.958325028E-1,3.119601607E-1,-1.369263172E0
2.201480000E0,9.848369360E-1,4.823915362E-1,-1.305733204E0
2.203480000E0,9.866695404E-1,6.562612653E-1,-1.234436512E0
2.205480000E0,9.792169929E-1,7.866722345E-1,-1.165635586E0
2.207480000E0,9.524959922E-1,8.577595353E-1,-1.104793429E0
2.209480000E0,9.065937996E-1,8.759632707E-1,-1.056674719E0
2.211480000E0,8.474969864E-1,8.574802876E-1,-1.024473310E0
2.213480000E0,7.849443555E-1,8.187164664E-1,-1.006304502E0
2.215480000E0,7.244338393E-1,7.694807649E-1,-9.951343536E-1
2.217478437E0,6.685658097E-1,7.166147232E-1,-9.845751524E-1
2.219480000E0,6.202551126E-1,6.692115664E-1,-9.701936245E-1
2.221480000E0,5.800776482E-1,6.350729465E-1,-9.482373595E-1
2.223480000E0,5.466720462E-1,6.129770875E-1,-9.184620380E-1
2.225480000E0,5.207713246E-1,6.002012491E-1,-8.820370436E-1
2.227480000E0,5.013807416E-1,5.924694538E-1,-8.410043716E-1
2.229480000E0,4.843463302E-1,5.785940886E-1,-7.990640998E-1
2.231480000E0,4.672944546E-1,5.543165803E-1,-7.579964995E-1
2.233480000E0,4.512199759E-1,5.261294842E-1,-7.185520530E-1
2.235480000E0,4.380427301E-1,4.985533059E-1,-6.841865182E-1
2.237480000E0,4.279372692E-1,4.718672037E-1,-6.566277742E-1
2.239480000E0,4.197167754E-1,4.486892521E-1,-6.343747973E-1
2.241480000E0,4.132241607E-1,4.294731617E-1,-6.161535978E-1
2.243480000E0,4.080579877E-1,4.134510458E-1,-5.992762446E-1
2.245480000E0,4.040611684E-1,4.053352773E-1,-5.829225183E-1
2.247480000E0,4.024205506E-1,4.083546698E-1,-5.686981082E-1
2.249480000E0,4.014431834E-1,4.203101993E-1,-5.578595996E-1
2.251480000E0,3.975859880E-1,4.381299913E-1,-5.512273312E-1
2.253480000E0,3.934844732E-1,4.602084160E-1,-5.504244566E-1
2.255480000E0,3.902381659E-1,4.827755094E-1,-5.567425489E-1
2.257480000E0,3.854385018E-1,4.995306730E-1,-5.687679052E-1
2.259480000E0,3.778114319E-1,5.095139742E-1,-5.818753242E-1
2.261480000E0,3.677583337E-1,5.214694738E-1,-5.925741792E-1
2.263480000E0,3.586128056E-1,5.474748611E-1,-6.029239893E-1
2.265480000E0,3.507937193E-1,5.905845165E-1,-6.159790754E-1
2.267480000E0,3.428699374E-1,6.434679627E-1,-6.298195124E-1
2.269480000E0,3.358536959E-1,7.044672370E-1,-6.430141926E-1
2.271480000E0,3.311064243E-1,7.753624916E-1,-6.566103101E-1
2.273480000E0,3.307573497E-1,8.556825519E-1,-6.687577963E-1
2.275480000E0,3.334451616E-1,9.395107627E-1,-6.755995154E-1
2.277480000E0,3.336022198E-1,1.017509460E0,-6.752330065E-1
2.279480000E0,3.292389214E-1,1.089329839E0,-6.675011516E-1
2.281480000E0,3.236887753E-1,1.153296113E0,-6.542541385E-1
2.283480000E0,3.188891113E-1,1.203631401E0,-6.368706226E-1
2.285480000E0,3.134785891E-1,1.235483646E0,-6.130643487E-1
2.287480000E0,3.081029654E-1,1.243093252E0,-5.834984779E-1
2.289480000E0,3.068637848E-1,1.232603908E0,-5.509306192E-1
2.291480000E0,3.092025220E-1,1.208780169E0,-5.159018636E-1
2.293480000E0,3.107907772E-1,1.169719696E0,-4.786041975E-1
2.295480000E0,3.145956099E-1,1.120361805E0,-4.403814673E-1
2.297480000E0,3.256086111E-1,1.063655972E0,-4.036771953E-1
2.299480000E0,3.436727822E-1,1.002691627E0,-3.704286814E-1
2.301480000E0,3.614402413E-1,9.349554181E-1,-3.385764062E-1
2.303480000E0,3.762406111E-1,8.600284457E-1,-3.060434759E-1
2.305480000E0,3.917391598E-1,7.976678014E-1,-2.745053768E-1
2.307480000E0,4.090877175E-1,7.555356026E-1,-2.461961508E-1
2.309480000E0,4.265759289E-1,7.121990323E-1,-2.214124650E-1
2.311480000E0,4.384267032E-1,6.475171447E-1,-1.990198940E-1
2.313480000E0,4.432438016E-1,5.653296113E-1,-1.794896573E-1
2.315480000E0,4.455302060E-1,4.826358855E-1,-1.655444801E-1
2.317480000E0,4.493001103E-1,4.047767520E-1,-1.598547101E-1
2.319480000E0,4.536634386E-1,3.251199424E-1,-1.594358236E-1
2.321480000E0,4.573460817E-1,2.437526882E-1,-1.576904953E-1
2.323480000E0,4.623028040E-1,1.680403054E-1,-1.519309133E-1
2.325480000E0,4.703313112E-1,1.002866179E-1,-1.426457614E-1
2.327480000E0,4.833863974E-1,4.239404574E-2,-1.319119781E-1
2.329480000E0,5.000542998E-1,-6.073745899E-3,-1.196597740E-1
2.331480000E0,5.172632337E-1,-4.696680978E-2,-1.055226028E-1
2.333480000E0,5.353099108E-1,-8.065166324E-2,-9.218829125E-2
2.335480000E0,5.521174669E-1,-1.095194072E-1,-8.169886470E-2
2.337480000E0,5.649631023E-1,-1.329417229E-1,-7.333873212E-2
2.339480000E0,5.758714080E-1,-1.469043642E-1,-6.583382189E-2
2.341480000E0,5.863084793E-1,-1.487893164E-1,-5.867796764E-2
2.343480000E0,5.952969193E-1,-1.397834122E-1,-5.101597309E-2
2.345480000E0,6.008470654E-1,-1.260127723E-1,-4.380776361E-2
2.347480000E0,6.018418670E-1,-1.134638563E-1,-3.991568089E-2
2.349480000E0,5.984559655E-1,-1.061509252E-1,-3.991568089E-2
2.351480000E0,5.901481509E-1,-1.060113013E-1,-4.276056588E-2
2.353480000E0,5.769709349E-1,-1.072155759E-1,-4.769985005E-2
2.355480000E0,5.605648756E-1,-1.020144969E-1,-5.476843193E-2
2.357480000E0,5.409473181E-1,-8.791223168E-2,-6.426302344E-2
2.359480000E0,5.155876875E-1,-6.986553222E-2,-7.665485889E-2
2.361480000E0,4.834910929E-1,-5.366887525E-2,-9.464920312E-2
2.363480000E0,4.461236000E-1,-4.014257342E-2,-1.202706397E-1
2.365480000E0,4.043927789E-1,-2.958333120E-2,-1.528035700E-1
2.367480000E0,3.587000668E-1,-2.213077433E-2,-1.843416691E-1
2.369480000E0,3.094643354E-1,-1.467821933E-2,-2.094918638E-1
2.371480000E0,2.578724027E-1,-3.124139272E-3,-2.298249602E-1
2.373480000E0,2.043606043E-1,1.324704941E-2,-2.437875867E-1
2.375480000E0,1.481609941E-1,3.127630055E-2,-2.507340014E-1
2.377480000E0,8.899433911E-2,4.871213809E-2,-2.519906461E-1
2.379480000E0,2.797762863E-2,6.686356664E-2,-2.487094104E-1
2.381480000E0,-3.345796093E-2,8.592256159E-2,-2.429498285E-1
2.383480000E0,-9.508553892E-2,1.066396162E-1,-2.374520451E-1
2.385480000E0,-1.555262953E-1,1.280024499E-1,-2.333156168E-1
2.387480000E0,-2.126334608E-1,1.477421224E-1,-2.287952155E-1
2.389480000E0,-2.658660114E-1,1.639911383E-1,-2.241177261E-1
2.391480000E0,-3.149970174E-1,1.762782484E-1,-2.206270695E-1
2.393480000E0,-3.596076369E-1,1.853888780E-1,-2.170142382E-1
2.395480000E0,-3.995582163E-1,1.928763390E-1,-2.139599174E-1
2.397480000E0,-4.363323152E-1,2.016204298E-1,-2.127032727E-1
2.399480000E0,-4.715006948E-1,2.124240249E-1,-2.118829638E-1
2.401480000E0,-5.063374639E-1,2.256710678E-1,-2.118655145E-1
2.403480000E0,-5.413487554E-1,2.392671853E-1,-2.124938369E-1
2.405480000E0,-5.764299035E-1,2.476447672E-1,-2.108532190E-1
2.407480000E0,-6.115459204E-1,2.434734255E-1,-2.067167908E-1
2.409480000E0,-6.435028911E-1,2.212553918E-1,-2.006081492E-1
2.411480000E0,-6.685134768E-1,1.790707856E-1,-1.902408898E-1
2.413480000E0,-6.859493256E-1,1.174082980E-1,-1.743234843E-1
2.415480000E0,-6.962118149E-1,4.180063680E-2,-1.520705372E-1
2.417480000E0,-7.003831863E-1,-4.105014354E-2,-1.218763441E-1
2.419480000E0,-7.011336684E-1,-1.265363693E-1,-8.400269598E-2
2.421480000E0,-7.008020282E-1,-2.105739713E-1,-4.302236438E-2
2.423480000E0,-7.022506595E-1,-2.968630493E-1,-5.201081280E-3
2.425480000E0,-7.060031295E-1,-3.866078854E-1,2.975786291E-2
2.427480000E0,-7.119372487E-1,-4.704709649E-1,6.450736523E-2
2.429480000E0,-7.206813693E-1,-5.472305417E-1,9.854128957E-2
2.431480000E0,-7.317991257E-1,-6.229603887E-1,1.322785020E-1
2.433480000E0,-7.442258596E-1,-6.973637342E-1,1.658935398E-1
2.435480000E0,-7.574903369E-1,-7.702487111E-1,1.978854239E-1
2.437480000E0,-7.707722783E-1,-8.431685567E-1,2.279574573E-1
2.439480000E0,-7.847175002E-1,-9.176766872E-1,2.562841475E-1
2.441480000E0,-8.007919788E-1,-9.921847582E-1,2.826560736E-1
2.443480000E0,-8.171282411E-1,-1.061963081E0,3.082251549E-1
2.445480000E0,-8.323125839E-1,-1.125737309E0,3.331484497E-1
2.447480000E0,-8.470082879E-1,-1.183560133E0,3.571816385E-1
2.449480000E0,-8.615119457E-1,-1.235832691E0,3.808657527E-1
2.451480000E0,-8.753000498E-1,-1.283305645E0,4.046894908E-1
2.453480000E0,-8.875522614E-1,-1.326293111E0,4.286004901E-1
2.455480000E0,-8.956854939E-1,-1.366837144E0,4.519006610E-1
2.457480000E0,-8.977450132E-1,-1.408271313E0,4.749738872E-1
2.459480000E0,-8.935213089E-1,-1.450089335E0,4.957084060E-1
2.461480000E0,-8.839219809E-1,-1.488870621E0,5.098455548E-1
2.463480000E0,-8.695928454E-1,-1.522974253E0,5.178042650E-1
2.465480000E0,-8.501847982E-1,-1.551056623E0,5.216789246E-1
2.467480000E0,-8.252440095E-1,-1.572594047E0,5.223072171E-1
2.469480000E0,-7.961493731E-1,-1.589558601E0,5.187641978E-1
2.471480000E0,-7.656759620E-1,-1.604987264E0,5.078733563E-1
2.473480000E0,-7.330731750E-1,-1.618216872E0,4.885874689E-1
2.475480000E0,-6.967703700E-1,-1.626751542E0,4.633849263E-1
2.477480000E0,-6.564183235E-1,-1.633383870E0,4.332430661E-1
2.479480000E0,-6.153856516E-1,-1.641464710E0,3.969751298E-1
2.481480000E0,-5.775294304E-1,-1.650104046E0,3.572863638E-1
2.483480000E0,-5.412789583E-1,-1.657417059E0,3.199712038E-1
2.485480000E0,-5.060058832E-1,-1.663857222E0,2.877524197E-1
2.487480000E0,-4.727224410E-1,-1.665846944E0,2.604205906E-1
2.489480000E0,-4.418126345E-1,-1.658778310E0,2.376265824E-1
2.491480000E0,-4.143935144E-1,-1.642634034E0,2.182359695E-1
2.493480000E0,-3.902905285E-1,-1.618705630E0,2.005732358E-1
2.495480000E0,-3.691022396E-1,-1.593817234E0,1.854761392E-1
2.497480000E0,-3.516489267E-1,-1.573588848E0,1.765051484E-1
2.499480000E0,-3.391872942E-1,-1.557130337E0,1.718974710E-1
2.501480000E0,-3.328517377E-1,-1.542556882E0,1.684417278E-1
2.503480000E0,-3.302686512E-1,-1.528733850E0,1.676737815E-1
2.505480000E0,-3.311064243E-1,-1.519309163E0,1.698903441E-1
2.507480000E0,-3.384018838E-1,-1.520216703E0,1.714087874E-1
2.509480000E0,-3.520852625E-1,-1.531945348E0,1.720371097E-1
2.511480000E0,-3.702890575E-1,-1.552505255E0,1.738696992E-1
2.513480000E0,-3.919136822E-1,-1.579173923E0,1.768193096E-1
2.515480000E0,-4.171162248E-1,-1.606767535E0,1.818109453E-1
2.517480000E0,-4.463155866E-1,-1.632511139E0,1.888969839E-1
2.519480000E0,-4.790405035E-1,-1.655305147E0,1.974665523E-1
2.521480000E0,-5.128650069E-1,-1.674992442E0,2.078861594E-1
2.523480000E0,-5.468465686E-1,-1.692166567E0,2.209761292E-1
2.525480000E0,-5.818229318E-1,-1.708624959E0,2.357765287E-1
2.527480000E0,-6.168866158E-1,-1.728259921E0,2.500009537E-1
2.529480000E0,-6.497860551E-1,-1.752677083E0,2.627418637E-1
2.531480000E0,-6.795963049E-1,-1.783447266E0,2.723411620E-1
2.533480000E0,-7.062475085E-1,-1.823432684E0,2.794097662E-1
2.535480000E0,-7.300363183E-1,-1.875687838E0,2.863910794E-1
2.537480000E0,-7.507708073E-1,-1.942097664E0,2.920633852E-1
2.539480000E0,-7.686778903E-1,-2.031615496E0,2.975262702E-1
2.541480000E0,-7.854330540E-1,-2.160228968E0,3.063925505E-1
2.543480000E0,-7.998320460E-1,-2.338531733E0,3.191508949E-1
2.545480000E0,-8.063246608E-1,-2.540832758E0,3.315950930E-1
2.547480000E0,-7.991862893E-1,-2.705242872E0,3.385589719E-1
2.549480000E0,-7.779630423E-1,-2.800572872E0,3.420321643E-1
2.551480000E0,-7.459711432E-1,-2.832128286E0,3.453308344E-1
2.553480000E0,-7.076960802E-1,-2.818130732E0,3.488913178E-1
2.555480000E0,-6.678153276E-1,-2.780239582E0,3.541273177E-1
2.557480000E0,-6.316869855E-1,-2.731981277E0,3.622430861E-1
2.559480000E0,-6.021560431E-1,-2.684578180E0,3.718773127E-1
2.561480000E0,-5.797110796E-1,-2.647594690E0,3.817907870E-1
2.563480000E0,-5.652074218E-1,-2.629076719E0,3.933972120E-1
2.565480000E0,-5.558350086E-1,-2.622479439E0,4.053876102E-1
2.567480000E0,-5.469687581E-1,-2.602757215E0,4.156326950E-1
2.569480000E0,-5.361127853E-1,-2.555895090E0,4.242197275E-1
2.571480000E0,-5.234766006E-1,-2.476220846E0,4.308694303E-1
2.573480000E0,-5.110673308E-1,-2.364886284E0,4.386186898E-1
2.575480000E0,-4.990769029E-1,-2.232433081E0,4.506265521E-1
2.577480000E0,-4.866327047E-1,-2.082579136E0,4.668755829E-1
2.579480000E0,-4.765097797E-1,-1.923091054E0,4.873657525E-1
2.581480000E0,-4.717625082E-1,-1.759379148E0,5.111894608E-1
2.583480000E0,-4.710818231E-1,-1.585108042E0,5.344547033E-1
2.585480000E0,-4.739616215E-1,-1.403681040E0,5.562189817E-1
2.587480000E0,-4.817632437E-1,-1.220945120E0,5.780355930E-1
2.589480000E0,-4.950451851E-1,-1.034509063E0,5.989097357E-1
2.591480000E0,-5.118178129E-1,-8.462578058E-1,6.190857291E-1
2.593480000E0,-5.303183198E-1,-6.638883352E-1,6.383367181E-1
2.595480000E0,-5.514193177E-1,-4.955862463E-1,6.562787294E-1
2.597480000E0,-5.735849738E-1,-3.383844197E-1,6.733654737E-1
2.599480000E0,-5.971295238E-1,-1.853888780E-1,6.901031733E-1
2.601480000E0,-6.228032708E-1,-3.851941600E-2,7.063871026E-1
2.603480000E0,-6.471506357E-1,9.574875981E-2,7.228106260E-1
2.605480000E0,-6.687403321E-1,2.119527906E-1,7.408398986E-1
2.607480000E0,-6.885672808E-1,3.072302938E-1,7.598639727E-1
2.609480000E0,-7.061078548E-1,3.845134974E-1,7.777187228E-1
2.611480000E0,-7.195643187E-1,4.478514791E-1,7.931823134E-1
2.613480000E0,-7.285178900E-1,5.007873178E-1,8.076860309E-1
2.615480000E0,-7.321481705E-1,5.453804731E-1,8.240048289E-1
2.617480000E0,-7.304900885E-1,5.770931244E-1,8.442157507E-1
2.619480000E0,-7.244338393E-1,5.906368494E-1,8.679172993E-1
2.621480000E0,-7.131415009E-1,5.898340344E-1,8.927184343E-1
2.623480000E0,-6.968576312E-1,5.762553811E-1,9.176417589E-1
2.625480000E0,-6.763499975E-1,5.445252657E-1,9.426174164E-1
2.627480000E0,-6.528403759E-1,4.994259775E-1,9.682562947E-1
2.629480000E0,-6.278123856E-1,4.507487416E-1,9.954310656E-1
2.631480000E0,-6.002536416E-1,4.025427401E-1,1.023530841E0
2.633480000E0,-5.694660544E-1,3.538655043E-1,1.052328825E0
2.635480000E0,-5.364269614E-1,3.034429550E-1,1.081720114E0
2.637480000E0,-5.011887550E-1,2.523047924E-1,1.111373305E0
2.639480000E0,-4.634896219E-1,2.033832222E-1,1.140799522E0
2.641480000E0,-4.228932858E-1,1.635897160E-1,1.169178605E0
2.643480000E0,-3.811275363E-1,1.556135565E-1,1.197784543E0
2.645480000E0,-3.432888091E-1,1.763480604E-1,1.227106094E0
2.647480000E0,-3.117856085E-1,1.920385808E-1,1.253879428E0
2.649480000E0,-2.834938169E-1,2.018996924E-1,1.272659183E0
2.651480000E0,-2.549402416E-1,2.194925994E-1,1.279989600E0
2.653480000E0,-2.259503305E-1,2.440144867E-1,1.276987553E0
2.655480000E0,-1.961575598E-1,2.729345858E-1,1.265346289E0
2.657480000E0,-1.660506278E-1,3.026924431E-1,1.245763659E0
2.659480000E0,-1.389456540E-1,3.268128932E-1,1.220438957E0
2.661480000E0,-1.152964532E-1,3.473554254E-1,1.191187263E0
2.663480000E0,-9.714502841E-2,3.705508411E-1,1.159073114E0
2.665480000E0,-8.913396299E-2,3.976732790E-1,1.126435518E0
2.667480000E0,-9.028588235E-2,4.276405573E-1,1.093902588E0
2.669480000E0,-9.580112249E-2,4.581489265E-1,1.061090350E0
2.671480000E0,-1.037249193E-1,4.882558584E-1,1.029744267E0
2.673480000E0,-1.154884398E-1,5.207015276E-1,1.000876546E0
2.675480000E0,-1.291020066E-1,5.594827533E-1,9.739809632E-1
2.677480000E0,-1.409527957E-1,5.998871326E-1,9.472425580E-1
2.679480000E0,-1.502030343E-1,6.362074018E-1,9.183747768E-1
2.681480000E0,-1.555437446E-1,6.712012887E-1,8.880060911E-1
2.683480000E0,-1.646718085E-1,6.927037239E-1,8.582831025E-1
2.685480000E0,-1.999449134E-1,6.632600427E-1,8.351225853E-1
2.687480000E0,-2.483952641E-1,5.985606909E-1,8.178263903E-1
2.689480000E0,-2.703166008E-1,5.633922815E-1,7.975107431E-1
2.691480000E0,-2.590417564E-1,5.714905858E-1,7.744200230E-1
2.693480000E0,-2.301565707E-1,6.082472205E-1,7.539647818E-1
2.695480000E0,-1.956688613E-1,6.465572119E-1,7.358482480E-1
2.697480000E0,-1.595230997E-1,6.621604562E-1,7.180633545E-1
2.699480000E0,-1.290321946E-1,6.631378531E-1,7.023030519E-1
2.701480000E0,-1.030616909E-1,6.483898163E-1,6.848322749E-1
2.703480000E0,-7.386233658E-2,6.130294204E-1,6.613227129E-1
2.705480000E0,-4.335397854E-2,5.661324263E-1,6.331182122E-1
2.707480000E0,-1.452113967E-2,5.160938501E-1,6.026970744E-1
2.709480000E0,9.512044489E-3,4.647986293E-1,5.732708573E-1
2.711480000E0,2.246238664E-2,4.069933295E-1,5.452059507E-1
2.713480000E0,3.087487444E-2,3.531673849E-1,5.167222023E-1
2.715478437E0,4.377285764E-2,3.189414740E-1,4.899837375E-1
2.717478437E0,5.440191180E-2,2.860769033E-1,4.667882919E-1
2.719480000E0,2.178170905E-2,2.067167908E-1,4.504171312E-1
2.721480000E0,-1.158374995E-1,6.551966071E-2,4.484798014E-1
2.723480000E0,-3.151541054E-1,-6.263986975E-2,4.549549818E-1
2.725480000E0,-4.666835964E-1,-9.649925679E-2,4.550597072E-1
2.727480000E0,-5.438271165E-1,-5.726425350E-2,4.427900314E-1
2.729480000E0,-5.799554586E-1,4.782202188E-3,4.201182127E-1
2.731480000E0,-5.918236971E-1,8.180358261E-2,3.894353211E-1
2.733480000E0,-5.818229318E-1,1.608146429E-1,3.548429012E-1
2.735480000E0,-5.610186458E-1,2.157052457E-1,3.211929500E-1
2.737480000E0,-5.424483418E-1,2.405761778E-1,2.964441776E-1
2.739480000E0,-5.266879797E-1,2.500707805E-1,2.838603556E-1
2.741480000E0,-5.063898563E-1,2.593035698E-1,2.796715498E-1
2.743480000E0,-4.810825586E-1,2.659009099E-1,2.830225825E-1
2.745480000E0,-4.490033984E-1,2.641555667E-1,2.916445136E-1
2.747480000E0,-4.097335041E-1,2.596700788E-1,3.036698401E-1
2.749480000E0,-3.662922382E-1,2.515194118E-1,3.177197278E-1
2.751480000E0,-3.227288425E-1,2.387435883E-1,3.329215646E-1
2.753480000E0,-2.819579542E-1,2.253394574E-1,3.485597074E-1
2.755480000E0,-2.457947135E-1,2.119876891E-1,3.640931249E-1
2.757480000E0,-2.152863592E-1,1.992991418E-1,3.767293096E-1
2.759480000E0,-1.892984062E-1,1.896998286E-1,3.843913078E-1
2.761480000E0,-1.673596203E-1,1.801179796E-1,3.872012794E-1
2.763480000E0,-1.489464045E-1,1.654921174E-1,3.832917511E-1
2.765480000E0,-1.367290914E-1,1.431169957E-1,3.741287887E-1
2.767480000E0,-1.326973885E-1,1.109680310E-1,3.653323054E-1
2.769480000E0,-1.310567707E-1,7.831292599E-2,3.586128056E-1
2.771480000E0,-1.272345036E-1,5.492551252E-2,3.539702296E-1
2.773480000E0,-1.237787530E-1,3.909537569E-2,3.517711163E-1
2.775480000E0,-1.252273768E-1,2.254965343E-2,3.508809805E-1
2.777480000E0,-1.299048513E-1,4.764748737E-3,3.505144715E-1
2.779480000E0,-1.359262466E-1,-1.572541706E-2,3.497290611E-1
2.781480000E0,-1.450019479E-1,-4.426154867E-2,3.497290611E-1
2.783480000E0,-1.556310058E-1,-7.892379165E-2,3.513173163E-1
2.785480000E0,-1.659633517E-1,-1.141794398E-1,3.522598147E-1
2.787480000E0,-1.739569604E-1,-1.449496001E-1,3.520328999E-1
2.789480000E0,-1.797340065E-1,-1.732413769E-1,3.509857059E-1
2.791480000E0,-1.852492392E-1,-1.983392090E-1,3.483502567E-1
2.793480000E0,-1.884257495E-1,-2.180265337E-1,3.425383270E-1
2.795480000E0,-1.868898571E-1,-2.323556840E-1,3.319616318E-1
2.797480000E0,-1.799434423E-1,-2.407158166E-1,3.163060248E-1
2.799480000E0,-1.682846397E-1,-2.434734255E-1,2.960427403E-1
2.801480000E0,-1.531177312E-1,-2.405063659E-1,2.713812590E-1
2.803480000E0,-1.377937496E-1,-2.323556840E-1,2.461786866E-1
2.805480000E0,-1.252448261E-1,-2.201907337E-1,2.220407873E-1
2.807480000E0,-1.100255549E-1,-2.041860670E-1,1.967509687E-1
2.809480000E0,-8.901178837E-2,-1.812698990E-1,1.728748679E-1
2.811480000E0,-6.435029209E-2,-1.495223492E-1,1.511629671E-1
2.813480000E0,-3.822271153E-2,-1.122944802E-1,1.325577497E-1
2.815480000E0,-1.558579039E-2,-7.379251719E-2,1.205498874E-1
2.817480000E0,1.815142459E-3,-3.886848316E-2,1.144063324E-1
2.819480000E0,1.680752076E-2,-1.012290921E-2,1.115788966E-1
2.821480000E0,2.921681106E-2,1.322959550E-2,1.113869101E-1
2.823480000E0,3.836233541E-2,3.253293782E-2,1.132020578E-1
2.825480000E0,4.588470608E-2,4.764748737E-2,1.151917279E-1
2.827480000E0,5.272639543E-2,5.791002512E-2,1.163261905E-1
2.829480000E0,6.024876609E-2,6.492624432E-2,1.161516607E-1
2.831480000E0,6.836454570E-2,6.998769939E-2,1.148252115E-1
2.833480000E0,7.639306039E-2,7.079055160E-2,1.123817489E-1
2.835480000E0,8.471827954E-2,6.574655324E-2,1.076169983E-1
2.837480000E0,9.283406287E-2,5.611233413E-2,1.003040746E-1
2.839480000E0,9.962339699E-2,4.303981736E-2,9.196139872E-2
2.841480000E0,1.052258983E-1,2.700024284E-2,8.319984376E-2
2.843480000E0,1.103397161E-1,9.407324716E-3,7.332128286E-2
2.845480000E0,1.152615398E-1,-9.093165398E-3,6.140068173E-2
2.847480000E0,1.210560352E-1,-2.830924094E-2,4.834562168E-2
2.849480000E0,1.271995902E-1,-4.686209187E-2,3.419100121E-2
2.851480000E0,1.338143945E-1,-6.262241304E-2,1.706931926E-2
2.853480000E0,1.415462047E-1,-7.503170520E-2,-2.513274085E-3
2.855480000E0,1.503775716E-1,-8.419468254E-2,-2.153736353E-2
2.857480000E0,1.602910310E-1,-9.075712413E-2,-3.906046972E-2
2.859480000E0,1.703092307E-1,-9.468410909E-2,-5.471607298E-2
2.861480000E0,1.788089871E-1,-9.440486133E-2,-6.740461290E-2
2.863480000E0,1.851096153E-1,-8.955284208E-2,-7.698646933E-2
2.865480000E0,1.905201375E-1,-7.873180509E-2,-8.183848858E-2
2.867480000E0,1.952499896E-1,-6.297148019E-2,-8.159413934E-2
2.869480000E0,1.981123239E-1,-4.612905160E-2,-7.834783196E-2
2.871480000E0,1.986533701E-1,-3.265510872E-2,-7.511897385E-2
2.873480000E0,1.985661089E-1,-2.558652684E-2,-7.349581271E-2
2.875480000E0,1.985137463E-1,-2.492330223E-2,-7.157595456E-2
2.877480000E0,1.997703910E-1,-2.939134464E-2,-7.016223669E-2
2.879480000E0,2.037497312E-1,-3.750712425E-2,-7.211700082E-2
2.881480000E0,2.097885758E-1,-4.965461791E-2,-7.796385884E-2
2.883480000E0,2.163510174E-1,-6.754424423E-2,-8.696975559E-2
2.885480000E0,2.221804112E-1,-9.409070015E-2,-9.915215522E-2
2.887480000E0,2.292838991E-1,-1.310916841E-1,-1.151568219E-1
2.889480000E0,2.384817898E-1,-1.786518991E-1,-1.355597228E-1
2.891480000E0,2.466499358E-1,-2.390577495E-1,-1.612335145E-1
2.893480000E0,2.524967790E-1,-3.109827638E-1,-1.918814927E-1
2.895480000E0,2.485697865E-1,-3.964515328E-1,-2.277131081E-1
2.897480000E0,2.280272692E-1,-4.852189720E-1,-2.675589621E-1
2.899480000E0,2.064200938E-1,-5.601634383E-1,-3.061830997E-1
2.901480000E0,1.954070628E-1,-6.247580647E-1,-3.411595225E-1
2.903480000E0,1.880766749E-1,-6.936811209E-1,-3.749665320E-1
2.905480000E0,1.787915230E-1,-7.719067931E-1,-4.079706967E-1
2.907480000E0,1.671152711E-1,-8.514239788E-1,-4.394041002E-1
2.909480000E0,1.541474760E-1,-9.270316362E-1,-4.698775411E-1
2.911480000E0,1.394169033E-1,-9.915739298E-1,-4.996353984E-1
2.913480000E0,1.233075112E-1,-1.036777973E0,-5.272290707E-1
2.915480000E0,1.069712266E-1,-1.062765837E0,-5.516985655E-1
2.917480000E0,8.895943314E-2,-1.073656797E0,-5.736722946E-1
2.919480000E0,6.710790843E-2,-1.073045850E0,-5.936563015E-1
2.921480000E0,4.021238536E-2,-1.062678576E0,-6.134657860E-1
2.923480000E0,8.133234456E-3,-1.043637037E0,-6.351078749E-1
2.925480000E0,-2.701769583E-2,-1.012517810E0,-6.562263370E-1
2.927480000E0,-5.963790044E-2,-9.648180008E-1,-6.720739603E-1
2.929480000E0,-8.806931227E-2,-9.065763950E-1,-6.816906929E-1
2.931480000E0,-1.141445339E-1,-8.472177386E-1,-6.859143972E-1
2.933480000E0,-1.377064735E-1,-7.936884761E-1,-6.870139241E-1
2.935480000E0,-1.574112475E-1,-7.482226491E-1,-6.868219376E-1
2.937480000E0,-1.707804650E-1,-7.076262832E-1,-6.854780316E-1
2.939480000E0,-1.774999797E-1,-6.740636230E-1,-6.827204227E-1
2.941480000E0,-1.821251065E-1,-6.540796161E-1,-6.790726781E-1
2.943480000E0,-1.881115884E-1,-6.500478983E-1,-6.785491109E-1
2.945480000E0,-1.952848881E-1,-6.588268876E-1,-6.827378869E-1
2.947480000E0,-2.003986984E-1,-6.718645096E-1,-6.901381016E-1
2.949480000E0,-1.999623775E-1,-6.838025451E-1,-7.000864744E-1
2.951480000E0,-1.956863105E-1,-6.956184506E-1,-7.154977322E-1
2.953480000E0,-1.895253062E-1,-7.060903907E-1,-7.391294837E-1
2.955480000E0,-1.800656170E-1,-7.122514248E-1,-7.711737156E-1
2.957480000E0,-1.670803726E-1,-7.157071829E-1,-8.163952231E-1
2.959480000E0,-1.548281610E-1,-7.218506932E-1,-8.821592331E-1
2.961480000E0,-1.435358822E-1,-7.290938497E-1,-9.673138261E-1
2.963480000E0,-1.310567707E-1,-7.364591360E-1,-1.067321181E0
2.965480000E0,-1.168148890E-1,-7.517656684E-1,-1.178725600E0
2.967480000E0,-9.808750451E-2,-7.772474885E-1,-1.300776482E0
2.969480000E0,-7.246606797E-2,-8.033925295E-1,-1.434433699E0
2.971480000E0,-3.899065405E-2,-8.225736618E-1,-1.578789949E0
2.973480000E0,2.076941775E-3,-8.360475898E-1,-1.729708552E0
2.975480000E0,4.972442985E-2,-8.475318551E-1,-1.878585100E0
2.977480000E0,1.013338193E-1,-8.616865277E-1,-2.016500950E0
2.979480000E0,1.538856775E-1,-8.803789616E-1,-2.130732775E0
2.981480000E0,2.033832222E-1,-9.021955729E-1,-2.207213163E0
2.983480000E0,2.462484986E-1,-9.265429378E-1,-2.240548849E0
2.985480000E0,2.797937393E-1,-9.547649026E-1,-2.229815245E0
2.987480000E0,3.026051819E-1,-9.880309105E-1,-2.172411203E0
2.989480000E0,3.169517815E-1,-1.022710562E0,-2.069820881E0
2.991480000E0,3.211929500E-1,-1.061456919E0,-1.932742715E0
2.993480000E0,2.841047049E-1,-1.141619802E0,-1.781614661E0
2.995480000E0,2.153561711E-1,-1.226320744E0,-1.625093460E0
2.997480000E0,1.741140485E-1,-1.239969134E0,-1.461957574E0
2.999480000E0,1.721592695E-1,-1.193770289E0,-1.302120328E0
3.001480000E0,1.937664598E-1,-1.121618390E0,-1.157519817E0
3.003480000E0,2.278178334E-1,-1.051525950E0,-1.034892917E0
3.005480000E0,2.625149786E-1,-1.003738880E0,-9.366832972E-1
3.007480000E0,2.908416688E-1,-9.760928154E-1,-8.610581756E-1
3.009480000E0,2.929011583E-1,-9.629330635E-1,-8.005825281E-1
3.011480000E0,2.599667907E-1,-9.433678985E-1,-7.450461388E-1
3.013480000E0,2.159321308E-1,-8.896466494E-1,-6.949726343E-1
3.015480000E0,1.636071652E-1,-8.096931577E-1,-6.600835323E-1
3.017480000E0,1.158025935E-1,-7.017096281E-1,-6.483898163E-1
3.019480000E0,1.039169058E-1,-5.542293191E-1,-6.616368890E-1
3.021480000E0,1.290670931E-1,-3.872012794E-1,-6.995279789E-1
3.023480000E0,1.598197967E-1,-2.721666396E-1,-7.553610206E-1
3.025480000E0,1.795943826E-1,-2.414488494E-1,-8.071275353E-1
3.027480000E0,1.999449134E-1,-2.548355162E-1,-8.458738327E-1
3.029480000E0,2.268579006E-1,-2.716430426E-1,-8.764868975E-1
3.031480000E0,2.617993951E-1,-2.696359158E-1,-9.018814564E-1
3.033480000E0,3.009645641E-1,-2.524095178E-1,-9.264207482E-1
3.035480000E0,3.367961943E-1,-2.296155095E-1,-9.531417489E-1
3.037480000E0,3.658908308E-1,-2.080257982E-1,-9.832661152E-1
3.039480000E0,3.878470659E-1,-1.862964481E-1,-1.015415072E0
3.041480000E0,4.030838013E-1,-1.597848982E-1,-1.050286770E0
3.043480000E0,4.133986831E-1,-1.328893751E-1,-1.090673685E0
3.045480000E0,4.210606813E-1,-1.118406951E-1,-1.137413621E0
3.047480000E0,4.282863438E-1,-1.013861746E-1,-1.190227270E0
3.049480000E0,4.350233078E-1,-1.037598252E-1,-1.245484352E0
3.051480000E0,4.418649971E-1,-1.217541695E-1,-1.298594713E0
3.053480000E0,4.512723386E-1,-1.543394625E-1,-1.345474362E0
3.055480000E0,4.683591127E-1,-1.887573600E-1,-1.382545114E0
3.057480000E0,4.955164194E-1,-2.185501307E-1,-1.408044338E0
3.059480000E0,5.289918184E-1,-2.524444163E-1,-1.419685721E0
3.061480000E0,5.628163218E-1,-3.041236103E-1,-1.418429136E0
3.063480000E0,5.810026526E-1,-3.996454775E-1,-1.415078044E0
3.065480000E0,5.745100379E-1,-5.310164094E-1,-1.412774205E0
3.067480000E0,5.693438649E-1,-6.271142364E-1,-1.393523216E0
3.069480000E0,5.763949752E-1,-6.797882915E-1,-1.351914525E0
3.071480000E0,5.915793180E-1,-6.968227029E-1,-1.287948251E0
3.073480000E0,6.157521605E-1,-6.687054634E-1,-1.197208643E0
3.075480000E0,6.344271898E-1,-6.250722408E-1,-1.092401624E0
3.077480000E0,6.391919255E-1,-5.817356706E-1,-9.869313240E-1
3.079480000E0,6.310237646E-1,-5.401095748E-1,-8.852833509E-1
3.081480000E0,6.100274920E-1,-4.938234687E-1,-7.893077135E-1
3.083480000E0,5.771629214E-1,-4.292113781E-1,-6.981491446E-1
3.085480000E0,5.341231227E-1,-3.369358182E-1,-6.102369428E-1
3.087480000E0,4.834561944E-1,-2.163684666E-1,-5.293059945E-1
3.089480000E0,4.274834991E-1,-7.794640213E-2,-4.606971145E-1
3.091480000E0,3.617718518E-1,5.318018049E-2,-4.059461355E-1
3.093480000E0,2.785370946E-1,1.501157731E-1,-3.672521710E-1
3.095480000E0,1.868724078E-1,2.107135952E-1,-3.432888091E-1
3.097480000E0,1.827359758E-2,1.580570191E-1,-3.259576857E-1
3.099480000E0,-2.697231770E-1,3.024655581E-2,-2.986956537E-1
3.101480000E0,-5.706528425E-1,1.642354764E-2,-2.686759830E-1
3.103480000E0,-8.171980381E-1,1.398881376E-1,-2.637017965E-1
3.105480000E0,-1.010353684E0,3.302861154E-1,-2.837730944E-1
3.107480000E0,-1.185881376E0,4.718672037E-1,-3.232000768E-1
3.109480000E0,-1.427138329E0,4.209210575E-1,-3.755424917E-1
3.111480000E0,-1.722622514E0,2.565633953E-1,-4.258952439E-1
3.113480000E0,-1.973897576E0,1.713564247E-1,-4.773126543E-1
3.115480000E0,-2.151607037E0,2.241002768E-1,-5.351877809E-1
3.117480000E0,-2.286136866E0,3.645643592E-1,-5.896595120E-1
3.119480000E0,-2.397070169E0,5.281191468E-1,-6.421415210E-1
3.121480000E0,-2.467476606E0,7.086386085E-1,-7.099126577E-1
3.123480000E0,-2.476569891E0,9.058607817E-1,-7.990466356E-1
3.125480000E0,-2.433879137E0,1.084285736E0,-9.047612548E-1
3.127480000E0,-2.367573977E0,1.189756036E0,-1.017561913E0
3.129480000E0,-2.286608219E0,1.214365125E0,-1.123119354E0
3.131480000E0,-2.176320791E0,1.199460030E0,-1.211869359E0
3.133480000E0,-2.029783010E0,1.178236842E0,-1.279553175E0
3.135480000E0,-1.857135057E0,1.150660634E0,-1.319102407E0
3.137480000E0,-1.671327233E0,1.098405480E0,-1.316885829E0
3.139480000E0,-1.482709527E0,1.017474532E0,-1.264211774E0
3.141480000E0,-1.297652245E0,9.226682782E-1,-1.164815307E0
3.143480000E0,-1.115963578E0,8.127300143E-1,-1.030285358E0
3.145480000E0,-9.340478778E-1,6.720390320E-1,-8.751604557E-1
3.147480000E0,-7.523765564E-1,4.948183000E-1,-7.138571143E-1
3.149480000E0,-5.726774335E-1,2.879095078E-1,-5.579119325E-1
3.151480000E0,-3.950552642E-1,7.047639787E-2,-4.148996770E-1
3.153480000E0,-2.192308009E-1,-1.332209855E-1,-2.929185927E-1
3.155480000E0,-5.044001341E-2,-3.111572862E-1,-1.990897059E-1
3.157480000E0,1.006356850E-1,-4.618490338E-1,-1.318421662E-1
3.159480000E0,2.239955515E-1,-5.850692987E-1,-8.616690338E-2
3.161480000E0,3.155555129E-1,-6.825633645E-1,-5.969025940E-2
3.163480000E0,3.739891648E-1,-7.585549951E-1,-4.858996719E-2
3.165480000E0,3.974463642E-1,-8.125205636E-1,-4.818854108E-2
3.167480000E0,3.861715496E-1,-8.351225853E-1,-5.715953186E-2
3.169480000E0,3.455926478E-1,-8.297993541E-1,-7.408922911E-2
3.171480000E0,2.845584750E-1,-8.131139874E-1,-9.580112249E-2
3.173480000E0,2.120575011E-1,-7.889586091E-1,-1.204277202E-1
3.175480000E0,1.370956153E-1,-7.526208758E-1,-1.462236792E-1
3.177480000E0,6.208136305E-2,-7.040483356E-1,-1.699950695E-1
3.179480000E0,-1.073377486E-2,-6.464001536E-1,-1.900838017E-1
3.181480000E0,-7.541567832E-2,-5.866400599E-1,-2.067866027E-1
3.183480000E0,-1.273217648E-1,-5.285380483E-1,-2.192657143E-1
3.185480000E0,-1.645321846E-1,-4.723733664E-1,-2.249729335E-1
3.187480000E0,-1.866280586E-1,-4.192106426E-1,-2.222502232E-1
3.189480000E0,-1.946740299E-1,-3.688578904E-1,-2.100852877E-1
3.191480000E0,-1.929112375E-1,-3.215245605E-1,-1.877799779E-1
3.193480000E0,-1.861742735E-1,-2.807885706E-1,-1.607099175E-1
3.195480000E0,-1.755626649E-1,-2.512750626E-1,-1.373748630E-1
3.197480000E0,-1.598721594E-1,-2.335774153E-1,-1.193630695E-1
3.199480000E0,-1.402197480E-1,-2.244842499E-1,-1.028697044E-1
3.201480000E0,-1.180191636E-1,-2.188817412E-1,-8.574802428E-2
3.203480000E0,-9.447467327E-2,-2.150245607E-1,-6.740461290E-2
3.205480000E0,-7.225663215E-2,-2.162986547E-1,-4.857251421E-2
3.207480000E0,-5.342452973E-2,-2.243795246E-1,-3.176499158E-2
3.209480000E0,-3.913028166E-2,-2.384119779E-1,-1.891936921E-2
3.211480000E0,-3.110176697E-2,-2.589544952E-1,-1.022762898E-2
3.213480000E0,-2.815216035E-2,-2.840523422E-1,-5.096361507E-3
3.215478437E0,-2.694788389E-2,-3.125710189E-1,-3.333578818E-3
3.217480000E0,-2.645919099E-2,-3.456450105E-1,-4.817108624E-3
3.219480000E0,-2.658136375E-2,-3.802548945E-1,-9.843656793E-3
3.221480000E0,-2.535963431E-2,-4.120198786E-1,-1.883210242E-2
3.223480000E0,-2.108357660E-2,-4.391597509E-1,-3.007202223E-2
3.225480000E0,-1.555088349E-2,-4.599815309E-1,-4.127703607E-2
3.227480000E0,-1.014036313E-2,-4.716228545E-1,-5.087634921E-2
3.229480000E0,-4.782202188E-3,-4.735078216E-1,-5.574581772E-2
3.231480000E0,-1.658062800E-3,-4.695459306E-1,-5.393067375E-2
3.233480000E0,-2.600540640E-3,-4.638386965E-1,-4.593706504E-2
3.235480000E0,-9.599311277E-3,-4.605574906E-1,-3.289945796E-2
3.237480000E0,-2.382374369E-2,-4.627042413E-1,-1.685987972E-2
3.239480000E0,-4.476769641E-2,-4.676784277E-1,1.658062800E-3
3.241480000E0,-7.065092772E-2,-4.690572321E-1,2.338741161E-2
3.243480000E0,-9.916960448E-2,-4.630009532E-1,4.675737023E-2
3.245480000E0,-1.306727976E-1,-4.498062432E-1,7.206464559E-2
3.247480000E0,-1.655793786E-1,-4.299094975E-1,1.000248194E-1
3.249480000E0,-2.018996924E-1,-4.019318819E-1,1.268854290E-1
3.251480000E0,-2.397209704E-1,-3.637091517E-1,1.507615447E-1
3.253480000E0,-2.775247991E-1,-3.172135949E-1,1.708851904E-1
3.255480000E0,-3.118554354E-1,-2.673669755E-1,1.853888780E-1
3.257480000E0,-3.434982598E-1,-2.218138874E-1,1.931905001E-1
3.259480000E0,-3.731164932E-1,-1.893856823E-1,1.916371584E-1
3.261480000E0,-3.987379074E-1,-1.708153784E-1,1.809033751E-1
3.263480000E0,-4.189488292E-1,-1.616872996E-1,1.632755548E-1
3.265480000E0,-4.331732690E-1,-1.623854339E-1,1.406386346E-1
3.267480000E0,-4.418126345E-1,-1.746725440E-1,1.146855876E-1
3.269480000E0,-4.456349015E-1,-1.951278150E-1,8.644615859E-2
3.271480000E0,-4.437150657E-1,-2.208190560E-1,5.916666240E-2
3.273480000E0,-4.378856421E-1,-2.505420148E-1,3.607595712E-2
3.275480000E0,-4.310963154E-1,-2.822022736E-1,1.877974346E-2
3.277480000E0,-4.239230156E-1,-3.133913279E-1,9.529497474E-3
3.279480000E0,-4.178318083E-1,-3.453482985E-1,8.604473434E-3
3.281480000E0,-4.137826562E-1,-3.769736588E-1,1.455604564E-2
3.283480000E0,-4.092971683E-1,-4.034328461E-1,2.612757869E-2
3.285480000E0,-4.033630490E-1,-4.252320230E-1,3.935717419E-2
3.287480000E0,-3.955788612E-1,-4.429471195E-1,4.979424179E-2
3.289480000E0,-3.835709989E-1,-4.577474892E-1,5.688028038E-2
3.291480000E0,-3.654370308E-1,-4.741710424E-1,6.007423252E-2
3.293480000E0,-3.413165808E-1,-4.931776822E-1,5.885250121E-2
3.295480000E0,-3.150842786E-1,-5.148023367E-1,5.520476401E-2
3.297480000E0,-2.898992002E-1,-5.378057361E-1,5.119050667E-2
3.299480000E0,-2.651154995E-1,-5.578944683E-1,4.672246426E-2
3.301480000E0,-2.405063659E-1,-5.736548305E-1,3.984586522E-2
3.303480000E0,-2.181836069E-1,-5.813342929E-1,3.104940802E-2
3.305480000E0,-1.993166059E-1,-5.746670961E-1,2.146754973E-2
3.307480000E0,-1.834340990E-1,-5.517509580E-1,1.157153305E-2
3.309480000E0,-1.709550023E-1,-5.133885741E-1,1.867502346E-3
3.311480000E0,-1.630486548E-1,-4.624249935E-1,-6.806783844E-3
3.313480000E0,-1.604655683E-1,-4.022285640E-1,-1.286307629E-2
3.315480000E0,-1.650906950E-1,-3.382622600E-1,-1.406735368E-2
3.317480000E0,-1.767494977E-1,-2.743483186E-1,-8.883725852E-3
3.319480000E0,-1.928588748E-1,-2.088810056E-1,2.373647876E-3
3.321480000E0,-2.126858234E-1,-1.456128210E-1,1.895427518E-2
3.323480000E0,-2.374694943E-1,-9.271188825E-2,4.117231816E-2
3.325480000E0,-2.668259442E-1,-5.635667965E-2,6.820746511E-2
3.327480000E0,-2.992890477E-1,-3.808308393E-2,9.688322991E-2
3.329480000E0,-3.345970809E-1,-3.600614145E-2,1.243372560E-1
3.331480000E0,-3.723310828E-1,-4.684463516E-2,1.500284970E-1
3.333480000E0,-4.104141593E-1,-6.766641140E-2,1.740616858E-1
3.335480000E0,-4.467519224E-1,-9.634217620E-2,1.958433986E-1
3.337480000E0,-4.807858467E-1,-1.323134154E-1,2.157576084E-1
3.339480000E0,-5.116956234E-1,-1.741140485E-1,2.349038571E-1
3.341480000E0,-5.397430658E-1,-2.128952593E-1,2.553242147E-1
3.343480000E0,-5.647187233E-1,-2.428974658E-1,2.756398618E-1
3.345480000E0,-5.849994421E-1,-2.620437443E-1,2.902133465E-1
3.347480000E0,-5.995554924E-1,-2.676287889E-1,2.948908210E-1
3.349480000E0,-6.064320803E-1,-2.550624013E-1,2.885901928E-1
3.351480000E0,-6.029239893E-1,-2.190213650E-1,2.800206244E-1
3.353480000E0,-5.901307464E-1,-1.708851904E-1,2.759016454E-1
3.355480000E0,-5.741958618E-1,-1.279326379E-1,2.716954052E-1
3.357480000E0,-5.585402846E-1,-9.909979254E-2,2.652551532E-1
3.359480000E0,-5.436525941E-1,-9.176941216E-2,2.578898370E-1
3.361480000E0,-5.309640765E-1,-1.048942879E-1,2.523746192E-1
3.363480000E0,-5.216963887E-1,-1.294859797E-1,2.501231432E-1
3.365480000E0,-5.153957009E-1,-1.562244147E-1,2.501580417E-1
3.367480000E0,-5.115734339E-1,-1.797340065E-1,2.508037984E-1
3.369480000E0,-5.093917847E-1,-1.971873045E-1,2.501231432E-1
3.371480000E0,-5.065992475E-1,-2.055648714E-1,2.463706732E-1
3.373480000E0,-5.029515028E-1,-2.036101073E-1,2.388483137E-1
3.375480000E0,-4.995656013E-1,-1.923876405E-1,2.278876454E-1
3.377480000E0,-4.956560433E-1,-1.739395112E-1,2.139599174E-1
3.379480000E0,-4.921828508E-1,-1.506393701E-1,1.985137463E-1
3.381480000E0,-4.910832942E-1,-1.244419739E-1,1.827534288E-1
3.383480000E0,-4.906294942E-1,-9.672614932E-2,1.687558889E-1
3.385480000E0,-4.901233613E-1,-6.871361285E-2,1.592787504E-1
3.387480000E0,-4.902455211E-1,-2.700024284E-2,1.592089385E-1
3.389480000E0,-4.918686748E-1,2.151990868E-2,1.686511636E-1
3.391480000E0,-4.922177494E-1,5.389576778E-2,1.791231334E-1
3.393480000E0,-4.869817793E-1,7.117452472E-2,1.871691048E-1
3.395480000E0,-4.779060483E-1,8.295550197E-2,1.986533701E-1
3.397480000E0,-4.707502127E-1,9.721484035E-2,2.197369486E-1
3.399480000E0,-4.687779844E-1,1.200611964E-1,2.513623238E-1
3.401480000E0,-4.733507335E-1,1.558753550E-1,2.926393449E-1
3.403480000E0,-4.856204093E-1,2.023360133E-1,3.410198689E-1
3.405480000E0,-5.060756803E-1,2.540675700E-1,3.925769031E-1
3.407480000E0,-5.346118212E-1,3.089058101E-1,4.448146224E-1
3.409480000E0,-5.705306530E-1,3.665715158E-1,4.967032373E-1
3.411480000E0,-6.126105785E-1,4.263490140E-1,5.487489700E-1
3.413480000E0,-6.578320265E-1,4.866676033E-1,6.008819342E-1
3.415480000E0,-7.052875757E-1,5.430940986E-1,6.495591998E-1
3.417480000E0,-7.561638951E-1,5.900608897E-1,6.933494806E-1
3.419480000E0,-8.122238517E-1,6.255783439E-1,7.326543331E-1
3.421480000E0,-8.741830587E-1,6.460510492E-1,7.663217187E-1
3.423480000E0,-9.420065284E-1,6.458416581E-1,7.926412821E-1
3.425480000E0,-1.014437675E0,6.227334738E-1,8.084190488E-1
3.427480000E0,-1.090324640E0,5.757492185E-1,8.100945950E-1
3.429480000E0,-1.166979551E0,5.089729428E-1,7.962715626E-1
3.431480000E0,-1.237647891E0,4.347615242E-1,7.672816515E-1
3.433480000E0,-1.298594713E0,3.622430861E-1,7.248526812E-1
3.435480000E0,-1.349924922E0,2.945417762E-1,6.716026664E-1
3.437480000E0,-1.393540740E0,2.385865152E-1,6.111095548E-1
3.439480000E0,-1.431501627E0,2.019171417E-1,5.470385551E-1
3.441480000E0,-1.465884566E0,1.891936958E-1,4.805414975E-1
3.443480000E0,-1.498190641E0,2.070658654E-1,4.121246040E-1
3.445480000E0,-1.526813984E0,2.679952979E-1,3.441963792E-1
3.447480000E0,-1.549817443E0,3.799058199E-1,2.805616856E-1
3.449480000E0,-1.575595975E0,5.299517512E-1,2.227738202E-1
3.451480000E0,-1.610712051E0,7.036992908E-1,1.705361158E-1
3.453480000E0,-1.650889516E0,8.896466494E-1,1.202357337E-1
3.455480000E0,-1.691555619E0,1.066954732E0,6.850416958E-2
3.457478437E0,-1.729883075E0,1.222777724E0,1.872738265E-2
3.459480000E0,-1.764423132E0,1.356277943E0,-2.614503168E-2
3.461480000E0,-1.792365909E0,1.464924693E0,-6.302383542E-2
3.463480000E0,-1.812576771E0,1.544180036E0,-9.066985548E-2
3.465480000E0,-1.824916244E0,1.596941352E0,-1.117185280E-1
3.467480000E0,-1.829925299E0,1.625372767E0,-1.256462485E-1
3.469480000E0,-1.831339121E0,1.628741264E0,-1.297303289E-1
3.471480000E0,-1.831286669E0,1.612125754E0,-1.216145381E-1
3.473480000E0,-1.827150226E0,1.587359548E0,-1.015781611E-1
3.475480000E0,-1.822629929E0,1.562453628E0,-7.449065149E-2
3.477480000E0,-1.820168972E0,1.537792087E0,-4.452335089E-2
3.479480000E0,-1.815683484E0,1.515120268E0,-1.242674422E-2
3.481480000E0,-1.811023474E0,1.499901056E0,1.954768784E-2
3.483480000E0,-1.808178544E0,1.494019270E0,4.961971194E-2
3.485480000E0,-1.807654977E0,1.494787216E0,7.859217376E-2
3.487480000E0,-1.808387995E0,1.495729685E0,1.089958102E-1
3.489480000E0,-1.808370590E0,1.493268847E0,1.434835196E-1
3.491480000E0,-1.810883760E0,1.486584187E0,1.814967841E-1
3.493480000E0,-1.814758420E0,1.473127723E0,2.193878889E-1
3.495480000E0,-1.816957593E0,1.456616879E0,2.546958923E-1
3.497480000E0,-1.817533493E0,1.435672879E0,2.870543003E-1
3.499480000E0,-1.816835403E0,1.401918292E0,3.166376352E-1
3.501480000E0,-1.813693762E0,1.350605607E0,3.413165808E-1
3.503480000E0,-1.805159092E0,1.281734943E0,3.595552742E-1
3.505480000E0,-1.790637970E0,1.200367689E0,3.736226261E-1
3.507480000E0,-1.768001080E0,1.117691398E0,3.796614707E-1
3.509480000E0,-1.735747337E0,1.047424436E0,3.720169365E-1
3.511480000E0,-1.696093559E0,9.929352403E-1,3.562740684E-1
3.513480000E0,-1.655025959E0,9.549743533E-1,3.400774002E-1
3.515480000E0,-1.611165762E0,9.489878416E-1,3.224495649E-1
3.517480000E0,-1.556065798E0,9.983283281E-1,2.922204733E-1
3.519480000E0,-1.486915827E0,1.121932507E0,2.404714674E-1
3.521480000E0,-1.408271313E0,1.317758441E0,1.663647890E-1
3.523480000E0,-1.317234874E0,1.587481618E0,6.424556673E-2
3.525480000E0,-1.218937993E0,1.889196754E0,-6.663667411E-2
3.527480000E0,-1.124323606E0,2.151519775E0,-2.076592743E-1
3.529480000E0,-1.025834680E0,2.379180431E0,-3.484026194E-1
3.531480000E0,-9.210451245E-1,2.575704575E0,-4.928111732E-1
3.533480000E0,-8.067435622E-1,2.735244989E0,-6.352300048E-1
3.535480000E0,-6.800326109E-1,2.865830660E0,-7.683288455E-1
3.537480000E0,-5.470210910E-1,2.972644806E0,-8.853182793E-1
3.539480000E0,-4.101872742E-1,3.077992916E0,-9.812241197E-1
3.541480000E0,-2.743133903E-1,3.182729959E0,-1.054999113E0
3.543480000E0,-1.495572627E-1,3.274621725E0,-1.100796580E0
3.545480000E0,-4.197516665E-2,3.356198311E0,-1.114706874E0
3.547480000E0,4.726351425E-2,3.429188013E0,-1.098911643E0
3.549480000E0,1.151568219E-1,3.474357128E0,-1.053655267E0
3.551480000E0,1.629962921E-1,3.487377167E0,-9.803165197E-1
3.553480000E0,1.935046464E-1,3.478476048E0,-8.829097152E-1
3.555480000E0,2.059313953E-1,3.442975998E0,-7.643494606E-1
3.557480000E0,1.996307522E-1,3.376444101E0,-6.245486140E-1
3.559480000E0,1.774825305E-1,3.279595852E0,-4.650604427E-1
3.561480000E0,1.441816539E-1,3.164421558E0,-2.893581390E-1
3.563480000E0,1.009498462E-1,3.044953823E0,-1.007229537E-1
3.565480000E0,4.862487316E-2,2.928767204E0,9.534733742E-2
3.567480000E0,-8.953538723E-3,2.810137272E0,2.862688899E-1
3.569480000E0,-6.459463388E-2,2.687353134E0,4.564734101E-1
3.571480000E0,-1.143888757E-1,2.564778805E0,6.011961102E-1
3.573480000E0,-1.583188176E-1,2.445136547E0,7.197563052E-1
3.575480000E0,-1.948311031E-1,2.332981586E0,8.084190488E-1
3.577480000E0,-2.235766798E-1,2.226726055E0,8.669224977E-1
3.579480000E0,-2.460216135E-1,2.123193026E0,9.014625549E-1
3.581480000E0,-2.614677846E-1,2.023290396E0,9.151983261E-1
3.583480000E0,-2.668084800E-1,1.936215878E0,9.110094905E-1
3.585480000E0,-2.629862130E-1,1.863226295E0,8.938354850E-1
3.587480000E0,-2.576280534E-1,1.793098927E0,8.650724292E-1
3.589480000E0,-2.532472610E-1,1.729202390E0,8.287521601E-1
3.591480000E0,-2.479938269E-1,1.678256273E0,7.886968255E-1
3.593480000E0,-2.442762852E-1,1.630696058E0,7.455697656E-1
3.595480000E0,-2.430720031E-1,1.582926393E0,7.027742863E-1
3.597480000E0,-2.419549972E-1,1.542015791E0,6.632425785E-1
3.599480000E0,-2.386563271E-1,1.515905738E0,6.250722408E-1
3.601480000E0,-2.357416153E-1,1.492954612E0,5.855405331E-1
3.603480000E0,-2.364397496E-1,1.456477284E0,5.470385551E-1
3.605480000E0,-2.383072525E-1,1.414152980E0,5.143136382E-1
3.607478437E0,-2.412743121E-1,1.368844271E0,4.880638719E-1
3.609480000E0,-2.497566193E-1,1.307478547E0,4.650604427E-1
3.611480000E0,-2.626720369E-1,1.237665296E0,4.446575344E-1
3.613480000E0,-2.732836604E-1,1.182739854E0,4.278325438E-1
3.615480000E0,-2.804569602E-1,1.155023932E0,4.143411517E-1
3.617480000E0,-2.890614271E-1,1.154779673E0,4.019144177E-1
3.619480000E0,-2.994984984E-1,1.174885869E0,3.902207017E-1
3.621480000E0,-3.094294071E-1,1.208326340E0,3.813718855E-1
3.623480000E0,-3.194650710E-1,1.250336409E0,3.739717007E-1
3.625480000E0,-3.282964230E-1,1.297111273E0,3.640233278E-1
3.627480000E0,-3.293610811E-1,1.350867391E0,3.498687148E-1
3.629480000E0,-3.212627470E-1,1.405583501E0,3.314729333E-1
3.631480000E0,-3.050311804E-1,1.455307841E0,3.110525906E-1
3.633480000E0,-2.816961408E-1,1.502379417E0,2.907369435E-1
3.635480000E0,-2.529505789E-1,1.544267297E0,2.701595128E-1
3.637480000E0,-2.194577008E-1,1.576782823E0,2.501056790E-1
3.639480000E0,-1.824741662E-1,1.602334380E0,2.327920198E-1
3.641480000E0,-1.428028345E-1,1.622510433E0,2.216393650E-1
3.643480000E0,-1.029744223E-1,1.630730987E0,2.161590308E-1
3.645480000E0,-6.403613091E-2,1.628077984E0,2.136108428E-1
3.647480000E0,-2.640683204E-2,1.620695233E0,2.150943726E-1
3.649480000E0,8.150687441E-3,1.612003565E0,2.251649201E-1
3.651480000E0,4.021238536E-2,1.604673147E0,2.485174239E-1
3.653480000E0,7.093018293E-2,1.605476022E0,2.924299240E-1
3.655480000E0,1.011243761E-1,1.618112206E0,3.570245504E-1
3.657480000E0,1.317199916E-1,1.634623051E0,4.300316870E-1
3.659480000E0,1.637293398E-1,1.652076364E0,5.026722550E-1
3.661480000E0,1.988628209E-1,1.677174091E0,5.704433918E-1
3.663480000E0,2.358987033E-1,1.703476310E0,6.276901960E-1
3.665480000E0,2.727425992E-1,1.713564277E0,6.667855978E-1
3.667480000E0,3.082600534E-1,1.691782594E0,6.817430854E-1
3.669480000E0,3.441789150E-1,1.636839628E0,6.745697260E-1
3.671480000E0,3.761533499E-1,1.556065798E0,6.536607146E-1
3.673480000E0,3.954916000E-1,1.463860035E0,6.268524528E-1
3.675480000E0,4.024205506E-1,1.390643477E0,5.988922715E-1
3.677480000E0,3.982841372E-1,1.359908223E0,5.723632574E-1
3.679480000E0,3.814591467E-1,1.368861675E0,5.445078015E-1
3.681480000E0,3.471459746E-1,1.396804452E0,5.088682175E-1
3.683480000E0,2.965663373E-1,1.430593967E0,4.624947906E-1
3.685480000E0,2.399827689E-1,1.470544577E0,4.069933295E-1
3.687480000E0,1.835039109E-1,1.518680811E0,3.449468613E-1
3.689480000E0,1.302015632E-1,1.574583650E0,2.799158990E-1
3.691480000E0,8.264134079E-2,1.637415528E0,2.146231383E-1
3.693480000E0,4.180063680E-2,1.703720570E0,1.517563760E-1
3.695480000E0,8.447393775E-3,1.768262863E0,9.742427617E-2
3.697480000E0,-1.898918301E-2,1.823886514E0,5.480333790E-2
3.699480000E0,-4.279547185E-2,1.860416293E0,2.071705833E-2
3.701480000E0,-6.415830553E-2,1.874343991E0,-7.016223390E-3
3.703480000E0,-8.138470352E-2,1.872441530E0,-2.525491454E-2
3.705480000E0,-9.091419727E-2,1.860294104E0,-3.331833705E-2
3.707480000E0,-9.353219718E-2,1.834532976E0,-3.691371530E-2
3.709480000E0,-9.049531817E-2,1.793413043E0,-4.310963303E-2
3.711480000E0,-8.168140799E-2,1.738173366E0,-5.478588492E-2
3.713480000E0,-7.052875310E-2,1.662967205E0,-7.091272622E-2
3.715480000E0,-5.998696759E-2,1.566712260E0,-9.450957924E-2
3.717480000E0,-4.968952388E-2,1.461556196E0,-1.236914843E-1
3.719480000E0,-4.014257342E-2,1.356888771E0,-1.532399058E-1
3.721480000E0,-3.340560198E-2,1.254944086E0,-1.838878840E-1
3.723480000E0,-3.003711626E-2,1.157258034E0,-2.165779024E-1
3.725480000E0,-2.993239649E-2,1.064476252E0,-2.497566193E-1
3.727480000E0,-3.462733328E-2,9.724102020E-1,-2.825164497E-1
3.729480000E0,-4.379031062E-2,8.765392303E-1,-3.151192069E-1
3.731480000E0,-5.541420355E-2,7.759733796E-1,-3.470063508E-1
3.733480000E0,-6.866125017E-2,6.718993783E-1,-3.779684901E-1
3.735480000E0,-8.131489158E-2,5.686282516E-1,-4.063650072E-1
3.737480000E0,-9.026842564E-2,4.697728157E-1,-4.314977527E-1
3.739480000E0,-9.105382860E-2,3.771307468E-1,-4.514992237E-1
3.741480000E0,-8.349654824E-2,2.905100584E-1,-4.650080800E-1
3.743480000E0,-7.283259183E-2,2.097885758E-1,-4.746248424E-1
3.745480000E0,-6.377433240E-2,1.327497363E-1,-4.794768393E-1
3.747480000E0,-5.691518635E-2,5.939355493E-2,-4.782900214E-1
3.749480000E0,-5.002113804E-2,-4.834562074E-3,-4.743455946E-1
3.751480000E0,-3.996803984E-2,-5.372123420E-2,-4.853585958E-1
3.753480000E0,-2.576106042E-2,-8.876744658E-2,-5.166698098E-1
3.755480000E0,-1.178097259E-2,-1.162912846E-1,-5.445776582E-1
3.757480000E0,-2.617993858E-3,-1.382300705E-1,-5.546656251E-1
3.759480000E0,-2.042035107E-3,-1.585282534E-1,-5.474050641E-1
3.761480000E0,-1.190314535E-2,-1.768891215E-1,-5.252044797E-1
3.763480000E0,-3.169517964E-2,-1.856157631E-1,-4.918512404E-1
3.765480000E0,-5.869542435E-2,-1.765400469E-1,-4.527209401E-1
3.767480000E0,-8.957029879E-2,-1.488591284E-1,-4.118453562E-1
3.769480000E0,-1.245466918E-1,-1.088736355E-1,-3.712315261E-1
3.771480000E0,-1.634151787E-1,-6.450736523E-2,-3.329041004E-1
3.773480000E0,-2.032261342E-1,-2.466150187E-2,-2.977531552E-1
3.775480000E0,-2.412045002E-1,4.799655639E-3,-2.663896084E-1
3.777478437E0,-2.752907872E-1,2.279400080E-2,-2.387784868E-1
3.779480000E0,-3.036698401E-1,3.010693006E-2,-2.133490443E-1
3.781480000E0,-3.247010410E-1,2.993239649E-2,-1.891064197E-1
3.783480000E0,-3.373721540E-1,2.733185515E-2,-1.659808159E-1
3.785480000E0,-3.418925405E-1,2.628465928E-2,-1.452113986E-1
3.787480000E0,-3.405660987E-1,2.837905288E-2,-1.266410947E-1
3.789480000E0,-3.346668780E-1,3.364994749E-2,-1.086816490E-1
3.791480000E0,-3.243868947E-1,4.242895544E-2,-9.220574051E-2
3.793480000E0,-3.097784817E-1,5.609488115E-2,-7.667231560E-2
3.795480000E0,-2.893057764E-1,7.239625603E-2,-5.960299447E-2
3.797478437E0,-2.645570040E-1,8.566076308E-2,-4.319689795E-2
3.799480000E0,-2.399653196E-1,9.042550623E-2,-2.893755957E-2
3.801480000E0,-2.154434472E-1,8.510225266E-2,-1.556833647E-2
3.803480000E0,-1.890366077E-1,7.126179338E-2,-2.862340072E-3
3.805480000E0,-1.621934474E-1,5.204571784E-2,9.250245057E-3
3.807480000E0,-1.351757497E-1,3.035127558E-2,2.017600648E-2
3.809480000E0,-1.074424684E-1,7.295476273E-3,2.935643867E-2
3.811480000E0,-8.068656921E-2,-1.279326342E-2,3.750712425E-2
3.813480000E0,-5.433209985E-2,-2.317797206E-2,4.557054490E-2
3.815480000E0,-2.687807009E-2,-2.015855350E-2,5.483824387E-2
3.817478437E0,1.640609466E-3,-3.769911127E-3,6.682865322E-2
3.819480000E0,2.776818909E-2,2.213077433E-2,7.990117371E-2
3.821480000E0,4.598942399E-2,5.037020147E-2,8.775515109E-2
3.823480000E0,5.719443783E-2,8.267624676E-2,8.843583614E-2
3.825480000E0,6.049311161E-2,1.280373484E-1,7.955210656E-2
3.827480000E0,5.078908056E-2,1.900489032E-1,4.846779257E-2
3.829480000E0,3.136356547E-2,2.686410844E-1,-2.042035107E-3
3.831480000E0,1.178097259E-2,3.568150997E-1,-5.101597309E-2
3.833480000E0,-3.438298590E-3,4.391073883E-1,-8.831366152E-2
3.835480000E0,-1.530653704E-2,5.057440400E-1,-1.151568219E-1
3.837480000E0,-2.235766686E-2,5.619087219E-1,-1.346172392E-1
3.839480000E0,-2.459168993E-2,6.112841368E-1,-1.501157731E-1
3.841480000E0,-2.518510073E-2,6.506412625E-1,-1.636769772E-1
3.843480000E0,-2.417281084E-2,6.805387735E-1,-1.742536724E-1
3.845480000E0,-1.870992966E-2,7.053399086E-1,-1.769763827E-1
3.847480000E0,-7.644542027E-3,7.305948138E-1,-1.695587337E-1
3.849480000E0,8.203047328E-3,7.560242414E-1,-1.520356238E-1
3.851480000E0,2.698278986E-2,7.805810571E-1,-1.256287992E-1
3.853480000E0,4.693190381E-2,8.047713041E-1,-9.342747182E-2
3.855480000E0,6.735225767E-2,8.307243586E-1,-5.665338784E-2
3.857480000E0,8.703956753E-2,8.636936545E-1,-1.548107062E-2
3.859480000E0,1.064127237E-1,9.029984474E-1,2.967059799E-2
3.861480000E0,1.262920201E-1,9.458287954E-1,7.993607968E-2
3.863480000E0,1.470090896E-1,9.907187223E-1,1.376366615E-1
3.865480000E0,1.674294323E-1,1.035189629E0,2.034355700E-1
3.867480000E0,1.864884347E-1,1.080760241E0,2.772455513E-1
3.869480000E0,2.062281072E-1,1.132753611E0,3.609340787E-1
3.871480000E0,2.275211215E-1,1.189598918E0,4.565606713E-1
3.873480000E0,2.504023910E-1,1.244925857E0,5.636715293E-1
3.875480000E0,2.757969201E-1,1.293323874E0,6.757565737E-1
3.877480000E0,3.041410744E-1,1.328823924E0,7.860962749E-1
3.879480000E0,3.349286914E-1,1.349575877E0,8.969770670E-1
3.881480000E0,3.651403189E-1,1.359908223E0,1.012483001E0
3.883480000E0,3.925769031E-1,1.363817692E0,1.133696079E0
3.885480000E0,4.160690308E-1,1.362561107E0,1.258155465E0
3.887480000E0,4.350931346E-1,1.353206158E0,1.380136609E0
3.889480000E0,4.529303908E-1,1.334880114E0,1.490406513E0
3.891480000E0,4.750437140E-1,1.315419793E0,1.584846258E0
3.893480000E0,5.010840297E-1,1.290147424E0,1.665271044E0
3.895480000E0,5.252568126E-1,1.247351885E0,1.741245151E0
3.897480000E0,5.429719090E-1,1.188883424E0,1.824567199E0
3.899480000E0,5.489409566E-1,1.118057966E0,1.903927326E0
3.901480000E0,5.447347164E-1,1.044422507E0,1.959289193E0
3.903480000E0,5.382769704E-1,9.853954315E-1,1.982763886E0
3.905480000E0,5.340881944E-1,9.465444088E-1,1.973059773E0
3.907480000E0,5.320461392E-1,9.184097052E-1,1.933755040E0
3.909480000E0,5.274385214E-1,8.870810270E-1,1.871359468E0
3.911480000E0,5.145230889E-1,8.500102758E-1,1.791981936E0
3.913480000E0,4.922177494E-1,8.166220784E-1,1.703179598E0
3.915480000E0,4.629311264E-1,7.957653999E-1,1.611794114E0
3.917480000E0,4.282863438E-1,7.904421687E-1,1.520932317E0
3.919480000E0,3.908315897E-1,7.948927283E-1,1.433456421E0
3.921480000E0,3.534815311E-1,8.023976684E-1,1.353642464E0
3.923480000E0,3.171263337E-1,8.086110353E-1,1.285173178E0
3.925480000E0,2.815041542E-1,8.070228100E-1,1.228275418E0
3.927480000E0,2.496518940E-1,7.956606746E-1,1.178271770E0
3.929480000E0,2.259503305E-1,7.742978930E-1,1.130781412E0
3.931480000E0,2.093522400E-1,7.416078448E-1,1.082732439E0
3.933480000E0,1.991246194E-1,7.002086639E-1,1.033496737E0
3.935480000E0,1.946391165E-1,6.577971578E-1,9.844180346E-1
3.937480000E0,1.956688613E-1,6.155951023E-1,9.360375404E-1
3.939480000E0,2.046049535E-1,5.662196875E-1,8.891928792E-1
3.941480000E0,2.202256471E-1,5.054124594E-1,8.455073237E-1
3.943480000E0,2.404889166E-1,4.342553616E-1,8.056265116E-1
3.945480000E0,2.660928965E-1,3.588920534E-1,7.707722783E-1
3.947480000E0,2.951351702E-1,2.852915227E-1,7.411191463E-1
3.949480000E0,3.246312439E-1,2.161939293E-1,7.170510888E-1
3.951480000E0,3.552617729E-1,1.504997462E-1,7.006275058E-1
3.953480000E0,3.876201808E-1,8.461356163E-2,6.901555657E-1
3.955480000E0,4.206767082E-1,1.583013684E-2,6.795788407E-1
3.957480000E0,4.533841908E-1,-5.508258939E-2,6.629633307E-1
3.959480000E0,4.859520197E-1,-1.218414381E-1,6.379004121E-1
3.961498750E0,5.200383067E-1,-1.764702350E-1,6.062226892E-1
3.963480000E0,5.547528863E-1,-2.189166546E-1,5.709320903E-1
3.965480000E0,5.887693763E-1,-2.541722953E-1,5.335122347E-1
3.967480000E0,6.224891543E-1,-2.839999795E-1,4.965112507E-1
3.969480000E0,6.557900310E-1,-2.989749014E-1,4.606098533E-1
3.971480000E0,6.886022091E-1,-2.946639359E-1,4.289495647E-1
3.973480000E0,7.174175978E-1,-2.840697765E-1,4.028045237E-1
3.975480000E0,7.405083179E-1,-2.753256857E-1,3.779684901E-1
3.977480000E0,7.597069144E-1,-2.670353651E-1,3.542843759E-1
3.979480000E0,7.753974199E-1,-2.564063072E-1,3.348588645E-1
3.981480000E0,7.884175777E-1,-2.419724464E-1,3.215769231E-1
3.983480000E0,7.984532118E-1,-2.215870023E-1,3.152239025E-1
3.985480000E0,8.038113713E-1,-1.908692122E-1,3.151715696E-1
3.987480000E0,8.025023937E-1,-1.496445239E-1,3.217689097E-1
3.989480000E0,7.947182059E-1,-1.022413895E-1,3.355046511E-1
3.991480000E0,7.814537287E-1,-4.761258140E-2,3.549825251E-1
3.993480000E0,7.621678114E-1,1.565560326E-2,3.787015378E-1
3.995480000E0,7.378903031E-1,8.843583614E-2,4.057192504E-1
3.997480000E0,7.103490233E-1,1.739395112E-1,4.346916974E-1
3.999480000E0,6.814463735E-1,2.718699276E-1,4.641703069E-1
4.001480000E0,6.529625654E-1,3.783350289E-1,4.935267568E-1
4.003480000E0,6.271666288E-1,4.866850674E-1,5.228483081E-1
4.005480000E0,6.043551564E-1,5.926614404E-1,5.537056923E-1
