"Time (s)","Gyroscope x (rad/s)","Gyroscope y (rad/s)","Gyroscope z (rad/s)"
0.000000000E0,3.218978941E-1,7.568681240E-2,2.711019851E-2
2.002000000E-3,3.218978941E-1,7.568681240E-2,2.711019851E-2
3.994500000E-3,3.218978941E-1,7.568681240E-2,2.711019851E-2
5.989833000E-3,6.691417657E-3,7.629768550E-2,-9.541714564E-3
7.987333000E-3,-1.713232696E-2,6.652383506E-2,-1.748296432E-2
9.988933000E-3,-4.339953139E-2,5.552826449E-2,-2.175902016E-2
1.199509900E-2,-5.134078115E-2,4.514355212E-2,-2.359161526E-2
1.399367000E-2,-8.493836969E-2,2.803932503E-2,-2.664594352E-2
1.599267000E-2,-1.234228835E-1,1.032423321E-2,-3.580892086E-2
1.799233600E-2,-1.276989430E-1,-4.336532671E-3,-3.825237975E-2
1.999173600E-2,-1.570204645E-1,-2.632768080E-2,-4.313930497E-2
2.199146300E-2,-1.729029715E-1,-4.343190789E-2,-4.802622646E-2
2.399121300E-2,-1.845093966E-1,-5.870354176E-2,-4.558276385E-2
2.599113600E-2,-1.961158514E-1,-6.969910860E-2,-5.046968907E-2
2.799113600E-2,-2.083331496E-1,-7.580777258E-2,-5.352401361E-2
2.999126900E-2,-2.150526792E-1,-8.008382469E-2,-5.291314796E-2
3.199145600E-2,-2.150526792E-1,-7.519689947E-2,-5.902180076E-2
3.399175000E-2,-2.205504626E-1,-7.458603382E-2,-6.146525964E-2
3.599208300E-2,-2.162743956E-1,-8.130554855E-2,-6.635218114E-2
3.799360900E-2,-2.174961269E-1,-7.825122774E-2,-6.635218114E-2
3.999405900E-2,-2.138309330E-1,-7.275344431E-2,-6.940650940E-2
4.199453500E-2,-2.132200748E-1,-7.214257866E-2,-7.123910636E-2
4.399503500E-2,-2.071114182E-1,-7.275344431E-2,-7.184996456E-2
4.599573000E-2,-2.162743956E-1,-6.420132518E-2,-7.062824070E-2
4.799631300E-2,-2.095548809E-1,-6.420132518E-2,-7.062824070E-2
4.999695300E-2,-2.095548809E-1,-6.114700064E-2,-6.940650940E-2
5.199760600E-2,-2.132200748E-1,-5.809267610E-2,-7.001737505E-2
5.399827200E-2,-2.089440227E-1,-6.114700064E-2,-6.696305424E-2
5.599898600E-2,-2.119983435E-1,-5.931440368E-2,-6.940650940E-2
5.799971000E-2,-2.113874853E-1,-6.053613499E-2,-6.879564375E-2
6.000041000E-2,-2.211613208E-1,-6.725565344E-2,-6.879564375E-2
6.200114300E-2,-2.193287164E-1,-6.969910860E-2,-6.513045728E-2
6.400247600E-2,-2.236047834E-1,-7.397517562E-2,-6.574131548E-2
6.600380900E-2,-2.229939103E-1,-8.374901861E-2,-6.024353206E-2
6.800504200E-2,-2.339894921E-1,-8.558160812E-2,-6.329785287E-2
7.000570800E-2,-2.376546711E-1,-9.474459291E-2,-5.841093510E-2
7.200547400E-2,-2.431524694E-1,-9.963151067E-2,-5.841093510E-2
7.400684000E-2,-2.431524694E-1,-1.026858389E-1,-5.657833815E-2
7.600820600E-2,-2.431524694E-1,-1.100162193E-1,-5.474574119E-2
7.800943900E-2,-2.547589242E-1,-1.136814132E-1,-4.558276385E-2
8.001083900E-2,-2.535371780E-1,-1.130705476E-1,-4.558276385E-2
8.201217200E-2,-2.578132451E-1,-1.094053537E-1,-3.825237975E-2
8.401350500E-2,-2.620892823E-1,-1.045184359E-1,-3.641978279E-2
8.601483800E-2,-2.694196701E-1,-1.008532420E-1,-2.725680731E-2
8.802107100E-2,-2.712522447E-1,-9.779891372E-2,-3.092199937E-2
9.002240400E-2,-2.773609459E-1,-9.779891372E-2,-2.786767110E-2
9.202377000E-2,-2.749174535E-1,-9.474459291E-2,-2.481334656E-2
9.402510300E-2,-2.785826325E-1,-9.474459291E-2,-2.359161526E-2
9.602643600E-2,-2.791935205E-1,-9.779891372E-2,-2.603507601E-2
9.802703600E-2,-2.810261250E-1,-1.002423763E-1,-2.359161526E-2
1.000283690E-1,-2.804152668E-1,-9.657718986E-2,-2.847853862E-2
1.020297020E-1,-2.840804458E-1,-9.779891372E-2,-3.214373067E-2
1.040310680E-1,-2.853021622E-1,-9.718804806E-2,-3.641978279E-2
1.060323010E-1,-2.822478414E-1,-1.057401672E-1,-3.947411478E-2
1.080336340E-1,-2.779717743E-1,-1.075727642E-1,-3.825237975E-2
1.100349670E-1,-2.767500579E-1,-1.246769875E-1,-4.741536081E-2
1.120363000E-1,-2.810261250E-1,-1.301747710E-1,-5.169141665E-2
1.140376330E-1,-2.767500579E-1,-1.387268901E-1,-5.535661057E-2
1.160389660E-1,-2.822478414E-1,-1.466681361E-1,-5.352401361E-2
1.180402990E-1,-2.791935205E-1,-1.478898674E-1,-5.291314796E-2
1.200416990E-1,-2.785826325E-1,-1.454464048E-1,-5.230227858E-2
1.220430320E-1,-2.767500579E-1,-1.503333300E-1,-5.780006945E-2
1.240443650E-1,-2.730848789E-1,-1.497224569E-1,-5.596747249E-2
1.260457310E-1,-2.688088119E-1,-1.539985240E-1,-5.535661057E-2
1.280470970E-1,-2.639218867E-1,-1.662158221E-1,-5.352401361E-2
1.300484630E-1,-2.651436031E-1,-1.692701429E-1,-5.657833815E-2
1.320498290E-1,-2.529263198E-1,-1.808765829E-1,-5.474574119E-2
1.340511950E-1,-2.480393797E-1,-1.772113889E-1,-5.108055100E-2
1.360524950E-1,-2.413198650E-1,-1.869852394E-1,-5.535661057E-2
1.380538610E-1,-2.272699773E-1,-1.912612915E-1,-5.046968907E-2
1.400551940E-1,-2.156635225E-1,-1.924830377E-1,-5.046968907E-2
1.420565270E-1,-1.973375678E-1,-1.961482167E-1,-5.046968907E-2
1.440578930E-1,-2.003919035E-1,-1.869852394E-1,-4.863709211E-2
1.460592590E-1,-1.857311428E-1,-1.863743812E-1,-4.558276385E-2
1.480556920E-1,-1.710703671E-1,-1.766005307E-1,-4.252843931E-2
1.500570580E-1,-1.576313376E-1,-1.692701429E-1,-3.703065217E-2
1.520583580E-1,-1.441922933E-1,-1.588854343E-1,-3.153286502E-2
1.540596910E-1,-1.429705620E-1,-1.527767926E-1,-2.664594352E-2
1.560658910E-1,-1.264771968E-1,-1.430029422E-1,-2.359161526E-2
1.580672570E-1,-1.228120103E-1,-1.430029422E-1,-1.809382811E-2
1.600687900E-1,-1.197576895E-1,-1.283421814E-1,-1.320690662E-2
1.620708560E-1,-1.154816300E-1,-1.277313083E-1,-1.442863792E-2
1.640721560E-1,-1.185359582E-1,-1.191791967E-1,-1.198517624E-2
1.660734890E-1,-1.124273092E-1,-1.265095770E-1,-1.600467018E-3
1.680748550E-1,-1.136490330E-1,-1.368942857E-1,-6.487389095E-3
1.700761550E-1,-1.240337417E-1,-1.375051588E-1,-3.433062695E-3
1.720781880E-1,-1.142599061E-1,-1.497224569E-1,5.729916040E-3
1.740795210E-1,-1.167033613E-1,-1.552202404E-1,8.429940208E-4
1.760808540E-1,-1.289206743E-1,-1.521659195E-1,2.321288048E-4
1.780821870E-1,-1.234228835E-1,-1.619397551E-1,2.675589873E-3
1.800835200E-1,-1.209794134E-1,-1.582745612E-1,5.119050853E-3
1.820848530E-1,-1.240337417E-1,-1.613288969E-1,1.453859382E-3
1.840861860E-1,-1.240337417E-1,-1.533876508E-1,3.286454827E-3
1.860874860E-1,-1.197576895E-1,-1.558311135E-1,6.340781227E-3
1.880887860E-1,-1.185359582E-1,-1.594963074E-1,3.897320246E-3
1.900901190E-1,-1.160924956E-1,-1.570528448E-1,3.897320246E-3
1.920914520E-1,-1.142599061E-1,-1.546093971E-1,8.173377253E-3
1.940927520E-1,-1.099838391E-1,-1.607180387E-1,1.244943310E-2
1.960941520E-1,-1.057077870E-1,-1.570528448E-1,1.306029875E-2
1.980954850E-1,-1.044860557E-1,-1.582745612E-1,1.428202912E-2
2.000968180E-1,-1.038751900E-1,-1.485007256E-1,1.611462608E-2
2.020978510E-1,-9.959913790E-2,-1.539985240E-1,1.550376043E-2
2.040992170E-1,-9.715566784E-2,-1.405594796E-1,1.122770272E-2
2.061005170E-1,-9.165789187E-2,-1.460572630E-1,1.489289477E-2
2.081019170E-1,-1.002099961E-1,-1.295638978E-1,1.122770272E-2
2.101032500E-1,-9.226875007E-2,-1.313965023E-1,9.395107627E-3
2.121046160E-1,-9.471221268E-2,-1.277313083E-1,5.729916040E-3
2.141059490E-1,-9.349048138E-2,-1.320073754E-1,1.453859382E-3
2.161024490E-1,-9.104701877E-2,-1.313965023E-1,4.508185200E-3
2.181037820E-1,-8.860356361E-2,-1.387268901E-1,5.119050853E-3
2.201049480E-1,-8.799269795E-2,-1.387268901E-1,1.453859382E-3
2.221055810E-1,-9.104701877E-2,-1.387268901E-1,-3.787364694E-4
2.241069470E-1,-8.310577273E-2,-1.533876508E-1,-4.654793069E-3
2.261083130E-1,-8.432750404E-2,-1.460572630E-1,-6.487389095E-3
2.281096130E-1,-8.005144447E-2,-1.472790092E-1,-8.930849843E-3
2.301109790E-1,-6.966674328E-2,-1.552202404E-1,-8.319984190E-3
2.321116450E-1,-6.233635172E-2,-1.558311135E-1,-9.541714564E-3
2.341129780E-1,-5.989289656E-2,-1.643832177E-1,-7.709119469E-3
2.361143110E-1,-5.744943395E-2,-1.704918891E-1,-7.709119469E-3
2.381156440E-1,-5.561683699E-2,-1.766005307E-1,-6.487389095E-3
2.401169440E-1,-4.523212835E-2,-1.766005307E-1,-7.098254282E-3
2.421182770E-1,-5.134078115E-2,-1.741570681E-1,-6.487389095E-3
2.441194100E-1,-4.584299400E-2,-1.790439934E-1,-8.930849843E-3
2.461207760E-1,-4.767559096E-2,-1.833200604E-1,-5.876523443E-3
2.481224420E-1,-4.950818792E-2,-1.802657098E-1,-5.876523443E-3
2.501238080E-1,-5.011904985E-2,-1.808765829E-1,-5.876523443E-3
2.521251410E-1,-5.195164308E-2,-1.857635081E-1,-2.822197508E-3
2.541265070E-1,-5.622770265E-2,-1.857635081E-1,-3.433062695E-3
2.561290070E-1,-6.111462414E-2,-1.888178438E-1,-5.876523443E-3
2.581303400E-1,-6.172548980E-2,-1.998134106E-1,-3.787364694E-4
2.601316730E-1,-6.233635172E-2,-1.967590749E-1,-4.654793069E-3
2.621333060E-1,-7.394279540E-2,-2.156959027E-1,8.429940208E-4
2.641351060E-1,-8.310577273E-2,-2.224154174E-1,-2.822197508E-3
2.661365060E-1,-8.860356361E-2,-2.401305288E-1,-4.043928348E-3
2.681378060E-1,-9.532307088E-2,-2.554021478E-1,2.321288048E-4
2.701391060E-1,-9.654480964E-2,-2.688411772E-1,2.064724453E-3
2.721404390E-1,-1.032643244E-1,-2.951084077E-1,5.119050853E-3
2.741418050E-1,-1.167033613E-1,-3.164886832E-1,1.183856837E-2
2.761431380E-1,-1.258663386E-1,-3.219864368E-1,6.951646414E-3
2.781445040E-1,-1.454140246E-1,-3.445884585E-1,1.122770272E-2
2.801458370E-1,-1.582421958E-1,-3.623035550E-1,1.183856837E-2
2.821471700E-1,-1.637399942E-1,-3.647470474E-1,1.122770272E-2
2.841489360E-1,-1.784007549E-1,-3.812403977E-1,7.562512066E-3
2.861504360E-1,-1.942832470E-1,-3.849055767E-1,4.508185200E-3
2.881518020E-1,-1.942832470E-1,-3.867381811E-1,6.951646414E-3
2.901531680E-1,-2.181070000E-1,-4.007880986E-1,-3.787364694E-4
2.921544680E-1,-2.333786190E-1,-3.965120316E-1,-5.876523443E-3
2.941558340E-1,-2.333786190E-1,-4.007880986E-1,-7.098254282E-3
2.961572000E-1,-2.474285215E-1,-3.977337778E-1,-1.137431059E-2
2.981585660E-1,-2.608675659E-1,-3.904033899E-1,-2.114815451E-2
3.001599320E-1,-2.535371780E-1,-3.952902853E-1,-2.481334656E-2
3.021612980E-1,-2.700305581E-1,-3.922359645E-1,-2.359161526E-2
3.041630640E-1,-2.773609459E-1,-3.952902853E-1,-3.458718956E-2
3.061643970E-1,-2.816369534E-1,-4.062858522E-1,-3.275459260E-2
3.081654630E-1,-2.859130204E-1,-4.081184566E-1,-3.641978279E-2
3.101667960E-1,-2.962977290E-1,-4.215574861E-1,-3.641978279E-2
3.121681290E-1,-3.060715795E-1,-4.276661277E-1,-3.886324540E-2
3.141694950E-1,-3.097367883E-1,-4.374400079E-1,-4.008497670E-2
3.161696280E-1,-3.164562881E-1,-4.478247166E-1,-3.153286502E-2
3.181709610E-1,-3.305062056E-1,-4.618746042E-1,-2.847853862E-2
3.201723270E-1,-3.243975639E-1,-4.667615294E-1,-2.786767110E-2
3.221743930E-1,-3.286736012E-1,-4.820331335E-1,-3.031113371E-2
3.241752590E-1,-3.457778394E-1,-4.924178720E-1,-3.153286502E-2
3.261765920E-1,-3.488321602E-1,-4.887526929E-1,-3.092199937E-2
3.281779250E-1,-3.457778394E-1,-5.015808344E-1,-2.359161526E-2
3.301793250E-1,-3.506647646E-1,-5.156307220E-1,-1.626123302E-2
3.321806910E-1,-3.653255403E-1,-5.101329684E-1,-1.442863792E-2
3.341820240E-1,-3.671581149E-1,-5.144090056E-1,-3.787364694E-4
3.361833900E-1,-3.647146523E-1,-5.235719681E-1,1.061683707E-2
3.381847230E-1,-3.873166442E-1,-5.186850429E-1,9.395107627E-3
3.401860560E-1,-3.934253156E-1,-5.229611397E-1,1.489289477E-2
3.421874220E-1,-3.964796364E-1,-5.284589529E-1,2.283414267E-2
3.441883550E-1,-4.105295539E-1,-5.364001393E-1,2.588846907E-2
3.461895210E-1,-4.190816581E-1,-5.388436317E-1,3.260798752E-2
3.481908540E-1,-4.245794415E-1,-5.431196690E-1,3.871664032E-2
3.501921870E-1,-4.410728216E-1,-5.535044074E-1,5.154481158E-2
3.521935530E-1,-4.392402172E-1,-5.571695566E-1,5.276653916E-2
3.541955530E-1,-4.569552839E-1,-5.675542355E-1,6.376211345E-2
3.561968530E-1,-4.697834849E-1,-5.877128243E-1,6.620557606E-2
3.581981860E-1,-4.826116264E-1,-5.956541300E-1,7.170335948E-2
3.602004520E-1,-4.942180812E-1,-6.084822416E-1,7.475768775E-2
3.622017850E-1,-5.131549239E-1,-6.182560921E-1,7.842288166E-2
3.642029180E-1,-5.229287744E-1,-6.261973381E-1,7.903374732E-2
3.662042840E-1,-5.583589673E-1,-6.188669205E-1,8.758585900E-2
3.682056170E-1,-5.705762506E-1,-6.182560921E-1,9.186191857E-2
3.702069500E-1,-5.785174966E-1,-6.206995845E-1,9.980316460E-2
3.722083160E-1,-6.035630107E-1,-6.170343757E-1,1.016357541E-1
3.742096490E-1,-6.279975772E-1,-6.243647337E-1,1.114096045E-1
3.762110150E-1,-6.298301220E-1,-6.304733753E-1,1.162965223E-1
3.782123810E-1,-6.481561065E-1,-6.378037930E-1,1.272920966E-1
3.802189470E-1,-6.640386581E-1,-6.530754566E-1,1.376768053E-1
3.822195470E-1,-6.732016206E-1,-6.701796055E-1,1.498941183E-1
3.842209130E-1,-6.829754710E-1,-6.762883067E-1,1.523375660E-1
3.862222460E-1,-6.909166574E-1,-6.952251196E-1,1.602788270E-1
3.882236120E-1,-7.135186791E-1,-7.135511041E-1,1.645548791E-1
3.902249450E-1,-7.141295671E-1,-7.257683873E-1,1.682200730E-1
3.922262780E-1,-7.147403955E-1,-7.422617078E-1,1.712743938E-1
3.942276440E-1,-7.239034176E-1,-7.502030134E-1,1.767721921E-1
3.962289440E-1,-7.184056640E-1,-7.557008266E-1,1.834916919E-1
3.982302770E-1,-7.348989844E-1,-7.508138418E-1,1.847134382E-1
4.002316100E-1,-7.336772680E-1,-7.538681626E-1,1.950981468E-1
4.022326430E-1,-7.348989844E-1,-7.508138418E-1,1.993741840E-1
4.042339430E-1,-7.355098128E-1,-7.440943718E-1,2.018176615E-1
4.062353090E-1,-7.330663800E-1,-7.361530662E-1,2.030393779E-1
4.082366750E-1,-7.312338352E-1,-7.312662005E-1,2.048719823E-1
4.102379750E-1,-7.257360220E-1,-7.178271413E-1,2.122023553E-1
4.122393080E-1,-7.208490372E-1,-7.049989700E-1,2.134241015E-1
4.142399740E-1,-7.153513432E-1,-7.019446492E-1,2.146458328E-1
4.162413400E-1,-7.037448883E-1,-7.031663656E-1,2.183110267E-1
4.182427060E-1,-6.988579035E-1,-6.897273660E-1,2.219762057E-1
4.202428720E-1,-6.982470751E-1,-6.842295527E-1,2.268631309E-1
4.222442050E-1,-6.829754710E-1,-6.921707988E-1,2.329717875E-1
4.242455710E-1,-6.719798446E-1,-6.988903284E-1,2.366369814E-1
4.262468710E-1,-6.664820313E-1,-7.025554776E-1,2.403021753E-1
4.282481710E-1,-6.524322033E-1,-7.202706337E-1,2.476325482E-1
4.302495370E-1,-6.475452781E-1,-7.233249545E-1,2.574064136E-1
4.322508700E-1,-6.347171068E-1,-7.434834838E-1,2.647367716E-1
4.342522030E-1,-6.292192936E-1,-7.440943718E-1,2.690128386E-1
4.362535690E-1,-6.108933687E-1,-7.538681626E-1,2.842844427E-1
4.382549020E-1,-5.974543095E-1,-7.520355582E-1,2.897822559E-1
4.402509680E-1,-5.913456678E-1,-7.520355582E-1,3.013887107E-1
4.422523340E-1,-5.742414594E-1,-7.502030134E-1,3.117734194E-1
4.442536670E-1,-5.595806837E-1,-7.440943718E-1,3.252124190E-1
4.462550000E-1,-5.424764156E-1,-7.489812374E-1,3.313211203E-1
4.482563660E-1,-5.217070580E-1,-7.404291630E-1,3.459818661E-1
4.502576990E-1,-5.155984163E-1,-7.373748422E-1,3.600317836E-1
4.522590320E-1,-5.088788271E-1,-7.373748422E-1,3.600317836E-1
4.542603650E-1,-4.826116264E-1,-7.361530662E-1,3.710273504E-1
4.562617310E-1,-4.685617387E-1,-7.257683873E-1,3.753033876E-1
4.582630640E-1,-4.691725969E-1,-7.147728205E-1,3.783577383E-1
4.602643970E-1,-4.435162544E-1,-7.031663656E-1,3.924076259E-1
4.622659970E-1,-4.422945380E-1,-6.805643439E-1,4.052357674E-1
4.642673630E-1,-4.331315756E-1,-6.714013815E-1,4.137879014E-1
4.662686630E-1,-4.264120460E-1,-6.628492475E-1,4.198965430E-1
4.682699960E-1,-4.135838747E-1,-6.524645090E-1,4.211182892E-1
4.702713620E-1,-3.970905244E-1,-6.457450390E-1,4.278377891E-1
4.722731950E-1,-4.001448452E-1,-6.426907182E-1,4.260052145E-1
4.742745610E-1,-3.915927112E-1,-6.335276961E-1,4.272269309E-1
4.762759270E-1,-3.885383904E-1,-6.347494721E-1,4.272269309E-1
4.782772600E-1,-3.873166442E-1,-6.335276961E-1,4.241726100E-1
4.802788600E-1,-3.775428236E-1,-6.359711885E-1,4.241726100E-1
4.822802260E-1,-3.671581149E-1,-6.396363974E-1,4.150096476E-1
4.842815590E-1,-3.610494733E-1,-6.378037930E-1,4.125661552E-1
4.862829250E-1,-3.439452350E-1,-6.414690018E-1,4.040140808E-1
4.882843250E-1,-3.323388100E-1,-6.402472258E-1,4.021814466E-1
4.902856580E-1,-3.292844594E-1,-6.384146810E-1,3.954619467E-1
4.922869910E-1,-3.146236837E-1,-6.341385841E-1,3.869098127E-1
4.942883570E-1,-2.950760126E-1,-6.261973381E-1,3.814120591E-1
4.962896570E-1,-2.865239084E-1,-6.182560921E-1,3.789685667E-1
4.982909900E-1,-2.743065953E-1,-5.962649584E-1,3.716381788E-1
5.002923560E-1,-2.614784241E-1,-5.761063695E-1,3.612534702E-1
5.022937220E-1,-2.492611259E-1,-5.663325787E-1,3.594208956E-1
5.042964880E-1,-2.346003503E-1,-5.418979526E-1,3.594208956E-1
5.062978540E-1,-2.223830521E-1,-5.168524981E-1,3.502579033E-1
5.082991870E-1,-2.046679556E-1,-4.826440215E-1,3.514796495E-1
5.103005200E-1,-2.034462243E-1,-4.612637460E-1,3.496470749E-1
5.123018530E-1,-1.832876801E-1,-4.423269033E-1,3.472035825E-1
5.143031860E-1,-1.704595089E-1,-4.056749940E-1,3.459818661E-1
5.163045190E-1,-1.570204645E-1,-4.038424194E-1,3.533122241E-1
5.183058850E-1,-1.411379725E-1,-3.787969351E-1,3.508687615E-1
5.203072510E-1,-1.283098012E-1,-3.537514508E-1,3.539230824E-1
5.223083170E-1,-1.148707643E-1,-3.494754136E-1,3.557557166E-1
5.243093830E-1,-9.349048138E-2,-3.342037797E-1,3.581991494E-1
5.263107490E-1,-6.966674328E-2,-3.036604822E-1,3.581991494E-1
5.283120820E-1,-5.683856457E-2,-2.957192659E-1,3.624752164E-1
5.303134480E-1,-3.301482275E-2,-2.688411772E-1,3.649186790E-1
5.323143140E-1,-4.915021826E-3,-2.413522452E-1,3.685838580E-1
5.343156470E-1,3.637091722E-3,-2.297458053E-1,3.636969626E-1
5.363169470E-1,2.929343283E-2,-1.998134106E-1,3.679729998E-1
5.383182470E-1,6.044755876E-2,-1.790439934E-1,3.740816712E-1
5.403195800E-1,6.716707349E-2,-1.649940908E-1,3.740816712E-1
5.423208800E-1,9.282341599E-2,-1.356725544E-1,3.777468503E-1
5.443222130E-1,1.123711094E-1,-1.094053537E-1,3.850772381E-1
5.463235790E-1,1.282535940E-1,-7.153170556E-2,3.893533051E-1
5.483248790E-1,1.441360861E-1,-5.870354176E-2,3.960728049E-1
5.503262120E-1,1.624620557E-1,-2.327335626E-2,3.979054093E-1
5.523275780E-1,1.783445626E-1,7.880772464E-3,4.046249092E-1
5.543315780E-1,1.740684956E-1,3.720230609E-2,4.027923346E-1
5.563329440E-1,2.046117485E-1,6.408037245E-2,4.113444388E-1
5.583368100E-1,2.082769424E-1,1.031757519E-1,4.089009762E-1
5.603381760E-1,2.180507928E-1,1.160039231E-1,4.082900882E-1
5.623392760E-1,2.198833972E-1,1.465471834E-1,4.046249092E-1
5.643422420E-1,2.333224118E-1,1.722035259E-1,4.058466554E-1
5.663435420E-1,2.302680910E-1,1.874751598E-1,4.095118344E-1
5.683448420E-1,2.400419414E-1,1.960272640E-1,4.034031928E-1
5.703461750E-1,2.382093519E-1,2.112988979E-1,4.070684016E-1
5.723475080E-1,2.388202101E-1,2.180184126E-1,4.058466554E-1
5.743488410E-1,2.394310832E-1,2.149640918E-1,4.021814466E-1
5.763502070E-1,2.418745458E-1,2.357335091E-1,3.991271257E-1
5.783515400E-1,2.357658893E-1,2.363443822E-1,3.972945213E-1
5.803528730E-1,2.321006954E-1,2.485616803E-1,3.966836929E-1
5.823545390E-1,2.430962622E-1,2.577246726E-1,3.862989545E-1
5.843561390E-1,2.369876057E-1,2.650550604E-1,3.789685667E-1
5.863639050E-1,2.400419414E-1,2.711637020E-1,3.753033876E-1
5.883652710E-1,2.284355015E-1,2.791049480E-1,3.636969626E-1
5.903666040E-1,2.259920388E-1,2.833810151E-1,3.606426120E-1
5.923679040E-1,2.229377180E-1,2.864353359E-1,3.606426120E-1
5.943692370E-1,2.192725241E-1,2.913222313E-1,3.551448286E-1
5.963705700E-1,2.070552260E-1,2.955982983E-1,3.465927243E-1
5.983719360E-1,2.046117485E-1,2.986526191E-1,3.423166871E-1
6.003733020E-1,1.960596442E-1,3.047612906E-1,3.380406201E-1
6.023746680E-1,1.746793687E-1,3.163677156E-1,3.294884861E-1
6.043760010E-1,1.789554209E-1,3.145351112E-1,3.313211203E-1
6.063773010E-1,1.636837870E-1,3.261415660E-1,3.215472400E-1
6.083786670E-1,1.478012800E-1,3.285850286E-1,3.184929192E-1
6.103800000E-1,1.386383027E-1,3.279741406E-1,3.160494566E-1
6.123813330E-1,1.313079298E-1,3.230872452E-1,3.142168522E-1
6.143799990E-1,1.197014824E-1,3.194220662E-1,3.062756062E-1
6.163813650E-1,1.099276394E-1,3.255307078E-1,3.062756062E-1
6.183803310E-1,1.007646620E-1,3.145351112E-1,3.038321435E-1
6.203816640E-1,9.465601295E-2,3.078156114E-1,3.013887107E-1
6.223832640E-1,9.404514730E-2,3.047612906E-1,3.044430315E-1
6.243816970E-1,8.366043866E-2,2.968200445E-1,3.013887107E-1
6.263830300E-1,7.449746132E-2,2.846027315E-1,2.983343899E-1
6.283843960E-1,7.205399871E-2,2.778832018E-1,2.952800393E-1
6.303857620E-1,7.083226740E-2,2.766614556E-1,2.995560765E-1
6.323871280E-1,7.816264778E-2,2.668876350E-1,2.903931141E-1
6.343884940E-1,7.266486436E-2,2.589463890E-1,2.830627561E-1
6.363898270E-1,8.182784170E-2,2.516160011E-1,2.848953307E-1
6.383911270E-1,8.182784170E-2,2.448964864E-1,2.745106220E-1
6.403924930E-1,8.671476692E-2,2.430638820E-1,2.641259134E-1
6.423939930E-1,7.877351344E-2,2.400095612E-1,2.555738091E-1
6.443953260E-1,7.755178958E-2,2.326791883E-1,2.470216900E-1
6.463902590E-1,8.854736388E-2,2.253488004E-1,2.360261083E-1
6.483915920E-1,9.343428165E-2,2.143532187E-1,2.305283248E-1
6.503929250E-1,8.488216996E-2,2.131315023E-1,2.158675492E-1
6.523943250E-1,9.037996083E-2,2.076337188E-1,2.036502510E-1
6.543956910E-1,9.099081904E-2,2.039685249E-1,1.993741840E-1
6.563970570E-1,8.976908773E-2,2.021359205E-1,1.908220798E-1
6.583991230E-1,9.465601295E-2,1.923620701E-1,1.877677590E-1
6.604004560E-1,9.648860991E-2,1.880860180E-1,1.773830503E-1
6.624017890E-1,9.404514730E-2,1.862534136E-1,1.761613190E-1
6.644031550E-1,9.954293817E-2,1.795338988E-1,1.669983417E-1
6.664045210E-1,9.771034122E-2,1.838099658E-1,1.621114165E-1
6.684058540E-1,9.465601295E-2,1.740361154E-1,1.615005434E-1
6.704072200E-1,9.587774426E-2,1.850316972E-1,1.547810435E-1
6.724083530E-1,9.709947556E-2,1.929729432E-1,1.517267078E-1
6.744096860E-1,7.816264778E-2,2.027467787E-1,1.492832452E-1
6.764110190E-1,7.144313306E-2,2.088554353E-1,1.456180513E-1
6.784122190E-1,7.999524474E-2,1.996924579E-1,1.541701704E-1
6.804135520E-1,7.694091648E-2,1.911403537E-1,1.578353643E-1
6.824148850E-1,7.388659567E-2,1.722035259E-1,1.645548791E-1
6.844160850E-1,7.571919262E-2,1.550993025E-1,1.663874835E-1
6.864174850E-1,7.205399871E-2,1.447145790E-1,1.682200730E-1
6.884188510E-1,8.610389382E-2,1.257777661E-1,1.737178713E-1
6.904201510E-1,9.648860991E-2,1.105061322E-1,1.731069982E-1
6.924215170E-1,1.001538038E-1,1.105061322E-1,1.731069982E-1
6.944228170E-1,1.044298559E-1,1.007322893E-1,1.779939085E-1
6.964241500E-1,1.209232211E-1,1.019540206E-1,1.761613190E-1
6.984255160E-1,1.331405193E-1,9.706710279E-2,1.792156547E-1
7.004268490E-1,1.423034966E-1,9.645622969E-2,1.798265129E-1
7.024279820E-1,1.581860036E-1,9.156931192E-2,1.743287146E-1
7.044293820E-1,1.624620557E-1,9.218017757E-2,1.731069982E-1
7.064305150E-1,1.838423461E-1,8.423893154E-2,1.767721921E-1
7.084318150E-1,1.966705024E-1,8.057373762E-2,1.669983417E-1
7.104358810E-1,2.137747407E-1,8.118460327E-2,1.566136330E-1
7.124371810E-1,2.119421363E-1,9.034758061E-2,1.498941183E-1
7.144385140E-1,2.321006954E-1,8.973671496E-2,1.401202679E-1
7.164398800E-1,2.357658893E-1,8.484978974E-2,1.285138279E-1
7.184405130E-1,2.375984788E-1,8.668238670E-2,1.211834475E-1
7.204418460E-1,2.504266500E-1,8.362805843E-2,1.101878732E-1
7.224432120E-1,2.479831874E-1,7.996286452E-2,1.010248959E-1
7.244445450E-1,2.516483665E-1,7.935200632E-2,9.735970199E-2
7.264458450E-1,2.608113587E-1,7.446508855E-2,8.758585900E-2
7.284472110E-1,2.656982839E-1,6.835643202E-2,7.842288166E-2
7.304485440E-1,2.675308883E-1,5.919345468E-2,7.659028471E-2
7.324500770E-1,2.754721344E-1,5.613912642E-2,7.720115036E-2
7.344514430E-1,2.779155970E-1,4.147835821E-2,6.742730737E-2
7.364527760E-1,2.766938508E-1,3.109365329E-2,6.376211345E-2
7.384541090E-1,2.889111638E-1,1.704375073E-2,6.009692326E-2
7.404554420E-1,2.980741262E-1,1.582202129E-2,5.948605761E-2
7.424567420E-1,2.937980890E-1,6.659042090E-3,5.765346065E-2
7.444580750E-1,3.072371185E-1,-3.114801832E-3,5.643173307E-2
7.464593750E-1,3.072371185E-1,-7.390858606E-3,4.665788636E-2
7.484611080E-1,3.164000809E-1,-1.411037613E-2,4.299269617E-2
7.504624740E-1,3.280065358E-1,-1.838643290E-2,4.177096486E-2
7.524638070E-1,3.304499984E-1,-2.877114341E-2,3.810577467E-2
7.544651730E-1,3.432781696E-1,-3.426892683E-2,3.321885318E-2
7.564665060E-1,3.432781696E-1,-4.282104224E-2,3.505145013E-2
7.584678720E-1,3.518303037E-1,-5.442748219E-2,3.566231206E-2
7.604691720E-1,3.499976695E-1,-6.359045953E-2,3.199712187E-2
7.624705380E-1,3.506085575E-1,-6.542305648E-2,3.321885318E-2
7.644718380E-1,3.579389453E-1,-8.008382469E-2,3.382971510E-2
7.664733710E-1,3.530519903E-1,-9.046852589E-2,3.688404337E-2
7.684747710E-1,3.524411321E-1,-8.619247377E-2,3.505145013E-2
7.704734040E-1,3.426673114E-1,-8.313814551E-2,3.993836790E-2
7.724747700E-1,3.438890278E-1,-8.558160812E-2,4.360356182E-2
7.744761030E-1,3.463324904E-1,-7.702949643E-2,4.360356182E-2
7.764774030E-1,3.298391402E-1,-7.214257866E-2,5.032307655E-2
7.784787360E-1,3.359477818E-1,-7.397517562E-2,5.215567350E-2
7.804801020E-1,3.316717148E-1,-7.275344431E-2,5.459913611E-2
7.824814020E-1,3.267848194E-1,-7.030998170E-2,5.276653916E-2
7.844827350E-1,3.225087523E-1,-7.153170556E-2,5.520999804E-2
7.864841350E-1,3.182326853E-1,-7.519689947E-2,4.910134897E-2
7.884854680E-1,3.139566481E-1,-7.702949643E-2,4.787962139E-2
7.904868010E-1,3.157892525E-1,-8.497074246E-2,4.665788636E-2
7.924881340E-1,3.176218271E-1,-9.169026464E-2,4.177096486E-2
7.944894670E-1,3.084588647E-1,-8.741420507E-2,3.566231206E-2
7.964908000E-1,3.127349019E-1,-9.963151067E-2,3.260798752E-2
7.984921330E-1,3.109023273E-1,-9.474459291E-2,2.955366112E-2
8.004934660E-1,3.249522150E-1,-1.020749733E-1,1.855808683E-2
8.024947990E-1,3.121240437E-1,-9.596631676E-2,1.000597328E-2
8.044961320E-1,3.127349019E-1,-9.902064502E-2,3.286454827E-3
8.064974650E-1,3.200652897E-1,-9.596631676E-2,2.321288048E-4
8.084983980E-1,3.218978941E-1,-9.657718986E-2,-1.259604190E-2
8.104997640E-1,3.261739612E-1,-9.963151067E-2,-1.870469563E-2
8.125007970E-1,3.261739612E-1,-1.069618911E-1,-2.420248091E-2
8.145021300E-1,3.292282820E-1,-1.069618911E-1,-3.275459260E-2
8.165034960E-1,3.316717148E-1,-1.173465997E-1,-3.825237975E-2
8.185047960E-1,3.273956478E-1,-1.222335249E-1,-4.069584236E-2
8.205061620E-1,3.304499984E-1,-1.271204501E-1,-4.619362950E-2
8.225074950E-1,3.365586400E-1,-1.344508380E-1,-4.069584236E-2
8.245088610E-1,3.310608566E-1,-1.350616962E-1,-4.558276385E-2
8.265102270E-1,3.273956478E-1,-1.466681361E-1,-4.497190192E-2
8.285118270E-1,3.261739612E-1,-1.521659195E-1,-4.985882342E-2
8.305131270E-1,3.292282820E-1,-1.570528448E-1,-5.169141665E-2
8.325144600E-1,3.157892525E-1,-1.539985240E-1,-5.902180076E-2
8.345155260E-1,3.139566481E-1,-1.588854343E-1,-6.085439771E-2
8.365168590E-1,3.109023273E-1,-1.570528448E-1,-5.902180076E-2
8.385181920E-1,3.047936559E-1,-1.564419717E-1,-5.780006945E-2
8.405199250E-1,2.980741262E-1,-1.466681361E-1,-5.535661057E-2
8.425212910E-1,2.846350968E-1,-1.411703527E-1,-5.230227858E-2
8.445226240E-1,2.907437384E-1,-1.356725544E-1,-5.474574119E-2
8.465239570E-1,2.913546264E-1,-1.356725544E-1,-5.108055100E-2
8.485252900E-1,2.840242386E-1,-1.289530545E-1,-5.352401361E-2
8.505266560E-1,2.852459848E-1,-1.222335249E-1,-5.169141665E-2
8.525280220E-1,2.834133506E-1,-1.149031445E-1,-5.291314796E-2
8.545293550E-1,2.803590298E-1,-1.032966971E-1,-5.352401361E-2
8.565307210E-1,2.730286419E-1,-9.230112284E-2,-5.046968907E-2
8.585320870E-1,2.760829628E-1,-8.374901861E-2,-4.924795404E-2
8.605334530E-1,2.785264552E-1,-7.214257866E-2,-4.741536081E-2
8.625348190E-1,2.736395299E-1,-7.214257866E-2,-4.497190192E-2
8.645361520E-1,2.608113587E-1,-6.481219828E-2,-4.375016689E-2
8.665375180E-1,2.504266500E-1,-6.297959387E-2,-4.130670801E-2
8.685388840E-1,2.522592545E-1,-5.626007915E-2,-3.886324540E-2
8.705401840E-1,2.394310832E-1,-6.420132518E-2,-4.008497670E-2
8.725418170E-1,2.308789641E-1,-6.297959387E-2,-4.436103255E-2
8.745431500E-1,2.229377180E-1,-5.809267610E-2,-4.802622646E-2
8.765444500E-1,2.009465694E-1,-5.198401958E-2,-4.558276385E-2
8.785458160E-1,1.777336895E-1,-4.892969504E-2,-5.108055100E-2
8.805471820E-1,1.642946452E-1,-4.404277354E-2,-5.413487554E-2
8.825485480E-1,1.423034966E-1,-3.732325882E-2,-5.230227858E-2
8.845498810E-1,1.172580272E-1,-2.144075930E-2,-5.413487554E-2
8.865512140E-1,9.037996083E-2,-1.838643290E-2,-5.474574119E-2
8.885522800E-1,8.121698350E-2,-1.716470346E-2,-5.841093510E-2
8.905536460E-1,5.494977161E-2,-6.779993419E-3,-5.963266268E-2
8.925549790E-1,2.562824078E-2,6.048176903E-3,-6.574131548E-2
8.945566120E-1,2.074131742E-2,6.048176903E-3,-6.329785287E-2
8.965579780E-1,-4.915021826E-3,2.009807713E-2,-6.940650940E-2
8.985593110E-1,-2.263011411E-2,2.437413484E-2,-6.940650940E-2
9.005602440E-1,-3.423655406E-2,3.170451894E-2,-7.368256152E-2
9.025616100E-1,-4.339953139E-2,4.147835821E-2,-7.918035239E-2
9.045629430E-1,-5.134078115E-2,5.003047734E-2,-7.856948674E-2
9.065642430E-1,-5.867116153E-2,5.369566754E-2,-8.040208369E-2
9.085656090E-1,-6.600154936E-2,5.797172338E-2,-7.673688978E-2
9.105669420E-1,-7.577539235E-2,5.736085773E-2,-7.979121804E-2
9.125682750E-1,-7.699712366E-2,6.102605164E-2,-8.101294935E-2
9.145696410E-1,-8.554923534E-2,5.674999207E-2,-7.856948674E-2
9.165709410E-1,-8.799269795E-2,5.613912642E-2,-7.368256152E-2
9.185722740E-1,-9.532307088E-2,5.797172338E-2,-7.307170331E-2
9.205736400E-1,-9.349048138E-2,5.674999207E-2,-7.001737505E-2
9.225750060E-1,-9.410134703E-2,6.163691357E-2,-7.429343462E-2
9.245763720E-1,-1.008208618E-1,7.018902898E-2,-7.307170331E-2
9.265777380E-1,-1.002099961E-1,7.568681240E-2,-7.429343462E-2
9.285790710E-1,-1.038751900E-1,8.057373762E-2,-7.551515847E-2
9.305804040E-1,-1.026534587E-1,8.423893154E-2,-7.429343462E-2
9.325817370E-1,-1.063186526E-1,8.546065539E-2,-7.184996456E-2
9.345831030E-1,-1.008208618E-1,8.484978974E-2,-7.184996456E-2
9.365844690E-1,-1.014317349E-1,9.095844626E-2,-6.268699467E-2
9.385858020E-1,-1.008208618E-1,8.912584931E-2,-6.207612529E-2
9.405871020E-1,-1.050969213E-1,8.118460327E-2,-5.596747249E-2
9.425884020E-1,-1.008208618E-1,7.324335724E-2,-5.230227858E-2
9.445943680E-1,-9.776654094E-2,7.507595420E-2,-5.230227858E-2
9.465956680E-1,-8.982529491E-2,6.224777922E-2,-5.535661057E-2
9.485970010E-1,-8.127317578E-2,5.125220492E-2,-5.718920380E-2
9.505983670E-1,-8.738182485E-2,4.636528343E-2,-5.718920380E-2
9.525997330E-1,-8.188404143E-2,4.392182082E-2,-5.963266268E-2
9.546021990E-1,-7.638625056E-2,3.231538460E-2,-6.513045728E-2
9.566035650E-1,-7.944057882E-2,3.475884348E-2,-6.879564375E-2
9.586049310E-1,-7.027760148E-2,2.193067409E-2,-7.551515847E-2
9.606062640E-1,-6.905587018E-2,1.704375073E-2,-7.368256152E-2
9.626075640E-1,-6.477981806E-2,1.460028999E-2,-7.856948674E-2
9.646089300E-1,-5.989289656E-2,7.880772464E-3,-7.795862854E-2
9.666103300E-1,-5.744943395E-2,-6.713409093E-4,-8.345641196E-2
9.686116630E-1,-6.050375849E-2,6.659042090E-3,-8.406727761E-2
9.706129630E-1,-5.744943395E-2,1.161254826E-3,-8.773246408E-2
9.726143960E-1,-5.744943395E-2,4.215580877E-3,-9.017592669E-2
9.746157290E-1,-5.500597134E-2,-2.503936645E-3,-8.712160587E-2
9.766170950E-1,-5.256251246E-2,-6.713409093E-4,-8.528900892E-2
9.786184610E-1,-5.500597134E-2,-4.947397858E-3,-8.223468065E-2
9.806197610E-1,-4.950818792E-2,-1.288864575E-2,-8.223468065E-2
9.826210610E-1,-4.462126270E-2,-1.166691538E-2,-8.040208369E-2
9.846224270E-1,-3.851260990E-2,-1.655383594E-2,-8.223468065E-2
9.866237600E-1,-3.790174425E-2,-1.960816421E-2,-8.345641196E-2
9.886250930E-1,-4.156693816E-2,-2.021902800E-2,-8.651073277E-2
9.906264590E-1,-4.889731854E-2,-2.266248874E-2,-8.467813581E-2
9.926278250E-1,-4.462126270E-2,-2.021902800E-2,-8.040208369E-2
9.946291580E-1,-4.156693816E-2,-1.655383594E-2,-8.284554631E-2
9.966304910E-1,-4.523212835E-2,-1.960816421E-2,-8.284554631E-2
9.986318570E-1,-4.401039705E-2,-1.349951047E-2,-7.795862854E-2
1.000633223E0,-4.401039705E-2,-1.166691538E-2,-7.612603158E-2
1.002634623E0,-4.889731854E-2,-8.612588979E-3,-7.612603158E-2
1.004631356E0,-5.561683699E-2,-4.336532671E-3,-7.612603158E-2
1.006632722E0,-6.050375849E-2,-4.336532671E-3,-7.490430027E-2
1.008634088E0,-5.989289656E-2,6.048176903E-3,-7.001737505E-2
1.010635421E0,-5.867116153E-2,8.491638117E-3,-6.635218114E-2
1.012636754E0,-6.050375849E-2,1.276769489E-2,-6.696305424E-2
1.014636987E0,-5.806029961E-2,1.704375073E-2,-7.123910636E-2
1.016638153E0,-6.111462414E-2,2.009807713E-2,-6.879564375E-2
1.018639486E0,-6.355808675E-2,1.826548204E-2,-6.818477809E-2
1.020640819E0,-5.989289656E-2,2.376326919E-2,-7.246083766E-2
1.022642185E0,-5.928202718E-2,2.559586614E-2,-7.368256152E-2
1.024643518E0,-5.867116153E-2,2.865019068E-2,-7.062824070E-2
1.026644818E0,-4.828645289E-2,2.437413484E-2,-7.246083766E-2
1.028646151E0,-4.950818792E-2,3.659143671E-2,-6.513045728E-2
1.030647517E0,-5.622770265E-2,3.720230609E-2,-6.329785287E-2
1.032648783E0,-5.256251246E-2,4.025663063E-2,-6.451958418E-2
1.034650116E0,-4.278866574E-2,4.392182082E-2,-6.207612529E-2
1.036651482E0,-3.729087859E-2,5.430652946E-2,-6.085439771E-2
1.038652815E0,-3.790174425E-2,6.102605164E-2,-5.963266268E-2
1.040654181E0,-3.179309145E-2,4.941960797E-2,-6.268699467E-2
1.042655547E0,-2.324097790E-2,4.636528343E-2,-5.902180076E-2
1.044656880E0,-2.324097790E-2,4.208922759E-2,-6.024353206E-2
1.046658213E0,-1.713232696E-2,3.781317174E-2,-5.841093510E-2
1.048659579E0,-1.468886528E-2,3.170451894E-2,-6.207612529E-2
1.050660945E0,-6.136752199E-3,3.109365329E-2,-6.024353206E-2
1.052662278E0,-2.809980106E-5,2.498499863E-2,-6.085439771E-2
1.054663644E0,-6.389650516E-4,3.170451894E-2,-6.451958418E-2
1.056664977E0,7.302283309E-3,3.231538460E-2,-6.329785287E-2
1.058666310E0,9.134879336E-3,2.987192199E-2,-5.841093510E-2
1.060667676E0,9.745744057E-3,3.720230609E-2,-5.535661057E-2
1.062669009E0,6.691417657E-3,3.353711218E-2,-5.169141665E-2
1.064670342E0,4.247956909E-3,3.903489932E-2,-4.680449516E-2
1.066671708E0,9.134879336E-3,2.803932503E-2,-3.825237975E-2
1.068673041E0,4.858822562E-3,2.498499863E-2,-3.214373067E-2
1.070674341E0,3.637091722E-3,1.643288694E-2,-2.970026806E-2
1.072675707E0,1.804495929E-3,8.491638117E-3,-2.114815451E-2
1.074677040E0,2.415361116E-3,-6.779993419E-3,-1.565036736E-2
1.076684640E0,-6.136752199E-3,-9.834319353E-3,-1.320690662E-2
1.078685973E0,-1.860695425E-3,-2.021902800E-2,-1.503950171E-2
1.080687339E0,-6.136752199E-3,-2.510595135E-2,-1.381777227E-2
1.082688672E0,-1.224540453E-2,-2.144075930E-2,-1.626123302E-2
1.084690038E0,-2.018665336E-2,-2.388422005E-2,-1.992642321E-2
1.086691404E0,-1.713232696E-2,-2.571681514E-2,-2.236988395E-2
1.088692704E0,-1.468886528E-2,-2.877114341E-2,-1.931555942E-2
1.090694070E0,-1.468886528E-2,-2.999287285E-2,-2.359161526E-2
1.092701103E0,-1.285627019E-2,-2.571681514E-2,-2.114815451E-2
1.094702436E0,-1.529973093E-2,-2.999287285E-2,-2.481334656E-2
1.096703769E0,-1.957578771E-2,-3.182546794E-2,-2.359161526E-2
1.098708769E0,-2.018665336E-2,-3.793412074E-2,-2.359161526E-2
1.100710102E0,-2.385184541E-2,-4.098844528E-2,-2.175902016E-2
1.102711568E0,-2.690616995E-2,-3.976671770E-2,-2.298075147E-2
1.104712901E0,-2.690616995E-2,-5.503834784E-2,-1.748296432E-2
1.106713967E0,-3.240395710E-2,-5.870354176E-2,-2.542421222E-2
1.108715300E0,-3.912347555E-2,-6.114700064E-2,-2.175902016E-2
1.110716633E0,-3.973434120E-2,-7.336430252E-2,-2.542421222E-2
1.112717966E0,-4.156693816E-2,-8.130554855E-2,-2.664594352E-2
1.114719366E0,-4.889731854E-2,-8.558160812E-2,-2.542421222E-2
1.116720732E0,-4.889731854E-2,-8.924680203E-2,-2.908940241E-2
1.118722098E0,-5.806029961E-2,-9.046852589E-2,-3.275459260E-2
1.120723431E0,-5.928202718E-2,-8.374901861E-2,-3.153286502E-2
1.122724764E0,-4.584299400E-2,-9.352285415E-2,-2.847853862E-2
1.124726130E0,-4.645385593E-2,-8.680333942E-2,-2.847853862E-2
1.126727463E0,-4.278866574E-2,-8.741420507E-2,-2.908940241E-2
1.128728763E0,-4.217780381E-2,-8.130554855E-2,-2.786767110E-2
1.130730163E0,-3.668001667E-2,-7.764036208E-2,-2.603507601E-2
1.132731496E0,-3.057136200E-2,-7.886209339E-2,-2.786767110E-2
1.134732829E0,-2.079751715E-2,-7.275344431E-2,-2.664594352E-2
1.136728095E0,-1.896492206E-2,-6.908825040E-2,-2.725680731E-2
1.138729461E0,-8.580213413E-3,-6.847738475E-2,-2.298075147E-2
1.140730761E0,-9.801943786E-3,-6.297959387E-2,-2.114815451E-2
1.142732094E0,4.858822562E-3,-6.542305648E-2,-1.809382811E-2
1.144733427E0,-2.809980106E-5,-5.992526934E-2,-1.931555942E-2
1.146734760E0,4.247956909E-3,-6.664478779E-2,-1.687209867E-2
1.148736160E0,9.134879336E-3,-7.092084736E-2,-1.992642321E-2
1.150737460E0,1.524353120E-2,-6.908825040E-2,-1.809382811E-2
1.152733093E0,1.402180083E-2,-7.275344431E-2,-1.748296432E-2
1.154734459E0,1.524353120E-2,-7.030998170E-2,-1.748296432E-2
1.156735759E0,1.829785667E-2,-6.542305648E-2,-1.809382811E-2
1.158733425E0,1.585439593E-2,-6.236873195E-2,-1.870469563E-2
1.160734958E0,1.096747536E-2,-6.786651909E-2,-1.565036736E-2
1.162736891E0,2.074131742E-2,-5.931440368E-2,-1.565036736E-2
1.164738224E0,1.951958798E-2,-5.809267610E-2,-1.442863792E-2
1.166739857E0,1.524353120E-2,-5.320575461E-2,-1.076344587E-2
1.168741157E0,1.707612723E-2,-4.831882939E-2,-4.043928348E-3
1.170742490E0,1.890872233E-2,-4.343190789E-2,-9.896017145E-4
1.172743856E0,1.585439593E-2,-3.610152379E-2,6.951646414E-3
1.174745122E0,2.013045363E-2,-3.426892683E-2,1.000597328E-2
1.176746455E0,1.402180083E-2,-2.449508384E-2,1.183856837E-2
1.178747788E0,1.951958798E-2,-2.144075930E-2,1.855808683E-2
1.180749088E0,2.746083587E-2,-2.266248874E-2,2.588846907E-2
1.182750454E0,2.135218494E-2,-1.472124178E-2,1.855808683E-2
1.184751787E0,2.562824078E-2,-1.594297215E-2,2.283414267E-2
1.186753120E0,2.379564568E-2,-7.390858606E-3,2.344500646E-2
1.188754486E0,2.746083587E-2,-2.503936645E-3,2.039068192E-2
1.190755786E0,2.501737513E-2,-6.713409093E-4,1.855808683E-2
1.192757119E0,2.929343283E-2,7.880772464E-3,1.672548987E-2
1.194759585E0,3.601295128E-2,1.093509886E-2,1.550376043E-2
1.196760918E0,3.662381321E-2,1.215682924E-2,1.672548987E-2
1.198762251E0,3.418035433E-2,1.398942433E-2,1.794722117E-2
1.200763651E0,3.906727582E-2,1.643288694E-2,1.733635552E-2
1.202765017E0,4.395419732E-2,1.032423321E-2,1.672548987E-2
1.204766083E0,4.089987278E-2,1.337855961E-2,1.794722117E-2
1.206767416E0,3.784554824E-2,1.460028999E-2,2.222327888E-2
1.208768716E0,4.761938751E-2,1.154596452E-2,2.405587398E-2
1.210770049E0,4.884112254E-2,7.880772464E-3,2.588846907E-2
1.212771415E0,5.006285012E-2,8.491638117E-3,2.588846907E-2
1.214772748E0,4.884112254E-2,9.102502838E-3,2.283414267E-2
1.216774814E0,5.067371204E-2,4.215580877E-3,2.283414267E-2
1.218776180E0,5.739323422E-2,-1.893071458E-3,2.344500646E-2
1.220777346E0,5.739323422E-2,-4.947397858E-3,2.283414267E-2
1.222778679E0,5.800409615E-2,-4.336532671E-3,2.344500646E-2
1.224780045E0,5.861496180E-2,-1.166691538E-2,1.977981813E-2
1.226781378E0,6.166929007E-2,-1.288864575E-2,1.916895062E-2
1.228782744E0,6.899967045E-2,-1.594297215E-2,2.222327888E-2
1.230784110E0,6.716707349E-2,-1.472124178E-2,2.100154757E-2
1.232785443E0,7.022140175E-2,-1.349951047E-2,2.466673777E-2
1.234786776E0,6.228015572E-2,-1.166691538E-2,2.039068192E-2
1.236788142E0,6.777793914E-2,-1.166691538E-2,2.344500646E-2
1.238789475E0,6.899967045E-2,-6.169127766E-3,2.955366112E-2
1.240790841E0,7.205399871E-2,-4.336532671E-3,2.772106603E-2
1.242792174E0,6.166929007E-2,1.161254826E-3,2.772106603E-2
1.244793507E0,6.105842441E-2,4.215580877E-3,2.894279547E-2
1.246794840E0,5.800409615E-2,6.659042090E-3,2.955366112E-2
1.248796206E0,6.533448398E-2,5.437311716E-3,3.382971510E-2
1.250797572E0,5.311717466E-2,1.276769489E-2,3.505145013E-2
1.252798938E0,5.128458142E-2,3.604715923E-3,3.505145013E-2
1.254799138E0,4.884112254E-2,5.437311716E-3,4.299269617E-2
1.256800438E0,3.906727582E-2,5.503895809E-4,4.849048331E-2
1.258801804E0,3.723467886E-2,-3.114801832E-3,4.910134897E-2
1.260803104E0,3.234776109E-2,-8.001724258E-3,4.849048331E-2
1.262804437E0,3.051516227E-2,-3.725667251E-3,5.337740481E-2
1.264806037E0,2.318478003E-2,-4.947397858E-3,5.459913611E-2
1.266807370E0,1.707612723E-2,-7.390858606E-3,5.582086742E-2
1.268808703E0,6.691417657E-3,-1.282206154E-3,5.398827046E-2
1.270810103E0,4.247956909E-3,-6.713409093E-4,6.070778519E-2
1.272811436E0,1.804495929E-3,9.713368490E-3,6.131865457E-2
1.274812769E0,-1.102367416E-2,1.215682924E-2,6.559471041E-2
1.276813435E0,-1.468886528E-2,2.315240353E-2,6.620557606E-2
1.278814768E0,-1.224540453E-2,2.193067409E-2,7.048162818E-2
1.280816101E0,-3.057136200E-2,3.109365329E-2,7.353595644E-2
1.282816734E0,-2.934963256E-2,3.536970913E-2,7.597941905E-2
1.284818067E0,-3.240395710E-2,4.331095517E-2,7.659028471E-2
1.286819367E0,-3.484741971E-2,3.903489932E-2,7.842288166E-2
1.288820733E0,-3.729087859E-2,4.025663063E-2,7.536855340E-2
1.290822033E0,-3.790174425E-2,3.353711218E-2,7.781200856E-2
1.292823333E0,-4.339953139E-2,2.559586614E-2,7.659028471E-2
1.294824699E0,-4.034520686E-2,2.498499863E-2,7.170335948E-2
1.296826032E0,-3.606914729E-2,2.131980658E-2,7.292509824E-2
1.298827365E0,-3.240395710E-2,1.704375073E-2,6.681643426E-2
1.300828731E0,-4.034520686E-2,1.948721334E-2,6.070778519E-2
1.302830064E0,-3.118222766E-2,1.337855961E-2,5.765346065E-2
1.304831397E0,-2.690616995E-2,1.521115564E-2,5.032307655E-2
1.306832730E0,-2.263011411E-2,2.070894279E-2,4.971221462E-2
1.308834030E0,-2.568444051E-2,2.926105633E-2,4.910134897E-2
1.310835363E0,-1.102367416E-2,2.865019068E-2,4.849048331E-2
1.312836696E0,-1.774319261E-2,2.559586614E-2,5.093394592E-2
1.314838029E0,-2.446270920E-2,3.414798155E-2,5.276653916E-2
1.316843095E0,-1.835405640E-2,3.292624652E-2,6.070778519E-2
1.318844428E0,-2.385184541E-2,3.048278578E-2,6.070778519E-2
1.320845761E0,-1.835405640E-2,3.475884348E-2,6.376211345E-2
1.322847094E0,-2.201924846E-2,3.231538460E-2,6.131865457E-2
1.324848427E0,-2.201924846E-2,3.109365329E-2,6.681643426E-2
1.326849760E0,-2.629530616E-2,2.681759372E-2,6.559471041E-2
1.328851160E0,-1.835405640E-2,2.620672993E-2,6.559471041E-2
1.330852493E0,-2.201924846E-2,2.559586614E-2,6.925990433E-2
1.332853826E0,-1.713232696E-2,3.170451894E-2,7.109250128E-2
1.334855192E0,-2.996049635E-2,2.865019068E-2,6.987076253E-2
1.336856525E0,-2.568444051E-2,3.414798155E-2,6.925990433E-2
1.338857858E0,-1.468886528E-2,2.987192199E-2,7.475768775E-2
1.340859224E0,-1.957578771E-2,3.292624652E-2,7.475768775E-2
1.342860590E0,-2.140838467E-2,3.353711218E-2,7.903374732E-2
1.344861890E0,-2.079751715E-2,2.926105633E-2,7.720115036E-2
1.346863290E0,-1.957578771E-2,2.926105633E-2,7.781200856E-2
1.348864523E0,-1.591059566E-2,2.437413484E-2,7.903374732E-2
1.350865889E0,-2.385184541E-2,2.193067409E-2,7.353595644E-2
1.352867255E0,-2.324097790E-2,1.826548204E-2,7.964460552E-2
1.354868788E0,-2.629530616E-2,5.437311716E-3,8.514239639E-2
1.356870121E0,-2.934963256E-2,2.993850503E-3,9.430537373E-2
1.358871487E0,-3.606914729E-2,-4.947397858E-3,9.491624683E-2
1.360872820E0,-2.751703560E-2,-5.558263045E-3,9.430537373E-2
1.362874153E0,-2.812790126E-2,-1.227778010E-2,9.430537373E-2
1.364875486E0,-2.690616995E-2,-1.899729855E-2,9.430537373E-2
1.366876852E0,-2.629530616E-2,-2.388422005E-2,1.034683511E-1
1.368878218E0,-1.591059566E-2,-2.938200720E-2,1.077444181E-1
1.370879584E0,-2.934963256E-2,-2.632768080E-2,1.162965223E-1
1.372880884E0,-2.385184541E-2,-2.999287285E-2,1.187399849E-1
1.374882617E0,-1.835405640E-2,-3.121460415E-2,1.266812384E-1
1.376880283E0,-1.835405640E-2,-2.388422005E-2,1.358442008E-1
1.378881616E0,-1.285627019E-2,-2.021902800E-2,1.382876784E-1
1.380882982E0,-1.652146131E-2,-2.021902800E-2,1.419528723E-1
1.382884315E0,-1.285627019E-2,-8.612588979E-3,1.553919017E-1
1.384885681E0,-9.191078134E-3,-1.893071458E-3,1.615005434E-1
1.386887047E0,-9.801943786E-3,-6.047565694E-5,1.651657373E-1
1.388888380E0,-5.525887012E-3,1.772120129E-3,1.724961251E-1
1.390889680E0,-4.915021826E-3,-6.713409093E-4,1.828808486E-1
1.392891046E0,-6.136752199E-3,-1.282206154E-3,1.841025651E-1
1.394892346E0,-1.163453981E-2,-6.047565694E-5,1.828808486E-1
1.396893646E0,-1.041280944E-2,-6.047565694E-5,1.828808486E-1
1.398895012E0,-1.591059566E-2,6.659042090E-3,1.822699755E-1
1.400896312E0,-5.525887012E-3,5.503895809E-4,1.810482442E-1
1.402897612E0,-1.652146131E-2,9.713368490E-3,1.724961251E-1
1.404899012E0,-1.468886528E-2,4.826446529E-3,1.731069982E-1
1.406900345E0,-2.507357486E-2,3.604715923E-3,1.657766104E-1
1.408901778E0,-2.324097790E-2,4.215580877E-3,1.615005434E-1
1.410903144E0,-2.385184541E-2,4.826446529E-3,1.584462225E-1
1.412904510E0,-3.423655406E-2,-1.893071458E-3,1.584462225E-1
1.414905643E0,-4.278866574E-2,4.215580877E-3,1.615005434E-1
1.416906976E0,-3.912347555E-2,5.503895809E-4,1.602788270E-1
1.418908309E0,-4.828645289E-2,1.161254826E-3,1.651657373E-1
1.420909609E0,-4.462126270E-2,-6.713409093E-4,1.694418043E-1
1.422910975E0,-4.156693816E-2,-1.282206154E-3,1.749395877E-1
1.424912341E0,-4.217780381E-2,1.772120129E-3,1.804373711E-1
1.426913674E0,-4.828645289E-2,-9.834319353E-3,1.889894903E-1
1.428915040E0,-4.584299400E-2,-2.571681514E-2,1.981524676E-1
1.430916373E0,-5.195164308E-2,-2.877114341E-2,2.005959302E-1
1.432917739E0,-3.851260990E-2,-4.709709808E-2,2.091480345E-1
1.434918739E0,-3.240395710E-2,-7.397517562E-2,2.195327431E-1
1.436920072E0,-3.668001667E-2,-8.435987681E-2,2.250305265E-1
1.438921372E0,-2.812790126E-2,-1.094053537E-1,2.360261083E-1
1.440922705E0,-2.018665336E-2,-1.277313083E-1,2.433564961E-1
1.442930005E0,-2.201924846E-2,-1.381160319E-1,2.476325482E-1
1.444931338E0,-1.407799963E-2,-1.527767926E-1,2.519086003E-1
1.446932438E0,-1.163453981E-2,-1.588854343E-1,2.525194585E-1
1.448933804E0,-7.358483039E-3,-1.594963074E-1,2.531303465E-1
1.450935170E0,-1.249830239E-3,-1.570528448E-1,2.470216900E-1
1.452936503E0,3.637091722E-3,-1.466681361E-1,2.409130335E-1
1.454937869E0,1.193630742E-3,-1.344508380E-1,2.348043770E-1
1.456939235E0,4.247956909E-3,-1.252878457E-1,2.299174666E-1
1.458940568E0,6.080552470E-3,-1.069618911E-1,2.305283248E-1
1.460941934E0,-7.358483039E-3,-9.718804806E-2,2.293065935E-1
1.462943334E0,3.026226535E-3,-8.680333942E-2,2.335826606E-1
1.464944634E0,4.858822562E-3,-7.947295159E-2,2.360261083E-1
1.466945967E0,-4.304156173E-3,-7.214257866E-2,2.390804440E-1
1.468947300E0,4.858822562E-3,-7.336430252E-2,2.476325482E-1
1.470948600E0,1.193630742E-3,-6.359045953E-2,2.494651526E-1
1.472949900E0,7.913148031E-3,-6.236873195E-2,2.543520629E-1
1.474951266E0,8.524013683E-3,-5.931440368E-2,2.574064136E-1
1.476952632E0,1.096747536E-2,-5.381661654E-2,2.610715926E-1
1.478953965E0,1.157833915E-2,-4.648623243E-2,2.537412047E-1
1.480956065E0,1.218920480E-2,-4.709709808E-2,2.537412047E-1
1.482957398E0,1.524353120E-2,-3.854498640E-2,2.574064136E-1
1.484958731E0,2.318478003E-2,-2.571681514E-2,2.500760257E-1
1.486960764E0,2.623910457E-2,-3.060373850E-2,2.500760257E-1
1.488962097E0,2.929343283E-2,-2.510595135E-2,2.464108318E-1
1.490963430E0,2.684997208E-2,-2.999287285E-2,2.421347648E-1
1.492964796E0,3.295862302E-2,-3.610152379E-2,2.439673543E-1
1.494966129E0,3.723467886E-2,-4.587537050E-2,2.451890856E-1
1.496967462E0,3.356948867E-2,-6.359045953E-2,2.427456379E-1
1.498969562E0,3.540208563E-2,-7.519689947E-2,2.445782274E-1
1.500970928E0,3.540208563E-2,-1.002423763E-1,2.390804440E-1
1.502966328E0,2.562824078E-2,-1.326182336E-1,2.372478545E-1
1.504967694E0,2.135218494E-2,-1.460572630E-1,2.329717875E-1
1.506969294E0,2.257391438E-2,-1.643832177E-1,2.274740040E-1
1.508970560E0,1.524353120E-2,-1.912612915E-1,2.115915120E-1
1.510971926E0,9.745744057E-3,-2.077546567E-1,2.097589076E-1
1.512973226E0,-1.041280944E-2,-2.175285071E-1,1.932655424E-1
1.514974559E0,-1.835405640E-2,-2.346327305E-1,1.920438260E-1
1.516975925E0,-3.484741971E-2,-2.572347522E-1,1.779939085E-1
1.518977225E0,-4.889731854E-2,-2.535695434E-1,1.779939085E-1
1.520978558E0,-6.111462414E-2,-2.602890730E-1,1.578353643E-1
1.522979891E0,-8.860356361E-2,-2.688411772E-1,1.443963349E-1
1.524981257E0,-9.410134703E-2,-2.657868564E-1,1.352333575E-1
1.526982590E0,-1.069295183E-1,-2.725063860E-1,1.205725819E-1
1.528983956E0,-1.344184577E-1,-2.761715651E-1,1.053009480E-1
1.530985289E0,-1.448031664E-1,-2.877780199E-1,9.552710503E-2
1.532986689E0,-1.704595089E-1,-2.798367739E-1,8.025547862E-2
1.534987989E0,-1.906180531E-1,-2.908323407E-1,6.192952022E-2
1.536989322E0,-1.997810304E-1,-2.969409823E-1,5.459913611E-2
1.538990688E0,-2.205504626E-1,-3.054931164E-1,3.627317771E-2
1.540991321E0,-2.382655442E-1,-3.146560788E-1,1.794722117E-2
1.542992654E0,-2.443741858E-1,-3.183212578E-1,8.784242906E-3
1.544993987E0,-2.602566779E-1,-3.305385709E-1,-1.137431059E-2
1.546994653E0,-2.730848789E-1,-3.311494589E-1,-2.970026806E-2
1.548995986E0,-2.834695876E-1,-3.348146379E-1,-4.191757366E-2
1.550997352E0,-2.822478414E-1,-3.342037797E-1,-5.474574119E-2
1.552998685E0,-2.895782292E-1,-3.335928917E-1,-7.001737505E-2
1.555000018E0,-2.987412214E-1,-3.311494589E-1,-8.101294935E-2
1.557004184E0,-2.987412214E-1,-3.232081831E-1,-8.651073277E-2
1.559005284E0,-3.085150421E-1,-3.140451908E-1,-9.261938184E-2
1.561006617E0,-3.140128553E-1,-3.061039746E-1,-1.023932323E-1
1.563007950E0,-3.109585047E-1,-3.079365492E-1,-1.023932323E-1
1.565009283E0,-3.121802509E-1,-2.951084077E-1,-1.091127470E-1
1.567010616E0,-3.109585047E-1,-2.951084077E-1,-1.139996722E-1
1.569012016E0,-3.188997507E-1,-2.896105945E-1,-1.146105379E-1
1.571013349E0,-3.109585047E-1,-2.749498188E-1,-1.213300526E-1
1.573014682E0,-3.091259301E-1,-2.663977444E-1,-1.280495822E-1
1.575016048E0,-3.079041839E-1,-2.596781850E-1,-1.298821718E-1
1.577017348E0,-3.079041839E-1,-2.541804314E-1,-1.311039031E-1
1.579020148E0,-2.987412214E-1,-2.602890730E-1,-1.390451491E-1
1.581021481E0,-2.944651544E-1,-2.584564686E-1,-1.341582239E-1
1.583022814E0,-2.889673412E-1,-2.486826330E-1,-1.427103430E-1
1.585024147E0,-2.785826325E-1,-2.541804314E-1,-1.427103430E-1
1.587025513E0,-2.749174535E-1,-2.474609017E-1,-1.439320743E-1
1.589026846E0,-2.620892823E-1,-2.437957227E-1,-1.408777535E-1
1.591028212E0,-2.572023571E-1,-2.529586852E-1,-1.378234029E-1
1.593029545E0,-2.608675659E-1,-2.456283122E-1,-1.359908134E-1
1.595030911E0,-2.510937154E-1,-2.511261106E-1,-1.201083213E-1
1.597032244E0,-2.462067902E-1,-2.590673566E-1,-1.097236201E-1
1.599033577E0,-2.474285215E-1,-2.651759982E-1,-9.872804582E-2
1.601034910E0,-2.455959320E-1,-2.767824531E-1,-9.445197880E-2
1.603036276E0,-2.455959320E-1,-2.889997363E-1,-8.101294935E-2
1.605037642E0,-2.517045736E-1,-3.079365492E-1,-7.307170331E-2
1.607038942E0,-2.547589242E-1,-3.146560788E-1,-6.818477809E-2
1.609040308E0,-2.590349615E-1,-3.293168247E-1,-5.841093510E-2
1.611041641E0,-2.639218867E-1,-3.427558839E-1,-4.802622646E-2
1.613043574E0,-2.712522447E-1,-3.476427794E-1,-4.680449516E-2
1.615044907E0,-2.706414163E-1,-3.623035550E-1,-4.191757366E-2
1.617043440E0,-2.804152668E-1,-3.739100099E-1,-3.275459260E-2
1.619044306E0,-2.767500579E-1,-3.855164349E-1,-3.092199937E-2
1.621045672E0,-2.889673412E-1,-3.910142183E-1,-2.664594352E-2
1.623047005E0,-2.944651544E-1,-4.050641358E-1,-1.931555942E-2
1.625048338E0,-2.999629080E-1,-4.130053818E-1,-1.809382811E-2
1.627049704E0,-2.944651544E-1,-4.313313365E-1,-9.541714564E-3
1.629051004E0,-2.895782292E-1,-4.508790374E-1,8.429940208E-4
1.631052370E0,-2.962977290E-1,-4.588202834E-1,-2.211332088E-3
1.633053770E0,-2.834695876E-1,-4.795897007E-1,1.453859382E-3
1.635055103E0,-2.767500579E-1,-5.028026104E-1,1.367116440E-2
1.637056436E0,-2.681979239E-1,-5.241828561E-1,1.244943310E-2
1.639056369E0,-2.553697526E-1,-5.302914977E-1,2.466673777E-2
1.641057735E0,-2.474285215E-1,-5.467848778E-1,3.016452678E-2
1.643059068E0,-2.358220816E-1,-5.620565414E-1,3.444058076E-2
1.645060401E0,-2.254373729E-1,-5.669434071E-1,4.116009921E-2
1.647061734E0,-2.101657391E-1,-5.883237123E-1,4.910134897E-2
1.649063067E0,-1.942832470E-1,-6.109257340E-1,5.765346065E-2
1.651064433E0,-1.912289262E-1,-6.164235473E-1,6.437297910E-2
1.653065733E0,-1.814550757E-1,-6.097039580E-1,7.048162818E-2
1.655067066E0,-1.747355610E-1,-6.097039580E-1,7.597941905E-2
1.657068432E0,-1.674051881E-1,-6.084822416E-1,7.781200856E-2
1.659069765E0,-1.637399942E-1,-5.840476751E-1,7.964460552E-2
1.661071098E0,-1.515226811E-1,-5.577804446E-1,8.330979943E-2
1.663072431E0,-1.551878601E-1,-5.333458185E-1,8.514239639E-2
1.665073731E0,-1.466357559E-1,-4.985265136E-1,7.964460552E-2
1.667075097E0,-1.368619055E-1,-4.521007836E-1,8.025547862E-2
1.669076430E0,-1.368619055E-1,-4.313313365E-1,7.781200856E-2
1.671077763E0,-1.301423907E-1,-3.849055767E-1,7.903374732E-2
1.673078496E0,-1.252554804E-1,-3.470319211E-1,7.781200856E-2
1.675079862E0,-1.191468164E-1,-3.213755786E-1,8.086634427E-2
1.677081162E0,-1.032643244E-1,-2.932757735E-1,8.330979943E-2
1.679082528E0,-1.020425931E-1,-2.517369390E-1,8.392067254E-2
1.681083861E0,-8.493836969E-2,-2.285240740E-1,9.002932161E-2
1.683085227E0,-7.516452670E-2,-2.199719697E-1,8.819672465E-2
1.685086593E0,-6.477981806E-2,-1.937047541E-1,9.674884379E-2
1.687087893E0,-4.095606878E-2,-1.845417768E-1,1.022466272E-1
1.689089259E0,-3.851260990E-2,-1.692701429E-1,1.022466272E-1
1.691090592E0,-2.385184541E-2,-1.582745612E-1,1.059118211E-1
1.693091892E0,-1.346713584E-2,-1.326182336E-1,1.089661419E-1
1.695093192E0,-1.249830239E-3,-1.320073754E-1,1.156856641E-1
1.697094558E0,5.469687283E-3,-1.124596819E-1,1.175182536E-1
1.699095858E0,6.080552470E-3,-9.840977937E-2,1.230160445E-1
1.701097191E0,5.469687283E-3,-9.046852589E-2,1.217943132E-1
1.703098557E0,1.096747536E-2,-7.153170556E-2,1.303464174E-1
1.705099923E0,6.691417657E-3,-6.053613499E-2,1.291247010E-1
1.707101223E0,1.096747536E-2,-4.831882939E-2,1.376768053E-1
1.709102556E0,2.415361116E-3,-3.060373850E-2,1.315681636E-1
1.711103889E0,-8.580213413E-3,-1.349951047E-2,1.364550740E-1
1.713105255E0,-1.774319261E-2,-6.047565694E-5,1.327898800E-1
1.715106621E0,-3.118222766E-2,1.765461639E-2,1.352333575E-1
1.717107921E0,-4.889731854E-2,3.353711218E-2,1.315681636E-1
1.719109254E0,-5.072991550E-2,4.147835821E-2,1.370659471E-1
1.721110587E0,-7.577539235E-2,5.858258903E-2,1.358442008E-1
1.723111920E0,-8.860356361E-2,6.774556637E-2,1.364550740E-1
1.725113286E0,-1.014317349E-1,7.751940936E-2,1.358442008E-1
1.727114652E0,-1.081512421E-1,8.362805843E-2,1.370659471E-1
1.729115985E0,-1.154816300E-1,8.301720023E-2,1.425637305E-1
1.731117318E0,-1.295315176E-1,8.484978974E-2,1.401202679E-1
1.733118651E0,-1.301423907E-1,8.484978974E-2,1.370659471E-1
1.735119984E0,-1.344184577E-1,8.362805843E-2,1.395093948E-1
1.737121350E0,-1.435814351E-1,8.240633458E-2,1.401202679E-1
1.739122650E0,-1.362510473E-1,7.935200632E-2,1.388985515E-1
1.741128783E0,-1.374727786E-1,7.263249159E-2,1.407311410E-1
1.743130116E0,-1.344184577E-1,6.285864860E-2,1.450071931E-1
1.745131416E0,-1.399162412E-1,5.736085773E-2,1.480615288E-1
1.747132716E0,-1.289206743E-1,4.270009324E-2,1.492832452E-1
1.749134016E0,-1.356401891E-1,3.598057479E-2,1.474506557E-1
1.751135316E0,-1.276989430E-1,2.131980658E-2,1.492832452E-1
1.753136649E0,-1.222011521E-1,1.704375073E-2,1.468397826E-1
1.755138049E0,-1.246446073E-1,1.032423321E-2,1.419528723E-1
1.757139382E0,-1.252554804E-1,9.713368490E-3,1.407311410E-1
1.759140748E0,-1.276989430E-1,3.604715923E-3,1.303464174E-1
1.761147081E0,-1.319749951E-1,1.276769489E-2,1.230160445E-1
1.763148414E0,-1.307532638E-1,1.704375073E-2,1.150747985E-1
1.765149747E0,-1.289206743E-1,2.254153788E-2,1.095770076E-1
1.767152280E0,-1.429705620E-1,2.987192199E-2,9.674884379E-2
1.769153613E0,-1.399162412E-1,4.086749628E-2,8.453153074E-2
1.771155646E0,-1.417488456E-1,4.453268647E-2,8.392067254E-2
1.773157279E0,-1.466357559E-1,4.453268647E-2,7.414682209E-2
1.775158712E0,-1.490792185E-1,5.308480188E-2,6.987076253E-2
1.777160078E0,-1.454140246E-1,5.003047734E-2,6.742730737E-2
1.779161444E0,-1.460248828E-1,5.003047734E-2,6.620557606E-2
1.781162810E0,-1.588530540E-1,5.369566754E-2,6.559471041E-2
1.783164143E0,-1.527444124E-1,4.880874231E-2,6.620557606E-2
1.785165509E0,-1.619073898E-1,4.636528343E-2,6.803817302E-2
1.787166842E0,-1.655725837E-1,3.598057479E-2,7.353595644E-2
1.789168142E0,-1.674051881E-1,2.987192199E-2,7.475768775E-2
1.791169508E0,-1.777898818E-1,2.376326919E-2,7.414682209E-2
1.793170841E0,-1.845093966E-1,1.948721334E-2,7.720115036E-2
1.795171907E0,-1.857311428E-1,2.193067409E-2,7.720115036E-2
1.797173240E0,-1.900071800E-1,2.009807713E-2,7.597941905E-2
1.799174606E0,-2.016136348E-1,2.865019068E-2,7.048162818E-2
1.801171439E0,-2.034462243E-1,3.475884348E-2,7.292509824E-2
1.803172805E0,-2.040570974E-1,3.536970913E-2,6.376211345E-2
1.805174138E0,-2.077222914E-1,4.819788039E-2,6.192952022E-2
1.807175538E0,-2.089440227E-1,5.797172338E-2,6.070778519E-2
1.809176938E0,-2.028353512E-1,5.186307058E-2,6.131865457E-2
1.811178304E0,-2.107766122E-1,6.591296941E-2,5.948605761E-2
1.813179670E0,-2.022245079E-1,7.263249159E-2,6.131865457E-2
1.815181270E0,-1.991701722E-1,7.263249159E-2,6.192952022E-2
1.817182603E0,-2.010027617E-1,6.835643202E-2,6.742730737E-2
1.819183936E0,-1.857311428E-1,7.202161849E-2,6.070778519E-2
1.821180302E0,-1.826768070E-1,7.141076028E-2,6.498385221E-2
1.823181635E0,-1.680160314E-1,6.591296941E-2,7.109250128E-2
1.825183001E0,-1.576313376E-1,7.202161849E-2,7.781200856E-2
1.827183201E0,-1.478574872E-1,6.835643202E-2,7.842288166E-2
1.829184567E0,-1.374727786E-1,7.507595420E-2,8.636412770E-2
1.831184900E0,-1.222011521E-1,8.423893154E-2,8.330979943E-2
1.833185966E0,-1.136490330E-1,9.095844626E-2,8.147720248E-2
1.835187166E0,-1.002099961E-1,1.068409458E-1,7.597941905E-2
1.837188532E0,-7.760798931E-2,1.190582514E-1,7.720115036E-2
1.839189832E0,-6.966674328E-2,1.196691096E-1,6.987076253E-2
1.841191165E0,-5.867116153E-2,1.477689147E-1,6.559471041E-2
1.843192531E0,-3.973434120E-2,1.599862278E-1,5.826432630E-2
1.845193831E0,-2.873876505E-2,1.642622650E-1,5.704259500E-2
1.847195164E0,-2.140838467E-2,1.770904362E-1,4.971221462E-2
1.849196564E0,-7.969347760E-3,1.874751598E-1,3.932750225E-2
1.851197897E0,1.890872233E-2,1.874751598E-1,3.077539057E-2
1.853199230E0,1.890872233E-2,1.966381371E-1,2.405587398E-2
1.855200863E0,3.662381321E-2,1.984707266E-1,1.977981813E-2
1.857202229E0,4.639765993E-2,1.972489953E-1,2.039068192E-2
1.859203562E0,5.006285012E-2,2.015250623E-1,1.733635552E-2
1.861204628E0,6.350188702E-2,2.021359205E-1,2.039068192E-2
1.863205928E0,6.961053610E-2,2.045793831E-1,2.100154757E-2
1.865207294E0,7.327573001E-2,1.972489953E-1,2.405587398E-2
1.867208660E0,8.121698350E-2,1.966381371E-1,2.955366112E-2
1.869209993E0,7.938438654E-2,1.838099658E-1,2.955366112E-2
1.871211326E0,9.037996083E-2,1.783121824E-1,3.382971510E-2
1.873212692E0,9.160168469E-2,1.703709215E-1,3.871664032E-2
1.875213625E0,9.465601295E-2,1.508232355E-1,3.810577467E-2
1.877214991E0,8.793649077E-2,1.520449668E-1,3.321885318E-2
1.879216324E0,9.465601295E-2,1.398276687E-1,2.588846907E-2
1.881217657E0,8.793649077E-2,1.263886392E-1,2.161241136E-2
1.883218990E0,8.427130431E-2,1.349407434E-1,1.672548987E-2
1.885220323E0,8.304957300E-2,1.227234453E-1,1.183856837E-2
1.887221623E0,8.243870735E-2,1.184473783E-1,8.784242906E-3
1.889222956E0,7.755178958E-2,1.141713262E-1,2.064724453E-3
1.891224589E0,7.510831952E-2,1.123387292E-1,3.286454827E-3
1.893225922E0,7.205399871E-2,1.074518040E-1,4.508185200E-3
1.895227322E0,7.083226740E-2,1.007322893E-1,3.897320246E-3
1.897228622E0,6.228015572E-2,9.767796099E-2,5.119050853E-3
1.899229955E0,6.105842441E-2,9.095844626E-2,6.951646414E-3
1.901231321E0,6.533448398E-2,7.385421544E-2,6.951646414E-3
1.903232654E0,5.433890596E-2,7.263249159E-2,2.064724453E-3
1.905234020E0,6.289102137E-2,6.041518226E-2,1.453859382E-3
1.907235653E0,5.250630900E-2,4.636528343E-2,-7.098254282E-3
1.909236986E0,5.494977161E-2,4.270009324E-2,-5.876523443E-3
1.911238319E0,5.372804403E-2,2.926105633E-2,-1.198517624E-2
1.913239719E0,5.678236857E-2,2.009807713E-2,-1.626123302E-2
1.915241052E0,6.105842441E-2,1.948721334E-2,-1.809382811E-2
1.917242385E0,6.350188702E-2,1.643288694E-2,-2.175902016E-2
1.919243751E0,6.472361833E-2,8.491638117E-3,-2.664594352E-2
1.921244751E0,6.838881224E-2,1.582202129E-2,-2.970026806E-2
1.923246117E0,6.838881224E-2,1.032423321E-2,-3.580892086E-2
1.925248150E0,7.388659567E-2,2.009807713E-2,-3.947411478E-2
1.927249450E0,7.144313306E-2,2.315240353E-2,-4.069584236E-2
1.929250750E0,8.243870735E-2,1.887634583E-2,-4.497190192E-2
1.931252083E0,7.694091648E-2,3.720230609E-2,-4.802622646E-2
1.933253416E0,8.610389382E-2,3.781317174E-2,-5.169141665E-2
1.935254882E0,7.571919262E-2,4.697614536E-2,-5.902180076E-2
1.937256248E0,8.732563257E-2,5.613912642E-2,-5.718920380E-2
1.939257581E0,9.404514730E-2,5.674999207E-2,-5.841093510E-2
1.941258914E0,9.282341599E-2,6.346950680E-2,-5.902180076E-2
1.943260280E0,9.893206507E-2,6.163691357E-2,-6.024353206E-2
1.945261613E0,9.709947556E-2,6.346950680E-2,-5.596747249E-2
1.947262979E0,9.648860991E-2,6.285864860E-2,-5.841093510E-2
1.949265045E0,1.013755351E-1,6.652383506E-2,-5.230227858E-2
1.951266411E0,1.019863933E-1,6.224777922E-2,-5.596747249E-2
1.953267744E0,9.954293817E-2,6.408037245E-2,-5.841093510E-2
1.955269077E0,1.025972590E-1,6.530211121E-2,-5.352401361E-2
1.957270443E0,1.050407290E-1,7.813027501E-2,-5.291314796E-2
1.959271843E0,1.080950499E-1,8.057373762E-2,-5.596747249E-2
1.961273143E0,1.080950499E-1,8.362805843E-2,-5.841093510E-2
1.963274443E0,1.142037064E-1,9.095844626E-2,-5.902180076E-2
1.965275809E0,1.251992732E-1,8.423893154E-2,-5.780006945E-2
1.967276875E0,1.209232211E-1,9.645622969E-2,-5.718920380E-2
1.969278175E0,1.227558106E-1,9.034758061E-2,-6.757391244E-2
1.971279508E0,1.251992732E-1,9.645622969E-2,-6.757391244E-2
1.973280808E0,1.270318627E-1,9.462363273E-2,-6.390871853E-2
1.975282108E0,1.288644671E-1,9.340190887E-2,-6.574131548E-2
1.977283474E0,1.288644671E-1,1.001214236E-1,-7.429343462E-2
1.979284807E0,1.349731088E-1,9.462363273E-2,-7.062824070E-2
1.981286473E0,1.276427358E-1,9.156931192E-2,-7.246083766E-2
1.983287839E0,1.368057132E-1,9.340190887E-2,-7.429343462E-2
1.985288505E0,1.361948550E-1,9.156931192E-2,-7.612603158E-2
1.987289871E0,1.331405193E-1,8.912584931E-2,-8.467813581E-2
1.989291271E0,1.386383027E-1,8.179546148E-2,-8.589987457E-2
1.991292637E0,1.398600489E-1,8.179546148E-2,-8.345641196E-2
1.993293970E0,1.349731088E-1,8.668238670E-2,-8.956506103E-2
1.995295336E0,1.221449524E-1,8.790411800E-2,-9.323025495E-2
1.997296669E0,1.325296611E-1,8.179546148E-2,-9.261938184E-2
1.999298002E0,1.258101463E-1,8.607152849E-2,-9.261938184E-2
2.001299335E0,1.209232211E-1,8.484978974E-2,-9.078679234E-2
2.003300668E0,1.129819751E-1,8.423893154E-2,-9.261938184E-2
2.005302001E0,1.044298559E-1,7.751940936E-2,-9.078679234E-2
2.007303367E0,9.099081904E-2,7.263249159E-2,-9.323025495E-2
2.009304000E0,8.976908773E-2,7.690854371E-2,-9.384112060E-2
2.011305333E0,7.449746132E-2,6.591296941E-2,-9.933890402E-2
2.013306699E0,6.961053610E-2,6.652383506E-2,-9.933890402E-2
2.015308032E0,5.983669311E-2,5.552826449E-2,-9.750630707E-2
2.017309365E0,5.189544708E-2,4.758701473E-2,-9.750630707E-2
2.019310698E0,4.212160036E-2,3.109365329E-2,-9.872804582E-2
2.021312031E0,3.479121625E-2,2.498499863E-2,-1.072801501E-1
2.023313397E0,4.028900713E-2,2.437413484E-2,-1.042258292E-1
2.025314730E0,2.074131742E-2,1.948721334E-2,-1.085018814E-1
2.027316063E0,1.951958798E-2,1.154596452E-2,-1.115562171E-1
2.029317129E0,6.691417657E-3,1.826548204E-2,-1.121670753E-1
2.031318495E0,3.026226535E-3,2.009807713E-2,-1.085018814E-1
2.033320561E0,-1.860695425E-3,1.276769489E-2,-1.115562171E-1
2.035321961E0,-2.809980106E-5,1.215682924E-2,-1.091127470E-1
2.037323294E0,1.804495929E-3,2.382985316E-3,-1.091127470E-1
2.039324627E0,-1.102367416E-2,1.161254826E-3,-1.115562171E-1
2.041325993E0,-1.041280944E-2,-4.336532671E-3,-1.127779409E-1
2.043327326E0,-3.082426032E-3,-1.288864575E-2,-1.158322692E-1
2.045328659E0,-6.747617852E-3,-3.060373850E-2,-1.152214035E-1
2.047329959E0,1.193630742E-3,-4.037758335E-2,-1.146105379E-1
2.049331292E0,4.247956909E-3,-5.503834784E-2,-1.188865975E-1
2.051332625E0,1.035660971E-2,-6.297959387E-2,-1.237735152E-1
2.053333991E0,1.096747536E-2,-6.542305648E-2,-1.243843809E-1
2.055336691E0,1.768699288E-2,-6.542305648E-2,-1.304930300E-1
2.057338024E0,1.951958798E-2,-6.725565344E-2,-1.384342760E-1
2.059339424E0,2.623910457E-2,-7.458603382E-2,-1.420994699E-1
2.061340790E0,2.440650947E-2,-7.641863078E-2,-1.427103430E-1
2.063342123E0,3.295862302E-2,-8.130554855E-2,-1.463755369E-1
2.065343456E0,4.212160036E-2,-8.680333942E-2,-1.506515741E-1
2.067344789E0,4.456506297E-2,-9.230112284E-2,-1.494298577E-1
2.069346122E0,4.089987278E-2,-9.474459291E-2,-1.543167681E-1
2.071347488E0,4.395419732E-2,-9.291199595E-2,-1.579819620E-1
2.073348821E0,4.395419732E-2,-9.596631676E-2,-1.543167681E-1
2.075350154E0,3.784554824E-2,-9.902064502E-2,-1.561493725E-1
2.077351520E0,3.295862302E-2,-9.840977937E-2,-1.555385143E-1
2.079352820E0,3.601295128E-2,-1.057401672E-1,-1.555385143E-1
2.081354186E0,2.868256718E-2,-1.081836224E-1,-1.530950516E-1
2.083356252E0,2.562824078E-2,-1.112379506E-1,-1.457646638E-1
2.085357552E0,2.562824078E-2,-1.118488163E-1,-1.463755369E-1
2.087358885E0,2.318478003E-2,-1.149031445E-1,-1.457646638E-1
2.089360551E0,1.157833915E-2,-1.228443906E-1,-1.402668804E-1
2.091361884E0,1.096747536E-2,-1.197900623E-1,-1.408777535E-1
2.093362517E0,1.463266555E-2,-1.332290918E-1,-1.304930300E-1
2.095363850E0,1.035660971E-2,-1.356725544E-1,-1.323256195E-1
2.097365183E0,-4.304156173E-3,-1.332290918E-1,-1.335473657E-1
2.099366549E0,5.827654386E-4,-1.301747710E-1,-1.323256195E-1
2.101367849E0,-9.801943786E-3,-1.210117936E-1,-1.280495822E-1
2.103369182E0,-1.285627019E-2,-1.136814132E-1,-1.298821718E-1
2.105370548E0,-1.529973093E-2,-1.051292941E-1,-1.256061047E-1
2.107371914E0,-2.446270920E-2,-1.045184359E-1,-1.201083213E-1
2.109373247E0,-2.812790126E-2,-9.963151067E-2,-1.127779409E-1
2.111374580E0,-2.751703560E-2,-9.963151067E-2,-1.127779409E-1
2.113375913E0,-3.240395710E-2,-9.718804806E-2,-1.109453440E-1
2.115375846E0,-3.545828164E-2,-9.779891372E-2,-1.066692919E-1
2.117377212E0,-4.095606878E-2,-9.840977937E-2,-1.066692919E-1
2.119378545E0,-3.545828164E-2,-1.026858389E-1,-1.017823666E-1
2.121379845E0,-4.767559096E-2,-9.779891372E-2,-1.017823666E-1
2.123381211E0,-4.278866574E-2,-9.718804806E-2,-1.030040979E-1
2.125382544E0,-3.851260990E-2,-9.352285415E-2,-9.994976968E-2
2.127383844E0,-3.973434120E-2,-8.680333942E-2,-9.506285191E-2
2.129385210E0,-2.568444051E-2,-9.291199595E-2,-8.956506103E-2
2.131386543E0,-1.835405640E-2,-8.558160812E-2,-8.651073277E-2
2.133387843E0,-3.693291219E-3,-7.275344431E-2,-8.651073277E-2
2.135389176E0,-1.407799963E-2,-6.664478779E-2,-8.528900892E-2
2.137390476E0,3.637091722E-3,-5.809267610E-2,-8.101294935E-2
2.139391842E0,1.707612723E-2,-4.709709808E-2,-8.040208369E-2
2.141393208E0,2.990429662E-2,-5.015142262E-2,-8.040208369E-2
2.143393841E0,3.662381321E-2,-4.954056069E-2,-7.490430027E-2
2.145395207E0,4.761938751E-2,-4.831882939E-2,-7.734775543E-2
2.147396573E0,6.716707349E-2,-5.992526934E-2,-7.734775543E-2
2.149397906E0,7.938438654E-2,-6.053613499E-2,-7.123910636E-2
2.151399239E0,8.488216996E-2,-6.297959387E-2,-7.795862854E-2
2.153400605E0,9.709947556E-2,-6.542305648E-2,-7.612603158E-2
2.155401905E0,1.074841842E-1,-6.969910860E-2,-7.979121804E-2
2.157403238E0,1.123711094E-1,-7.214257866E-2,-7.490430027E-2
2.159404571E0,1.111493781E-1,-6.847738475E-2,-7.123910636E-2
2.161405904E0,1.135928333E-1,-7.214257866E-2,-7.429343462E-2
2.163407237E0,1.203123555E-1,-7.214257866E-2,-6.513045728E-2
2.165408570E0,1.190906242E-1,-7.030998170E-2,-6.268699467E-2
2.167409636E0,1.123711094E-1,-6.481219828E-2,-5.657833815E-2
2.169411002E0,1.001538038E-1,-6.175786629E-2,-4.985882342E-2
2.171412502E0,9.587774426E-2,-6.481219828E-2,-4.252843931E-2
2.173413535E0,9.037996083E-2,-6.175786629E-2,-4.130670801E-2
2.175414901E0,7.510831952E-2,-5.870354176E-2,-3.703065217E-2
2.177416201E0,6.961053610E-2,-5.931440368E-2,-3.092199937E-2
2.179417534E0,5.983669311E-2,-5.809267610E-2,-3.153286502E-2
2.181419000E0,4.823025689E-2,-5.503834784E-2,-2.970026806E-2
2.183420333E0,3.967814147E-2,-6.053613499E-2,-3.031113371E-2
2.185421699E0,3.540208563E-2,-5.626007915E-2,-3.031113371E-2
2.187423099E0,2.929343283E-2,-6.786651909E-2,-2.908940241E-2
2.189424399E0,5.469687283E-3,-6.847738475E-2,-3.580892086E-2
2.191425699E0,7.913148031E-3,-7.458603382E-2,-3.153286502E-2
2.193427099E0,3.026226535E-3,-7.825122774E-2,-3.336545825E-2
2.195428432E0,5.827654386E-4,-8.313814551E-2,-2.847853862E-2
2.197429798E0,-2.018665336E-2,-7.580777258E-2,-3.275459260E-2
2.199431131E0,-1.774319261E-2,-7.825122774E-2,-3.153286502E-2
2.201432464E0,-2.201924846E-2,-7.702949643E-2,-1.992642321E-2
2.203439330E0,-3.118222766E-2,-7.519689947E-2,-2.481334656E-2
2.205440663E0,-2.996049635E-2,-6.969910860E-2,-2.359161526E-2
2.207441996E0,-4.339953139E-2,-7.030998170E-2,-1.992642321E-2
2.209443329E0,-4.339953139E-2,-6.359045953E-2,-1.503950171E-2
2.211444662E0,-4.401039705E-2,-6.297959387E-2,-9.541714564E-3
2.213445995E0,-5.256251246E-2,-6.175786629E-2,-1.381777227E-2
2.215447328E0,-5.500597134E-2,-5.931440368E-2,-1.381777227E-2
2.217448694E0,-5.378424004E-2,-6.236873195E-2,-8.930849843E-3
2.219450027E0,-5.561683699E-2,-6.481219828E-2,-8.930849843E-3
2.221451393E0,-5.989289656E-2,-5.503834784E-2,-7.709119469E-3
2.223452759E0,-6.355808675E-2,-5.076229200E-2,-1.381777227E-2
2.225454059E0,-6.783414632E-2,-5.320575461E-2,-8.319984190E-3
2.227455692E0,-6.416895241E-2,-5.320575461E-2,-1.015258022E-2
2.229457025E0,-6.783414632E-2,-4.465363547E-2,-1.076344587E-2
2.231458225E0,-6.355808675E-2,-5.076229200E-2,-1.137431059E-2
2.233459858E0,-6.600154936E-2,-4.282104224E-2,-1.015258022E-2
2.235461191E0,-6.172548980E-2,-3.671238944E-2,-1.381777227E-2
2.237462524E0,-6.600154936E-2,-3.549066186E-2,-1.259604190E-2
2.239463890E0,-5.989289656E-2,-3.610152379E-2,-1.320690662E-2
2.241465156E0,-6.050375849E-2,-2.938200720E-2,-1.320690662E-2
2.243466489E0,-5.806029961E-2,-2.877114341E-2,-1.565036736E-2
2.245467855E0,-5.072991550E-2,-2.693854645E-2,-1.381777227E-2
2.247469188E0,-4.889731854E-2,-2.205162495E-2,-1.748296432E-2
2.249470554E0,-4.889731854E-2,-2.632768080E-2,-1.748296432E-2
2.251471954E0,-4.706472531E-2,-1.777556725E-2,-1.626123302E-2
2.253473287E0,-4.523212835E-2,-1.411037613E-2,-1.809382811E-2
2.255474653E0,-4.156693816E-2,-2.205162495E-2,-2.114815451E-2
2.257476019E0,-4.095606878E-2,-1.838643290E-2,-1.809382811E-2
2.259477352E0,-4.462126270E-2,-1.411037613E-2,-1.992642321E-2
2.261478685E0,-4.156693816E-2,-9.223454632E-3,-2.175902016E-2
2.263474518E0,-4.034520686E-2,-1.411037613E-2,-2.359161526E-2
2.265475884E0,-3.790174425E-2,-1.533210650E-2,-2.420248091E-2
2.267477217E0,-3.851260990E-2,-1.349951047E-2,-2.908940241E-2
2.269478583E0,-3.668001667E-2,-1.349951047E-2,-2.786767110E-2
2.271479916E0,-3.851260990E-2,-4.947397858E-3,-3.092199937E-2
2.273481249E0,-3.545828164E-2,-1.282206154E-3,-3.458718956E-2
2.275482649E0,-3.484741971E-2,2.993850503E-3,-3.703065217E-2
2.277483982E0,-3.423655406E-2,6.048176903E-3,-3.580892086E-2
2.279485315E0,-3.118222766E-2,8.491638117E-3,-3.580892086E-2
2.281486648E0,-2.690616995E-2,1.215682924E-2,-3.397632763E-2
2.283487981E0,-2.201924846E-2,2.070894279E-2,-3.397632763E-2
2.285489314E0,-2.140838467E-2,2.131980658E-2,-3.580892086E-2
2.287490680E0,-9.191078134E-3,2.559586614E-2,-3.397632763E-2
2.289492013E0,-1.774319261E-2,4.025663063E-2,-3.947411478E-2
2.291493346E0,-6.747617852E-3,3.964576498E-2,-4.130670801E-2
2.293494712E0,-1.102367416E-2,4.208922759E-2,-4.252843931E-2
2.295496078E0,-1.249830239E-3,4.208922759E-2,-4.436103255E-2
2.297497444E0,-6.389650516E-4,4.147835821E-2,-4.558276385E-2
2.299498744E0,-1.860695425E-3,4.086749628E-2,-4.985882342E-2
2.301500077E0,3.637091722E-3,4.208922759E-2,-5.046968907E-2
2.303501410E0,1.463266555E-2,3.720230609E-2,-5.046968907E-2
2.305502743E0,1.890872233E-2,3.903489932E-2,-5.230227858E-2
2.307504043E0,1.524353120E-2,4.697614536E-2,-5.474574119E-2
2.309505409E0,2.623910457E-2,4.453268647E-2,-5.596747249E-2
2.311506742E0,2.868256718E-2,5.003047734E-2,-5.046968907E-2
2.313508075E0,3.356948867E-2,4.636528343E-2,-4.802622646E-2
2.315509741E0,4.517592862E-2,4.758701473E-2,-4.069584236E-2
2.317511074E0,4.028900713E-2,5.186307058E-2,-3.336545825E-2
2.319512440E0,4.395419732E-2,4.819788039E-2,-2.908940241E-2
2.321513806E0,4.395419732E-2,4.941960797E-2,-2.359161526E-2
2.323514839E0,3.173689172E-2,4.758701473E-2,-1.870469563E-2
2.325516139E0,3.967814147E-2,4.575441778E-2,-1.137431059E-2
2.327517505E0,4.212160036E-2,4.392182082E-2,-8.319984190E-3
2.329518805E0,3.784554824E-2,4.208922759E-2,-4.043928348E-3
2.331520138E0,4.212160036E-2,4.697614536E-2,2.064724453E-3
2.333521504E0,3.906727582E-2,4.514355212E-2,5.119050853E-3
2.335522804E0,3.479121625E-2,4.086749628E-2,1.122770272E-2
2.337524137E0,3.601295128E-2,4.331095517E-2,1.489289477E-2
2.339525503E0,4.456506297E-2,4.636528343E-2,1.794722117E-2
2.341526869E0,3.540208563E-2,4.086749628E-2,1.550376043E-2
2.343528169E0,3.418035433E-2,3.781317174E-2,1.977981813E-2
2.345529569E0,3.906727582E-2,4.025663063E-2,2.833192982E-2
2.347530902E0,4.089987278E-2,4.025663063E-2,3.138625622E-2
2.349532235E0,4.028900713E-2,3.170451894E-2,3.566231206E-2
2.351533601E0,3.967814147E-2,3.292624652E-2,4.116009921E-2
2.353534934E0,3.784554824E-2,3.414798155E-2,5.215567350E-2
2.355536234E0,3.967814147E-2,3.292624652E-2,5.582086742E-2
2.357537567E0,2.929343283E-2,3.536970913E-2,5.704259500E-2
2.359539633E0,3.295862302E-2,2.865019068E-2,6.742730737E-2
2.361541666E0,2.135218494E-2,3.048278578E-2,6.620557606E-2
2.363542999E0,2.562824078E-2,2.865019068E-2,7.109250128E-2
2.365544332E0,1.951958798E-2,2.926105633E-2,7.842288166E-2
2.367545698E0,1.402180083E-2,2.742846124E-2,8.330979943E-2
2.369546998E0,1.035660971E-2,2.193067409E-2,8.147720248E-2
2.371548331E0,4.858822562E-3,2.009807713E-2,8.941845596E-2
2.373549664E0,7.913148031E-3,1.398942433E-2,1.028574929E-1
2.375550697E0,-6.747617852E-3,1.826548204E-2,1.016357541E-1
2.377552030E0,-9.801943786E-3,2.131980658E-2,1.077444181E-1
2.379553363E0,-9.801943786E-3,1.215682924E-2,1.187399849E-1
2.381555396E0,-2.140838467E-2,1.337855961E-2,1.199617162E-1
2.383556996E0,-1.529973093E-2,1.093509886E-2,1.266812384E-1
2.385558362E0,-2.324097790E-2,6.659042090E-3,1.382876784E-1
2.387559695E0,-2.568444051E-2,9.713368490E-3,1.456180513E-1
2.389561061E0,-3.057136200E-2,1.704375073E-2,1.431745887E-1
2.391562427E0,-3.179309145E-2,1.154596452E-2,1.511158496E-1
2.393563760E0,-2.934963256E-2,1.032423321E-2,1.596679538E-1
2.395565126E0,-3.668001667E-2,8.491638117E-3,1.633331478E-1
2.397566459E0,-3.545828164E-2,-6.047565694E-5,1.694418043E-1
2.399567792E0,-3.301482275E-2,-8.612588979E-3,1.779939085E-1
2.401569125E0,-3.668001667E-2,-1.411037613E-2,1.798265129E-1
2.403570525E0,-3.790174425E-2,-1.472124178E-2,1.822699755E-1
2.405571858E0,-3.912347555E-2,-2.999287285E-2,1.883786321E-1
2.407573191E0,-4.278866574E-2,-2.693854645E-2,1.889894903E-1
2.409574557E0,-4.095606878E-2,-3.243633360E-2,1.902112216E-1
2.411575857E0,-3.606914729E-2,-3.243633360E-2,1.938764155E-1
2.413577190E0,-4.462126270E-2,-2.571681514E-2,1.938764155E-1
2.415578556E0,-5.134078115E-2,-2.754941210E-2,1.932655424E-1
2.417579922E0,-5.072991550E-2,-1.838643290E-2,1.975415945E-1
2.419580555E0,-3.973434120E-2,-1.594297215E-2,2.030393779E-1
2.421581221E0,-4.339953139E-2,-1.960816421E-2,2.024285346E-1
2.423582554E0,-4.584299400E-2,-8.612588979E-3,2.054828554E-1
2.425583887E0,-4.523212835E-2,-9.834319353E-3,2.018176615E-1
2.427585253E0,-4.767559096E-2,-9.834319353E-3,2.073154449E-1
2.429586619E0,-4.645385593E-2,-1.472124178E-2,2.097589076E-1
2.431587952E0,-4.767559096E-2,-1.716470346E-2,2.115915120E-1
2.433589318E0,-5.011904985E-2,-2.205162495E-2,2.134241015E-1
2.435590651E0,-5.561683699E-2,-2.571681514E-2,2.201436162E-1
2.437591784E0,-5.072991550E-2,-3.426892683E-2,2.293065935E-1
2.439593150E0,-5.378424004E-2,-4.037758335E-2,2.286957204E-1
2.441593783E0,-6.539067626E-2,-4.037758335E-2,2.305283248E-1
2.443595149E0,-6.783414632E-2,-5.442748219E-2,2.384695709E-1
2.445596515E0,-6.539067626E-2,-5.442748219E-2,2.378586978E-1
2.447597848E0,-7.211019844E-2,-5.320575461E-2,2.415238917E-1
2.449599181E0,-8.432750404E-2,-5.198401958E-2,2.433564961E-1
2.451605447E0,-9.532307088E-2,-4.892969504E-2,2.433564961E-1
2.453606780E0,-9.776654094E-2,-3.976671770E-2,2.476325482E-1
2.455608146E0,-1.044860557E-1,-3.426892683E-2,2.494651526E-1
2.457609479E0,-1.124273092E-1,-2.938200720E-2,2.488542795E-1
2.459610812E0,-1.295315176E-1,-2.388422005E-2,2.543520629E-1
2.461612178E0,-1.319749951E-1,-1.899729855E-2,2.567955256E-1
2.463613478E0,-1.460248828E-1,-1.777556725E-2,2.567955256E-1
2.465614811E0,-1.570204645E-1,-1.472124178E-2,2.592389882E-1
2.467617311E0,-1.619073898E-1,-1.472124178E-2,2.622933090E-1
2.469618611E0,-1.649617106E-1,-9.223454632E-3,2.598498464E-1
2.471619944E0,-1.765681654E-1,-1.533210650E-2,2.574064136E-1
2.473621277E0,-1.838985384E-1,-1.533210650E-2,2.647367716E-1
2.475628277E0,-1.930615306E-1,-1.777556725E-2,2.684019804E-1
2.477629577E0,-1.881745905E-1,-1.533210650E-2,2.714563012E-1
2.479630943E0,-1.881745905E-1,-1.960816421E-2,2.714563012E-1
2.481632276E0,-1.991701722E-1,-9.223454632E-3,2.726780474E-1
2.483633609E0,-2.052788287E-1,-3.114801832E-3,2.714563012E-1
2.485634975E0,-2.003919035E-1,-4.336532671E-3,2.714563012E-1
2.487636308E0,-2.058896869E-1,2.382985316E-3,2.696236968E-1
2.489637641E0,-2.022245079E-1,4.215580877E-3,2.702345550E-1
2.491639007E0,-2.010027617E-1,6.048176903E-3,2.647367716E-1
2.493640340E0,-2.010027617E-1,9.713368490E-3,2.616824508E-1
2.495641673E0,-2.003919035E-1,1.215682924E-2,2.592389882E-1
2.497643239E0,-2.016136348E-1,1.521115564E-2,2.537412047E-1
2.499644572E0,-1.906180531E-1,1.704375073E-2,2.537412047E-1
2.501645905E0,-1.961158514E-1,2.009807713E-2,2.464108318E-1
2.503647238E0,-1.808442026E-1,2.254153788E-2,2.421347648E-1
2.505648538E0,-1.832876801E-1,2.254153788E-2,2.390804440E-1
2.507649871E0,-1.900071800E-1,2.437413484E-2,2.311391979E-1
2.509651204E0,-1.851202697E-1,3.048278578E-2,2.335826606E-1
2.511647637E0,-1.875637323E-1,3.109365329E-2,2.286957204E-1
2.513648970E0,-1.747355610E-1,3.109365329E-2,2.305283248E-1
2.515650270E0,-1.735138297E-1,2.926105633E-2,2.305283248E-1
2.517651603E0,-1.680160314E-1,2.193067409E-2,2.256413996E-1
2.519652936E0,-1.637399942E-1,1.460028999E-2,2.280848622E-1
2.521654236E0,-1.594639271E-1,1.460028999E-2,2.262522727E-1
2.523655569E0,-1.551878601E-1,7.880772464E-3,2.238088101E-1
2.525656935E0,-1.539661437E-1,4.215580877E-3,2.219762057E-1
2.527657135E0,-1.570204645E-1,-6.047565694E-5,2.177001536E-1
2.529658468E0,-1.557987332E-1,2.993850503E-3,2.122023553E-1
2.531659868E0,-1.533552706E-1,2.993850503E-3,2.170892954E-1
2.533661201E0,-1.490792185E-1,4.215580877E-3,2.146458328E-1
2.535656867E0,-1.472466290E-1,1.032423321E-2,2.091480345E-1
2.537658267E0,-1.545770168E-1,1.765461639E-2,2.067045718E-1
2.539659567E0,-1.429705620E-1,1.521115564E-2,2.073154449E-1
2.541660900E0,-1.484683603E-1,1.826548204E-2,1.999850571E-1
2.543662266E0,-1.588530540E-1,2.926105633E-2,1.926546842E-1
2.545663599E0,-1.557987332E-1,3.414798155E-2,1.896003634E-1
2.547664932E0,-1.564096063E-1,3.781317174E-2,1.859351695E-1
2.549666298E0,-1.570204645E-1,3.231538460E-2,1.841025651E-1
2.551667631E0,-1.576313376E-1,3.414798155E-2,1.810482442E-1
2.553668964E0,-1.588530540E-1,2.742846124E-2,1.718852669E-1
2.555670330E0,-1.606856585E-1,2.070894279E-2,1.718852669E-1
2.557671630E0,-1.545770168E-1,1.887634583E-2,1.712743938E-1
2.559672963E0,-1.625182480E-1,1.154596452E-2,1.712743938E-1
2.561674396E0,-1.521335393E-1,-1.893071458E-3,1.706635356E-1
2.563675762E0,-1.521335393E-1,-6.779993419E-3,1.657766104E-1
2.565677095E0,-1.576313376E-1,-8.001724258E-3,1.657766104E-1
2.567678461E0,-1.527444124E-1,-5.558263045E-3,1.651657373E-1
2.569679827E0,-1.393053681E-1,-1.472124178E-2,1.584462225E-1
2.571681127E0,-1.490792185E-1,-1.044518501E-2,1.602788270E-1
2.573682493E0,-1.331967115E-1,-8.612588979E-3,1.566136330E-1
2.575683826E0,-1.295315176E-1,-3.725667251E-3,1.517267078E-1
2.577685192E0,-1.289206743E-1,1.161254826E-3,1.517267078E-1
2.579686558E0,-1.325858682E-1,1.161254826E-3,1.413419992E-1
2.581687924E0,-1.209794134E-1,4.215580877E-3,1.327898800E-1
2.583689290E0,-1.240337417E-1,1.772120129E-3,1.321790218E-1
2.585690423E0,-1.167033613E-1,-1.893071458E-3,1.224051714E-1
2.587694156E0,-1.148707643E-1,-1.044518501E-2,1.120204702E-1
2.589695522E0,-1.160924956E-1,-8.001724258E-3,1.095770076E-1
2.591696855E0,-1.148707643E-1,-1.716470346E-2,9.735970199E-2
2.593698821E0,-1.124273092E-1,-1.777556725E-2,9.064017981E-2
2.595700187E0,-1.124273092E-1,-2.266248874E-2,8.758585900E-2
2.597701520E0,-1.105947122E-1,-2.082989365E-2,8.147720248E-2
2.599702886E0,-1.087621152E-1,-2.266248874E-2,7.597941905E-2
2.601704619E0,-1.087621152E-1,-2.449508384E-2,7.353595644E-2
2.603705985E0,-1.112055704E-1,-1.838643290E-2,6.864903122E-2
2.605707285E0,-1.167033613E-1,-1.594297215E-2,6.742730737E-2
2.607708651E0,-1.081512421E-1,-1.655383594E-2,6.192952022E-2
2.609709984E0,-1.105947122E-1,-1.044518501E-2,5.948605761E-2
2.611711284E0,-9.654480964E-2,-1.655383594E-2,6.009692326E-2
2.613712650E0,-9.410134703E-2,-9.834319353E-3,5.826432630E-2
2.615713983E0,-9.226875007E-2,-1.227778010E-2,5.643173307E-2
2.617719383E0,-8.188404143E-2,-9.834319353E-3,5.276653916E-2
2.619720749E0,-7.821884751E-2,-4.336532671E-3,5.093394592E-2
2.621722015E0,-7.394279540E-2,-6.169127766E-3,5.459913611E-2
2.623728048E0,-6.844500452E-2,-9.834319353E-3,5.215567350E-2
2.625729448E0,-6.722327322E-2,-1.893071458E-3,5.032307655E-2
2.627730781E0,-6.111462414E-2,-9.223454632E-3,4.482528940E-2
2.629732114E0,-5.683856457E-2,-1.349951047E-2,4.299269617E-2
2.631733514E0,-5.256251246E-2,-1.472124178E-2,4.177096486E-2
2.633734814E0,-4.950818792E-2,-1.716470346E-2,3.749490902E-2
2.635736180E0,-3.912347555E-2,-2.510595135E-2,3.505145013E-2
2.637737546E0,-3.362568840E-2,-2.388422005E-2,3.199712187E-2
2.639738879E0,-2.934963256E-2,-2.266248874E-2,2.955366112E-2
2.641740212E0,-2.385184541E-2,-3.243633360E-2,2.649933472E-2
2.643741578E0,-1.835405640E-2,-3.671238944E-2,2.039068192E-2
2.645743111E0,-9.801943786E-3,-3.915584832E-2,1.550376043E-2
2.647742044E0,-1.102367416E-2,-3.915584832E-2,1.306029875E-2
2.649743410E0,-6.389650516E-4,-3.365806490E-2,8.173377253E-3
2.651744743E0,3.637091722E-3,-3.121460415E-2,-2.211332088E-3
2.653745476E0,1.804495929E-3,-2.816027589E-2,-4.654793069E-3
2.655746809E0,5.469687283E-3,-2.082989365E-2,-7.098254282E-3
2.657748242E0,1.463266555E-2,-2.144075930E-2,-1.565036736E-2
2.659749575E0,1.280007046E-2,-1.411037613E-2,-2.053728886E-2
2.661750541E0,1.585439593E-2,-5.558263045E-3,-2.847853862E-2
2.663751841E0,2.562824078E-2,-7.390858606E-3,-3.214373067E-2
2.665753241E0,3.479121625E-2,-4.336532671E-3,-3.519805521E-2
2.667754541E0,3.234776109E-2,2.382985316E-3,-4.252843931E-2
2.669755874E0,3.234776109E-2,9.713368490E-3,-4.924795404E-2
2.671757240E0,3.295862302E-2,6.659042090E-3,-4.863709211E-2
2.673758540E0,3.723467886E-2,1.093509886E-2,-5.291314796E-2
2.675759873E0,3.845641017E-2,2.070894279E-2,-5.291314796E-2
2.677757206E0,3.723467886E-2,2.315240353E-2,-5.718920380E-2
2.679758506E0,3.356948867E-2,2.131980658E-2,-6.390871853E-2
2.681759839E0,4.456506297E-2,2.193067409E-2,-6.390871853E-2
2.683756505E0,4.334333539E-2,2.131980658E-2,-5.963266268E-2
2.685757805E0,4.395419732E-2,2.193067409E-2,-5.963266268E-2
2.687759305E0,4.089987278E-2,1.765461639E-2,-5.963266268E-2
2.689760671E0,5.922583118E-2,7.269907277E-3,-5.718920380E-2
2.691761971E0,5.372804403E-2,1.032423321E-2,-5.596747249E-2
2.693763304E0,6.899967045E-2,-1.893071458E-3,-5.657833815E-2
2.695764670E0,7.144313306E-2,-6.779993419E-3,-5.657833815E-2
2.697765970E0,6.777793914E-2,-1.716470346E-2,-5.413487554E-2
2.699767303E0,7.144313306E-2,-2.388422005E-2,-5.596747249E-2
2.701768669E0,8.366043866E-2,-2.938200720E-2,-5.963266268E-2
2.703770002E0,7.938438654E-2,-3.182546794E-2,-5.718920380E-2
2.705771335E0,8.427130431E-2,-4.159931093E-2,-6.207612529E-2
2.707772701E0,7.755178958E-2,-4.098844528E-2,-6.635218114E-2
2.709774001E0,8.427130431E-2,-4.465363547E-2,-6.757391244E-2
2.711775334E0,8.366043866E-2,-4.282104224E-2,-6.757391244E-2
2.713776667E0,7.877351344E-2,-3.854498640E-2,-7.123910636E-2
2.715778033E0,7.571919262E-2,-3.976671770E-2,-7.246083766E-2
2.717779266E0,7.938438654E-2,-3.671238944E-2,-7.490430027E-2
2.719780599E0,7.327573001E-2,-3.182546794E-2,-7.918035239E-2
2.721781932E0,7.449746132E-2,-3.182546794E-2,-8.284554631E-2
2.723783298E0,7.449746132E-2,-3.854498640E-2,-8.223468065E-2
2.725784631E0,6.655621529E-2,-3.671238944E-2,-8.712160587E-2
2.727785997E0,7.083226740E-2,-3.732325882E-2,-8.773246408E-2
2.729787063E0,6.533448398E-2,-4.159931093E-2,-8.895420283E-2
2.731788429E0,6.350188702E-2,-5.381661654E-2,-9.261938184E-2
2.733789795E0,6.777793914E-2,-5.992526934E-2,-9.200852364E-2
2.735791161E0,6.350188702E-2,-6.603392214E-2,-9.445197880E-2
2.737792494E0,5.372804403E-2,-6.847738475E-2,-9.994976968E-2
2.739793827E0,4.884112254E-2,-7.641863078E-2,-1.017823666E-1
2.741795193E0,4.945198447E-2,-7.886209339E-2,-9.933890402E-2
2.743796493E0,4.639765993E-2,-8.435987681E-2,-9.872804582E-2
2.745797859E0,3.540208563E-2,-8.497074246E-2,-1.048366949E-1
2.747799059E0,3.418035433E-2,-8.497074246E-2,-1.030040979E-1
2.749800392E0,3.295862302E-2,-8.497074246E-2,-1.072801501E-1
2.751801725E0,3.540208563E-2,-8.130554855E-2,-1.085018814E-1
2.753803125E0,3.418035433E-2,-8.680333942E-2,-1.109453440E-1
2.755804425E0,3.051516227E-2,-8.069469035E-2,-1.146105379E-1
2.757805791E0,2.501737513E-2,-7.886209339E-2,-1.164431274E-1
2.759807157E0,3.295862302E-2,-7.947295159E-2,-1.182757244E-1
2.761808457E0,3.234776109E-2,-7.702949643E-2,-1.207191944E-1
2.763809790E0,2.929343283E-2,-7.275344431E-2,-1.188865975E-1
2.765811123E0,3.601295128E-2,-7.458603382E-2,-1.207191944E-1
2.767812456E0,3.112602793E-2,-7.214257866E-2,-1.188865975E-1
2.769813789E0,3.601295128E-2,-7.641863078E-2,-1.219409183E-1
2.771815155E0,3.601295128E-2,-7.580777258E-2,-1.249952465E-1
2.773816488E0,4.212160036E-2,-7.458603382E-2,-1.225517914E-1
2.775817821E0,4.395419732E-2,-7.825122774E-2,-1.213300526E-1
2.777819187E0,4.884112254E-2,-8.130554855E-2,-1.231626496E-1
2.779820553E0,5.250630900E-2,-8.435987681E-2,-1.225517914E-1
2.781821853E0,5.739323422E-2,-7.825122774E-2,-1.249952465E-1
2.783823219E0,6.166929007E-2,-8.130554855E-2,-1.219409183E-1
2.785824519E0,6.716707349E-2,-8.313814551E-2,-1.201083213E-1
2.787825852E0,6.716707349E-2,-8.069469035E-2,-1.268278360E-1
2.789827452E0,6.838881224E-2,-8.313814551E-2,-1.243843809E-1
2.791828785E0,6.472361833E-2,-8.130554855E-2,-1.256061047E-1
2.793830118E0,7.022140175E-2,-8.252727985E-2,-1.213300526E-1
2.795831418E0,7.633005828E-2,-8.680333942E-2,-1.207191944E-1
2.797832751E0,6.961053610E-2,-8.008382469E-2,-1.225517914E-1
2.799834117E0,6.777793914E-2,-7.825122774E-2,-1.188865975E-1
2.801835450E0,7.205399871E-2,-7.580777258E-2,-1.170540005E-1
2.803836883E0,7.633005828E-2,-7.764036208E-2,-1.158322692E-1
2.805838249E0,7.327573001E-2,-7.092084736E-2,-1.194974631E-1
2.807840282E0,7.022140175E-2,-6.542305648E-2,-1.176648661E-1
2.809841582E0,6.899967045E-2,-6.542305648E-2,-1.201083213E-1
2.811842982E0,6.594534218E-2,-6.725565344E-2,-1.225517914E-1
2.813844448E0,6.472361833E-2,-6.542305648E-2,-1.194974631E-1
2.815845814E0,6.777793914E-2,-7.030998170E-2,-1.194974631E-1
2.817847147E0,5.861496180E-2,-6.236873195E-2,-1.237735152E-1
2.819848480E0,6.105842441E-2,-6.908825040E-2,-1.194974631E-1
2.821849846E0,5.983669311E-2,-7.458603382E-2,-1.225517914E-1
2.823851212E0,6.105842441E-2,-6.786651909E-2,-1.207191944E-1
2.825852578E0,5.067371204E-2,-6.603392214E-2,-1.243843809E-1
2.827853878E0,5.311717466E-2,-6.847738475E-2,-1.237735152E-1
2.829855278E0,5.678236857E-2,-6.603392214E-2,-1.262169778E-1
2.831856611E0,5.678236857E-2,-6.481219828E-2,-1.280495822E-1
2.833857944E0,5.006285012E-2,-6.542305648E-2,-1.262169778E-1
2.835859277E0,5.128458142E-2,-5.870354176E-2,-1.243843809E-1
2.837860610E0,5.067371204E-2,-5.259488523E-2,-1.268278360E-1
2.839861943E0,4.578679428E-2,-4.587537050E-2,-1.280495822E-1
2.841863309E0,4.761938751E-2,-4.221017659E-2,-1.262169778E-1
2.843864642E0,4.517592862E-2,-3.487979621E-2,-1.207191944E-1
2.845865975E0,3.967814147E-2,-2.693854645E-2,-1.231626496E-1
2.847867341E0,3.356948867E-2,-2.571681514E-2,-1.256061047E-1
2.849868674E0,3.723467886E-2,-1.899729855E-2,-1.231626496E-1
2.851870007E0,3.662381321E-2,-2.693854645E-2,-1.188865975E-1
2.853871373E0,4.151073843E-2,-3.182546794E-2,-1.182757244E-1
2.855872739E0,3.418035433E-2,-2.754941210E-2,-1.133888066E-1
2.857873805E0,2.868256718E-2,-3.854498640E-2,-1.109453440E-1
2.859874905E0,2.868256718E-2,-3.854498640E-2,-1.109453440E-1
2.861875971E0,2.807170153E-2,-4.037758335E-2,-1.109453440E-1
2.863877237E0,2.318478003E-2,-3.732325882E-2,-1.078910232E-1
2.865878570E0,1.768699288E-2,-4.465363547E-2,-1.036149561E-1
2.867879203E0,2.196304873E-2,-4.954056069E-2,-1.054475531E-1
2.869880569E0,1.829785667E-2,-4.954056069E-2,-1.017823666E-1
2.871881869E0,1.218920480E-2,-5.381661654E-2,-1.017823666E-1
2.873883035E0,1.035660971E-2,-5.320575461E-2,-1.017823666E-1
2.875884401E0,6.080552470E-3,-5.259488523E-2,-1.023932323E-1
2.877885534E0,7.302283309E-3,-5.687094480E-2,-1.036149561E-1
2.879886867E0,-2.809980106E-5,-5.381661654E-2,-1.054475531E-1
2.881888200E0,3.637091722E-3,-6.053613499E-2,-1.005606353E-1
2.883889500E0,-1.249830239E-3,-5.503834784E-2,-1.023932323E-1
2.885890800E0,2.415361116E-3,-5.503834784E-2,-1.005606353E-1
2.887892166E0,3.026226535E-3,-5.687094480E-2,-1.023932323E-1
2.889893232E0,1.804495929E-3,-5.564921349E-2,-1.023932323E-1
2.891894565E0,8.524013683E-3,-5.626007915E-2,-1.005606353E-1
2.893895965E0,-3.693291219E-3,-5.870354176E-2,-1.017823666E-1
2.895897331E0,4.858822562E-3,-6.114700064E-2,-1.011715010E-1
2.897898664E0,-3.082426032E-3,-5.931440368E-2,-1.005606353E-1
2.899900030E0,-5.525887012E-3,-5.870354176E-2,-9.872804582E-2
2.901901396E0,-6.747617852E-3,-5.809267610E-2,-1.011715010E-1
2.903902729E0,-4.304156173E-3,-5.992526934E-2,-9.872804582E-2
2.905904129E0,-9.801943786E-3,-6.297959387E-2,-9.628457576E-2
2.907905429E0,-1.713232696E-2,-6.053613499E-2,-9.261938184E-2
2.909906762E0,-1.529973093E-2,-6.908825040E-2,-9.323025495E-2
2.911910595E0,-2.385184541E-2,-6.359045953E-2,-9.323025495E-2
2.913912361E0,-2.018665336E-2,-5.870354176E-2,-9.078679234E-2
2.915913427E0,-2.324097790E-2,-5.931440368E-2,-9.017592669E-2
2.917915060E0,-1.896492206E-2,-6.297959387E-2,-9.261938184E-2
2.919916660E0,-2.079751715E-2,-6.114700064E-2,-9.139765799E-2
2.921918493E0,-2.690616995E-2,-5.687094480E-2,-8.528900892E-2
2.923919859E0,-3.606914729E-2,-5.503834784E-2,-8.589987457E-2
2.925921159E0,-2.812790126E-2,-5.442748219E-2,-8.345641196E-2
2.927922492E0,-3.729087859E-2,-5.626007915E-2,-7.856948674E-2
2.929923825E0,-3.729087859E-2,-5.442748219E-2,-7.734775543E-2
2.931925191E0,-2.996049635E-2,-5.564921349E-2,-7.184996456E-2
2.933926557E0,-3.912347555E-2,-5.564921349E-2,-7.123910636E-2
2.935927890E0,-3.362568840E-2,-5.626007915E-2,-6.696305424E-2
2.937929456E0,-3.423655406E-2,-5.503834784E-2,-6.818477809E-2
2.939930789E0,-4.156693816E-2,-5.320575461E-2,-6.268699467E-2
2.941932122E0,-3.423655406E-2,-4.648623243E-2,-6.329785287E-2
2.943933455E0,-2.629530616E-2,-5.320575461E-2,-6.085439771E-2
2.945934821E0,-3.118222766E-2,-5.015142262E-2,-5.291314796E-2
2.947936154E0,-2.385184541E-2,-4.404277354E-2,-5.413487554E-2
2.949937720E0,-1.713232696E-2,-4.954056069E-2,-5.352401361E-2
2.951939053E0,-2.568444051E-2,-4.282104224E-2,-4.863709211E-2
2.953940353E0,-2.079751715E-2,-4.404277354E-2,-4.680449516E-2
2.955941653E0,-2.507357486E-2,-3.976671770E-2,-4.924795404E-2
2.957942986E0,-2.568444051E-2,-3.671238944E-2,-4.680449516E-2
2.959944286E0,-2.018665336E-2,-3.671238944E-2,-4.375016689E-2
2.961945586E0,-2.018665336E-2,-3.487979621E-2,-4.252843931E-2
2.963946919E0,-2.079751715E-2,-3.854498640E-2,-3.825237975E-2
2.965948219E0,-1.713232696E-2,-3.854498640E-2,-4.069584236E-2
2.967949585E0,-2.140838467E-2,-3.915584832E-2,-3.825237975E-2
2.969956685E0,-2.507357486E-2,-4.037758335E-2,-3.825237975E-2
2.971961351E0,-2.385184541E-2,-4.098844528E-2,-4.008497670E-2
2.973962251E0,-3.423655406E-2,-3.426892683E-2,-3.947411478E-2
2.975963884E0,-2.934963256E-2,-3.854498640E-2,-3.519805521E-2
2.977965217E0,-3.545828164E-2,-3.365806490E-2,-3.458718956E-2
2.979966550E0,-4.034520686E-2,-2.938200720E-2,-3.458718956E-2
2.981967883E0,-3.790174425E-2,-2.693854645E-2,-3.580892086E-2
2.983973049E0,-4.095606878E-2,-1.716470346E-2,-3.764151782E-2
2.985974415E0,-3.973434120E-2,-2.021902800E-2,-3.214373067E-2
2.987975748E0,-4.889731854E-2,-1.411037613E-2,-3.458718956E-2
2.989977114E0,-4.950818792E-2,-1.288864575E-2,-3.214373067E-2
2.991979380E0,-4.889731854E-2,-1.533210650E-2,-3.458718956E-2
2.993980713E0,-4.523212835E-2,-2.144075930E-2,-3.641978279E-2
2.995982046E0,-4.645385593E-2,-1.960816421E-2,-3.153286502E-2
2.997983379E0,-4.584299400E-2,-3.060373850E-2,-2.725680731E-2
2.999984579E0,-4.767559096E-2,-3.243633360E-2,-3.031113371E-2
3.001985912E0,-4.889731854E-2,-3.549066186E-2,-2.908940241E-2
3.003987078E0,-5.317337811E-2,-4.282104224E-2,-2.725680731E-2
3.005988444E0,-4.706472531E-2,-4.037758335E-2,-2.725680731E-2
3.007989810E0,-4.889731854E-2,-4.159931093E-2,-2.847853862E-2
3.009991510E0,-5.011904985E-2,-4.648623243E-2,-3.153286502E-2
3.011992876E0,-5.378424004E-2,-4.221017659E-2,-3.092199937E-2
3.013994242E0,-5.500597134E-2,-4.037758335E-2,-2.725680731E-2
3.015995642E0,-4.767559096E-2,-3.671238944E-2,-3.031113371E-2
3.017997008E0,-4.156693816E-2,-3.243633360E-2,-2.847853862E-2
3.019998374E0,-4.156693816E-2,-3.243633360E-2,-2.786767110E-2
3.021999774E0,-3.484741971E-2,-2.571681514E-2,-2.908940241E-2
3.024001140E0,-2.873876505E-2,-2.266248874E-2,-2.970026806E-2
3.026002206E0,-2.446270920E-2,-2.449508384E-2,-2.664594352E-2
3.028003539E0,-2.812790126E-2,-2.082989365E-2,-2.481334656E-2
3.029999172E0,-1.713232696E-2,-1.655383594E-2,-2.847853862E-2
3.031994405E0,-8.580213413E-3,-1.472124178E-2,-2.542421222E-2
3.033995771E0,-9.191078134E-3,-1.288864575E-2,-3.214373067E-2
3.035997104E0,5.827654386E-4,-1.716470346E-2,-2.970026806E-2
3.037998704E0,-9.801943786E-3,-1.044518501E-2,-2.603507601E-2
3.040000037E0,-7.358483039E-3,-1.472124178E-2,-3.336545825E-2
3.042001137E0,-6.747617852E-3,-1.838643290E-2,-2.847853862E-2
3.043998637E0,3.026226535E-3,-3.060373850E-2,-2.908940241E-2
3.046000003E0,-6.389650516E-4,-3.610152379E-2,-2.664594352E-2
3.048001369E0,-4.304156173E-3,-4.221017659E-2,-1.870469563E-2
3.050008902E0,-8.580213413E-3,-5.137315765E-2,-1.626123302E-2
3.052009302E0,-8.580213413E-3,-4.892969504E-2,-1.015258022E-2
3.054010668E0,-1.713232696E-2,-4.465363547E-2,-9.541714564E-3
3.056011968E0,-1.896492206E-2,-4.526450485E-2,-7.098254282E-3
3.058013334E0,-2.018665336E-2,-4.037758335E-2,-7.709119469E-3
3.060014834E0,-2.751703560E-2,-3.487979621E-2,-7.098254282E-3
3.062016200E0,-2.507357486E-2,-2.999287285E-2,-4.043928348E-3
3.064017733E0,-3.668001667E-2,-2.266248874E-2,-5.265658256E-3
3.066018799E0,-3.484741971E-2,-2.388422005E-2,-7.098254282E-3
3.068020132E0,-4.095606878E-2,-2.082989365E-2,-7.709119469E-3
3.070021165E0,-3.668001667E-2,-2.571681514E-2,-7.098254282E-3
3.072022465E0,-4.401039705E-2,-2.449508384E-2,-6.487389095E-3
3.074023798E0,-3.057136200E-2,-2.816027589E-2,-8.319984190E-3
3.076025131E0,-3.729087859E-2,-2.388422005E-2,-9.541714564E-3
3.078026464E0,-2.629530616E-2,-2.449508384E-2,-8.930849843E-3
3.080027797E0,-2.263011411E-2,-2.266248874E-2,-7.098254282E-3
3.082029263E0,-2.140838467E-2,-1.838643290E-2,-2.822197508E-3
3.084030563E0,-1.652146131E-2,-2.999287285E-2,-5.265658256E-3
3.086032196E0,-9.191078134E-3,-2.388422005E-2,-8.930849843E-3
3.088033529E0,-1.860695425E-3,-2.632768080E-2,-5.876523443E-3
3.090034829E0,3.026226535E-3,-2.266248874E-2,-6.487389095E-3
3.092036229E0,1.218920480E-2,-2.510595135E-2,-2.211332088E-3
3.094037562E0,1.280007046E-2,-2.205162495E-2,-4.654793069E-3
3.096038862E0,1.646526158E-2,-1.899729855E-2,-3.433062695E-3
3.098040228E0,2.318478003E-2,-1.411037613E-2,-3.787364694E-4
3.100041594E0,1.707612723E-2,-1.166691538E-2,-2.211332088E-3
3.102042960E0,2.379564568E-2,-6.779993419E-3,-6.487389095E-3
3.104048326E0,3.234776109E-2,6.048176903E-3,-4.654793069E-3
3.106049659E0,2.868256718E-2,2.382985316E-3,-5.876523443E-3
3.108050959E0,2.623910457E-2,1.460028999E-2,-2.822197508E-3
3.110046125E0,3.479121625E-2,9.102502838E-3,-4.654793069E-3
3.112047458E0,2.684997208E-2,8.491638117E-3,-6.487389095E-3
3.114048758E0,3.112602793E-2,8.491638117E-3,-4.654793069E-3
3.116050158E0,2.868256718E-2,1.643288694E-2,-4.043928348E-3
3.118051458E0,2.746083587E-2,1.093509886E-2,1.453859382E-3
3.120052758E0,2.440650947E-2,9.713368490E-3,2.064724453E-3
3.122054124E0,2.440650947E-2,9.713368490E-3,1.367116440E-2
3.124055490E0,2.746083587E-2,5.437311716E-3,1.733635552E-2
3.126057090E0,2.746083587E-2,4.215580877E-3,1.672548987E-2
3.128062256E0,2.684997208E-2,2.382985316E-3,2.161241136E-2
3.130063589E0,2.135218494E-2,2.993850503E-3,2.283414267E-2
3.132064955E0,2.440650947E-2,5.503895809E-4,2.161241136E-2
3.134066288E0,1.951958798E-2,2.382985316E-3,2.161241136E-2
3.136067888E0,2.868256718E-2,-1.282206154E-3,2.222327888E-2
3.138069221E0,3.051516227E-2,-6.047565694E-5,2.100154757E-2
3.140070587E0,3.112602793E-2,6.048176903E-3,1.733635552E-2
3.142071787E0,4.578679428E-2,1.161254826E-3,1.611462608E-2
3.144073153E0,3.601295128E-2,9.102502838E-3,1.244943310E-2
3.146074519E0,3.723467886E-2,5.437311716E-3,9.395107627E-3
3.148075885E0,4.578679428E-2,1.772120129E-3,1.183856837E-2
3.150077251E0,4.639765993E-2,4.215580877E-3,1.367116440E-2
3.152078817E0,4.700852558E-2,1.772120129E-3,1.550376043E-2
3.154080150E0,5.372804403E-2,-6.047565694E-5,1.611462608E-2
3.156081516E0,5.739323422E-2,-1.893071458E-3,1.611462608E-2
3.158082582E0,5.494977161E-2,-3.725667251E-3,1.733635552E-2
3.160086715E0,5.067371204E-2,-9.834319353E-3,2.100154757E-2
3.162088081E0,6.105842441E-2,-1.227778010E-2,1.489289477E-2
3.164085381E0,5.739323422E-2,-1.227778010E-2,1.672548987E-2
3.166086714E0,6.411274523E-2,-1.716470346E-2,1.611462608E-2
3.168088114E0,6.838881224E-2,-2.327335626E-2,1.428202912E-2
3.170089447E0,6.411274523E-2,-2.327335626E-2,1.244943310E-2
3.172090547E0,6.228015572E-2,-2.510595135E-2,1.306029875E-2
3.174091913E0,6.289102137E-2,-2.449508384E-2,1.244943310E-2
3.176095113E0,7.449746132E-2,-3.426892683E-2,1.672548987E-2
3.178096479E0,6.533448398E-2,-2.816027589E-2,1.061683707E-2
3.180097812E0,6.716707349E-2,-2.632768080E-2,5.119050853E-3
3.182099145E0,6.228015572E-2,-2.205162495E-2,9.395107627E-3
3.184100478E0,7.205399871E-2,-2.693854645E-2,5.119050853E-3
3.186101811E0,7.633005828E-2,-2.754941210E-2,5.119050853E-3
3.188099344E0,6.594534218E-2,-2.999287285E-2,8.429940208E-4
3.190100677E0,7.327573001E-2,-3.610152379E-2,-9.896017145E-4
3.192102043E0,7.877351344E-2,-4.831882939E-2,-4.043928348E-3
3.194103376E0,7.755178958E-2,-5.076229200E-2,-7.098254282E-3
3.196104409E0,7.999524474E-2,-5.626007915E-2,-1.015258022E-2
3.198106042E0,8.427130431E-2,-6.236873195E-2,-1.198517624E-2
3.200107075E0,9.221255779E-2,-5.870354176E-2,-1.626123302E-2
3.202108375E0,9.954293817E-2,-6.786651909E-2,-1.565036736E-2
3.204109708E0,9.037996083E-2,-6.175786629E-2,-2.114815451E-2
3.206111041E0,1.044298559E-1,-6.420132518E-2,-2.236988395E-2
3.208112341E0,1.099276394E-1,-6.053613499E-2,-1.931555942E-2
3.210113707E0,1.068733186E-1,-5.503834784E-2,-2.420248091E-2
3.212115073E0,1.093167812E-1,-6.725565344E-2,-2.603507601E-2
3.214116406E0,1.111493781E-1,-5.809267610E-2,-2.847853862E-2
3.216117739E0,1.148145646E-1,-5.076229200E-2,-3.214373067E-2
3.218119072E0,1.129819751E-1,-4.648623243E-2,-3.580892086E-2
3.220117605E0,1.160362959E-1,-4.954056069E-2,-3.519805521E-2
3.222118938E0,1.105385125E-1,-4.831882939E-2,-3.825237975E-2
3.224120304E0,1.117602363E-1,-5.320575461E-2,-4.252843931E-2
3.226121637E0,1.080950499E-1,-5.564921349E-2,-3.886324540E-2
3.228122970E0,1.135928333E-1,-5.687094480E-2,-4.375016689E-2
3.230124270E0,1.105385125E-1,-6.236873195E-2,-3.886324540E-2
3.232125903E0,9.954293817E-2,-5.870354176E-2,-3.764151782E-2
3.234127269E0,1.123711094E-1,-6.786651909E-2,-3.825237975E-2
3.236126735E0,9.648860991E-2,-6.603392214E-2,-4.497190192E-2
3.238128068E0,1.087059155E-1,-6.603392214E-2,-4.069584236E-2
3.240129468E0,1.013755351E-1,-6.481219828E-2,-4.680449516E-2
3.242130801E0,1.068733186E-1,-6.053613499E-2,-4.863709211E-2
3.244132234E0,1.087059155E-1,-6.053613499E-2,-5.046968907E-2
3.246133567E0,1.068733186E-1,-5.809267610E-2,-5.291314796E-2
3.248134867E0,1.080950499E-1,-5.198401958E-2,-5.474574119E-2
3.250136200E0,1.099276394E-1,-4.954056069E-2,-5.535661057E-2
3.252137500E0,1.093167812E-1,-4.831882939E-2,-5.718920380E-2
3.254142400E0,1.056515872E-1,-5.198401958E-2,-5.291314796E-2
3.256143766E0,1.099276394E-1,-5.809267610E-2,-5.718920380E-2
3.258144799E0,1.087059155E-1,-5.809267610E-2,-5.413487554E-2
3.260146399E0,1.062624529E-1,-6.481219828E-2,-5.413487554E-2
3.262147765E0,1.050407290E-1,-7.458603382E-2,-5.230227858E-2
3.264149098E0,1.062624529E-1,-7.214257866E-2,-5.474574119E-2
3.266156998E0,1.056515872E-1,-7.092084736E-2,-6.146525964E-2
3.268158364E0,1.197014824E-1,-8.619247377E-2,-5.780006945E-2
3.270159664E0,1.111493781E-1,-8.985766768E-2,-6.574131548E-2
3.272160964E0,1.111493781E-1,-8.863593638E-2,-6.574131548E-2
3.274162297E0,1.172580272E-1,-9.718804806E-2,-7.001737505E-2
3.276163630E0,1.239775494E-1,-9.963151067E-2,-7.551515847E-2
3.278164930E0,1.227558106E-1,-1.039075702E-1,-7.856948674E-2
3.280166263E0,1.197014824E-1,-1.106270850E-1,-8.040208369E-2
3.282167596E0,1.215340793E-1,-1.142922714E-1,-8.528900892E-2
3.284168929E0,1.227558106E-1,-1.179574654E-1,-8.651073277E-2
3.286170295E0,1.227558106E-1,-1.228443906E-1,-9.200852364E-2
3.288171628E0,1.135928333E-1,-1.234552562E-1,-9.261938184E-2
3.290172994E0,1.221449524E-1,-1.289530545E-1,-9.139765799E-2
3.292174327E0,1.215340793E-1,-1.356725544E-1,-9.200852364E-2
3.294175693E0,1.154254302E-1,-1.350616962E-1,-9.628457576E-2
3.296177026E0,1.093167812E-1,-1.338399649E-1,-9.628457576E-2
3.298178359E0,1.056515872E-1,-1.258987188E-1,-1.030040979E-1
3.300179692E0,1.056515872E-1,-1.313965023E-1,-1.060584262E-1
3.302181058E0,1.013755351E-1,-1.326182336E-1,-1.103344783E-1
3.304182091E0,9.709947556E-2,-1.344508380E-1,-1.103344783E-1
3.306183457E0,9.709947556E-2,-1.246769875E-1,-1.170540005E-1
3.308184623E0,9.404514730E-2,-1.283421814E-1,-1.158322692E-1
3.310185989E0,9.160168469E-2,-1.265095770E-1,-1.194974631E-1
3.312187355E0,9.099081904E-2,-1.252878457E-1,-1.201083213E-1
3.314185188E0,8.976908773E-2,-1.301747710E-1,-1.207191944E-1
3.316186521E0,9.160168469E-2,-1.289530545E-1,-1.243843809E-1
3.318187887E0,9.526687860E-2,-1.252878457E-1,-1.219409183E-1
3.320189287E0,9.465601295E-2,-1.271204501E-1,-1.243843809E-1
3.322190653E0,9.771034122E-2,-1.265095770E-1,-1.262169778E-1
3.324191986E0,9.404514730E-2,-1.185683385E-1,-1.243843809E-1
3.326186786E0,8.549303561E-2,-1.130705476E-1,-1.262169778E-1
3.328188152E0,8.793649077E-2,-1.216226593E-1,-1.249952465E-1
3.330189518E0,7.938438654E-2,-1.081836224E-1,-1.243843809E-1
3.332190918E0,7.816264778E-2,-1.063510254E-1,-1.237735152E-1
3.334192251E0,7.022140175E-2,-9.291199595E-2,-1.225517914E-1
3.336193617E0,6.166929007E-2,-8.191642165E-2,-1.219409183E-1
3.338195017E0,6.044755876E-2,-7.886209339E-2,-1.280495822E-1
3.340196350E0,5.922583118E-2,-7.397517562E-2,-1.231626496E-1
3.342197683E0,5.433890596E-2,-6.908825040E-2,-1.237735152E-1
3.344199016E0,4.761938751E-2,-6.664478779E-2,-1.249952465E-1
3.346200349E0,4.639765993E-2,-5.931440368E-2,-1.262169778E-1
3.348201682E0,3.967814147E-2,-5.564921349E-2,-1.256061047E-1
3.350203048E0,4.151073843E-2,-5.198401958E-2,-1.280495822E-1
3.352204348E0,3.418035433E-2,-5.320575461E-2,-1.268278360E-1
3.354206348E0,3.540208563E-2,-4.465363547E-2,-1.292712986E-1
3.356207681E0,4.089987278E-2,-5.015142262E-2,-1.268278360E-1
3.358209047E0,4.395419732E-2,-4.831882939E-2,-1.249952465E-1
3.360210380E0,4.089987278E-2,-4.831882939E-2,-1.231626496E-1
3.362211713E0,4.273246601E-2,-3.793412074E-2,-1.268278360E-1
3.364213246E0,4.517592862E-2,-4.282104224E-2,-1.194974631E-1
3.366214579E0,4.456506297E-2,-3.854498640E-2,-1.194974631E-1
3.368222812E0,5.311717466E-2,-3.610152379E-2,-1.201083213E-1
3.370226045E0,5.128458142E-2,-4.159931093E-2,-1.158322692E-1
3.372227811E0,5.006285012E-2,-3.121460415E-2,-1.139996722E-1
3.374235277E0,4.456506297E-2,-3.304719925E-2,-1.164431274E-1
3.376236610E0,4.884112254E-2,-3.671238944E-2,-1.152214035E-1
3.378237976E0,4.578679428E-2,-3.365806490E-2,-1.170540005E-1
3.380239576E0,4.945198447E-2,-3.671238944E-2,-1.182757244E-1
3.382240909E0,4.761938751E-2,-3.487979621E-2,-1.194974631E-1
3.384241975E0,4.151073843E-2,-3.549066186E-2,-1.207191944E-1
3.386243308E0,4.028900713E-2,-4.159931093E-2,-1.207191944E-1
3.388244608E0,3.723467886E-2,-5.259488523E-2,-1.188865975E-1
3.390245974E0,3.356948867E-2,-5.320575461E-2,-1.231626496E-1
3.392247307E0,2.807170153E-2,-5.137315765E-2,-1.225517914E-1
3.394248673E0,2.013045363E-2,-5.320575461E-2,-1.194974631E-1
3.396250039E0,2.501737513E-2,-5.503834784E-2,-1.194974631E-1
3.398251372E0,1.585439593E-2,-6.053613499E-2,-1.188865975E-1
3.400252738E0,1.096747536E-2,-5.320575461E-2,-1.152214035E-1
3.402254104E0,1.035660971E-2,-4.954056069E-2,-1.188865975E-1
3.404255470E0,4.247956909E-3,-5.137315765E-2,-1.182757244E-1
3.406256770E0,-7.969347760E-3,-4.709709808E-2,-1.194974631E-1
3.408258136E0,-6.747617852E-3,-4.465363547E-2,-1.182757244E-1
3.410259202E0,-7.969347760E-3,-4.159931093E-2,-1.201083213E-1
3.412260535E0,-9.191078134E-3,-3.610152379E-2,-1.249952465E-1
3.414261168E0,-1.102367416E-2,-2.632768080E-2,-1.225517914E-1
3.416262534E0,-1.652146131E-2,-2.449508384E-2,-1.249952465E-1
3.418263567E0,-1.407799963E-2,-2.754941210E-2,-1.219409183E-1
3.420266333E0,-1.041280944E-2,-2.082989365E-2,-1.225517914E-1
3.422267666E0,-1.529973093E-2,-1.777556725E-2,-1.249952465E-1
3.424269032E0,-1.896492206E-2,-1.594297215E-2,-1.201083213E-1
3.426270398E0,-1.529973093E-2,-1.655383594E-2,-1.146105379E-1
3.428265031E0,-1.346713584E-2,-2.144075930E-2,-1.091127470E-1
3.430264464E0,-8.580213413E-3,-1.960816421E-2,-1.072801501E-1
3.432265097E0,-1.224540453E-2,-1.594297215E-2,-1.066692919E-1
3.434260297E0,-1.896492206E-2,-1.716470346E-2,-1.078910232E-1
3.436261663E0,-1.896492206E-2,-6.779993419E-3,-1.054475531E-1
3.438262996E0,-1.713232696E-2,-6.713409093E-4,-1.054475531E-1
3.440270462E0,-1.591059566E-2,7.269907277E-3,-1.011715010E-1
3.442271828E0,-1.407799963E-2,7.269907277E-3,-9.750630707E-2
3.444273494E0,-1.163453981E-2,1.398942433E-2,-1.011715010E-1
3.446276660E0,-6.747617852E-3,2.131980658E-2,-9.323025495E-2
3.448278060E0,-6.136752199E-3,1.887634583E-2,-9.567371011E-2
3.450279393E0,-7.969347760E-3,2.193067409E-2,-9.506285191E-2
3.452280726E0,-7.969347760E-3,1.276769489E-2,-9.323025495E-2
3.454282092E0,-8.580213413E-3,8.491638117E-3,-9.567371011E-2
3.456283392E0,-7.969347760E-3,-6.779993419E-3,-9.506285191E-2
3.458284725E0,-1.102367416E-2,-1.105605066E-2,-9.445197880E-2
3.460286091E0,-1.041280944E-2,-1.288864575E-2,-9.261938184E-2
3.462287391E0,-9.191078134E-3,-2.021902800E-2,-9.506285191E-2
3.464288691E0,-1.224540453E-2,-3.121460415E-2,-9.872804582E-2
3.466290057E0,-7.969347760E-3,-2.327335626E-2,-9.750630707E-2
3.468291357E0,-9.191078134E-3,-2.082989365E-2,-1.042258292E-1
3.470292923E0,-3.693291219E-3,-2.327335626E-2,-1.042258292E-1
3.472294289E0,-4.915021826E-3,-2.144075930E-2,-1.036149561E-1
3.474295622E0,-2.471560612E-3,-1.655383594E-2,-1.066692919E-1
3.476296922E0,5.827654386E-4,-2.327335626E-2,-1.097236201E-1
3.478298555E0,6.691417657E-3,-2.082989365E-2,-1.078910232E-1
3.480298455E0,6.691417657E-3,-2.388422005E-2,-1.066692919E-1
3.482299755E0,7.913148031E-3,-1.899729855E-2,-1.121670753E-1
3.484301088E0,1.280007046E-2,-2.082989365E-2,-1.182757244E-1
3.486302154E0,-2.809980106E-5,-1.472124178E-2,-1.225517914E-1
3.488303487E0,7.302283309E-3,-1.349951047E-2,-1.280495822E-1
3.490304820E0,4.247956909E-3,-2.144075930E-2,-1.341582239E-1
3.492306420E0,5.469687283E-3,-1.960816421E-2,-1.359908134E-1
3.494307753E0,-1.860695425E-3,-1.472124178E-2,-1.402668804E-1
3.496309086E0,-5.525887012E-3,-1.777556725E-2,-1.433212012E-1
3.498310386E0,3.026226535E-3,-2.082989365E-2,-1.433212012E-1
3.500305319E0,-7.969347760E-3,-2.021902800E-2,-1.457646638E-1
3.502306619E0,-1.346713584E-2,-1.411037613E-2,-1.457646638E-1
3.504311452E0,-1.774319261E-2,-1.166691538E-2,-1.463755369E-1
3.506310952E0,-1.835405640E-2,-1.044518501E-2,-1.414885968E-1
3.508312252E0,-2.385184541E-2,-5.558263045E-3,-1.451537907E-1
3.510313552E0,-2.934963256E-2,-3.725667251E-3,-1.445429325E-1
3.512314918E0,-2.873876505E-2,5.437311716E-3,-1.451537907E-1
3.514316251E0,-3.423655406E-2,1.215682924E-2,-1.402668804E-1
3.516317584E0,-3.362568840E-2,1.826548204E-2,-1.402668804E-1
3.518318950E0,-3.423655406E-2,1.643288694E-2,-1.445429325E-1
3.520320283E0,-3.851260990E-2,1.337855961E-2,-1.402668804E-1
3.522321616E0,-3.668001667E-2,1.460028999E-2,-1.402668804E-1
3.524323016E0,-4.645385593E-2,1.643288694E-2,-1.402668804E-1
3.526324382E0,-3.912347555E-2,1.154596452E-2,-1.469863951E-1
3.528325715E0,-3.912347555E-2,9.713368490E-3,-1.427103430E-1
3.530327115E0,-3.545828164E-2,5.437311716E-3,-1.402668804E-1
3.532332115E0,-3.240395710E-2,7.269907277E-3,-1.402668804E-1
3.534333448E0,-2.385184541E-2,1.521115564E-2,-1.384342760E-1
3.536334848E0,-2.324097790E-2,1.948721334E-2,-1.420994699E-1
3.538336214E0,-1.835405640E-2,2.681759372E-2,-1.384342760E-1
3.540339880E0,-1.102367416E-2,3.231538460E-2,-1.427103430E-1
3.542341246E0,-6.136752199E-3,3.170451894E-2,-1.427103430E-1
3.544342579E0,-1.860695425E-3,3.048278578E-2,-1.488189846E-1
3.546344179E0,4.858822562E-3,2.559586614E-2,-1.482081264E-1
3.548345579E0,1.646526158E-2,2.254153788E-2,-1.518733203E-1
3.550346945E0,2.318478003E-2,1.460028999E-2,-1.598145664E-1
3.552348311E0,3.540208563E-2,7.269907277E-3,-1.708101332E-1
3.554349377E0,2.868256718E-2,2.382985316E-3,-1.750862002E-1
3.556350710E0,2.929343283E-2,1.161254826E-3,-1.787513942E-1
3.558352076E0,3.845641017E-2,-8.001724258E-3,-1.879143715E-1
3.560353442E0,4.334333539E-2,-5.558263045E-3,-1.934121549E-1
3.562354475E0,4.517592862E-2,-7.390858606E-3,-1.982990652E-1
3.564352308E0,4.639765993E-2,-5.558263045E-3,-1.964664757E-1
3.566353674E0,4.823025689E-2,-1.893071458E-3,-2.068511993E-1
3.568355040E0,4.823025689E-2,1.161254826E-3,-2.056294531E-1
3.570358306E0,5.250630900E-2,9.102502838E-3,-2.129598409E-1
3.572359606E0,5.739323422E-2,2.681759372E-2,-2.123489827E-1
3.574360939E0,5.739323422E-2,3.659143671E-2,-2.160141766E-1
3.576362305E0,5.433890596E-2,5.369566754E-2,-2.209010869E-1
3.578363638E0,6.961053610E-2,7.141076028E-2,-2.276206017E-1
3.580364938E0,7.755178958E-2,8.240633458E-2,-2.325075269E-1
3.582366338E0,8.732563257E-2,9.706710279E-2,-2.373944521E-1
3.584367671E0,9.709947556E-2,1.117278636E-1,-2.435030937E-1
3.586368737E0,1.129819751E-1,1.135604605E-1,-2.502226233E-1
3.588370137E0,1.264210045E-1,1.215017065E-1,-2.599964738E-1
3.590371470E0,1.429143697E-1,1.221125722E-1,-2.654942572E-1
3.592369170E0,1.459686905E-1,1.196691096E-1,-2.697703242E-1
3.594370570E0,1.606294513E-1,1.117278636E-1,-2.758789659E-1
3.596371903E0,1.777336895E-1,1.019540206E-1,-2.801550329E-1
3.598373203E0,1.832314730E-1,1.007322893E-1,-2.807658613E-1
3.600372236E0,2.027791589E-1,8.790411800E-2,-2.838202119E-1
3.602373569E0,2.088878155E-1,7.690854371E-2,-2.868745327E-1
3.604374935E0,2.131638676E-1,7.446508855E-2,-2.856528163E-1
3.606376268E0,2.284355015E-1,6.896729767E-2,-2.862636745E-1
3.608377601E0,2.314898223E-1,6.408037245E-2,-2.856528163E-1
3.610378901E0,2.351550162E-1,6.224777922E-2,-2.838202119E-1
3.612380267E0,2.290463746E-1,6.530211121E-2,-2.825984657E-1
3.614381900E0,2.369876057E-1,5.858258903E-2,-2.807658613E-1
3.616383266E0,2.394310832E-1,5.613912642E-2,-2.758789659E-1
3.618390099E0,2.388202101E-1,5.858258903E-2,-2.722137868E-1
3.620391432E0,2.400419414E-1,4.941960797E-2,-2.722137868E-1
3.622393098E0,2.339332849E-1,4.514355212E-2,-2.661051452E-1
3.624394464E0,2.266029119E-1,4.270009324E-2,-2.716028988E-1
3.626395797E0,2.223268449E-1,4.270009324E-2,-2.703811526E-1
3.628397130E0,2.094986737E-1,4.025663063E-2,-2.679377198E-1
3.630396596E0,2.070552260E-1,3.903489932E-2,-2.722137868E-1
3.632397962E0,1.966705024E-1,3.475884348E-2,-2.722137868E-1
3.634399295E0,1.807880104E-1,2.559586614E-2,-2.764898241E-1
3.636400661E0,1.765119582E-1,2.376326919E-2,-2.752681077E-1
3.638401994E0,1.581860036E-1,2.926105633E-2,-2.746572196E-1
3.640403360E0,1.368057132E-1,2.498499863E-2,-2.722137868E-1
3.642404693E0,1.331405193E-1,2.193067409E-2,-2.722137868E-1
3.644409926E0,1.166471615E-1,1.460028999E-2,-2.697703242E-1
3.646411526E0,1.025972590E-1,8.491638117E-3,-2.709920406E-1
3.648412859E0,9.404514730E-2,1.161254826E-3,-2.716028988E-1
3.650414192E0,8.732563257E-2,-1.472124178E-2,-2.709920406E-1
3.652415258E0,6.655621529E-2,-1.777556725E-2,-2.783224285E-1
3.654416591E0,6.105842441E-2,-3.243633360E-2,-2.832093537E-1
3.656417924E0,6.228015572E-2,-4.221017659E-2,-2.850419283E-1
3.658419290E0,5.372804403E-2,-5.442748219E-2,-2.942049205E-1
3.660420656E0,6.228015572E-2,-6.236873195E-2,-3.021461666E-1
3.662421989E0,6.228015572E-2,-6.236873195E-2,-3.064222038E-1
3.664423322E0,6.655621529E-2,-6.481219828E-2,-3.113091290E-1
3.666424655E0,6.716707349E-2,-7.336430252E-2,-3.161960840E-1
3.668425988E0,7.816264778E-2,-7.702949643E-2,-3.198612630E-1
3.670427388E0,7.999524474E-2,-8.374901861E-2,-3.223047256E-1
3.672428688E0,8.488216996E-2,-1.002423763E-1,-3.186395168E-1
3.674430021E0,8.366043866E-2,-1.020749733E-1,-3.180286586E-1
3.676431387E0,8.732563257E-2,-1.100162193E-1,-3.229155838E-1
3.678427253E0,9.648860991E-2,-1.161248684E-1,-3.223047256E-1
3.680428586E0,8.976908773E-2,-1.149031445E-1,-3.229155838E-1
3.682429952E0,1.050407290E-1,-1.191791967E-1,-3.278025091E-1
3.684431252E0,1.068733186E-1,-1.149031445E-1,-3.314677179E-1
3.686432318E0,1.080950499E-1,-1.087944880E-1,-3.345220387E-1
3.688433684E0,1.142037064E-1,-1.100162193E-1,-3.333002925E-1
3.690437817E0,1.264210045E-1,-1.075727642E-1,-3.339111507E-1
3.692438983E0,1.337513924E-1,-1.087944880E-1,-3.333002925E-1
3.694440349E0,1.435252428E-1,-1.075727642E-1,-3.369654715E-1
3.696441682E0,1.514664739E-1,-1.142922714E-1,-3.394089341E-1
3.698442715E0,1.691815853E-1,-1.222335249E-1,-3.394089341E-1
3.700444081E0,1.746793687E-1,-1.204009354E-1,-3.394089341E-1
3.702445381E0,1.930053085E-1,-1.277313083E-1,-3.424632847E-1
3.704442814E0,2.046117485E-1,-1.344508380E-1,-3.436850011E-1
3.706444180E0,2.143855989E-1,-1.405594796E-1,-3.461284935E-1
3.708445513E0,2.272137702E-1,-1.478898674E-1,-3.497936726E-1
3.710446846E0,2.437071353E-1,-1.442246735E-1,-3.534588516E-1
3.712448446E0,2.577570081E-1,-1.460572630E-1,-3.534588516E-1
3.714449779E0,2.656982839E-1,-1.271204501E-1,-3.589566350E-1
3.716451112E0,2.828025222E-1,-1.100162193E-1,-3.668978810E-1
3.718452445E0,2.950198054E-1,-1.057401672E-1,-3.742282689E-1
3.720453778E0,3.145675063E-1,-8.802507073E-2,-3.772825897E-1
3.722455178E0,3.341152072E-1,-7.764036208E-2,-3.882781565E-1
3.724456544E0,3.438890278E-1,-7.153170556E-2,-3.937759399E-1
3.726457910E0,3.609932661E-1,-6.725565344E-2,-3.980520070E-1
3.728459510E0,3.780974746E-1,-6.725565344E-2,-4.053823948E-1
3.730460810E0,3.890930414E-1,-7.092084736E-2,-4.059932530E-1
3.732462176E0,4.129168093E-1,-6.847738475E-2,-4.096584618E-1
3.734463542E0,4.300210178E-1,-6.969910860E-2,-4.188214540E-1
3.736464875E0,4.544556141E-1,-7.153170556E-2,-4.304278493E-1
3.738466208E0,4.715598822E-1,-7.764036208E-2,-4.310387373E-1
3.740467541E0,4.941619039E-1,-7.702949643E-2,-4.426451623E-1
3.742468574E0,5.198182464E-1,-7.886209339E-2,-4.511972964E-1
3.744469940E0,5.234833956E-1,-7.336430252E-2,-4.524190128E-1
3.746471573E0,5.448637009E-1,-7.519689947E-2,-4.597494006E-1
3.748473339E0,5.692982674E-1,-7.764036208E-2,-4.689123929E-1
3.750471872E0,5.741852522E-1,-8.435987681E-2,-4.713558257E-1
3.752473405E0,5.857917070E-1,-8.680333942E-2,-4.768536389E-1
3.754474771E0,6.035068035E-1,-8.558160812E-2,-4.860166013E-1
3.756476071E0,6.090045571E-1,-9.107939899E-2,-4.909035265E-1
3.758477704E0,6.218327284E-1,-9.657718986E-2,-4.939578474E-1
3.760479037E0,6.316065788E-1,-1.002423763E-1,-4.970121682E-1
3.762480370E0,6.383261085E-1,-1.039075702E-1,-4.976230562E-1
3.764486103E0,6.511542201E-1,-1.112379506E-1,-4.976230562E-1
3.766487403E0,6.493216753E-1,-1.155140102E-1,-5.018991232E-1
3.768488703E0,6.554303169E-1,-1.179574654E-1,-4.988448024E-1
3.770490069E0,6.560412049E-1,-1.277313083E-1,-5.080077648E-1
3.772491435E0,6.627606750E-1,-1.417812258E-1,-5.073968768E-1
3.774493468E0,6.682584882E-1,-1.448355466E-1,-5.147272944E-1
3.776494801E0,6.761997342E-1,-1.503333300E-1,-5.220576525E-1
3.778496167E0,6.804757714E-1,-1.546093971E-1,-5.422161818E-1
3.780497500E0,7.018560767E-1,-1.515550464E-1,-5.593204498E-1
3.782498833E0,7.128516436E-1,-1.546093971E-1,-5.709269047E-1
3.784500166E0,7.336210608E-1,-1.338399649E-1,-5.916962624E-1
3.786507266E0,7.525578737E-1,-1.228443906E-1,-6.112439632E-1
3.788509499E0,7.672186494E-1,-1.124596819E-1,-6.185743213E-1
3.790510832E0,7.898206711E-1,-8.680333942E-2,-6.381220818E-1
3.792512165E0,8.093683720E-1,-7.641863078E-2,-6.558371782E-1
3.794513498E0,8.185313344E-1,-6.175786629E-2,-6.662218571E-1
3.796514831E0,8.344138265E-1,-4.648623243E-2,-6.827152371E-1
3.798516464E0,8.466311097E-1,-2.999287285E-2,-6.961542368E-1
3.800517797E0,8.496854901E-1,-2.449508384E-2,-7.071498632E-1
3.802519430E0,8.686222434E-1,-1.716470346E-2,-7.199779749E-1
3.804520796E0,8.790069818E-1,-9.834319353E-3,-7.395256758E-1
3.806522829E0,8.753417730E-1,1.161254826E-3,-7.486886382E-1
3.808523729E0,8.875590563E-1,5.503895809E-4,-7.633494139E-1
3.810525095E0,8.930568695E-1,9.713368490E-3,-7.780101895E-1
3.812526428E0,8.851156831E-1,1.337855961E-2,-7.822862267E-1
3.814527728E0,8.820613623E-1,1.948721334E-2,-7.932817936E-1
3.816529828E0,8.783960938E-1,2.131980658E-2,-8.061099648E-1
3.818531161E0,8.783960938E-1,2.926105633E-2,-8.122186065E-1
3.820532494E0,8.710657358E-1,3.536970913E-2,-8.226033449E-1
3.822533860E0,8.564049602E-1,3.842403367E-2,-8.397075534E-1
3.824530826E0,8.582375646E-1,5.491739511E-2,-8.531466126E-1
3.826532659E0,8.527398109E-1,5.552826449E-2,-8.598661423E-1
3.828534059E0,8.429659605E-1,6.957816333E-2,-8.757486343E-1
3.830535392E0,8.429659605E-1,7.813027501E-2,-8.928528428E-1
3.832536725E0,8.405224681E-1,8.362805843E-2,-8.940745592E-1
3.834537391E0,8.313595057E-1,8.240633458E-2,-9.093461633E-1
3.836538724E0,8.221965432E-1,7.690854371E-2,-9.172874689E-1
3.838540057E0,8.191422224E-1,7.324335724E-2,-9.185092449E-1
3.840541390E0,8.118118048E-1,7.996286452E-2,-9.209526181E-1
3.842542723E0,7.892097831E-1,6.774556637E-2,-9.240069389E-1
3.844544056E0,7.776033282E-1,7.385421544E-2,-9.240069389E-1
3.846539622E0,7.543904781E-1,6.713470817E-2,-9.233961105E-1
3.848539822E0,7.336210608E-1,6.285864860E-2,-9.258396029E-1
3.850541188E0,7.171276808E-1,6.285864860E-2,-9.264504313E-1
3.852542554E0,6.871953011E-1,6.408037245E-2,-9.276722074E-1
3.854543887E0,6.542085409E-1,6.835643202E-2,-9.368351698E-1
3.856545220E0,6.401587129E-1,7.018902898E-2,-9.343917370E-1
3.858546286E0,6.004524827E-1,7.629768550E-2,-9.392786026E-1
3.860547652E0,5.668548346E-1,7.874114066E-2,-9.459981322E-1
3.862548985E0,5.302029252E-1,8.790411800E-2,-9.496633410E-1
3.864550318E0,5.124878287E-1,8.423893154E-2,-9.521068335E-1
3.866550918E0,4.727815986E-1,9.523450583E-2,-9.582154751E-1
3.868552284E0,4.336862266E-1,9.889969975E-2,-9.612697959E-1
3.870553617E0,4.171928763E-1,9.584536403E-2,-9.637132287E-1
3.872554917E0,3.756540120E-1,1.001214236E-1,-9.710436463E-1
3.874556283E0,3.359477818E-1,1.019540206E-1,-9.716544747E-1
3.876556916E0,3.084588647E-1,1.013431549E-1,-9.722653031E-1
3.878558282E0,2.718069553E-1,9.462363273E-2,-9.722653031E-1
3.880559648E0,2.369876057E-1,8.240633458E-2,-9.777631164E-1
3.882560981E0,2.137747407E-1,7.996286452E-2,-9.759305716E-1
3.884562614E0,1.728467643E-1,6.835643202E-2,-9.716544747E-1
3.886564114E0,1.349731088E-1,5.858258903E-2,-9.673784375E-1
3.888565447E0,1.135928333E-1,5.308480188E-2,-9.686001539E-1
3.890566747E0,7.022140175E-2,4.697614536E-2,-9.649349451E-1
3.892568113E0,3.662381321E-2,3.659143671E-2,-9.612697959E-1
3.894569446E0,1.890872233E-2,4.331095517E-2,-9.569936991E-1
3.896570779E0,-2.690616995E-2,4.636528343E-2,-9.637132287E-1
3.898572112E0,-6.172548980E-2,5.613912642E-2,-9.606588483E-1
3.900573478E0,-7.394279540E-2,5.613912642E-2,-9.563828707E-1
3.902574778E0,-1.112055704E-1,6.530211121E-2,-9.576045275E-1
3.904576144E0,-1.411379725E-1,7.874114066E-2,-9.649349451E-1
3.906577477E0,-1.680160314E-1,8.607152849E-2,-9.704327583E-1
3.908578577E0,-1.826768070E-1,9.462363273E-2,-9.753196239E-1
3.910579943E0,-2.046679556E-1,9.706710279E-2,-9.850935340E-1
3.912581276E0,-2.223830521E-1,1.019540206E-1,-9.912021756E-1
3.914582609E0,-2.376546711E-1,9.951055795E-2,-9.960891008E-1
3.916583942E0,-2.553697526E-1,1.013431549E-1,-1.002808571E0
3.918585275E0,-2.681979239E-1,9.584536403E-2,-1.009528160E0
3.920586608E0,-2.724739909E-1,9.584536403E-2,-1.015636802E0
3.922587941E0,-2.914108336E-1,8.790411800E-2,-1.027243137E0
3.924589274E0,-3.054607213E-1,8.790411800E-2,-1.035795331E0
3.926590640E0,-3.134019673E-1,8.546065539E-2,-1.040682197E0
3.928592273E0,-3.231758177E-1,7.507595420E-2,-1.048012614E0
3.930593606E0,-3.378365636E-1,7.202161849E-2,-1.055953860E0
