"Time (s)","Gyroscope x (rad/s)","Gyroscope y (rad/s)","Gyroscope z (rad/s)"
0.000000000E0,-2.670886219E-1,-1.628505737E-1,-1.094101191E0
2.000000000E-3,-3.495981917E-2,-1.860634387E-1,-1.211998224E0
4.000000000E-3,1.818973422E-1,-1.952264309E-1,-1.384262204E0
6.000000000E-3,2.741380036E-1,-1.811765283E-1,-1.486887574E0
8.000000000E-3,4.256325662E-1,-1.145922095E-1,-1.699468613E0
1.000000000E-2,5.087102652E-1,2.346333303E-2,-1.880284786E0
1.200083300E-2,5.258144736E-1,1.120387986E-1,-1.953588605E0
1.400083300E-2,5.331448317E-1,2.983526886E-1,-2.043996811E0
1.600058300E-2,5.080993772E-1,4.693949521E-1,-2.068431139E0
1.800036000E-2,4.909951389E-1,5.433096290E-1,-2.058046579E0
2.000016000E-2,4.580084085E-1,6.367720366E-1,-2.015285969E0
2.199997800E-2,4.176913202E-1,6.361612082E-1,-1.959086418E0
2.399981100E-2,4.018088281E-1,6.025636196E-1,-1.926099658E0
2.599965700E-2,3.627134562E-1,4.803905189E-1,-1.862569690E0
2.799951400E-2,3.321701884E-1,3.203438520E-1,-1.814311266E0
2.999938000E-2,3.114008009E-1,2.232162654E-1,-1.797817945E0
3.199913000E-2,2.692510784E-1,2.285246924E-2,-1.790487528E0
3.399889400E-2,2.081645578E-1,-1.927829534E-1,-1.783157229E0
3.599867100E-2,1.696800441E-1,-2.935757041E-1,-1.779491901E0
3.799846000E-2,8.965669572E-2,-4.884417355E-1,-1.764220357E0
3.999826000E-2,-1.357953437E-2,-6.717013121E-1,-1.748337865E0
4.199806900E-2,-7.161173224E-2,-7.596659064E-1,-1.740396619E0
4.399788700E-2,-1.919521838E-1,-9.294864535E-1,-1.723903298E0
4.599762600E-2,-3.238990903E-1,-1.072428942E0,-1.701912165E0
4.799737600E-2,-3.849855959E-1,-1.134737134E0,-1.687862158E0
4.999713600E-2,-5.157107711E-1,-1.247136354E0,-1.647545099E0
5.199690500E-2,-6.323860288E-1,-1.326548815E0,-1.607228041E0
5.399668200E-2,-6.873638630E-1,-1.358313799E0,-1.582182527E0
5.599646700E-2,-7.887675166E-1,-1.401685357E0,-1.532702446E0
5.799626000E-2,-8.779538870E-1,-1.410237432E0,-1.483222365E0
5.999606000E-2,-9.176601171E-1,-1.407793999E0,-1.460620403E0
6.199579300E-2,-9.915747643E-1,-1.376028895E0,-1.411751151E0
6.399552600E-2,-1.058159113E0,-1.295394778E0,-1.368990660E0
6.599525900E-2,-1.084426284E0,-1.242860317E0,-1.350053668E0
6.799499200E-2,-1.144901991E0,-1.104193807E0,-1.318288684E0
6.999472500E-2,-1.186440825E0,-9.417037368E-1,-1.287134647E0
7.199429100E-2,-1.205377698E0,-8.555718064E-1,-1.274306417E0
7.399402400E-2,-1.231644750E0,-6.619274616E-1,-1.239487052E0
7.599382400E-2,-1.227979660E0,-4.902743101E-1,-1.199169993E0
7.799355700E-2,-1.210264564E0,-4.145270288E-1,-1.178400636E0
7.999329000E-2,-1.147956252E0,-2.947974503E-1,-1.142359495E0
8.199302300E-2,-1.042276621E0,-2.129415125E-1,-1.106318474E0
8.399275600E-2,-9.787466526E-1,-1.750678718E-1,-1.090435982E0
8.599248900E-2,-8.327498436E-1,-1.115378886E-1,-1.064779639E0
8.799222200E-2,-6.696488261E-1,-1.685377210E-2,-1.045231938E0
8.999195500E-2,-5.920689106E-1,4.606534913E-2,-1.036679864E0
9.199175500E-2,-4.356874228E-1,2.097772360E-1,-1.030571222E0
9.399148800E-2,-2.921341062E-1,3.960911334E-1,-1.028738618E0
9.599122100E-2,-2.231063098E-1,4.993273616E-1,-1.029349446E0
9.799095400E-2,-9.787894040E-2,7.051889896E-1,-1.027516842E0
9.999068700E-2,1.940718852E-2,8.951680064E-1,-1.021408200E0
1.019904200E-1,7.438506186E-2,9.758022428E-1,-1.014077783E0
1.039901530E-1,1.794538945E-1,1.101029634E0,-9.896432757E-1
1.059899530E-1,2.851335704E-1,1.173722506E0,-9.542130828E-1
1.079897530E-1,3.376679718E-1,1.185328960E0,-9.310001731E-1
1.099894860E-1,4.409042001E-1,1.159672737E0,-8.686919212E-1
1.119892190E-1,5.429186821E-1,1.077205896E0,-7.923337221E-1
1.139889520E-1,5.917878747E-1,1.022228003E0,-7.562927008E-1
1.159886850E-1,6.821959615E-1,9.067744613E-1,-6.884866953E-1
1.179884180E-1,7.554998398E-1,8.023165464E-1,-6.432826519E-1
1.199881510E-1,7.872648239E-1,7.705515027E-1,-6.274001598E-1
1.219879510E-1,8.385774493E-1,7.057998180E-1,-6.188480258E-1
1.239877510E-1,8.642338514E-1,6.709804535E-1,-6.280109882E-1
1.259874840E-1,8.733968139E-1,6.642609835E-1,-6.383956671E-1
1.279872170E-1,8.868358135E-1,6.416589618E-1,-6.677172184E-1
1.299869500E-1,8.813380599E-1,6.129482985E-1,-6.945953369E-1
1.319866830E-1,8.733968139E-1,5.811833143E-1,-7.062017918E-1
1.339864160E-1,8.507947922E-1,5.048251152E-1,-7.233059406E-1
1.359861490E-1,8.135319948E-1,4.021998048E-1,-7.300255299E-1
1.379859490E-1,7.854322195E-1,3.423349857E-1,-7.367449999E-1
1.399856820E-1,7.353412509E-1,1.938947439E-1,-7.477406263E-1
1.419854150E-1,6.724221110E-1,-2.296242490E-2,-7.733969092E-1
1.439851480E-1,6.406571865E-1,-1.726244092E-1,-7.947772145E-1
1.459848810E-1,5.777380466E-1,-5.110437870E-1,-8.515877128E-1
1.479846140E-1,5.239818692E-1,-8.855041265E-1,-9.432174563E-1
1.499843470E-1,5.056558847E-1,-1.079759240E0,-9.988062382E-1
1.519840800E-1,4.897734523E-1,-1.442613244E0,-1.142970443E0
1.539838800E-1,5.013798475E-1,-1.784086943E0,-1.310958385E0
1.559836130E-1,5.166515112E-1,-1.934359789E0,-1.404420733E0
1.579833460E-1,5.704076290E-1,-2.230018616E0,-1.597454071E0
1.599830790E-1,6.394354105E-1,-2.481695175E0,-1.797817945E0
1.619828120E-1,6.785307527E-1,-2.578822613E0,-1.894945502E0
1.639825450E-1,7.664953470E-1,-2.756584406E0,-2.084924459E0
1.659822780E-1,8.575142622E-1,-2.894029140E0,-2.265740633E0
1.679820110E-1,9.045509100E-1,-2.944120169E0,-2.350039959E0
1.699818110E-1,9.931263924E-1,-3.005206585E0,-2.510087013E0
1.719815440E-1,1.063375831E0,-2.989934921E0,-2.646309853E0
1.739812770E-1,1.094529986E0,-2.941065788E0,-2.701287508E0
1.759810100E-1,1.133625388E0,-2.777964592E0,-2.789252281E0
1.779807430E-1,1.145231843E0,-2.661289215E0,-2.820406437E0
1.799804760E-1,1.170277357E0,-2.374182940E0,-2.856447458E0
1.819802090E-1,1.189214110E0,-2.023546219E0,-2.869886398E0
1.839799420E-1,1.208150983E0,-1.834788680E0,-2.868664742E0
1.859797420E-1,1.250911474E0,-1.442613244E0,-2.854003906E0
1.879794750E-1,1.332156658E0,-1.038220406E0,-2.826515198E0
1.899792080E-1,1.387745380E0,-8.464087248E-1,-2.805745602E0
1.919789410E-1,1.519692302E0,-4.951612651E-1,-2.769704580E0
1.939786740E-1,1.646141410E0,-2.673085332E-1,-2.733052731E0
1.959784070E-1,1.704784393E0,-2.050002813E-1,-2.715337753E0
1.979781400E-1,1.798857689E0,-1.677374840E-1,-2.679296494E0
1.999779400E-1,1.836731315E0,-1.756787449E-1,-2.640201092E0
2.019777400E-1,1.839785695E0,-1.793439388E-1,-2.624318600E0
2.039774730E-1,1.819016218E0,-1.512441188E-1,-2.605992794E0
2.059772060E-1,1.767092705E0,-7.244250923E-2,-2.615155697E0
2.079769390E-1,1.737771153E0,-8.301658556E-3,-2.631038189E0
2.099766720E-1,1.668743372E0,1.419711858E-1,-2.675631285E0
2.119764050E-1,1.588719964E0,3.362263441E-1,-2.720224380E0
2.139761380E-1,1.546570301E0,4.535124898E-1,-2.737328529E0
2.159759380E-1,1.453107953E0,7.119084597E-1,-2.762374163E0
2.179756710E-1,1.368808508E0,1.008788943E0,-2.772758722E0
2.199754040E-1,1.324826121E0,1.166392207E0,-2.771537066E0
2.219751370E-1,1.230142117E0,1.506644130E0,-2.771537066E0
2.239748700E-1,1.145842671E0,1.848117828E0,-2.772758722E0
2.259746030E-1,1.093919158E0,2.014883995E0,-2.773980618E0
2.279743360E-1,9.949589968E-1,2.339253426E0,-2.784365177E0
2.299740690E-1,8.880575299E-1,2.622083902E0,-2.802080393E0
2.319738690E-1,8.300253749E-1,2.750365734E0,-2.813686848E0
2.339737020E-1,7.151826620E-1,2.981272936E0,-2.838732481E0
2.359734350E-1,6.082813144E-1,3.178582191E0,-2.863777876E0
2.379731680E-1,5.545251369E-1,3.268990517E0,-2.875995159E0
2.399729010E-1,4.464020133E-1,3.414376259E0,-2.898597240E0
2.419726340E-1,3.547722101E-1,3.548766613E0,-2.912036180E0
2.439723670E-1,3.132333755E-1,3.593359947E0,-2.916923046E0
2.459721000E-1,2.570337951E-1,3.689876556E0,-2.920588493E0
2.479719000E-1,2.283231020E-1,3.763791323E0,-2.919977188E0
2.499716330E-1,2.185492516E-1,3.791891098E0,-2.919366360E0
2.519713660E-1,2.093862742E-1,3.840149403E0,-2.923642635E0
2.539710990E-1,1.941146553E-1,3.873136282E0,-2.932805777E0
2.559708320E-1,1.788430214E-1,3.879244804E0,-2.949298859E0
2.579705650E-1,1.537975520E-1,3.870081902E0,-2.986561775E0
2.599702980E-1,1.195890903E-1,3.858475447E0,-3.032987595E0
2.619700310E-1,1.055391952E-1,3.841981888E0,-3.059865475E0
2.639697970E-1,8.660236001E-2,3.792501926E0,-3.120341301E0
2.659695300E-1,6.949813664E-2,3.732637167E0,-3.184482098E0
2.679692630E-1,6.949813664E-2,3.697206974E0,-3.214414597E0
2.699689960E-1,5.605910346E-2,3.604355574E0,-3.271835804E0
2.719687290E-1,4.445266351E-2,3.469354153E0,-3.332311630E0
2.739684620E-1,4.017660767E-2,3.391774416E0,-3.364076376E0
2.759681950E-1,4.262006655E-2,3.234171152E0,-3.424551964E0
2.779679950E-1,5.483737215E-2,3.083898306E0,-3.484416962E0
2.799677950E-1,6.522208452E-2,3.019146442E0,-3.519847155E0
2.819675280E-1,8.721323311E-2,2.890254021E0,-3.584598780E0
2.839672610E-1,1.293629259E-1,2.768080711E0,-3.642631054E0
2.859669940E-1,1.599061936E-1,2.703329086E0,-3.669508934E0
2.879667270E-1,2.148840576E-1,2.545114994E0,-3.712880611E0
2.899664600E-1,2.637532949E-1,2.345973015E0,-3.755030155E0
2.919661930E-1,2.887987792E-1,2.241515160E0,-3.771523714E0
2.939658930E-1,3.633243144E-1,2.046038151E0,-3.809397221E0
2.959656590E-1,4.537324011E-1,1.860946059E0,-3.821003675E0
2.979654250E-1,5.203167200E-1,1.757709742E0,-3.800234079E0
2.999651910E-1,6.999110579E-1,1.542685151E0,-3.649961472E0
3.019649570E-1,9.399811625E-1,1.280624032E0,-3.359800339E0
3.039647230E-1,1.094529986E0,1.121799111E0,-3.186314583E0
3.059644890E-1,1.399351835E0,8.175881505E-1,-2.835677862E0
3.079642550E-1,1.649806499E0,5.127664208E-1,-2.544295073E0
3.099640880E-1,1.755486250E0,3.673804700E-1,-2.433117867E0
3.119638540E-1,1.910645962E0,9.371283650E-2,-2.291396856E0
3.139636200E-1,2.011438608E0,-1.701809466E-1,-2.244971514E0
3.159633860E-1,2.032208204E0,-2.477608323E-1,-2.257799625E0
3.179631520E-1,2.098181725E0,-3.852055073E-1,-2.326827049E0
3.199629180E-1,2.138498783E0,-4.432376921E-1,-2.436783075E0
3.219626840E-1,2.156824589E0,-4.517898262E-1,-2.491149902E0
3.239624840E-1,2.169652939E0,-4.511789680E-1,-2.584001541E0
3.259623170E-1,2.140331268E0,-4.627853930E-1,-2.639590263E0
3.279620830E-1,2.108566523E0,-4.597310722E-1,-2.653029203E0
3.299618490E-1,2.039538622E0,-4.517898262E-1,-2.670744419E0
3.319616150E-1,1.981506348E0,-3.650469780E-1,-2.697622538E0
3.339613810E-1,1.971732497E0,-2.978517711E-1,-2.714726925E0
3.359611470E-1,1.974176049E0,-1.347507685E-1,-2.763596058E0
3.379609130E-1,1.993723631E0,4.545448348E-2,-2.823460579E0
3.399606790E-1,1.996167064E0,1.505233049E-1,-2.856447458E0
3.419605120E-1,2.008995295E0,3.295068443E-1,-2.935249090E0
3.439602780E-1,1.995556235E0,4.816122651E-1,-3.021381140E0
3.459600440E-1,1.975397706E0,5.384227037E-1,-3.066585064E0
3.479598100E-1,1.921030641E0,6.019526720E-1,-3.162491083E0
3.499595760E-1,1.840396523E0,6.129482985E-1,-3.267559767E0
3.519593420E-1,1.790305495E0,6.013418436E-1,-3.323148489E0
3.539591080E-1,1.692567110E0,5.469748378E-1,-3.445321560E0
3.559589080E-1,1.599715590E0,4.700058401E-1,-3.577879429E0
3.579587080E-1,1.553289771E0,4.229692221E-1,-3.643241882E0
3.599584410E-1,1.467157841E0,3.209547102E-1,-3.783129930E0
3.619581740E-1,1.391410470E0,2.128315568E-1,-3.919963837E0
3.639579070E-1,1.352926016E0,1.572428346E-1,-3.987159014E0
3.659576400E-1,1.280233026E0,5.156313628E-2,-4.111164570E0
3.679573730E-1,1.193490267E0,-5.350568891E-2,-4.227839947E0
3.699571060E-1,1.148286104E0,-1.011531726E-1,-4.284039497E0
3.719569060E-1,1.043828249E0,-1.940046996E-1,-4.387275696E0
3.739567060E-1,9.314290285E-1,-2.850236297E-1,-4.488068581E0
3.759564390E-1,8.727859259E-1,-3.271733224E-1,-4.537548542E0
3.779561720E-1,7.573323846E-1,-4.151379168E-1,-4.640784740E0
3.799559050E-1,6.253855228E-1,-5.330349207E-1,-4.729971409E0
3.819556380E-1,5.484164953E-1,-6.057278514E-1,-4.766012192E0
3.839553710E-1,4.097501040E-1,-7.688289285E-1,-4.822211742E0
3.859551040E-1,2.875770330E-1,-9.649166465E-1,-4.844813824E0
3.879549040E-1,2.271013856E-1,-1.055324674E0,-4.847867966E0
3.899546370E-1,1.501323581E-1,-1.304557681E0,-4.822822571E0
3.919543700E-1,1.238651425E-1,-1.581890464E0,-4.717143059E0
3.939541030E-1,1.354715824E-1,-1.733385086E0,-4.593748093E0
3.959538360E-1,2.515359819E-1,-2.062030554E0,-4.144762039E0
3.979535690E-1,4.341847003E-1,-2.376626253E0,-3.466090918E0
3.999533020E-1,5.288687944E-1,-2.485971212E0,-3.077580452E0
4.019530350E-1,6.815851331E-1,-2.597759485E0,-2.318275213E0
4.039528350E-1,7.603867054E-1,-2.609365940E0,-1.719627142E0
4.059525680E-1,7.726040483E-1,-2.550722837E0,-1.498494029E0
4.079523010E-1,7.573323846E-1,-2.415110826E0,-1.221161127E0
4.099520340E-1,6.974675655E-1,-2.173818827E0,-1.109983683E0
4.119517670E-1,6.602048278E-1,-2.032709122E0,-1.103875041E0
4.139515000E-1,5.923988223E-1,-1.729719996E0,-1.152133465E0
4.159512330E-1,5.160406232E-1,-1.424898148E0,-1.255980492E0
4.179509660E-1,4.806104302E-1,-1.285620809E0,-1.315845370E0
4.199507660E-1,4.305194914E-1,-1.034555316E0,-1.432520509E0
4.219504990E-1,3.743198812E-1,-8.170872331E-1,-1.546141505E0
4.239502320E-1,3.529396057E-1,-7.254574299E-1,-1.598675847E0
4.259499650E-1,3.052920997E-1,-6.106148362E-1,-1.693970799E0
4.279496980E-1,2.442055941E-1,-5.525825620E-1,-1.777659416E0
4.299494310E-1,2.161058038E-1,-5.458630919E-1,-1.813089609E0
4.319491640E-1,1.482997537E-1,-5.800715089E-1,-1.865624070E0
4.339488970E-1,6.277862191E-2,-6.826968789E-1,-1.888225913E0
4.359486970E-1,2.368324436E-2,-7.523354888E-1,-1.890669465E0
4.379484300E-1,-7.100086659E-2,-9.514775872E-1,-1.865013242E0
4.399481630E-1,-1.534676850E-1,-1.186660767E0,-1.811867833E0
4.419478960E-1,-1.870652586E-1,-1.316164136E0,-1.773383260E0
4.439476290E-1,-2.585364878E-1,-1.587999105E0,-1.676255703E0
4.459473620E-1,-2.970210016E-1,-1.882436275E0,-1.569354415E0
4.479470950E-1,-3.141252398E-1,-2.025378704E0,-1.514987350E0
4.499468950E-1,-3.348946571E-1,-2.340585232E0,-1.401977301E0
4.519466950E-1,-3.251208067E-1,-2.669841528E0,-1.291410685E0
4.539464280E-1,-3.110709190E-1,-2.836607695E0,-1.229102373E0
4.559461610E-1,-2.560930550E-1,-3.176859617E0,-1.111816287E0
4.579458940E-1,-1.662958562E-1,-3.529328823E0,-1.011634350E0
4.599456270E-1,-1.033767238E-1,-3.691208363E0,-9.676520824E-1
4.619453600E-1,4.628526047E-2,-4.005803585E0,-8.882396221E-1
4.639450930E-1,2.362643480E-1,-4.274584293E0,-8.210444450E-1
4.659448930E-1,3.480527103E-1,-4.372933388E0,-7.996641397E-1
4.679446260E-1,5.887335539E-1,-4.528093815E0,-7.691209316E-1
4.699443590E-1,8.489622474E-1,-4.614836216E0,-7.776729465E-1
4.719440920E-1,9.864068627E-1,-4.638659954E0,-7.996641397E-1
4.739438250E-1,1.265572309E0,-4.655153751E0,-8.741896749E-1
4.759435580E-1,1.531909585E0,-4.660651207E0,-9.786476493E-1
4.779432910E-1,1.658358693E0,-4.655153751E0,-1.040955901E0
4.799430240E-1,1.884989619E0,-4.667371273E0,-1.175957203E0
4.819428240E-1,2.063973188E0,-4.725403309E0,-1.285912871E0
4.839425570E-1,2.139720440E0,-4.766331196E0,-1.323175669E0
4.859422900E-1,2.259449959E0,-4.886671543E0,-1.365936279E0
4.879420230E-1,2.313206196E0,-4.950812340E0,-1.367768764E0
4.899417560E-1,2.412166357E0,-5.069931030E0,-1.345166802E0
4.919414890E-1,2.510515690E0,-5.173167706E0,-1.296908498E0
4.939412220E-1,2.560606718E0,-5.206153870E0,-1.266976118E0
4.959409550E-1,2.666286469E0,-5.258077621E0,-1.205278635E0
4.979407550E-1,2.776852846E0,-5.283733845E0,-1.146024823E0
4.999404880E-1,2.826943874E0,-5.297173023E0,-1.115481496E0
5.019402210E-1,2.921627998E0,-5.320385933E0,-1.062336206E0
5.039399540E-1,3.005316496E0,-5.340544224E0,-1.022019148E0
5.059396870E-1,3.043190241E0,-5.356426716E0,-1.003693104E0
5.079394200E-1,3.093281031E0,-5.401020050E0,-9.768150449E-1
5.099391530E-1,3.119548321E0,-5.482875824E0,-9.536021948E-1
5.119388860E-1,3.123213291E0,-5.536632538E0,-9.493260980E-1
5.139386860E-1,3.118937492E0,-5.654529095E0,-9.450500607E-1
5.159384190E-1,3.104887486E0,-5.771204472E0,-9.548239112E-1
5.179381520E-1,3.099389553E0,-5.817630291E0,-9.645977616E-1
5.199378850E-1,3.084118128E0,-5.908038139E0,-9.975844622E-1
5.219376180E-1,3.062126875E0,-5.969735146E0,-1.039123297E0
5.239373510E-1,3.045022726E0,-5.987450600E0,-1.059892654E0
5.259370840E-1,3.007760048E0,-6.005165577E0,-1.099599004E0
5.279368840E-1,2.954003811E0,-5.980731010E0,-1.127087831E0
5.299366840E-1,2.920406342E0,-5.955685616E0,-1.136250854E0
5.319364170E-1,2.849545956E0,-5.879327774E0,-1.151522636E0
5.339361500E-1,2.764635563E0,-5.758376122E0,-1.168015838E0
5.359358830E-1,2.713323116E0,-5.682018280E0,-1.175957203E0
5.379356160E-1,2.607032537E0,-5.503645420E0,-1.203446031E0
5.399353490E-1,2.483026505E0,-5.286177158E0,-1.244984865E0
5.419350820E-1,2.416442394E0,-5.173778534E0,-1.273695588E0
5.439348820E-1,2.273499966E0,-4.917214870E0,-1.333560467E0
5.459346150E-1,2.106122732E0,-4.642936230E0,-1.400144696E0
5.479343480E-1,2.020601749E0,-4.493885040E0,-1.430077076E0
5.499340810E-1,1.830622673E0,-4.199448109E0,-1.482000589E0
5.519338140E-1,1.627204418E0,-3.900735140E0,-1.513765574E0
5.539335470E-1,1.517859578E0,-3.755349159E0,-1.522317767E0
5.559332800E-1,1.293672085E0,-3.437699318E0,-1.533313394E0
5.579330130E-1,1.049936891E0,-3.118827343E0,-1.524761200E0
5.599328130E-1,9.234877229E-1,-2.941065788E0,-1.519263387E0
5.619325460E-1,6.730329990E-1,-2.583098650E0,-1.502159238E0
5.639322790E-1,4.207456708E-1,-2.199475288E0,-1.488720059E0
5.659320120E-1,2.961291373E-1,-2.006441832E0,-1.483833194E0
5.679317450E-1,4.689612612E-2,-1.622207642E0,-1.485665798E0
5.699314780E-1,-1.931739151E-1,-1.252023339E0,-1.501548290E0
5.719312110E-1,-3.104600608E-1,-1.074872494E0,-1.517430782E0
5.739309440E-1,-5.297606587E-1,-7.468377948E-1,-1.551639318E0
5.759307440E-1,-7.405091524E-1,-4.566767514E-1,-1.577295661E0
5.779304770E-1,-8.388584852E-1,-3.253407180E-1,-1.581571698E0
5.799302100E-1,-1.058159113E0,-1.243660599E-1,-1.570576072E0
5.819299430E-1,-1.321442008E0,-4.251011461E-2,-1.592567205E0
5.839296760E-1,-1.455221534E0,-2.235155925E-2,-1.600508451E0
5.859294090E-1,-1.708119750E0,1.674381644E-2,-1.593178153E0
5.879291420E-1,-1.929863811E0,5.522833019E-2,-1.560802221E0
5.899288750E-1,-2.036765337E0,7.721947134E-2,-1.532702446E0
5.919286750E-1,-2.235296488E0,1.370842755E-1,-1.461842060E0
5.939284080E-1,-2.398397446E0,2.268814594E-1,-1.380596995E0
5.959281410E-1,-2.471701145E0,2.946875095E-1,-1.336614728E0
5.979278740E-1,-2.587154865E0,4.626754522E-1,-1.249871850E0
5.999276070E-1,-2.672065258E0,6.874738932E-1,-1.169237614E0
6.019273400E-1,-2.707495451E0,8.072034121E-1,-1.130753040E0
6.039270730E-1,-2.755753756E0,9.116613865E-1,-1.043399453E0
6.059268730E-1,-2.753921032E0,7.003020048E-1,-9.212263227E-1
6.079266730E-1,-2.726432085E0,5.286488533E-1,-8.638049960E-1
6.099264060E-1,-2.593263388E0,3.405024111E-1,-7.648448348E-1
6.119261390E-1,-2.360523939E0,4.651188850E-1,-6.903192997E-1
6.139258720E-1,-2.231631279E0,5.732420683E-1,-6.536673307E-1
6.159256050E-1,-1.976900339E0,7.167953849E-1,-6.047981381E-1
6.179253380E-1,-1.758821487E0,6.056179404E-1,-5.852504373E-1
6.199250710E-1,-1.662304759E0,4.406842887E-1,-5.889156461E-1
6.219248710E-1,-1.497982025E0,-3.762319311E-2,-6.310653090E-1
6.239246710E-1,-1.359315634E0,-5.812932849E-1,-7.055909038E-1
6.259244040E-1,-1.300672650E0,-8.519065380E-1,-7.477406263E-1
6.279241370E-1,-1.213929653E0,-1.371141911E0,-8.405920863E-1
6.299238700E-1,-1.161395431E0,-1.880603671E0,-9.456609488E-1
6.319236030E-1,-1.147345424E0,-2.129836559E0,-1.004304051E0
6.339233360E-1,-1.134517193E0,-2.586763859E0,-1.124644399E0
6.359230690E-1,-1.131462932E0,-2.971608877E0,-1.254147768E0
6.379228690E-1,-1.136960745E0,-3.135931730E0,-1.321343064E0
6.399226020E-1,-1.163227916E0,-3.407766819E0,-1.469172478E0
6.419223350E-1,-1.209653735E0,-3.609352350E0,-1.634716868E0
6.439220680E-1,-1.243862152E0,-3.690597296E0,-1.717183709E0
6.459218010E-1,-1.326939821E0,-3.828042030E0,-1.883949995E0
6.479215340E-1,-1.427121758E0,-4.002138615E0,-2.035444498E0
6.499212670E-1,-1.477823496E0,-4.080329418E0,-2.086757421E0
6.519210000E-1,-1.584114194E0,-4.150578976E0,-2.132571936E0
6.539208000E-1,-1.692848086E0,-4.097433567E0,-2.122187614E0
6.559205330E-1,-1.747215033E0,-4.027794838E0,-2.103861332E0
6.579202660E-1,-1.871220708E0,-3.874467850E0,-2.051327229E0
6.599199990E-1,-1.990950346E0,-3.681434393E0,-1.989018798E0
6.619197320E-1,-2.043484688E0,-3.569645882E0,-1.959086418E0
6.639194650E-1,-2.147942543E0,-3.358286619E0,-1.921823621E0
6.659191980E-1,-2.262785435E0,-3.180524826E0,-1.920601964E0
6.679189310E-1,-2.338532686E0,-3.115773201E0,-1.963362455E0
6.699187310E-1,-2.468036175E0,-2.926404953E0,-2.056824684E0
6.719184640E-1,-2.561498642E0,-2.683891296E0,-2.141124249E0
6.739181970E-1,-2.603648186E0,-2.507351398E0,-2.177776098E0
6.759179300E-1,-2.647019625E0,-2.107234716E0,-2.238251686E0
6.779176630E-1,-2.669621468E0,-1.686959386E0,-2.277347088E0
6.799173960E-1,-2.687336683E0,-1.456052303E0,-2.289564371E0
6.819171290E-1,-2.705051661E0,-1.033333540E0,-2.296283960E0
6.839168620E-1,-2.727042913E0,-6.362711191E-1,-2.288342714E0
6.859166620E-1,-2.735594988E0,-4.016988873E-1,-2.276125431E0
6.879163950E-1,-2.771636248E0,-5.247332621E-3,-2.246803999E0
6.899161280E-1,-2.800957680E0,4.284669757E-1,-2.197323799E0
6.919158610E-1,-2.808288097E0,6.740347743E-1,-2.171667576E0
6.939155940E-1,-2.826613903E0,1.170057416E0,-2.127685308E0
6.959153270E-1,-2.855935574E0,1.670356035E0,-2.090422392E0
6.979150600E-1,-2.882202625E0,1.912258625E0,-2.066598654E0
6.999148600E-1,-2.935959101E0,2.330701351E0,-2.037888050E0
7.019146600E-1,-3.026366949E0,2.689279318E0,-2.011009932E0
7.039144260E-1,-3.066684008E0,2.826723814E0,-2.002457857E0
7.059141920E-1,-3.173585415E0,3.086952686E0,-1.986575365E0
7.079139580E-1,-3.280486822E0,3.295257568E0,-1.975579739E0
7.099137240E-1,-3.336075783E0,3.394828558E0,-1.973747134E0
7.119134900E-1,-3.436868429E0,3.546934128E0,-1.974358082E0
7.139132560E-1,-3.537050247E0,3.715533018E0,-1.979855776E0
7.159130890E-1,-3.580421686E0,3.782117128E0,-1.984742641E0
7.179128550E-1,-3.668386221E0,3.890240192E0,-2.006733894E0
7.199126210E-1,-3.731305361E0,3.933001041E0,-2.042774916E0
7.219123870E-1,-3.763070345E0,3.937276840E0,-2.067209482E0
7.239121530E-1,-3.810718060E0,3.897570848E0,-2.127685308E0
7.259119190E-1,-3.842482805E0,3.801664829E0,-2.201599836E0
7.279116850E-1,-3.841871977E0,3.738135099E0,-2.245582342E0
7.299114510E-1,-3.845537186E0,3.585418463E0,-2.333546877E0
7.319112840E-1,-3.819270134E0,3.403991699E0,-2.427009344E0
7.339110500E-1,-3.802165747E0,3.305031538E0,-2.469769716E0
7.359108160E-1,-3.750242233E0,3.098559141E0,-2.527801991E0
7.379105820E-1,-3.679381847E0,2.871317148E0,-2.571784258E0
7.399103480E-1,-3.640897512E0,2.759528875E0,-2.593775272E0
7.419101140E-1,-3.574312925E0,2.523734808E0,-2.631649017E0
7.439098800E-1,-3.455194235E0,2.248845577E0,-2.646920681E0
7.459096460E-1,-3.292704105E0,2.044816494E0,-2.637146711E0
7.479094790E-1,-3.025756121E0,1.278791428E0,-2.511919498E0
7.499092450E-1,-2.664123774E0,7.277909517E-1,-2.359203100E0
7.519090110E-1,-2.504688025E0,4.993273616E-1,-2.309112072E0
7.539087770E-1,-2.253011465E0,2.354335785E-1,-2.251080036E0
7.559085430E-1,-2.056923866E0,1.993925124E-1,-2.214427948E0
7.579083090E-1,-1.963461399E0,1.767905056E-1,-2.200989008E0
7.599080750E-1,-1.791808248E0,2.128315568E-1,-2.186328411E0
7.619078410E-1,-1.615268230E0,2.861353755E-1,-2.173500061E0
7.639076410E-1,-1.525471091E0,3.221764565E-1,-2.157617569E0
7.659073740E-1,-1.329383254E0,4.199149013E-1,-2.097141743E0
7.679071070E-1,-1.143069386E0,5.304815173E-1,-2.033612013E0
7.699068400E-1,-1.050828695E0,5.824050307E-1,-2.003068686E0
7.719065730E-1,-8.748995066E-1,7.039672136E-1,-1.940760374E0
7.739063060E-1,-7.301244736E-1,8.359141350E-1,-1.902275920E0
7.759060390E-1,-6.623184085E-1,9.012766480E-1,-1.888836861E0
7.779058390E-1,-5.560278893E-1,1.042386651E0,-1.877841353E0
7.799056390E-1,-4.723393321E-1,1.173722506E0,-1.863791347E0
7.819053720E-1,-4.375200272E-1,1.243972063E0,-1.852795720E0
7.839051050E-1,-3.825421333E-1,1.394245028E0,-1.825306892E0
7.859048380E-1,-3.477227986E-1,1.567119718E0,-1.783157229E0
7.879045710E-1,-3.348946571E-1,1.655695319E0,-1.752003074E0
7.899043040E-1,-3.208447695E-1,1.851782918E0,-1.678088427E0
7.919040370E-1,-3.220664859E-1,2.063753128E0,-1.591956377E0
7.939038370E-1,-3.275642693E-1,2.175541401E0,-1.547363162E0
7.959035700E-1,-3.391707242E-1,2.400950909E0,-1.447792172E0
7.979033030E-1,-3.611618578E-1,2.515793562E0,-1.396479487E0
7.999030360E-1,-3.752117753E-1,2.728985548E0,-1.292021513E0
8.019027690E-1,-4.112527966E-1,2.924462318E0,-1.191839576E0
8.039025020E-1,-4.283570349E-1,3.006929159E0,-1.144192100E0
8.059022350E-1,-4.815023243E-1,3.112608910E0,-1.067834020E0
8.079019680E-1,-5.438105464E-1,3.121160984E0,-1.026906013E0
8.099017680E-1,-5.877928734E-1,3.093672037E0,-1.015299559E0
8.119015010E-1,-6.965268850E-1,2.955005646E0,-9.951410294E-1
8.139012340E-1,-8.284737468E-1,2.690500975E0,-9.878106713E-1
8.159009670E-1,-9.103296995E-1,2.503576279E0,-9.865889549E-1
8.179007000E-1,-1.088702440E0,2.045427322E0,-9.902541041E-1
8.199004330E-1,-1.282346725E0,1.518861413E0,-9.981953502E-1
8.219001660E-1,-1.386804581E0,1.243972063E0,-1.003693104E0
8.238998990E-1,-1.588390112E0,6.874738932E-1,-1.017742991E0
8.258996990E-1,-1.795473456E0,1.297538877E-1,-1.029960275E0
8.278994320E-1,-1.898709774E0,-1.433028728E-1,-1.036679864E0
8.298991650E-1,-2.107014656E0,-6.747556329E-1,-1.045842886E0
8.318988980E-1,-2.314098120E0,-1.176275969E0,-1.054394841E0
8.338986310E-1,-2.421610355E0,-1.417567730E0,-1.051951528E0
8.358983640E-1,-2.625028610E0,-1.858612418E0,-1.052562356E0
8.378980970E-1,-2.832111835E0,-2.259340048E0,-1.044621110E0
8.398978300E-1,-2.935347795E0,-2.447486639E0,-1.038512468E0
8.418976300E-1,-3.143042326E0,-2.790181875E0,-1.028738618E0
8.438973630E-1,-3.314084530E0,-3.010704279E0,-1.007358313E0
8.458970960E-1,-3.321414709E0,-2.950228691E0,-9.792585373E-1
8.478968290E-1,-3.015371323E0,-2.158547401E0,-8.253204823E-1
8.498965620E-1,-2.296993971E0,-6.570405364E-1,-5.602049828E-1
8.518962950E-1,-1.883438110E0,7.355428487E-2,-4.252037406E-1
8.538960280E-1,-1.210264564E0,1.070486307E0,-1.991836131E-1
8.558958280E-1,-8.504648805E-1,1.586667538E0,-6.051719561E-2
8.578956280E-1,-7.655546069E-1,1.754655361E0,-1.592403464E-2
8.598953610E-1,-6.830878258E-1,2.028934002E0,4.455162585E-2
8.618950940E-1,-6.904181838E-1,2.185926199E0,6.409931183E-2
8.638948270E-1,-7.044681311E-1,2.177985191E0,7.509488612E-2
8.658945600E-1,-7.539481521E-1,2.103459358E0,8.731219172E-2
8.678942930E-1,-8.046500087E-1,1.976399541E0,8.242526650E-2
8.698940260E-1,-8.254194260E-1,1.896376252E0,7.326228917E-2
8.718938260E-1,-8.577952981E-1,1.748546720E0,5.249287561E-2
8.738936260E-1,-8.669582605E-1,1.637369275E0,3.416691720E-2
8.758933590E-1,-8.596278429E-1,1.596441269E0,2.866912819E-2
8.778930920E-1,-8.107586503E-1,1.567730665E0,1.706268825E-2
8.798928250E-1,-7.295135856E-1,1.597052217E0,1.523009222E-2
8.818925580E-1,-6.659836173E-1,1.631871581E0,1.584095694E-2
8.838922910E-1,-5.364801884E-1,1.724112153E0,2.500393614E-2
8.858920240E-1,-3.746008873E-1,1.826126695E0,4.210816324E-2
8.878918240E-1,-2.866362929E-1,1.876828432E0,5.371460319E-2
8.898915570E-1,-1.064310521E-1,1.980064750E0,8.242526650E-2
8.918912900E-1,8.476977050E-2,2.092463970E0,1.160228550E-1
8.938910230E-1,1.812864840E-1,2.146219969E0,1.319053471E-1
8.958907560E-1,3.767633736E-1,2.267782211E0,1.642812192E-1
8.978904890E-1,5.716294050E-1,2.377127171E0,1.844397634E-1
8.998902220E-1,6.663134694E-1,2.415611506E0,1.978787929E-1
9.018899550E-1,8.410209417E-1,2.482806921E0,2.149830312E-1
9.038897550E-1,1.019393563E0,2.496245861E0,2.308655232E-1
9.058895210E-1,1.096362710E0,2.496245861E0,2.369741797E-1
9.078892870E-1,1.252133250E0,2.451041698E0,2.491914779E-1
9.098890530E-1,1.391410470E0,2.378348827E0,2.620196640E-1
9.118888190E-1,1.453718781E0,2.330090523E0,2.724043727E-1
9.138885850E-1,1.574670076E0,2.209749937E0,2.882868648E-1
9.158883510E-1,1.682182431E0,2.071694613E0,3.182192743E-1
9.178881170E-1,1.726775527E0,1.997779727E0,3.347126245E-1
9.198879500E-1,1.793970704E0,1.832846165E0,3.756406009E-1
9.218878160E-1,1.835509539E0,1.671577811E0,4.214554727E-1
9.238876820E-1,1.849559426E0,1.583002329E0,4.416140318E-1
9.258875480E-1,1.862998486E0,1.404629588E0,4.752116203E-1
9.278874140E-1,1.856278896E0,1.228089571E0,4.984245002E-1
9.298872800E-1,1.848337770E0,1.141957641E0,5.051440001E-1
9.318871460E-1,1.821459770E0,9.770239592E-1,5.118635297E-1
9.338870120E-1,1.786029458E0,8.316380382E-1,5.014787912E-1
9.358869450E-1,1.762205720E0,7.601668239E-1,4.929267168E-1
9.378868780E-1,1.704173565E0,6.227221489E-1,4.703246951E-1
9.398868110E-1,1.633924127E0,4.864991903E-1,4.403923154E-1
9.418867440E-1,1.594217777E0,4.272452593E-1,4.245097935E-1
9.438866770E-1,1.515416145E0,3.050722182E-1,3.860253096E-1
9.458866100E-1,1.423786402E0,1.920621544E-1,3.493733704E-1
9.478865430E-1,1.380414963E0,1.511341631E-1,3.304365575E-1
9.498865430E-1,1.288785100E0,9.310197085E-2,2.901194394E-1
9.518865430E-1,1.197155356E0,6.683477014E-2,2.559109926E-1
9.538865090E-1,1.152562261E0,7.172168791E-2,2.400285006E-1
9.558864750E-1,1.061543345E0,1.163148507E-1,2.113178372E-1
9.578864410E-1,9.796873927E-1,2.061120421E-1,1.893266886E-1
9.598864070E-1,9.369267821E-1,2.580355704E-1,1.801637113E-1
9.618863730E-1,8.550708890E-1,3.887607455E-1,1.752767861E-1
9.638863390E-1,7.768800855E-1,5.237619877E-1,1.856614947E-1
9.658863390E-1,7.383955717E-1,5.750746727E-1,1.972679347E-1
9.678863050E-1,6.589831114E-1,6.831977963E-1,2.308655232E-1
9.698862710E-1,5.893445015E-1,7.650537491E-1,2.791238725E-1
9.718862370E-1,5.606337786E-1,7.925426364E-1,3.090562820E-1
9.738862030E-1,5.160406232E-1,8.615704179E-1,3.615906835E-1
9.758861690E-1,4.983255267E-1,9.354851842E-1,4.190120101E-1
9.778861350E-1,4.983255267E-1,9.751914144E-1,4.440574944E-1
9.798861010E-1,5.215383768E-1,1.063156009E0,4.898723662E-1
9.818860340E-1,5.557469130E-1,1.154785752E0,5.283568501E-1
9.838859340E-1,5.795705914E-1,1.185328960E0,5.460719466E-1
9.858858340E-1,6.247746348E-1,1.244583011E0,5.815021992E-1
9.878857340E-1,6.742547750E-1,1.278180599E0,6.041041613E-1
9.898856340E-1,6.986893415E-1,1.272071958E0,6.126562953E-1
9.918855340E-1,7.493911982E-1,1.231754780E0,6.212084293E-1
9.938854340E-1,7.933734655E-1,1.138292313E0,6.224302053E-1
9.958853340E-1,8.165863156E-1,1.077816725E0,6.279278994E-1
9.978852340E-1,8.483512998E-1,9.422046542E-1,6.401452422E-1
9.998851340E-1,8.825597763E-1,7.858231664E-1,6.413669586E-1
1.001885034E0,9.045509100E-1,7.021346688E-1,6.389235258E-1
1.003884934E0,9.668592215E-1,5.500291586E-1,6.157106161E-1
1.005884834E0,1.041384816E0,4.327430427E-1,5.735608935E-1
1.007884734E0,1.082923532E0,3.857064247E-1,5.460719466E-1
1.009884634E0,1.175164223E0,3.258416355E-1,4.849854708E-1
1.011884534E0,1.290006995E0,2.873571217E-1,4.147359729E-1
1.013884467E0,1.352315187E0,2.696420252E-1,3.799166679E-1
1.015884333E0,1.480596781E0,2.384878993E-1,3.163866699E-1
1.017884199E0,1.619874120E0,1.920621544E-1,2.565218508E-1
1.019884065E0,1.690734506E0,1.670166552E-1,2.253677398E-1
1.021883931E0,1.833677053E0,1.047084108E-1,1.667246670E-1
1.023883797E0,1.976619363E0,2.896112017E-2,1.099142060E-1
1.025883663E0,2.043814659E0,-9.523388930E-3,8.486872911E-2
1.027883563E0,2.187367916E0,-9.137933701E-2,3.783210739E-2
1.029883463E0,2.321758270E0,-1.885069162E-1,-1.874134527E-3
1.031883296E0,2.392618656E0,-2.471499592E-1,-2.020009235E-2
1.033883129E0,2.523954630E0,-3.803186119E-1,-4.402383789E-2
1.035882962E0,2.653458118E0,-5.324240327E-1,-6.357152760E-2
1.037882795E0,2.718209982E0,-6.173343062E-1,-7.151277363E-2
1.039882628E0,2.842215538E0,-7.700505853E-1,-8.067575097E-2
1.041882461E0,2.958279848E0,-8.983323574E-1,-8.678440005E-2
1.043882327E0,3.012646914E0,-9.563645124E-1,-8.800613135E-2
1.045882193E0,3.112217903E0,-1.038831353E0,-8.800613135E-2
1.047881993E0,3.217286825E0,-1.106637359E0,-1.008343026E-1
1.049881793E0,3.266155958E0,-1.149397969E0,-1.148842052E-1
1.051881593E0,3.363283396E0,-1.225756049E0,-1.490926445E-1
1.053881393E0,3.457967758E0,-1.304557681E0,-1.790250540E-1
1.055881226E0,3.496452093E0,-1.344263911E0,-1.900206357E-1
1.057881026E0,3.564869165E0,-1.409015656E0,-2.010162026E-1
1.059880826E0,3.620457649E0,-1.473767281E0,-2.010162026E-1
1.061880559E0,3.641838074E0,-1.498812914E0,-1.930749565E-1
1.063880292E0,3.672381401E0,-1.553790808E0,-1.698620766E-1
1.065880025E0,3.691318035E0,-1.602659941E0,-1.374862194E-1
1.067879758E0,3.696815968E0,-1.616099000E0,-1.167167947E-1
1.069879491E0,3.698037624E0,-1.670465946E0,-7.334537059E-2
1.071879224E0,3.686431170E0,-1.739493728E0,-1.836749725E-2
1.073878957E0,3.670548916E0,-1.799358487E0,1.523009222E-2
1.075878757E0,3.623512268E0,-1.932527184E0,8.670132607E-2
1.077878490E0,3.552651882E0,-2.028433084E0,1.520639062E-1
1.079878223E0,3.518443346E0,-2.039428473E0,1.746659279E-1
1.081877956E0,3.454302549E0,-1.947188020E0,1.972679347E-1
1.083877689E0,3.385274649E0,-1.737050295E0,1.972679347E-1
1.085877422E0,3.349233627E0,-1.611212015E0,1.936027408E-1
1.087877155E0,3.260658264E0,-1.342431426E0,1.881049573E-1
1.089876888E0,3.146426201E0,-1.106637359E0,1.807745695E-1
1.091876688E0,3.076787949E0,-1.018061876E0,1.734441817E-1
1.093876421E0,2.922238827E0,-9.142148495E-1,1.514530480E-1
1.095876154E0,2.752418280E0,-8.934453726E-1,1.117468029E-1
1.097875887E0,2.666897297E0,-9.026083946E-1,8.792305738E-2
1.099875620E0,2.504406929E0,-9.313190579E-1,2.256047353E-2
1.101875353E0,2.366962433E0,-9.575862288E-1,-6.296066195E-2
1.103875086E0,2.311984301E0,-9.624731541E-1,-1.161059365E-1
1.105874819E0,2.238069773E0,-9.539210796E-1,-2.327812016E-1
1.107874619E0,2.208748341E0,-9.056627154E-1,-3.641172051E-1
1.109874352E0,2.202028751E0,-8.836715817E-1,-4.313124120E-1
1.111874085E0,2.222798109E0,-8.073134422E-1,-5.663136244E-1
1.113873818E0,2.262504339E0,-7.340095639E-1,-6.933736205E-1
1.115873518E0,2.288771391E0,-6.863620877E-1,-7.483514547E-1
1.117873251E0,2.348636389E0,-5.910670757E-1,-8.436464071E-1
1.119872984E0,2.372460127E0,-5.525825620E-1,-8.815200925E-1
1.121872784E0,2.439044476E0,-4.731701016E-1,-9.383305907E-1
1.123872584E0,2.493411303E0,-4.530115724E-1,-9.780368209E-1
1.125872317E0,2.521511316E0,-5.489174128E-1,-1.004304051E0
1.127872050E0,2.580765247E0,-6.588731408E-1,-1.029349446E0
1.129871783E0,2.644906044E0,-7.187379003E-1,-1.030571222E0
1.131871516E0,2.677892923E0,-7.633311152E-1,-1.017132163E0
1.133871249E0,2.726151228E0,-8.482413888E-1,-9.688738585E-1
1.135870982E0,2.783572435E0,-8.671782017E-1,-8.631941676E-1
1.137870782E0,2.814726591E0,-8.506848216E-1,-7.850033641E-1
1.139870515E0,2.873369694E0,-8.122003078E-1,-5.754766464E-1
1.141870248E0,2.916740894E0,-7.443943024E-1,-3.189132214E-1
1.143869981E0,2.931401968E0,-6.784208417E-1,-1.808576435E-1
1.145869714E0,2.936899662E0,-4.847765565E-1,1.031946838E-1
1.147869447E0,2.924682379E0,-1.707918048E-1,3.866361678E-1
1.149869180E0,2.920406342E0,1.246775966E-2,5.210264921E-1
1.151868913E0,2.919795513E0,4.522907436E-1,7.720921040E-1
1.153868713E0,2.943008184E0,9.458698630E-1,9.962796569E-1
1.155868446E0,2.960723400E0,1.189605117E0,1.096461535E0
1.157868179E0,3.004094839E0,1.576893687E0,1.258340836E0
1.159867912E0,3.040746689E0,1.780311823E0,1.372572660E0
1.161867645E0,3.051742077E0,1.854837298E0,1.408613801E0
1.163867378E0,3.052964211E0,2.016716719E0,1.461148024E0
1.165867111E0,3.036470652E0,2.198754311E0,1.495967388E0
1.167866844E0,3.011425018E0,2.281221151E0,1.504519582E0
1.169866644E0,2.957058191E0,2.419276953E0,1.507573843E0
1.171866377E0,2.887419462E0,2.500521898E0,1.483750105E0
1.173866110E0,2.848935127E0,2.522512913E0,1.461759090E0
1.175865843E0,2.764635563E0,2.547558546E0,1.397618175E0
1.177865576E0,2.678503752E0,2.558554173E0,1.305988431E0
1.179865309E0,2.634521246E0,2.561608315E0,1.249177814E0
1.181865042E0,2.550221920E0,2.565884590E0,1.130059242E0
1.183864775E0,2.476917982E0,2.566495419E0,1.008497000E0
1.185864575E0,2.436601162E0,2.568327904E0,9.541299343E-1
1.187864308E0,2.356577635E0,2.553667307E0,8.612784147E-1
1.189864041E0,2.270445585E0,2.520680428E0,7.983593345E-1
1.191863774E0,2.225852489E0,2.504187107E0,7.812551260E-1
1.193863507E0,2.133611917E0,2.465091705E0,7.629291415E-1
1.195863240E0,2.046257973E0,2.427828789E0,7.702594995E-1
1.197862973E0,2.004108429E0,2.407059669E0,7.763681412E-1
1.199862773E0,1.917976260E0,2.374683619E0,8.020245433E-1
1.201862573E0,1.837952971E0,2.356968403E0,8.337895274E-1
1.203862306E0,1.800079346E0,2.360023022E0,8.466176987E-1
1.205862039E0,1.724331975E0,2.384457588E0,8.722740412E-1
1.207861772E0,1.651028156E0,2.439435244E0,8.887674212E-1
1.209861505E0,1.608878493E0,2.468756914E0,8.899891376E-1
1.211861238E0,1.518470407E0,2.532897711E0,8.918217421E-1
1.213860971E0,1.420121193E0,2.597649336E0,8.826587796E-1
1.215860771E0,1.374306321E0,2.619029760E0,8.747174740E-1
1.217860504E0,1.264350533E0,2.661179543E0,8.533372283E-1
1.219860237E0,1.166612029E0,2.686224937E0,8.258482814E-1
1.221859970E0,1.125073195E0,2.694166183E0,8.069114089E-1
1.223859703E0,1.045049906E0,2.683170557E0,7.678161263E-1
1.225859436E0,9.815199375E-1,2.650183916E0,7.183359861E-1
1.227859169E0,9.521984458E-1,2.629414558E0,6.908470392E-1
1.229858902E0,9.161573648E-1,2.573825598E0,6.285388470E-1
1.231858702E0,8.795054555E-1,2.479141712E0,5.582892895E-1
1.233858435E0,8.733968139E-1,2.427217960E0,5.204156637E-1
1.235858168E0,8.721750379E-1,2.338031769E0,4.422248900E-1
1.237857901E0,8.923336267E-1,2.239682436E0,3.554820120E-1
1.239857634E0,9.051617980E-1,2.190813303E0,3.133323491E-1
1.241857367E0,9.442571402E-1,2.073527098E0,2.217025459E-1
1.243857100E0,9.845742583E-1,1.950743198E0,1.312944889E-1
1.245856833E0,1.012063265E0,1.886602283E0,8.547960222E-2
1.247856633E0,1.070706248E0,1.753433704E0,1.180191641E-3
1.249856366E0,1.129960179E0,1.615988970E0,-7.456710190E-2
1.251856099E0,1.162336111E0,1.540241718E0,-1.063320935E-1
1.253855832E0,1.222200751E0,1.380805850E0,-1.619208157E-1
1.255855565E0,1.281454802E0,1.199989796E0,-2.077357173E-1
1.257855298E0,1.318717480E0,1.102862239E0,-2.303377390E-1
1.259855031E0,1.388967037E0,8.976114988E-1,-2.559940815E-1
1.261854764E0,1.468990326E0,6.899173260E-1,-2.749308944E-1
1.263854564E0,1.512972713E0,5.775181055E-1,-2.804286778E-1
1.265854297E0,1.603991628E0,3.661587238E-1,-2.908133864E-1
1.267854030E0,1.706006050E0,1.572428346E-1,-2.920351326E-1
1.269853763E0,1.757318854E0,5.339573324E-2,-2.902025580E-1
1.271853496E0,1.866052866E0,-1.530767232E-1,-2.877590656E-1
1.273853229E0,1.971121669E0,-3.516079485E-1,-2.810395360E-1
1.275852962E0,2.021823406E0,-4.542332888E-1,-2.785961032E-1
1.277852762E0,2.107344389E0,-6.539862156E-1,-2.669896483E-1
1.279852562E0,2.184924603E0,-8.366349339E-1,-2.572158277E-1
1.281852295E0,2.216689348E0,-9.264321327E-1,-2.474419624E-1
1.283852028E0,2.264947653E0,-1.105415702E0,-2.297268659E-1
1.285851761E0,2.291215181E0,-1.267294884E0,-2.168986946E-1
1.287851494E0,2.301599741E0,-1.335101008E0,-2.065139860E-1
1.289851260E0,2.315038919E0,-1.440780640E0,-1.979618818E-1
1.291850993E0,2.317482233E0,-1.491482377E0,-1.991836131E-1
1.293850793E0,2.311984301E0,-1.503088832E0,-2.022379339E-1
1.295850593E0,2.288160563E0,-1.492704272E0,-2.181204408E-1
1.297850326E0,2.242345810E0,-1.442002416E0,-2.504962981E-1
1.299850059E0,2.206915617E0,-1.414513469E0,-2.694331110E-1
1.301849792E0,2.121394634E0,-1.338155270E0,-3.152480125E-1
1.303849525E0,2.021212578E0,-1.239195108E0,-3.659498394E-1
1.305849258E0,1.963791251E0,-1.187882423E0,-3.946605027E-1
1.307848991E0,1.841618180E0,-1.094420075E0,-4.502492249E-1
1.309848791E0,1.701730132E0,-9.936273098E-1,-5.040053725E-1
1.311848524E0,1.630869746E0,-9.508667588E-1,-5.314943194E-1
1.313848257E0,1.498922825E0,-8.647347689E-1,-5.858613253E-1
1.315847990E0,1.358423829E0,-7.865440249E-1,-6.445043683E-1
1.317847723E0,1.295504689E0,-7.474486232E-1,-6.713824272E-1
1.319847456E0,1.179440260E0,-6.717013121E-1,-7.257494330E-1
1.321847189E0,1.079869270E0,-5.880127549E-1,-7.758404016E-1
1.323846922E0,1.049936891E0,-5.660216212E-1,-7.984424233E-1
1.325846722E0,9.864068627E-1,-5.079894662E-1,-8.381486535E-1
1.327846455E0,9.442571402E-1,-4.872199893E-1,-8.705245256E-1
1.329846188E0,9.363158941E-1,-4.853874147E-1,-8.839635849E-1
1.331845921E0,9.332615733E-1,-5.086002946E-1,-8.998460770E-1
1.333845654E0,9.387593865E-1,-5.544151664E-1,-9.102307558E-1
1.335845387E0,9.528092742E-1,-5.910670757E-1,-9.169502854E-1
1.337845120E0,9.894611835E-1,-7.046880722E-1,-9.236698151E-1
1.339844853E0,1.042606473E0,-8.299154043E-1,-9.267241359E-1
1.341844653E0,1.078647614E0,-9.026083946E-1,-9.303892851E-1
1.343844386E0,1.156227469E0,-1.049826860E0,-9.352762699E-1
1.345844119E0,1.246635556E0,-1.193380237E0,-9.407739639E-1
1.347843852E0,1.292450309E0,-1.257521152E0,-9.426066279E-1
1.349843552E0,1.380414963E0,-1.365644336E0,-9.536021948E-1
1.351843285E0,1.451275229E0,-1.449943662E0,-9.707064033E-1
1.353843018E0,1.479985952E0,-1.484152079E0,-9.810911417E-1
1.355842751E0,1.518470407E0,-1.530577898E0,-1.006747484E0
1.357842551E0,1.530687809E0,-1.591053486E0,-1.034847260E0
1.359842317E0,1.536185503E0,-1.642366171E0,-1.045231938E0
1.361842083E0,1.546570301E0,-1.785308719E0,-1.058060169E0
1.363841849E0,1.559398413E0,-1.972844243E0,-1.053173184E0
1.365841615E0,1.556344151E0,-2.068750143E0,-1.045231938E0
1.367841381E0,1.527022600E0,-2.233072996E0,-1.028738618E0
1.369841147E0,1.437225461E0,-2.361965418E0,-1.033014655E0
1.371840980E0,1.374306321E0,-2.413278103E0,-1.045231938E0
1.373840813E0,1.225866079E0,-2.489025354E0,-1.073331833E0
1.375840579E0,1.063986778E0,-2.545835972E0,-1.097766399E0
1.377840345E0,9.870177507E-1,-2.570881367E0,-1.104485989E0
1.379840111E0,8.471295834E-1,-2.595315933E0,-1.088603377E0
1.381839877E0,7.383955717E-1,-2.609365940E0,-1.041566730E0
1.383839643E0,6.931915283E-1,-2.606311560E0,-1.007969141E0
1.385839409E0,6.186659932E-1,-2.586763859E0,-9.218372107E-1
1.387839242E0,5.606337786E-1,-2.538505554E0,-8.204335570E-1
1.389839008E0,5.337557197E-1,-2.515292645E0,-7.666774392E-1
1.391838774E0,4.787778556E-1,-2.462758303E0,-6.548891068E-1
1.393838540E0,4.347955585E-1,-2.430993080E0,-5.431007743E-1
1.395838306E0,4.158587456E-1,-2.421830416E0,-4.850685298E-1
1.397838072E0,3.822611272E-1,-2.417554140E0,-3.732802272E-1
1.399837838E0,3.645460606E-1,-2.438934565E0,-2.602701485E-1
1.401837604E0,3.596591055E-1,-2.462147474E0,-2.132335007E-1
1.403837437E0,3.590482771E-1,-2.529342413E0,-1.417622864E-1
1.405837203E0,3.718764484E-1,-2.624637365E0,-1.106081456E-1
1.407836969E0,3.804285526E-1,-2.674728632E0,-1.063320935E-1
1.409836735E0,4.097501040E-1,-2.770023346E0,-1.173276678E-1
1.411836501E0,4.518997669E-1,-2.868983746E0,-1.515361220E-1
1.413836267E0,4.812213182E-1,-2.908078909E0,-1.747489870E-1
1.415836033E0,5.423078537E-1,-2.967943907E0,-2.272834182E-1
1.417835799E0,6.125572920E-1,-3.001541376E0,-2.889808118E-1
1.419835599E0,6.498201489E-1,-3.011315107E0,-3.213566542E-1
1.421835332E0,7.310652137E-1,-3.010704279E0,-3.861083686E-1
1.423835065E0,8.220841289E-1,-2.992989302E0,-4.539144337E-1
1.425834798E0,8.654555678E-1,-2.972219706E0,-4.826250970E-1
1.427834531E0,9.638048410E-1,-2.922739744E0,-5.382137895E-1
1.429834264E0,1.016339302E0,-2.892807484E0,-5.608158708E-1
1.431833997E0,1.114688635E0,-2.823168755E0,-5.993003249E-1
1.433833730E0,1.217924833E0,-2.731538773E0,-6.316761971E-1
1.435833530E0,1.271070123E0,-2.678393602E0,-6.463369727E-1
1.437833263E0,1.381025910E0,-2.537894487E0,-6.768802404E-1
1.439832996E0,1.485483766E0,-2.394952059E0,-7.043691278E-1
1.441832729E0,1.534353018E0,-2.316761494E0,-7.147538662E-1
1.443832462E0,1.618652344E0,-2.159158230E0,-7.343015671E-1
1.445832195E0,1.693788767E0,-2.005220175E0,-7.660665512E-1
1.447831928E0,1.724331975E0,-1.928251147E0,-7.819490433E-1
1.449831728E0,1.773812175E0,-1.756597996E0,-7.959989905E-1
1.451831528E0,1.806187987E0,-1.592886090E0,-7.978315353E-1
1.453831261E0,1.817794442E0,-1.515306234E0,-7.892794013E-1
1.455830994E0,1.827568412E0,-1.349761724E0,-7.636231184E-1
1.457830727E0,1.820237875E0,-1.178108692E0,-7.269712090E-1
1.459830460E0,1.816572785E0,-1.094420075E0,-7.062017918E-1
1.461830193E0,1.793359876E0,-9.136039615E-1,-6.658846140E-1
1.463829926E0,1.759151340E0,-7.364529967E-1,-6.139611006E-1
1.465829726E0,1.742047071E0,-6.472667456E-1,-5.907482505E-1
1.467829459E0,1.699286580E0,-4.774461687E-1,-5.369920731E-1
1.469829192E0,1.649195671E0,-3.161777258E-1,-4.887337387E-1
1.471828925E0,1.621706843E0,-2.489825636E-1,-4.594121873E-1
1.473828658E0,1.578946114E0,-1.176465377E-1,-4.233711660E-1
1.475828391E0,1.537407398E0,-4.025601782E-3,-3.928278685E-1
1.477828124E0,1.522746563E0,4.423275217E-2,-3.824431896E-1
1.479827857E0,1.492203236E0,1.285321563E-1,-3.683932722E-1
1.481827657E0,1.464714408E0,1.963381916E-1,-3.580085635E-1
1.483827390E0,1.448220968E0,2.299357951E-1,-3.567868471E-1
1.485827123E0,1.427451491E0,2.757506669E-1,-3.592303097E-1
1.487826856E0,1.414012551E0,3.117917180E-1,-3.702258766E-1
1.489826589E0,1.416456103E0,3.295068443E-1,-3.830540478E-1
1.491826322E0,1.410347462E0,3.692130744E-1,-3.958822191E-1
1.493826055E0,1.435392857E0,4.217474759E-1,-4.441405535E-1
1.495825788E0,1.449442744E0,4.455712140E-1,-4.673534632E-1
1.497825588E0,1.497701049E0,4.620645642E-1,-5.327159762E-1
1.499825321E0,1.605824232E0,4.199149013E-1,-6.359522939E-1
1.501825054E0,1.646141410E0,4.107518792E-1,-6.762693524E-1
1.503824787E0,1.669354200E0,4.321321845E-1,-7.214733958E-1
1.505824520E0,1.665078163E0,5.054360032E-1,-7.605687976E-1
1.507824253E0,1.660191298E0,5.457531214E-1,-7.776729465E-1
1.509823986E0,1.666299939E0,5.787398815E-1,-8.100488186E-1
1.511823719E0,1.652250051E0,5.811833143E-1,-8.497550488E-1
1.513823519E0,1.628426313E0,5.811833143E-1,-8.729679585E-1
1.515823252E0,1.581389666E0,5.701877475E-1,-9.273349643E-1
1.517822985E0,1.522746563E0,5.512509346E-1,-9.865889549E-1
1.519822718E0,1.490981579E0,5.347575545E-1,-1.012856126E0
1.521822451E0,1.415234208E0,4.785579443E-1,-1.062336206E0
1.523822184E0,1.319328547E0,3.863172829E-1,-1.118535757E0
1.525821917E0,1.271680951E0,3.154568970E-1,-1.152744293E0
1.527821717E0,1.165390372E0,1.609080136E-1,-1.212609053E0
1.529821517E0,1.060932398E0,-3.604104859E-4,-1.262089133E0
1.531821250E0,1.003511071E0,-8.099462092E-2,-1.281636834E0
1.533820983E0,8.850032091E-1,-2.416521758E-1,-1.306682229E0
1.535820716E0,7.732148767E-1,-3.772642612E-1,-1.311569214E0
1.537820449E0,7.267891169E-1,-4.218574166E-1,-1.306682229E0
1.539820182E0,6.437115073E-1,-4.841656685E-1,-1.281636834E0
1.541819915E0,5.844575167E-1,-5.104328990E-1,-1.239487052E0
1.543819715E0,5.636880994E-1,-5.055459738E-1,-1.213830829E0
1.545819515E0,5.478056073E-1,-4.603419602E-1,-1.152744293E0
1.547819248E0,5.612446666E-1,-3.937576413E-1,-1.088603377E0
1.549818981E0,5.777380466E-1,-3.558839858E-1,-1.056838393E0
1.551818714E0,6.278289557E-1,-2.679193914E-1,-1.001249671E0
1.553818447E0,6.852502823E-1,-1.823982596E-1,-9.419957399E-1
1.555818180E0,7.090740204E-1,-1.329181641E-1,-9.120633602E-1
1.557817913E0,7.548888922E-1,-3.762319311E-2,-8.473116159E-1
1.559817713E0,8.068125248E-1,3.873496503E-2,-7.831707597E-1
1.561817446E0,8.306362033E-1,5.950438231E-2,-7.538492680E-1
1.563817179E0,8.654555678E-1,8.454985917E-2,-6.988713741E-1
1.565816912E0,8.837814927E-1,9.371283650E-2,-6.518347859E-1
1.567816645E0,8.917227983E-1,9.798888862E-2,-6.347305179E-1
1.569816378E0,9.008857608E-1,9.432370216E-2,-5.919699669E-1
1.571816111E0,9.100487232E-1,9.615629911E-2,-5.492094159E-1
1.573815844E0,9.106596112E-1,8.821505308E-2,-5.266073346E-1
1.575815644E0,9.124922156E-1,6.988909096E-2,-4.765164256E-1
1.577815377E0,9.173790812E-1,7.416514307E-2,-4.221494198E-1
1.579815110E0,9.179899693E-1,7.172168791E-2,-3.934387565E-1
1.581814843E0,9.320398569E-1,9.493456781E-2,-3.329631090E-1
1.583814576E0,9.625831246E-1,1.474689841E-1,-2.706548572E-1
1.585814309E0,9.809090495E-1,1.853426248E-1,-2.376681268E-1
1.587814042E0,1.029778361E0,2.641442120E-1,-1.729163975E-1
1.589813775E0,1.100638628E0,3.631044030E-1,-1.051103622E-1
1.591813575E0,1.133625388E0,4.083084464E-1,-7.212363183E-2
1.593813308E0,1.214259624E0,5.042142868E-1,-1.286970917E-2
1.595813041E0,1.295504689E0,6.031744480E-1,4.088643193E-2
1.597812774E0,1.341930389E0,6.544871330E-1,6.837536395E-2
1.599812507E0,1.436003685E0,7.497820854E-1,1.172445938E-1
1.601812240E0,1.520913959E0,8.579052687E-1,1.600051522E-1
1.603811973E0,1.564896226E0,9.049419165E-1,1.807745695E-1
1.605811706E0,1.644919515E0,1.018562794E0,2.088743746E-1
1.607811506E0,1.703562617E0,1.082703590E0,2.302546501E-1
1.609811239E0,1.730440855E0,1.119355559E0,2.369741797E-1
1.611810972E0,1.768925309E0,1.166392207E0,2.540783882E-1
1.613810705E0,1.818405390E0,1.216483116E0,2.693500221E-1
1.615810438E0,1.847115993E0,1.232976556E0,2.803456187E-1
1.617810171E0,1.839785695E0,1.315443397E0,2.840107977E-1
1.619809904E0,1.900261283E0,1.388747215E0,2.986715734E-1
1.621809704E0,1.923474073E0,1.407683969E0,3.096671402E-1
1.623809504E0,1.943632722E0,1.455331445E0,3.365451992E-1
1.625809237E0,1.944854498E0,1.521304965E0,3.634232879E-1
1.627808970E0,1.946686983E0,1.565287232E0,3.799166679E-1
1.629808703E0,1.936302423E0,1.647143245E0,4.110707641E-1
1.631808436E0,1.908813357E0,1.686849356E0,4.458900690E-1
1.633808169E0,1.878270149E0,1.683795094E0,4.660486579E-1
1.635807902E0,1.789083838E0,1.679519057E0,5.173613429E-1
1.637807702E0,1.704784393E0,1.656916976E0,5.778369904E-1
1.639807435E0,1.657136917E0,1.639201880E0,6.108237505E-1
1.641807168E0,1.535574675E0,1.592776179E0,6.682450771E-1
1.643806901E0,1.413401723E0,1.556735158E0,6.993991733E-1
1.645806634E0,1.342541218E0,1.538409233E0,7.085621357E-1
1.647806367E0,1.180662036E0,1.491372585E0,7.006208897E-1
1.649806100E0,1.004732847E0,1.435783863E0,6.712993979E-1
1.651805833E0,9.069944024E-1,1.398520947E0,6.474756598E-1
1.653805633E0,7.041871548E-1,1.311778069E0,5.937194824E-1
1.655805366E0,5.074885488E-1,1.196324587E0,5.344655514E-1
1.657805099E0,4.128044248E-1,1.128518581E0,5.075874925E-1
1.659804832E0,2.387078106E-1,9.813000560E-1,4.526096284E-1
1.661804565E0,9.515447915E-2,8.505749106E-1,3.951882720E-1
1.663804298E0,3.162449598E-2,8.004839420E-1,3.731971085E-1
1.665804031E0,-7.466606051E-2,7.106866837E-1,3.310474157E-1
1.667803764E0,-1.546894014E-1,6.502110362E-1,2.956172526E-1
1.669803564E0,-1.797348857E-1,6.324959993E-1,2.858433723E-1
1.671803297E0,-2.084455341E-1,6.416589618E-1,2.821781933E-1
1.673803030E0,-2.316584289E-1,6.441023946E-1,2.882868648E-1
1.675802763E0,-2.310475558E-1,6.404372454E-1,2.913411856E-1
1.677802496E0,-2.322692871E-1,6.422698498E-1,3.005041480E-1
1.679802229E0,-2.255497724E-1,6.294416785E-1,3.090562820E-1
1.681801962E0,-2.249388993E-1,6.178352237E-1,3.145540655E-1
1.683801695E0,-2.255497724E-1,5.439205170E-1,3.457081914E-1
1.685801495E0,-2.139433324E-1,4.241909385E-1,3.811383545E-1
1.687801228E0,-2.047803551E-1,3.545522988E-1,3.988534510E-1
1.689800961E0,-1.779022813E-1,2.213836610E-1,4.251206517E-1
1.691800694E0,-1.516350806E-1,8.332812786E-2,4.550530612E-1
1.693800427E0,-1.235352755E-1,9.413433261E-3,4.691029787E-1
1.695800160E0,-8.077470958E-2,-1.261986494E-1,4.868180454E-1
1.697799893E0,-2.090991847E-2,-2.520368993E-1,4.849854708E-1
1.699799693E0,9.633344598E-3,-3.057930171E-1,4.776550829E-1
1.701799493E0,9.332188219E-2,-3.858163655E-1,4.556639493E-1
1.703799226E0,1.849516779E-1,-4.499572515E-1,4.361162484E-1
1.705798959E0,2.356534898E-1,-4.823330939E-1,4.196228981E-1
1.707798692E0,3.291158676E-1,-4.957721233E-1,3.951882720E-1
1.709798425E0,4.237999916E-1,-5.244827867E-1,3.664776087E-1
1.711798158E0,4.683931470E-1,-5.244827867E-1,3.554820120E-1
1.713797891E0,5.594120622E-1,-5.305914283E-1,3.389886916E-1
1.715797691E0,6.388245225E-1,-5.226501822E-1,3.341017365E-1
1.717797424E0,6.791416407E-1,-5.140981078E-1,3.347126245E-1
1.719797157E0,7.561106682E-1,-4.933286607E-1,3.450973332E-1
1.721796890E0,8.391883373E-1,-4.988264441E-1,3.603689671E-1
1.723796623E0,8.709533811E-1,-4.951612651E-1,3.652558923E-1
1.725796356E0,9.448680282E-1,-5.018807650E-1,3.701427877E-1
1.727796089E0,1.023669720E0,-5.067676902E-1,3.823601007E-1
1.729795822E0,1.062154174E0,-5.122655034E-1,3.866361678E-1
1.731795622E0,1.141566634E0,-5.507500172E-1,4.006860554E-1
1.733795355E0,1.219146490E0,-5.770171881E-1,4.043512642E-1
1.735795088E0,1.264961481E0,-5.831258297E-1,4.000751972E-1
1.737794821E0,1.333378315E0,-5.910670757E-1,3.793057799E-1
1.739794554E0,1.398741007E0,-5.971757770E-1,3.689210713E-1
1.741794287E0,1.427451491E0,-5.825150013E-1,3.432647288E-1
1.743794020E0,1.482429385E0,-5.538043380E-1,3.084453940E-1
1.745793753E0,1.497701049E0,-5.299805999E-1,2.907303274E-1
1.747793553E0,1.522746563E0,-4.640071392E-1,2.577435970E-1
1.749793286E0,1.530687809E0,-4.016988873E-1,2.235351354E-1
1.751793019E0,1.528244376E0,-3.693230152E-1,2.082635015E-1
1.753792752E0,1.512972713E0,-3.082364798E-1,1.881049573E-1
1.755792485E0,1.478153467E0,-2.587563992E-1,1.655029505E-1
1.757792218E0,1.461049199E0,-2.447065115E-1,1.600051522E-1
1.759791951E0,1.405460477E0,-2.318783402E-1,1.569508314E-1
1.761791684E0,1.344373941E0,-2.624216080E-1,1.612268835E-1
1.763791484E0,1.310165405E0,-2.874670625E-1,1.679464132E-1
1.765791250E0,1.244192004E0,-3.418340683E-1,1.850506216E-1
1.767791016E0,1.178829432E0,-3.962010741E-1,2.052091807E-1
1.769790782E0,1.148896933E0,-4.145270288E-1,2.143721581E-1
1.771790548E0,1.088421345E0,-4.377399385E-1,2.296437919E-1
1.773790314E0,1.033443451E0,-4.279660881E-1,2.394176275E-1
1.775790080E0,1.005954623E0,-4.181922376E-1,2.491914779E-1
1.777789913E0,9.619722962E-1,-3.797077239E-1,2.736260891E-1
1.779789746E0,9.314290285E-1,-3.357254267E-1,2.937846482E-1
1.781789512E0,9.240986109E-1,-3.009060919E-1,2.974498272E-1
1.783789278E0,9.118812680E-1,-2.306565940E-1,3.108888865E-1
1.785789044E0,9.002748728E-1,-1.616288275E-1,3.658667207E-1
1.787788810E0,8.801163435E-1,-1.188682690E-1,4.086273313E-1
1.789788576E0,8.373557925E-1,-5.247332621E-3,4.703246951E-1
1.791788342E0,7.982603908E-1,1.114279330E-1,5.027005672E-1
1.793788175E0,7.768800855E-1,1.651840657E-1,5.069766045E-1
1.795788008E0,7.377847433E-1,2.965201139E-1,5.039222836E-1
1.797787774E0,6.950241923E-1,4.309104681E-1,4.862071872E-1
1.799787540E0,6.712003946E-1,5.060468912E-1,4.746007621E-1
1.801787273E0,6.247746348E-1,6.648718119E-1,4.526096284E-1
1.803787039E0,5.661315918E-1,8.157555461E-1,4.275641441E-1
1.805786805E0,5.319231749E-1,8.841724992E-1,4.171794057E-1
1.807786571E0,4.598410428E-1,9.984042645E-1,3.982426226E-1
1.809786404E0,3.700438440E-1,1.084536314E0,3.872470260E-1
1.811786170E0,3.230071962E-1,1.112025142E0,3.860253096E-1
1.813785936E0,2.197709978E-1,1.146233678E0,3.811383545E-1
1.815785702E0,1.067609191E-1,1.150509715E0,3.835818470E-1
1.817785468E0,5.117218196E-2,1.142568469E0,3.896904886E-1
1.819785234E0,-6.367048621E-2,1.112025142E0,4.025186598E-1
1.821785000E0,-1.687393039E-1,1.050327778E0,4.202337563E-1
1.823784766E0,-2.145542055E-1,1.026504040E0,4.293967187E-1
1.825784566E0,-2.915232182E-1,9.800782800E-1,4.544422030E-1
1.827784299E0,-3.403924108E-1,9.458698630E-1,4.758224785E-1
1.829784032E0,-3.617727458E-1,9.379286170E-1,4.862071872E-1
1.831783765E0,-3.733791411E-1,9.263221622E-1,4.978136420E-1
1.833783498E0,-3.666596413E-1,9.049419165E-1,5.063657761E-1
1.835783231E0,-3.568857908E-1,8.939462900E-1,5.063657761E-1
1.837782964E0,-3.275642693E-1,8.707334399E-1,4.947593212E-1
1.839782697E0,-2.866362929E-1,8.169773221E-1,4.770442247E-1
1.841782497E0,-2.640342712E-1,7.754384875E-1,4.739899039E-1
1.843782230E0,-2.114998847E-1,6.886955500E-1,4.660486579E-1
1.845781963E0,-1.553002745E-1,5.940114856E-1,4.574965239E-1
1.847781696E0,-1.217026860E-1,5.378118753E-1,4.526096284E-1
1.849781429E0,-5.511837080E-2,4.217474759E-1,4.483335614E-1
1.851781162E0,-1.404990035E-4,3.252307773E-1,4.367271066E-1
1.853780895E0,2.551584132E-2,2.763615549E-1,4.263423979E-1
1.855780628E0,6.400035322E-2,1.413603276E-1,4.116816521E-1
1.857780428E0,9.759794176E-2,-9.712757310E-4,4.055730104E-1
1.859780161E0,1.171456277E-1,-7.366424054E-2,4.067946970E-1
1.861779927E0,1.654039770E-1,-2.025568038E-1,4.196228981E-1
1.863779660E0,2.216035873E-1,-3.283950388E-1,4.452792406E-1
1.865779393E0,2.545903027E-1,-3.809294403E-1,4.568856359E-1
1.867779126E0,3.242289424E-1,-4.597310722E-1,4.746007621E-1
1.869778859E0,3.926458359E-1,-5.232610703E-1,4.874289334E-1
1.871778659E0,4.329629540E-1,-5.544151664E-1,4.959810376E-1
1.873778459E0,4.836647511E-1,-6.106148362E-1,5.106418133E-1
1.875778192E0,5.325340033E-1,-6.319950819E-1,5.240808725E-1
1.877777925E0,5.533034205E-1,-6.326059699E-1,5.301895142E-1
1.879777658E0,5.752945542E-1,-6.161125302E-1,5.399633050E-1
1.881777391E0,5.948421955E-1,-5.476956964E-1,5.527914762E-1
1.883777124E0,6.113356352E-1,-4.988264441E-1,5.546240807E-1
1.885776857E0,6.259964108E-1,-3.723773360E-1,5.650087595E-1
1.887776657E0,6.327158809E-1,-2.379869819E-1,5.631762147E-1
1.889776390E0,6.247746348E-1,-1.640722901E-1,5.643979311E-1
1.891776123E0,6.095029712E-1,2.346333303E-2,5.509589314E-1
1.893775856E0,5.838466883E-1,2.458182871E-1,5.155287385E-1
1.895775589E0,5.673533082E-1,3.606609404E-1,4.929267168E-1
1.897775322E0,5.068776608E-1,6.062287688E-1,4.471118152E-1
1.899775055E0,4.335738122E-1,8.365249634E-1,3.848035634E-1
1.901774788E0,3.957001567E-1,9.483132958E-1,3.536494374E-1
1.903774588E0,2.942965329E-1,1.159061790E0,2.943955064E-1
1.905774321E0,1.947255135E-1,1.340488791E0,2.418611050E-1
1.907774054E0,1.458562911E-1,1.427842498E0,2.174264789E-1
1.909773787E0,4.628526047E-2,1.563454628E0,1.771093756E-1
1.911773520E0,-4.106846824E-2,1.685016870E0,1.312944889E-1
1.913773253E0,-7.161173224E-2,1.741216421E0,1.080816090E-1
1.915772986E0,-1.241461411E-1,1.835900545E0,5.676892772E-2
1.917772719E0,-1.620197892E-1,1.888434887E0,7.288844325E-3
1.919772519E0,-1.620197892E-1,1.944634557E0,-3.730431572E-2
1.921772252E0,-1.650741100E-1,1.953186631E0,-1.032777652E-1
1.923771985E0,-1.730153710E-1,1.873163342E0,-1.350427568E-1
1.925771718E0,-1.650741100E-1,1.830402732E0,-1.417622864E-1
1.927771451E0,-1.381960511E-1,1.725944877E0,-1.460383236E-1
1.929771184E0,-1.033767238E-1,1.594608784E0,-1.448166072E-1
1.931770917E0,-7.283346355E-2,1.519472241E0,-1.362645030E-1
1.933770650E0,2.302962122E-3,1.333158493E0,-1.246580482E-1
1.935770450E0,7.927197963E-2,1.124853373E0,-9.839084744E-2
1.937770183E0,1.195890903E-1,1.025282383E0,-8.250834793E-2
1.939769916E0,2.093862742E-1,8.157555461E-1,-6.479325145E-2
1.941769649E0,2.796357870E-1,6.135591269E-1,-7.945401967E-2
1.943769382E0,3.095681667E-1,5.139880776E-1,-9.167132527E-2
1.945769115E0,3.755416274E-1,3.050722182E-1,-1.057212278E-1
1.947768848E0,4.225782454E-1,1.205909029E-1,-1.154950708E-1
1.949768648E0,4.390716255E-1,4.117842391E-2,-1.154950708E-1
1.951768448E0,4.677822888E-1,-9.932058305E-2,-1.106081456E-1
1.953768181E0,5.007690191E-1,-2.086654603E-1,-8.495180309E-2
1.955767914E0,5.019907355E-1,-2.483717054E-1,-6.662584841E-2
1.957767647E0,5.074885488E-1,-3.253407180E-1,-3.180653229E-2
1.959767380E0,4.916060269E-1,-4.120835960E-1,2.317134105E-2
1.961767113E0,4.873299599E-1,-4.511789680E-1,5.554720014E-2
1.963766846E0,4.726691842E-1,-5.354784131E-1,1.257967055E-1
1.965766646E0,4.555649757E-1,-5.928997397E-1,2.058200538E-1
1.967766379E0,4.445694089E-1,-6.161125302E-1,2.473588884E-1
1.969766112E0,4.207456708E-1,-6.741448045E-1,3.426538706E-1
1.971765845E0,3.963110447E-1,-7.297335267E-1,4.513878822E-1
1.973765578E0,3.895915151E-1,-7.578333020E-1,4.978136420E-1
1.975765311E0,3.761524856E-1,-8.128111362E-1,5.888325572E-1
1.977765044E0,3.657677770E-1,-8.494630456E-1,6.505299807E-1
1.979764777E0,3.608808517E-1,-8.647347689E-1,6.725211143E-1
1.981764577E0,3.608808517E-1,-9.172691703E-1,7.042860985E-1
1.983764310E0,3.627134562E-1,-9.643057585E-1,7.397162318E-1
1.985764043E0,3.706547022E-1,-9.850751758E-1,7.604857087E-1
1.987763776E0,3.792068064E-1,-1.020505428E0,8.203504682E-1
1.989763509E0,4.054740369E-1,-1.061433315E0,8.838804960E-1
1.991763242E0,4.219673872E-1,-1.091976523E0,9.186997414E-1
1.993762975E0,4.561758339E-1,-1.161615252E0,9.962796569E-1
1.995762708E0,5.007690191E-1,-1.234919071E0,1.067750812E0
1.997762508E0,5.374208689E-1,-1.266684055E0,1.098294139E0
1.999762274E0,6.095029712E-1,-1.333879232E0,1.145330787E0
2.001762040E0,6.913589239E-1,-1.376639724E0,1.195421696E0
2.003761806E0,7.328977585E-1,-1.404739618E0,1.221078157E0
2.005761572E0,8.159754872E-1,-1.443835020E0,1.264449477E0
2.007761338E0,9.039400816E-1,-1.479265094E0,1.302323103E0
2.009761104E0,9.357050657E-1,-1.495758533E0,1.321259975E0
2.011760870E0,1.021836996E0,-1.532410383E0,1.350581527E0
2.013760703E0,1.092697382E0,-1.555012465E0,1.371351004E0
2.015760569E0,1.128127575E0,-1.576392651E0,1.379292250E0
2.017760435E0,1.206318378E0,-1.596551299E0,1.390898705E0
2.019760301E0,1.272291780E0,-1.610601187E0,1.405559421E0
2.021760167E0,1.305278540E0,-1.619153261E0,1.421441913E0
2.023760033E0,1.374917150E0,-1.591053486E0,1.437324286E0
2.025759899E0,1.456773043E0,-1.550125480E0,1.449541807E0
2.027759832E0,1.496479392E0,-1.525080085E0,1.447098255E0
2.029759765E0,1.577724457E0,-1.462771893E0,1.435491800E0
2.031759698E0,1.654082656E0,-1.421843886E0,1.420831084E0
2.033759631E0,1.692567110E0,-1.413291693E0,1.410446286E0
2.035759564E0,1.746323228E0,-1.403517842E0,1.391509533E0
2.037759497E0,1.800690174E0,-1.396187544E0,1.373183489E0
2.039759430E0,1.820237875E0,-1.394965768E0,1.359133720E0
2.041759363E0,1.844061613E0,-1.374807239E0,1.322481632E0
2.043759363E0,1.870328903E0,-1.343042254E0,1.280332088E0
2.045759363E0,1.873383164E0,-1.321051002E0,1.263227820E0
2.047759329E0,1.880713582E0,-1.283788323E0,1.244901896E0
2.049759295E0,1.875826716E0,-1.236751676E0,1.230241060E0
2.051759261E0,1.853835583E0,-1.201932430E0,1.225965023E0
2.053759227E0,1.824514031E0,-1.122519851E0,1.216802001E0
2.055759193E0,1.784807682E0,-1.081591964E0,1.211304188E0
2.057759159E0,1.767092705E0,-9.649166465E-1,1.208860874E0
2.059759159E0,1.718834400E0,-8.543500304E-1,1.206417322E0
2.061759125E0,1.685847521E0,-7.883765697E-1,1.203363061E0
2.063759091E0,1.633924127E0,-6.545971036E-1,1.203973889E0
2.065759057E0,1.575281024E0,-5.257045031E-1,1.215580344E0
2.067759023E0,1.545348525E0,-4.566767514E-1,1.221688986E0
2.069758989E0,1.485483766E0,-3.204537928E-1,1.233906269E0
2.071758955E0,1.427451491E0,-1.903395057E-1,1.229630232E0
2.073758921E0,1.406071305E0,-1.329181641E-1,1.225354075E0
2.075758854E0,1.367586851E0,-4.373184219E-2,1.209471703E0
2.077758787E0,1.333378315E0,2.504547592E-4,1.189313054E0
2.079758720E0,1.325437188E0,8.191702887E-3,1.175263166E0
2.081758653E0,1.315052390E0,5.137376953E-3,1.150828600E0
2.083758586E0,1.306500196E0,-1.502117608E-2,1.123950601E0
2.085758519E0,1.307722092E0,-2.907107770E-2,1.106235504E0
2.087758452E0,1.305278540E0,-6.266866624E-2,1.070194364E0
2.089758385E0,1.301613331E0,-1.182574034E-1,1.031709790E0
2.091758318E0,1.296726465E0,-1.530767232E-1,1.012773037E0
2.093758184E0,1.298558950E0,-2.233262211E-1,9.718450904E-1
2.095758050E0,1.296115637E0,-2.868562043E-1,9.278627634E-1
2.097757916E0,1.299169898E0,-3.216755390E-1,9.064824581E-1
2.099757782E0,1.293672085E0,-3.858163655E-1,8.618893623E-1
2.101757648E0,1.289396048E0,-4.334638715E-1,8.142418265E-1
2.103757514E0,1.286341667E0,-4.499572515E-1,7.861420512E-1
2.105757380E0,1.271070123E0,-4.774461687E-1,7.403271198E-1
2.107757280E0,1.257630944E0,-4.798896313E-1,6.993991733E-1
2.109757113E0,1.252133250E0,-4.768353105E-1,6.810731888E-1
2.111756946E0,1.231974721E0,-4.438485801E-1,6.425886750E-1
2.113756779E0,1.213037848E0,-3.864272535E-1,6.028824449E-1
2.115756612E0,1.206929207E0,-3.558839858E-1,5.778369904E-1
2.117756445E0,1.175775170E0,-2.996843755E-1,5.332438350E-1
2.119756278E0,1.144010186E0,-2.679193914E-1,4.862071872E-1
2.121756144E0,1.131792903E0,-2.575346828E-1,4.611617029E-1
2.123756010E0,1.093919158E0,-2.502042949E-1,4.196228981E-1
2.125755810E0,1.049936891E0,-2.618107200E-1,3.713645339E-1
2.127755610E0,1.031610847E0,-2.831909955E-1,3.450973332E-1
2.129755410E0,9.802982211E-1,-3.931467533E-1,2.986715734E-1
2.131755210E0,9.302072525E-1,-5.476956964E-1,2.247568667E-1
2.133755010E0,9.021074772E-1,-5.904562473E-1,1.758876443E-1
2.135754810E0,8.538491130E-1,-6.087821722E-1,6.837536395E-2
2.137754610E0,8.233058453E-1,-5.629673004E-1,-4.768902808E-2
2.139754343E0,8.147537112E-1,-5.281479955E-1,-1.069429517E-1
2.141754076E0,7.860431075E-1,-4.597310722E-1,-1.784141809E-1
2.143753809E0,7.347304225E-1,-3.509970605E-1,-2.187312990E-1
2.145753542E0,7.029653788E-1,-2.886888087E-1,-2.358355224E-1
2.147753275E0,5.765162706E-1,-1.121487468E-1,-2.504962981E-1
2.149753008E0,3.975327611E-1,1.438037902E-1,-2.291160077E-1
2.151752741E0,3.248398006E-1,2.647551000E-1,-2.132335007E-1
2.153752541E0,2.442055941E-1,4.351865351E-1,-2.150661051E-1
2.155752274E0,2.258796394E-1,5.133772492E-1,-2.743200362E-1
2.157752007E0,2.240470499E-1,5.213184953E-1,-3.066958785E-1
2.159751740E0,2.228253186E-1,5.121555328E-1,-3.720584810E-1
2.161751473E0,2.148840576E-1,4.742818773E-1,-4.288689196E-1
2.163751206E0,2.014450431E-1,4.522907436E-1,-4.600230753E-1
2.165750939E0,1.519649476E-1,3.857064247E-1,-5.217204690E-1
2.167750672E0,1.012631282E-1,3.026287556E-1,-5.846396089E-1
2.169750472E0,8.660236001E-2,2.989635766E-1,-6.438934803E-1
2.171750205E0,7.499592751E-2,3.496653736E-1,-8.063836694E-1
2.173749938E0,5.361564085E-2,3.783760369E-1,-8.809092641E-1
2.175749671E0,4.200920090E-2,3.899824917E-1,-8.967917562E-1
2.177749404E0,1.329853665E-2,4.309104681E-1,-8.949590921E-1
2.179749137E0,-2.090991847E-2,5.066577196E-1,-9.163393974E-1
2.181748870E0,-3.862500936E-2,5.585812926E-1,-9.383305907E-1
2.183748603E0,-8.749423176E-2,6.587631702E-1,-9.633760452E-1
2.185748403E0,-1.479699016E-1,7.687189579E-1,-9.951410294E-1
2.187748136E0,-1.858435422E-1,8.298054934E-1,-1.026295185E0
2.189747869E0,-2.646451294E-1,9.635849595E-1,-1.098377228E0
2.191747602E0,-3.519988656E-1,1.103473186E0,-1.185730934E0
2.193747335E0,-3.923159838E-1,1.163948774E0,-1.230324149E0
2.195747068E0,-4.778371155E-1,1.311167240E0,-1.351275563E0
2.197746801E0,-5.596930385E-1,1.462051034E0,-1.470394135E0
2.199746601E0,-6.036753654E-1,1.524970055E0,-1.511932969E0
2.201746401E0,-6.879748106E-1,1.677075505E0,-1.563245773E0
2.203746134E0,-7.643329501E-1,1.816352725E0,-1.604784489E0
2.205745867E0,-8.052608371E-1,1.901874065E0,-1.632273436E0
2.207745600E0,-8.730669618E-1,2.075359583E0,-1.721459866E0
2.209745333E0,-9.365969300E-1,2.215247869E0,-1.775826812E0
2.211745066E0,-9.714162350E-1,2.259230137E0,-1.759333491E0
2.213744799E0,-1.032502770E0,2.328257799E0,-1.728179336E0
2.215744599E0,-1.088091612E0,2.406448841E0,-1.745894432E0
2.217744399E0,-1.112526178E0,2.444322348E0,-1.755057335E0
2.219744132E0,-1.168725729E0,2.509073973E0,-1.769718170E0
2.221743865E0,-1.226147056E0,2.610477448E0,-1.810035229E0
2.223743598E0,-1.245694757E0,2.641631842E0,-1.820419908E0
2.225743331E0,-1.308002949E0,2.672785997E0,-1.810035229E0
2.227743064E0,-1.359315634E0,2.691111803E0,-1.788655043E0
2.229742797E0,-1.384972095E0,2.700274944E0,-1.782546282E0
2.231742597E0,-1.408184886E0,2.688668489E0,-1.780102849E0
2.233742330E0,-1.383750200E0,2.610477448E0,-1.761165977E0
2.235742063E0,-1.366646051E0,2.551834583E0,-1.744061708E0
2.237741796E0,-1.330605030E0,2.443711519E0,-1.723292351E0
2.239741529E0,-1.270740271E0,2.317873240E0,-1.695192575E0
2.241741262E0,-1.240807891E0,2.239071608E0,-1.676255703E0
2.243740995E0,-1.180943012E0,2.051535845E0,-1.632884383E0
2.245740728E0,-1.101530552E0,1.837122202E0,-1.577295661E0
2.247740528E0,-1.069765449E0,1.744270802E0,-1.547974110E0
2.249740261E0,-9.915747643E-1,1.532300591E0,-1.498494029E0
2.251739994E0,-9.286556840E-1,1.331325769E0,-1.452068210E0
2.253739727E0,-9.029993415E-1,1.232365608E0,-1.432520509E0
2.255739460E0,-8.492431641E-1,1.028947473E0,-1.400144696E0
2.257739193E0,-7.973196507E-1,8.365249634E-1,-1.379986048E0
2.259738926E0,-7.851023674E-1,7.571125031E-1,-1.366547108E0
2.261738659E0,-7.527264953E-1,5.891245604E-1,-1.353108048E0
2.263738459E0,-7.435634732E-1,4.339647889E-1,-1.345777750E0
2.265738192E0,-7.362331152E-1,3.704347908E-1,-1.346999407E0
2.267737925E0,-7.331787944E-1,2.323792428E-1,-1.349442840E0
2.269737658E0,-7.380657196E-1,1.181474477E-1,-1.357995033E0
2.271737391E0,-7.392874956E-1,6.988909096E-2,-1.372655749E0
2.273737124E0,-7.441743612E-1,-2.174069360E-2,-1.385483861E0
2.275736857E0,-7.625002861E-1,-1.213117316E-1,-1.381207943E0
2.277736590E0,-7.704415917E-1,-1.512441188E-1,-1.375710130E0
2.279736390E0,-7.869349122E-1,-1.408594251E-1,-1.361049294E0
2.281736123E0,-7.967088223E-1,-4.434270784E-2,-1.343945026E0
2.283735856E0,-8.009848595E-1,3.079371713E-2,-1.331727743E0
2.285735589E0,-8.095369339E-1,2.085554898E-1,-1.309736609E0
2.287735322E0,-8.180890679E-1,4.235800803E-1,-1.276749849E0
2.289735055E0,-8.254194260E-1,5.353683829E-1,-1.257202268E0
2.291734788E0,-8.345823884E-1,7.803253531E-1,-1.220550299E0
2.293734588E0,-8.467997313E-1,1.019784570E0,-1.168015838E0
2.295734388E0,-8.510758281E-1,1.143790126E0,-1.140527010E0
2.297734121E0,-8.498540521E-1,1.367977738E0,-1.078218699E0
2.299733854E0,-8.425236940E-1,1.597052217E0,-1.016521335E0
2.301733587E0,-8.400802016E-1,1.694179773E0,-9.871997833E-1
2.303733320E0,-8.351932764E-1,1.866443753E0,-9.242806435E-1
2.305733053E0,-8.248085976E-1,2.009997129E0,-8.570854664E-1
2.307732786E0,-8.205325603E-1,2.065585852E0,-8.198226690E-1
2.309732586E0,-8.046500087E-1,2.157826424E0,-7.391884923E-1
2.311732319E0,-7.771610618E-1,2.228686810E0,-6.591651440E-1
2.313732052E0,-7.600569129E-1,2.254343271E0,-6.164045334E-1
2.315731785E0,-7.179071903E-1,2.299547195E0,-5.485985279E-1
2.317731518E0,-6.696488261E-1,2.298936367E0,-4.734621048E-1
2.319731251E0,-6.372729540E-1,2.287940979E0,-4.392536581E-1
2.321730984E0,-5.633582473E-1,2.223188877E0,-3.677824140E-1
2.323730717E0,-4.662306905E-1,2.157215595E0,-3.024198413E-1
2.325730517E0,-4.112527966E-1,2.123618126E0,-2.712657154E-1
2.327730250E0,-3.025187850E-1,2.028934002E0,-2.059031278E-1
2.329729983E0,-1.748479605E-1,1.915313005E0,-1.368753463E-1
2.331729716E0,-1.088745147E-1,1.843230963E0,-1.002234444E-1
2.333729449E0,6.579018664E-3,1.681351542E0,-1.775663160E-2
2.335729182E0,1.134804413E-1,1.514585495E0,6.104498729E-2
2.337728915E0,1.654039770E-1,1.444335938E0,9.342084825E-2
2.339728648E0,2.643641531E-1,1.287343502E0,1.575616896E-1
2.341728448E0,3.498852849E-1,1.129740238E0,2.174264789E-1
2.343728181E0,3.822611272E-1,1.049716949E0,2.498023510E-1
2.345727914E0,4.439585209E-1,8.945571780E-1,3.218844533E-1
2.347727647E0,5.123754144E-1,7.510038614E-1,3.927448094E-1
2.349727380E0,5.429186821E-1,6.856412292E-1,4.300076067E-1
2.351727113E0,6.150007844E-1,5.286488533E-1,5.045331717E-1
2.353726846E0,6.962459087E-1,3.472219110E-1,5.961629748E-1
2.355726579E0,7.408390641E-1,2.690311670E-1,6.480864882E-1
2.357726379E0,8.373557925E-1,1.169257239E-1,7.739247680E-1
2.359726112E0,9.283747077E-1,-3.395799920E-2,9.089259505E-1
2.361725845E0,9.815199375E-1,-9.932058305E-2,9.785645604E-1
2.363725578E0,1.095140815E0,-2.361543924E-1,1.109900594E0
2.365725311E0,1.201431394E0,-3.699339032E-1,1.237571359E0
2.367725044E0,1.247246385E0,-4.420160055E-1,1.297436237E0
2.369724777E0,1.337043524E0,-5.776280761E-1,1.422663569E0
2.371724577E0,1.380414963E0,-6.387146115E-1,1.484971881E0
2.373724377E0,1.462270856E0,-7.474486232E-1,1.610810041E0
2.375724110E0,1.535574675E0,-8.549608588E-1,1.746422291E0
2.377723843E0,1.567339778E0,-9.252104163E-1,1.820336938E0
2.379723576E0,1.614987135E0,-1.040663958E0,1.969998956E0
2.381723309E0,1.662023783E0,-1.120687246E0,2.119660854E0
2.383723042E0,1.673019409E0,-1.159782648E0,2.192964554E0
2.385722775E0,1.688901901E0,-1.233697414E0,2.323689938E0
2.387722575E0,1.685236692E0,-1.302114248E0,2.437921524E0
2.389722308E0,1.683404207E0,-1.338155270E0,2.488012791E0
2.391722041E0,1.666299939E0,-1.405961275E0,2.566203356E0
2.393721774E0,1.640643597E0,-1.451165438E0,2.618737698E0
2.395721507E0,1.624761105E0,-1.465215206E0,2.635231256E0
2.397721240E0,1.571004868E0,-1.467047811E0,2.668828726E0
2.399720973E0,1.505031466E0,-1.421843886E0,2.698150158E0
2.401720706E0,1.464714408E0,-1.383970261E0,2.710978508E0
2.403720506E0,1.368197680E0,-1.261186242E0,2.732969522E0
2.405720239E0,1.250911474E0,-1.111524343E0,2.769621611E0
2.407719972E0,1.186770678E0,-1.016229272E0,2.795888662E0
2.409719705E0,1.058488965E0,-8.274719119E-1,2.849644661E0
2.411719438E0,9.118812680E-1,-6.301624775E-1,2.911953211E0
2.413719171E0,8.416318297E-1,-5.257045031E-1,2.938831091E0
2.415718904E0,7.096849084E-1,-3.308385015E-1,2.987089634E0
2.417718637E0,5.789597631E-1,-1.347507685E-1,3.041456461E0
2.419718437E0,5.190949440E-1,-4.922962934E-2,3.076886654E0
2.421718170E0,3.999762237E-1,1.315864921E-1,3.167905569E0
2.423717903E0,2.875770330E-1,3.087373972E-1,3.277861357E0
2.425717636E0,2.362643480E-1,3.973128796E-1,3.331006527E0
2.427717369E0,1.293629259E-1,5.683550835E-1,3.437297106E0
2.429717102E0,3.528968245E-2,7.277909517E-1,3.533203125E0
2.431716835E0,-1.052520890E-2,8.047600389E-1,3.568633318E0
2.433716568E0,-8.688335866E-2,9.605306387E-1,3.617502451E0
2.435716368E0,-1.369743198E-1,1.101640463E0,3.612615585E0
2.437716101E0,-1.577437222E-1,1.173111677E0,3.589402676E0
2.439715834E0,-1.693501770E-1,1.298949957E0,3.504492521E0
2.441715567E0,-1.644632518E-1,1.365534306E0,3.400645256E0
2.443715300E0,-1.565220058E-1,1.372864604E0,3.340780497E0
2.445715033E0,-1.278113276E-1,1.333158493E0,3.188675165E0
2.447714766E0,-7.710952312E-2,1.251302481E0,3.009080648E0
2.449714566E0,-5.328577384E-2,1.193881154E0,2.912564039E0
2.451714366E0,2.302962122E-3,1.049106121E0,2.699982882E0
2.453714099E0,5.422651023E-2,8.860050440E-1,2.476406336E0
2.455713832E0,7.682852447E-2,8.017055988E-1,2.364006996E0
2.457713565E0,1.238651425E-1,6.398263574E-1,2.138597727E0
2.459713298E0,1.678474396E-1,4.736710191E-1,1.927238226E0
2.461713031E0,1.849516779E-1,3.795977831E-1,1.834386826E0
2.463712931E0,2.075536847E-1,1.865643561E-1,1.682892203E0
2.465712731E0,2.069428265E-1,-1.502117608E-2,1.579045177E0
2.467712531E0,2.063319534E-1,-1.158139408E-1,1.542393208E0
2.469712264E0,1.977798492E-1,-3.277841806E-1,1.497799993E0
2.471711997E0,1.910603195E-1,-5.397543907E-1,1.478252292E0
2.473711730E0,1.904494613E-1,-6.387146115E-1,1.477030635E0
2.475711463E0,1.983907074E-1,-8.384675384E-1,1.476419806E0
2.477711196E0,2.154949307E-1,-1.021116257E0,1.474587202E0
2.479710929E0,2.191601247E-1,-1.113967776E0,1.475808859E0
2.481710729E0,2.405404001E-1,-1.288064361E0,1.477641463E0
2.483710495E0,2.680293620E-1,-1.460328341E0,1.464813352E0
2.485710261E0,2.814683914E-1,-1.544016838E0,1.457482934E0
2.487710027E0,3.040704131E-1,-1.704674482E0,1.424496174E0
2.489709793E0,3.223963678E-1,-1.859834194E0,1.377459645E0
2.491709559E0,3.260615468E-1,-1.933138013E0,1.353025079E0
2.493709325E0,3.346136510E-1,-2.077913046E0,1.301712275E0
2.495709091E0,3.266724050E-1,-2.234905481E0,1.257119179E0
2.497708924E0,3.187311590E-1,-2.312485456E0,1.236349702E0
2.499708690E0,2.924639583E-1,-2.456649542E0,1.192978263E0
2.501708456E0,2.759705782E-1,-2.565994501E0,1.150217772E0
2.503708222E0,2.759705782E-1,-2.615474701E0,1.130670071E0
2.505707988E0,2.930748165E-1,-2.715656519E0,1.079968214E0
2.507707754E0,3.303375840E-1,-2.771856070E0,1.012162209E0
2.509707520E0,3.682112396E-1,-2.801788330E0,9.681798816E-1
2.511707286E0,4.928277731E-1,-2.804842710E0,8.466176987E-1
2.513707119E0,7.188478708E-1,-2.712602139E0,6.297605634E-1
2.515706885E0,8.678990006E-1,-2.619750500E0,4.746007621E-1
2.517706651E0,1.239305019E0,-2.448097467E0,8.120353520E-2
2.519706417E0,1.632091403E0,-2.312485456E0,-3.903844357E-1
2.521706183E0,1.817794442E0,-2.276444435E0,-6.402283311E-1
2.523705783E0,2.156213760E0,-2.208638191E0,-1.110594630E0
2.525705549E0,2.416442394E0,-2.158547401E0,-1.514987350E0
2.527705315E0,2.523954630E0,-2.131058455E0,-1.689694881E0
2.529705148E0,2.675449133E0,-2.069972038E0,-1.984742641E0
2.531704914E0,2.771355152E0,-1.988116026E0,-2.219925880E0
2.533704680E0,2.789681196E0,-1.938024998E0,-2.320107698E0
2.535704446E0,2.806785345E0,-1.798747659E0,-2.509476185E0
2.537704212E0,2.780518055E0,-1.633203268E0,-2.686626911E0
2.539703978E0,2.742033720E0,-1.540962577E0,-2.767872095E0
2.541703744E0,2.652847052E0,-1.333879232E0,-2.925475121E0
2.543703544E0,2.528230667E0,-1.136569858E0,-3.047648191E0
2.545703344E0,2.450040102E0,-1.063266039E0,-3.094684839E0
2.547703077E0,2.304654121E0,-8.561826348E-1,-3.174708366E0
2.549702810E0,2.148272514E0,-6.417689323E-1,-3.243125200E0
2.551702543E0,2.072525501E0,-5.385327339E-1,-3.274890184E0
2.553702276E0,1.916754603E0,-3.155668676E-1,-3.323148489E0
2.555702009E0,1.762816668E0,-1.054292321E-1,-3.333533287E0
2.557701742E0,1.682793260E0,-7.690793369E-3,-3.326202869E0
2.559701542E0,1.533131242E0,1.627406180E-1,-3.291994333E0
2.561701275E0,1.404238701E0,3.325611651E-1,-3.240070820E0
2.563701008E0,1.344373941E0,4.156388342E-1,-3.204640627E0
2.565700741E0,1.219146490E0,5.408661962E-1,-3.123395443E0
2.567700474E0,1.098195195E0,5.982875228E-1,-3.034209251E0
2.569700207E0,1.041995645E0,6.202787161E-1,-2.987783432E0
2.571699940E0,9.186008573E-1,6.612066627E-1,-2.892488480E0
2.573699673E0,7.945952415E-1,6.685370207E-1,-2.797804356E0
2.575699473E0,7.310652137E-1,6.019526720E-1,-2.745880842E0
2.577699206E0,5.838466883E-1,3.734891117E-1,-2.611490488E0
2.579698939E0,4.396824539E-1,1.431929171E-1,-2.447778463E0
2.581698672E0,3.669894934E-1,4.178928956E-2,-2.364090204E0
2.583698405E0,2.454273254E-1,-1.182574034E-1,-2.184495687E0
2.585698138E0,1.299737990E-1,-2.929648757E-1,-1.997570872E0
2.587697871E0,8.538063616E-2,-3.815403283E-1,-1.903497696E0
2.589697604E0,1.635286398E-2,-5.464739203E-1,-1.704355597E0
2.591697404E0,-6.249151193E-3,-6.527644396E-1,-1.506435156E0
2.593697137E0,-1.174693834E-2,-6.778100133E-1,-1.408696771E0
2.595696870E0,2.490497567E-2,-7.126292586E-1,-1.230935097E0
2.597696603E0,6.338948756E-2,-7.291226387E-1,-1.067223191E0
2.599696336E0,8.965669572E-2,-7.254574299E-1,-9.914758205E-1
2.601696069E0,1.385259032E-1,-7.120184302E-1,-8.583071828E-1
2.603695802E0,1.794538945E-1,-6.820859909E-1,-7.379667163E-1
2.605695535E0,1.928929090E-1,-6.814751625E-1,-6.866540313E-1
2.607695335E0,2.044993639E-1,-6.326059699E-1,-5.956351161E-1
2.609695068E0,2.044993639E-1,-5.739628673E-1,-5.223312974E-1
2.611694801E0,1.977798492E-1,-5.360892415E-1,-4.893445969E-1
2.613694534E0,1.727343649E-1,-4.200248420E-1,-4.374210536E-1
2.615694267E0,1.336389929E-1,-3.216755390E-1,-4.050452113E-1
2.617694000E0,1.110369712E-1,-2.905213833E-1,-3.879409730E-1
2.619693733E0,7.805025578E-2,-2.276022732E-1,-2.908133864E-1
2.621693533E0,5.972429737E-2,-1.353616267E-1,-2.315594703E-1
2.623693333E0,5.850256234E-2,-7.060991973E-2,-2.095683068E-1
2.625693066E0,5.972429737E-2,3.384803981E-2,-1.784141809E-1
2.627692799E0,5.728083476E-2,1.053192765E-1,-1.698620766E-1
2.629692532E0,5.666996911E-2,1.321973354E-1,-1.686403453E-1
2.631692265E0,5.361564085E-2,1.841208935E-1,-1.588664949E-1
2.633691998E0,4.262006655E-2,2.085554898E-1,-1.692512035E-1
2.635691731E0,3.712227941E-2,2.213836610E-1,-1.802467853E-1
2.637691531E0,1.940718852E-2,2.354335785E-1,-2.144552469E-1
2.639691264E0,-3.805690445E-3,2.488726079E-1,-2.676005363E-1
2.641690997E0,-2.029905096E-2,2.366553098E-1,-2.920351326E-1
2.643690730E0,-4.229019955E-2,2.250488549E-1,-3.457912505E-1
2.645690463E0,-8.077470958E-2,2.439856827E-1,-3.879409730E-1
2.647690196E0,-9.360288084E-2,2.390987724E-1,-4.038234651E-1
2.649689929E0,-1.253678799E-1,2.580355704E-1,-4.148190320E-1
2.651689662E0,-1.644632518E-1,3.093482554E-1,-3.971039355E-1
2.653689462E0,-1.772914231E-1,3.362263441E-1,-3.732802272E-1
2.655689195E0,-2.047803551E-1,4.064758420E-1,-3.018089533E-1
2.657688928E0,-2.389888167E-1,5.310923457E-1,-2.144552469E-1
2.659688661E0,-2.560930550E-1,5.811833143E-1,-1.600882262E-1
2.661688394E0,-2.683103383E-1,6.703696251E-1,-5.196508393E-2
2.663688127E0,-2.982427478E-1,8.023165464E-1,6.409931183E-2
2.665687860E0,-2.939666808E-1,8.695117235E-1,1.196880490E-1
2.667687593E0,-3.080165684E-1,9.935173392E-1,2.162047625E-1
2.669687393E0,-2.957992852E-1,1.115079522E0,3.035584986E-1
2.671687126E0,-2.890797853E-1,1.141957641E0,3.328799903E-1
2.673686859E0,-2.762515843E-1,1.214039683E0,3.707536757E-1
2.675686592E0,-2.408214062E-1,1.230533123E0,3.860253096E-1
2.677686325E0,-2.322692871E-1,1.243972063E0,3.860253096E-1
2.679686058E0,-2.090564072E-1,1.286121845E0,3.921339512E-1
2.681685791E0,-2.011151612E-1,1.276958823E0,3.780840337E-1
2.683685524E0,-1.675175726E-1,1.195713758E0,3.334908783E-1
2.685685324E0,-1.204809472E-1,1.047273397E0,2.711826265E-1
2.687685057E0,-9.360288084E-2,9.629740715E-1,2.357524484E-1
2.689684790E0,-4.900971800E-2,7.852122784E-1,1.575616896E-1
2.691684523E0,-3.805690445E-3,5.793507099E-1,7.387315482E-2
2.693684256E0,2.368324436E-2,4.730601609E-1,3.844296932E-2
2.695683989E0,7.010900229E-2,2.549812496E-1,-2.814134024E-2
2.697683722E0,8.293717355E-2,-7.079928182E-3,-7.395622879E-2
2.699683522E0,7.682852447E-2,-1.549093127E-1,-9.167132527E-2
2.701683322E0,3.651141748E-2,-4.817222357E-1,-1.228254512E-1
2.703683055E0,-1.785559021E-2,-7.480594516E-1,-1.405405402E-1
2.705682788E0,-3.068376146E-2,-8.293045759E-1,-1.509252489E-1
2.707682521E0,-2.029905096E-2,-8.690108061E-1,-1.851337105E-1
2.709682254E0,1.207680628E-2,-8.146438003E-1,-2.156769782E-1
2.711681987E0,3.223535791E-2,-7.810462117E-1,-2.211747617E-1
2.713681720E0,7.621765882E-2,-7.126292586E-1,-2.315594703E-1
2.715681520E0,1.140912995E-1,-6.625383496E-1,-2.162878364E-1
2.717681320E0,1.366933137E-1,-6.405471563E-1,-2.022379339E-1
2.719681053E0,1.702909023E-1,-6.136691570E-1,-1.649751514E-1
2.721680786E0,2.002232969E-1,-5.935105681E-1,-1.264906526E-1
2.723680519E0,2.130514681E-1,-5.751846433E-1,-1.099972874E-1
2.725680252E0,2.417621315E-1,-5.318131447E-1,-7.273450494E-2
2.727679985E0,2.729162574E-1,-4.542332888E-1,-4.402383789E-2
2.729679718E0,2.912422121E-1,-3.992553949E-1,-3.119566664E-2
2.731679518E0,3.254506886E-1,-2.654759288E-1,-1.042624749E-2
2.733679251E0,3.578265309E-1,-1.121487468E-1,4.234517924E-3
2.735678984E0,3.755416274E-1,-2.846021205E-2,1.339749619E-2
2.737678717E0,4.042522907E-1,1.383060068E-1,2.378220484E-2
2.739678450E0,4.280760586E-1,3.185112476E-1,2.989085764E-2
2.741678183E0,4.402933419E-1,4.076975584E-1,2.805826254E-2
2.743677916E0,4.696148634E-1,5.481966138E-1,3.294518217E-2
2.745677649E0,4.964929521E-1,6.477676630E-1,3.477777913E-2
2.747677449E0,5.099319816E-1,6.893064380E-1,3.355604783E-2
2.749677182E0,5.319231749E-1,7.705515027E-1,2.927999385E-2
2.751676915E0,5.423078537E-1,8.493531346E-1,1.767355390E-2
2.753676648E0,5.429186821E-1,8.951680064E-1,1.278663147E-2
2.755676381E0,5.374208689E-1,9.794674516E-1,-1.263269340E-3
2.757676114E0,5.123754144E-1,1.055825591E0,-1.958922669E-2
2.759675847E0,4.983255267E-1,1.091255784E0,-2.936307155E-2
2.761675580E0,4.635062218E-1,1.173111677E0,-5.440854654E-2
2.763675380E0,4.268543124E-1,1.320330143E0,-1.014451683E-1
2.765675113E0,4.048631489E-1,1.393634081E0,-1.380970925E-1
2.767674846E0,3.401114643E-1,1.437616348E0,-2.004053295E-1
2.769674579E0,2.692510784E-1,1.458385706E0,-2.034596652E-1
2.771674312E0,2.374860793E-1,1.478544354E0,-2.004053295E-1
2.773674045E0,1.739560962E-1,1.562843800E0,-2.089574635E-1
2.775673778E0,1.104261130E-1,1.706397057E0,-2.211747617E-1
2.777673511E0,7.866111398E-2,1.772370458E0,-2.291160077E-1
2.779673311E0,9.022479877E-3,1.890878439E0,-2.468311042E-1
2.781673044E0,-7.161173224E-2,1.961738825E0,-2.718765736E-1
2.783672777E0,-1.155940294E-1,1.972123384E0,-2.865373492E-1
2.785672510E0,-2.017260343E-1,1.938525915E0,-3.183023334E-1
2.787672243E0,-2.933557928E-1,1.844452620E0,-3.482347429E-1
2.789671976E0,-3.391707242E-1,1.780311823E0,-3.628955185E-1
2.791671709E0,-4.277461767E-1,1.630649805E0,-3.940496147E-1
2.793671509E0,-5.169324875E-1,1.457164049E0,-4.264254868E-1
2.795671309E0,-5.560278893E-1,1.367977738E0,-4.398645163E-1
2.797671042E0,-6.378837824E-1,1.178609490E0,-4.630773962E-1
2.799670775E0,-7.105767727E-1,9.898521900E-1,-4.746838510E-1
2.801670508E0,-7.466178536E-1,8.927245736E-1,-4.734621048E-1
2.803670241E0,-8.132021427E-1,7.277909517E-1,-4.569687545E-1
2.805669974E0,-8.718451858E-1,5.811833143E-1,-4.215385318E-1
2.807669707E0,-8.950580955E-1,5.115447044E-1,-3.983256817E-1
2.809669507E0,-9.365969300E-1,3.802086413E-1,-3.390717506E-1
2.811669240E0,-9.708053470E-1,2.476508766E-1,-2.743200362E-1
2.813668973E0,-9.842444062E-1,1.804556996E-1,-2.382789850E-1
2.815668706E0,-1.005624652E0,4.362188652E-2,-1.643642932E-1
2.817668439E0,-1.016620278E0,-9.199019521E-2,-9.777997434E-2
2.819668172E0,-1.016620278E0,-1.579636335E-1,-6.906931102E-2
2.821667905E0,-1.008679032E0,-2.825801373E-1,-1.836749725E-2
2.823667638E0,-9.818009734E-1,-3.980336785E-1,2.072787844E-2
2.825667438E0,-9.604206681E-1,-4.615636468E-1,3.294518217E-2
2.827667171E0,-9.188818336E-1,-5.757954717E-1,4.699508846E-2
2.829666904E0,-8.736777902E-1,-6.552079320E-1,5.004941300E-2
2.831666637E0,-8.492431641E-1,-6.723122001E-1,4.699508846E-2
2.833666370E0,-8.046500087E-1,-6.808643341E-1,4.516249150E-2
2.835666103E0,-7.600569129E-1,-6.710904837E-1,4.027556628E-2
2.837665836E0,-7.429526448E-1,-6.527644396E-1,3.416691720E-2
2.839665569E0,-7.063007355E-1,-5.867910385E-1,1.645182259E-2
2.841665369E0,-6.635401845E-1,-4.908851981E-1,-7.982786745E-3
2.843665102E0,-6.415489912E-1,-4.322421253E-1,-2.203268744E-2
2.845664835E0,-5.914580822E-1,-3.161777258E-1,-4.829989374E-2
2.847664568E0,-5.315932631E-1,-1.988916099E-1,-7.578882575E-2
2.849664301E0,-5.065478086E-1,-1.414702833E-1,-9.044959396E-2
2.851664034E0,-4.448504150E-1,-5.289481953E-2,-1.142733395E-1
2.853663767E0,-3.794878125E-1,2.651765943E-2,-1.332101524E-1
2.855663500E0,-3.507771492E-1,5.339573324E-2,-1.429840028E-1
2.857663300E0,-2.848037183E-1,9.859976172E-2,-1.576447785E-1
2.859663033E0,-2.273823768E-1,1.346408129E-1,-1.753598601E-1
2.861662766E0,-1.998934299E-1,1.401385963E-1,-1.839119792E-1
2.863662499E0,-1.430829614E-1,1.633514762E-1,-2.016270757E-1
2.865662232E0,-8.810509741E-2,1.731253266E-1,-2.236182243E-1
2.867661965E0,-5.939442664E-2,1.786231101E-1,-2.309486121E-1
2.869661698E0,-7.470882032E-3,1.853426248E-1,-2.456093580E-1
2.871661498E0,4.811785370E-2,1.896186769E-1,-2.578266561E-1
2.873661298E0,7.438506186E-2,1.883969605E-1,-2.621027231E-1
2.874694994E0,1.250868738E-1,1.859534979E-1,-2.724874318E-1
2.876694727E0,1.794538945E-1,1.743470430E-1,-2.792069614E-1
2.878694460E0,2.038884908E-1,1.700710058E-1,-2.847047448E-1
2.880694193E0,2.533685863E-1,1.609080136E-1,-2.914242446E-1
2.882693926E0,3.016269207E-1,1.456363797E-1,-2.969220579E-1
2.884693659E0,3.230071962E-1,1.376951337E-1,-2.993655205E-1
2.886693459E0,3.657677770E-1,1.144822538E-1,-3.005872369E-1
2.888693225E0,4.054740369E-1,9.310197085E-2,-3.195240498E-1
2.890692991E0,4.244108498E-1,8.149553090E-2,-3.360174298E-1
2.892692757E0,4.604519010E-1,4.973054305E-2,-3.616737723E-1
2.894692523E0,4.830539227E-1,2.896112017E-2,-3.628955185E-1
2.896692289E0,4.824430645E-1,2.693915740E-3,-3.628955185E-1
2.898692055E0,4.580084085E-1,-5.778174102E-2,-3.787779808E-1
2.900691821E0,4.317412376E-1,-1.133704856E-1,-4.325341284E-1
2.902691654E0,4.360172749E-1,-1.286421120E-1,-4.697968960E-1
2.904691420E0,4.457911253E-1,-1.249769181E-1,-5.406572819E-1
2.906691186E0,4.683931470E-1,-9.687712044E-2,-6.047981381E-1
2.908690952E0,4.799995720E-1,-8.710327744E-2,-6.426717639E-1
2.910690718E0,5.001581311E-1,-8.465981483E-2,-7.263602614E-1
2.912690484E0,5.215383768E-1,-9.626624733E-2,-8.186009526E-1
2.914690250E0,5.331448317E-1,-9.687712044E-2,-8.693028092E-1
2.916690016E0,5.642989874E-1,-1.103161573E-1,-9.768150449E-1
2.918689849E0,6.278289557E-1,-7.427510619E-2,-1.092268586E0
2.920689615E0,6.687569618E-1,-3.945578635E-2,-1.149689913E0
2.922689381E0,7.787126899E-1,7.111082226E-2,-1.263921738E0
2.924689147E0,9.240986109E-1,2.415422201E-1,-1.372044921E0
2.926688913E0,1.020004511E0,3.514979780E-1,-1.430077076E0
2.928688679E0,1.139734030E0,4.950512946E-1,-1.477113605E0
2.930688445E0,1.212427020E0,5.524726510E-1,-1.478946328E0
2.932688211E0,1.230752945E0,5.500291586E-1,-1.461231232E0
2.934688077E0,1.233807206E0,5.115447044E-1,-1.401977301E0
2.936687843E0,1.228920460E0,4.687840939E-1,-1.345777750E0
2.938687609E0,1.237472534E0,4.474038184E-1,-1.317067027E0
2.940687375E0,1.274124384E0,4.217474759E-1,-1.257813096E0
2.942687141E0,1.332156658E0,4.205257595E-1,-1.204056859E0
2.944686907E0,1.360867262E0,4.321321845E-1,-1.175346255E0
2.946686673E0,1.419510365E0,4.510689974E-1,-1.124033570E0
2.948686473E0,1.460438371E0,4.529016018E-1,-1.066612363E0
2.950686273E0,1.470823050E0,4.461821020E-1,-1.042177558E0
2.952686006E0,1.484872937E0,4.095301926E-1,-1.006747484E0
2.954685739E0,1.475099087E0,3.392806649E-1,-9.829236865E-1
2.956685472E0,1.466547012E0,2.983526886E-1,-9.737607241E-1
2.958685205E0,1.443944931E0,2.012251168E-1,-9.615434408E-1
2.960684938E0,1.395075679E0,8.638245612E-2,-9.566565156E-1
2.962684671E0,1.364532471E0,1.918727718E-2,-9.517695904E-1
2.964684471E0,1.306500196E0,-1.078726947E-1,-9.383305907E-1
2.966684271E0,1.243581176E0,-2.318783402E-1,-9.157285094E-1
2.968684004E0,1.201431394E0,-2.850236297E-1,-9.022895098E-1
2.970683737E0,1.125684261E0,-3.705447316E-1,-8.650267124E-1
2.972683470E0,1.007176280E0,-3.998662829E-1,-8.051619530E-1
2.974683203E0,9.442571402E-1,-4.023097456E-1,-7.654556632E-1
2.976682936E0,8.013147116E-1,-4.041423202E-1,-6.573325396E-1
2.978682669E0,6.400462389E-1,-3.742099404E-1,-5.186661482E-1
2.980682469E0,5.655207038E-1,-3.626035154E-1,-4.490275085E-1
2.982682202E0,4.335738122E-1,-3.039604425E-1,-2.859264910E-1
2.984681935E0,3.168985546E-1,-2.367652655E-1,-1.099972874E-1
2.986681668E0,2.606989741E-1,-1.854525805E-1,-1.164797880E-2
2.988681401E0,1.678474396E-1,-1.213117316E-1,2.027657181E-1
2.990681134E0,9.698707610E-2,-7.977289706E-2,3.169975281E-1
2.992680867E0,6.400035322E-2,5.137376953E-3,5.631762147E-1
2.994680600E0,1.207680628E-2,6.072611362E-2,8.191288114E-1
2.996680400E0,-7.470882032E-3,6.561303884E-2,9.510756135E-1
2.998680133E0,-5.023144931E-2,3.812409937E-2,1.217412829E0
3.000679866E0,-6.794653833E-2,-2.174069360E-2,1.466645837E0
3.002679599E0,-7.649865746E-2,-3.945578635E-2,1.580266833E0
3.004679332E0,-7.772038132E-2,-1.408594251E-1,1.794069648E0
3.006679065E0,-6.550308317E-2,-2.764714956E-1,1.973664045E0
3.008678798E0,-6.489221007E-2,-3.516079485E-1,2.041470051E0
3.010678531E0,-8.016385138E-2,-5.018807650E-1,2.153869390E0
3.012678331E0,-9.115942568E-2,-6.863620877E-1,2.216177464E0
3.014678064E0,-1.137614399E-1,-7.621093988E-1,2.229616642E0
3.016677797E0,-1.284222007E-1,-9.221560955E-1,2.227173090E0
3.018677530E0,-1.369743198E-1,-1.065098524E0,2.188077927E0
3.020677263E0,-1.571328789E-1,-1.126795888E0,2.161810637E0
3.022676996E0,-1.846217960E-1,-1.231864691E0,2.104389191E0
3.024676729E0,-1.925630420E-1,-1.310055494E0,2.048189640E0
3.026676462E0,-2.011151612E-1,-1.331435800E0,2.014591932E0
3.028676262E0,-2.121107280E-1,-1.366255164E0,1.947396874E0
3.030675995E0,-2.444866002E-1,-1.383970261E0,1.874093056E0
3.032675728E0,-2.664777637E-1,-1.377861619E0,1.841106296E0
3.034675461E0,-2.866362929E-1,-1.369309425E0,1.781852365E0
3.036675194E0,-3.129034936E-1,-1.336933613E0,1.729928851E0
3.038674927E0,-3.147361279E-1,-1.344874740E0,1.712824583E0
3.040674660E0,-3.324511945E-1,-1.305168629E0,1.687779188E0
3.042674460E0,-3.544423580E-1,-1.258742809E0,1.675561786E0
3.044674260E0,-3.739900291E-1,-1.235529900E0,1.668231487E0
3.046673993E0,-4.185831845E-1,-1.153063059E0,1.656014204E0
3.048673726E0,-4.802805781E-1,-1.034555316E0,1.640742540E0
3.050673459E0,-5.144889951E-1,-9.869077802E-1,1.634633899E0
3.052673192E0,-5.761864185E-1,-9.142148495E-1,1.641353369E0
3.054672925E0,-6.672053337E-1,-9.068844318E-1,1.670674920E0
3.056672658E0,-7.166854143E-1,-9.111604691E-1,1.692666054E0
3.058672458E0,-8.028174639E-1,-9.612514377E-1,1.768413305E0
3.060672191E0,-8.920037746E-1,-1.039442182E0,1.862486601E0
3.062671924E0,-9.213253260E-1,-1.076094151E0,1.919907928E0
3.064671657E0,-9.915747643E-1,-1.200710535E0,2.054909229E0
3.066671390E0,-1.023339748E0,-1.321051002E0,2.201516867E0
3.068671123E0,-1.039833188E0,-1.385191917E0,2.276653290E0
3.070670856E0,-1.044720054E0,-1.492093325E0,2.428147793E0
3.072670589E0,-1.032502770E0,-1.617320657E0,2.571701288E0
3.074670389E0,-1.013565898E0,-1.660692096E0,2.634620428E0
3.076670122E0,-9.427055717E-1,-1.758430600E0,2.745797873E0
3.078669855E0,-8.339715600E-1,-1.819517136E0,2.818490744E0
3.080669588E0,-7.655546069E-1,-1.842729926E0,2.844757795E0
3.082669321E0,-5.859602690E-1,-1.841508269E0,2.861251116E0
3.084669054E0,-3.910942674E-1,-1.782865286E0,2.852088451E0
3.086668787E0,-2.774733305E-1,-1.724833012E0,2.835594893E0
3.088668520E0,-9.303477593E-3,-1.569062352E0,2.780006170E0
3.090668320E0,2.631424367E-1,-1.391911507E0,2.696317673E0
3.092668086E0,3.902024031E-1,-1.273403525E0,2.648670197E0
3.094667852E0,6.907480955E-1,-9.905729890E-1,2.547877550E0
3.096667618E0,9.625831246E-1,-7.468377948E-1,2.434867382E0
3.098667384E0,1.087199569E0,-5.910670757E-1,2.379889488E0
3.100667150E0,1.272291780E0,-2.618107200E-1,2.266879320E0
3.102666916E0,1.506253123E0,7.599774003E-2,2.133710623E0
3.104666682E0,1.602159023E0,2.415422201E-1,2.075067520E0
3.106666515E0,1.734716773E0,6.471567154E-1,1.979772687E0
3.108666315E0,1.868496299E0,1.031391025E0,1.899749398E0
3.110666115E0,1.888044000E0,1.236641765E0,1.878979921E0
3.112665915E0,2.008384466E0,1.634314895E0,1.863708377E0
3.114665715E0,2.064584017E0,2.084522724E0,1.846604109E0
3.116665515E0,2.087796926E0,2.309931993E0,1.815449953E0
3.118665315E0,2.132390022E0,2.763193846E0,1.654181480E0
3.120665181E0,2.138498783E0,3.132767439E0,1.318816543E0
3.122665047E0,2.123837948E0,3.306253195E0,1.089131236E0
3.124664913E0,1.947908759E0,3.602522612E0,5.558457971E-1
3.126664779E0,1.659580350E0,3.871914387E0,4.027556628E-2
3.128664645E0,1.495868564E0,3.983091831E0,-1.924640983E-1
3.130664511E0,1.189824939E0,4.166351795E0,-6.353413463E-1
3.132664377E0,9.106596112E-1,4.195672989E0,-9.719281793E-1
3.134664243E0,7.805452943E-1,4.140695095E0,-1.080051303E0
3.136664176E0,5.691859126E-1,3.861529827E0,-1.177178860E0
3.138664109E0,4.237999916E-1,3.447363138E0,-1.131974816E0
3.140663975E0,3.773742318E-1,3.224397182E0,-1.063557982E0
3.142663841E0,3.199528754E-1,2.802289248E0,-8.815200925E-1
3.144663707E0,3.010160625E-1,2.366131544E0,-6.622194648E-1
3.146663573E0,2.973508537E-1,2.134002686E0,-5.485985279E-1
3.148663439E0,3.034595251E-1,1.628206253E0,-3.299087882E-1
3.150663305E0,3.168985546E-1,1.124853373E0,-1.264906526E-1
3.152663205E0,3.211746216E-1,8.774529696E-1,-3.730431572E-2
3.154663038E0,3.419440389E-1,4.504581392E-1,1.178554520E-1
3.156662871E0,3.511070311E-1,1.010432169E-1,2.369741797E-1
3.158662704E0,3.566047847E-1,-3.640145808E-2,2.840107977E-1
3.160662537E0,3.572156727E-1,-2.300457507E-1,3.328799903E-1
3.162662370E0,3.425548971E-1,-3.204537928E-1,3.249387741E-1
3.164662203E0,3.358353972E-1,-3.326711059E-1,3.011150062E-1
3.166662036E0,3.046812415E-1,-3.180103600E-1,2.326981127E-1
3.168661902E0,2.765814662E-1,-2.618107200E-1,1.477878541E-1
3.170661702E0,2.582554817E-1,-2.294348776E-1,1.068598777E-1
3.172661502E0,2.289339751E-1,-1.555201858E-1,3.172345459E-2
3.174661302E0,2.008341700E-1,-8.710327744E-2,-2.203268744E-2
3.176661102E0,1.867842674E-1,-5.717087910E-2,-3.791518509E-2
3.178660902E0,1.635713875E-1,-5.247332621E-3,-4.891075939E-2
3.180660702E0,1.360824406E-1,3.079371713E-2,-5.013248697E-2
3.182660502E0,1.287520826E-1,4.362188652E-2,-5.074335635E-2
3.184660302E0,1.092043743E-1,5.400659516E-2,-3.852605075E-2
3.186660035E0,9.881967306E-2,4.240015894E-2,-2.875220403E-2
3.188659768E0,8.904583007E-2,3.079371713E-2,-2.264355309E-2
3.190659501E0,7.927197963E-2,8.613200043E-4,-7.371922024E-3
3.192659234E0,7.255246490E-2,-3.029280715E-2,4.234517924E-3
3.194658967E0,6.705468148E-2,-4.067751765E-2,1.156490017E-2
3.196658700E0,5.483737215E-2,-5.900347605E-2,2.500393614E-2
3.198658433E0,4.323093593E-2,-5.839261040E-2,3.233432025E-2
3.200658233E0,3.834401444E-2,-5.472741649E-2,3.477777913E-2
3.202657966E0,3.040276282E-2,-3.090367280E-2,3.966470435E-2
3.204657699E0,1.098152474E-1,1.034866795E-1,2.989085764E-2
3.206657432E0,2.991834581E-1,3.496653736E-1,1.095403545E-2
3.208657165E0,6.644809246E-1,8.750094771E-1,-8.593652397E-3
3.210656898E0,7.903191447E-1,1.082092762E0,4.234517924E-3
3.212656631E0,8.159754872E-1,1.124853373E0,2.256047353E-2
3.214656431E0,7.866539359E-1,1.174333453E0,4.577335343E-2
3.216656231E0,6.400462389E-1,1.049716949E0,5.676892772E-2
3.218655964E0,5.343665481E-1,9.257112741E-1,6.104498729E-2
3.220655697E0,3.559939265E-1,7.204605937E-1,5.737979338E-2
3.222655430E0,2.344317585E-1,5.628573895E-1,3.844296932E-2
3.224655163E0,1.916711926E-1,4.974947572E-1,2.500393614E-2
3.226654896E0,8.232630789E-2,3.295068443E-1,1.095403545E-2
3.228654629E0,1.146594062E-2,1.847317666E-1,-5.539325997E-3
3.230654429E0,-2.946203016E-2,1.071518734E-1,-1.225884352E-2
3.232654162E0,-1.394177675E-1,-9.137933701E-2,-2.508701384E-2
3.234653895E0,-2.279932350E-1,-2.557020783E-1,-3.608258814E-2
3.236653628E0,-2.805276513E-1,-3.406123519E-1,-4.158037528E-2
3.238653361E0,-3.825421333E-1,-5.140981078E-1,-5.196508393E-2
3.240653094E0,-4.735610783E-1,-6.637600660E-1,-5.990633368E-2
3.242652827E0,-5.132673383E-1,-7.401182055E-1,-6.418238580E-2
3.244652560E0,-5.761864185E-1,-8.659564853E-1,-7.090190798E-2
3.246652360E0,-6.183361411E-1,-9.759122133E-1,-7.945401967E-2
3.248652093E0,-6.342186332E-1,-1.022948861E0,-8.250834793E-2
3.250651826E0,-6.525445580E-1,-1.103582978E0,-8.922787011E-2
3.252651559E0,-6.519337296E-1,-1.156117439E0,-9.289305657E-2
3.254651292E0,-6.403272748E-1,-1.170167327E0,-9.167132527E-2
3.256651025E0,-6.158926487E-1,-1.176886797E0,-9.167132527E-2
3.258650758E0,-5.780190229E-1,-1.161004424E0,-8.617354184E-2
3.260650491E0,-5.535843968E-1,-1.134126306E0,-8.373007923E-2
3.262650291E0,-5.047152042E-1,-1.063266039E0,-7.212363183E-2
3.264650024E0,-4.503481686E-1,-9.636948705E-1,-6.601498276E-2
3.266649757E0,-4.259135723E-1,-9.044409990E-1,-6.051719561E-2
3.268649490E0,-3.715465665E-1,-7.663854361E-1,-5.135421827E-2
3.270649223E0,-3.245099485E-1,-6.216103435E-1,-4.646729678E-2
3.272648956E0,-2.970210016E-1,-5.483065248E-1,-4.707816243E-2
3.274648689E0,-2.475409210E-1,-3.943684995E-1,-4.035864770E-2
3.276648422E0,-1.974499673E-1,-2.440956384E-1,-3.974777833E-2
3.278648222E0,-1.687393039E-1,-1.714026779E-1,-3.302826360E-2
3.280647955E0,-1.186483502E-1,-2.540588565E-2,-1.958922669E-2
3.282647688E0,-6.672480702E-2,1.059301421E-1,-9.204517119E-3
3.284647421E0,-4.167933762E-2,1.694601327E-1,-4.153883856E-5
3.286647154E0,5.357288290E-3,2.836919129E-1,1.645182259E-2
3.288646887E0,4.445266351E-2,3.881498575E-1,3.050172515E-2
3.290646620E0,7.010900229E-2,4.406842887E-1,3.355604783E-2
3.292646420E0,1.189782247E-1,5.433096290E-1,3.783210739E-2
3.294646220E0,1.654039770E-1,6.239438653E-1,4.088643193E-2
3.296645953E0,1.892277151E-1,6.612066627E-1,4.149729759E-2
3.298645686E0,2.374860793E-1,7.253474593E-1,3.905383497E-2
3.300645419E0,2.863553166E-1,7.693297863E-1,3.538864478E-2
3.302645152E0,3.120116293E-1,7.894883156E-1,3.172345459E-2
3.304644885E0,3.639351726E-1,8.120903969E-1,2.622566558E-2
3.306644618E0,3.877589405E-1,8.151447177E-1,2.256047353E-2
3.308644418E0,4.354064465E-1,7.949861288E-1,1.278663147E-2
3.310644151E0,4.861082435E-1,7.552798986E-1,6.677979138E-3
3.312643884E0,5.068776608E-1,7.229040265E-1,1.791056828E-3
3.314643617E0,5.441404581E-1,6.538763046E-1,-1.874134527E-3
3.316643350E0,5.734619498E-1,5.756855011E-1,-9.204517119E-3
3.318643083E0,5.814031959E-1,5.341466665E-1,-9.815382771E-3
3.320642816E0,6.040052772E-1,4.559559226E-1,-2.020009235E-2
3.322642549E0,6.143899560E-1,3.832629621E-1,-2.386528440E-2
3.324642349E0,6.204985976E-1,3.533305526E-1,-2.814134024E-2
3.326642082E0,6.204985976E-1,2.983526886E-1,-3.791518509E-2
3.328641815E0,6.009509563E-1,2.464291602E-1,-4.158037528E-2
3.330641548E0,5.881227255E-1,2.201619446E-1,-4.341297224E-2
3.332641281E0,5.533034205E-1,1.755687892E-1,-4.891075939E-2
3.334641014E0,5.080993772E-1,1.321973354E-1,-5.257594958E-2
3.336640747E0,4.818321764E-1,1.193691790E-1,-5.501940846E-2
3.338640480E0,4.250217080E-1,8.699331433E-2,-5.929546803E-2
3.340640280E0,3.614917397E-1,6.866735965E-2,-5.990633368E-2
3.342640013E0,3.272832632E-1,5.461746082E-2,-6.296066195E-2
3.344639746E0,2.576446235E-1,4.667621106E-2,-6.357152760E-2
3.346639479E0,1.898385882E-1,4.301102087E-2,-6.357152760E-2
3.348639212E0,1.568518728E-1,3.873496503E-2,-6.357152760E-2
3.350638945E0,9.454362094E-2,4.362188652E-2,-6.357152760E-2
3.352638678E0,4.811785370E-2,6.561303884E-2,-5.746287107E-2
3.354638411E0,2.429411188E-2,7.233255357E-2,-5.746287107E-2
3.356638211E0,-1.602299511E-2,9.065850824E-2,-5.257594958E-2
3.358637944E0,-5.450750887E-2,1.114279330E-1,-4.402383789E-2
3.360637677E0,-7.161173224E-2,1.175365821E-1,-4.280210659E-2
3.362637410E0,-9.787894040E-2,1.328082085E-1,-3.608258814E-2
3.364637143E0,-1.174266264E-1,1.419711858E-1,-3.058480099E-2
3.366636876E0,-1.272004694E-1,1.493015736E-1,-2.753047645E-2
3.368636609E0,-1.418612301E-1,1.554102302E-1,-2.264355309E-2
3.370636409E0,-1.534676850E-1,1.596862823E-1,-1.714576595E-2
3.372636209E0,-1.553002745E-1,1.596862823E-1,-1.409143955E-2
3.374635942E0,-1.607980579E-1,1.621297449E-1,-9.204517119E-3
3.376635675E0,-1.601871997E-1,1.639623344E-1,-4.317595623E-3
3.378635408E0,-1.595763266E-1,1.609080136E-1,-3.706730437E-3
3.380635141E0,-1.565220058E-1,1.627406180E-1,1.180191641E-3
3.382634874E0,-1.559111327E-1,1.621297449E-1,4.234517924E-3
3.384634607E0,-1.510242224E-1,1.621297449E-1,6.677979138E-3
3.386634407E0,-1.424721032E-1,1.615188718E-1,7.899709046E-3
3.388634207E0,-1.333091259E-1,1.596862823E-1,4.234517924E-3
3.390633940E0,-1.296439320E-1,1.572428346E-1,8.510574698E-3
3.392633673E0,-1.137614399E-1,1.535776407E-1,9.121440351E-3
3.394633406E0,-9.848980606E-2,1.517450362E-1,1.034316979E-2
3.396633139E0,-9.054855257E-2,1.456363797E-1,1.095403545E-2
3.398632872E0,-7.039000094E-2,1.334190816E-1,1.156490017E-2
3.400632605E0,-5.084231496E-2,1.285321563E-1,1.095403545E-2
3.402632405E0,-4.106846824E-2,1.273104250E-1,9.732305072E-3
3.404632138E0,-2.029905096E-2,1.254778355E-1,7.899709046E-3
3.406631871E0,1.081231516E-3,1.187583134E-1,8.510574698E-3
3.408631604E0,1.207680628E-2,1.193691790E-1,9.121440351E-3
3.410631337E0,3.040276282E-2,1.157039851E-1,1.034316979E-2
3.412631070E0,5.239391327E-2,1.102062017E-1,6.067113485E-3
3.414630803E0,6.461121142E-2,1.095953360E-1,7.899709046E-3
3.416630536E0,8.599150181E-2,1.071518734E-1,1.095403545E-2
3.418630336E0,1.073717773E-1,1.053192765E-1,1.217576582E-2
3.420630069E0,1.153130308E-1,1.047084108E-1,1.339749619E-2
3.422629802E0,1.336389929E-1,1.034866795E-1,1.217576582E-2
3.424629535E0,1.489106119E-1,1.102062017E-1,1.339749619E-2
3.426629268E0,1.586844623E-1,1.138713881E-1,1.461922750E-2
3.428629001E0,1.696800441E-1,1.120387986E-1,1.828441769E-2
3.430628734E0,1.794538945E-1,1.236452311E-1,1.950614899E-2
3.432628467E0,1.855625361E-1,1.254778355E-1,2.011701465E-2
3.434628267E0,1.922820657E-1,1.334190816E-1,2.500393614E-2
3.436628000E0,1.996124387E-1,1.413603276E-1,2.622566558E-2
3.438627733E0,2.038884908E-1,1.444146633E-1,2.683653310E-2
3.440627466E0,2.093862742E-1,1.584645510E-1,3.050172515E-2
3.442627199E0,2.112188786E-1,1.627406180E-1,3.661037609E-2
3.444626932E0,2.112188786E-1,1.712927222E-1,3.844296932E-2
3.446626665E0,2.112188786E-1,1.822883040E-1,4.271902889E-2
3.448626398E0,2.148840576E-1,1.932838708E-1,4.821681604E-2
3.450626198E0,2.130514681E-1,1.963381916E-1,5.127114058E-2
3.452625931E0,2.112188786E-1,2.042794526E-1,5.615806207E-2
3.454625664E0,2.124406099E-1,2.164967507E-1,5.982325226E-2
3.456625397E0,2.142732143E-1,2.183293402E-1,6.471017748E-2
3.458625130E0,2.112188786E-1,2.201619446E-1,7.081883401E-2
3.460624863E0,2.093862742E-1,2.299357951E-1,7.631661743E-2
3.462624596E0,2.081645578E-1,2.305466533E-1,7.753834873E-2
3.464624396E0,2.087754160E-1,2.336009890E-1,8.486872911E-2
3.466624196E0,2.063319534E-1,2.372661680E-1,8.975565434E-2
3.468623929E0,2.038884908E-1,2.317683846E-1,9.403170645E-2
3.470623662E0,2.002232969E-1,2.287140489E-1,1.007512286E-1
3.472623395E0,1.947255135E-1,2.299357951E-1,1.062490195E-1
3.474623128E0,1.935037822E-1,2.268814594E-1,1.086924747E-1
3.476622861E0,1.880059987E-1,2.293249220E-1,1.154119968E-1
3.478622594E0,1.867842674E-1,2.238271385E-1,1.196880490E-1
3.480622394E0,1.849516779E-1,2.238271385E-1,1.245749742E-1
3.482622127E0,1.861733943E-1,2.244379967E-1,1.306836307E-1
3.484621860E0,1.843408048E-1,2.213836610E-1,1.392357349E-1
3.486621593E0,1.843408048E-1,2.232162654E-1,1.416791975E-1
3.488621326E0,1.861733943E-1,2.262706012E-1,1.477878541E-1
3.490621059E0,1.910603195E-1,2.317683846E-1,1.551182419E-1
3.492620792E0,1.916711926E-1,2.378770262E-1,1.557291001E-1
3.494620525E0,1.965581030E-1,2.421530932E-1,1.618377566E-1
3.496620325E0,2.002232969E-1,2.525377870E-1,1.655029505E-1
3.498620058E0,2.014450431E-1,2.592573166E-1,1.661138088E-1
3.500619791E0,2.063319534E-1,2.702529132E-1,1.667246670E-1
3.502619524E0,2.106080204E-1,2.836919129E-1,1.716115922E-1
3.504619257E0,2.130514681E-1,2.922440469E-1,1.722224653E-1
3.506618990E0,2.197709978E-1,3.075156808E-1,1.746659279E-1
3.508618723E0,2.246579081E-1,3.221764565E-1,1.746659279E-1
3.510618456E0,2.283231020E-1,3.295068443E-1,1.758876443E-1
3.512618256E0,2.338208854E-1,3.478327990E-1,1.758876443E-1
3.514618022E0,2.411512733E-1,3.643261492E-1,1.752767861E-1
3.516617788E0,2.442055941E-1,3.710456491E-1,1.740550548E-1
3.518617554E0,2.460381985E-1,3.954802454E-1,1.734441817E-1
3.520617320E0,2.478707880E-1,4.156388342E-1,1.716115922E-1
3.522617086E0,2.515359819E-1,4.241909385E-1,1.722224653E-1
3.524616852E0,2.570337951E-1,4.406842887E-1,1.667246670E-1
3.526616618E0,2.600881159E-1,4.553450644E-1,1.600051522E-1
3.528616451E0,2.594772279E-1,4.620645642E-1,1.606160253E-1
3.530616217E0,2.631424367E-1,4.748927653E-1,1.575616896E-1
3.532615983E0,2.661967576E-1,4.852774739E-1,1.538964957E-1
3.534615749E0,2.643641531E-1,4.907752275E-1,1.508421749E-1
3.536615515E0,2.668076158E-1,4.987165034E-1,1.483987123E-1
3.538615281E0,2.704727948E-1,5.017707944E-1,1.441226602E-1
3.540615047E0,2.674184740E-1,4.987165034E-1,1.429009289E-1
3.542614880E0,2.649750113E-1,4.956621826E-1,1.380140036E-1
3.544614713E0,2.649750113E-1,4.968838990E-1,1.361814141E-1
3.546614479E0,2.674184740E-1,4.907752275E-1,1.367922872E-1
3.548614245E0,2.649750113E-1,4.810014069E-1,1.319053471E-1
3.550614011E0,2.643641531E-1,4.718384147E-1,1.306836307E-1
3.552613777E0,2.625315487E-1,4.675623775E-1,1.282401532E-1
3.554613543E0,2.613098025E-1,4.474038184E-1,1.288510263E-1
3.556613309E0,2.613098025E-1,4.315213263E-1,1.276292950E-1
3.558613142E0,2.613098025E-1,4.223583341E-1,1.294618994E-1
3.560612908E0,2.582554817E-1,4.076975584E-1,1.294618994E-1
3.562612674E0,2.606989741E-1,3.905933499E-1,1.312944889E-1
3.564612440E0,2.606989741E-1,3.808194995E-1,1.294618994E-1
3.566612206E0,2.576446235E-1,3.576066196E-1,1.343488097E-1
3.568611972E0,2.588663697E-1,3.398915529E-1,1.367922872E-1
3.570611738E0,2.619206905E-1,3.319502771E-1,1.380140036E-1
3.572611504E0,2.637532949E-1,3.148460686E-1,1.422900707E-1
3.574611304E0,2.655858696E-1,3.032396138E-1,1.477878541E-1
3.576611037E0,2.655858696E-1,2.971309423E-1,1.508421749E-1
3.578610770E0,2.661967576E-1,2.922440469E-1,1.587834358E-1
3.580610503E0,2.698619366E-1,2.818593383E-1,1.673355401E-1
3.582610236E0,2.698619366E-1,2.806375921E-1,1.697789878E-1
3.584609969E0,2.680293620E-1,2.757506669E-1,1.777202487E-1
3.586609702E0,2.686401904E-1,2.708637714E-1,1.844397634E-1
3.588609435E0,2.674184740E-1,2.702529132E-1,1.887158155E-1
3.590609235E0,2.686401904E-1,2.690311670E-1,1.942136139E-1
3.592608968E0,2.655858696E-1,2.678094208E-1,2.003222704E-1
3.594608701E0,2.649750113E-1,2.684202790E-1,2.033765912E-1
3.596608434E0,2.606989741E-1,2.671985924E-1,2.094852477E-1
3.598608167E0,2.582554817E-1,2.653659582E-1,2.143721581E-1
3.600607900E0,2.521468401E-1,2.629225254E-1,2.174264789E-1
3.602607633E0,2.466490567E-1,2.598682046E-1,2.223134190E-1
3.604607366E0,2.380969375E-1,2.598682046E-1,2.241460085E-1
3.606607166E0,2.393186837E-1,2.574247122E-1,2.284220606E-1
3.608606899E0,2.258796394E-1,2.525377870E-1,2.290329337E-1
3.610606632E0,2.185492516E-1,2.500943542E-1,2.284220606E-1
3.612606365E0,2.130514681E-1,2.452074140E-1,2.296437919E-1
3.614606098E0,2.057210803E-1,2.397096306E-1,2.302546501E-1
3.616605831E0,1.983907074E-1,2.415422201E-1,2.296437919E-1
3.618605564E0,1.873951256E-1,2.360444367E-1,2.290329337E-1
3.620605364E0,1.800647378E-1,2.329901159E-1,2.265894562E-1
3.622605164E0,1.751778275E-1,2.317683846E-1,2.259786129E-1
3.624604897E0,1.605170667E-1,2.281031907E-1,2.253677398E-1
3.626604630E0,1.519649476E-1,2.268814594E-1,2.241460085E-1
3.628604363E0,1.495214850E-1,2.250488549E-1,2.259786129E-1
3.630604096E0,1.360824406E-1,2.219945341E-1,2.229242772E-1
3.632603829E0,1.281412095E-1,2.232162654E-1,2.192590833E-1
3.634603562E0,1.189782247E-1,2.207728177E-1,2.204808146E-1
3.636603362E0,1.122587025E-1,2.226054072E-1,2.149830312E-1
3.638603162E0,1.018740013E-1,2.281031907E-1,2.100961059E-1
3.640602895E0,9.454362094E-2,2.262706012E-1,2.070417851E-1
3.642602628E0,8.599150181E-2,2.323792428E-1,2.003222704E-1
3.644602361E0,7.743938267E-2,2.390987724E-1,1.954353303E-1
3.646602094E0,6.888727844E-2,2.421530932E-1,1.905484200E-1
3.648601827E0,6.705468148E-2,2.494834810E-1,1.844397634E-1
3.650601560E0,5.666996911E-2,2.592573166E-1,1.764985174E-1
3.652601360E0,5.239391327E-2,2.647551000E-1,1.734441817E-1
3.654601093E0,4.628526047E-2,2.757506669E-1,1.636703461E-1
3.656600826E0,4.139833897E-2,2.873571217E-1,1.545073688E-1
3.658600559E0,3.712227941E-2,2.904114425E-1,1.496204585E-1
3.660600292E0,3.406795487E-2,3.056830764E-1,1.404574811E-1
3.662600025E0,3.162449598E-2,3.160677850E-1,1.312944889E-1
3.664599758E0,2.673757263E-2,3.240090311E-1,1.270184368E-1
3.666599491E0,2.185064927E-2,3.319502771E-1,1.190771833E-1
3.668599291E0,1.940718852E-2,3.478327990E-1,1.111359298E-1
3.670599024E0,1.146594062E-2,3.521088362E-1,1.074707434E-1
3.672598757E0,1.024421025E-2,3.637152612E-1,9.952949733E-2
3.674598490E0,2.913827077E-3,3.673804700E-1,8.975565434E-2
3.676598223E0,-2.583960071E-3,3.728782535E-1,8.914478868E-2
3.678597956E0,-7.470882032E-3,3.765434623E-1,8.242526650E-2
3.680597689E0,-1.419039909E-2,3.747108579E-1,7.448402047E-2
3.682597422E0,-1.480126474E-2,3.734891117E-1,7.204055786E-2
3.684597222E0,-2.274251357E-2,3.692130744E-1,6.776450574E-2
3.686596955E0,-3.312722221E-2,3.618826866E-1,6.226671487E-2
3.688596688E0,-3.251635656E-2,3.576066196E-1,5.860152468E-2
3.690596421E0,-3.862500936E-2,3.453893065E-1,5.432546511E-2
3.692596154E0,-4.534452781E-2,3.282850981E-1,5.066027865E-2
3.694595887E0,-4.962058365E-2,3.185112476E-1,4.943854362E-2
3.696595620E0,-5.450750887E-2,3.026287556E-1,4.638421908E-2
3.698595353E0,-6.428135186E-2,2.775832713E-1,4.394075647E-2
3.700595153E0,-6.428135186E-2,2.647551000E-1,4.394075647E-2
3.702594886E0,-7.039000094E-2,2.433748096E-1,4.516249150E-2
3.704594619E0,-7.466606051E-2,2.177184820E-1,4.455162585E-2
3.706594352E0,-7.283346355E-2,2.067229003E-1,4.577335343E-2
3.708594085E0,-7.527692616E-2,1.835100204E-1,4.760595039E-2
3.710593818E0,-7.588778436E-2,1.645732075E-1,4.577335343E-2
3.712593551E0,-7.405518740E-2,1.535776407E-1,4.638421908E-2
3.714593351E0,-7.283346355E-2,1.364734024E-1,4.821681604E-2
3.716593151E0,-7.039000094E-2,1.169257239E-1,4.760595039E-2
3.718592884E0,-6.977913529E-2,1.095953360E-1,4.821681604E-2
3.720592617E0,-6.550308317E-2,9.371283650E-2,4.638421908E-2
3.722592350E0,-6.000529602E-2,7.783033699E-2,4.394075647E-2
3.724592083E0,-6.122702360E-2,6.866735965E-2,4.149729759E-2
3.726591816E0,-5.328577384E-2,6.011524796E-2,3.722124174E-2
3.728591549E0,-5.450750887E-2,5.706091970E-2,3.661037609E-2
3.730591349E0,-5.206404626E-2,5.156313628E-2,3.111258894E-2
3.732591082E0,-5.389663950E-2,4.484361783E-2,2.622566558E-2
3.734590815E0,-4.900971800E-2,4.423275217E-2,1.828441769E-2
3.736590548E0,-5.450750887E-2,4.240015894E-2,1.645182259E-2
3.738590281E0,-5.084231496E-2,4.117842391E-2,1.217576582E-2
3.740590014E0,-5.145317689E-2,4.973054305E-2,6.677979138E-3
3.742589747E0,-5.267491192E-2,4.973054305E-2,4.845383111E-3
3.744589480E0,-5.450750887E-2,5.583919212E-2,-1.263269340E-3
3.746589280E0,-6.000529602E-2,6.561303884E-2,-3.095865017E-3
3.748589013E0,-5.695096403E-2,6.988909096E-2,-4.928460810E-3
3.750588746E0,-6.183788925E-2,8.027380705E-2,-6.150191184E-3
3.752588479E0,-6.672480702E-2,8.943678439E-2,-4.928460810E-3
3.754588212E0,-6.489221007E-2,9.554543346E-2,-4.928460810E-3
3.756587945E0,-6.916827708E-2,1.065410078E-1,-1.874134527E-3
3.758587678E0,-6.916827708E-2,1.163148507E-1,-1.874134527E-3
3.760587411E0,-7.039000094E-2,1.187583134E-1,1.180191641E-3
3.762587211E0,-7.588778436E-2,1.334190816E-1,1.180191641E-3
3.764586944E0,-8.138557523E-2,1.438037902E-1,3.623652738E-3
3.766586677E0,-8.505076915E-2,1.480798423E-1,6.067113485E-3
3.768586410E0,-8.688335866E-2,1.554102302E-1,9.121440351E-3
3.770586143E0,-9.360288084E-2,1.639623344E-1,1.278663147E-2
3.772585876E0,-9.787894040E-2,1.694601327E-1,1.278663147E-2
3.774585609E0,-1.045984551E-1,1.755687892E-1,1.523009222E-2
3.776585342E0,-1.100962460E-1,1.767905056E-1,1.706268825E-2
3.778585142E0,-1.119288430E-1,1.767905056E-1,1.889528520E-2
3.780584875E0,-1.192592233E-1,1.877860874E-1,2.317134105E-2
3.782584608E0,-1.265896112E-1,1.896186769E-1,2.744739689E-2
3.784584341E0,-1.278113276E-1,1.877860874E-1,3.050172515E-2
3.786584074E0,-1.339199841E-1,1.890078187E-1,3.172345459E-2
3.788583807E0,-1.388069093E-1,1.877860874E-1,3.538864478E-2
3.790583540E0,-1.412503719E-1,1.914512813E-1,3.477777913E-2
3.792583340E0,-1.424721032E-1,1.914512813E-1,3.722124174E-2
3.794583140E0,-1.412503719E-1,1.896186769E-1,4.271902889E-2
3.796582873E0,-1.473590285E-1,1.871752143E-1,4.088643193E-2
3.798582606E0,-1.388069093E-1,1.853426248E-1,4.332989454E-2
3.800582339E0,-1.424721032E-1,1.859534979E-1,4.638421908E-2
3.802582072E0,-1.406395137E-1,1.877860874E-1,4.638421908E-2
3.804581805E0,-1.375851780E-1,1.865643561E-1,4.638421908E-2
3.806581538E0,-1.357525736E-1,1.877860874E-1,4.699508846E-2
3.808581338E0,-1.357525736E-1,1.871752143E-1,4.882768169E-2
3.810581071E0,-1.339199841E-1,1.890078187E-1,5.066027865E-2
3.812580804E0,-1.320873797E-1,1.871752143E-1,5.310373753E-2
3.814580537E0,-1.314765364E-1,1.877860874E-1,5.310373753E-2
3.816580270E0,-1.272004694E-1,1.896186769E-1,5.310373753E-2
3.818580003E0,-1.217026860E-1,1.859534979E-1,5.493633449E-2
3.820579736E0,-1.204809472E-1,1.871752143E-1,5.615806207E-2
3.822579469E0,-1.186483502E-1,1.896186769E-1,5.860152468E-2
3.824579269E0,-1.131505668E-1,1.883969605E-1,5.982325226E-2
3.826579002E0,-1.082636490E-1,1.908404082E-1,6.348844618E-2
3.828578735E0,-1.076527759E-1,1.908404082E-1,6.471017748E-2
3.830578468E0,-1.009332687E-1,1.981707960E-1,6.593190879E-2
3.832578201E0,-9.910067171E-2,2.000033855E-1,6.776450574E-2
3.834577934E0,-9.726807475E-2,2.067229003E-1,7.265143096E-2
3.836577667E0,-8.993769437E-2,2.073337734E-1,7.631661743E-2
3.838577400E0,-8.810509741E-2,2.146641612E-1,7.692748308E-2
3.840577200E0,-8.443990350E-2,2.195510715E-1,8.059267700E-2
3.842576933E0,-8.382903785E-2,2.201619446E-1,8.792305738E-2
3.844576666E0,-7.833125442E-2,2.250488549E-1,8.731219172E-2
3.846576399E0,-8.138557523E-2,2.250488549E-1,9.158825129E-2
3.848576132E0,-7.833125442E-2,2.238271385E-1,9.403170645E-2
3.850575865E0,-7.772038132E-2,2.262706012E-1,9.647516906E-2
3.852575598E0,-7.649865746E-2,2.274923176E-1,1.007512286E-1
3.854575331E0,-7.710952312E-2,2.226054072E-1,1.019729525E-1
3.856575131E0,-7.649865746E-2,2.219945341E-1,1.031946838E-1
3.858574864E0,-7.772038132E-2,2.177184820E-1,1.099142060E-1
3.860574597E0,-7.466606051E-2,2.164967507E-1,1.141902655E-1
3.862574330E0,-7.405518740E-2,2.201619446E-1,1.123576686E-1
3.864574063E0,-7.161173224E-2,2.238271385E-1,1.148011237E-1
3.866573796E0,-7.161173224E-2,2.317683846E-1,1.141902655E-1
3.868573529E0,-6.550308317E-2,2.336009890E-1,1.123576686E-1
3.870573329E0,-6.122702360E-2,2.372661680E-1,1.105250716E-1
3.872573129E0,-5.756183341E-2,2.372661680E-1,1.068598777E-1
3.874572862E0,-5.328577384E-2,2.384878993E-1,1.056381464E-1
3.876572595E0,-5.206404626E-2,2.287140489E-1,1.038055494E-1
3.878572328E0,-4.778798670E-2,2.177184820E-1,9.830775857E-2
3.880572061E0,-4.717712477E-2,2.152750194E-1,9.891863167E-2
3.882571794E0,-4.839885235E-2,2.036685795E-1,9.830775857E-2
3.884571527E0,-5.084231496E-2,1.975599378E-1,9.525343776E-2
3.886571327E0,-5.389663950E-2,1.938947439E-1,9.342084825E-2
3.888571127E0,-5.267491192E-2,1.859534979E-1,9.342084825E-2
3.890570860E0,-5.328577384E-2,1.822883040E-1,8.914478868E-2
3.892570593E0,-5.634010211E-2,1.835100204E-1,8.914478868E-2
3.894570326E0,-6.122702360E-2,1.792339832E-1,8.609046042E-2
3.896570059E0,-6.428135186E-2,1.719035953E-1,8.547960222E-2
3.898569792E0,-6.672480702E-2,1.706818491E-1,8.425786346E-2
3.900569525E0,-7.283346355E-2,1.639623344E-1,8.364700526E-2
3.902569325E0,-7.894211262E-2,1.572428346E-1,7.998181134E-2
3.904569058E0,-7.894211262E-2,1.554102302E-1,7.814921439E-2
3.906568791E0,-8.382903785E-2,1.505233049E-1,7.509488612E-2
3.908568524E0,-8.932682872E-2,1.413603276E-1,7.142969221E-2
3.910568257E0,-8.810509741E-2,1.376951337E-1,6.959710270E-2
3.912567990E0,-9.482461214E-2,1.309756190E-1,6.776450574E-2
3.914567723E0,-9.543547779E-2,1.285321563E-1,6.593190879E-2
3.916567456E0,-1.015441269E-1,1.224234998E-1,6.287758052E-2
3.918567256E0,-9.848980606E-2,1.181474477E-1,5.921239033E-2
3.920567022E0,-1.021549925E-1,1.205909029E-1,5.615806207E-2
3.922566788E0,-1.027658582E-1,1.248669699E-1,5.554720014E-2
3.924566554E0,-1.070419177E-1,1.193691790E-1,5.066027865E-2
3.926566320E0,-1.003224030E-1,1.205909029E-1,5.249287561E-2
3.928566086E0,-1.039875895E-1,1.260886937E-1,4.821681604E-2
3.930565852E0,-1.039875895E-1,1.285321563E-1,4.516249150E-2
3.932565618E0,-1.033767238E-1,1.309756190E-1,4.821681604E-2
3.934565451E0,-1.045984551E-1,1.309756190E-1,4.455162585E-2
3.936565217E0,-1.027658582E-1,1.321973354E-1,4.332989454E-2
3.938564983E0,-1.027658582E-1,1.352516711E-1,4.149729759E-2
3.940564749E0,-1.003224030E-1,1.346408129E-1,4.149729759E-2
3.942564515E0,-9.665720910E-2,1.358625293E-1,4.210816324E-2
3.944564281E0,-9.360288084E-2,1.419711858E-1,4.088643193E-2
3.946564047E0,-9.543547779E-2,1.419711858E-1,4.149729759E-2
3.948563813E0,-8.566163480E-2,1.444146633E-1,4.027556628E-2
3.950563646E0,-8.688335866E-2,1.468581110E-1,4.149729759E-2
3.952563412E0,-8.566163480E-2,1.511341631E-1,4.332989454E-2
3.954563178E0,-8.260730654E-2,1.535776407E-1,4.455162585E-2
3.956562944E0,-8.260730654E-2,1.596862823E-1,4.271902889E-2
3.958562710E0,-8.016385138E-2,1.615188718E-1,4.577335343E-2
3.960562476E0,-7.894211262E-2,1.627406180E-1,4.577335343E-2
3.962562242E0,-7.588778436E-2,1.657949388E-1,4.760595039E-2
3.964562075E0,-7.405518740E-2,1.700710058E-1,4.943854362E-2
3.966561908E0,-7.161173224E-2,1.682384014E-1,5.066027865E-2
3.968561674E0,-7.466606051E-2,1.688492596E-1,5.127114058E-2
3.970561440E0,-7.466606051E-2,1.682384014E-1,5.310373753E-2
3.972561206E0,-7.222259790E-2,1.670166552E-1,5.676892772E-2
3.974560972E0,-7.527692616E-2,1.621297449E-1,5.554720014E-2
3.976560738E0,-7.466606051E-2,1.645732075E-1,5.799065903E-2
3.978560504E0,-7.405518740E-2,1.627406180E-1,5.921239033E-2
3.980560304E0,-7.833125442E-2,1.639623344E-1,5.737979338E-2
3.982560037E0,-7.955297828E-2,1.590754241E-1,6.165584922E-2
3.984559770E0,-8.016385138E-2,1.541884989E-1,6.226671487E-2
3.986559503E0,-8.382903785E-2,1.511341631E-1,6.165584922E-2
3.988559236E0,-8.138557523E-2,1.486907005E-1,6.226671487E-2
3.990558969E0,-8.627250046E-2,1.474689841E-1,6.104498729E-2
3.992558702E0,-8.810509741E-2,1.456363797E-1,6.287758052E-2
3.994558435E0,-8.871595562E-2,1.444146633E-1,5.737979338E-2
3.996558235E0,-8.749423176E-2,1.431929171E-1,5.676892772E-2
3.998557968E0,-8.932682872E-2,1.401385963E-1,5.799065903E-2
4.000557701E0,-8.932682872E-2,1.376951337E-1,5.676892772E-2
4.002557434E0,-8.871595562E-2,1.358625293E-1,5.249287561E-2
4.004557167E0,-8.566163480E-2,1.389168650E-1,5.371460319E-2
4.006556900E0,-8.627250046E-2,1.340299398E-1,4.882768169E-2
4.008556633E0,-8.321817219E-2,1.401385963E-1,4.760595039E-2
4.010556366E0,-8.077470958E-2,1.407494694E-1,4.516249150E-2
4.012556166E0,-7.710952312E-2,1.364734024E-1,4.088643193E-2
4.014555899E0,-7.161173224E-2,1.352516711E-1,3.783210739E-2
4.016555632E0,-7.161173224E-2,1.334190816E-1,3.661037609E-2
4.018555365E0,-6.367048621E-2,1.346408129E-1,3.233432025E-2
4.020555098E0,-6.367048621E-2,1.334190816E-1,2.744739689E-2
4.022554831E0,-5.878356099E-2,1.254778355E-1,2.744739689E-2
4.024554564E0,-5.389663950E-2,1.242560968E-1,2.561480179E-2
4.026554297E0,-5.084231496E-2,1.224234998E-1,2.256047353E-2
4.028554097E0,-5.023144931E-2,1.187583134E-1,2.072787844E-2
4.030553830E0,-4.900971800E-2,1.169257239E-1,1.889528520E-2
