"Time (s)","Acceleration x (m/s^2)","Acceleration y (m/s^2)","Acceleration z (m/s^2)"
0.000000000E0,4.884171486E-1,1.690306425E0,9.457097054E0
1.004687600E-2,5.123591423E-1,1.642422318E0,9.394847870E0
2.017463800E-2,5.554547906E-1,1.699883223E0,9.394847870E0
3.031766000E-2,5.746083856E-1,1.781286120E0,9.509769440E0
4.042500400E-2,5.458779931E-1,1.747767210E0,9.610325813E0
5.050146400E-2,5.698199868E-1,1.771709204E0,9.600749016E0
6.060594400E-2,6.655880809E-1,1.757344007E0,9.811438560E0
7.073662200E-2,8.379706144E-1,1.709460020E0,9.686940193E0
8.086584200E-2,6.799532771E-1,1.747767210E0,9.595960617E0
9.096876000E-2,5.746083856E-1,1.757344007E0,9.581595421E0
1.010766250E-1,4.596867263E-1,1.723825216E0,9.624691010E0
1.112052720E-1,4.501099288E-1,1.738190413E0,9.696516991E0
1.213307420E-1,2.873041928E-1,1.728613615E0,9.634267807E0
1.314441800E-1,2.059013397E-1,1.723825216E0,9.648633003E0
1.417076190E-1,2.489969730E-1,1.714248419E0,9.701305389E0
1.517657970E-1,3.543418646E-1,1.695094824E0,9.830592155E0
1.618651730E-1,5.746083856E-1,1.728613615E0,9.916783333E0
1.720648090E-1,6.320692301E-1,1.742978811E0,9.921571732E0
1.820990290E-1,6.033388376E-1,1.805228114E0,9.998186111E0
1.920418430E-1,6.320692301E-1,1.752555609E0,9.916783333E0
2.023793960E-1,5.841852427E-1,1.709460020E0,9.710882187E0
2.125814280E-1,5.267243981E-1,1.719036818E0,9.452308655E0
2.225463250E-1,4.788403511E-1,1.685518026E0,9.461885452E0
2.325166380E-1,4.405331016E-1,1.661576033E0,9.437943459E0
2.428214310E-1,4.501099288E-1,1.671152830E0,9.394847870E0
2.529011190E-1,4.548983276E-1,1.680729628E0,9.366117477E0
2.629899230E-1,4.309563041E-1,1.738190413E0,9.528923035E0
2.731893510E-1,4.213795066E-1,1.728613615E0,9.600749016E0
2.834366950E-1,5.267243981E-1,1.714248419E0,9.653421402E0
2.939108630E-1,6.512228847E-1,1.695094824E0,9.557653427E0
3.033417490E-1,5.746083856E-1,1.656787634E0,9.514557838E0
3.138072190E-1,5.123591423E-1,1.675941229E0,9.591172218E0
3.240434180E-1,6.033388376E-1,1.570596337E0,9.581595421E0
3.340684710E-1,6.847416759E-1,1.623268723E0,9.514557838E0
3.442365450E-1,6.895300746E-1,1.647210717E0,9.423578262E0
3.541626920E-1,7.757213712E-1,1.604115129E0,9.380482674E0
3.642166510E-1,8.954314590E-1,1.493981838E0,9.327810287E0
3.743264960E-1,9.864110947E-1,1.546654344E0,9.227252960E0
3.845001430E-1,1.043871999E0,1.479616642E0,9.160215378E0
3.945836860E-1,1.158793569E0,1.249773264E0,9.064447403E0
4.046867070E-1,1.441309452E0,1.158793569E0,8.930372238E0
4.148610310E-1,1.762132406E0,6.943184733E-1,8.695740700E0
4.249546710E-1,1.699883223E0,7.422025204E-1,8.456320763E0
4.351742630E-1,1.589749932E0,6.272808313E-1,8.274360657E0
4.451630140E-1,1.814804912E0,-4.788403399E-3,8.192957878E0
4.552904630E-1,2.614468336E0,-4.309563041E-1,7.805097580E0
4.654143700E-1,3.725377798E0,-7.805097699E-1,7.522581577E0
4.755717150E-1,4.094084740E0,-1.221042871E0,6.890512466E0
4.855057780E-1,3.849876404E0,-1.570596337E0,6.172252178E0
4.960789040E-1,4.017470360E0,-2.073378563E0,5.889736176E0
5.057215090E-1,3.806780815E0,-2.590526342E0,5.683835030E0
5.161584370E-1,2.748543501E0,-3.045424461E0,5.506663799E0
5.261531260E-1,1.407790542E0,-2.920926094E0,5.339069843E0
5.362273460E-1,7.661445439E-2,-2.729389906E0,5.152322292E0
5.463889090E-1,-1.383848548E0,-3.031059265E0,5.023035049E0
5.565519830E-1,-2.063801765E0,-3.270479441E0,4.999093056E0
5.665102650E-1,-1.570596337E0,-3.634398222E0,5.003881454E0
5.767140680E-1,-5.793967843E-1,-4.338293552E0,5.190629482E0
5.869183920E-1,6.607996821E-1,-5.003881454E0,5.339069843E0
5.970641750E-1,1.680729628E0,-5.272032261E0,5.386953831E0
6.072545400E-1,2.025494576E0,-5.003881454E0,5.932831764E0
6.170094890E-1,1.714248419E0,-5.085284233E0,6.229712963E0
6.273092820E-1,7.613561153E-1,-5.363011837E0,6.641515732E0
6.372622510E-1,-2.442085743E-1,-5.659893036E0,6.488286495E0
6.477816280E-1,-1.312022567E0,-6.196194172E0,6.177040577E0
6.577092850E-1,-2.494758129E0,-6.756437302E0,5.425261021E0
6.678115770E-1,-3.562572241E0,-7.369352818E0,4.955997467E0
6.780155370E-1,-4.031835556E0,-7.158663273E0,5.137956619E0
6.880560070E-1,-6.066906929E0,-6.876147270E0,5.300762653E0
6.982899140E-1,-7.671022415E0,-6.962338448E0,6.200982571E0
7.082341860E-1,-7.891288757E0,-6.780379295E0,7.321468830E0
7.185350720E-1,-8.959102631E0,-7.412448406E0,7.939172745E0
7.286128330E-1,-9.251194954E0,-8.418013573E0,7.752425194E0
7.386627300E-1,-9.667786598E0,-9.160215378E0,6.373364925E0
7.489349190E-1,-1.043393135E1,-8.906430244E0,4.371812344E0
7.589490340E-1,-1.113782597E1,-8.614337921E0,2.652775526E0
7.688645560E-1,-1.251688671E1,-9.208099365E0,3.830722809E0
7.790356510E-1,-1.402044487E1,-9.045293808E0,4.946420670E0
7.891781000E-1,-1.545217800E1,-8.250418663E0,6.071695328E0
7.991385700E-1,-1.683602715E1,-7.455543995E0,6.856993675E0
8.094817480E-1,-1.818635559E1,-6.847416878E0,6.593631268E0
8.196050820E-1,-1.866040802E1,-7.508216381E0,5.473145008E0
8.296605520E-1,-1.814326096E1,-8.312667847E0,4.017470360E0
8.398106570E-1,-1.770272827E1,-8.188169479E0,2.169146776E0
8.499687310E-1,-1.645295334E1,-7.354987621E0,1.039083481E0
8.599870650E-1,-1.633324432E1,-7.163451672E0,8.331822157E-1
8.700702430E-1,-1.552879238E1,-6.588842869E0,-3.208230138E-1
8.802554530E-1,-1.531331444E1,-6.191405773E0,-3.016694188E-1
8.903488390E-1,-1.447055531E1,-6.062118530E0,2.825157940E-1
9.004997780E-1,-1.327345467E1,-5.961562157E0,5.458779931E-1
9.104403000E-1,-1.242590714E1,-6.071695328E0,5.650315881E-1
9.206114980E-1,-1.242590714E1,-6.081272125E0,2.442085743E-1
9.310815520E-1,-1.247857952E1,-5.975927353E0,-9.576806426E-2
9.410481670E-1,-1.206677628E1,-5.693411827E0,1.292868853E-1
9.512713450E-1,-1.171722317E1,-4.601655483E0,1.934514999E0
9.612647840E-1,-1.128626728E1,-4.386177540E0,4.180276394E0
9.715552540E-1,-1.062067890E1,-4.386177540E0,6.066906929E0
9.816672340E-1,-9.188945770E0,-4.869806290E0,7.086836815E0
9.915568700E-1,-7.953537941E0,-5.070919037E0,6.392518520E0
1.001776611E0,-7.125144482E0,-5.588066578E0,5.784391403E0
1.011796195E0,-6.809109688E0,-5.736507416E0,4.548983097E0
1.021974217E0,-6.019022942E0,-5.549759388E0,3.208230257E0
1.032126093E0,-5.583278179E0,-7.015010834E0,3.409343243E0
1.042320677E0,-6.090848923E0,-7.182605267E0,2.331952572E0
1.052432970E0,-7.015010834E0,-7.742848396E0,1.221042871E0
1.062564013E0,-8.446743965E0,-6.761225700E0,1.086967587E0
1.072484378E0,-9.461885452E0,-6.991068840E0,5.793967843E-1
1.082837869E0,-9.653421402E0,-7.096413612E0,1.546654344E0
1.092755468E0,-8.700529099E0,-7.637503624E0,3.572149038E0
1.102967715E0,-9.907206535E0,-6.818686485E0,2.528276920E0
1.113045059E0,-8.729259491E0,-7.513004780E0,1.541865945E0
1.122930112E0,-7.244854450E0,-7.852981567E0,4.453215301E-1
1.133280211E0,-6.847416878E0,-7.738059998E0,-6.464344859E-1
1.143335062E0,-6.713341713E0,-7.441178799E0,-5.267243981E-1
1.153452042E0,-8.034940720E0,-6.531382084E0,9.193734527E-1
1.163475741E0,-8.944737434E0,-5.200206280E0,-9.145850539E-1
1.173805690E0,-8.408436775E0,-6.311115742E0,3.854664803E0
1.183862358E0,-6.809109688E0,-6.952761650E0,4.668693542E0
1.193961630E0,-7.680599213E0,-5.956773758E0,3.055001259E0
1.204068037E0,-6.924031258E0,-6.660669327E0,1.580173135E0
1.214480486E0,-5.928043365E0,-6.957550049E0,3.160346150E-1
1.224542206E0,-5.181052685E0,-7.613561630E0,-9.816226959E-1
1.234443248E0,-3.715801001E0,-9.078812599E0,-1.628057122E0
1.244355333E0,-3.222595453E0,-9.476250648E0,-3.327940464E0
1.254780178E0,-4.582501888E0,-8.303091049E0,-3.711012602E0
1.265001064E0,-4.845864296E0,-7.216124058E0,-3.026270866E0
1.274924450E0,-5.195417881E0,-7.278373241E0,-1.838746905E0
1.284998195E0,-5.295974255E0,-7.517793179E0,2.537853718E-1
1.295273827E0,-5.420472622E0,-7.546523571E0,7.374141216E-1
1.305278047E0,-5.578489780E0,-7.575253963E0,-6.224924326E-2
1.315423829E0,-5.257667065E0,-7.900865555E0,-1.067813993E0
1.325484351E0,-2.164358377E0,-1.019929886E1,-3.576937437E0
1.335758878E0,-2.853888512E0,-9.461885452E0,-5.573701382E0
1.345813624E0,-7.991845131E0,-6.019022942E0,-3.639186621E0
1.356041594E0,-7.967903137E0,-6.454767704E0,4.414907932E0
1.366035553E0,-9.418789864E0,-5.094861031E0,7.718906403E0
1.375889200E0,-9.519346237E0,-4.831499100E0,6.392518520E0
1.386300295E0,-6.914454460E0,-5.760449409E0,3.160346270E0
1.396307796E0,-6.986280441E0,-4.994304657E0,5.602431893E-1
1.406413786E0,-7.307103634E0,-5.104437828E0,-1.690306425E0
1.416845767E0,-6.464344501E0,-5.980715752E0,-2.671929121E0
1.426648997E0,-5.449203014E0,-6.459556103E0,-2.557007313E0
1.436747331E0,-4.601655483E0,-6.162675381E0,-2.126051188E0
1.446958738E0,-3.634398222E0,-5.870582581E0,-2.279279947E0
1.457005875E0,-2.087743998E0,-6.081272125E0,-1.508347034E0
1.467145303E0,-3.495534420E0,-6.248866558E0,-1.230619669E0
1.477224314E0,-4.702212334E0,-7.043741226E0,-2.753331900E0
1.487311451E0,-5.085284233E0,-7.129932880E0,-3.792415380E0
1.497435514E0,-5.779603004E0,-8.283937454E0,-3.983951569E0
1.507565724E0,-7.556100368E0,-8.341399193E0,-4.252102375E0
1.517676662E0,-8.336610794E0,-7.627926826E0,-3.251325846E0
1.527895778E0,-6.794744492E0,-8.475474358E0,-9.289502501E-1
1.537977602E0,-5.329493046E0,-9.504981041E0,-2.829946518E0
1.548116665E0,-5.099649429E0,-9.648633003E0,-3.509899616E0
1.558172916E0,-6.133944988E0,-8.652645111E0,-2.695871115E0
1.568379323E0,-6.301538944E0,-7.977479935E0,-9.193734527E-1
1.578532241E0,-4.888959885E0,-8.695740700E0,-5.363011956E-1
1.588517763E0,-3.347094059E0,-9.404424667E0,-2.801215887E0
1.598612243E0,-2.130839586E0,-9.356540680E0,-4.596867085E0
1.608909327E0,-4.410119534E0,-7.805097580E0,-3.940855980E0
1.619001360E0,-4.951209068E0,-8.475474358E0,-1.580173135E0
1.629079538E0,-4.367023945E0,-8.939949036E0,-2.652775526E0
1.639137143E0,-4.975151062E0,-7.948749542E0,-2.983175278E0
1.649342092E0,-5.535394192E0,-6.540958881E0,-4.553771496E0
1.659458968E0,-6.009446144E0,-6.148310184E0,-5.008669853E0
1.669533761E0,-8.116343498E0,-3.217807055E0,-1.699883223E0
1.679627720E0,-6.521805286E0,-4.654327869E0,-1.704671621E0
1.689563606E0,-9.088389397E0,-5.166687489E0,-9.864110947E-1
1.699838087E0,-9.284713745E0,-5.932831764E0,-1.221042871E0
1.709947567E0,-8.738836288E0,-6.727706909E0,-1.546654344E0
1.720056422E0,-7.513004780E0,-7.704541206E0,-1.225831270E0
1.730207725E0,-7.038952827E0,-8.336610794E0,-2.097320795E0
1.740290695E0,-5.128379822E0,-8.389283180E0,-2.887407303E0
1.750445696E0,-2.657563925E0,-9.385271072E0,-4.716577530E0
1.760618926E0,-3.294421434E0,-8.896853447E0,-4.654327869E0
1.770671010E0,-5.085284233E0,-8.456320763E0,-3.581725836E0
1.780970855E0,-6.469132900E0,-8.844181061E0,-3.021482468E0
1.790967262E0,-6.713341713E0,-8.542511940E0,-3.016694069E0
1.800994503E0,-6.258443356E0,-8.135497093E0,-2.293645144E0
1.811004660E0,-6.588842869E0,-7.829039574E0,-2.063801765E0
1.821343307E0,-6.445190907E0,-7.412448406E0,-2.959233284E0
1.831403516E0,-5.645527840E0,-7.991845131E0,-2.489969730E0
1.841385288E0,-6.737283707E0,-7.819462776E0,-2.839523315E0
1.851586279E0,-7.000645638E0,-8.686163902E0,-4.400542736E0
1.861740498E0,-8.312667847E0,-7.445967197E0,-3.878606796E0
1.871688729E0,-8.116343498E0,-6.737283707E0,-2.264914751E0
1.881823000E0,-6.761225700E0,-6.904877663E0,-2.504334927E0
1.892114251E0,-6.167463779E0,-5.616796970E0,-1.541865945E0
1.902335555E0,-6.272808552E0,-6.028599739E0,-1.690306425E0
1.912418056E0,-6.928819656E0,-7.134721279E0,-2.767697096E0
1.922404046E0,-8.121131897E0,-5.631162167E0,-3.165134668E0
1.932530506E0,-6.761225700E0,-6.751648903E0,-3.567360640E0
1.942740038E0,-6.095637321E0,-6.449979305E0,-2.959233284E0
1.952652383E0,-5.406107426E0,-5.521028996E0,-3.687070608E0
1.963051706E0,-5.779603004E0,-6.220136166E0,-1.714248419E0
1.972898843E0,-5.875370979E0,-5.784391403E0,-1.905784607E0
1.983122542E0,-7.340622425E0,-5.511452198E0,-2.054224968E0
1.993284210E0,-7.254431248E0,-7.321468830E0,-4.429273129E0
2.003356658E0,-7.010222435E0,-7.311892033E0,-4.319139957E0
2.013513736E0,-6.014234543E0,-6.378153324E0,-3.481169224E0
2.023719265E0,-5.664681435E0,-4.587290287E0,-2.169146776E0
2.033737182E0,-4.046200752E0,-5.458779812E0,-1.833958507E0
2.043852079E0,-5.391742229E0,-5.846640587E0,-3.361459255E0
2.053906924E0,-5.908889771E0,-6.603208065E0,-4.635174274E0
2.064102289E0,-6.545747280E0,-6.435614109E0,-3.634398222E0
2.074255832E0,-6.215347767E0,-5.702988625E0,-3.873818398E0
2.084354166E0,-6.138733387E0,-5.487510204E0,-3.514688015E0
2.094438230E0,-6.119579315E0,-4.860229492E0,-3.366247654E0
2.104739689E0,-5.482721806E0,-5.559336185E0,-3.371036053E0
2.114715628E0,-6.234501362E0,-5.832275391E0,-3.246537447E0
2.124828858E0,-7.618350029E0,-4.999093056E0,-3.361459255E0
2.134956672E0,-1.012747288E1,-4.050989151E0,-2.700659513E0
2.145135839E0,-8.130708694E0,-5.166687489E0,-3.131615877E0
2.155431882E0,-6.588842869E0,-5.008669853E0,-3.064578056E0
2.165600633E0,-6.847416878E0,-5.463568211E0,-3.562572241E0
2.175434176E0,-7.163451672E0,-5.870582581E0,-3.639186621E0
2.185591989E0,-6.641515732E0,-5.856217384E0,-3.371036053E0
2.195671105E0,-6.497863293E0,-5.621585369E0,-3.174711466E0
2.205740533E0,-6.445190907E0,-5.013458252E0,-2.916137695E0
2.215856732E0,-6.277596951E0,-5.142745018E0,-1.896207690E0
2.225834597E0,-6.186617374E0,-4.654327869E0,-1.857900500E0
2.235954234E0,-7.398083210E0,-3.873818398E0,-1.106121182E0
2.246182828E0,-6.991068840E0,-6.009446144E0,-1.924938202E0
2.256351788E0,-6.780379295E0,-6.971915245E0,-2.489969730E0
2.266578455E0,-6.631938934E0,-7.043741226E0,-2.767697096E0
2.276601373E0,-7.714118004E0,-7.752425194E0,-2.614468336E0
2.286701374E0,-8.025363922E0,-7.781155586E0,-2.901772499E0
2.296796896E0,-8.149862289E0,-6.976703644E0,-2.149993181E0
2.306939137E0,-8.097189903E0,-5.645527840E0,1.225831270E0
2.317183506E0,-1.149216771E0,-6.344634533E0,1.216733265E1
2.327250232E0,1.229183197E1,-3.744531393E0,1.097023201E1
2.337212004E0,-4.381389141E0,-9.672574997E-1,-1.803791618E1
2.347481589E0,-8.959102631E0,-7.805097580E0,-1.915361404E0
2.357629558E0,-8.164227486E0,-6.435614109E0,-1.083136845E1
2.367626434E0,-1.409705925E1,-9.926360130E0,-7.369352818E0
2.377738206E0,-1.805706978E1,-1.363258457E1,-6.224924564E0
2.387926488E0,-1.492066479E1,-1.332612705E1,-5.841852188E0
2.398068416E0,-8.039729118E0,-1.425986576E1,-5.746084213E0
2.408245605E0,-3.974374771E0,-1.189918232E1,-3.256114244E0
2.418281700E0,-5.310339451E0,-8.853757858E0,-2.609679937E0
2.428667586E0,-5.592854977E0,-7.896077156E0,-1.058237195E0
2.438364566E0,-5.971138954E0,-7.958326340E0,3.543418646E-1
2.448728630E0,-6.133944988E0,-8.470685959E0,1.532289088E-1
2.458812381E0,-6.488286495E0,-8.528146744E0,-1.316810966E0
2.468980924E0,-6.655880928E0,-8.508993149E0,-2.001552582E0
2.479336497E0,-6.196194172E0,-8.485051155E0,-3.064578056E0
2.489413894E0,-5.837063789E0,-9.217676163E0,-3.284844637E0
2.499239624E0,-5.971138954E0,-8.465897560E0,-3.519476414E0
2.509403011E0,-6.584054470E0,-7.867346764E0,-2.825158119E0
2.519569627E0,-6.665457726E0,-7.666234016E0,-2.595314741E0
2.529630923E0,-8.212111473E0,-6.679822922E0,-2.322375536E0
2.539775097E0,-8.585607529E0,-6.809109688E0,-3.126827478E0
2.549817390E0,-8.250418663E0,-6.584054470E0,-3.126827478E0
2.559926089E0,-8.145073891E0,-7.153874874E0,-4.175487995E0
2.570050100E0,-7.742848396E0,-7.062894821E0,-3.653551817E0
2.580160726E0,-8.188169479E0,-7.388506413E0,-4.089296341E0
2.590104113E0,-8.350975990E0,-5.841852188E0,-5.315127850E0
2.600502760E0,-6.713341713E0,-7.704541206E0,-3.835511208E0
2.610612344E0,-5.726930618E0,-6.603208065E0,-1.747767210E0
2.620648439E0,-4.788403511E0,-6.598419666E0,-7.326257229E-1
2.630767138E0,-4.989516258E0,-6.325480938E0,-2.236184359E0
2.640708753E0,-6.392518520E0,-6.914454460E0,-3.691859007E0
2.651049379E0,-5.856217384E0,-5.104437828E0,-4.635174274E0
2.661153547E0,-5.549759388E0,-6.416460514E0,-3.289633036E0
2.671232767E0,-5.822698593E0,-6.196194172E0,-3.878606796E0
2.681442143E0,-5.971138954E0,-5.918466568E0,-3.629609823E0
2.691305581E0,-5.037400246E0,-5.482721806E0,-1.944091797E0
2.701642770E0,-5.157110691E0,-5.401319027E0,-3.160346270E0
2.711663916E0,-5.506663799E0,-5.937620163E0,-2.528276920E0
2.721672876E0,-6.641515732E0,-6.196194172E0,-3.184288263E0
2.732069856E0,-6.205770969E0,-5.549759388E0,-4.979939461E0
2.742132357E0,-5.932831764E0,-5.406107426E0,-4.735731125E0
2.752022931E0,-6.162675381E0,-5.147533417E0,-4.352658749E0
2.762332984E0,-7.225700855E0,-3.845088005E0,-4.850652695E0
2.772481735E0,-6.095637321E0,-5.612008572E0,-2.944868088E0
2.782500694E0,-6.512228489E0,-5.506663799E0,-3.165134668E0
2.792616997E0,-6.311115742E0,-4.458003521E0,-3.610456228E0
2.802772311E0,-5.980715752E0,-4.510675907E0,-3.615244627E0
2.812916843E0,-5.880159378E0,-4.194641590E0,-3.289633036E0
2.822952105E0,-6.100425720E0,-4.309563160E0,-3.653551817E0
2.833092470E0,-6.488286495E0,-4.616020679E0,-4.453215122E0
2.843191325E0,-6.655880928E0,-4.855441093E0,-4.472368717E0
2.853321587E0,-6.449979305E0,-5.449203014E0,-4.726154327E0
2.863425702E0,-6.287173748E0,-5.157110691E0,-4.975151062E0
2.873565599E0,-6.406883717E0,-5.592854977E0,-4.845864296E0
2.883769923E0,-7.230489254E0,-5.971138954E0,-4.774038315E0
2.893857320E0,-7.326257229E0,-5.645527840E0,-4.548983097E0
2.904115186E0,-7.168240070E0,-5.434837818E0,-3.931279182E0
2.914089718E0,-6.756437302E0,-4.888959885E0,-3.351882458E0
2.924194250E0,-5.875370979E0,-4.630385876E0,-3.145981073E0
2.934311380E0,-5.861005783E0,-4.376600742E0,-2.839523315E0
2.944486960E0,-6.550535679E0,-4.256890774E0,-2.801215887E0
2.954359253E0,-7.599195957E0,-4.405331135E0,-2.834734917E0
2.964689358E0,-8.595184326E0,-4.965574265E0,-3.323152065E0
2.974669463E0,-8.944737434E0,-5.827486992E0,-3.998316765E0
2.984891965E0,-8.968679428E0,-5.999869347E0,-4.951209068E0
2.995018736E0,-8.916007042E0,-6.952761650E0,-5.875370979E0
3.005181029E0,-8.465897560E0,-6.454767704E0,-4.362235546E0
3.015341655E0,-7.738059998E0,-6.224924564E0,-2.896984100E0
3.025410198E0,-7.000645638E0,-5.276820660E0,-1.508347034E0
3.035527282E0,-6.799532890E0,-5.166687489E0,-8.331822157E-1
3.045654210E0,-7.120356083E0,-6.330269337E0,-2.892195702E0
3.055723586E0,-6.493074894E0,-2.351106167E0,-1.149216771E0
3.065828691E0,-6.588842869E0,-1.561019540E0,-1.369483352E0
3.075960619E0,-9.500192642E0,-6.890512466E0,-3.758896589E0
3.086141818E0,-9.883264542E0,-5.578489780E0,-3.356670856E0
3.096223538E0,-8.930372238E0,-4.659116745E0,-2.786850691E0
3.106468956E0,-8.461109161E0,-4.529829502E0,-2.279279947E0
3.116376248E0,-7.359776020E0,-4.065354347E0,-1.048660398E0
3.126384427E0,-5.592854977E0,-4.582501888E0,-1.608903527E0
3.136715001E0,-5.688623428E0,-4.204218388E0,-1.953668594E0
3.146681199E0,-8.370129585E0,-6.301538944E0,-1.091755986E0
3.156858492E0,-8.259995461E0,-7.053318024E0,-1.455674648E0
3.166980576E0,-7.852981567E0,-6.148310184E0,-2.092532396E0
3.177144171E0,-7.556100368E0,-5.736507416E0,-2.537853718E0
3.187282453E0,-6.833051682E0,-7.402871609E0,-1.714248419E0
3.197280423E0,-7.393294811E0,-6.828263283E0,-2.466027737E0
3.207622768E0,-8.566453934E0,-7.924807549E0,-4.098873138E0
3.217766050E0,-9.026140213E0,-7.776367188E0,-4.486733913E0
3.227738291E0,-9.428366661E0,-8.312667847E0,-4.165910721E0
3.237812615E0,-7.814674377E0,-9.715670586E0,-4.256890774E0
3.248024543E0,-9.145850182E0,-8.628703117E0,-2.389413357E0
3.258138815E0,-4.309563160E0,-1.009395409E1,-2.408566952E0
3.268046889E0,-4.065354347E0,-8.901641846E0,-1.637633920E0
3.278320483E0,-7.589619160E0,-7.244854450E0,-1.474828243E0
3.288269443E0,-7.886500359E0,-7.220912457E0,-1.484405041E0
3.298619444E0,-8.350975990E0,-7.101202011E0,-1.503558636E0
3.308826059E0,-7.996633530E0,-5.573701382E0,-2.437297344E0
3.318757883E0,-8.542511940E0,-8.695740700E0,-3.327940464E0
3.328930645E0,-6.622362137E0,-9.504981041E0,-2.834734917E0
3.339087052E0,-6.708553314E0,-6.086060524E0,-5.056553841E0
3.349207886E0,-7.465120792E0,-6.148310184E0,-4.261679173E0
3.359301950E0,-6.689399719E0,-4.841075897E0,-2.528276920E0
3.369683826E0,-6.354211330E0,-5.147533417E0,-3.509899616E0
3.379566223E0,-5.884947777E0,-4.649539471E0,-1.359906554E0
3.389717265E0,-4.376600742E0,-4.989516258E0,-3.136404276E0
3.399771641E0,-4.118026733E0,-5.487510204E0,-5.698200226E0
3.409888257E0,-6.766014099E0,-4.855441093E0,-3.974374771E0
3.420033414E0,-7.340622425E0,-3.730166197E0,-4.424484730E0
3.430311748E0,-6.746860504E0,-4.118026733E0,-2.968810081E0
3.440273208E0,-9.576807022E0,-1.991975784E0,-1.039083481E0
3.450357323E0,-1.038604736E1,-1.738190413E0,3.351882398E-1
3.460282324E0,-9.284713745E0,-9.385270476E-1,1.096544385E0
3.470668315E0,-8.623914719E0,-1.608903527E0,-5.410895944E-1
3.480533160E0,-5.339069843E0,-2.748543501E0,-4.079719543E0
3.490633525E0,-5.497087002E0,-3.318363667E0,-3.878606796E0
3.500983891E0,-6.392518520E0,-3.552995205E0,-3.327940464E0
3.511066965E0,-7.000645638E0,-3.519476414E0,-2.489969730E0
3.521101810E0,-7.173028469E0,-4.079719543E0,-1.786074519E0
3.531284519E0,-7.019799232E0,-4.572925091E0,-1.225831270E0
3.541381551E0,-7.058106422E0,-5.161899090E0,-1.168370485E0
3.551496865E0,-7.077260017E0,-5.664681435E0,-5.027823448E-1
3.561579470E0,-8.456320763E0,-5.918466568E0,-1.862688899E0
3.571730408E0,-8.159439087E0,-5.798756599E0,-1.819593310E0
3.581878847E0,-9.184157372E0,-6.885724068E0,-2.820369720E0
3.592014102E0,-9.203310966E0,-7.532158375E0,-3.514688015E0
3.602116401E0,-1.038125896E1,-8.269572258E0,-3.773261786E0
3.612261714E0,-1.056321812E1,-8.173804283E0,-4.146757126E0
3.622379684E0,-9.677363396E0,-7.694964409E0,-3.529053211E0
3.632630206E0,-9.040505409E0,-7.139509678E0,-2.858676910E0
3.642682290E0,-8.839392662E0,-7.077260017E0,-2.652775526E0
3.652693125E0,-8.662221909E0,-7.484274387E0,-1.742978811E0
3.662808699E0,-8.317456245E0,-7.603984833E0,-1.963245392E0
3.672926877E0,-8.068459511E0,-7.225700855E0,-1.508347034E0
3.682997034E0,-8.006210327E0,-7.139509678E0,-1.403002143E0
3.693198389E0,-8.212111473E0,-7.010222435E0,-9.433154464E-1
3.703271151E0,-7.867346764E0,-7.517793179E0,-6.224924326E-1
3.713390943E0,-8.140285492E0,-7.637503624E0,-9.768342972E-1
3.723503392E0,-7.943961143E0,-7.785943985E0,-1.312022567E0
3.733672820E0,-5.865794182E0,-6.732495308E0,-3.256114423E-1
3.744133551E0,-7.805097580E0,-6.502651691E0,1.292868972E0
3.753904645E0,-8.231265068E0,-6.550535679E0,1.905784607E0
3.764061157E0,-7.187393665E0,-6.679822922E0,-1.115697980E0
3.774115689E0,-7.924807549E0,-6.727706909E0,-2.011129379E0
3.784073138E0,-7.943961143E0,-6.392518520E0,-2.499546528E0
3.794410639E0,-7.297526836E0,-5.382165432E0,-2.643198729E0
3.804537723E0,-6.272808552E0,-5.525817394E0,-1.766920805E0
3.814423610E0,-5.612008572E0,-5.856217384E0,-3.160346150E-1
3.824747204E0,-6.014234543E0,-5.157110691E0,-6.224924326E-1
3.834779549E0,-8.542511940E0,-5.875370979E0,3.878606856E-1
3.844882259E0,-6.009446144E0,-6.162675381E0,-9.145850539E-1
3.855021895E0,-8.676587105E0,-4.663905144E0,-4.247313976E0
3.865171948E0,-9.461885452E0,-4.759673119E0,-3.050212860E0
3.875332314E0,-8.781931877E0,-5.094861031E0,-2.681505978E-1
3.885384554E0,-3.404554844E0,-4.027047157E0,-1.446097851E0
3.895648357E0,-6.382941723E0,-3.538630009E0,-1.163581967E0
3.905853046E0,-8.801085472E0,-3.667917013E0,-1.709460020E0
3.915823203E0,-1.011789608E1,-4.333505154E0,-1.881842494E0
3.925837787E0,-1.081700325E1,-4.649539471E0,-2.092532396E0
3.935980757E0,-1.160230160E1,-5.324704647E0,-1.264138460E0
3.946112216E0,-1.177468395E1,-5.904101372E0,-6.655880809E-1
3.956291905E0,-1.119049835E1,-4.855441093E0,-2.226607561E0
3.966419666E0,-8.710105896E0,-4.884171486E0,-4.649539471E0
3.976469667E0,-6.880935669E0,-5.549759388E0,-7.532158375E0
3.986452168E0,-6.258443356E0,-5.300762653E0,-9.270348549E0
3.996683576E0,-5.114014626E0,-5.669469833E0,-9.255983353E0
4.006809410E0,-5.339069843E0,-5.295974255E0,-8.623914719E0
4.016922380E0,-5.597643375E0,-5.027823448E0,-6.981492043E0
4.027080923E0,-6.330269337E0,-4.414907932E0,-4.625597477E0
4.037110663E0,-7.268796444E0,-4.132391930E0,-2.039859772E0
4.047393268E0,-7.422025204E0,-4.419696331E0,-1.015141487E0
4.057419780E0,-6.675034523E0,-4.381389141E0,-1.987187386E0
4.067668739E0,-5.008669853E0,-4.410119534E0,-2.619256735E0
4.077764834E0,-3.179499865E0,-4.572925091E0,-3.519476414E0
4.087779001E0,-4.328716755E0,-4.678270340E0,-5.300762653E0
4.097861815E0,-6.646304131E0,-5.233725071E0,-6.607996464E0
4.108006972E0,-9.011775017E0,-5.061342239E0,-7.441178799E0
4.118169265E0,-1.052491093E1,-5.267243862E0,-7.359776020E0
4.128213589E0,-1.031422138E1,-5.669469833E0,-7.556100368E0
4.138358381E0,-9.069235802E0,-5.865794182E0,-8.408436775E0
4.148465466E0,-7.364564419E0,-5.453991413E0,-9.600749016E0
4.158619165E0,-5.923254967E0,-5.726930618E0,-8.221688271E0
4.168691457E0,-5.650316238E0,-5.377377033E0,-6.622362137E0
4.178958854E0,-5.425261021E0,-5.439626217E0,-6.023811340E0
4.188812084E0,-6.363788128E0,-5.568912983E0,-6.703764915E0
4.199040471E0,-6.344634533E0,-5.521028996E0,-7.177816868E0
4.209181722E0,-9.212887764E0,-6.057330132E0,-1.819593310E-1
4.219214587E0,-9.552865028E0,-4.606443882E0,-3.830722570E-1
4.229475891E0,-7.120356083E0,-4.108449936E0,-3.988739967E0
4.239566308E0,-5.506663799E0,-4.065354347E0,-4.606443882E0
4.249686361E0,-5.607220173E0,-3.251325846E0,-1.905784607E0
4.259776623E0,-9.423578262E0,-2.609679937E0,6.320692301E-1
4.269900790E0,-9.998186111E0,-3.093308687E0,-5.363011956E-1
4.280027771E0,-9.136273384E0,-3.165134668E0,-2.695871115E0
4.290107824E0,-8.322244644E0,-2.949656487E0,-2.671929121E0
4.300240168E0,-7.307103634E0,-3.883395195E0,-1.948880196E0
4.310379753E0,-6.742072105E0,-4.429273129E0,-3.605667830E0
4.320348296E0,-9.366117477E0,-2.710236311E0,-3.495534420E0
4.330594234E0,-8.451532364E0,-3.323152065E0,-5.884947777E0
4.340665120E0,-7.991845131E0,-4.711789131E0,-6.698976517E0
4.350711736E0,-9.538499832E0,-6.540958881E0,-2.983175278E0
4.360969393E0,-9.097966194E0,-5.382165432E0,-3.969586372E0
4.371064238E0,-8.427590370E0,-6.004657745E0,-3.107673883E0
4.381144135E0,-7.838616371E0,-6.876147270E0,-3.423708439E0
4.391174344E0,-7.264008045E0,-6.804321289E0,-4.793191910E0
4.401338981E0,-7.086836815E0,-7.000645638E0,-7.623138428E0
4.411557471E0,-6.196194172E0,-5.904101372E0,-7.867346764E0
4.421677056E0,-7.771578789E0,-5.209783077E0,-5.228936672E0
4.431830234E0,-7.690176010E0,-4.697423935E0,-3.102885485E0
4.441883776E0,-7.302315235E0,-4.922478676E0,-5.626373768E0
4.452014507E0,-7.201758862E0,-5.104437828E0,-6.416460514E0
4.462120705E0,-8.508993149E0,-4.999093056E0,-5.367800236E0
4.472296019E0,-9.184157372E0,-5.295974255E0,-6.148310184E0
4.482418572E0,-7.953537941E0,-5.214571476E0,-6.512228489E0
4.492524719E0,-7.048529625E0,-5.549759388E0,-7.800309181E0
4.502481803E0,-6.502651691E0,-5.238513470E0,-9.548076630E0
4.512761023E0,-5.315127850E0,-4.601655483E0,-1.830606651E1
4.522933055E0,-5.070919037E0,-5.027823448E0,-7.000645638E0
4.532952483E0,-4.797980309E0,-2.260126352E0,7.479485989E0
4.543057641E0,-5.262455463E0,-1.096544385E0,-9.720458984E-1
4.553245246E0,-5.707777023E0,-1.422155857E0,-2.489969730E0
4.563306393E0,-6.507440090E0,-2.647987127E0,-3.840299606E0
4.573499883E0,-7.302315235E0,-3.476380825E0,-4.299986362E0
4.583597436E0,-7.517793179E0,-3.897760391E0,-4.343081951E0
4.593666552E0,-7.517793179E0,-3.940855980E0,-4.778826714E0
4.603816240E0,-6.248866558E0,-4.242525578E0,-5.013458252E0
4.613941710E0,-5.578489780E0,-4.103661537E0,-5.090072632E0
4.624026138E0,-5.257667065E0,-4.285621166E0,-5.075707436E0
4.634157389E0,-5.449203014E0,-4.501099110E0,-5.190629482E0
4.644271401E0,-5.664681435E0,-4.596867085E0,-4.587290287E0
4.654393329E0,-6.004657745E0,-5.200206280E0,-5.343858242E0
4.664516246E0,-5.999869347E0,-5.588066578E0,-5.803544998E0
4.674901560E0,-6.100425720E0,-5.181052685E0,-5.640739441E0
4.684798488E0,-6.287173748E0,-5.195417881E0,-4.582501888E0
4.694854479E0,-5.707777023E0,-5.463568211E0,-4.419696331E0
4.704858386E0,-4.936843872E0,-5.425261021E0,-3.394978046E0
4.715244897E0,-4.204218388E0,-5.334281445E0,-2.504334927E0
4.725231513E0,-6.593631268E0,-4.548983097E0,-3.122039080E0
4.735317295E0,-6.909666061E0,-4.745307922E0,-4.884171486E0
4.745490629E0,-6.732495308E0,-5.013458252E0,-5.262455463E0
4.755744068E0,-6.885724068E0,-4.778826714E0,-5.746084213E0
4.765571986E0,-7.757213593E0,-4.582501888E0,-4.750096321E0
4.775633439E0,-9.797073364E0,-4.357447147E0,-4.774038315E0
4.785797352E0,-8.580819130E0,-4.515464306E0,-6.502651691E0
4.796147405E0,-8.643068314E0,-4.649539471E0,-7.292738438E0
4.806054385E0,-9.500192642E0,-4.845864296E0,-6.071695328E0
4.816232616E0,-9.126696587E0,-4.730942726E0,-4.084507942E0
4.826465273E0,-8.389283180E0,-4.936843872E0,-2.896984100E0
4.836550951E0,-8.571242332E0,-6.636727333E0,-4.414907932E0
4.846671004E0,-6.924031258E0,-7.790732384E0,-9.696516991E0
4.856774807E0,-6.191405773E0,-6.785167694E0,-6.114790916E0
4.866887673E0,-7.067683220E0,-6.320692539E0,-3.825934410E0
4.877120070E0,-7.393294811E0,-6.100425720E0,-3.816357613E0
4.887121581E0,-6.871358871E0,-6.105214119E0,-3.217807055E0
4.897236999E0,-5.846640587E0,-5.391742229E0,-3.265691042E0
4.907325594E0,-5.650316238E0,-4.783615112E0,-2.882618904E0
4.917485386E0,-5.779603004E0,-4.309563160E0,-3.653551817E0
4.927639293E0,-6.019022942E0,-4.204218388E0,-4.453215122E0
4.937810701E0,-6.157886982E0,-4.276044369E0,-4.869806290E0
4.947837473E0,-6.402095318E0,-4.850652695E0,-5.506663799E0
4.957998821E0,-7.168240070E0,-4.860229492E0,-5.410895824E0
4.968122422E0,-7.086836815E0,-4.984727859E0,-4.730942726E0
4.978339351E0,-6.536170483E0,-4.649539471E0,-4.630385876E0
4.988289352E0,-6.607996464E0,-4.697423935E0,-4.434061527E0
4.998477009E0,-7.283161640E0,-5.995080948E0,-4.003105164E0
5.008644249E0,-8.063671112E0,-8.073247910E0,-4.237737179E0
5.018721386E0,-7.642292023E0,-7.527369976E0,-5.420472622E0
5.028897845E0,-8.350975990E0,-9.447520256E0,-5.741295815E0
5.038897325E0,-6.785167694E0,-1.150653362E1,-5.746084213E0
5.049134826E0,-6.473921299E0,-6.804321289E0,-5.257667065E0
5.059225192E0,-6.138733387E0,-6.976703644E0,-4.865017891E0
5.069228526E0,-5.358223438E0,-8.097189903E0,-2.255337954E0
5.079375454E0,-5.386953831E0,-7.407660007E0,-2.379836559E0
5.089496237E0,-7.580042362E0,-6.646304131E0,-2.059013367E0
5.099753529E0,-1.013226128E1,-6.071695328E0,-3.485957623E0
5.109741499E0,-1.297657299E1,-8.164227486E0,-5.664681435E0
5.119877594E0,-1.738190460E1,-7.522581577E0,-1.108515358E1
5.129989053E0,-1.747767258E1,-2.059013397E-1,-3.403597260E1
5.140158742E0,-1.168370485E0,-1.416409683E1,-2.839523315E0
5.150157597E0,1.422155857E0,-5.803544998E0,4.697423935E0
5.160291400E0,3.126827478E0,-2.255337954E0,4.022258818E-1
5.170432547E0,3.960009575E0,-3.701435804E0,7.757213712E-1
5.180555569E0,4.601655483E0,-4.017470360E0,1.493981838E0
5.190740466E0,-4.793191910E0,-5.808333397E0,-1.479616642E0
5.200850050E0,-3.787626982E0,-5.157110691E0,-1.972822189E0
5.211002707E0,-2.485181332E0,-5.386953831E0,-1.963245392E0
5.221175833E0,-3.026270866E0,-5.468356609E0,-2.557007313E0
5.231166251E0,-8.331822157E-1,-5.597643375E0,-2.686294317E0
5.241283075E0,5.018246651E0,-5.774814606E0,-2.422932148E0
5.251240159E0,2.983175278E0,-5.070919037E0,-1.891419291E0
5.261720993E0,2.762908697E0,-5.410895824E0,-7.565677166E-1
5.271717088E0,2.624045134E0,-5.679046631E0,2.681505978E-1
5.281866308E0,-5.707777023E0,-5.324704647E0,-4.103661537E0
5.287964954E0,-1.441788292E1,-5.679046631E0,-8.422801971E0
5.297104434E0,-1.686475754E1,-6.856993675E0,-6.105214119E0
5.307169071E0,-1.680729675E1,-1.024718285E1,-6.904877663E0
5.317196884E0,-1.688869858E1,-1.148259163E1,-5.190629482E0
5.327318031E0,-1.079784966E1,-1.019451046E1,-6.947973251E0
5.337566366E0,-1.039083576E1,-9.404424667E0,-5.698200226E0
5.347476262E0,-8.547300339E0,-8.125920296E0,-5.310339451E0
5.357789440E0,-6.722918510E0,-8.494627953E0,-4.276044369E0
5.367855535E0,-5.889736176E0,-9.270348549E0,-3.332728863E0
5.377964911E0,-5.612008572E0,-8.528146744E0,-2.049436569E0
5.388045381E0,-3.768473387E0,-8.063671112E0,-1.283292055E0
5.397965590E0,-3.016694069E0,-7.905653954E0,-1.527500629E0
5.408298300E0,-1.771709204E0,-7.498639584E0,1.580173075E-1
5.418359759E0,-1.690306425E0,-7.029376030E0,-2.322375536E0
5.428476479E0,-6.129156351E-1,-6.536170483E0,-3.797203779E0
5.438574449E0,-1.254561663E0,-6.651092529E0,-3.825934410E0
5.448544814E0,-2.580949545E0,-5.377377033E0,-4.213795185E0
5.458896742E0,-4.979939461E0,-6.627150536E0,-3.126827478E0
5.468972681E0,-4.635174274E0,-7.254431248E0,-2.327163935E0
5.479097682E0,-4.189853191E0,-6.382941723E0,-1.355118155E0
5.489376641E0,-3.682282209E0,-5.209783077E0,-1.163581967E0
5.499315548E0,-4.783615112E0,-3.552995205E0,-6.464344859E-1
5.509423049E0,1.082179189E0,-8.949525833E0,-1.977610588E0
5.519527477E0,-5.233725071E0,-6.804321289E0,-1.048660398E0
5.529691541E0,-2.303221941E0,-7.158663273E0,-1.407790542E0
5.539769823E0,-2.892195702E0,-1.143949604E1,-1.944091797E0
5.550174772E0,-4.754884720E0,-8.327033043E0,-2.049436569E0
5.560040711E0,-5.291185856E0,-1.098459721E1,-2.159569979E0
5.570228785E0,-5.090072632E0,-1.343626022E1,-1.110909581E0
5.580319150E0,-5.085284233E0,-1.565329075E1,-2.135627985E0
5.590386912E0,-3.466804028E0,-1.820550919E1,-3.189076662E0
5.600479725E0,-1.747767210E0,-1.825818253E1,-4.223371983E0
5.610644882E0,-2.030282974E0,-1.776497650E1,-3.988739967E0
5.620771706E0,-1.968033791E0,-1.286643982E1,-3.667917013E0
5.630945249E0,-2.978386879E0,-1.234450436E1,-2.298433542E0
5.640984521E0,-3.256114244E0,-1.191354752E1,-1.063025594E0
5.651080563E0,-2.250549555E0,-1.023281765E1,-1.192312479E0
5.661257127E0,-2.719813108E0,-1.001255131E1,-9.528923035E-1
5.671335930E0,-3.706224203E0,-8.949525833E0,-4.453215301E-1
5.681420046E0,-2.298433542E0,-8.092401505E0,-1.412579060E0
5.691387495E0,-5.937620401E-1,-7.168240070E0,-2.030282974E0
5.701656037E0,-2.695871115E0,-7.091625214E0,-2.351106167E0
5.711958070E0,-1.661576033E0,-7.163451672E0,-2.930502892E0
5.722107914E0,-1.297657371E0,-7.565677166E0,-2.470816135E0
5.731910571E0,-1.824381709E0,-8.169015884E0,-1.838746905E0
5.742244739E0,-2.111685991E0,-8.633491516E0,-1.556231141E0
5.752356823E0,-1.484405041E0,-9.097966194E0,-6.224924326E-1
5.762380991E0,-1.953668594E0,-9.538499832E0,1.915361285E-1
5.772521826E0,-1.690306425E0,-1.018493366E1,1.771709323E-1
5.782528597E0,-2.063801765E0,-1.058237171E1,-2.920926213E-1
5.792855213E0,-2.442085743E0,-1.073560047E1,-5.363011956E-1
5.802863808E0,-2.820369720E0,-1.065898609E1,-1.393425345E0
5.813063652E0,-2.916137695E0,-1.057758331E1,-2.403778553E0
5.823188966E0,-3.232172251E0,-1.042435455E1,-2.169146776E0
5.833367300E0,-2.341529369E0,-9.969455719E0,-1.235408068E0
5.843362093E0,-2.327163935E0,-9.102754593E0,-8.140285611E-1
5.853420844E0,-2.078166962E0,-9.150638580E0,-1.412579060E0
5.863572147E0,-2.394201756E0,-9.342175484E0,-1.412579060E0
5.873743398E0,-2.518700123E0,-9.303867340E0,-1.623268723E0
5.883810326E0,-2.638410330E0,-9.145850182E0,-1.594538331E0
5.893920119E0,-2.413355350E0,-9.485827446E0,-1.101332784E0
5.904056214E0,-2.130839586E0,-9.433155060E0,-4.884171486E-1
5.914005329E0,-1.958456993E0,-8.901641846E0,-4.788403399E-3
5.924307153E0,-1.120486379E0,-8.504204750E0,1.244984865E-1
5.934365487E0,-1.738190413E0,-8.082824707E0,-8.523358107E-1
5.944510124E0,-1.335964561E0,-7.709329605E0,-1.053448796E0
5.954619344E0,-1.872265697E0,-6.392518520E0,-1.723825216E0
5.964823980E0,-1.144428372E0,-5.760449409E0,-1.786074519E0
5.974924919E0,-5.746084079E-2,-4.592078686E0,-2.130839586E0
5.984853201E0,7.182604820E-2,-3.634398222E0,-2.542642117E0
5.995213254E0,1.024718285E0,-1.862688899E0,-2.624045134E0
6.005086901E0,3.351882473E-2,-1.154005170E0,-2.896984100E0
6.015299037E0,-1.747767210E0,-3.993528366E0,-4.113238335E0
6.025349403E0,-2.806004286E0,-7.005434036E0,-1.843535304E0
6.035769404E0,-1.642422318E0,-1.046266174E1,-1.182735682E0
6.045815290E0,-2.006340981E0,-1.363737297E1,-1.680729628E0
6.055874041E0,-1.853112102E0,-1.437478733E1,-1.345541358E0
6.065777532E0,-2.681505919E0,-1.112824917E1,-1.063025594E0
6.076095762E0,-1.819593310E0,-8.207323074E0,-2.264914751E0
6.086193419E0,-3.045424461E0,-7.187393665E0,-2.973598480E0
6.096259358E0,-1.067813993E0,-8.786720276E0,-2.652775526E0
6.106404046E0,-1.125274777E0,-8.820239067E0,-3.189076662E0
6.116549985E0,-2.743755102E0,-9.672574997E0,-3.337517262E0
6.126661809E0,-1.532289028E0,-1.376665974E1,-2.853888512E0
6.136747487E0,-2.365471363E0,-1.410663605E1,-1.125274777E0
6.146911082E0,-3.241749048E0,-1.132457447E1,-1.369483352E0
6.157233374E0,-3.490746021E0,-1.223915863E1,-1.695094824E0
6.167116344E0,-2.959233284E0,-1.403959846E1,-1.944091797E0
6.177211449E0,-2.078166962E0,-1.509783554E1,-1.465251446E0
6.187344992E0,-1.067813993E0,-1.612734222E1,-1.695094824E0
6.197499524E0,-3.399766386E-1,-1.460941887E1,-1.848323703E0
6.207711140E0,5.985504389E-1,-1.588792229E1,-1.857900500E0
6.217865985E0,1.235408068E0,-1.564371395E1,-1.742978811E0
6.227707808E0,-2.557007313E0,-1.130063248E1,-1.766920805E0
6.238129945E0,-3.002328873E0,-1.040520096E1,-2.729389906E0
6.248108748E0,-3.371036053E0,-9.868899345E0,-2.753331900E0
6.258193176E0,-3.476380825E0,-9.088389397E0,-2.614468336E0
6.268317396E0,-3.323152065E0,-8.580819130E0,-2.643198729E0
6.278496459E0,-3.380612850E0,-8.518569946E0,-2.106897593E0
6.288612137E0,-3.308786631E0,-8.729259491E0,-1.987187386E0
6.298672190E0,-3.160346270E0,-9.107542992E0,-2.059013367E0
6.308826098E0,-2.552218914E0,-8.834604263E0,-2.705447912E0
6.318976672E0,-2.231395960E0,-8.877699852E0,-2.935291290E0
6.329077766E0,-1.877054095E0,-8.647856712E0,-2.964021683E0
6.339239278E0,-2.408566952E0,-9.706093788E0,-2.533065319E0
6.349249175E0,-1.589749932E0,-9.959878922E0,-2.782062292E0
6.359497821E0,-1.977610588E0,-1.000776291E1,-2.231395960E0
6.369584229E0,-1.939303398E0,-1.003649330E1,-2.595314741E0
6.379774334E0,-2.068590164E0,-9.916783333E0,-2.451662540E0
6.389891991E0,-2.375048161E0,-9.706093788E0,-2.499546528E0
6.400046576E0,-2.576161146E0,-9.414001465E0,-2.456450939E0
6.410107931E0,-2.643198729E0,-9.284713745E0,-2.542642117E0
6.420161838E0,-2.767697096E0,-9.117119789E0,-2.566584110E0
6.430206474E0,-2.633621931E0,-8.959102631E0,-2.767697096E0
6.440407048E0,-2.657563925E0,-8.925583839E0,-2.743755102E0
6.450713612E0,-2.671929121E0,-8.978256226E0,-2.624045134E0
6.460623925E0,-2.566584110E0,-9.074024200E0,-2.686294317E0
6.470706322E0,-2.355894566E0,-9.074024200E0,-2.657563925E0
6.480893823E0,-2.217030764E0,-9.222464561E0,-2.389413357E0
6.491213564E0,-2.159569979E0,-9.265560150E0,-2.365471363E0
6.496321585E0,-2.054224968E0,-9.270348549E0,-2.221819162E0
6.506108774E0,-2.140416384E0,-9.437943459E0,-2.078166962E0
6.516237212E0,-2.087743998E0,-9.394847870E0,-2.044648170E0
6.526383255E0,-2.250549555E0,-9.337387085E0,-1.848323703E0
6.531690391E0,-1.939303398E0,-9.337387085E0,-2.126051188E0
6.541709298E0,-2.039859772E0,-9.236829758E0,-2.102109194E0
6.551538726E0,-1.900996208E0,-9.208099365E0,-2.135627985E0
6.561801279E0,-1.924938202E0,-9.222464561E0,-2.178723574E0
6.571937686E0,-1.781286120E0,-9.117119789E0,-2.140416384E0
6.582022114E0,-1.537077546E0,-9.026140213E0,-2.236184359E0
6.592129147E0,-1.254561663E0,-8.887276649E0,-2.059013367E0
6.602242377E0,-1.115697980E0,-8.820239067E0,-1.886630893E0
6.612487586E0,-8.331822157E-1,-8.868123055E0,-1.862688899E0
6.622591129E0,-5.698199868E-1,-9.016563416E0,-1.872265697E0
6.632687432E0,-2.059013397E-1,-9.188945770E0,-1.977610588E0
6.642789464E0,1.197100878E-1,-9.390059471E0,-2.111685991E0
6.652899934E0,1.867477298E-1,-9.461885452E0,-2.020706177E0
6.662953320E0,-1.436521020E-2,-9.442731857E0,-1.891419291E0
6.673038634E0,-5.746084079E-2,-9.466673851E0,-1.939303398E0
6.683141760E0,-1.340752989E-1,-9.509769440E0,-2.015917778E0
6.693335303E0,-1.388636976E-1,-9.370905876E0,-2.006340981E0
6.703542647E0,-1.292868853E-1,-9.504981041E0,-2.121262789E0
6.713348325E0,-1.005564705E-1,-9.634267807E0,-1.948880196E0
6.723680827E0,-1.340752989E-1,-9.864110947E0,-2.049436569E0
6.733620150E0,1.197100878E-1,-9.959878922E0,-1.987187386E0
6.744021141E0,2.681505978E-1,-9.983820915E0,-2.327163935E0
6.753998434E0,7.757213712E-1,-1.009395409E1,-2.451662540E0
6.764122445E0,5.171475410E-1,-9.983820915E0,-2.250549555E0
6.774118540E0,6.272808313E-1,-9.897629738E0,-2.173935175E0
6.784447499E0,6.655880809E-1,-9.864110947E0,-1.982398987E0
6.794593698E0,7.661445141E-1,-9.830592155E0,-1.709460020E0
6.804618960E0,7.900865674E-1,-9.844957352E0,-1.944091797E0
6.814778596E0,9.097966552E-1,-9.811438560E0,-1.848323703E0
6.824858857E0,6.895300746E-1,-9.801861763E0,-2.111685991E0
6.835026202E0,5.363011956E-1,-9.753977776E0,-2.197877169E0
6.845006984E0,4.357447028E-1,-9.715670586E0,-2.236184359E0
6.855187506E0,3.351882398E-1,-9.572018623E0,-2.408566952E0
6.865340997E0,2.873041928E-1,-9.548076630E0,-2.470816135E0
6.875436467E0,-9.097966552E-2,-9.629479408E0,-2.422932148E0
6.885528707E0,1.915361285E-1,-9.615114212E0,-2.485181332E0
6.895723448E0,4.453215301E-1,-9.715670586E0,-2.427720547E0
6.906017095E0,6.320692301E-1,-9.950302124E0,-2.284068346E0
6.915850169E0,7.709329724E-1,-9.998186111E0,-2.360682964E0
6.925938295E0,8.283938169E-1,-9.955090523E0,-2.446874142E0
6.936125639E0,4.836287498E-1,-9.935936928E0,-2.408566952E0
6.946258140E0,1.484405100E-1,-9.988609314E0,-2.169146776E0
6.956619496E0,-9.576806799E-3,-1.001255131E1,-1.857900500E0
6.966520330E0,-1.628057212E-1,-9.959878922E0,-1.948880196E0
6.976646893E0,-1.628057212E-1,-9.844957352E0,-1.843535304E0
6.986798607E0,-2.442085743E-1,-9.753977776E0,-1.661576033E0
6.996904239E0,-2.250549644E-1,-9.677363396E0,-1.733402014E0
7.006951480E0,-2.968810201E-1,-9.619902611E0,-1.881842494E0
7.017137574E0,-3.064578176E-1,-9.572018623E0,-2.035071373E0
7.027616690E0,-4.261679053E-1,-9.514557838E0,-2.044648170E0
7.037510858E0,-5.363011956E-1,-9.452308655E0,-1.991975784E0
7.047554713E0,-6.464344859E-1,-9.495404243E0,-1.958456993E0
7.057562579E0,-6.512228847E-1,-9.548076630E0,-1.886630893E0
7.067556173E0,-5.698199868E-1,-9.538499832E0,-1.695094824E0
7.077839195E0,-4.405331016E-1,-9.543288231E0,-1.436521053E0
7.087886644E0,-4.788403511E-1,-9.548076630E0,-1.139639974E0
7.098016228E0,-1.580173075E-1,-9.734824181E0,-7.565677166E-1
7.108377167E0,-9.097966552E-2,-9.720458984E0,-1.086967587E0
7.118341908E0,3.064578176E-1,-9.806650162E0,-1.426944256E0
7.128436075E0,7.517793179E-1,-9.945513725E0,-1.848323703E0
7.138501435E0,1.005564690E0,-1.018493366E1,-2.087743998E0
7.148701233E0,1.321599364E0,-1.042435455E1,-2.518700123E0
7.158774880E0,1.307234168E0,-1.040520096E1,-2.973598480E0
7.168864360E0,7.038952708E-1,-9.955090523E0,-2.829946518E0
7.178973007E0,-1.580173075E-1,-9.279925346E0,-2.595314741E0
7.189131081E0,-9.241618514E-1,-8.638279915E0,-2.140416384E0
7.199328270E0,-9.768342972E-1,-8.169015884E0,-1.776497602E0
7.209388114E0,-1.450886250E0,-7.876923561E0,-1.604115129E0
7.219268845E0,-1.508347034E0,-7.867346764E0,-1.675941229E0
7.229568637E0,-1.326387763E0,-7.987056732E0,-1.268926859E0
7.239656243E0,-9.672574997E-1,-8.532935143E0,-1.134851575E0
7.249744369E0,-5.027823448E-1,-9.380482674E0,-1.125274777E0
7.259888432E0,9.576806426E-2,-1.029027843E1,-5.458779931E-1
7.269861089E0,7.757213712E-1,-1.131499767E1,-7.086837292E-1
7.280218434E0,6.991068721E-1,-1.169806957E1,1.771709323E-1
7.290294633E0,-5.554547906E-1,-1.169806957E1,2.106897533E-1
7.300458488E0,-1.225831270E0,-1.139640045E1,1.915361360E-2
7.310588281E0,-1.513135433E0,-1.070687008E1,4.309562966E-2
7.320643021E0,-2.557007313E0,-9.006986618E0,9.672574997E-1
7.330728752E0,-1.498770237E0,-8.346187592E0,-1.628057212E-1
7.340830680E0,-2.633621991E-1,-7.623138428E0,-1.929726601E0
7.350965577E0,5.315127969E-1,-6.679822922E0,-2.106897593E0
7.361105213E0,5.315127969E-1,-7.249642849E0,-1.575384736E0
7.371438287E0,6.847416759E-1,-8.542511940E0,-2.226607561E0
7.381338027E0,1.082179189E0,-9.959878922E0,-3.567360640E0
7.391437664E0,1.580173135E0,-1.112824917E1,-3.739742994E0
7.401629279E0,1.508347034E0,-1.191833591E1,-3.026270866E0
7.411726885E0,1.757344007E0,-1.247379112E1,-1.862688899E0
7.421796209E0,1.714248419E0,-1.199016190E1,-4.932055473E-1
7.431973918E0,1.158793569E0,-1.093671322E1,1.532289088E-1
7.442069336E0,2.585737705E-1,-1.031900978E1,5.506663918E-1
7.452146160E0,-3.639186621E-1,-1.018972206E1,4.165911078E-1
7.462263817E0,-5.650315881E-1,-9.888052940E0,3.878606856E-1
7.472426787E0,-6.129156351E-1,-9.461885452E0,2.202665508E-1
7.482602777E0,-5.793967843E-1,-9.069235802E0,-1.101332754E-1
7.492655851E0,-7.852981687E-1,-9.035717010E0,-7.948749661E-1
7.502731373E0,-9.145850539E-1,-9.169792175E0,-1.259350061E0
7.512901582E0,-9.385270476E-1,-9.327810287E0,-1.589749932E0
7.523001844E0,-7.134721279E-1,-9.284713745E0,-1.666364431E0
7.533167782E0,-5.889736414E-1,-9.390059471E0,-1.628057122E0
7.543256325E0,-3.447650373E-1,-9.461885452E0,-1.297657371E0
7.553450597E0,-3.830722719E-2,-9.667786598E0,-9.576807022E-1
7.563538671E0,1.053448766E-1,-9.864110947E0,-7.422025204E-1
7.573627213E0,4.788403213E-2,-1.007480049E1,-4.596867263E-1
7.583748777E0,-2.777273953E-1,-1.024718285E1,-3.447650373E-1
7.593707684E0,-6.416460276E-1,-1.027112484E1,-4.836287498E-1
7.603963466E0,-1.010353088E0,-1.010353088E1,-6.512228847E-1
7.614048363E0,-1.039083481E0,-9.950302124E0,-7.374141216E-1
7.624170135E0,-1.015141487E0,-9.696516991E0,-9.145850539E-1
7.634400709E0,-9.672574997E-1,-9.581595421E0,-1.201889277E0
7.644433887E0,-6.607996821E-1,-9.634267807E0,-1.192312479E0
7.654533628E0,-4.261679053E-1,-9.777919769E0,-1.374271750E0
7.664642066E0,-1.723825186E-1,-9.811438560E0,-1.273715258E0
7.674858786E0,-9.576806426E-2,-9.835380554E0,-1.125274777E0
7.685093006E0,-1.292868853E-1,-9.892841339E0,-8.858546019E-1
7.695127486E0,-1.628057212E-1,-9.916783333E0,-6.799532771E-1
7.704985560E0,-3.160346150E-1,-9.916783333E0,-5.985504389E-1
7.715306082E0,-4.357447028E-1,-9.926360130E0,-4.932055473E-1
7.725514676E0,-5.985504389E-1,-9.959878922E0,-4.309563041E-1
7.735599469E0,-5.267243981E-1,-9.878476143E0,-5.171475410E-1
7.745429262E0,-4.740519226E-1,-9.830592155E0,-5.554547906E-1
7.755816294E0,-3.064578176E-1,-9.801861763E0,-6.272808313E-1
7.765864368E0,-2.968810201E-1,-9.706093788E0,-7.805097699E-1
7.776045775E0,-2.059013397E-1,-9.720458984E0,-8.044517636E-1
7.786079995E0,-9.097966552E-2,-9.782708168E0,-8.810662031E-1
7.796224892E0,1.915361360E-2,-9.844957352E0,-1.082179189E0
7.806448122E0,2.394201607E-2,-9.797073364E0,-1.039083481E0
7.816514321E0,-2.106897533E-1,-9.677363396E0,-1.110909581E0
7.826522239E0,-3.830722570E-1,-9.686940193E0,-1.015141487E0
7.836673437E0,-4.405331016E-1,-9.730035782E0,-9.528923035E-1
7.846834480E0,-4.836287498E-1,-9.825803757E0,-8.140285611E-1
7.856937502E0,-4.788403511E-1,-9.816226959E0,-8.044517636E-1
7.866975680E0,-5.410895944E-1,-9.792284966E0,-7.422025204E-1
7.877119119E0,-4.836287498E-1,-9.797073364E0,-6.512228847E-1
7.887394588E0,-4.692635238E-1,-9.864110947E0,-6.703764796E-1
7.897406360E0,-4.165911078E-1,-9.864110947E0,-7.565677166E-1
7.907519642E0,-4.118026793E-1,-9.806650162E0,-8.331822157E-1
7.917597716E0,-4.165911078E-1,-9.806650162E0,-8.379706144E-1
7.928037196E0,-4.118026793E-1,-9.777919769E0,-9.050082564E-1
7.937816781E0,-4.309563041E-1,-9.825803757E0,-8.858546019E-1
7.947955636E0,-3.782838583E-1,-9.797073364E0,-9.193734527E-1
7.958097668E0,-2.633621991E-1,-9.835380554E0,-9.768342972E-1
7.968192200E0,-3.112462163E-1,-9.768342972E0,-1.058237195E0
7.978436733E0,-3.734954596E-1,-9.763554573E0,-9.241618514E-1
7.988513817E0,-5.027823448E-1,-9.701305389E0,-9.385270476E-1
7.998402516E0,-6.416460276E-1,-9.619902611E0,-9.720458984E-1
8.008920434E0,-7.182605267E-1,-9.662998199E0,-8.092401624E-1
8.018837518E0,-6.560112834E-1,-9.730035782E0,-7.805097699E-1
8.029034498E0,-6.512228847E-1,-9.835380554E0,-6.129156351E-1
8.039218718E0,-5.123591423E-1,-9.931148529E0,-7.182605267E-1
8.049208042E0,-4.309563041E-1,-9.888052940E0,-7.613561153E-1
8.059256168E0,-4.740519226E-1,-9.825803757E0,-8.427590132E-1
8.069368617E0,-4.596867263E-1,-9.873687744E0,-8.667010069E-1
8.079535180E0,-3.591302633E-1,-9.935936928E0,-7.469909191E-1
8.089842577E0,-3.351882398E-1,-9.864110947E0,-8.810662031E-1
8.099643464E0,-3.256114423E-1,-9.873687744E0,-7.900865674E-1
8.109924767E0,-2.681505978E-1,-9.907206535E0,-9.050082564E-1
8.120087997E0,-2.250549644E-1,-9.888052940E0,-9.576807022E-1
8.130366071E0,-2.489969730E-1,-9.801861763E0,-9.959878922E-1
8.140279197E0,-2.011129409E-1,-9.797073364E0,-9.385270476E-1
8.150341594E0,-2.202665508E-1,-9.816226959E0,-1.010353088E0
8.160503053E0,-3.256114423E-1,-9.825803757E0,-9.624691010E-1
8.170698002E0,-3.160346150E-1,-9.797073364E0,-9.050082564E-1
8.180986545E0,-3.351882398E-1,-9.777919769E0,-8.188169599E-1
8.190824046E0,-3.543418646E-1,-9.730035782E0,-7.326257229E-1
8.201141703E0,-3.351882398E-1,-9.844957352E0,-7.182605267E-1
8.211122746E0,-3.303998411E-1,-9.950302124E0,-7.469909191E-1
8.221278684E0,-3.687070608E-1,-9.945513725E0,-7.517793179E-1
8.231279935E0,-3.687070608E-1,-9.883264542E0,-9.241618514E-1
8.241466499E0,-4.309563041E-1,-9.782708168E0,-9.768342972E-1
8.251656812E0,-5.123591423E-1,-9.739612579E0,-9.864110947E-1
8.261758271E0,-4.740519226E-1,-9.758766174E0,-9.816226959E-1
8.271811658E0,-3.495534360E-1,-9.768342972E0,-9.911994934E-1
8.281985982E0,-4.118026793E-1,-9.715670586E0,-9.576807022E-1
8.292112024E0,-4.165911078E-1,-9.677363396E0,-9.911994934E-1
8.302174838E0,-4.596867263E-1,-9.730035782E0,-1.034295082E0
8.312239370E0,-4.405331016E-1,-9.811438560E0,-9.528923035E-1
8.322440309E0,-4.692635238E-1,-9.782708168E0,-1.029506683E0
8.332818747E0,-5.698199868E-1,-9.782708168E0,-1.005564690E0
8.342664738E0,-6.129156351E-1,-9.768342972E0,-9.193734527E-1
8.352778281E0,-6.464344859E-1,-9.854534149E0,-9.002198577E-1
8.362896094E0,-6.368576288E-1,-9.806650162E0,-9.145850539E-1
8.372997345E0,-6.847416759E-1,-9.696516991E0,-9.337386489E-1
8.383063388E0,-6.368576288E-1,-9.710882187E0,-8.523358107E-1
8.393167034E0,-5.985504389E-1,-9.667786598E0,-7.948749661E-1
8.403301098E0,-3.926490843E-1,-9.691728592E0,-1.163581967E0
8.413432974E0,-3.112462163E-1,-9.624691010E0,-9.528923035E-1
8.423570996E0,-4.357447028E-1,-9.749189377E0,-7.326257229E-1
8.433646986E0,-1.723825186E-1,-9.782708168E0,-7.996633649E-1
8.443629227E0,-3.351882473E-2,-9.840168953E0,-7.996633649E-1
8.453884645E0,5.267243832E-2,-9.921571732E0,-7.278373241E-1
8.463978396E0,2.489969730E-1,-9.955090523E0,-6.703764796E-1
8.474072876E0,2.729389966E-1,-9.998186111E0,-7.326257229E-1
8.484188398E0,2.633621991E-1,-9.868899345E0,-7.182605267E-1
8.494386992E0,2.250549644E-1,-9.725247383E0,-7.326257229E-1
8.504494598E0,1.244984865E-1,-9.600749016E0,-7.565677166E-1
8.514569286E0,1.532289088E-1,-9.524134636E0,-6.464344859E-1
8.524571839E0,1.819593310E-1,-9.667786598E0,-6.464344859E-1
8.534894699E0,2.968810201E-1,-9.921571732E0,-6.033388376E-1
8.544959393E0,3.495534360E-1,-1.014662647E1,-5.123591423E-1
8.555071947E0,5.075707436E-1,-1.035731697E1,-5.027823448E-1
8.565211062E0,6.751648784E-1,-1.055842972E1,-4.644751251E-1
8.575330073E0,6.991068721E-1,-1.038604736E1,-5.937620401E-1
8.585536533E0,5.363011956E-1,-1.005085850E1,-6.033388376E-1
8.595563878E0,2.202665508E-1,-9.830592155E0,-7.517793179E-1
8.605719295E0,-1.675941199E-1,-9.639056206E0,-8.762778044E-1
8.615842317E0,-3.447650373E-1,-9.538499832E0,-1.034295082E0
8.625886120E0,-4.596867263E-1,-9.538499832E0,-9.481038451E-1
8.635991173E0,-4.836287498E-1,-9.533711433E0,-1.005564690E0
8.646303987E0,-3.926490843E-1,-9.648633003E0,-9.337386489E-1
8.656263207E0,-3.016694188E-1,-9.672574997E0,-9.624691010E-1
8.666224562E0,-2.873041928E-1,-9.744400978E0,-8.810662031E-1
8.676447219E0,-2.489969730E-1,-9.763554573E0,-9.241618514E-1
8.686602272E0,-2.729389966E-1,-9.739612579E0,-8.283938169E-1
8.696750711E0,-2.825157940E-1,-9.816226959E0,-8.762778044E-1
8.707041024E0,-4.165911078E-1,-9.792284966E0,-9.576807022E-1
8.716841806E0,-4.405331016E-1,-9.696516991E0,-9.576807022E-1
8.727093734E0,-5.267243981E-1,-9.696516991E0,-9.911994934E-1
8.737295350E0,-5.698199868E-1,-9.643844604E0,-1.034295082E0
8.747158372E0,-4.932055473E-1,-9.643844604E0,-9.959878922E-1
8.757397644E0,-4.692635238E-1,-9.691728592E0,-9.959878922E-1
8.767526759E0,-3.160346150E-1,-9.792284966E0,-9.624691010E-1
8.777618896E0,-2.298433632E-1,-9.806650162E0,-9.864110947E-1
8.787746761E0,-2.011129409E-1,-9.921571732E0,-9.385270476E-1
8.797849939E0,-1.005564705E-1,-9.878476143E0,-8.379706144E-1
8.807989836E0,-9.576806799E-3,-9.840168953E0,-9.193734527E-1
8.818124681E0,-6.703764945E-2,-9.806650162E0,-9.433154464E-1
8.828252911E0,-2.250549644E-1,-9.744400978E0,-9.145850539E-1
8.838328850E0,-2.489969730E-1,-9.758766174E0,-9.241618514E-1
8.848460361E0,-2.633621991E-1,-9.715670586E0,-9.241618514E-1
8.858650570E0,-2.250549644E-1,-9.739612579E0,-9.289502501E-1
8.868781821E0,-2.346317619E-1,-9.758766174E0,-9.768342972E-1
8.878829114E0,-3.208230138E-1,-9.667786598E0,-9.672574997E-1
8.889204480E0,-3.974374831E-1,-9.706093788E0,-9.385270476E-1
8.899153960E0,-2.920926213E-1,-9.792284966E0,-8.762778044E-1
8.909188232E0,-1.580173075E-1,-9.892841339E0,-8.714894056E-1
8.919286306E0,-8.619125932E-2,-9.974244118E0,-9.145850539E-1
8.929393338E0,-1.101332754E-1,-9.983820915E0,-8.858546019E-1
8.939555006E0,-1.963245422E-1,-9.916783333E0,-9.959878922E-1
8.949713913E0,-2.442085743E-1,-9.916783333E0,-1.005564690E0
8.959787664E0,-3.351882398E-1,-9.825803757E0,-9.768342972E-1
8.969779905E0,-4.501099288E-1,-9.792284966E0,-9.481038451E-1
8.980043239E0,-3.208230138E-1,-9.864110947E0,-8.523358107E-1
8.990153604E0,-1.867477298E-1,-9.883264542E0,-8.236053586E-1
9.000170428E0,-2.250549644E-1,-9.821015358E0,-9.002198577E-1
9.010351159E0,-2.537853718E-1,-9.777919769E0,-9.481038451E-1
9.020533607E0,4.788403399E-3,-9.806650162E0,-1.134851575E0
9.030858296E0,-1.628057212E-1,-9.792284966E0,-1.024718285E0
9.040872151E0,-2.489969730E-1,-9.691728592E0,-1.053448796E0
9.050892933E0,-3.016694188E-1,-9.797073364E0,-9.481038451E-1
9.061019705E0,-1.915361285E-1,-9.806650162E0,-1.039083481E0
9.071448300E0,-2.968810201E-1,-9.835380554E0,-7.374141216E-1
9.081524864E0,-3.208230138E-1,-9.777919769E0,-7.805097699E-1
9.091476219E0,-1.963245422E-1,-9.749189377E0,-7.948749661E-1
9.101463876E0,-1.628057212E-1,-9.777919769E0,-9.050082564E-1
9.111613408E0,0.000000000E0,-9.763554573E0,-8.236053586E-1
9.121734972E0,-2.873042040E-2,-9.744400978E0,-7.805097699E-1
9.131852889E0,1.723825186E-1,-9.725247383E0,-9.050082564E-1
9.141936588E0,1.053448766E-1,-9.744400978E0,-1.015141487E0
9.151908985E0,-1.005564705E-1,-9.868899345E0,-1.067813993E0
9.162185757E0,-9.097966552E-2,-9.892841339E0,-9.433154464E-1
9.172190914E0,-5.746084079E-2,-9.916783333E0,-9.911994934E-1
9.182474561E0,-1.197100878E-1,-9.883264542E0,-1.240196466E0
9.192528833E0,-1.340752989E-1,-9.749189377E0,-9.864110947E-1
9.202635605E0,-4.644751251E-1,-9.768342972E0,-8.331822157E-1
9.212773054E0,-4.165911078E-1,-9.897629738E0,-9.145850539E-1
9.223112221E0,-5.315127969E-1,-9.979032516E0,-8.140285611E-1
9.233086024E0,-1.532289088E-1,-1.002691650E1,-6.464344859E-1
9.243402953E0,3.351882398E-1,-9.567230225E0,-6.320692301E-1
9.253405141E0,6.081272364E-1,-9.461885452E0,-1.039083481E0
9.263655507E0,7.326257229E-1,-9.461885452E0,-1.005564690E0
9.273560924E0,-2.920926213E-1,-9.423578262E0,-8.810662031E-1
9.283701967E0,-5.219359994E-1,-1.024718285E1,-1.297657371E0
9.293878687E0,7.182604820E-2,-9.557653427E0,-1.134851575E0
9.303907386E0,-7.661445439E-2,-9.342175484E0,-6.177040339E-1
9.314015147E0,-4.788403511E-1,-9.619902611E0,-1.307234168E0
9.324139731E0,-1.819593310E-1,-1.037168217E1,-8.523358107E-1
9.334226660E0,-1.388636976E-1,-1.046745014E1,-1.345541358E0
9.344448223E0,5.650315881E-1,-1.019451046E1,-6.272808313E-1
9.354502182E0,4.692635238E-1,-1.002212811E1,-3.160346150E-1
9.364690465E0,7.565677166E-1,-1.026633644E1,-1.752555609E0
9.374663695E0,4.932055473E-1,-1.027591324E1,-5.171475410E-1
9.384835467E0,-3.878606856E-1,-1.004128170E1,-7.852981687E-1
9.395054009E0,-2.250549644E-1,-1.007480049E1,1.149216816E-1
9.405268802E0,3.830722719E-2,-9.801861763E0,-4.213795066E-1
9.415337501E0,1.675941199E-1,-8.887276649E0,-2.432508945E0
9.425305679E0,-2.394201607E-2,-8.777143478E0,-1.728613615E0
9.435414795E0,1.173158884E0,-9.203310966E0,-1.321599364E0
9.445570056E0,8.858546019E-1,-9.801861763E0,-5.554547906E-1
9.455611776E0,6.129156351E-1,-1.038604736E1,-1.149216771E0
9.465563287E0,1.154005170E0,-1.074517727E1,-1.230619669E0
9.475986465E0,-9.576806799E-3,-1.128626728E1,-2.633621991E-1
9.486423133E0,-2.346317619E-1,-9.160215378E0,-2.398990154E0
9.496229019E0,-7.038952708E-1,-9.730035782E0,-1.441309452E0
9.506308656E0,-1.283292055E0,-9.892841339E0,-3.926490843E-1
9.516452094E0,1.819593310E-1,-9.524134636E0,-8.906430602E-1
9.526545377E0,2.154781520E-1,-8.820239067E0,-7.278373241E-1
9.536563607E0,-4.165911078E-1,-9.289502144E0,-8.523358107E-1
9.546716472E0,1.484405100E-1,-9.404424667E0,-2.968810201E-1
9.556861942E0,3.351882398E-1,-9.849745750E0,-7.613561153E-1
9.566985433E0,1.867477298E-1,-1.004128170E1,-1.369483352E0
9.577126475E0,4.884171486E-1,-9.753977776E0,-1.244984865E0
9.587278872E0,1.771709323E-1,-1.003170490E1,-1.460463047E0
9.597388977E0,5.267243832E-2,-1.002691650E1,-1.570596337E0
9.607516687E0,-1.340752989E-1,-9.768342972E0,-1.369483352E0
9.617525698E0,-1.628057212E-1,-9.758766174E0,-1.225831270E0
9.627671168E0,-8.140286058E-2,-9.763554573E0,-8.188169599E-1
9.637778981E0,-6.703764945E-2,-9.715670586E0,-8.092401624E-1
9.647898878E0,-2.681505978E-1,-9.902418137E0,-7.948749661E-1
9.658021431E0,-2.346317619E-1,-9.897629738E0,-9.768342972E-1
9.668137109E0,-2.968810201E-1,-9.926360130E0,-9.864110947E-1
9.678333413E0,-2.681505978E-1,-9.926360130E0,-1.082179189E0
9.688330809E0,-2.106897533E-1,-9.816226959E0,-1.130063176E0
9.698428050E0,-2.442085743E-1,-9.543288231E0,-1.154005170E0
9.708593155E0,-2.059013397E-1,-9.504981041E0,-8.906430602E-1
9.718924927E0,-7.182604820E-2,-9.528923035E0,-9.528923035E-1
9.728860605E0,-5.267243832E-2,-9.557653427E0,-9.768342972E-1
9.738921023E0,1.532289088E-1,-9.595960617E0,-1.029506683E0
9.749089565E0,1.292868853E-1,-9.725247383E0,-8.140285611E-1
9.759288264E0,2.394201607E-2,-9.849745750E0,-9.528923035E-1
9.769335661E0,1.005564705E-1,-9.897629738E0,-9.959878922E-1
9.779409621E0,4.692635238E-1,-9.878476143E0,-7.709329724E-1
9.789475142E0,-9.576806426E-2,-9.840168953E0,-1.110909581E0
9.799714623E0,-1.019929886E0,-9.873687744E0,-3.011905670E0
9.809849311E0,1.374271750E0,-9.174580574E0,-5.267243832E-2
9.819994833E0,-4.501099288E-1,-1.011310768E1,-1.197100878E0
9.830104886E0,-9.097966552E-2,-9.873687744E0,-1.149216771E0
9.840254783E0,-2.777273953E-1,-9.734824181E0,-9.289502501E-1
9.850461138E0,-2.537853718E-1,-9.907206535E0,-7.086837292E-1
9.860491602E0,3.064578176E-1,-1.032379818E1,-3.160346150E-1
9.870424421E0,3.974374831E-1,-1.010353088E1,-1.206677675E0
9.880683485E0,-1.628057212E-1,-9.720458984E0,-7.278373241E-1
9.890766194E0,3.830722719E-2,-9.567230225E0,-7.182605267E-1
9.900688799E0,1.436520964E-1,-9.533711433E0,-9.241618514E-1
9.910766248E0,7.661445439E-2,-9.576807022E0,-1.043871999E0
9.921039947E0,-1.915361285E-1,-9.706093788E0,-1.005564690E0
9.931230938E0,-5.410895944E-1,-9.883264542E0,-1.077390790E0
9.941258647E0,-1.580173075E-1,-9.902418137E0,-8.092401624E-1
9.951242554E0,-1.388636976E-1,-9.734824181E0,-9.864110947E-1
9.961616930E0,-4.309562966E-2,-9.562441826E0,-9.002198577E-1
9.971773806E0,-2.633621991E-1,-9.600749016E0,-5.267243981E-1
9.981610109E0,4.788403213E-2,-9.777919769E0,-4.932055473E-1
9.991729433E0,-1.149216816E-1,-9.868899345E0,-4.788403511E-1
1.000183381E1,-6.703764945E-2,-9.921571732E0,-6.272808313E-1
1.001224100E1,-3.734954596E-1,-9.797073364E0,-8.906430602E-1
1.002224324E1,-4.979939461E-1,-9.619902611E0,-1.096544385E0
1.003237605E1,-6.081272364E-1,-9.600749016E0,-9.959878922E-1
1.004250564E1,-4.261679053E-1,-9.528923035E0,-1.015141487E0
1.005244590E1,-6.847416759E-1,-9.591172218E0,-1.048660398E0
1.006288001E1,-8.810662031E-1,-9.658209801E0,-8.667010069E-1
1.007293621E1,-3.926490843E-1,-9.720458984E0,-6.177040339E-1
1.008302955E1,2.394201607E-2,-9.921571732E0,-4.836287498E-1
1.009310069E1,-5.602431893E-1,-9.911994934E0,-1.163581967E0
1.010330231E1,-6.991068721E-1,-9.964667320E0,-1.446097851E0
1.011336403E1,-4.261679053E-1,-1.007001209E1,-1.426944256E0
1.012354846E1,-3.734954596E-1,-1.007001209E1,-1.508347034E0
1.013367518E1,-3.734954596E-1,-1.007001209E1,-1.508347034E0
1.014352408E1,-7.996633649E-1,-9.658209801E0,-1.522712231E0
1.015385497E1,1.005564705E-1,-9.639056206E0,-9.097966552E-1
1.016409330E1,3.303998411E-1,-9.634267807E0,-1.072602391E0
1.017421148E1,4.740519226E-1,-9.696516991E0,-1.130063176E0
1.018431409E1,2.633621991E-1,-9.835380554E0,-1.422155857E0
1.019437404E1,-1.675941199E-1,-9.854534149E0,-1.182735682E0
1.020442659E1,-4.022258818E-1,-9.873687744E0,-1.091755986E0
1.021475826E1,-3.160346150E-1,-9.993397713E0,-9.002198577E-1
1.022481071E1,-6.416460276E-1,-1.001733971E1,-8.667010069E-1
1.023482670E1,-7.565677166E-1,-9.974244118E0,-8.714894056E-1
1.024492935E1,-8.858546019E-1,-9.840168953E0,-7.948749661E-1
1.025519607E1,-8.523358107E-1,-9.816226959E0,-6.177040339E-1
1.026507811E1,-6.991068721E-1,-9.806650162E0,-5.841852427E-1
1.027537748E1,-4.788403511E-1,-9.777919769E0,-5.937620401E-1
1.028537530E1,-2.154781520E-1,-9.849745750E0,-5.123591423E-1
1.029559535E1,7.182604820E-2,-9.878476143E0,-4.692635238E-1
1.030561613E1,2.011129409E-1,-9.777919769E0,-5.793967843E-1
1.031566780E1,-1.915361360E-2,-9.706093788E0,-6.895300746E-1
1.032587994E1,-1.197100878E-1,-9.619902611E0,-1.096544385E0
1.033604749E1,-4.261679053E-1,-9.615114212E0,-1.235408068E0
1.034627129E1,-4.453215301E-1,-9.730035782E0,-1.297657371E0
1.035614187E1,-5.985504389E-1,-9.859322548E0,-1.403002143E0
1.036661364E1,-5.267243981E-1,-9.945513725E0,-1.374271750E0
1.037621989E1,-3.399766386E-1,-1.002212811E1,-1.460463047E0
1.038664432E1,-3.016694188E-1,-1.024239445E1,-1.436521053E0
1.039663046E1,-1.340752989E-1,-1.029027843E1,-1.383848548E0
1.040679656E1,4.118026793E-1,-1.022324085E1,-1.249773264E0
1.041695354E1,6.272808313E-1,-9.945513725E0,-1.201889277E0
1.042703208E1,5.602431893E-1,-9.524134636E0,-9.864110947E-1
1.043716833E1,7.709329724E-1,-9.356540680E0,-7.996633649E-1
1.044733672E1,1.158793569E0,-9.323021889E0,-8.667010069E-1
1.045751651E1,1.312022567E0,-9.366117477E0,-8.954314590E-1
1.046758198E1,1.139639974E0,-9.179368973E0,-1.139639974E0
1.047763792E1,9.050082564E-1,-9.112331390E0,-1.359906554E0
1.048771026E1,8.619126081E-1,-9.351752281E0,-1.350329757E0
1.049790641E1,8.858546019E-1,-9.610325813E0,-1.383848548E0
1.050798152E1,1.182735682E0,-9.916783333E0,-1.374271750E0
1.051812490E1,1.077390790E0,-1.005564690E1,-1.383848548E0
1.052815630E1,9.337386489E-1,-1.010353088E1,-1.441309452E0
1.053836918E1,6.847416759E-1,-1.003649330E1,-1.364694953E0
1.054860001E1,2.059013397E-1,-9.849745750E0,-1.225831270E0
1.055850689E1,-2.011129409E-1,-9.749189377E0,-1.230619669E0
1.056866105E1,-5.315127969E-1,-9.782708168E0,-1.110909581E0
1.057893043E1,-9.241618514E-1,-9.825803757E0,-1.321599364E0
1.058892007E1,-1.077390790E0,-9.773131371E0,-1.498770237E0
1.059899725E1,-1.364694953E0,-9.782708168E0,-1.561019540E0
1.060920491E1,-1.872265697E0,-9.835380554E0,-1.704671621E0
1.061951569E1,-2.748543501E0,-9.940725327E0,-1.833958507E0
1.062946845E1,-3.648763418E0,-9.753977776E0,-1.747767210E0
1.063953965E1,-2.106897593E0,-9.476250648E0,-1.312022567E0
1.064957632E1,-1.996764183E0,-9.366117477E0,-8.714894056E-1
1.065976330E1,-1.249773264E0,-9.375694275E0,-2.250549644E-1
1.066991575E1,-1.316810966E0,-9.662998199E0,-4.309562966E-2
1.067998049E1,-1.709460020E0,-9.346963882E0,-1.082179189E0
1.069014336E1,1.546654344E0,-9.107542992E0,-3.543418646E-1
1.070034607E1,-6.607996821E-1,-8.791508675E0,-2.499546528E0
1.071036513E1,-4.309562966E-2,-8.667010307E0,-2.494758129E0
1.072038888E1,-5.554547906E-1,-8.518569946E0,-2.940079689E0
1.073051315E1,-9.720458984E-1,-8.695740700E0,-2.992752075E0
1.074047175E1,-1.742978811E0,-8.772355080E0,-2.418143749E0
1.075079774E1,-2.829946518E0,-9.030928612E0,-1.723825216E0
1.076097659E1,-3.347094059E0,-9.318233490E0,-7.565677166E-1
1.077105873E1,-3.050212860E0,-1.003649330E1,3.208230138E-1
1.078127821E1,-2.217030764E0,-1.075475407E1,5.267243981E-1
1.079140092E1,-1.063025594E0,-1.116655636E1,3.782838583E-1
1.080143488E1,7.278373241E-1,-1.133893967E1,-4.740519226E-1
1.081142577E1,2.422932148E0,-1.128626728E1,-1.790862918E0
1.082142905E1,3.639186621E0,-1.086967564E1,-3.663128614E0
1.083185160E1,4.333505154E0,-1.033816338E1,-5.109226227E0
1.084202144E1,4.357447147E0,-9.998186111E0,-5.118803024E0
1.085194645E1,3.572149038E0,-9.830592155E0,-4.501099110E0
1.086189864E1,3.337517262E0,-9.715670586E0,-3.892971992E0
1.087228379E1,2.619256735E0,-9.394847870E0,-3.830722809E0
1.088213484E1,1.493981838E0,-8.839392662E0,-3.519476414E0
1.089226270E1,1.005564690E0,-8.695740700E0,-3.586514235E0
1.090266557E1,2.298433632E-1,-9.093177795E0,-3.538630009E0
1.091271656E1,-2.873041928E-1,-9.567230225E0,-3.131615877E0
1.092273088E1,-5.267243981E-1,-1.002212811E1,-2.331952572E0
1.093286557E1,-1.063025594E0,-1.042914295E1,-1.594538331E0
1.094301297E1,-1.403002143E0,-1.057279491E1,-9.528923035E-1
1.095352437E1,-1.728613615E0,-1.070687008E1,-1.963245422E-1
1.096325838E1,-1.757344007E0,-1.039083576E1,-4.309562966E-2
1.097342432E1,-1.987187386E0,-9.844957352E0,-4.692635238E-1
1.098363844E1,-2.619256735E0,-9.414001465E0,-7.182605267E-1
1.099361208E1,-2.121262789E0,-9.050082207E0,-1.374271750E0
1.100371422E1,-2.149993181E0,-8.829815865E0,-2.873042107E0
1.101396256E1,-1.867477298E0,-8.686163902E0,-3.481169224E0
1.102399370E1,-1.714248419E0,-8.729259491E0,-4.189853191E0
1.103421428E1,-2.418143749E0,-8.738836288E0,-4.659116745E0
1.104425667E1,-1.752555609E0,-8.863334656E0,-4.074931145E0
1.105439543E1,-1.805228114E0,-9.002198219E0,-3.663128614E0
1.106428944E1,-1.714248419E0,-9.141061783E0,-3.050212860E0
1.107461855E1,-1.728613615E0,-9.366117477E0,-2.513911724E0
1.108471694E1,-1.872265697E0,-9.423578262E0,-2.207453966E0
1.109481590E1,-2.039859772E0,-9.385271072E0,-2.039859772E0
1.110506741E1,-2.418143749E0,-9.519346237E0,-1.426944256E0
1.111510621E1,-2.341529369E0,-9.624691010E0,-1.517923832E0
1.112550121E1,-2.336740971E0,-9.500192642E0,-1.642422318E0
1.113536011E1,-2.087743998E0,-9.356540680E0,-1.747767210E0
1.114546444E1,-1.723825216E0,-9.255983353E0,-1.728613615E0
1.115558320E1,-1.197100878E0,-9.203310966E0,-2.068590164E0
1.116569913E1,-5.219359994E-1,-9.308655739E0,-2.264914751E0
1.117578231E1,4.788403399E-3,-9.112331390E0,-2.786850691E0
1.118584862E1,8.523358107E-1,-9.351752281E0,-3.064578056E0
1.119598091E1,5.746083856E-1,-9.428366661E0,-2.485181332E0
1.120615383E1,1.426944256E0,-9.457097054E0,-3.299209833E0
1.121641294E1,1.685518026E0,-9.581595421E0,-3.864241600E0
1.122649091E1,2.145204782E0,-9.725247383E0,-3.313575268E0
1.123657122E1,1.905784607E0,-9.840168953E0,-3.509899616E0
1.124658362E1,1.642422318E0,-9.782708168E0,-3.490746021E0
1.125666774E1,1.158793569E0,-9.902418137E0,-3.438073635E0
1.126682607E1,8.331822157E-1,-1.003649330E1,-3.232172251E0
1.127692321E1,6.081272364E-1,-1.023281765E1,-3.078943491E0
1.128711915E1,-1.915361360E-2,-1.042914295E1,-3.399766445E0
1.129713941E1,-7.852981687E-1,-1.074038887E1,-3.040636063E0
1.130741326E1,-1.067813993E0,-1.124317074E1,-2.997540474E0
1.131745102E1,-1.292868972E0,-1.163582039E1,-2.873042107E0
1.132755014E1,-1.264138460E0,-1.211466026E1,-2.624045134E0
1.133763050E1,-1.240196466E0,-1.242590714E1,-2.288856745E0
1.134777176E1,-1.833958507E0,-1.176989555E1,-1.862688899E0
1.135797764E1,-1.656787634E0,-1.160230160E1,-2.106897593E0
1.136807707E1,-1.364694953E0,-1.111867237E1,-2.609679937E0
1.137820119E1,-1.321599364E0,-1.054885292E1,-3.184288263E0
1.138828416E1,-1.388636947E0,-1.034295177E1,-3.596091032E0
1.139851098E1,-1.422155857E0,-1.026154804E1,-3.969586372E0
1.140864806E1,-1.685518026E0,-9.897629738E0,-4.333505154E0
1.141856515E1,-1.814804912E0,-9.346963882E0,-4.328716755E0
1.142870046E1,-1.752555609E0,-8.710105896E0,-3.840299606E0
1.143889526E1,-1.642422318E0,-8.188169479E0,-2.978386879E0
1.144918619E1,-1.905784607E0,-7.982268333E0,-2.102109194E0
1.145919552E1,-2.260126352E0,-7.991845131E0,-1.350329757E0
1.146922104E1,-1.924938202E0,-8.183381081E0,-8.188169599E-1
1.147943463E1,-1.953668594E0,-8.576030731E0,-4.644751251E-1
1.148945698E1,-1.130063176E0,-9.035717010E0,3.256114423E-1
1.149956880E1,-6.655880809E-1,-8.010998726E0,1.163581967E0
1.150965037E1,-8.331822157E-1,-9.145850182E0,2.346317619E-1
1.151982156E1,-9.385270476E-1,-1.056321812E1,3.208230138E-1
1.152999901E1,-7.182605267E-1,-1.211944866E1,2.059013397E-1
1.153983261E1,4.118026793E-1,-1.390552330E1,2.346317619E-1
1.155022605E1,5.985504389E-1,-1.446097851E1,-2.068590164E0
1.156034152E1,-4.692635238E-1,-1.425028896E1,-1.513135433E0
1.157063548E1,-2.580949545E0,-1.244027233E1,-1.460463047E0
1.158065944E1,-3.921702385E0,-1.112346077E1,-1.273715258E0
1.159066741E1,-4.371812344E0,-1.007001209E1,-8.331822157E-1
1.160077496E1,-3.658340216E0,-9.461885452E0,-2.968810201E-1
1.161086199E1,-2.451662540E0,-8.700529099E0,1.963245422E-1
1.162094553E1,-1.972822189E0,-8.303091049E0,3.064578176E-1
1.163092147E1,-1.551442742E0,-7.685387611E0,-1.264138460E0
1.164119856E1,-9.959878922E-1,-7.656657219E0,-1.810016513E0
1.165143502E1,-6.703764796E-1,-7.829039574E0,-2.011129379E0
1.166150398E1,-3.878606856E-1,-8.116343498E0,-1.795651317E0
1.167163283E1,-5.027823448E-1,-8.259995461E0,-2.279279947E0
1.168175465E1,-7.422025204E-1,-8.456320763E0,-3.074155092E0
1.169187814E1,-6.991068721E-1,-8.815450668E0,-3.366247654E0
1.170203356E1,-8.331822157E-1,-9.126696587E0,-2.944868088E0
1.171204320E1,-9.385270476E-1,-9.145850182E0,-3.078943491E0
1.172224377E1,-8.954314590E-1,-9.174580574E0,-2.331952572E0
1.173233112E1,-1.110909581E0,-8.825027466E0,-2.044648170E0
1.174243669E1,-1.833958507E0,-8.705317497E0,-9.672574997E-1
1.175285201E1,-1.867477298E0,-8.494627953E0,-8.619126081E-1
1.176290581E1,-1.987187386E0,-8.259995461E0,-8.906430602E-1
1.177277633E1,-1.331176162E0,-8.259995461E0,-1.786074519E0
1.178283800E1,-9.289502501E-1,-8.236053467E0,-2.236184359E0
1.179298279E1,-4.884171486E-1,-8.197746277E0,-2.892195702E0
1.180317185E1,-6.033388376E-1,-8.073247910E0,-3.155557871E0
1.181330633E1,-7.326257229E-1,-7.972691536E0,-2.959233284E0
1.182332863E1,-1.039083481E0,-7.800309181E0,-2.906560898E0
1.183346566E1,-1.412579060E0,-7.728483200E0,-2.202665567E0
1.184357212E1,-1.833958507E0,-7.613561630E0,-2.226607561E0
1.185362931E1,-2.557007313E0,-7.388506413E0,-2.480392933E0
1.186373243E1,-3.102885485E0,-7.034164429E0,-2.489969730E0
1.187385248E1,-4.046200752E0,-6.670246124E0,-2.475604534E0
1.188401483E1,-5.204994678E0,-6.335057735E0,-2.738966703E0
1.189413509E1,-6.684611320E0,-6.215347767E0,-3.217807055E0
1.190425280E1,-7.929595947E0,-6.378153324E0,-3.643975019E0
1.191428223E1,-8.863334656E0,-7.168240070E0,-4.113238335E0
1.192433166E1,-9.715670586E0,-8.303091049E0,-4.994304657E0
1.193446765E1,-9.074024200E0,-9.576807022E0,-5.516240597E0
1.194486968E1,-7.163451672E0,-1.081221485E1,-5.535394192E0
1.195489900E1,-5.358223438E0,-1.178426075E1,-4.836287498E0
1.196505328E1,-4.295197964E0,-1.227746677E1,-3.485957623E0
1.197501843E1,-3.624821424E0,-1.248815632E1,-2.829946518E0
1.198525400E1,-3.021482468E0,-1.205241108E1,-3.126827478E0
1.199522583E1,-3.155557871E0,-1.097980881E1,-4.122815132E0
1.200528047E1,-3.251325846E0,-1.022324085E1,-4.352658749E0
1.201541167E1,-3.356670856E0,-9.931148529E0,-3.931279182E0
1.202554031E1,-3.155557871E0,-1.033337498E1,-1.781286120E0
1.203563396E1,-2.317587137E0,-1.172201157E1,-1.771709323E-1
1.204575287E1,-2.102109194E0,-1.390073490E1,6.847416759E-1
1.205603464E1,-1.939303398E0,-1.529894924E1,5.219359994E-1
1.206617938E1,-3.734954596E-1,-1.484405041E1,-2.681505978E-1
1.207614199E1,1.192312479E0,-1.338837624E1,-1.503558636E0
1.208639917E1,4.405331016E-1,-1.173637676E1,-3.620033026E0
1.209659485E1,-7.182604820E-2,-9.299078941E0,-3.552995205E0
1.210664183E1,-1.144428372E0,-7.776367188E0,-3.596091032E0
1.211669475E1,-1.120486379E0,-7.235277653E0,-3.548206806E0
1.212685860E1,-9.720458984E-1,-7.177816868E0,-2.437297344E0
1.213695048E1,-8.475474119E-1,-7.685387611E0,-1.206677675E0
1.214707616E1,-9.911994934E-1,-8.604761124E0,7.565677166E-1
1.215718553E1,-4.836287498E-1,-1.006043530E1,2.197877169E0
1.216733090E1,4.788403511E-1,-1.024718285E1,1.958456993E0
1.217729736E1,1.307234168E0,-1.086488724E1,1.077390790E0
1.218756736E1,2.585737944E0,-1.154005241E1,3.351882473E-2
1.219765788E1,1.848323703E0,-1.083136845E1,-2.772485495E0
1.220779450E1,6.224924326E-1,-1.134372807E1,-4.290409565E0
1.221796236E1,-8.571242094E-1,-1.048660374E1,-5.540182590E0
1.222803341E1,-1.177947283E0,-9.988609314E0,-4.860229492E0
1.223819986E1,-9.097966552E-1,-1.007480049E1,-4.266467571E0
1.224828351E1,-7.565677166E-1,-9.169792175E0,-3.792415380E0
1.225839950E1,-7.661445141E-1,-7.920019150E0,-3.136404276E0
1.226877049E1,-2.011129409E-1,-8.010998726E0,-2.528276920E0
1.227863362E1,1.005564705E-1,-8.331821442E0,-1.838746905E0
1.228881164E1,6.751648784E-1,-8.370129585E0,-2.432508945E0
1.229891076E1,8.619126081E-1,-8.365341187E0,-2.652775526E0
1.230885477E1,7.852981687E-1,-8.729259491E0,-2.609679937E0
1.231915743E1,-5.506663918E-1,-9.097966194E0,-2.231395960E0
1.232922633E1,-1.996764183E0,-9.279925346E0,-2.308010340E0
1.233918998E1,-3.102885485E0,-9.399636269E0,-2.025494576E0
1.234930446E1,-3.471592426E0,-9.097966194E0,-1.690306425E0
1.235941696E1,-3.394978046E0,-8.671798706E0,-1.426944256E0
1.236968707E1,-3.184288263E0,-8.360552788E0,-1.355118155E0
1.237988722E1,-3.050212860E0,-8.116343498E0,-9.959878922E-1
1.238977962E1,-2.585737944E0,-8.054094315E0,-1.388636947E0
1.239990978E1,-2.054224968E0,-8.207323074E0,-1.862688899E0
1.241002645E1,-1.814804912E0,-8.178592682E0,-2.039859772E0
1.242032103E1,-1.517923832E0,-8.274360657E0,-2.638410330E0
1.243038947E1,-1.340752959E0,-8.671798706E0,-2.427720547E0
1.244053535E1,-1.321599364E0,-8.983044624E0,-2.293645144E0
1.245056197E1,-1.072602391E0,-9.241618156E0,-2.734178305E0
1.246077734E1,-1.120486379E0,-9.619902611E0,-1.862688899E0
1.247073937E1,-1.192312479E0,-9.883264542E0,-1.441309452E0
1.248095645E1,-1.221042871E0,-9.701305389E0,-1.987187386E0
1.249111031E1,-6.607996821E-1,-9.945513725E0,-1.910573006E0
1.250122937E1,-9.959878922E-1,-9.974244118E0,-2.758120298E0
1.251135297E1,-8.475474119E-1,-9.782708168E0,-3.447650433E0
1.252147432E1,-1.163581967E0,-9.342175484E0,-3.648763418E0
1.253156390E1,-1.565807939E0,-8.633491516E0,-4.563348293E0
1.254177771E1,-1.441309452E0,-7.781155586E0,-5.238513470E0
1.255180182E1,-1.383848548E0,-6.732495308E0,-5.075707436E0
1.256198870E1,-1.240196466E0,-6.042964935E0,-5.420472622E0
1.257207131E1,-6.368576288E-1,-6.095637321E0,-5.085284233E0
1.258237209E1,-2.681505978E-1,-6.780379295E0,-5.123591423E0
1.259258860E1,-4.118026793E-1,-7.920019150E0,-4.821922302E0
1.260244501E1,5.315127969E-1,-9.935936928E0,-4.879383087E0
1.261240496E1,2.729389966E-1,-1.158314800E1,-4.994304657E0
1.262270001E1,-2.059013397E-1,-1.278503704E1,-5.128379822E0
1.263278918E1,-1.063025594E0,-1.289995861E1,-5.056553841E0
1.264293355E1,-1.580173135E0,-1.230140877E1,-4.237737179E0
1.265307902E1,-2.734178305E0,-1.197100830E1,-3.418920040E0
1.266312595E1,-3.778050184E0,-1.123838234E1,-3.998316765E0
1.267323309E1,-3.758896589E0,-1.002212811E1,-4.333505154E0
1.268333684E1,-3.797203779E0,-9.457097054E0,-3.193865061E0
1.269348793E1,-3.916913986E0,-9.308655739E0,-2.633621931E0
1.270369064E1,-3.797203779E0,-8.853757858E0,-2.700659513E0
1.271373648E1,-3.289633036E0,-8.355764389E0,-3.117250681E0
1.272386794E1,-3.074155092E0,-7.809885979E0,-3.754108191E0
1.273400502E1,-3.107673883E0,-7.278373241E0,-3.232172251E0
1.274413997E1,-2.537853718E0,-7.699752808E0,-2.284068346E0
1.275416429E1,-2.202665567E0,-6.775590897E0,-1.403002143E0
1.276427294E1,-8.762778044E-1,-6.497863293E0,-6.799532771E-1
1.277450205E1,6.416460276E-1,-7.891288757E0,-5.841852427E-1
1.278456898E1,1.747767210E0,-1.027112484E1,-1.608903527E0
1.279471544E1,1.790862918E0,-1.296699619E1,-1.805228114E0
1.280484258E1,1.968033791E0,-1.419761562E1,-3.519476414E0
1.281502826E1,1.752555609E0,-1.363737297E1,-3.605667830E0
1.282514555E1,1.728613615E0,-1.207156467E1,-2.734178305E0
1.283518982E1,2.011129379E0,-1.106121159E1,-2.657563925E0
1.284521420E1,4.175487995E0,-1.667322159E1,-1.738190413E0
1.285523602E1,2.130839586E0,-2.894111061E1,-2.097320795E0
1.286547248E1,-1.136288166E1,-1.855027390E1,-6.033388376E-1
1.287569837E1,-1.269884586E1,-1.071165848E1,1.762132406E0
1.288571628E1,-1.102769279E1,-7.264008045E0,4.156333923E0
1.289574728E1,-8.882488251E0,-7.254431248E0,3.916913986E0
1.290598363E1,-5.918466568E0,-7.508216381E0,3.294421434E0
1.291614936E1,-4.692635536E0,-7.369352818E0,1.086967587E0
1.292618478E1,-3.581725836E0,-7.412448406E0,-4.453215301E-1
1.293630900E1,-2.274491549E0,-7.153874874E0,-3.983951569E0
1.294642968E1,-5.315127969E-1,-7.043741226E0,-6.660669327E0
1.295660723E1,9.768342972E-1,-6.837840080E0,-8.159439087E0
1.296676676E1,1.742978811E0,-6.895300865E0,-7.872135162E0
1.297672041E1,1.699883223E0,-7.527369976E0,-5.875370979E0
1.298702932E1,7.086837292E-1,-7.852981567E0,-4.419696331E0
1.299706854E1,-4.548983276E-1,-8.058882713E0,-2.207453966E0
1.300715583E1,-1.048660398E0,-8.025363922E0,1.053448766E-1
1.301727958E1,-1.039083481E0,-7.915230751E0,4.644751251E-1
1.302741218E1,-8.523358107E-1,-8.250418663E0,6.512228847E-1
1.303735505E1,-5.410895944E-1,-8.647856712E0,5.985504389E-1
1.304777515E1,-3.016694188E-1,-8.839392662E0,-1.723825186E-1
1.305780651E1,1.101332754E-1,-8.887276649E0,-1.221042871E0
1.306772297E1,3.543418646E-1,-8.657433510E0,-2.001552582E0
1.307802698E1,3.639186621E-1,-8.226476669E0,-2.418143749E0
1.308795068E1,2.585737705E-1,-7.766790390E0,-2.829946518E0
1.309853026E1,-3.830722570E-1,-7.393294811E0,-3.112462282E0
1.310836797E1,-1.187524080E0,-6.957550049E0,-3.189076662E0
1.311847646E1,-2.149993181E0,-6.751648903E0,-2.930502892E0
1.312866136E1,-3.471592426E0,-6.349422932E0,-3.059789658E0
1.313880376E1,-5.090072632E0,-6.019022942E0,-3.131615877E0
1.314890095E1,-7.311892033E0,-5.707777023E0,-3.236960649E0
1.315903741E1,-9.461885452E0,-5.521028996E0,-3.864241600E0
1.316908199E1,-1.133415127E1,-5.458779812E0,-5.339069843E0
1.317922991E1,-1.140597725E1,-6.200982571E0,-6.991068840E0
1.318935079E1,-1.079306126E1,-7.996633530E0,-7.833827972E0
1.319946470E1,-1.020887566E1,-1.004128170E1,-7.465120792E0
1.320951949E1,-8.145073891E0,-1.182735634E1,-6.110002518E0
1.321974205E1,-5.612008572E0,-1.292868900E1,-4.678270340E0
1.322979335E1,-3.950432777E0,-1.259350109E1,-3.787626982E0
1.323997830E1,-3.529053211E0,-1.100853920E1,-4.711789131E0
1.325006252E1,-4.007893562E0,-9.112331390E0,-6.646304131E0
1.326020648E1,-4.697423935E0,-8.044517517E0,-6.023811340E0
1.327030419E1,-4.740519524E0,-8.010998726E0,-2.700659513E0
1.328041919E1,-4.903325081E0,-1.001733971E1,-1.647210717E0
1.329048560E1,-4.821922302E0,-1.268448067E1,-3.112462163E-1
1.330064976E1,-5.046977043E0,-1.352245140E1,-1.197100878E-1
1.331077039E1,-3.892971992E0,-1.474349403E1,1.235408068E0
1.332070518E1,-1.230619669E0,-1.655829811E1,2.954444885E0
1.333098122E1,-6.129156351E-1,-1.680729675E1,2.360682964E0
1.334093248E1,-1.522712231E0,-1.285686302E1,-1.781286120E0
1.335127476E1,-1.110909581E0,-8.408436775E0,-7.297526836E0
1.336150435E1,6.847416759E-1,-6.119579315E0,-7.589619160E0
1.337143149E1,5.793967843E-1,-4.644751072E0,-6.086060524E0
1.338156508E1,2.394201607E-2,-4.304774761E0,-4.247313976E0
1.339171373E1,-7.182604820E-2,-5.233725071E0,-1.661576033E0
1.340175753E1,1.628057212E-1,-6.904877663E0,5.075707436E-1
1.341188873E1,9.768342972E-1,-8.834604263E0,1.891419291E0
1.342203165E1,1.661576033E0,-1.070687008E1,1.556231141E0
1.343205285E1,1.833958507E0,-1.276588345E1,1.484405100E-1
1.344230342E1,1.910573006E0,-1.430296135E1,-2.695871115E0
1.345226358E1,1.058237195E0,-1.428380775E1,-4.558559895E0
1.346232837E1,-2.777273953E-1,-1.269884586E1,-5.401319027E0
1.347250035E1,-2.427720547E0,-1.029506683E1,-6.071695328E0
1.348259551E1,-3.825934410E0,-7.809885979E0,-5.276820660E0
1.349292999E1,-3.864241600E0,-6.675034523E0,-4.218583584E0
1.350281109E1,-3.677493811E0,-6.785167694E0,-2.944868088E0
1.351315645E1,-2.073378563E0,-7.335834026E0,-1.968033791E0
1.352318286E1,-7.900865674E-1,-7.867346764E0,-1.412579060E0
1.353331781E1,8.667010069E-1,-8.470685959E0,-2.580949545E0
1.354342072E1,1.163581967E0,-9.131484985E0,-3.514688015E0
1.355358994E1,-3.734954596E-1,-8.638279915E0,-1.915361404E0
1.356364823E1,-2.006340981E0,-8.714894295E0,-8.810662031E-1
1.357378125E1,-2.777273893E0,-9.074024200E0,-1.987187386E0
1.358398875E1,-2.940079689E0,-9.275136948E0,-2.149993181E0
1.359402974E1,-2.987963676E0,-9.327810287E0,-1.857900500E0
1.360416985E1,-3.236960649E0,-8.925583839E0,-2.571372509E0
1.361425334E1,-3.567360640E0,-8.485051155E0,-2.154781580E0
1.362453532E1,-3.457227230E0,-7.948749542E0,-1.991975784E0
1.363454704E1,-2.758120298E0,-8.331821442E0,-2.269703150E0
1.364466438E1,-2.178723574E0,-8.465897560E0,-1.728613615E0
1.365472303E1,-1.800439715E0,-8.710105896E0,-1.829170108E0
1.366495865E1,-1.388636947E0,-9.093177795E0,-2.164358377E0
1.367509131E1,-1.197100878E0,-9.188945770E0,-2.288856745E0
1.368518548E1,-7.613561153E-1,-9.696516991E0,-2.351106167E0
1.369533772E1,-3.543418646E-1,-1.021366405E1,-2.743755102E0
1.370539084E1,-9.576806426E-2,-1.024239445E1,-2.873042107E0
1.371555486E1,8.619125932E-2,-9.907206535E0,-3.672705412E0
1.372541048E1,-1.915361285E-1,-9.102754593E0,-4.596867085E0
1.373566845E1,-4.788403511E-1,-8.197746277E0,-5.650316238E0
1.374579392E1,-5.458779931E-1,-7.345410824E0,-6.114790916E0
1.375598731E1,-9.576806426E-2,-6.732495308E0,-6.890512466E0
1.376613590E1,-3.016694188E-1,-5.583278179E0,-6.153098583E0
1.377623773E1,-5.554547906E-1,-4.860229492E0,-5.544970989E0
1.378639736E1,-3.974374831E-1,-5.118803024E0,-4.821922302E0
1.379657898E1,-1.149216816E-1,-6.445190907E0,-3.892971992E0
1.380703450E1,2.059013397E-1,-8.571242332E0,-3.217807055E0
1.381662976E1,3.016694188E-1,-1.056800652E1,-3.462015629E0
1.382679211E1,-1.197100878E-1,-1.196621990E1,-4.256890774E0
1.383685836E1,-5.698199868E-1,-1.291911221E1,-5.176264286E0
1.384705023E1,-1.570596337E0,-1.328303146E1,-4.979939461E0
1.385708263E1,-3.600879431E0,-1.312501335E1,-5.018246651E0
1.386728607E1,-3.567360640E0,-1.220563984E1,-5.554547787E0
1.387738852E1,-3.653551817E0,-1.038604736E1,-5.698200226E0
1.388747149E1,-3.677493811E0,-9.040505409E0,-4.410119534E0
1.389758232E1,-3.500322819E0,-8.427590370E0,-3.428496838E0
1.390767159E1,-2.887407303E0,-8.379706383E0,-3.691859007E0
1.391791660E1,-2.221819162E0,-8.116343498E0,-4.405331135E0
1.392796389E1,-2.035071373E0,-7.733271599E0,-4.668693542E0
1.393805951E1,-2.236184359E0,-7.005434036E0,-4.304774761E0
1.394819118E1,-2.303221941E0,-6.435614109E0,-3.466804028E0
1.395840009E1,-1.929726601E0,-6.124367714E0,-2.858676910E0
1.396847790E1,-2.020706177E0,-6.177040577E0,-1.575384736E0
1.397857368E1,-1.886630893E0,-6.856993675E0,-1.412579060E0
1.398861468E1,8.236053586E-1,-8.916007042E0,-4.501099288E-1
1.399883874E1,8.044517636E-1,-1.178904915E1,-8.954314590E-1
1.400899796E1,3.749319792E0,-1.819593239E1,-1.039083481E0
1.401919765E1,4.807557106E0,-2.104503250E1,-1.417367458E0
1.402916734E1,3.739742994E0,-2.165794945E1,-1.838746905E0
1.403951463E1,1.345541358E0,-2.027409935E1,-3.787626982E0
1.404955895E1,-1.608903527E0,-1.698446655E1,-3.672705412E0
1.405967067E1,-6.196194172E0,-1.368525696E1,-1.862688899E0
1.406961234E1,-9.543288231E0,-1.132936287E1,-1.355118155E0
1.407979390E1,-1.081221485E1,-8.786720276E0,1.144428372E0
1.409009698E1,-1.002212811E1,-7.647080421E0,3.864241600E0
1.410046594E1,-8.331821442E0,-6.770802498E0,5.635950565E0
1.411018537E1,-6.306327343E0,-7.024587631E0,4.927267075E0
1.412028057E1,-5.372588634E0,-6.952761650E0,2.552218914E0
1.413046797E1,-4.630385876E0,-7.192182064E0,-2.825157940E-1
1.414053438E1,-3.217807055E0,-7.254431248E0,-2.825158119E0
1.415055928E1,-2.106897593E0,-6.876147270E0,-5.827486992E0
1.416070167E1,-2.777273953E-1,-6.622362137E0,-9.016563416E0
1.417090256E1,1.015141487E0,-6.502651691E0,-1.010353088E1
1.418098230E1,1.608903527E0,-6.842628479E0,-9.141061783E0
1.419122027E1,1.201889277E0,-7.354987621E0,-7.383718014E0
1.420107397E1,3.495534360E-1,-8.044517517E0,-3.581725836E0
1.421144381E1,-3.878606856E-1,-8.456320763E0,-3.208230138E-1
1.422152340E1,-1.340752989E-1,-8.820239067E0,1.508347034E0
1.423159069E1,-2.394201607E-2,-8.781931877E0,2.480392933E0
1.424165652E1,-8.140286058E-2,-8.633491516E0,2.068590164E0
1.425175345E1,-3.351882398E-1,-8.389283180E0,8.906430602E-1
1.426217663E1,-1.436520964E-1,-8.226476669E0,-5.363011956E-1
1.426723205E1,-4.309562966E-2,-8.159439087E0,-1.422155857E0
1.427732486E1,7.661445439E-2,-7.963114738E0,-2.552218914E0
1.428750445E1,-2.106897533E-1,-7.666234016E0,-3.462015629E0
1.429750471E1,-7.086837292E-1,-7.254431248E0,-4.031835556E0
1.430756356E1,-1.575384736E0,-6.617573261E0,-4.232948780E0
1.431758033E1,-2.748543501E0,-6.196194172E0,-4.271255970E0
1.432772153E1,-3.912125587E0,-5.928043365E0,-4.127603531E0
1.433775669E1,-5.956773758E0,-5.655104637E0,-4.419696331E0
1.434785862E1,-8.336610794E0,-5.305551052E0,-4.855441093E0
1.435798112E1,-1.022802925E1,-5.549759388E0,-4.955997467E0
1.436823211E1,-1.201889229E1,-6.062118530E0,-5.224148273E0
1.437835758E1,-1.331176186E1,-7.235277653E0,-5.736507416E0
1.438847253E1,-1.222000504E1,-9.227252960E0,-6.205770969E0
1.439852482E1,-9.696516991E0,-1.120486355E1,-5.741295815E0
1.440871049E1,-7.196970463E0,-1.301966858E1,-4.774038315E0
1.441874128E1,-5.228936672E0,-1.377144814E1,-4.299986362E0
1.442875295E1,-3.792415380E0,-1.343626022E1,-5.746084213E0
1.443893196E1,-3.615244627E0,-1.210029507E1,-6.148310184E0
1.444905186E1,-4.007893562E0,-1.129105568E1,-3.931279182E0
1.445925389E1,-4.697423935E0,-1.191354752E1,-1.738190413E0
1.446939222E1,-4.486733913E0,-1.363737297E1,-1.651999116E0
1.447951863E1,-4.644751072E0,-1.440351772E1,-1.982398987E0
1.448972014E1,-4.635174274E0,-1.436999893E1,-1.522712231E0
1.449980363E1,-1.024718285E0,-1.496376038E1,5.171475410E-1
1.450999160E1,1.082179189E0,-1.365173817E1,6.177040339E-1
1.451988134E1,1.206677675E0,-9.864110947E0,-2.082955360E0
1.453004749E1,-1.771709323E-1,-6.651092529E0,-3.744531393E0
1.454019374E1,7.757213712E-1,-5.310339451E0,-6.014234543E0
1.455025098E1,9.337386489E-1,-4.371812344E0,-6.157886982E0
1.456035593E1,1.096544385E0,-4.836287498E0,-5.616796970E0
1.457047317E1,1.546654344E0,-6.775590897E0,-2.384624958E0
1.458060864E1,1.460463047E0,-9.246406555E0,7.661445439E-2
1.459069828E1,8.762778044E-1,-1.177947235E1,2.662352324E0
1.460080666E1,2.920926213E-1,-1.370919895E1,3.706224203E0
1.461102588E1,-2.394201756E-1,-1.486320400E1,2.719813108E0
1.462138234E1,-3.303998411E-1,-1.480095482E1,1.436520964E-1
1.463124249E1,-1.786074519E0,-1.355597019E1,-4.242525578E0
1.464143167E1,-3.284844637E0,-1.106121159E1,-6.991068840E0
1.465151834E1,-4.271255970E0,-8.154650688E0,-7.785943985E0
1.466158349E1,-3.639186621E0,-5.822698593E0,-6.282385349E0
1.467178818E1,-2.930502892E0,-4.807557106E0,-4.022258759E0
1.468176344E1,-1.891419291E0,-5.492298603E0,-2.906560898E0
1.469197589E1,-9.289502501E-1,-6.272808552E0,-2.652775526E0
1.470214865E1,7.134721279E-1,-7.211335659E0,-2.657563925E0
1.471225199E1,1.599326730E0,-8.202534676E0,-3.102885485E0
1.472242694E1,1.398213744E0,-8.633491516E0,-3.193865061E0
1.473243230E1,-1.484405100E-1,-8.791508675E0,-2.475604534E0
1.474263236E1,-2.092532396E0,-9.145850182E0,-1.388636947E0
1.475279850E1,-2.844311714E0,-9.595960617E0,-2.786850691E0
1.476275652E1,-3.303998232E0,-9.677363396E0,-1.618480325E0
1.477268870E1,-3.529053211E0,-9.414001465E0,-1.661576033E0
1.478301772E1,-3.418920040E0,-9.595960617E0,-1.570596337E0
1.479314283E1,-3.485957623E0,-8.983044624E0,-1.934514999E0
1.480326710E1,-3.658340216E0,-7.977479935E0,-2.240972757E0
1.481347700E1,-3.514688015E0,-7.096413612E0,-2.566584110E0
1.482356304E1,-3.026270866E0,-6.751648903E0,-2.777273893E0
1.483372814E1,-2.528276920E0,-6.890512466E0,-2.997540474E0
1.484359804E1,-1.958456993E0,-7.785943985E0,-3.069366693E0
1.485361414E1,-1.230619669E0,-8.796297073E0,-3.165134668E0
1.486385502E1,-8.762778044E-1,-9.605537415E0,-2.743755102E0
1.487402273E1,-9.097966552E-1,-9.955090523E0,-2.509123325E0
1.488414643E1,-9.002198577E-1,-1.034774017E1,-2.633621931E0
1.489416711E1,-7.996633649E-1,-1.035252857E1,-2.576161146E0
1.490439685E1,-6.607996821E-1,-1.023760605E1,-2.676717520E0
1.491450446E1,-6.943184733E-1,-9.983820915E0,-3.059789658E0
1.492456310E1,-9.193734527E-1,-9.265560150E0,-3.423708439E0
1.493471576E1,-9.959878922E-1,-8.465897560E0,-3.505111217E0
1.494484862E1,-8.427590132E-1,-8.078036308E0,-4.606443882E0
1.495481951E1,-9.481038451E-1,-7.651868820E0,-5.635950565E0
1.496492410E1,-9.911994934E-1,-6.828263283E0,-5.856217384E0
1.497533332E1,-8.044517636E-1,-5.894524574E0,-6.052541733E0
1.498543759E1,-9.959878922E-1,-5.142745018E0,-5.659893036E0
1.499570410E1,-3.782838583E-1,-5.377377033E0,-5.473145008E0
1.500584295E1,5.746084079E-2,-6.291962147E0,-4.424484730E0
1.501577639E1,5.698199868E-1,-7.910442352E0,-3.586514235E0
1.502581197E1,8.906430602E-1,-9.504981041E0,-3.327940464E0
1.503591468E1,7.326257229E-1,-1.098938560E1,-3.567360640E0
1.504593973E1,1.053448766E-1,-1.209071827E1,-3.754108191E0
1.505614608E1,-4.548983276E-1,-1.304361057E1,-4.022258759E0
1.506631739E1,-1.197100878E0,-1.347935581E1,-4.726154327E0
1.507639103E1,-2.336740971E0,-1.306755257E1,-5.133168221E0
1.508652656E1,-3.778050184E0,-1.213860226E1,-5.482721806E0
1.509645489E1,-4.175487995E0,-1.080742645E1,-6.172252178E0
1.510672812E1,-4.046200752E0,-9.318233490E0,-5.985504150E0
1.511684989E1,-4.060565948E0,-8.164227486E0,-5.195417881E0
1.512691750E1,-3.936067581E0,-7.206547260E0,-4.041412354E0
1.513706479E1,-3.883395195E0,-6.660669327E0,-3.313575268E0
1.514731073E1,-3.730166197E0,-6.378153324E0,-3.222595453E0
1.515746146E1,-3.347094059E0,-6.129156113E0,-3.610456228E0
1.516746693E1,-3.074155092E0,-5.731719017E0,-3.509899616E0
1.517764797E1,-3.112462282E0,-5.410895824E0,-2.997540474E0
1.518754354E1,-2.178723574E0,-5.592854977E0,-2.533065319E0
1.519785990E1,-1.580173135E0,-6.200982571E0,-2.178723574E0
1.520790964E1,-4.788403213E-2,-7.915230751E0,-1.843535304E0
1.521795553E1,1.273715258E0,-1.068771648E1,-1.642422318E0
1.522820876E1,3.002328873E0,-1.562456036E1,-2.049436569E0
1.523829423E1,4.908113480E0,-1.988145065E1,-2.236184359E0
1.524845964E1,4.721365929E0,-2.006340981E1,-2.590526342E0
1.525858261E1,4.027047157E0,-2.032677269E1,-2.738966703E0
1.526874986E1,2.001552582E0,-1.894771194E1,-1.958456993E0
1.527877991E1,-1.513135433E0,-1.559582996E1,-2.001552582E0
1.528906533E1,-5.252878666E0,-1.297657299E1,-2.207453966E0
1.529904522E1,-7.972691536E0,-1.067335129E1,-2.671929121E0
1.530937861E1,-1.028549004E1,-8.681375504E0,-7.805097699E-1
1.531928345E1,-9.696516991E0,-7.738059998E0,3.332728863E0
1.532936564E1,-8.331821442E0,-7.359776020E0,5.549759388E0
1.533955549E1,-6.440402508E0,-7.613561630E0,5.875370979E0
1.534948252E1,-6.167463779E0,-7.316680431E0,3.289633036E0
1.535973502E1,-5.267243862E0,-7.867346764E0,-7.709329724E-1
1.536983684E1,-3.787626982E0,-8.259995461E0,-2.149993181E0
1.537996836E1,-2.652775526E0,-8.063671112E0,-4.759673119E0
1.539011362E1,-1.187524080E0,-7.675810814E0,-8.130708694E0
1.540020315E1,2.059013397E-1,-7.436390400E0,-1.008437729E1
1.541027065E1,1.441309452E0,-7.738059998E0,-1.013704967E1
1.542046602E1,1.450886250E0,-8.317456245E0,-7.297526836E0
1.543072737E1,1.436520964E-1,-8.532935143E0,-3.634398222E0
1.544077987E1,-7.134721279E-1,-9.069235802E0,-1.340752989E-1
1.545088550E1,-7.996633649E-1,-9.107542992E0,2.370259762E0
1.546088826E1,-5.123591423E-1,-9.035717010E0,2.600103140E0
1.547108555E1,-2.537853718E-1,-8.825027466E0,1.723825216E0
1.548134347E1,-1.244984865E-1,-8.614337921E0,6.320692301E-1
1.549129404E1,1.628057212E-1,-8.355764389E0,-7.086837292E-1
1.550143727E1,2.633621991E-1,-7.996633530E0,-2.188300371E0
1.551152462E1,4.022258818E-1,-7.627926826E0,-2.968810081E0
1.552145785E1,2.633621991E-1,-7.321468830E0,-3.667917013E0
1.553185415E1,5.746084079E-2,-6.952761650E0,-3.916913986E0
1.554184853E1,-7.230489254E-1,-6.617573261E0,-4.132391930E0
1.555201415E1,-1.647210717E0,-6.124367714E0,-4.299986362E0
1.556234874E1,-2.906560898E0,-5.717353821E0,-4.367023945E0
1.557202478E1,-4.994304657E0,-5.396530628E0,-4.390965939E0
1.558231161E1,-7.264008045E0,-5.248090267E0,-4.261679173E0
1.559246905E1,-9.610325813E0,-5.315127850E0,-4.165910721E0
1.560264822E1,-1.178426075E1,-5.765237808E0,-4.639962673E0
1.561282249E1,-1.323514652E1,-6.909666061E0,-5.947196960E0
1.562277984E1,-1.265096188E1,-8.734047890E0,-6.995857239E0
1.563282802E1,-1.028549004E1,-1.091277122E1,-6.732495308E0
1.564314021E1,-8.034940720E0,-1.271321106E1,-5.990292549E0
1.565296994E1,-6.014234543E0,-1.327345467E1,-5.453991413E0
1.566341375E1,-4.865017891E0,-1.248815632E1,-5.415684223E0
1.567318504E1,-4.252102375E0,-1.131978607E1,-6.445190907E0
1.568360729E1,-4.046200752E0,-9.777919769E0,-7.264008045E0
1.569361287E1,-4.237737179E0,-8.054094315E0,-6.675034523E0
1.570356099E1,-4.280832767E0,-7.455543995E0,-4.582501888E0
1.571396849E1,-4.582501888E0,-8.767566681E0,-2.825157940E-1
1.572397521E1,-3.385401249E0,-1.316810894E1,7.182605267E-1
1.573406198E1,-2.748543501E0,-1.808101082E1,1.335964561E0
1.574420245E1,-2.518700123E0,-1.859815788E1,1.628057212E-1
1.575450620E1,-1.388636976E-1,-1.586398029E1,-1.278503656E0
1.576447902E1,7.613561153E-1,-1.239238834E1,-1.786074519E0
1.577461376E1,-2.537853718E-1,-8.983044624E0,-3.591302633E0
1.578460324E1,-1.359906554E0,-6.229712963E0,-6.162675381E0
1.579505746E1,-6.512228847E-1,-4.683058739E0,-5.664681435E0
1.580530465E1,-1.675941199E-1,-4.079719543E0,-5.315127850E0
1.581518272E1,3.734954596E-1,-4.544194698E0,-4.410119534E0
1.582530470E1,1.048660398E0,-5.951985359E0,-2.341529369E0
1.583550064E1,1.158793569E0,-8.221688271E0,4.309562966E-2
1.584534183E1,9.481038451E-1,-1.091755962E1,2.643198729E0
1.585553679E1,3.160346150E-1,-1.289038181E1,2.748543501E0
1.586563648E1,5.267243832E-2,-1.391510010E1,4.118026793E-1
1.587605393E1,4.165911078E-1,-1.456632328E1,-2.245761156E0
1.588578591E1,2.394201756E-1,-1.366610336E1,-4.486733913E0
1.589594903E1,-8.906430602E-1,-1.129105568E1,-6.574477673E0
1.590603810E1,-1.608903527E0,-8.638279915E0,-6.612784863E0
1.591619638E1,-2.422932148E0,-6.622362137E0,-5.884947777E0
1.592633586E1,-2.973598480E0,-5.702988625E0,-4.386177540E0
1.593644987E1,-2.767697096E0,-6.057330132E0,-2.509123325E0
1.594652794E1,-2.193088770E0,-7.086836815E0,-1.541865945E0
1.595680440E1,-1.738190413E0,-7.757213593E0,-1.872265697E0
1.596665456E1,-1.383848548E0,-8.025363922E0,-2.882618904E0
1.597223138E1,2.011129409E-1,-8.303091049E0,-2.528276920E0
1.598217128E1,3.926490843E-1,-8.781931877E0,-2.260126352E0
1.599213331E1,-1.302445769E0,-8.992621422E0,-2.011129379E0
1.600238488E1,-2.561795712E0,-8.997409821E0,-1.948880196E0
1.601244769E1,-3.524264812E0,-8.801085472E0,-1.867477298E0
1.602247394E1,-3.610456228E0,-8.681375504E0,-2.183511972E0
1.603266420E1,-3.452438831E0,-8.269572258E0,-2.221819162E0
1.604287785E1,-3.179499865E0,-7.776367188E0,-2.700659513E0
1.605313108E1,-2.820369720E0,-7.517793179E0,-2.997540474E0
1.606301103E1,-2.001552582E0,-7.613561630E0,-3.572149038E0
1.607306457E1,-1.345541358E0,-8.125920296E0,-2.873042107E0
1.608333900E1,-9.097966552E-1,-9.078812599E0,-2.528276920E0
1.609345749E1,-8.140285611E-1,-9.634267807E0,-2.121262789E0
1.610339759E1,-8.283938169E-1,-1.058716011E1,-2.193088770E0
1.611364379E1,-9.864110947E-1,-1.098938560E1,-2.217030764E0
1.612375447E1,-1.254561663E0,-1.044829655E1,-2.341529369E0
1.613385541E1,-1.359906554E0,-9.806650162E0,-2.504334927E0
1.614395729E1,-1.455674648E0,-9.088389397E0,-2.413355350E0
1.615403187E1,-1.039083481E0,-9.155426979E0,-2.657563925E0
1.616418901E1,-4.932055473E-1,-9.342175484E0,-3.591302633E0
1.617443489E1,-3.543418646E-1,-9.174580574E0,-4.630385876E0
1.618443411E1,-7.661445439E-2,-8.667010307E0,-5.861005783E0
1.619462005E1,2.011129409E-1,-7.632715225E0,-6.694188118E0
1.620465583E1,0.000000000E0,-5.985504150E0,-6.670246124E0
1.621491042E1,2.011129409E-1,-5.281609058E0,-5.789179802E0
1.622502011E1,3.399766386E-1,-5.736507416E0,-4.644751072E0
1.623494782E1,1.067813993E0,-7.278373241E0,-4.223371983E0
1.624491766E1,4.261679053E-1,-9.006986618E0,-3.840299606E0
1.625524480E1,3.495534360E-1,-1.124317074E1,-4.175487995E0
1.626543501E1,-5.075707436E-1,-1.264617348E1,-4.644751072E0
1.627558110E1,-1.115697980E0,-1.308670616E1,-4.577713490E0
1.628557308E1,-1.963245392E0,-1.300530338E1,-4.367023945E0
1.629575475E1,-2.647987127E0,-1.262223148E1,-3.825934410E0
1.630576340E1,-2.983175278E0,-1.224873543E1,-3.869029999E0
1.631587433E1,-3.265691042E0,-1.079784966E1,-4.774038315E0
1.632590491E1,-3.294421434E0,-9.112331390E0,-4.898536682E0
1.633619501E1,-2.920926094E0,-8.403648376E0,-4.635174274E0
1.634632085E1,-2.413355350E0,-7.790732384E0,-4.299986362E0
1.635640746E1,-1.671152830E0,-7.479485989E0,-4.400542736E0
1.636650689E1,-1.326387763E0,-7.173028469E0,-4.812345505E0
1.637651991E1,-1.508347034E0,-6.684611320E0,-4.702212334E0
1.638679054E1,-1.690306425E0,-6.133944988E0,-4.266467571E0
1.639681606E1,-1.848323703E0,-5.645527840E0,-3.715801001E0
1.640694387E1,-2.130839586E0,-5.535394192E0,-2.786850691E0
1.641707986E1,-2.030282974E0,-6.119579315E0,-2.025494576E0
1.642743763E1,-1.953668594E0,-7.024587631E0,-1.407790542E0
1.643731601E1,-6.416460276E-1,-9.806650162E0,-1.599326730E0
1.644751711E1,7.900865674E-1,-1.413536644E1,-1.781286120E0
1.645760065E1,2.600103140E0,-2.072421074E1,-1.632845521E0
1.646766961E1,3.155557871E0,-2.155260277E1,-2.576161146E0
1.647779102E1,1.024718285E0,-1.937388039E1,-2.102109194E0
1.648823503E1,7.182604820E-2,-1.757822800E1,-1.656787634E0
1.649808737E1,-1.719036818E0,-1.528458405E1,-7.182605267E-1
1.650821644E1,-4.228160381E0,-1.277546024E1,1.005564705E-1
1.651823144E1,-6.363788128E0,-1.058237171E1,-6.703764945E-2
1.652859097E1,-8.030152321E0,-8.504204750E0,5.937620401E-1
1.653879253E1,-8.427590370E0,-7.546523571E0,1.786074519E0
1.654867498E1,-7.369352818E0,-7.029376030E0,2.590526342E0
1.655871285E1,-6.727706909E0,-6.512228489E0,1.479616642E0
1.656883873E1,-6.148310184E0,-6.473921299E0,-8.762778044E-1
1.657903889E1,-4.582501888E0,-6.924031258E0,-3.399766445E0
1.658909936E1,-2.825158119E0,-6.947973251E0,-5.770026207E0
1.659915108E1,-1.067813993E0,-6.703764915E0,-6.454767704E0
1.660938499E1,6.943184733E-1,-6.603208065E0,-7.053318024E0
1.661939650E1,1.278503656E0,-6.809109688E0,-6.718130112E0
1.662960645E1,1.431732655E0,-7.469909191E0,-6.330269337E0
1.663964760E1,1.067813993E0,-8.303091049E0,-4.975151062E0
1.664976156E1,3.687070608E-1,-8.743624687E0,-3.303998232E0
1.665975390E1,-6.416460276E-1,-8.695740700E0,-9.289502501E-1
1.666988229E1,-6.847416759E-1,-8.537723541E0,3.782838583E-1
1.667998854E1,-3.830722570E-1,-8.374917984E0,9.720458984E-1
1.669025520E1,-5.410895944E-1,-8.207323074E0,8.906430602E-1
1.670036416E1,-6.655880809E-1,-8.106766701E0,2.633621991E-1
1.671049208E1,-6.943184733E-1,-7.929595947E0,-6.703764796E-1
1.672061427E1,-5.219359994E-1,-7.766790390E0,-1.757344007E0
1.673074208E1,-2.298433632E-1,-7.498639584E0,-2.284068346E0
1.674085537E1,-2.059013397E-1,-7.273584843E0,-2.806004286E0
1.675108339E1,-2.489969730E-1,-7.091625214E0,-3.227383852E0
1.676105730E1,-5.698199868E-1,-6.842628479E0,-3.462015629E0
1.677122032E1,-1.115697980E0,-6.497863293E0,-3.672705412E0
1.678125459E1,-1.833958507E0,-6.263231754E0,-3.758896589E0
1.679135933E1,-2.916137695E0,-6.100425720E0,-3.581725836E0
1.680137698E1,-4.644751072E0,-5.841852188E0,-3.538630009E0
1.681152261E1,-6.766014099E0,-5.717353821E0,-3.394978046E0
1.682181329E1,-8.906430244E0,-5.607220173E0,-3.485957623E0
1.683177173E1,-1.081221485E1,-5.602431774E0,-4.572925091E0
1.684188684E1,-1.195664310E1,-5.956773758E0,-6.335057735E0
1.685200105E1,-1.114261436E1,-7.407660007E0,-7.603984833E0
1.686212392E1,-9.988609314E0,-9.447520256E0,-7.460332394E0
1.687233002E1,-7.661445618E0,-1.169806957E1,-7.101202011E0
1.688254944E1,-5.760449409E0,-1.340274143E1,-6.004657745E0
1.689248356E1,-3.931279182E0,-1.376665974E1,-5.109226227E0
1.690259715E1,-3.294421434E0,-1.254082870E1,-5.042188644E0
1.691271663E1,-4.199429989E0,-1.079306126E1,-4.965574265E0
1.692284304E1,-5.190629482E0,-9.902418137E0,-3.409343243E0
1.693308398E1,-5.827486992E0,-1.036210537E1,-2.968810081E0
1.694306783E1,-5.549759388E0,-1.231577396E1,-2.202665567E0
1.695342237E1,-5.204994678E0,-1.479616642E1,-1.316810966E0
1.696347049E1,-4.367023945E0,-1.807143402E1,-1.915361360E-2
1.697343232E1,-1.455674648E0,-2.000116158E1,2.207453966E0
1.698374013E1,5.027823448E-1,-1.523670006E1,7.374141216E-1
1.699389471E1,2.073378563E0,-9.054870605E0,-3.648763418E0
1.700378571E1,2.054224968E0,-5.549759388E0,-4.879383087E0
1.701390149E1,2.762908697E0,-3.983951569E0,-3.840299606E0
1.702401711E1,3.007117271E0,-3.241749048E0,-5.272032261E0
1.703431826E1,2.331952572E0,-3.567360640E0,-5.410895824E0
1.704436618E1,2.676717520E0,-5.521028996E0,-1.508347034E0
1.705455019E1,2.691082716E0,-8.418013573E0,5.410895944E-1
1.706460753E1,1.939303398E0,-1.184650993E1,2.485181332E0
1.707496498E1,8.044517636E-1,-1.451843929E1,1.800439715E0
1.708489264E1,-4.788403511E-1,-1.623747635E1,-6.512228847E-1
1.709499222E1,-1.359906554E0,-1.686954498E1,-3.126827478E0
1.710514348E1,-3.093308687E0,-1.481053162E1,-5.233725071E0
1.711526535E1,-4.089296341E0,-1.131020927E1,-6.110002518E0
1.712519738E1,-3.754108191E0,-7.852981567E0,-5.075707436E0
1.713546176E1,-3.691859007E0,-5.861005783E0,-4.548983097E0
1.714558905E1,-2.940079689E0,-5.712565422E0,-3.639186621E0
1.715586437E1,-1.460463047E0,-6.349422932E0,-2.509123325E0
1.716590572E1,-5.602431893E-1,-6.919242859E0,-1.570596337E0
1.717579192E1,1.340752989E-1,-7.584830761E0,-1.953668594E0
1.718600135E1,2.920926213E-1,-8.154650688E0,-2.078166962E0
1.719617848E1,4.309562966E-2,-8.370129585E0,-4.122815132E0
1.720623093E1,-7.900865674E-1,-8.801085472E0,-3.284844637E0
1.721641036E1,-1.905784607E0,-9.136273384E0,-2.121262789E0
1.722658396E1,-2.652775526E0,-9.447520256E0,-2.509123325E0
1.723648713E1,-2.834734917E0,-9.749189377E0,-2.542642117E0
1.724662146E1,-2.537853718E0,-9.519346237E0,-2.078166962E0
1.725674443E1,-2.001552582E0,-8.796297073E0,-2.466027737E0
1.726687641E1,-2.322375536E0,-7.905653954E0,-1.996764183E0
1.727709756E1,-2.557007313E0,-7.517793179E0,-2.030282974E0
1.728734542E1,-2.566584110E0,-7.541735172E0,-2.643198729E0
1.729733563E1,-2.106897593E0,-7.843404770E0,-3.107673883E0
1.730733089E1,-1.604115129E0,-8.269572258E0,-2.992752075E0
1.731748714E1,-1.058237195E0,-8.963891029E0,-3.040636063E0
1.732758282E1,-1.024718285E0,-9.476250648E0,-3.093308687E0
1.733775329E1,-9.145850539E-1,-1.000297451E1,-2.729389906E0
1.734796725E1,1.915361360E-2,-1.057758331E1,-3.323152065E0
1.735793163E1,6.224924326E-2,-1.071165848E1,-3.600879431E0
1.736806740E1,3.495534360E-1,-1.046266174E1,-4.367023945E0
1.737815986E1,-7.805097699E-1,-9.203310966E0,-4.639962673E0
1.738828215E1,-1.647210717E0,-7.690176010E0,-5.674258232E0
1.739839345E1,-1.915361404E0,-6.306327343E0,-5.918466568E0
1.740852444E1,-1.685518026E0,-4.769249916E0,-5.870582581E0
1.741863236E1,-6.703764796E-1,-4.371812344E0,-4.836287498E0
1.742881757E1,1.484405100E-1,-5.482721806E0,-4.783615112E0
1.743887971E1,5.889736414E-1,-6.928819656E0,-4.194641590E0
1.744898601E1,3.974374831E-1,-8.542511940E0,-3.552995205E0
1.745928257E1,3.591302633E-1,-1.030943298E1,-3.706224203E0
1.746939992E1,1.340752989E-1,-1.144428444E1,-4.505887508E0
1.747933705E1,-9.097966552E-2,-1.196143150E1,-5.109226227E0
1.748960362E1,-5.650315881E-1,-1.209071827E1,-5.573701382E0
1.749969226E1,-1.556231141E0,-1.181299114E1,-5.501875401E0
1.750982367E1,-2.801215887E0,-1.107557678E1,-5.626373768E0
1.751991924E1,-3.490746021E0,-9.710882187E0,-6.478709698E0
1.753005794E1,-3.634398222E0,-8.236053467E0,-6.200982571E0
1.754006794E1,-3.610456228E0,-7.580042362E0,-5.185841084E0
1.755041237E1,-3.433285236E0,-7.340622425E0,-4.194641590E0
1.756053081E1,-3.241749048E0,-7.077260017E0,-4.165910721E0
1.757065180E1,-2.911349297E0,-6.976703644E0,-4.299986362E0
1.758053717E1,-2.992752075E0,-6.789956093E0,-4.668693542E0
1.759064175E1,-2.949656487E0,-6.435614109E0,-3.916913986E0
1.760076707E1,-2.686294317E0,-6.373364925E0,-2.657563925E0
1.761090566E1,-1.996764183E0,-6.708553314E0,-1.776497602E0
1.762101702E1,-1.379060149E0,-7.714118004E0,-1.149216771E0
1.763112499E1,-3.591302633E-1,-9.490615845E0,-1.192312479E0
1.764123374E1,1.345541358E0,-1.283770943E1,-1.326387763E0
1.765136832E1,2.394201756E0,-1.765484428E1,-2.145204782E0
1.766148264E1,4.395754337E0,-2.168189049E1,-1.896207690E0
1.767159192E1,3.284844637E0,-2.110249329E1,-1.738190413E0
1.768170739E1,2.279279947E0,-2.010650635E1,-1.790862918E0
1.769182572E1,1.149216816E-1,-1.776976585E1,-2.154781580E0
1.770194895E1,-3.782838583E0,-1.422634697E1,-2.317587137E0
1.771206624E1,-6.708553314E0,-1.172679996E1,-1.498770237E0
1.772218140E1,-9.318233490E0,-9.380482674E0,-1.197100878E-1
1.773232552E1,-1.111388397E1,-7.220912457E0,1.316810966E0
1.774244796E1,-1.075475407E1,-6.234501362E0,2.906560898E0
1.775254328E1,-8.719682693E0,-5.635950565E0,3.265691042E0
1.776265614E1,-6.148310184E0,-6.756437302E0,1.800439715E0
1.777278276E1,-4.271255970E0,-7.666234016E0,8.810662031E-1
1.778290662E1,-3.399766445E0,-7.867346764E0,-3.064578176E-1
1.779303823E1,-2.849100113E0,-7.728483200E0,-3.734954596E0
1.780314308E1,-1.120486379E0,-7.417236805E0,-6.550535679E0
1.781325089E1,2.873041928E-1,-7.235277653E0,-8.073247910E0
1.782336058E1,1.422155857E0,-7.474697590E0,-7.900865555E0
1.783348798E1,1.268926859E0,-7.876923561E0,-6.833051682E0
1.784360079E1,1.086967587E0,-8.389283180E0,-6.071695328E0
1.785372871E1,7.565677166E-1,-8.518569946E0,-3.495534420E0
1.786385168E1,3.734954596E-1,-8.561665535E0,-1.072602391E0
1.787397881E1,1.532289088E-1,-8.504204750E0,2.394201756E-1
1.788407912E1,1.580173075E-1,-8.508993149E0,4.979939461E-1
1.789420751E1,2.202665508E-1,-8.647856712E0,3.830722570E-1
1.790431658E1,-1.149216816E-1,-8.633491516E0,8.140286058E-2
1.791445033E1,-2.154781520E-1,-8.341399193E0,-2.825157940E-1
1.792455793E1,-2.154781520E-1,-8.020575523E0,-1.240196466E0
1.793467574E1,-2.873041928E-1,-7.666234016E0,-2.394201756E0
1.794482637E1,-3.926490843E-1,-7.383718014E0,-3.399766445E0
1.795492179E1,-7.852981687E-1,-7.268796444E0,-3.758896589E0
1.796503148E1,-1.522712231E0,-7.072471619E0,-3.821146011E0
1.797515090E1,-2.552218914E0,-6.756437302E0,-3.801992416E0
1.798529382E1,-3.878606796E0,-6.335057735E0,-3.624821424E0
1.799538825E1,-5.688623428E0,-5.832275391E0,-3.447650433E0
1.800550455E1,-8.034940720E0,-5.343858242E0,-3.672705412E0
1.801573377E1,-1.006043530E1,-5.200206280E0,-4.544194698E0
1.802587773E1,-1.156878281E1,-5.655104637E0,-6.148310184E0
1.803600648E1,-1.160230160E1,-6.770802498E0,-7.618350029E0
1.804597727E1,-1.145386124E1,-8.489839554E0,-8.164227486E0
1.805609524E1,-1.039562416E1,-1.038125896E1,-7.647080421E0
1.806635925E1,-7.680599213E0,-1.222479343E1,-6.339846134E0
1.807636112E1,-4.884171486E0,-1.284728622E1,-4.841075897E0
1.808647842E1,-3.414131641E0,-1.194227791E1,-4.276044369E0
1.809672300E1,-3.217807055E0,-1.075954247E1,-5.525817394E0
1.810673967E1,-3.576937437E0,-9.667786598E0,-5.276820660E0
1.811681618E1,-3.988739967E0,-9.026140213E0,-2.762908697E0
1.812692535E1,-4.683058739E0,-9.715670586E0,-1.838746905E0
1.813707436E1,-4.821922302E0,-1.099417400E1,-2.547430515E0
1.814717082E1,-5.640739441E0,-1.179383755E1,-3.131615877E0
1.815728144E1,-6.153098583E0,-1.368046856E1,-1.685518026E0
1.816747738E1,-4.103661537E0,-1.793735886E1,1.522712231E0
1.817752671E1,-2.015917778E0,-1.883279037E1,1.316810966E0
1.818763754E1,5.027823448E-1,-1.426465416E1,-1.053448796E0
1.819775661E1,1.934514999E0,-8.556877136E0,-3.466804028E0
1.820789796E1,2.020706177E0,-5.315127850E0,-4.228160381E0
1.821800244E1,1.929726601E0,-3.500322819E0,-5.875370979E0
1.822811130E1,1.168370485E0,-3.509899616E0,-5.817910194E0
1.823823192E1,6.895300746E-1,-4.616020679E0,-3.964797974E0
1.824835791E1,8.140286058E-2,-6.167463779E0,-1.747767210E0
1.825846401E1,3.591302633E-1,-8.293514252E0,-4.070142806E-1
1.826860729E1,1.043871999E0,-1.088404083E1,7.661445141E-1
1.827871427E1,1.134851575E0,-1.384327412E1,1.283292055E0
1.828903031E1,2.025494576E0,-1.623747635E1,-1.101332754E-1
1.829906146E1,1.005564690E0,-1.623268700E1,-2.073378563E0
1.830919120E1,-8.762778044E-1,-1.391510010E1,-3.643975019E0
1.831917396E1,-3.007117271E0,-1.086009884E1,-4.438849926E0
1.832930657E1,-3.964797974E0,-7.953537941E0,-4.252102375E0
1.833941094E1,-4.812345505E0,-5.616796970E0,-3.217807055E0
1.834957474E1,-4.750096321E0,-5.420472622E0,-3.303998232E0
1.835971344E1,-3.165134668E0,-6.263231754E0,-3.596091032E0
1.836979272E1,-1.613691926E0,-6.837840080E0,-3.773261786E0
1.837990032E1,4.261679053E-1,-7.431602001E0,-3.356670856E0
1.839002027E1,3.280056238E0,-8.757989883E0,-2.126051188E0
1.840021168E1,2.082955360E0,-8.963891029E0,-2.844311714E0
1.841036762E1,2.968810201E-1,-9.188945770E0,-2.461239338E0
1.842036038E1,-1.517923832E0,-9.476250648E0,-2.600103140E0
1.843047861E1,-2.504334927E0,-9.653421402E0,-2.102109194E0
1.844059960E1,-2.633621931E0,-9.715670586E0,-2.748543501E0
1.845072970E1,-2.959233284E0,-9.519346237E0,-2.738966703E0
1.846083366E1,-3.031059265E0,-9.102754593E0,-2.240972757E0
1.847096283E1,-3.198653460E0,-8.427590370E0,-1.604115129E0
1.848107153E1,-3.318363667E0,-7.905653954E0,-1.527500629E0
1.849118830E1,-2.782062292E0,-8.145073891E0,-1.120486379E0
1.850133393E1,-2.422932148E0,-8.446743965E0,-1.474828243E0
1.851143919E1,-2.111685991E0,-8.825027466E0,-2.284068346E0
1.852152976E1,-1.714248419E0,-9.337387085E0,-2.614468336E0
1.853168086E1,-1.604115129E0,-9.653421402E0,-2.710236311E0
1.854179554E1,-1.364694953E0,-9.619902611E0,-3.323152065E0
1.855191956E1,-4.453215301E-1,-9.337387085E0,-4.161122322E0
1.856204086E1,-1.436521020E-2,-9.270348549E0,-4.802768707E0
1.857214143E1,1.005564705E-1,-8.844181061E0,-5.659893036E0
1.858225503E1,-1.963245422E-1,-8.025363922E0,-6.454767704E0
1.859261633E1,-5.841852427E-1,-6.833051682E0,-6.751648903E0
1.860253967E1,-7.469909191E-1,-5.329493046E0,-6.306327343E0
1.861266602E1,-5.363011956E-1,-4.256890774E0,-5.765237808E0
1.862273300E1,-1.292868853E-1,-4.419696331E0,-4.692635536E0
1.863311472E1,-3.160346150E-1,-5.702988625E0,-3.447650433E0
1.864300346E1,-2.537853718E-1,-7.771578789E0,-2.738966703E0
1.865308795E1,-2.920926213E-1,-9.964667320E0,-2.916137695E0
1.866321519E1,-1.149216816E-1,-1.141076565E1,-3.969586372E0
1.867339009E1,-3.495534360E-1,-1.200931549E1,-4.783615112E0
1.868343634E1,-7.661445141E-1,-1.229662037E1,-5.204994678E0
1.869355691E1,-1.197100878E0,-1.194227791E1,-5.554547787E0
1.870366910E1,-1.987187386E0,-1.113782597E1,-5.386953831E0
1.871379921E1,-3.299209833E0,-9.720458984E0,-5.822698593E0
1.872392098E1,-3.773261786E0,-8.475474358E0,-6.636727333E0
1.873405749E1,-3.457227230E0,-7.809885979E0,-6.239289761E0
1.874415593E1,-3.347094059E0,-7.900865555E0,-5.185841084E0
1.875427536E1,-3.179499865E0,-7.862558365E0,-4.295197964E0
1.876439452E1,-2.997540474E0,-7.656657219E0,-4.084507942E0
1.877450322E1,-2.829946518E0,-7.474697590E0,-4.362235546E0
1.878463067E1,-2.609679937E0,-7.268796444E0,-3.682282209E0
1.879474620E1,-2.882618904E0,-7.187393665E0,-2.346317768E0
1.880485844E1,-2.537853718E0,-7.350199223E0,-1.561019540E0
1.881497750E1,-1.757344007E0,-8.149862289E0,-1.130063176E0
1.882516011E1,5.746084079E-2,-9.782708168E0,-4.501099288E-1
1.883521516E1,2.054224968E0,-1.257434750E1,-2.633621991E-1
1.884539250E1,3.797203779E0,-1.763090134E1,-1.259350061E0
1.885553089E1,4.769249916E0,-2.153344917E1,-2.255337954E0
1.886558053E1,4.390965939E0,-2.232832527E1,-2.312798738E0
1.887591506E1,1.953668594E0,-2.056140327E1,-3.691859007E0
1.888581334E1,-6.033388376E-1,-1.687433434E1,-3.155557871E0
1.889593329E1,-4.209006786E0,-1.303882217E1,-2.370259762E0
1.890605016E1,-6.698976517E0,-1.042435455E1,-2.571372509E0
1.891615902E1,-9.275136948E0,-7.805097580E0,-1.379060149E0
1.892628012E1,-1.107078838E1,-6.210559368E0,1.388636976E-1
1.893640788E1,-1.044350815E1,-5.372588634E0,1.436521020E-2
1.894655527E1,-6.646304131E0,-7.441178799E0,2.537853718E0
1.895663324E1,-4.381389141E0,-8.298302650E0,3.552995205E0
1.896677324E1,-2.877830505E0,-8.906430244E0,1.584961534E0
1.897687278E1,-2.341529369E0,-8.719682693E0,-4.884171486E-1
1.898700585E1,-1.675941229E0,-8.116343498E0,-3.849876404E0
1.899711741E1,-3.782838583E-1,-7.738059998E0,-6.315904140E0
1.900722127E1,8.762778044E-1,-7.340622425E0,-7.924807549E0
1.901743116E1,1.106121182E0,-6.708553314E0,-7.623138428E0
1.902747153E1,8.283938169E-1,-6.742072105E0,-6.076483727E0
1.903758382E1,-1.388636976E-1,-7.158663273E0,-4.271255970E0
1.904774773E1,-7.996633649E-1,-7.618350029E0,-1.656787634E0
1.905805528E1,-1.149216771E0,-7.910442352E0,1.867477298E-1
1.906809200E1,-8.954314590E-1,-8.111555099E0,1.106121182E0
1.907806726E1,-8.475474119E-1,-8.111555099E0,1.211466074E0
1.908817274E1,-6.799532771E-1,-7.977479935E0,5.219359994E-1
1.909829628E1,-3.399766386E-1,-7.958326340E0,-6.224924326E-1
1.910843769E1,-9.097966552E-2,-7.690176010E0,-2.298433542E0
1.911856498E1,1.915361360E-2,-7.455543995E0,-3.462015629E0
1.912874487E1,-2.154781520E-1,-6.924031258E0,-4.108449936E0
1.913881289E1,-8.810662031E-1,-6.526593685E0,-4.046200752E0
1.914888446E1,-2.212242365E0,-5.961562157E0,-4.127603531E0
1.915899993E1,-3.758896589E0,-5.521028996E0,-4.094084740E0
1.916915785E1,-6.057330132E0,-5.013458252E0,-4.390965939E0
1.917924134E1,-8.202534676E0,-4.683058739E0,-4.568136692E0
1.918935717E1,-9.955090523E0,-4.491522312E0,-5.540182590E0
1.919948530E1,-1.178904915E1,-5.219359875E0,-6.617573261E0
1.920960613E1,-1.427901936E1,-6.569689274E0,-7.383718014E0
1.921971619E1,-1.591665268E1,-8.518569946E0,-7.474697590E0
1.922998874E1,-1.357512379E1,-1.074038887E1,-6.330269337E0
1.923996228E1,-9.485827446E0,-1.196143150E1,-4.544194698E0
1.925008660E1,-6.220136166E0,-1.289517021E1,-3.193865061E0
1.926019765E1,-4.520252705E0,-1.312022495E1,-3.466804028E0
1.927031744E1,-3.787626982E0,-1.391031170E1,-3.586514235E0
1.928042656E1,-3.280056238E0,-1.500685596E1,-4.041412354E0
1.929053989E1,-4.529829502E0,-1.579215431E1,-3.538630009E0
1.930066760E1,-6.382941723E0,-1.517444992E1,-3.275267839E0
1.931078463E1,-7.072471619E0,-1.524148846E1,-2.422932148E0
1.932103896E1,-3.725377798E0,-1.565329075E1,-7.948749661E-1
1.933101807E1,-2.059013397E-1,-1.272278786E1,-2.236184359E0
1.933633380E1,7.613561153E-1,-1.003649330E1,-3.102885485E0
1.934624948E1,1.278503656E0,-5.717353821E0,-4.639962673E0
1.935631453E1,3.308786631E0,-4.103661537E0,-5.659893036E0
1.936650292E1,4.831499100E0,-3.155557871E0,-4.984727859E0
1.937665136E1,4.458003521E0,-3.145981073E0,-4.874594688E0
1.938672875E1,3.725377798E0,-4.932055473E0,-3.007117271E0
1.939678047E1,3.112462282E0,-8.542511940E0,-1.503558636E0
1.940711485E1,2.964021683E0,-1.330697346E1,1.695094824E0
1.941720865E1,2.762908697E0,-1.753992081E1,5.214571476E0
1.942735496E1,1.034295082E0,-1.922065163E1,3.888183594E0
1.943735866E1,-3.447650373E-1,-1.879448318E1,5.650315881E-1
1.944738110E1,-2.758120298E0,-1.565329075E1,-1.580173135E0
1.945749907E1,-4.879383087E0,-1.180820274E1,-5.463568211E0
1.946762621E1,-5.372588634E0,-8.451532364E0,-6.861782074E0
1.947773423E1,-6.804321289E0,-5.659893036E0,-7.671022415E0
1.948786304E1,-7.015010834E0,-4.280832767E0,-6.569689274E0
1.949797074E1,-4.137180328E0,-4.845864296E0,-3.165134668E0
1.950809830E1,-1.944091797E0,-5.549759388E0,-3.117250681E0
1.951822246E1,-3.351882473E-2,-6.564900875E0,-3.342305660E0
1.952855721E1,2.398990154E0,-7.714118004E0,-3.136404276E0
1.953844726E1,2.470816135E0,-8.259995461E0,-4.644751072E0
1.954857325E1,1.561019540E0,-8.523358345E0,-3.677493811E0
1.955869903E1,-4.836287498E-1,-8.403648376E0,-2.398990154E0
1.956880252E1,-2.389413357E0,-8.729259491E0,-1.810016513E0
1.957897716E1,-3.572149038E0,-9.097966194E0,-1.551442742E0
1.958909190E1,-3.725377798E0,-9.662998199E0,-1.063025594E0
1.959916237E1,-3.275267839E0,-9.940725327E0,-6.416460276E-1
1.960943737E1,-3.303998232E0,-9.639056206E0,-8.140285611E-1
1.961957305E1,-3.768473387E0,-8.757989883E0,-1.019929886E0
1.962952409E1,-4.333505154E0,-7.824251175E0,-1.431732655E0
1.963962904E1,-4.127603531E0,-7.019799232E0,-1.920149803E0
1.964977477E1,-3.155557871E0,-7.287950039E0,-2.250549555E0
1.965986425E1,-2.494758129E0,-7.876923561E0,-2.293645144E0
1.966999019E1,-1.517923832E0,-8.810662270E0,-3.174711466E0
1.968010951E1,-9.241618514E-1,-9.739612579E0,-2.705447912E0
1.969022144E1,-1.819593310E-1,-1.025197124E1,-3.567360640E0
1.970044410E1,4.788403399E-3,-9.888052940E0,-3.562572241E0
1.971048550E1,9.337386489E-1,-9.955090523E0,-4.247313976E0
1.972062827E1,7.086837292E-1,-9.414001465E0,-4.630385876E0
1.973069400E1,-6.224924326E-1,-7.934384346E0,-5.535394192E0
1.974081082E1,-2.729389966E-1,-8.030152321E0,-6.335057735E0
1.976599535E1,-9.289502501E-1,-7.038952827E0,-6.502651691E0
1.977606722E1,-7.469909191E-1,-6.315904140E0,-6.651092529E0
1.978128681E1,-1.628057212E-1,-5.832275391E0,-5.176264286E0
1.979139770E1,0.000000000E0,-6.162675381E0,-4.046200752E0
1.980152973E1,4.836287498E-1,-7.551311970E0,-3.476380825E0
1.981164473E1,5.841852427E-1,-9.710882187E0,-3.615244627E0
1.982177531E1,-1.436520964E-1,-1.144907284E1,-4.137180328E0
1.983196651E1,-7.565677166E-1,-1.248336792E1,-5.066130638E0
1.984197770E1,-1.833958507E0,-1.333091545E1,-5.650316238E0
1.985206780E1,-2.657563925E0,-1.303882217E1,-5.688623428E0
1.986234047E1,-3.452438831E0,-1.250730991E1,-4.984727859E0
1.987236432E1,-3.763684988E0,-1.154005241E1,-4.884171486E0
1.988246891E1,-4.007893562E0,-9.868899345E0,-5.070919037E0
1.989274625E1,-3.974374771E0,-8.595184326E0,-4.711789131E0
1.990273417E1,-3.639186621E0,-7.977479935E0,-3.778050184E0
1.991283813E1,-3.256114244E0,-7.436390400E0,-2.896984100E0
1.992294693E1,-2.753331900E0,-7.163451672E0,-2.892195702E0
1.993306589E1,-2.389413357E0,-6.957550049E0,-3.150769472E0
1.994325636E1,-1.757344007E0,-6.909666061E0,-3.107673883E0
1.995330881E1,-1.685518026E0,-6.464344501E0,-3.160346270E0
1.996342074E1,-1.867477298E0,-6.449979305E0,-3.074155092E0
1.997357387E1,-2.221819162E0,-7.067683220E0,-2.561795712E0
1.998366282E1,-1.565807939E0,-8.892065048E0,-2.059013367E0
1.999379241E1,9.576806799E-3,-1.178426075E1,-1.972822189E0
2.000389803E1,1.307234168E0,-1.530852604E1,-1.738190413E0
2.001401278E1,3.323152065E0,-2.020227432E1,-1.086967587E0
2.002414226E1,2.849100113E0,-2.146641159E1,-6.368576288E-1
2.003427424E1,1.872265697E0,-2.046084785E1,-1.163581967E0
2.004437970E1,2.777273953E-1,-1.754471016E1,-1.958456993E0
2.005458247E1,-3.169923067E0,-1.403481007E1,-2.197877169E0
2.006461507E1,-5.305551052E0,-1.199016190E1,-1.010353088E0
2.007473580E1,-8.197746277E0,-1.002212811E1,-6.129156351E-1
2.008485440E1,-9.121908188E0,-8.130708694E0,1.465251446E0
2.009497909E1,-8.552088737E0,-6.655880928E0,4.745307922E0
2.010509763E1,-8.202534676E0,-6.191405773E0,4.582501888E0
2.011530456E1,-5.904101372E0,-7.129932880E0,3.294421434E0
2.012534628E1,-5.185841084E0,-7.091625214E0,-3.591302633E-1
2.013544820E1,-4.141968727E0,-7.115567684E0,-2.561795712E0
2.014555529E1,-2.638410330E0,-6.895300865E0,-3.031059265E0
2.015567732E1,-1.522712231E0,-6.406883717E0,-6.631938934E0
2.016580310E1,-4.309562966E-2,-6.224924564E0,-8.293514252E0
2.017593430E1,1.058237195E0,-6.607996464E0,-8.446743965E0
2.018604831E1,1.335964561E0,-7.364564419E0,-7.920019150E0
2.019615170E1,7.278373241E-1,-8.307879448E0,-6.062118530E0
2.020627300E1,2.442085743E-1,-8.322244644E0,-3.155557871E0
2.021639644E1,-1.340752989E-1,-8.403648376E0,-8.714894056E-1
2.022650306E1,-1.915361285E-1,-8.657433510E0,4.692635238E-1
2.023663170E1,7.661445439E-2,-8.757989883E0,9.768342972E-1
2.024675072E1,1.053448766E-1,-8.686163902E0,4.692635238E-1
2.025700082E1,-1.532289088E-1,-8.508993149E0,-9.576806799E-3
2.026698827E1,-1.197100878E-1,-8.283937454E0,-7.182605267E-1
2.027708999E1,-6.703764945E-2,-7.651868820E0,-2.039859772E0
2.028732004E1,-1.388636976E-1,-7.235277653E0,-2.944868088E0
2.029736291E1,-1.532289088E-1,-6.799532890E0,-3.969586372E0
2.030752046E1,-8.331822157E-1,-6.186617374E0,-4.352658749E0
2.031756671E1,-1.786074519E0,-5.875370979E0,-3.677493811E0
2.032768354E1,-2.925714493E0,-5.817910194E0,-3.236960649E0
2.033780666E1,-4.965574265E0,-5.779603004E0,-2.686294317E0
2.034792244E1,-7.297526836E0,-5.784391403E0,-2.092532396E0
2.035823864E1,-9.528923035E0,-5.798756599E0,-2.145204782E0
2.036829078E1,-1.121922874E1,-5.928043365E0,-3.940855980E0
2.037836984E1,-1.077390766E1,-6.469132900E0,-6.287173748E0
2.038840891E1,-9.921571732E0,-7.920019150E0,-8.566453934E0
2.039858286E1,-9.126696587E0,-1.001255131E1,-9.299078941E0
2.040881537E1,-7.608773232E0,-1.204283428E1,-7.896077156E0
2.041888141E1,-5.612008572E0,-1.341231823E1,-5.789179802E0
2.042900026E1,-3.643975019E0,-1.375708294E1,-4.505887508E0
2.043913506E1,-2.820369720E0,-1.229183197E1,-4.989516258E0
2.044912547E1,-3.308786631E0,-1.053927612E1,-5.252878666E0
