"Time (s)","Gyroscope x (rad/s)","Gyroscope y (rad/s)","Gyroscope z (rad/s)"
0.000000000E0,-5.550146848E-2,3.582113683E-1,2.359859645E-1
3.970313000E-3,-2.946115844E-2,4.616570473E-1,2.387261391E-1
7.942188000E-3,-1.603957638E-2,5.818403959E-1,2.458994389E-1
1.191093800E-2,-1.015781611E-2,6.927037239E-1,2.671924531E-1
1.588281300E-2,-2.897246508E-3,7.711388469E-1,2.878222466E-1
1.985312500E-2,9.197885171E-3,8.195542693E-1,3.034254909E-1
2.382343800E-2,2.066469751E-2,8.715999722E-1,3.144210577E-1
2.779531300E-2,1.808161102E-2,9.207310081E-1,3.260100484E-1
3.176406300E-2,1.308996929E-3,9.592503905E-1,3.325026631E-1
3.573437500E-2,-2.068215236E-2,9.930923581E-1,3.379481137E-1
3.970625000E-2,-3.591887653E-2,1.024647951E0,3.452435732E-1
4.367656300E-2,-2.199114859E-2,1.034404278E0,3.564660549E-1
4.764687500E-2,2.256710641E-2,1.046516895E0,3.765547872E-1
5.161718800E-2,8.628907800E-2,1.076484203E0,4.076740146E-1
5.558750000E-2,1.596801728E-1,1.138740063E0,4.543266594E-1
5.955781300E-2,2.188468277E-1,1.244088173E0,5.080304146E-1
6.352968800E-2,2.646966279E-1,1.372788668E0,5.654168725E-1
6.750000000E-2,3.029891551E-1,1.498609543E0,6.202725768E-1
7.146875000E-2,3.403566480E-1,1.599786282E0,6.610609293E-1
7.544062500E-2,3.778114319E-1,1.676912308E0,6.930876970E-1
7.941093800E-2,4.096985757E-1,1.723338127E0,7.154279351E-1
8.338125000E-2,4.309741557E-1,1.756953120E0,7.350977659E-1
8.735156300E-2,4.395262599E-1,1.785733581E0,7.527081370E-1
9.132187500E-2,4.340808392E-1,1.815823078E0,7.679972053E-1
9.529218800E-2,4.185124934E-1,1.845493674E0,7.780154347E-1
9.926406300E-2,3.926292658E-1,1.865739465E0,7.824311256E-1
1.032343750E-1,3.574085236E-1,1.867868781E0,7.801098228E-1
1.072046880E-1,3.173706830E-1,1.841933250E0,7.688350081E-1
1.111750000E-1,2.802824378E-1,1.793168664E0,7.529350519E-1
1.151453130E-1,2.433687150E-1,1.722500324E0,7.257776856E-1
1.191171880E-1,2.120575011E-1,1.587638736E0,6.753376722E-1
1.230875000E-1,1.886875480E-1,1.410418034E0,6.028890610E-1
1.270562500E-1,1.660680771E-1,1.308403492E0,5.272290707E-1
1.310281250E-1,1.293114424E-1,1.289833188E0,4.529827535E-1
1.349984380E-1,7.967428118E-2,1.294388533E0,3.887721002E-1
1.389687500E-1,2.970550396E-2,1.277703166E0,3.363598585E-1
1.429390630E-1,-3.940953314E-2,1.285976052E0,3.024830222E-1
1.469093750E-1,-1.674643457E-1,1.422251344E0,3.325724900E-1
1.508796880E-1,-3.150144815E-1,1.578109264E0,4.354596436E-1
1.548500000E-1,-4.102047384E-1,1.611340284E0,4.981518686E-1
1.588218750E-1,-4.071678519E-1,1.493670225E0,4.639957845E-1
1.627921880E-1,-3.375466764E-1,1.320742965E0,4.158596098E-1
1.667625000E-1,-2.422516942E-1,1.177486420E0,4.132066965E-1
1.707328130E-1,-1.529606581E-1,1.057041168E0,4.483925402E-1
1.747078130E-1,-6.092944369E-2,9.413607717E-1,4.954989851E-1
1.786750000E-1,3.680899367E-2,8.527504206E-1,5.494819880E-1
1.826453130E-1,1.388060302E-1,8.220674992E-1,6.225589514E-1
1.866140630E-1,2.398955077E-1,8.621053696E-1,7.150613666E-1
1.905859380E-1,3.339861929E-1,9.457241297E-1,8.140041232E-1
1.945562500E-1,4.262617528E-1,1.044387579E0,9.215338230E-1
1.985265630E-1,5.583308339E-1,1.014874101E0,1.051491022E0
2.024984380E-1,7.081324458E-1,9.778206944E-1,1.181134105E0
2.064687500E-1,8.510923386E-1,1.036341548E0,1.283899069E0
2.104375000E-1,9.544856548E-1,1.149700761E0,1.363992214E0
2.144093750E-1,1.015292883E0,1.287773728E0,1.426544905E0
2.183781250E-1,1.037022233E0,1.456948519E0,1.463650584E0
2.223484380E-1,1.024019599E0,1.661728024E0,1.475431561E0
2.263203130E-1,9.900554419E-1,1.856541634E0,1.458938122E0
2.302906250E-1,9.465793371E-1,2.016588211E0,1.417765856E0
2.342609380E-1,8.956331611E-1,2.138307571E0,1.352211237E0
2.382328130E-1,8.396080732E-1,2.195187807E0,1.274753571E0
2.422015630E-1,7.816457152E-1,2.169845581E0,1.189372063E0
2.461734380E-1,7.191105485E-1,2.077273369E0,1.107359052E0
2.501437500E-1,6.628934741E-1,1.940317392E0,1.030547142E0
2.541140630E-1,6.140766144E-1,1.784634113E0,9.617636800E-1
2.580843750E-1,5.751557946E-1,1.642127872E0,9.037838578E-1
2.620562500E-1,5.388180614E-1,1.514910936E0,8.519300818E-1
2.660250000E-1,5.016425252E-1,1.414606810E0,8.146149516E-1
2.699953130E-1,4.656189382E-1,1.341198206E0,7.923969030E-1
2.739671880E-1,4.288274050E-1,1.283375502E0,7.875100374E-1
2.779375000E-1,3.954392374E-1,1.239567757E0,7.952767015E-1
2.819078130E-1,3.755948544E-1,1.198028922E0,8.167093396E-1
2.858781250E-1,3.666587770E-1,1.176491499E0,8.459261656E-1
2.898484380E-1,3.632728159E-1,1.195533037E0,8.818625212E-1
2.938187500E-1,3.592411280E-1,1.247491479E0,9.231395721E-1
2.977906250E-1,3.580368459E-1,1.296762228E0,9.617636800E-1
3.017609380E-1,3.611784279E-1,1.317461729E0,9.936683178E-1
3.057312500E-1,3.675663471E-1,1.306134582E0,1.015537262E0
3.097015630E-1,3.678979576E-1,1.286447287E0,1.024996996E0
3.136718750E-1,3.591015041E-1,1.265817523E0,1.023094535E0
3.176421880E-1,3.488214910E-1,1.246112704E0,1.013861775E0
3.216140630E-1,3.392047286E-1,1.234052539E0,9.988170266E-1
3.255828130E-1,3.299370408E-1,1.230300069E0,9.848020077E-1
3.295546880E-1,3.189414740E-1,1.236111999E0,9.731606841E-1
3.335250000E-1,2.899166346E-1,1.195620298E0,9.581159353E-1
3.374953130E-1,2.020567656E-1,9.215163589E-1,9.150936007E-1
3.414656250E-1,2.359685116E-2,3.695036471E-1,8.080001473E-1
3.454359380E-1,-1.985137463E-1,-1.572018117E-1,6.761230826E-1
3.494062500E-1,-3.731513917E-1,-4.591263235E-1,5.915619135E-1
3.533765630E-1,-4.886921942E-1,-5.812993646E-1,5.547878146E-1
3.573484380E-1,-5.537231565E-1,-5.862735510E-1,5.399525166E-1
3.613171880E-1,-5.777388811E-1,-5.280668139E-1,5.335296988E-1
3.652890630E-1,-5.752605200E-1,-4.451287687E-1,5.300564766E-1
3.692593750E-1,-5.541420579E-1,-3.558726311E-1,5.282413363E-1
3.732296880E-1,-5.076988339E-1,-2.760063708E-1,5.325872302E-1
3.772000000E-1,-4.367511868E-1,-2.221978605E-1,5.391496420E-1
3.811718750E-1,-3.265685439E-1,-1.863662601E-1,5.492725372E-1
3.851421880E-1,-1.840100586E-1,-1.545838118E-1,5.684711933E-1
3.891125000E-1,-2.284635976E-2,-1.183333248E-1,6.056815982E-1
3.930828130E-1,1.557531804E-1,-7.738789916E-2,6.624920964E-1
3.970531250E-1,3.400425017E-1,-4.111995548E-2,7.348359823E-1
4.010234380E-1,5.194972754E-1,-9.843656793E-3,8.239699602E-1
4.049937500E-1,7.061427832E-1,2.656391077E-2,9.173625112E-1
4.089640630E-1,8.861036301E-1,7.056365907E-2,1.015502334E0
4.129359380E-1,1.055540204E0,1.152964532E-1,1.113031387E0
4.169062500E-1,1.201781392E0,1.521054506E-1,1.199739337E0
4.208765630E-1,1.337759972E0,1.763131618E-1,1.277598500E0
4.248468750E-1,1.460072637E0,1.808161139E-1,1.335089564E0
4.288171880E-1,1.574705839E0,1.627519578E-1,1.360501647E0
4.327875000E-1,1.697367549E0,1.268679798E-1,1.353555202E0
4.367593750E-1,1.818755269E0,6.211626902E-2,1.325071454E0
4.407296880E-1,1.934557796E0,-3.258529678E-2,1.281682491E0
4.447000000E-1,2.034896851E0,-1.173733920E-1,1.232883096E0
4.486703130E-1,2.122180700E0,-1.772905439E-1,1.182949305E0
4.526406250E-1,2.194908619E0,-2.010444701E-1,1.141934037E0
4.566109380E-1,2.251806259E0,-1.861742735E-1,1.108825088E0
4.605812500E-1,2.291198492E0,-1.253844500E-1,1.067687750E0
4.645515630E-1,2.311985254E0,-2.342231758E-2,1.005955458E0
4.685218750E-1,2.331847191E0,6.942919642E-2,9.121963382E-1
4.724921880E-1,2.362303019E0,1.657015532E-1,8.010188341E-1
4.764640630E-1,2.383962631E0,2.570869923E-1,6.947806478E-1
4.804343750E-1,2.384207010E0,3.092548847E-1,5.874429345E-1
4.844046880E-1,2.361255884E0,2.929185927E-1,5.105087757E-1
4.883750000E-1,2.306487560E0,2.375742197E-1,4.725304544E-1
4.923453130E-1,2.232433081E0,1.620189101E-1,4.764748812E-1
4.963171880E-1,2.165848970E0,8.103563637E-2,5.252044797E-1
5.002859380E-1,2.094150782E0,3.127630055E-2,6.214419603E-1
5.042578130E-1,2.025297403E0,-1.336922217E-2,7.366511226E-1
5.082281250E-1,1.972448945E0,-9.498082101E-2,8.635889292E-1
5.121984380E-1,1.912165284E0,-1.812698990E-1,9.778381586E-1
5.161687500E-1,1.824078560E0,-1.840798706E-1,1.084268332E0
5.201390630E-1,1.711504817E0,-1.372876018E-1,1.185165882E0
5.241093750E-1,1.608530283E0,-1.281769872E-1,1.269884109E0
5.280796880E-1,1.521595478E0,-1.655968428E-1,1.339697242E0
5.320500000E-1,1.447017550E0,-2.127032727E-1,1.395076513E0
5.360218750E-1,1.380764842E0,-2.555336654E-1,1.428639293E0
5.399921880E-1,1.318927884E0,-3.068986833E-1,1.438919187E0
5.439625000E-1,1.261262178E0,-3.714584112E-1,1.428028345E0
5.479328130E-1,1.211450458E0,-4.280594587E-1,1.405897617E0
5.519046880E-1,1.162930369E0,-4.643797576E-1,1.383278131E0
5.558750000E-1,1.115823865E0,-4.652524292E-1,1.364725351E0
5.598453130E-1,1.066815019E0,-4.415333867E-1,1.350099444E0
5.638156250E-1,1.023461103E0,-4.099080265E-1,1.335456133E0
5.677859380E-1,9.800896645E-1,-3.786142766E-1,1.311178565E0
5.717609380E-1,9.398946762E-1,-3.571816385E-1,1.270093560E0
5.757281250E-1,9.062272906E-1,-3.531150222E-1,1.209862232E0
5.796968750E-1,8.757712841E-1,-3.632030189E-1,1.127465248E0
5.836671880E-1,8.502196670E-1,-3.853861392E-1,1.031437278E0
5.876390630E-1,8.300088048E-1,-4.179714620E-1,9.260367751E-1
5.916078130E-1,8.119446039E-1,-4.412366748E-1,8.237255812E-1
5.955781250E-1,7.960970402E-1,-4.462806880E-1,7.268772721E-1
5.995500000E-1,7.784342766E-1,-4.197516739E-1,6.382669210E-1
6.035203130E-1,7.566700578E-1,-3.627143204E-1,5.642824173E-1
6.074906250E-1,7.290065885E-1,-2.833716571E-1,5.010316372E-1
6.114609380E-1,6.968052387E-1,-1.934522986E-1,4.502251446E-1
6.154328130E-1,6.613227129E-1,-1.049815565E-1,4.094367921E-1
6.194031250E-1,6.214942932E-1,-1.130973361E-2,3.745650947E-1
6.233765630E-1,5.822069049E-1,9.231046587E-2,3.436378837E-1
6.273437500E-1,5.498484969E-1,1.910960972E-1,3.161838353E-1
6.313140630E-1,5.156575441E-1,2.787465453E-1,2.828305960E-1
6.352859380E-1,4.775569737E-1,3.395712674E-1,2.371029854E-1
6.392546880E-1,4.328590930E-1,3.662573397E-1,1.741664112E-1
6.432265630E-1,3.757519424E-1,3.674965203E-1,1.008451208E-1
6.471968750E-1,3.025877178E-1,3.462733328E-1,1.864011586E-2
6.511656250E-1,2.109753937E-1,3.139323592E-1,-6.344271451E-2
6.551375000E-1,1.109156758E-1,2.829178572E-1,-1.294161677E-1
6.591078130E-1,3.071779385E-3,2.602111399E-1,-1.776396036E-1
6.630781250E-1,-1.100779176E-1,2.449744195E-1,-2.027199864E-1
6.670484380E-1,-2.178519964E-1,2.333156168E-1,-2.077290863E-1
6.710187500E-1,-3.241250813E-1,2.277305573E-1,-2.004510611E-1
6.749906250E-1,-4.124736488E-1,2.304707319E-1,-1.872563809E-1
6.789609380E-1,-4.925668240E-1,2.462484986E-1,-1.711818874E-1
6.829312500E-1,-5.563411713E-1,2.670702934E-1,-1.546361744E-1
6.869015630E-1,-6.073047519E-1,2.887647152E-1,-1.391725540E-1
6.908718750E-1,-6.430316567E-1,3.096213937E-1,-1.264141947E-1
6.948421880E-1,-6.634694338E-1,3.296577930E-1,-1.160120368E-1
6.988125000E-1,-6.701540947E-1,3.463431299E-1,-1.086467430E-1
7.027843750E-1,-6.580589414E-1,3.548952341E-1,-1.012989059E-1
7.067546880E-1,-6.317219138E-1,3.554711938E-1,-9.155996889E-2
7.107250000E-1,-5.903750658E-1,3.545636237E-1,-8.180358261E-2
7.146953130E-1,-5.357986093E-1,3.592934906E-1,-7.021459192E-2
7.186656250E-1,-4.703662395E-1,3.776718080E-1,-5.455899239E-2
7.226359380E-1,-4.063475430E-1,4.053527117E-1,-3.647737950E-2
7.266078130E-1,-3.396585286E-1,4.327543974E-1,-2.000147291E-2
7.305765630E-1,-2.772804499E-1,4.456349015E-1,-9.843656793E-3
7.345484380E-1,-2.217091769E-1,4.330510795E-1,-9.145525284E-3
7.385187500E-1,-1.757546514E-1,3.912504613E-1,-2.249729447E-2
7.424890630E-1,-1.393994540E-1,3.337767720E-1,-4.241150245E-2
7.464593750E-1,-1.092925146E-1,2.677858770E-1,-6.625270098E-2
7.504296880E-1,-8.714429289E-2,2.004510611E-1,-9.145525098E-2
7.544000000E-1,-7.127925009E-2,1.335002333E-1,-1.139874533E-1
7.583703130E-1,-6.248278543E-2,6.908012927E-2,-1.321912408E-1
7.623421880E-1,-6.063273922E-2,1.616174914E-2,-1.455255598E-1
7.663125000E-1,-6.588617712E-2,-2.277654596E-2,-1.566781998E-1
7.702859380E-1,-7.717845589E-2,-4.286528751E-2,-1.648463458E-1
7.742531250E-1,-9.187413007E-2,-4.523893446E-2,-1.706059277E-1
7.782234380E-1,-1.121025011E-1,-3.441789374E-2,-1.690874994E-1
7.821953130E-1,-1.333431602E-1,-1.097812131E-2,-1.617745608E-1
7.861656250E-1,-1.545314491E-1,2.762856148E-2,-1.515818387E-1
7.901343750E-1,-1.749692559E-1,7.414158434E-2,-1.376366615E-1
7.941062500E-1,-1.915847957E-1,1.223999411E-1,-1.173035800E-1
7.980765630E-1,-2.150245607E-1,1.711120754E-1,-9.046041220E-2
8.020468750E-1,-2.402620167E-1,2.092649788E-1,-6.284930557E-2
8.060171880E-1,-2.713812590E-1,2.293188125E-1,-3.441789374E-2
8.099875000E-1,-3.034254909E-1,2.261074036E-1,-8.325220086E-3
8.139578130E-1,-3.345097899E-1,2.067517042E-1,1.319468953E-2
8.179296880E-1,-3.591887653E-1,1.852667034E-1,3.506366536E-2
8.219000000E-1,-3.722438216E-1,1.689827740E-1,5.808455870E-2
8.258703130E-1,-3.713013530E-1,1.621759981E-1,8.185594529E-2
8.298406250E-1,-3.526786864E-1,1.616000384E-1,1.040041670E-1
8.338109380E-1,-3.240203857E-1,1.641831249E-1,1.212305725E-1
8.377812500E-1,-2.872113883E-1,1.669581980E-1,1.311440468E-1
8.417531250E-1,-2.437526882E-1,1.666265875E-1,1.337271333E-1
8.457234380E-1,-1.901012659E-1,1.641307622E-1,1.351408362E-1
8.496921880E-1,-1.275137514E-1,1.615127623E-1,1.359611452E-1
8.536640630E-1,-5.804964900E-2,1.614429504E-1,1.402372122E-1
8.576343750E-1,2.206096239E-2,1.636769772E-1,1.446703374E-1
8.616046880E-1,1.045452207E-1,1.614080518E-1,1.486845911E-1
8.655765630E-1,1.842893213E-1,1.526813954E-1,1.492780149E-1
8.695453130E-1,2.710321844E-1,1.364149302E-1,1.446179748E-1
8.735156250E-1,3.454355597E-1,1.177224591E-1,1.390329301E-1
8.774875000E-1,4.218635261E-1,9.613273293E-2,1.324704885E-1
8.814578130E-1,4.907167852E-1,7.995353639E-2,1.281944364E-1
8.854281250E-1,5.522047281E-1,7.693411410E-2,1.270774156E-1
8.894265630E-1,6.063099504E-1,9.028588235E-2,1.315978318E-1
8.933687500E-1,6.484072804E-1,1.213178337E-1,1.395565271E-1
8.973390630E-1,6.766990423E-1,1.611811519E-1,1.526115835E-1
9.013109380E-1,6.946061254E-1,2.042558789E-1,1.685115397E-1
9.052812500E-1,7.027393579E-1,2.456027269E-1,1.848478168E-1
9.092515630E-1,7.053049803E-1,2.764077783E-1,1.969604045E-1
9.132218750E-1,7.022157907E-1,2.882062197E-1,2.019171417E-1
9.171921880E-1,6.947981119E-1,2.861641943E-1,1.961400956E-1
9.211625000E-1,6.808180213E-1,2.756921947E-1,1.812349856E-1
9.251343750E-1,6.554933190E-1,2.663197815E-1,1.612335145E-1
9.291031250E-1,6.162408590E-1,2.637192607E-1,1.423141509E-1
9.330734380E-1,5.670225620E-1,2.726728022E-1,1.313534826E-1
9.370453130E-1,5.067389011E-1,3.004235327E-1,1.328544617E-1
9.410156250E-1,4.377634823E-1,3.502875865E-1,1.490511149E-1
9.449859380E-1,3.625746965E-1,4.212177694E-1,1.779537648E-1
9.489562500E-1,2.777866125E-1,4.993386865E-1,2.151467353E-1
9.529265630E-1,1.928763390E-1,5.780006647E-1,2.578375041E-1
9.568968750E-1,1.055749655E-1,6.466619372E-1,2.998126447E-1
9.608687500E-1,2.501056902E-2,6.972416043E-1,3.315427303E-1
9.648390630E-1,-4.988151044E-2,7.393214703E-1,3.548777997E-1
9.688109380E-1,-1.178795397E-1,7.820471525E-1,3.714933395E-1
9.727796880E-1,-1.731017530E-1,8.389099836E-1,3.884579241E-1
9.767500000E-1,-2.165430039E-1,9.243263602E-1,4.101698399E-1
9.807203130E-1,-2.480461895E-1,1.016217947E0,4.412890375E-1
9.846921880E-1,-2.705609500E-1,1.110430837E0,4.846255779E-1
9.886609380E-1,-2.899689972E-1,1.198831797E0,5.380501151E-1
9.926328130E-1,-3.054151535E-1,1.286482215E0,6.046867967E-1
9.966031250E-1,-3.171263337E-1,1.378251553E0,6.834709048E-1
1.000573438E0,-3.246836066E-1,1.474715948E0,7.706850171E-1
1.004543750E0,-3.274237812E-1,1.582524896E0,8.661720157E-1
1.008514063E0,-3.245265186E-1,1.709515095E0,9.682737589E-1
1.012484375E0,-3.117332458E-1,1.835074067E0,1.067757487E0
1.016456250E0,-2.858151197E-1,1.938467383E0,1.150451183E0
1.020426563E0,-2.471386194E-1,1.989081979E0,1.217943072E0
1.024396875E0,-1.992642432E-1,1.991560340E0,1.269255757E0
1.028367188E0,-1.524719596E-1,1.970354557E0,1.307007313E0
1.032337500E0,-1.080358773E-1,1.945536017E0,1.337620378E0
1.036307813E0,-7.340855151E-2,1.930473804E0,1.361269593E0
1.040279688E0,-5.309291556E-2,1.916039944E0,1.376453876E0
1.044250000E0,-4.928809777E-2,1.892844439E0,1.384936213E0
1.048218750E0,-6.560692936E-2,1.865285754E0,1.384290457E0
1.052190625E0,-9.726719558E-2,1.841374755E0,1.377797842E0
1.056160938E0,-1.379159242E-1,1.828494191E0,1.370083451E0
1.060131250E0,-1.810081005E-1,1.820046782E0,1.362491250E0
1.064103125E0,-2.186024934E-1,1.816172123E0,1.356138229E0
1.068071875E0,-2.454282045E-1,1.808754563E0,1.351181507E0
1.072042188E0,-2.464055866E-1,1.764161348E0,1.341302991E0
1.076014063E0,-2.370157093E-1,1.749186397E0,1.329260230E0
1.079984375E0,-2.223723978E-1,1.750757217E0,1.313325405E0
1.083954688E0,-2.036450207E-1,1.726968408E0,1.289152503E0
1.087925000E0,-1.734857261E-1,1.630643606E0,1.244629145E0
1.091895313E0,-1.376017630E-1,1.504700661E0,1.180785060E0
1.095865625E0,-1.125911921E-1,1.406735420E0,1.104845762E0
1.099837500E0,-8.772024512E-2,1.308735132E0,1.017858505E0
1.103807813E0,-5.398303270E-2,1.192792892E0,9.143779874E-1
1.107776563E0,-1.239183731E-2,1.050583482E0,7.927285433E-1
1.111748438E0,4.932300374E-2,8.815483451E-1,6.515313983E-1
1.115718750E0,1.301317513E-1,7.097206712E-1,4.892332554E-1
1.119689063E0,2.232974172E-1,5.426926613E-1,3.347017765E-1
1.123660938E0,3.287676573E-1,3.752108812E-1,1.767145842E-1
1.127629688E0,4.453556538E-1,2.036275566E-1,2.651155181E-2
1.131601563E0,5.669702291E-1,4.012512043E-2,-1.157327816E-1
1.135571875E0,6.995628476E-1,-1.190314516E-1,-2.414837480E-1
1.139542188E0,8.478984237E-1,-2.603682280E-1,-3.533244431E-1
1.143512500E0,1.017247677E0,-3.750188947E-1,-4.526162446E-1
1.147482813E0,1.195951939E0,-4.526511431E-1,-5.319588780E-1
1.151453125E0,1.390870333E0,-4.993736148E-1,-5.922425985E-1
1.155425000E0,1.597011209E0,-5.283984542E-1,-6.351951361E-1
1.159395313E0,1.799626470E0,-5.544561744E-1,-6.603977084E-1
1.163365625E0,2.001229525E0,-5.912128091E-1,-6.738716364E-1
1.167335938E0,2.202640533E0,-6.505889297E-1,-6.787410975E-1
1.171306250E0,2.389722347E0,-7.408922911E-1,-6.807656884E-1
1.175276563E0,2.564255238E0,-8.472352028E-1,-6.817430854E-1
1.179246875E0,2.722469330E0,-9.620079994E-1,-6.835058331E-1
1.183217188E0,2.859634638E0,-1.080864906E0,-6.845530272E-1
1.187187500E0,2.964633703E0,-1.197208643E0,-6.840817928E-1
1.191159375E0,3.043505192E0,-1.319852829E0,-6.841167212E-1
1.195129688E0,3.096126795E0,-1.446319461E0,-6.839596033E-1
1.199100000E0,3.118728876E0,-1.577131867E0,-6.827378869E-1
1.203070313E0,3.113039017E0,-1.720702648E0,-6.812019944E-1
1.207040625E0,3.077538967E0,-1.887852788E0,-6.780953407E-1
1.211010938E0,3.019210100E0,-2.088286400E0,-6.744126678E-1
1.214982813E0,2.934910774E0,-2.305667162E0,-6.679025888E-1
1.218953125E0,2.843455553E0,-2.513640642E0,-6.618288755E-1
1.222923438E0,2.765177488E0,-2.657036781E0,-6.554234624E-1
1.226893750E0,2.683338881E0,-2.761023521E0,-6.427873373E-1
1.230864063E0,2.603734493E0,-2.806646585E0,-6.194697022E-1
1.234834375E0,2.522471905E0,-2.792963028E0,-5.823814869E-1
1.238806250E0,2.447841644E0,-2.719118357E0,-5.334249735E-1
1.242775000E0,2.382758379E0,-2.575338125E0,-4.739965200E-1
1.246745313E0,2.331009388E0,-2.370157003E0,-4.074470997E-1
1.250717188E0,2.288196564E0,-2.158815145E0,-3.324677646E-1
1.254687500E0,2.239833355E0,-1.996517062E0,-2.584134340E-1
1.258656250E0,2.183738470E0,-1.885531545E0,-1.881988496E-1
1.262628125E0,2.123053312E0,-1.836871743E0,-1.263967454E-1
1.266598438E0,2.060849905E0,-1.846785188E0,-7.806857675E-2
1.270568750E0,2.009100914E0,-1.878916740E0,-4.424409568E-2
1.274540625E0,1.968364835E0,-1.907348156E0,-1.795943826E-2
1.278510938E0,1.940579176E0,-1.914469123E0,1.658062800E-3
1.282481250E0,1.923544765E0,-1.901850343E0,1.956514083E-2
1.286451563E0,1.913840771E0,-1.881534696E0,3.824016452E-2
1.290421875E0,1.907697201E0,-1.875775099E0,6.040584669E-2
1.294392188E0,1.903403759E0,-1.879859209E0,9.162978828E-2
1.298364063E0,1.898516774E0,-1.886055112E0,1.343903542E-1
1.302332813E0,1.894223332E0,-1.885863185E0,1.854412258E-1
1.306304688E0,1.891762376E0,-1.871237278E0,2.344151735E-1
1.310275000E0,1.893350601E0,-1.839402437E0,2.788163424E-1
1.314245313E0,1.901902676E0,-1.804129362E0,3.174928427E-1
1.318215625E0,1.915132284E0,-1.784546852E0,3.470063508E-1
1.322185938E0,1.934837103E0,-1.785000563E0,3.668856621E-1
1.326156250E0,1.960580707E0,-1.803937435E0,3.774798214E-1
1.330128125E0,1.987476230E0,-1.834916949E0,3.778463304E-1
1.334098438E0,2.007599831E0,-1.878358245E0,3.636567891E-1
1.338067188E0,2.013621330E0,-1.923457503E0,3.381051719E-1
1.342039063E0,2.000129938E0,-1.958538651E0,2.984862030E-1
1.346009375E0,1.970721006E0,-1.980477452E0,2.416582853E-1
1.349979688E0,1.928117633E0,-1.992520213E0,1.670629084E-1
1.353950000E0,1.874553442E0,-2.006343126E0,7.010987401E-2
1.357921875E0,1.816049933E0,-2.015523672E0,-4.064871743E-2
1.361892188E0,1.755905986E0,-2.012364626E0,-1.744631082E-1
1.365862500E0,1.699287415E0,-1.989413500E0,-3.185225725E-1
1.369832813E0,1.648254037E0,-1.934679985E0,-4.782900214E-1
1.373803125E0,1.596103549E0,-1.855058074E0,-6.337465048E-1
1.377773438E0,1.543673873E0,-1.757511616E0,-7.923271060E-1
1.381743750E0,1.487561584E0,-1.643122792E0,-9.503143430E-1
1.385714063E0,1.429127932E0,-1.513375044E0,-1.094618201E0
1.389685938E0,1.366016865E0,-1.364480972E0,-1.227577329E0
1.393656250E0,1.291020036E0,-1.218344569E0,-1.342454910E0
1.397626563E0,1.203299761E0,-1.077740788E0,-1.434119582E0
1.401596875E0,1.096084237E0,-9.397376180E-1,-1.507423401E0
1.405567188E0,9.767909646E-1,-8.155400157E-1,-1.554076076E0
1.409537500E0,8.562585115E-1,-7.211176753E-1,-1.581268311E0
1.413509375E0,7.352374196E-1,-6.683563590E-1,-1.597691894E0
1.417478125E0,6.203074455E-1,-6.505365968E-1,-1.603783011E0
1.421450000E0,4.858996570E-1,-6.474298835E-1,-1.614988089E0
1.425420313E0,3.489262164E-1,-6.394188404E-1,-1.622737288E0
1.429390625E0,2.196845859E-1,-6.207612753E-1,-1.613940835E0
1.433360938E0,1.182460561E-1,-5.913699269E-1,-1.581250787E0
1.437331250E0,5.883504823E-2,-5.556953549E-1,-1.515678883E0
1.441301563E0,3.159045801E-2,-5.134235024E-1,-1.431135058E0
1.445271875E0,3.549999744E-2,-4.804018736E-1,-1.321929812E0
1.449243750E0,5.893976986E-2,-4.549375176E-1,-1.200577140E0
1.453214063E0,1.005833223E-1,-4.409225285E-1,-1.074861050E0
1.457184375E0,1.461015046E-1,-4.333652556E-1,-9.443103671E-1
1.461154688E0,1.879021525E-1,-4.228234589E-1,-8.272511363E-1
1.465125000E0,2.344849855E-1,-4.146378636E-1,-6.936113238E-1
1.469096875E0,2.648711801E-1,-4.055970609E-1,-5.687329769E-1
1.473067188E0,2.842268646E-1,-3.990171850E-1,-4.240452051E-1
1.477037500E0,2.828131616E-1,-3.899240196E-1,-2.747671902E-1
1.481007813E0,2.515892088E-1,-3.719296753E-1,-1.462585926E-1
1.484978125E0,1.735031754E-1,-3.323106766E-1,-4.677482322E-2
1.488948438E0,3.389429301E-2,-2.749940753E-1,1.645845547E-2
1.492918750E0,-1.007054970E-1,-2.245191485E-1,4.872959107E-2
1.496890625E0,-2.014808059E-1,-1.753881425E-1,6.543239206E-2
1.500859375E0,-2.661103606E-1,-1.304982603E-1,6.843435764E-2
1.504829688E0,-3.064449131E-1,-1.076344550E-1,6.077236310E-2
1.508801563E0,-3.289945722E-1,-1.003389806E-1,4.764748737E-2
1.512771875E0,-3.395363390E-1,-9.604547173E-2,1.818633080E-2
1.516742188E0,-3.380702734E-1,-8.890707046E-2,-2.246238664E-2
1.520712500E0,-3.290992677E-1,-7.140141726E-2,-6.736970693E-2
1.524682813E0,-3.139672875E-1,-4.440117627E-2,-1.113170981E-1
1.528654688E0,-2.913652658E-1,-1.972221956E-2,-1.467298269E-1
1.532625000E0,-2.573138773E-1,-9.075712413E-3,-1.568701863E-1
1.536595313E0,-2.142740786E-1,-8.901178953E-4,-1.542172879E-1
1.540565625E0,-1.628566682E-1,5.288347602E-3,-1.536762416E-1
1.544535938E0,-1.082104146E-1,1.111774705E-2,-1.581966430E-1
1.548506250E0,-5.103342608E-2,1.970476657E-2,-1.628566682E-1
1.552478125E0,7.190756500E-3,3.670427576E-2,-1.580395699E-1
1.556446875E0,5.970771238E-2,5.679301545E-2,-1.436929554E-1
1.560417188E0,1.123992056E-1,7.663740963E-2,-1.239881888E-1
1.564389063E0,1.597150862E-1,9.595820308E-2,-1.010894701E-1
1.568359375E0,2.000321895E-1,1.166403517E-1,-7.403686643E-2
1.572329688E0,2.406634539E-1,1.378460974E-1,-4.817108810E-2
1.576300000E0,2.738421559E-1,1.567829251E-1,-2.216568217E-2
1.580270313E0,2.975437343E-1,1.745154709E-1,3.577925032E-3
1.584240625E0,3.131993413E-1,1.895078421E-1,2.504547499E-2
1.588210938E0,3.251199424E-1,2.044129670E-1,4.132939503E-2
1.592181250E0,3.298846781E-1,2.039591819E-1,4.934045672E-2
1.596153125E0,3.246486783E-1,1.775174439E-1,5.352924764E-2
1.600123438E0,3.114016354E-1,1.376192123E-1,5.401793867E-2
1.604093750E0,2.882236838E-1,1.010022014E-1,5.129522830E-2
1.608064063E0,2.609441876E-1,7.520623505E-2,4.591961205E-2
1.612035938E0,2.359161526E-1,6.440264732E-2,3.743731230E-2
1.616004688E0,2.119178772E-1,6.611306965E-2,2.663372457E-2
1.619976563E0,1.877625138E-1,7.093018293E-2,1.254891697E-2
1.623946875E0,1.694191098E-1,7.941248268E-2,-3.909537569E-3
1.627917188E0,1.536413282E-1,8.599237353E-2,-2.626720443E-2
1.631887500E0,1.387013197E-1,9.131562710E-2,-5.061454698E-2
1.635857813E0,1.286307722E-1,1.065348983E-1,-7.773696631E-2
1.639828125E0,1.202706397E-1,1.327846497E-1,-1.040739864E-1
1.643798438E0,1.116487086E-1,1.641831249E-1,-1.321737766E-1
1.647770313E0,9.929177910E-2,1.877450645E-1,-1.563640535E-1
1.651740625E0,8.824384958E-2,2.047096640E-1,-1.712516993E-1
1.655710938E0,8.189085126E-2,2.199638486E-1,-1.806939393E-1
1.659681250E0,9.332275391E-2,2.353925556E-1,-1.887399107E-1
1.663651563E0,1.262571216E-1,2.467895597E-1,-1.933824867E-1
1.667621875E0,1.666265875E-1,2.562317848E-1,-1.954943240E-1
1.671592188E0,2.105739713E-1,2.633701861E-1,-1.915324330E-1
1.675562500E0,2.479240149E-1,2.605602145E-1,-1.828406900E-1
1.679534375E0,2.740865052E-1,2.465801090E-1,-1.658237278E-1
1.683504688E0,2.894802988E-1,2.308896035E-1,-1.434486061E-1
1.687475000E0,2.990621626E-1,2.170142382E-1,-1.198692098E-1
1.691445313E0,3.024655581E-1,1.973094642E-1,-9.985028952E-2
1.695415625E0,3.027448058E-1,1.752834171E-1,-8.454374969E-2
1.699385938E0,3.001093566E-1,1.614080518E-1,-7.454301417E-2
1.703357813E0,2.941403389E-1,1.620014608E-1,-6.862634420E-2
1.707328125E0,2.886774540E-1,1.711993515E-1,-6.482152641E-2
1.711296875E0,2.837905288E-1,1.886351854E-1,-6.382668763E-2
1.715268750E0,2.811550796E-1,2.038893551E-1,-6.642723083E-2
1.719239063E0,2.803347707E-1,2.119353265E-1,-7.236135006E-2
1.723209375E0,2.776993215E-1,2.122320384E-1,-8.370599151E-2
1.727181250E0,2.747671902E-1,2.025279999E-1,-1.038121805E-1
1.731151563E0,2.699326277E-1,1.891413331E-1,-1.296779662E-1
1.735120313E0,2.652027905E-1,1.794722080E-1,-1.575159580E-1
1.739092188E0,2.600715160E-1,1.804146916E-1,-1.842020452E-1
1.743062500E0,2.525491416E-1,1.863837093E-1,-2.053030729E-1
1.747032813E0,2.408030778E-1,1.858601123E-1,-2.222502232E-1
1.751003125E0,2.273465842E-1,1.697507203E-1,-2.335948646E-1
1.754973438E0,2.173807621E-1,1.467298269E-1,-2.369982600E-1
1.758943750E0,2.125112861E-1,1.292765439E-1,-2.365270257E-1
1.762914063E0,2.189166546E-1,1.208116934E-1,-2.342929989E-1
1.766885938E0,2.321811467E-1,1.243197992E-1,-2.302612811E-1
1.770856250E0,2.473829687E-1,1.231678873E-1,-2.225818336E-1
1.774826563E0,2.677509487E-1,1.175653785E-1,-1.951452643E-1
1.778796875E0,2.876651585E-1,1.335351467E-1,-1.721592695E-1
1.782767188E0,3.025004566E-1,1.731017530E-1,-1.636071652E-1
1.786739063E0,3.153984547E-1,1.991246194E-1,-1.579348445E-1
1.790707813E0,3.289945722E-1,1.985137463E-1,-1.592961997E-1
1.794679688E0,3.406708241E-1,1.935046464E-1,-1.680926532E-1
1.798650000E0,3.533419073E-1,1.925098151E-1,-1.852667034E-1
1.802620313E0,3.686833382E-1,1.935919225E-1,-2.094918638E-1
1.806590625E0,3.805341423E-1,2.053205371E-1,-2.343104482E-1
1.810560938E0,3.833266497E-1,2.130697966E-1,-2.693741024E-1
1.814531250E0,3.757519424E-1,2.009397596E-1,-3.110525906E-1
1.818503125E0,3.641629517E-1,1.667836607E-1,-3.511253297E-1
1.822471875E0,3.478790224E-1,1.245816052E-1,-3.921056688E-1
1.826442188E0,3.314380348E-1,8.014551550E-2,-4.357738197E-1
1.830414063E0,3.125535548E-1,4.132939503E-2,-4.792324901E-1
1.834384375E0,2.913827300E-1,8.621926419E-3,-5.181009769E-1
1.838354688E0,2.667386830E-1,-1.719149388E-2,-5.485569835E-1
1.842325000E0,2.383247018E-1,-4.244640842E-2,-5.721712708E-1
1.846296875E0,2.075894624E-1,-6.635741889E-2,-5.896071196E-1
1.850267188E0,1.809033751E-1,-8.506734669E-2,-5.982115865E-1
1.854237500E0,1.603957564E-1,-9.958848357E-2,-6.019640565E-1
1.858207813E0,1.457175314E-1,-1.045801267E-1,-5.994856954E-1
1.862182813E0,1.414414793E-1,-9.745918214E-2,-5.901132822E-1
1.866150000E0,1.448274255E-1,-7.965682447E-2,-5.792224407E-1
1.870118750E0,1.585108042E-1,-5.677555874E-2,-5.681046844E-1
1.874089063E0,1.798387319E-1,-3.515093029E-2,-5.618913174E-1
1.878060938E0,2.123542130E-1,-1.987930015E-2,-5.625370741E-1
1.882059375E0,2.495820820E-1,-8.970992640E-3,-5.679650307E-1
1.886001563E0,2.913652658E-1,-2.059488557E-3,-5.788733363E-1
1.889971875E0,3.314554691E-1,6.178465672E-3,-5.887868404E-1
1.893942188E0,3.690149486E-1,2.307325229E-2,-5.906368494E-1
1.897912500E0,3.970274925E-1,5.141739920E-2,-5.822418332E-1
1.901884375E0,4.129099846E-1,7.796385884E-2,-5.687504411E-1
1.905854688E0,4.149520397E-1,8.428195119E-2,-5.495867133E-1
1.909825000E0,4.064348340E-1,5.885250121E-2,-5.296725035E-1
1.913795313E0,3.947236538E-1,1.064650808E-2,-5.128824711E-1
1.917765625E0,3.827856183E-1,-3.563962504E-2,-4.945215881E-1
1.921735938E0,3.727499545E-1,-6.775368005E-2,-4.731762111E-1
1.925706250E0,3.578099608E-1,-7.988371700E-2,-4.478863776E-1
1.929676563E0,3.394665420E-1,-8.047713339E-2,-4.181110859E-1
1.933646875E0,3.146479428E-1,-7.445574552E-2,-3.933099508E-1
1.937617188E0,2.782403827E-1,-7.543312758E-2,-3.778288662E-1
1.941589063E0,2.333679795E-1,-8.651597053E-2,-3.725754321E-1
1.945559375E0,1.858251989E-1,-1.020668522E-1,-3.770783842E-1
1.949529688E0,1.404640973E-1,-1.265887320E-1,-3.871489465E-1
1.953500000E0,1.087514684E-1,-1.484926194E-1,-3.962595463E-1
1.957470313E0,9.189158678E-2,-1.620363742E-1,-4.014780819E-1
1.961440625E0,8.571311831E-2,-1.718974710E-1,-4.057017863E-1
1.965412500E0,8.951793611E-2,-1.765575111E-1,-4.093669653E-1
1.969382813E0,1.043357849E-1,-1.780934036E-1,-4.131717980E-1
1.973353125E0,1.282467991E-1,-1.750216186E-1,-4.206418097E-1
1.977323438E0,1.590169519E-1,-1.663996875E-1,-4.359832406E-1
1.981293750E0,1.912706345E-1,-1.519658118E-1,-4.554960132E-1
1.985265625E0,2.234719545E-1,-1.337271333E-1,-4.759338200E-1
1.989234375E0,2.514495850E-1,-1.154360771E-1,-4.967730641E-1
1.993206250E0,2.709274590E-1,-9.320057929E-2,-5.217661858E-1
1.997176563E0,2.824815512E-1,-7.143632323E-2,-5.471083522E-1
2.001146875E0,2.877524197E-1,-6.108652428E-2,-5.746322274E-1
2.005117188E0,2.898817360E-1,-6.246533245E-2,-6.045471430E-1
2.009087500E0,2.923775613E-1,-7.394959778E-2,-6.304129362E-1
2.013057813E0,2.936516404E-1,-9.428268671E-2,-6.505540013E-1
2.017029688E0,2.893057764E-1,-1.126784533E-1,-6.627364159E-1
2.020998438E0,2.801951468E-1,-1.311614960E-1,-6.613925099E-1
2.024968750E0,2.630734742E-1,-1.539031267E-1,-6.496115327E-1
2.028940625E0,2.369284481E-1,-1.720371097E-1,-6.284581423E-1
2.032910938E0,2.055823356E-1,-1.803797781E-1,-5.961695910E-1
2.036881250E0,1.669930965E-1,-1.784773618E-1,-5.576326847E-1
2.040851563E0,1.277231872E-1,-1.688082516E-1,-5.123588443E-1
2.044821875E0,8.723155409E-2,-1.522799730E-1,-4.683241844E-1
2.048792188E0,5.108578876E-2,-1.332209855E-1,-4.311137795E-1
2.052764063E0,2.583087236E-2,-1.142318025E-1,-4.018271565E-1
2.056734375E0,9.930923581E-3,-9.740682691E-2,-3.823143840E-1
2.060704688E0,-3.228859045E-3,-7.812093943E-2,-3.675837815E-1
2.064675000E0,-1.253146399E-2,-6.164502725E-2,-3.592236638E-1
2.068645313E0,-1.781981252E-2,-4.890412465E-2,-3.559948206E-1
2.072615625E0,-2.101376466E-2,-4.333652556E-2,-3.557504714E-1
2.076587500E0,-1.701696031E-2,-4.577998444E-2,-3.588571548E-1
2.080556250E0,-7.103490178E-3,-5.276130140E-2,-3.653846681E-1
2.084526563E0,3.909537569E-3,-5.984733999E-2,-3.737098873E-1
2.088498438E0,1.295034308E-2,-6.065019220E-2,-3.844611347E-1
2.092468750E0,1.923352852E-2,-5.272639543E-2,-3.976558149E-1
2.096439063E0,2.251474746E-2,-4.207988828E-2,-4.116359055E-1
2.100409375E0,2.172934823E-2,-3.358013555E-2,-4.262617528E-1
2.104379688E0,1.518436428E-2,-2.534218132E-2,-4.374493361E-1
2.108351563E0,5.969026126E-3,-1.762782596E-2,-4.506091177E-1
2.112321875E0,-6.073745899E-3,-1.185078546E-2,-4.605225623E-1
2.116292188E0,-2.003637888E-2,-5.689773243E-3,-4.653571248E-1
2.120262500E0,-3.558726236E-2,-1.047197497E-3,-4.694761038E-1
2.124232813E0,-5.138249323E-2,-5.707226694E-3,-4.785343707E-1
2.128203125E0,-6.347762793E-2,-1.192059834E-2,-4.784994721E-1
2.132175000E0,-7.490953058E-2,-1.293289009E-2,-4.720068276E-1
2.136145313E0,-8.571311831E-2,-8.674286306E-3,-4.591786861E-1
2.140114063E0,-9.620254487E-2,-6.492624991E-3,-4.385139644E-1
2.144085938E0,-1.106887832E-1,-1.841322333E-2,-4.164181054E-1
2.148056250E0,-1.262047589E-1,-3.794345632E-2,-3.927339911E-1
2.152026563E0,-1.469567269E-1,-5.810201168E-2,-3.715107739E-1
2.155996875E0,-1.711644381E-1,-7.012733072E-2,-3.470238149E-1
2.159967188E0,-1.981123239E-1,-7.086037099E-2,-3.188018501E-1
2.163937500E0,-2.272767723E-1,-6.307619810E-2,-2.897595465E-1
2.167909375E0,-2.583436370E-1,-5.351179466E-2,-2.612757981E-1
2.171878125E0,-2.929709554E-1,-4.544837400E-2,-2.299122214E-1
2.175850000E0,-3.278600872E-1,-3.926990926E-2,-1.922305673E-1
2.179820313E0,-3.580542803E-1,-3.511602432E-2,-1.540951133E-1
2.183790625E0,-3.802374303E-1,-3.445279971E-2,-1.175304726E-1
2.187760938E0,-3.915820718E-1,-4.935790971E-2,-7.485716790E-2
2.191732813E0,-3.910933733E-1,-6.588617712E-2,-3.558726236E-2
2.195703125E0,-3.871663809E-1,-7.819075137E-2,-2.024581889E-3
2.199671875E0,-3.960501254E-1,-7.389724255E-2,2.391101047E-2
2.203643750E0,-4.432089031E-1,-2.186897583E-2,-1.398008689E-2
2.207614063E0,-4.827057123E-1,-2.775073424E-2,-5.674065277E-2
2.211584375E0,-4.854633212E-1,-8.176867664E-2,-7.850491256E-2
2.215556250E0,-4.661425352E-1,-1.375842988E-1,-4.562290758E-2
2.219525000E0,-4.464726746E-1,-1.607448310E-1,1.865756884E-2
2.223495313E0,-4.345695376E-1,-1.363974810E-1,8.241444826E-2
2.227467188E0,-4.307298064E-1,-7.925540209E-2,1.321737766E-1
2.231437500E0,-4.253541827E-1,-1.692969352E-2,1.585457027E-1
2.235407813E0,-4.210955799E-1,3.424336016E-2,1.684242785E-1
2.239378125E0,-4.172733128E-1,6.941174716E-2,1.673770696E-1
2.243348438E0,-4.140095413E-1,8.642870188E-2,1.651430577E-1
2.247318750E0,-4.197866023E-1,9.128072113E-2,1.639562249E-1
2.251290625E0,-4.388979375E-1,1.126784533E-1,1.546361744E-1
2.255260938E0,-4.832991362E-1,1.735031754E-1,1.360833198E-1
2.259234375E0,-5.600587130E-1,2.574360669E-1,1.130275205E-1
2.263201563E0,-6.371673346E-1,3.085916638E-1,1.069712266E-1
2.267171875E0,-6.889163852E-1,3.031113446E-1,1.458746195E-1
2.271142188E0,-6.982015371E-1,2.652202249E-1,2.397035211E-1
2.275114063E0,-6.774321198E-1,2.178519964E-1,3.624874353E-1
2.279082813E0,-6.361550689E-1,1.755103022E-1,5.008222461E-1
2.283054688E0,-5.806884766E-1,1.477595717E-1,6.342875361E-1
2.287025000E0,-5.224294066E-1,1.299921274E-1,7.491476536E-1
2.290995313E0,-4.728620648E-1,1.110902056E-1,8.514065146E-1
2.294965625E0,-4.385837913E-1,7.470009476E-2,9.373290539E-1
2.298935938E0,-4.102571011E-1,4.515166581E-2,1.028522491E0
2.302906250E0,-3.819304109E-1,2.031563222E-2,1.116574407E0
2.306878125E0,-3.605501056E-1,-1.324704941E-2,1.205621123E0
2.310848438E0,-3.475823104E-1,-4.082325101E-2,1.286220431E0
2.314818750E0,-3.451214135E-1,-5.209807679E-2,1.352961779E0
2.318789063E0,-3.471809030E-1,-4.464552179E-2,1.409981728E0
2.322759375E0,-3.549475968E-1,-1.110029407E-2,1.453597426E0
2.326729688E0,-3.690149486E-1,2.986258268E-2,1.484070897E0
2.330700000E0,-3.856304884E-1,6.572909653E-2,1.505276680E0
2.334671875E0,-4.005181491E-1,6.696828455E-2,1.510355592E0
2.338640625E0,-4.117580652E-1,3.670427576E-2,1.490476251E0
2.342612500E0,-4.262792170E-1,2.858849242E-2,1.450508237E0
2.346582813E0,-4.403116703E-1,4.895648360E-2,1.403174877E0
2.350553125E0,-4.484972656E-1,5.609488115E-2,1.350064516E0
2.354523438E0,-4.476071298E-1,5.372123420E-2,1.282799602E0
2.358493750E0,-4.433136284E-1,5.415756628E-2,1.192234397E0
2.362464063E0,-4.289495647E-1,5.532693863E-2,1.071859002E0
2.366435938E0,-4.114962816E-1,6.312856078E-2,9.269792438E-1
2.370406250E0,-3.929608762E-1,8.190830052E-2,7.487462759E-1
2.374376563E0,-3.677932322E-1,1.032013148E-1,5.653819442E-1
2.378346875E0,-3.458718956E-1,1.135860309E-1,3.866253197E-1
2.382317188E0,-3.245090544E-1,1.105666086E-1,2.358288914E-1
2.386287500E0,-3.020815849E-1,1.135162115E-1,1.206197068E-1
2.390259375E0,-2.813296318E-1,1.527861208E-1,4.633849114E-2
2.394228125E0,-2.647664547E-1,2.143962383E-1,7.714355364E-3
2.398198438E0,-2.539803088E-1,2.655692995E-1,-1.076868176E-2
2.402170313E0,-2.651154995E-1,3.010169268E-1,7.819075137E-3
2.406140625E0,-3.283662498E-1,3.373721540E-1,8.388052136E-2
2.410110938E0,-3.990346193E-1,3.267430961E-1,1.856681257E-1
2.414082813E0,-4.350233078E-1,2.626720369E-1,2.855184078E-1
2.418051563E0,-4.741536081E-1,1.745678335E-1,3.812497258E-1
2.422021875E0,-5.508782864E-1,1.065523475E-1,4.608541727E-1
2.425993750E0,-6.594377756E-1,5.663593486E-2,5.317494869E-1
2.429964063E0,-7.834783196E-1,-3.438298590E-3,5.973389149E-1
2.433934375E0,-8.971166611E-1,-8.278096467E-2,6.537305117E-1
2.437904688E0,-9.948202372E-1,-1.639038622E-1,7.074342966E-1
2.441875000E0,-1.065296650E0,-2.240304649E-1,7.503170371E-1
2.445845313E0,-1.111216187E0,-2.624277174E-1,7.833386660E-1
2.449817188E0,-1.139001846E0,-2.883807421E-1,8.089600801E-1
2.453787500E0,-1.156315565E0,-3.096039593E-1,8.227133155E-1
2.457762500E0,-1.162179828E0,-3.114016354E-1,8.288568854E-1
2.461728125E0,-1.160102844E0,-2.766695917E-1,8.224864006E-1
2.465698438E0,-1.143312812E0,-2.230007201E-1,8.014028072E-1
2.469668750E0,-1.103868365E0,-1.521403491E-1,7.614522576E-1
2.473639063E0,-1.042712092E0,-6.578145921E-2,7.172954082E-1
2.477609375E0,-9.611004591E-1,3.204424679E-2,6.652845740E-1
2.481581250E0,-8.597666621E-1,1.095019579E-1,6.010215878E-1
2.485551563E0,-7.523590922E-1,1.428202987E-1,5.233020782E-1
2.489521875E0,-6.364168525E-1,1.433438957E-1,4.292637408E-1
2.493492188E0,-5.137725472E-1,1.354724616E-1,3.377211988E-1
2.497462500E0,-3.887895346E-1,1.313185692E-1,2.637192607E-1
2.501432813E0,-2.500533164E-1,1.308298856E-1,2.131221592E-1
2.505403125E0,-1.209687665E-1,1.251575649E-1,1.761560738E-1
2.509373438E0,-3.082251363E-2,1.032013148E-1,1.531177312E-1
2.513345313E0,7.417649496E-3,7.639306039E-2,1.428901106E-1
2.517315625E0,3.647738136E-3,5.358160660E-2,1.420348883E-1
2.521285938E0,-1.794198528E-2,3.785619140E-2,1.430297345E-1
2.525256250E0,-4.000294581E-2,1.781981252E-2,1.497492492E-1
2.529226563E0,-4.953244328E-2,-3.211405827E-3,1.646019965E-1
2.533198438E0,-4.239404574E-2,-2.359685116E-2,1.887922585E-1
2.537167188E0,-1.823868975E-2,-4.607669264E-2,2.223549485E-1
2.541139063E0,2.054252476E-2,-7.480481267E-2,2.493377328E-1
2.545109375E0,6.426302344E-2,-1.084896624E-1,2.623927891E-1
2.549079688E0,1.036551073E-1,-1.350535750E-1,2.707529366E-1
2.553050000E0,1.345648915E-1,-1.414065808E-1,2.774550021E-1
2.557020313E0,1.554041207E-1,-1.234820411E-1,2.853613198E-1
2.560990625E0,1.700125188E-1,-1.023635566E-1,2.976484597E-1
2.564962500E0,1.843591332E-1,-8.663814515E-2,3.175626695E-1
2.568932813E0,2.016553432E-1,-6.658431143E-2,3.492403924E-1
2.572921875E0,2.183581442E-1,-3.698352724E-2,3.882310390E-1
2.576873438E0,2.270673364E-1,-3.490658477E-3,4.362974167E-1
2.580843750E0,2.346071601E-1,2.281145379E-2,4.971745014E-1
2.584814063E0,2.413964868E-1,6.054547057E-2,5.648409128E-1
2.588785938E0,2.455678284E-1,1.093448773E-1,6.414783001E-1
2.592754688E0,2.525316775E-1,1.585282534E-1,7.272263169E-1
2.596725000E0,2.699675262E-1,2.007128596E-1,8.191702962E-1
2.600696875E0,3.115587234E-1,2.584832609E-1,9.094910622E-1
2.604667188E0,3.762580752E-1,3.279124498E-1,1.020947814E0
2.608637500E0,4.583758116E-1,3.919485807E-1,1.113450289E0
2.612607813E0,5.356240869E-1,4.100651145E-1,1.162267089E0
2.616578125E0,5.986653566E-1,4.346567988E-1,1.152894735E0
2.620550000E0,6.637138128E-1,4.778886139E-1,1.069485426E0
2.624520313E0,7.260046005E-1,5.021137595E-1,9.412211776E-1
2.628490625E0,7.788182497E-1,5.084143877E-1,7.992386222E-1
2.632460938E0,8.093091846E-1,5.030038953E-1,6.890036464E-1
2.636431250E0,8.163777590E-1,4.642750323E-1,6.480233073E-1
2.640401563E0,7.986277342E-1,3.972194791E-1,6.631553173E-1
2.644371875E0,7.915416956E-1,3.790680468E-1,6.455274820E-1
2.648342188E0,8.095709682E-1,4.040611684E-1,5.785766244E-1
2.652312500E0,8.461879492E-1,4.146902263E-1,4.953942597E-1
2.656287500E0,8.848121166E-1,3.774448931E-1,4.855505824E-1
2.660254688E0,9.204691648E-1,3.109304011E-1,5.534264445E-1
2.664225000E0,9.657430053E-1,2.619215548E-1,6.744824648E-1
2.668195313E0,9.960942864E-1,2.483778000E-1,7.585375309E-1
2.672165625E0,9.846100211E-1,3.201631904E-1,7.111867666E-1
2.676135938E0,9.428966641E-1,4.681671262E-1,4.916417897E-1
2.680107813E0,8.676206470E-1,5.774945617E-1,1.606575549E-1
2.684078125E0,7.676132321E-1,5.588020682E-1,-1.718625724E-1
2.688048438E0,6.374989748E-1,4.494571984E-1,-4.189313650E-1
2.692018750E0,4.627216756E-1,3.756646812E-1,-5.944242477E-1
2.695989063E0,2.644872069E-1,3.369707167E-1,-8.051204085E-1
2.699959375E0,5.019566789E-2,3.179989755E-1,-1.071597219E0
2.703931250E0,-1.888097227E-1,5.110847354E-1,-1.364096999E0
2.707900000E0,-4.048465788E-1,7.791673541E-1,-1.544302225E0
2.711870313E0,-5.237733126E-1,8.621926308E-1,-1.561092257E0
2.715840625E0,-5.758190155E-1,7.813315392E-1,-1.488661170E0
2.719812500E0,-6.101147532E-1,4.268377125E-1,-1.258260250E0
2.723782813E0,-6.423859000E-1,-1.949532777E-1,-8.565726876E-1
2.727754688E0,-6.493322849E-1,-9.683260918E-1,-4.552167654E-1
2.731723438E0,-6.024003625E-1,-1.647084713E0,-1.468171030E-1
2.735693750E0,-4.753404260E-1,-2.242207050E0,6.269222498E-2
2.739665625E0,-2.819230258E-1,-2.676654339E0,1.718102098E-1
2.743635938E0,-2.064724453E-2,-2.849354744E0,2.128603607E-1
2.747606250E0,2.665117681E-1,-2.751755953E0,2.417106479E-1
2.751576563E0,4.966334403E-1,-2.526835203E0,2.841396034E-1
2.755546875E0,6.826331615E-1,-2.306190729E0,3.420670927E-1
2.759517188E0,8.508828878E-1,-2.121971369E0,3.998723924E-1
2.763489063E0,1.031524539E0,-1.946373701E0,4.816410542E-1
2.767457813E0,1.216023207E0,-1.762939572E0,5.484697223E-1
2.771429688E0,1.398357749E0,-1.563692808E0,5.940402746E-1
2.775400000E0,1.559277177E0,-1.356085896E0,6.202201843E-1
2.779370313E0,1.673927784E0,-1.161045432E0,6.294355392E-1
2.783340625E0,1.770078063E0,-9.939650297E-1,6.393664479E-1
2.787312500E0,1.821984053E0,-8.219104409E-1,6.464699507E-1
2.791281250E0,1.794006467E0,-6.218782663E-1,6.650053263E-1
2.795251563E0,1.705343723E0,-4.305203557E-1,7.026695609E-1
2.799223438E0,1.579121590E0,-2.408379763E-1,7.384138703E-1
2.803193750E0,1.447750568E0,-1.130449772E-1,7.360227704E-1
2.807164063E0,1.318578839E0,-4.668755829E-2,7.047988772E-1
2.811134375E0,1.254001617E0,-1.241627261E-1,6.989868879E-1
2.815104688E0,1.282467961E0,-4.023332894E-1,7.817155123E-1
2.819075000E0,1.374045372E0,-7.932695746E-1,9.604023099E-1
2.823046875E0,1.525016308E0,-1.287197828E0,1.227175951E0
2.827017188E0,1.730389237E0,-1.833346248E0,1.544808388E0
2.830987500E0,1.960964680E0,-2.359493256E0,1.852405190E0
2.834957813E0,2.191313267E0,-2.815582514E0,2.086192131E0
2.838928125E0,2.367277384E0,-3.095585823E0,2.138761282E0
2.842898438E0,2.408240318E0,-3.089372396E0,1.962570429E0
2.846868750E0,2.196776152E0,-2.613473415E0,1.533376455E0
2.850839063E0,1.716531277E0,-1.778071642E0,8.393637538E-1
2.854814063E0,1.102803707E0,-8.256105185E-1,2.855358645E-2
2.858781250E0,5.429719090E-1,-1.476548519E-2,-6.746919155E-1
2.862751563E0,1.163785532E-1,5.513320565E-1,-1.170941353E0
2.866721875E0,-1.382126212E-1,8.466592431E-1,-1.393593073E0
2.870692188E0,-2.378709167E-1,8.928231597E-1,-1.348458886E0
2.874690625E0,-1.993864179E-1,7.319561839E-1,-1.036010027E0
2.878634375E0,-5.818927661E-2,4.875053763E-1,-5.794667602E-1
2.882604688E0,1.219112501E-1,2.252521962E-1,-1.119279638E-1
2.886573438E0,2.890265286E-1,1.928588748E-2,2.066469789E-1
2.890545313E0,3.884404898E-1,-9.327039123E-2,3.426953852E-1
2.894515625E0,3.889466226E-1,-9.342747182E-2,3.171263337E-1
2.898485938E0,3.013136387E-1,-1.167625282E-2,2.347642332E-1
2.902456250E0,1.569225490E-1,1.091877967E-1,1.770636588E-1
2.906426563E0,1.336922217E-2,2.064200938E-1,1.764876992E-1
2.910396875E0,-9.929177910E-2,2.486221492E-1,2.126334608E-1
2.914368750E0,-1.873960048E-1,2.412568629E-1,2.610838115E-1
2.918339063E0,-2.559525371E-1,2.001718134E-1,3.026400805E-1
2.922309375E0,-3.094992340E-1,1.439896673E-1,3.339338303E-1
2.926279688E0,-3.495021760E-1,6.628760695E-2,3.463256955E-1
2.930250000E0,-3.925769031E-1,-5.672320258E-3,3.612656891E-1
2.934220313E0,-4.386012256E-1,-4.925319180E-2,3.865380585E-1
2.938190625E0,-4.665788710E-1,-8.944812417E-2,3.946887553E-1
2.942162500E0,-4.767192304E-1,-1.451590359E-1,3.866602480E-1
2.946132813E0,-4.865628779E-1,-1.661728024E-1,4.158421457E-1
2.950103125E0,-4.860043824E-1,-1.792453080E-1,4.536459744E-1
2.954073438E0,-4.617792070E-1,-2.392671853E-1,4.402069449E-1
2.958043750E0,-4.006752372E-1,-3.220481575E-1,3.733259141E-1
2.962015625E0,-3.419623673E-1,-3.702366948E-1,3.018895984E-1
2.965984375E0,-2.870194018E-1,-3.578099608E-1,2.585879862E-1
2.969956250E0,-2.288126647E-1,-2.998650074E-1,2.351482064E-1
2.973926563E0,-1.652826816E-1,-2.179392576E-1,2.137853801E-1
2.977896875E0,-9.243264049E-2,-1.391725540E-1,2.136981189E-1
2.981867188E0,-2.687806962E-3,-7.590436935E-2,2.063677311E-1
2.985837500E0,8.810421824E-2,-2.460914291E-2,1.989675313E-1
2.989807813E0,1.960004717E-1,1.609193534E-2,1.849874407E-1
2.993778125E0,2.954493463E-1,6.211626902E-2,1.616174877E-1
2.997748438E0,3.796091080E-1,1.132369637E-1,1.342856288E-1
3.001720313E0,4.940677881E-1,1.533795297E-1,9.796532989E-2
3.005692188E0,6.431189179E-1,1.835562736E-1,5.251695588E-2
3.009660938E0,7.865326405E-1,2.396860719E-1,1.340412907E-2
3.013631250E0,9.239075184E-1,3.399726748E-1,-6.422811653E-3
3.017601563E0,1.036201954E0,4.557229280E-1,-2.565633971E-3
3.021571875E0,1.116242766E0,5.783497691E-1,1.333431527E-2
3.025542188E0,1.163907766E0,7.010812759E-1,3.059562109E-2
3.029514063E0,1.174379706E0,8.152607679E-1,5.150466785E-2
3.033484375E0,1.147571445E0,9.128420949E-1,7.244861871E-2
3.037454688E0,1.102349997E0,9.640325904E-1,9.597565234E-2
3.041425000E0,1.062242270E0,9.617113471E-1,1.216843575E-1
3.045395313E0,1.041507721E0,9.297892451E-1,1.452462971E-1
3.049365625E0,1.047686219E0,8.892103434E-1,1.789311469E-1
3.053335938E0,1.092506289E0,8.521395326E-1,2.307499796E-1
3.057306250E0,1.157502413E0,8.334121704E-1,2.892708778E-1
3.061278125E0,1.225500345E0,8.369551897E-1,3.501828611E-1
3.065248438E0,1.286726475E0,8.589812517E-1,3.970623910E-1
3.069218750E0,1.338074088E0,8.805360794E-1,4.318642616E-1
3.073187500E0,1.379473329E0,8.955109715E-1,4.606622159E-1
3.077159375E0,1.404414058E0,8.974483013E-1,4.835085571E-1
3.081129688E0,1.417975307E0,8.851611614E-1,4.953593612E-1
3.085100000E0,1.407014608E0,8.388750553E-1,4.888318181E-1
3.089071875E0,1.132090330E0,4.552691281E-1,4.235041440E-1
3.093040625E0,4.392644763E-1,-5.133537054E-1,2.902482450E-1
3.097010938E0,-8.787732571E-2,-1.178079844E0,2.131046951E-1
3.100982813E0,-1.832421124E-1,-1.204940438E0,2.855882347E-1
3.104953125E0,-8.848818950E-3,-8.359952569E-1,4.084070325E-1
3.108923438E0,1.531700939E-1,-4.262966812E-1,4.531572759E-1
3.112893750E0,1.855634004E-1,-1.678134054E-1,4.059461355E-1
3.116865625E0,9.487609565E-2,-9.796532989E-2,3.233571351E-1
3.120835938E0,-1.150172018E-2,-1.045626774E-1,2.691472173E-1
3.124806250E0,-7.918559015E-2,-1.162738353E-1,2.527585924E-1
3.128776563E0,-1.124341115E-1,-1.178097278E-1,2.539279461E-1
3.132746875E0,-1.468171030E-1,-1.073901057E-1,2.531949282E-1
3.136717188E0,-1.968556792E-1,-9.171704948E-2,2.475924045E-1
3.140687500E0,-2.530029416E-1,-7.902850956E-2,2.408379763E-1
3.144659375E0,-2.962521911E-1,-8.442157507E-2,2.410299629E-1
3.148629688E0,-3.194127083E-1,-1.240405515E-1,2.433512509E-1
3.152600000E0,-3.329739273E-1,-2.234719545E-1,2.496693432E-1
3.156570313E0,-3.362027705E-1,-3.542145789E-1,2.657612860E-1
3.160540625E0,-3.214198351E-1,-5.012236238E-1,2.770710289E-1
3.164510938E0,-2.925520837E-1,-6.190682650E-1,2.771408260E-1
3.168481250E0,-2.660405338E-1,-6.924244761E-1,2.745926380E-1
3.172451563E0,-2.338566631E-1,-7.210129499E-1,2.745228410E-1
3.176421875E0,-1.864884347E-1,-7.167194486E-1,2.713637948E-1
3.180393750E0,-1.206895187E-1,-6.830869317E-1,2.622531652E-1
3.184364063E0,-3.851941600E-2,-6.175673008E-1,2.403318435E-1
3.188334375E0,5.017821491E-2,-5.376836061E-1,2.292838991E-1
3.192304688E0,1.574636102E-1,-4.709247351E-1,2.470338941E-1
3.196275000E0,2.886774540E-1,-4.271518886E-1,2.925869823E-1
3.200245313E0,4.523020685E-1,-4.435405135E-1,4.396833479E-1
3.204217188E0,6.485992670E-1,-4.696331918E-1,6.006724834E-1
3.208187500E0,7.685557604E-1,-4.233296216E-1,6.410419941E-1
3.212156250E0,7.845778465E-1,-2.992541492E-1,5.843711495E-1
3.216128125E0,7.475943565E-1,-1.549677849E-1,4.977155328E-1
3.220098438E0,6.675360799E-1,-1.055575162E-1,4.201356471E-1
3.224068750E0,4.922701120E-1,-2.596002817E-1,3.499734104E-1
3.228039063E0,3.285756707E-1,-5.022010207E-1,2.908416688E-1
3.232009375E0,2.071007639E-1,-7.892378569E-1,2.733010948E-1
3.235979688E0,1.639911383E-1,-1.038767576E0,2.896548510E-1
3.239951563E0,1.944296807E-1,-1.278924942E0,3.492927551E-1
3.243921875E0,2.511179745E-1,-1.513008475E0,4.404338300E-1
3.247892188E0,2.069785893E-1,-1.845441341E0,5.840046406E-1
3.251865625E0,-5.038765445E-2,-2.257757902E0,7.229153514E-1
3.255832813E0,-3.039141893E-1,-2.385934830E0,7.168939710E-1
3.259803125E0,-5.185722113E-1,-2.313782930E0,5.973738432E-1
3.263775000E0,-7.297919989E-1,-2.139092922E0,4.033106863E-1
3.267743750E0,-8.918981552E-1,-1.963861942E0,1.931032240E-1
3.271715625E0,-9.697747231E-1,-1.805420876E0,1.270599663E-2
3.275685938E0,-9.300510287E-1,-1.645828009E0,-1.216669008E-1
3.279656250E0,-7.520099878E-1,-1.426091075E0,-1.815665960E-1
3.283626563E0,-4.808033109E-1,-1.139822125E0,-1.613556892E-1
3.287598438E0,-1.803448647E-1,-8.238826990E-1,-7.566002011E-2
3.291567188E0,4.450589418E-2,-5.264436603E-1,3.687880561E-2
3.295539063E0,1.218763441E-1,-2.539803088E-1,1.126784533E-1
3.299509375E0,5.379104614E-2,1.247910410E-2,1.223650351E-1
3.303479688E0,-9.396852553E-2,2.178345472E-1,8.553858846E-2
3.307450000E0,-2.392671853E-1,3.234444261E-1,3.452261165E-2
3.311420313E0,-3.472158015E-1,3.462907672E-1,-4.223696887E-3
3.315390625E0,-4.043927789E-1,3.223972321E-1,-2.307325229E-2
3.319362500E0,-4.177794755E-1,2.888869047E-1,-3.216641769E-2
3.323332813E0,-4.010941088E-1,2.614852190E-1,-4.056145251E-2
3.327303125E0,-3.624001741E-1,2.370331585E-1,-4.923573881E-2
3.331273438E0,-3.082076907E-1,2.083923072E-1,-5.900958180E-2
3.335243750E0,-2.456027269E-1,1.741140485E-1,-6.503096968E-2
3.339214063E0,-1.761386245E-1,1.316152811E-1,-6.749188155E-2
3.343185938E0,-1.068316028E-1,8.199556917E-2,-7.024950534E-2
3.347154688E0,-4.525638744E-2,3.234095126E-2,-7.367035002E-2
3.351125000E0,6.771877408E-3,-1.855284907E-2,-7.621853054E-2
3.355096875E0,2.520255372E-2,-5.682792142E-2,-7.719591260E-2
3.359067188E0,-4.155628756E-2,-6.501351297E-2,-6.332054734E-2
3.363037500E0,-1.502030343E-1,-5.190609023E-2,-4.897394031E-2
3.367007813E0,-2.516764700E-1,-4.199262336E-2,-4.869468510E-2
3.370978125E0,-3.270747066E-1,-4.619886354E-2,-5.391322076E-2
3.374948438E0,-3.738146126E-1,-5.873033032E-2,-5.347688869E-2
3.378920313E0,-4.039215446E-1,-7.374016196E-2,-4.312708601E-2
3.382890625E0,-4.104316235E-1,-8.984954655E-2,-3.106686100E-2
3.386859375E0,-3.868347704E-1,-1.063952744E-1,-2.942625061E-2
3.390831250E0,-3.388207555E-1,-1.205149814E-1,-3.412118554E-2
3.394801563E0,-2.727077007E-1,-1.285434961E-1,-4.002039880E-2
3.398771875E0,-1.947962046E-1,-1.264316440E-1,-4.082325101E-2
3.402742188E0,-1.237438470E-1,-1.145983189E-1,-3.665191308E-2
3.406714063E0,-6.590363383E-2,-9.449212253E-2,-2.909463830E-2
3.410682813E0,-2.148500271E-2,-6.937684119E-2,-1.973967440E-2
3.414654688E0,3.036872949E-3,-4.387757555E-2,-1.263618376E-2
3.418625000E0,1.078613475E-2,-1.282817032E-2,-7.627088577E-3
3.422595313E0,5.113814492E-3,2.099631168E-2,-5.567600485E-3
3.426567188E0,-4.921828397E-3,4.923573881E-2,-5.026548170E-3
3.430535938E0,-1.298524998E-2,6.489133835E-2,-5.934119225E-3
3.434507813E0,-1.569050923E-2,7.197737694E-2,-4.974188283E-3
3.438478125E0,-1.186823845E-2,7.442083955E-2,-2.617993858E-3
3.442448438E0,-6.213372108E-3,7.716100663E-2,-1.919862116E-4
3.446418750E0,-1.570796361E-3,8.028514683E-2,2.234021435E-3
3.450393750E0,-1.396263367E-3,8.155923337E-2,3.159045940E-3
3.454359375E0,-5.427973811E-3,7.723081857E-2,4.310963210E-3
3.458351563E0,-1.144936029E-2,6.585127115E-2,4.468042869E-3
3.462301563E0,-1.963495463E-2,5.279621109E-2,5.550147034E-3
3.466271875E0,-2.464404888E-2,3.780383244E-2,5.829399452E-3
3.470242188E0,-2.549926005E-2,2.412045002E-2,6.963863503E-3
3.474212500E0,-2.316051908E-2,1.392772701E-2,6.352998316E-3
3.478182813E0,-1.864011586E-2,3.892084118E-3,7.696901914E-3
3.482167188E0,-1.429424621E-2,-3.385938704E-3,1.000073645E-2
3.486125000E0,-1.286307629E-2,-1.008800324E-2,1.106538717E-2
3.490093750E0,-1.068141498E-2,-1.485275198E-2,1.027998887E-2
3.494065625E0,-1.026253588E-2,-1.595230959E-2,1.158898603E-2
3.498035938E0,-1.090830751E-2,-1.548107062E-2,1.146681327E-2
3.502006250E0,-1.092576142E-2,-1.279326342E-2,1.279326342E-2
3.505976563E0,-1.001818944E-2,-9.232792072E-3,1.404990070E-2
3.509946875E0,-9.180432186E-3,-4.537856206E-3,1.422443334E-2
3.513917188E0,-8.063420653E-3,-1.570796303E-4,1.411971357E-2
3.517889063E0,-8.220500313E-3,4.276056774E-3,1.363102160E-2
3.521859375E0,-9.320057929E-3,6.492624991E-3,1.396263391E-2
3.525829688E0,-1.050688233E-2,6.614797749E-3,1.225221157E-2
3.529800000E0,-1.336922217E-2,6.492624991E-3,1.043706853E-2
3.533770313E0,-1.682497375E-2,3.909537569E-3,1.012290921E-2
3.537740625E0,-2.014109865E-2,2.181661548E-3,9.128072299E-3
3.541712500E0,-2.146754973E-2,2.775073517E-3,6.178465672E-3
3.545682813E0,-2.375393175E-2,5.410520826E-4,2.234021435E-3
3.549651563E0,-2.602285892E-2,-6.457717973E-4,0.000000000E0
3.553623438E0,-2.811725438E-2,3.839724232E-4,-2.216568217E-3
3.557593750E0,-3.015928902E-2,3.961897455E-3,-2.652900526E-3
3.561564063E0,-3.070034087E-2,6.859143730E-3,-4.572762642E-3
3.565560938E0,-3.007202223E-2,8.220500313E-3,-7.033676840E-3
3.569504688E0,-3.022910282E-2,8.412486874E-3,-7.976154797E-3
3.573475000E0,-3.101450019E-2,1.103048120E-2,-6.702064537E-3
3.577446875E0,-3.392919898E-2,1.261873078E-2,-6.230825558E-3
3.581417188E0,-3.663446009E-2,1.347394194E-2,-5.811946467E-3
3.585387500E0,-3.900810704E-2,1.385791413E-2,-6.143558770E-3
3.589357813E0,-4.143411666E-2,1.500983164E-2,-5.026548170E-3
3.593328125E0,-4.160865024E-2,1.696459949E-2,-5.340707488E-3
3.597298438E0,-4.059635848E-2,2.003637888E-2,-4.520402756E-3
3.601271875E0,-4.003785178E-2,2.218313515E-2,-4.450589418E-3
3.605240625E0,-3.899065405E-2,2.335250564E-2,-4.747295752E-3
3.609210938E0,-3.736750036E-2,2.396337129E-2,-6.161012221E-3
3.613181250E0,-3.663446009E-2,2.412045002E-2,-7.749261800E-3
3.617151563E0,-3.433062509E-2,2.281145379E-2,-9.215338156E-3
3.621121875E0,-3.389429301E-2,2.216568217E-2,-1.048942842E-2
3.625093750E0,-3.347541392E-2,2.033308521E-2,-1.097812131E-2
3.629062500E0,-3.410373256E-2,1.699950732E-2,-1.230457146E-2
3.633034375E0,-3.398156166E-2,1.342158206E-2,-1.446877979E-2
3.637004688E0,-3.394665569E-2,9.180432186E-3,-1.398008689E-2
3.640975000E0,-3.378957510E-2,8.552113432E-4,-1.520181727E-2
3.644945313E0,-3.330088034E-2,-4.328416660E-3,-1.626646891E-2
3.648915625E0,-3.181735054E-2,-8.691739291E-3,-1.579522900E-2
3.652885938E0,-3.022910282E-2,-1.357866172E-2,-1.642354764E-2
3.656857813E0,-2.874557301E-2,-2.012364566E-2,-1.659808122E-2
3.660828125E0,-2.701769583E-2,-2.605776489E-2,-1.603957638E-2
3.664798438E0,-2.656391077E-2,-3.227113932E-2,-1.528908405E-2
3.668768750E0,-2.628465928E-2,-3.824016452E-2,-1.328195538E-2
3.672739063E0,-2.712241560E-2,-4.342379048E-2,-1.230457146E-2
3.676709375E0,-2.673844434E-2,-4.717624933E-2,-1.069886796E-2
3.680679688E0,-2.604031190E-2,-5.101597309E-2,-7.278022822E-3
3.684651563E0,-2.405063622E-2,-5.412266031E-2,-5.026548170E-3
3.688620313E0,-2.202605456E-2,-5.569345504E-2,-1.727875904E-3
3.692592188E0,-2.150245570E-2,-5.986479297E-2,1.221730490E-3
3.696562500E0,-1.954768784E-2,-6.124360487E-2,2.303834539E-3
3.700532813E0,-1.694714651E-2,-6.281439960E-2,2.426007763E-3
3.704503125E0,-1.490511186E-2,-6.366961449E-2,2.164208330E-3
3.708473438E0,-1.481784508E-2,-6.373942643E-2,3.298672382E-3
3.712443750E0,-1.418952644E-2,-6.527531147E-2,3.595378250E-3
3.716415625E0,-1.584758982E-2,-6.538003683E-2,4.572762642E-3
3.720384375E0,-1.808161102E-2,-6.239552051E-2,3.473205259E-3
3.724356250E0,-1.731366664E-2,-5.799729005E-2,3.036872949E-3
3.728326563E0,-1.621410809E-2,-5.654866621E-2,1.117010717E-3
3.732296875E0,-1.425934024E-2,-5.661848187E-2,1.570796303E-4
3.736267188E0,-1.225221157E-2,-5.649630725E-2,-5.235987483E-4
3.740239063E0,-1.111774705E-2,-5.811946467E-2,-1.605702913E-3
3.744207813E0,-1.113520097E-2,-5.567600206E-2,-9.948377265E-4
3.748178125E0,-1.218239777E-2,-5.414011329E-2,-6.981316983E-5
3.752150000E0,-1.230457146E-2,-5.223770440E-2,2.967059845E-4
3.756120313E0,-1.263618376E-2,-4.902629927E-2,-1.745329209E-4
3.760090625E0,-1.258382387E-2,-4.516912252E-2,2.617993741E-4
3.764060938E0,-1.151917316E-2,-4.131194204E-2,8.726646047E-5
3.768031250E0,-1.076868176E-2,-3.759439290E-2,-6.806784077E-4
3.772003125E0,-9.686577134E-3,-3.302162886E-2,-5.934119690E-4
3.775973438E0,-7.138396613E-3,-2.881538495E-2,-1.623156248E-3
3.779943750E0,-6.771877408E-3,-2.605776489E-2,-2.199114766E-3
3.783914063E0,-6.387905218E-3,-2.323033288E-2,-2.042035107E-3
3.787884375E0,-5.375613924E-3,-2.113593742E-2,-3.054326167E-3
3.791854688E0,-7.365289610E-3,-1.923352852E-2,-3.316125600E-3
3.795826563E0,-7.749261800E-3,-1.783726551E-2,-3.385938704E-3
3.799795313E0,-1.038470864E-2,-1.883210242E-2,-3.700098023E-3
3.803767188E0,-1.274090353E-2,-1.893682219E-2,-3.944444004E-3
3.807737500E0,-1.532399096E-2,-1.942551509E-2,-3.089232836E-3
3.811707813E0,-1.823868975E-2,-2.043780498E-2,-3.630284918E-3
3.815678125E0,-2.082177810E-2,-2.101376466E-2,-3.473205259E-3
3.819648438E0,-2.162462845E-2,-2.087413706E-2,-3.735004691E-3
3.823618750E0,-2.305579931E-2,-1.916371472E-2,-3.944444004E-3
3.827589063E0,-2.342231758E-2,-1.857030392E-2,-3.246312495E-3
3.831560938E0,-2.487094142E-2,-1.768018492E-2,-4.572762642E-3
3.835531250E0,-2.569124661E-2,-1.398008689E-2,-4.625122529E-3
3.839500000E0,-2.757620253E-2,-1.120501384E-2,-5.393067375E-3
3.843471875E0,-2.761110850E-2,-7.312929723E-3,-4.974188283E-3
3.847445313E0,-2.686061710E-2,-1.186823938E-3,-6.073745899E-3
3.851412500E0,-2.682571113E-2,3.246312495E-3,-6.213372108E-3
3.855384375E0,-2.455678210E-2,8.779006079E-3,-4.747295752E-3
3.859354688E0,-2.291617356E-2,1.143190637E-2,-6.021386012E-3
3.863325000E0,-1.916371472E-2,1.408480667E-2,-6.510077976E-3
3.867323438E0,-1.668534800E-2,1.551597659E-2,-5.567600485E-3
3.871265625E0,-1.513200440E-2,1.483529899E-2,-5.183627829E-3
3.875235938E0,-1.082104165E-2,1.120501384E-2,-5.689773243E-3
3.879206250E0,-8.936085738E-3,6.946410518E-3,-5.201081280E-3
3.883176563E0,-6.789330859E-3,1.762782573E-3,-5.846852902E-3
3.887146875E0,-5.480333697E-3,-2.565633971E-3,-3.298672382E-3
3.891118750E0,-6.492624991E-3,-8.377579972E-3,-1.867502346E-3
3.895089063E0,-7.504915819E-3,-1.832595654E-2,0.000000000E0
3.899057813E0,-1.019272301E-2,-2.904227935E-2,1.832595677E-3
3.903029688E0,-1.418952644E-2,-4.447098821E-2,3.665191354E-3
3.907000000E0,-1.975712739E-2,-5.799729005E-2,9.389871731E-3
3.910970313E0,-3.008947708E-2,-6.979571283E-2,1.752310619E-2
3.914942188E0,-3.925245628E-2,-8.025024086E-2,2.506292798E-2
3.918912500E0,-4.857251421E-2,-9.470156580E-2,3.546509147E-2
3.922881250E0,-5.597271025E-2,-1.085769311E-1,4.630358517E-2
3.926853125E0,-5.791002512E-2,-1.123468429E-1,5.169665068E-2
3.930823438E0,-5.539675057E-2,-1.070061326E-1,4.768239334E-2
3.934793750E0,-4.480260238E-2,-9.702285379E-2,4.166100919E-2
3.938765625E0,-2.909463830E-2,-8.299040794E-2,3.391174600E-2
3.942734375E0,-1.415462047E-2,-6.607816368E-2,2.977531776E-2
3.946706250E0,-2.426007763E-3,-4.825835302E-2,2.825688012E-2
3.950676563E0,4.537856148E-4,-3.398156166E-2,2.605776489E-2
3.954646875E0,-1.466076588E-3,-2.408554405E-2,1.900663599E-2
3.958620313E0,-5.899212789E-3,-1.488765888E-2,1.371828746E-2
3.962587500E0,-8.866272867E-3,-8.272860199E-3,9.913469665E-3
3.966557813E0,-1.190314535E-2,-2.792526735E-3,5.323254038E-3
3.970528125E0,-1.073377486E-2,1.186823938E-3,2.617993858E-3
3.974500000E0,-9.983283468E-3,2.076941775E-3,-1.692969352E-3
3.978470313E0,-9.913469665E-3,2.146754880E-3,-4.014257342E-3
3.982440625E0,-1.082104165E-2,1.274090377E-3,-5.829399452E-3
3.986410938E0,-1.284562331E-2,4.363323096E-4,-6.003932562E-3
3.990381250E0,-1.609193534E-2,-3.665191471E-4,-6.946410518E-3
3.994351563E0,-1.935570128E-2,-8.726646192E-4,-7.190756500E-3
3.998321875E0,-2.155481651E-2,-3.124139272E-3,-5.602506921E-3
4.002292188E0,-2.408554405E-2,-4.153883550E-3,-7.138396613E-3
4.006262500E0,-2.804744057E-2,-6.841690745E-3,-3.787364578E-3
4.010234375E0,-3.300417587E-2,-1.113520097E-2,-1.710422686E-3
4.014204688E0,-3.895574808E-2,-1.513200440E-2,-2.617993741E-4
4.018175000E0,-4.323180392E-2,-1.768018492E-2,-3.490658492E-5
4.022145313E0,-4.614650458E-2,-1.909390278E-2,4.537856148E-4
4.026115625E0,-4.735078290E-2,-1.900663599E-2,2.408554312E-3
4.030087500E0,-4.707153141E-2,-2.094395086E-2,3.508111695E-3
4.034057813E0,-4.548327997E-2,-2.249729447E-2,4.258603323E-3
4.038028125E0,-4.283038154E-2,-2.291617356E-2,5.201081280E-3
4.041998438E0,-3.881612420E-2,-2.286381274E-2,5.585053470E-3
4.045968750E0,-3.536036983E-2,-2.359685116E-2,5.550147034E-3
4.049939063E0,-3.145083413E-2,-2.305579931E-2,5.829399452E-3
4.053910938E0,-2.846631967E-2,-2.155481651E-2,6.056292448E-3
4.057881250E0,-2.528982051E-2,-2.115339041E-2,4.171337001E-3
4.061850000E0,-2.113593742E-2,-2.075196430E-2,3.211405827E-3
4.065821875E0,-1.809906401E-2,-2.094395086E-2,2.373647876E-3
4.069792188E0,-1.551597659E-2,-2.190388180E-2,1.239183708E-3
4.073762500E0,-1.452113967E-2,-2.410299703E-2,1.256637042E-3
4.077732813E0,-1.352630183E-2,-2.799508162E-2,-6.806784077E-4
4.081703125E0,-1.295034308E-2,-2.960078418E-2,-1.204277156E-3
4.085673438E0,-1.296779606E-2,-3.153809905E-2,-5.759586347E-4
4.089645313E0,-1.130973361E-2,-3.173008561E-2,-8.726646192E-4
4.093615625E0,-9.372417815E-3,-3.614576906E-2,2.042035107E-3
4.097584375E0,-9.913469665E-3,-4.392993823E-2,4.171337001E-3
4.101556250E0,-1.246165112E-2,-5.002113804E-2,5.480333697E-3
4.105526563E0,-1.598721556E-2,-5.476843193E-2,7.766715251E-3
4.109496875E0,-1.827359758E-2,-5.752605200E-2,9.267698042E-3
4.113468750E0,-2.157226950E-2,-6.169738993E-2,1.026253588E-2
4.117439063E0,-2.483603545E-2,-6.579891592E-2,1.384046115E-2
4.121409375E0,-2.750638872E-2,-6.806784123E-2,1.567305624E-2
4.125379688E0,-2.939134464E-2,-6.745697558E-2,1.600466855E-2
4.129350000E0,-3.244566917E-2,-6.564183533E-2,1.368338149E-2
4.133320313E0,-3.145083413E-2,-6.005677953E-2,1.171115879E-2
4.137290625E0,-2.846631967E-2,-5.195845291E-2,9.704031050E-3
4.141260938E0,-2.724459022E-2,-4.518657550E-2,6.318091881E-3
4.145231250E0,-2.466150187E-2,-3.694862127E-2,4.834562074E-3
4.149201563E0,-2.354449220E-2,-3.239331022E-2,4.293509759E-3
4.153171875E0,-2.249729447E-2,-2.818706818E-2,1.291543595E-3
4.157143750E0,-2.131047100E-2,-2.528982051E-2,-1.274090377E-3
4.161114063E0,-2.101376466E-2,-2.242748067E-2,-3.455751808E-3
4.165084375E0,-2.001892589E-2,-2.138028294E-2,-5.829399452E-3
4.169054688E0,-1.932079531E-2,-2.066469751E-2,-6.911503617E-3
4.173026563E0,-1.973967440E-2,-1.972221956E-2,-7.487462368E-3
4.176995313E0,-1.954768784E-2,-1.631882787E-2,-8.831365965E-3
4.180967188E0,-1.949532703E-2,-1.090830751E-2,-1.174606569E-2
4.184937500E0,-1.813396998E-2,-2.722713631E-3,-1.521927118E-2
4.188907813E0,-1.685987972E-2,2.251474652E-3,-1.507964451E-2
4.192878125E0,-1.668534800E-2,4.153883550E-3,-1.308996975E-2
4.196850000E0,-1.754055917E-2,6.754423957E-3,-1.120501384E-2
4.200818750E0,-1.987930015E-2,1.029744279E-2,-8.604473434E-3
4.204790625E0,-2.544690110E-2,1.272345055E-2,-5.375613924E-3
4.208760938E0,-3.111921996E-2,1.246165112E-2,-2.862340072E-3
4.212731250E0,-3.455751762E-2,1.253146399E-2,-5.585053586E-4
4.216701563E0,-3.801327199E-2,1.270599663E-2,1.675516134E-3
4.220671875E0,-4.132939503E-2,1.335176919E-2,4.223696887E-3
4.224642188E0,-4.488986731E-2,1.953023486E-2,6.544984877E-3
4.228614063E0,-4.958480224E-2,3.047344834E-2,6.405358203E-3
4.232584375E0,-6.073745713E-2,7.604399323E-2,4.886921961E-4
4.236553125E0,-7.480481267E-2,1.178097278E-1,1.204277156E-3
4.240525000E0,-7.937757671E-2,1.254018992E-1,6.056292448E-3
4.244493750E0,-7.154104859E-2,1.034282148E-1,9.442231618E-3
4.248465625E0,-5.850343779E-2,6.967354566E-2,8.203047328E-3
4.252435938E0,-4.335397854E-2,4.295255244E-2,7.574729156E-3
4.256406250E0,-3.382448107E-2,3.160791099E-2,5.619960371E-3
4.260376563E0,-3.103195317E-2,3.663446009E-2,4.188789986E-3
4.264348438E0,-3.256784379E-2,4.698426276E-2,2.321287990E-3
4.268318750E0,-3.583160788E-2,5.300565064E-2,1.378810150E-3
4.272289063E0,-3.668681905E-2,5.187118426E-2,1.134464052E-3
4.276259375E0,-3.330088034E-2,4.930555075E-2,-7.155850180E-4
4.280229688E0,-2.954842336E-2,4.893903062E-2,-2.565633971E-3
4.284200000E0,-2.481858246E-2,4.989896342E-2,-5.305801053E-3
4.288171875E0,-2.071705833E-2,5.195845291E-2,-7.068583276E-3
4.292142188E0,-1.663298719E-2,5.324999616E-2,-7.976154797E-3
4.296112500E0,-1.302015595E-2,5.448918045E-2,-9.128072299E-3
4.300082813E0,-1.057669520E-2,5.375614017E-2,-1.031489577E-2
4.304053125E0,-8.569566533E-3,5.490805954E-2,-1.274090353E-2
4.308023438E0,-6.859143730E-3,5.522221699E-2,-1.457349956E-2
4.311995313E0,-5.201081280E-3,5.590289459E-2,-1.685987972E-2
4.315964063E0,-4.171337001E-3,5.562364310E-2,-1.715658605E-2
4.319935938E0,-3.892084118E-3,5.450663343E-2,-1.783726551E-2
4.323906250E0,-3.822271014E-3,5.300565064E-2,-1.905899495E-2
4.327876563E0,-3.508111695E-3,5.187118426E-2,-2.043780498E-2
4.331846875E0,-4.782202188E-3,5.064945295E-2,-1.944296807E-2
4.335817188E0,-6.754423957E-3,4.808381945E-2,-1.872738265E-2
4.339787500E0,-7.731808349E-3,4.471533373E-2,-1.598721556E-2
4.343757813E0,-9.494591504E-3,3.916518763E-2,-1.406735368E-2
4.347729688E0,-1.099557430E-2,3.455751762E-2,-1.146681327E-2
4.351698438E0,-1.275835652E-2,2.988003753E-2,-8.970992640E-3
4.355670313E0,-1.562069636E-2,2.490584925E-2,-5.305801053E-3
4.359640625E0,-1.832595654E-2,1.834340952E-2,-8.901178953E-4
4.363610938E0,-2.008873969E-2,1.197295822E-2,3.246312495E-3
4.367582813E0,-2.204350755E-2,5.340707488E-3,6.440265104E-3
4.371553125E0,-2.450442314E-2,-8.901178953E-4,1.073377486E-2
4.375521875E0,-2.726204321E-2,-5.986479111E-3,1.425934024E-2
4.379493750E0,-3.083996847E-2,-8.063420653E-3,1.684242673E-2
4.383464063E0,-3.026400879E-2,-1.176351868E-2,2.052507177E-2
4.387434375E0,-3.192207217E-2,-1.649336144E-2,2.357939817E-2
4.391404688E0,-3.447025269E-2,-1.954768784E-2,2.394591644E-2
4.395375000E0,-3.558726236E-2,-1.808161102E-2,2.312561311E-2
4.399345313E0,-3.602359444E-2,-1.631882787E-2,2.200860158E-2
4.403317188E0,-3.612831607E-2,-1.738347858E-2,2.246238664E-2
4.407287500E0,-3.645992652E-2,-1.661553420E-2,1.942551509E-2
4.411257813E0,-3.565707803E-2,-1.415462047E-2,1.593485661E-2
4.415228125E0,-3.363249451E-2,-9.442231618E-3,1.321214251E-2
4.419198438E0,-2.979277074E-2,-5.951572675E-3,1.068141498E-2
4.423168750E0,-2.698278986E-2,-8.726646047E-5,8.237954229E-3
4.427140625E0,-2.324778587E-2,3.700098023E-3,5.777040031E-3
4.431109375E0,-1.954768784E-2,8.744099177E-3,3.490658477E-3
4.435081250E0,-1.754055917E-2,1.186823845E-2,1.535889693E-3
4.439051563E0,-1.565560326E-2,1.584758982E-2,-9.075712296E-4
4.443021875E0,-1.502728462E-2,1.869247667E-2,-2.303834539E-3
4.446992188E0,-1.424188633E-2,2.019345947E-2,-2.984513063E-3
4.450962500E0,-1.480039209E-2,2.117084339E-2,-2.705260413E-3
4.454932813E0,-1.630137488E-2,2.172934823E-2,-2.775073517E-3
4.458903125E0,-1.745329238E-2,2.007128671E-2,-2.949606394E-3
4.462875000E0,-1.925098151E-2,2.008873969E-2,-4.345869645E-3
4.466845313E0,-2.033308521E-2,1.949532703E-2,-5.009094719E-3
4.470815625E0,-2.045525797E-2,1.829105057E-2,-4.433136433E-3
4.474785938E0,-2.199114859E-2,1.556833647E-2,-4.276056774E-3
4.478756250E0,-2.268928103E-2,1.665044017E-2,-4.398229532E-3
4.482726563E0,-2.272418700E-2,1.619665511E-2,-3.368485486E-3
4.486698438E0,-2.242748067E-2,1.546361670E-2,-3.106686054E-3
4.490668750E0,-2.310816012E-2,1.572541706E-2,-2.426007763E-3
4.494637500E0,-2.373647690E-2,1.504473854E-2,-5.934119690E-4
4.498609375E0,-2.630211227E-2,1.336922217E-2,-8.726646192E-4
4.502579688E0,-2.563888580E-2,1.261873078E-2,-9.424777818E-4
4.506550000E0,-2.619739249E-2,1.483529899E-2,-1.553343027E-3
4.510520313E0,-2.483603545E-2,2.022836544E-2,-1.884955564E-3
4.514490625E0,-2.523746155E-2,2.419026382E-2,-1.954768784E-3
4.518460938E0,-2.188642882E-2,3.035127558E-2,-1.221730490E-3
4.522431250E0,-2.055997774E-2,3.481931984E-2,-4.049163777E-3
4.526403125E0,-1.870992966E-2,3.944443911E-2,-4.485496320E-3
4.530373438E0,-1.642354764E-2,4.396484420E-2,-6.841690745E-3
4.534343750E0,-1.551597659E-2,4.965461791E-2,-1.017526910E-2
4.538314063E0,-1.302015595E-2,5.324999616E-2,-1.300270297E-2
4.542284375E0,-8.307767101E-3,5.599016324E-2,-1.539380383E-2
4.546254688E0,-5.270894151E-3,5.745624006E-2,-1.602212340E-2
4.550225000E0,-3.281218931E-3,5.738642439E-2,-1.769763790E-2
4.554203125E0,3.839724232E-4,5.375614017E-2,-1.706931926E-2
4.558167188E0,3.298672382E-3,4.890412465E-2,-1.750565320E-2
4.562137500E0,5.567600485E-3,4.206243530E-2,-1.747074537E-2
4.566107813E0,6.911503617E-3,3.471459821E-2,-1.672025397E-2
4.570078125E0,8.761553094E-3,2.768092230E-2,-1.680752076E-2
4.574048438E0,7.888888009E-3,2.117084339E-2,-1.563815027E-2
4.578020313E0,7.365289610E-3,1.541125681E-2,-1.382300723E-2
4.581990625E0,5.427973811E-3,1.193805225E-2,-9.738937020E-3
4.585960938E0,8.552113432E-4,1.164134592E-2,-7.312929723E-3
4.589931250E0,-3.490658492E-5,7.225662936E-3,-7.138396613E-3
4.593901563E0,-4.014257283E-4,1.832595677E-3,-1.972222002E-3
4.597871875E0,-1.710422686E-3,1.221730490E-4,3.263765713E-3
4.601842188E0,-4.450589418E-3,-3.141592722E-3,8.395033889E-3
4.605814063E0,-9.093165398E-3,-8.831365965E-3,1.364847459E-2
4.609784375E0,-1.195550524E-2,-1.438151300E-2,1.593485661E-2
4.613754688E0,-1.436406001E-2,-1.869247667E-2,1.832595654E-2
4.617725000E0,-1.453859266E-2,-2.176425606E-2,2.061233856E-2
4.621695313E0,-1.532399096E-2,-2.165953629E-2,2.029817924E-2
4.625665625E0,-1.583013684E-2,-1.998401992E-2,1.977458037E-2
4.629635938E0,-1.626646891E-2,-1.893682219E-2,1.963495463E-2
4.633607813E0,-1.743583940E-2,-1.670280099E-2,1.914626174E-2
4.637578125E0,-1.654572040E-2,-1.357866172E-2,1.991420612E-2
4.641548438E0,-1.464331243E-2,-9.581857361E-3,1.951278187E-2
4.645518750E0,-1.385791413E-2,-5.846852902E-3,1.940806210E-2
4.649489063E0,-1.274090353E-2,-2.303834539E-3,1.862266287E-2
4.653459375E0,-1.185078546E-2,2.617993741E-4,1.617920212E-2
4.657429688E0,-9.808750823E-3,2.426007763E-3,1.432915311E-2
4.661400000E0,-7.766715251E-3,5.253441166E-3,1.204277202E-2
4.665371875E0,-7.243116386E-3,9.756390937E-3,9.180432186E-3
4.669342188E0,-6.510077976E-3,1.740093343E-2,7.243116386E-3
4.673312500E0,-5.707226694E-3,2.330014482E-2,3.857177682E-3
4.677282813E0,-3.246312495E-3,3.132865950E-2,7.330382941E-4
4.681253125E0,-8.028514567E-4,3.792600334E-2,-2.338741207E-3
4.685223438E0,1.326450263E-3,4.265584797E-2,-4.328416660E-3
4.689193750E0,4.747295752E-3,4.586725309E-2,-5.462880712E-3
4.693165625E0,5.794493016E-3,4.518657550E-2,-7.853982039E-3
4.697135938E0,4.555309191E-3,4.485496134E-2,-7.888888009E-3
4.701104688E0,3.944444004E-3,4.176572710E-2,-9.250245057E-3
4.705076563E0,3.141592606E-4,3.778637946E-2,-8.848818950E-3
4.709046875E0,-2.268928103E-3,3.193952516E-2,-7.836528122E-3
4.713017188E0,-4.153883550E-3,2.680825815E-2,-7.731808349E-3
4.716989063E0,-5.707226694E-3,2.349213138E-2,-7.400196046E-3
4.720957813E0,-7.452555932E-3,2.097885683E-2,-8.360126987E-3
4.724928125E0,-7.609635592E-3,2.108357660E-2,-8.779006079E-3
4.728900000E0,-8.866272867E-3,2.366666496E-2,-9.477137588E-3
4.732870313E0,-5.567600485E-3,2.598795295E-2,-1.087340154E-2
4.736840625E0,-4.415682983E-3,2.902482450E-2,-1.197295822E-2
4.740815625E0,-4.869468510E-3,3.056071512E-2,-1.151917316E-2
4.744781250E0,-5.881759338E-3,3.094468825E-2,-1.169370580E-2
4.748751563E0,-9.005898610E-3,3.181735054E-2,-1.174606569E-2
4.752723438E0,-1.057669520E-2,3.127630055E-2,-1.296779606E-2
4.756693750E0,-1.340412907E-2,3.038618155E-2,-1.253146399E-2
4.760662500E0,-1.548107062E-2,2.670353837E-2,-1.256637089E-2
4.764634375E0,-1.663298719E-2,2.331759781E-2,-1.015781611E-2
4.768604688E0,-1.738347858E-2,2.003637888E-2,-9.232792072E-3
4.772576563E0,-1.652826741E-2,1.902408898E-2,-7.801621687E-3
4.776546875E0,-1.691224054E-2,1.726130582E-2,-6.963863503E-3
4.780515625E0,-1.759291813E-2,1.394518092E-2,-5.550147034E-3
4.784487500E0,-1.719149388E-2,1.082104165E-2,-3.961897455E-3
4.788457813E0,-1.677261479E-2,7.888888009E-3,-2.356194425E-3
4.792428125E0,-1.696459949E-2,6.824237294E-3,-1.029744279E-3
4.796398438E0,-1.626646891E-2,5.654866807E-3,2.094395168E-4
4.800368750E0,-1.427679323E-2,4.136430100E-3,1.431170036E-3
4.804339063E0,-1.300270297E-2,5.934119690E-4,2.356194425E-3
4.808310938E0,-1.146681327E-2,-5.445427261E-3,2.897246508E-3
4.812281250E0,-9.110618383E-3,-1.274090353E-2,1.989675453E-3
4.816251563E0,-8.639379404E-3,-2.050761878E-2,5.410520826E-4
4.820221875E0,-7.173303049E-3,-2.254965343E-2,2.268928103E-3
4.824192188E0,-6.038838997E-3,-2.050761878E-2,1.815142459E-3
4.828162500E0,-5.288347602E-3,-1.998401992E-2,3.054326167E-3
4.832134375E0,-2.076941775E-3,-2.043780498E-2,3.979350906E-3
4.836104688E0,2.042035107E-3,-1.951278187E-2,4.520402756E-3
4.840073438E0,3.438298590E-3,-1.867502369E-2,5.270894151E-3
4.844045313E0,2.583087189E-3,-1.679006778E-2,8.168140426E-3
4.848015625E0,2.373647876E-3,-1.614429615E-2,9.826203808E-3
4.851985938E0,1.413716702E-3,-1.764527895E-2,9.354964830E-3
4.855956250E0,1.762782573E-3,-1.862266287E-2,9.686577134E-3
4.859954688E0,1.396263367E-3,-2.008873969E-2,9.320057929E-3
4.863896875E0,-1.082104165E-3,-2.138028294E-2,9.075712413E-3
4.867868750E0,-4.747295752E-3,-2.441715635E-2,6.894050632E-3
4.871839063E0,-7.051130291E-3,-2.612757869E-2,6.038838997E-3
4.875809375E0,-7.365289610E-3,-2.926917188E-2,5.951572675E-3
4.879779688E0,-6.527531426E-3,-3.145083413E-2,5.497787148E-3
4.883750000E0,-4.520402756E-3,-3.127630055E-2,5.218534265E-3
4.887720313E0,-8.203047328E-4,-3.077015467E-2,3.787364578E-3
4.891692188E0,1.780235791E-3,-2.867575921E-2,2.356194425E-3
4.895662500E0,2.164208330E-3,-2.722713538E-2,2.740166849E-3
4.899631250E0,5.934119690E-4,-2.804744057E-2,1.047197497E-3
4.903603125E0,1.919862116E-4,-2.782054804E-2,-1.937315450E-3
4.907573438E0,1.448623254E-3,-2.745402977E-2,-2.286381321E-3
4.911543750E0,1.623156248E-3,-2.750638872E-2,-4.014257342E-3
4.915515625E0,2.268928103E-3,-2.616248466E-2,-4.328416660E-3
4.919484375E0,2.129301662E-3,-2.506292798E-2,-5.916666240E-3
4.923454688E0,3.001966281E-3,-2.553416602E-2,-7.086036727E-3
4.927426563E0,2.775073517E-3,-2.445206232E-2,-7.836528122E-3
4.931396875E0,3.019419499E-3,-2.597049996E-2,-8.779006079E-3
4.935367188E0,4.293509759E-3,-2.816961333E-2,-7.819075137E-3
4.939342188E0,4.014257342E-3,-2.981022373E-2,-8.168140426E-3
4.943307813E0,3.351032268E-3,-2.888519876E-2,-9.320057929E-3
4.947279688E0,3.473205259E-3,-2.878047898E-2,-9.023352526E-3
4.951250000E0,3.351032268E-3,-2.846631967E-2,-9.232792072E-3
4.955220313E0,3.630284918E-3,-2.806489356E-2,-9.442231618E-3
4.959190625E0,4.136430100E-3,-2.736676298E-2,-8.761553094E-3
4.963160938E0,5.026548170E-3,-2.598795295E-2,-7.958701812E-3
4.967131250E0,4.660028964E-3,-2.548180707E-2,-7.312929723E-3
4.971101563E0,4.258603323E-3,-2.398082428E-2,-4.729842301E-3
4.975071875E0,1.605702913E-3,-2.434734255E-2,-2.862340072E-3
4.979042188E0,-1.326450263E-3,-2.474876866E-2,-1.308996929E-3
4.983014063E0,-5.113814492E-3,-2.394591644E-2,1.029744279E-3
4.986984375E0,-8.813912980E-3,-2.478367463E-2,2.251474652E-3
4.990954688E0,-1.127482671E-2,-2.605776489E-2,4.817108624E-3
4.994925000E0,-1.326450240E-2,-2.549926005E-2,6.405358203E-3
4.998895313E0,-1.726130582E-2,-2.700024284E-2,7.417649496E-3
5.002865625E0,-2.071705833E-2,-2.544690110E-2,7.365289610E-3
5.006835938E0,-2.310816012E-2,-2.382374369E-2,8.569566533E-3
5.010807813E0,-2.478367463E-2,-2.204350755E-2,9.634217247E-3
5.014778125E0,-2.598795295E-2,-1.933824830E-2,1.232202444E-2
5.018748438E0,-2.659881860E-2,-1.546361670E-2,1.165879890E-2
5.022718750E0,-2.584832534E-2,-8.272860199E-3,8.936085738E-3
5.026689063E0,-2.399827726E-2,-8.726646047E-5,5.811946467E-3
5.030659375E0,-2.155481651E-2,7.906341925E-3,1.989675453E-3
5.034631250E0,-1.972221956E-2,1.602212340E-2,2.443460980E-4
5.038600000E0,-1.668534800E-2,2.370157093E-2,-2.303834539E-3
5.042571875E0,-1.574287005E-2,2.797762863E-2,-2.530727303E-3
5.046542188E0,-1.398008689E-2,2.802998759E-2,8.552113432E-4
5.050512500E0,-1.218239777E-2,2.832669392E-2,4.468042869E-3
5.054482813E0,-1.230457146E-2,2.961823717E-2,6.003932562E-3
5.058453125E0,-1.188569237E-2,3.010693006E-2,7.452555932E-3
5.062423438E0,-7.260569837E-3,3.295181692E-2,4.084070213E-3
5.066395313E0,-7.853981806E-4,3.429571912E-2,4.991641734E-3
5.070365625E0,1.343903481E-3,3.117158078E-2,5.986479111E-3
5.074335938E0,-1.256637042E-3,2.871066518E-2,5.654866807E-3
5.078306250E0,-3.281218931E-3,2.851868048E-2,6.003932562E-3
5.082276563E0,-5.777040031E-3,2.755874954E-2,5.201081280E-3
5.086246875E0,-6.265731994E-3,2.431243658E-2,3.944444004E-3
5.090217188E0,-3.839724232E-3,1.773254573E-2,1.797689125E-3
5.094189063E0,-1.396263367E-3,1.480039209E-2,-8.726646047E-5
5.098159375E0,-2.722713631E-3,1.691224054E-2,-2.967059845E-4
5.102129688E0,-5.619960371E-3,2.452187613E-2,8.377580671E-4
5.106100000E0,-1.045452245E-2,2.984512970E-2,1.762782573E-3
5.110070313E0,-1.141445339E-2,2.897246554E-2,-1.308996929E-3
5.114040625E0,-9.250245057E-3,3.038618155E-2,-1.518436475E-3
5.118010938E0,-6.736970972E-3,3.302162886E-2,-8.203047328E-4
5.121982813E0,-2.757620299E-3,3.235840425E-2,-1.221730490E-3
5.125953125E0,2.321287990E-3,2.977531776E-2,-3.752457909E-3
5.129923438E0,5.619960371E-3,2.802998759E-2,-5.009094719E-3
5.133893750E0,7.068583276E-3,2.818706818E-2,-6.841690745E-3
5.137865625E0,6.998770405E-3,2.401573025E-2,-9.128072299E-3
5.141834375E0,7.278022822E-3,1.946042106E-2,-9.564404376E-3
5.145804688E0,7.051130291E-3,1.466076542E-2,-1.134464052E-2
5.149775000E0,7.749261800E-3,1.265363675E-2,-1.150172018E-2
5.153746875E0,9.738937020E-3,9.878563695E-3,-1.260127686E-2
5.157717188E0,9.197885171E-3,5.096361507E-3,-1.242674422E-2
5.161687500E0,7.103490178E-3,2.338741207E-3,-1.209513191E-2
5.165657813E0,4.904375412E-3,1.308996929E-3,-1.033234876E-2
5.169628125E0,3.420845373E-3,-8.901178953E-4,-9.581857361E-3
5.173600000E0,1.989675453E-3,-4.468042869E-3,-7.888888009E-3
5.177568750E0,1.466076588E-3,-7.365289610E-3,-5.777040031E-3
5.181540625E0,8.726646192E-4,-1.038470864E-2,-3.874630900E-3
5.185510938E0,8.726646192E-4,-1.462585945E-2,-2.181661548E-3
5.189479688E0,1.308996929E-3,-1.588249579E-2,5.235987919E-5
5.193451563E0,6.806784077E-4,-1.771509275E-2,2.303834539E-3
5.197421875E0,-2.181661548E-3,-2.345722541E-2,3.926991019E-3
5.201392188E0,-2.914699726E-3,-2.813470736E-2,6.475171540E-3
5.205364063E0,-4.782202188E-3,-2.949606441E-2,7.435102481E-3
5.209334375E0,-7.365289610E-3,-3.150319308E-2,8.883725852E-3
5.213303125E0,-8.639379404E-3,-3.188716620E-2,1.183333248E-2
5.217275000E0,-9.285151958E-3,-3.167772666E-2,1.169370580E-2
5.221245313E0,-9.285151958E-3,-3.042108938E-2,1.150172018E-2
5.225215625E0,-8.098327555E-3,-2.708750963E-2,1.249655709E-2
5.229187500E0,-7.173303049E-3,-2.303834632E-2,1.321214251E-2
5.233157813E0,-7.696901914E-3,-2.094395086E-2,1.340412907E-2
5.237126563E0,-7.382742595E-3,-1.843067631E-2,1.284562331E-2
5.241098438E0,-6.981316954E-3,-1.478293911E-2,1.134464052E-2
5.245068750E0,-5.829399452E-3,-1.141445339E-2,1.186823845E-2
5.249039063E0,-3.874630900E-3,-8.272860199E-3,1.230457146E-2
5.253009375E0,-3.822271014E-3,-9.704031050E-3,1.045452245E-2
5.256979688E0,-2.460914198E-3,-1.008800324E-2,9.529497474E-3
5.260950000E0,-1.186823938E-3,-1.078613475E-2,7.766715251E-3
5.264921875E0,-1.047197584E-4,-1.232202444E-2,6.405358203E-3
5.268890625E0,9.075712296E-4,-1.424188633E-2,6.213372108E-3
5.272862500E0,2.076941775E-3,-1.368338149E-2,5.550147034E-3
5.276832813E0,4.363323096E-4,-1.293289009E-2,5.078908056E-3
5.280803125E0,-1.483529806E-3,-9.581857361E-3,3.752457909E-3
5.284773438E0,-3.316125658E-4,-7.051130291E-3,9.948377265E-4
5.288743750E0,1.151917269E-3,-5.323254038E-3,-1.570796303E-4
5.292714063E0,7.853981806E-4,-2.321287990E-3,-1.815142459E-3
5.296684375E0,1.151917269E-3,2.356194425E-3,-4.799655639E-3
5.300656250E0,-2.443460980E-4,6.300638430E-3,-4.834562074E-3
5.304626563E0,-1.745329246E-5,1.122246683E-2,-7.243116386E-3
5.308596875E0,-2.809980186E-3,1.539380383E-2,-7.871435024E-3
5.312567188E0,-2.338741207E-3,1.795943826E-2,-8.796459064E-3
5.316537500E0,-3.420845373E-3,2.179916203E-2,-1.008800324E-2
5.320509375E0,-4.607669078E-3,2.474876866E-2,-1.057669520E-2
5.324479688E0,-4.153883550E-3,2.823942713E-2,-1.160643995E-2
5.328450000E0,-3.735004691E-3,3.246312216E-2,-1.202531811E-2
5.332420313E0,-2.129301662E-3,3.445279971E-2,-1.122246683E-2
5.336395313E0,-1.570796361E-3,3.920009360E-2,-1.207767799E-2
5.340360938E0,5.235987483E-4,4.118977115E-2,-1.110029407E-2
5.344331250E0,5.742133129E-3,3.267256171E-2,-1.202531811E-2
5.348303125E0,9.669124149E-3,2.352703735E-2,-1.528908405E-2
5.352271875E0,9.791296907E-3,2.143264376E-2,-1.705186628E-2
5.356243750E0,7.103490178E-3,2.104867063E-2,-1.480039209E-2
5.360214063E0,3.857177682E-3,1.539380383E-2,-9.093165398E-3
5.364184375E0,1.186823938E-3,-9.599310579E-4,-2.932153177E-3
5.368154688E0,-3.839724232E-4,-1.940806210E-2,6.108652451E-4
5.372125000E0,-3.054326167E-3,-2.617993951E-2,5.445427261E-3
5.376095313E0,-7.819075137E-3,-2.867575921E-2,1.047197543E-2
5.380067188E0,-9.826203808E-3,-3.399901465E-2,1.343903504E-2
5.384037500E0,-1.033234876E-2,-4.171336815E-2,1.541125681E-2
5.388007813E0,-9.581857361E-3,-4.598942399E-2,1.879719645E-2
5.391978125E0,-8.307767101E-3,-4.574507847E-2,2.103121765E-2
5.395948438E0,-7.539822254E-3,-4.326671362E-2,2.446951531E-2
5.399918750E0,-7.190756500E-3,-4.082325101E-2,2.462659590E-2
5.403889063E0,-4.677482415E-3,-3.806563094E-2,2.391101047E-2
5.407860938E0,-3.874630900E-3,-3.358013555E-2,2.431243658E-2
5.411829688E0,-1.256637042E-3,-2.956587821E-2,2.638937905E-2
5.415801563E0,-1.221730490E-4,-2.324778587E-2,2.495820820E-2
5.419771875E0,-7.330382941E-4,-1.754055917E-2,2.534218132E-2
5.423742188E0,2.967059845E-4,-1.181587856E-2,2.574360557E-2
5.427712500E0,2.617993741E-4,-6.736970972E-3,2.495820820E-2
5.431682813E0,1.605702913E-3,-1.937315450E-3,2.368411794E-2
5.435653125E0,1.361356815E-3,3.490658419E-4,2.380629070E-2
5.439625000E0,-1.535889693E-3,-6.981316983E-5,2.263692021E-2
5.443595313E0,-1.413716702E-3,-1.413716702E-3,2.143264376E-2
5.447565625E0,-4.537856206E-3,-2.652900526E-3,2.125811018E-2
5.451535938E0,-6.544984877E-3,-1.326450263E-3,2.227040194E-2
5.455506250E0,-8.133234456E-3,-4.729842301E-3,2.028072625E-2
5.459476563E0,-8.395033889E-3,-1.059414819E-2,1.780235767E-2
5.463448438E0,-9.669124149E-3,-1.603957638E-2,1.715658605E-2
5.467417188E0,-1.075122785E-2,-1.881464943E-2,1.668534800E-2
5.471389063E0,-1.268854365E-2,-1.757546514E-2,1.778490469E-2
5.475359375E0,-1.424188633E-2,-1.605702937E-2,1.654572040E-2
5.479329688E0,-1.329940930E-2,-1.581268385E-2,1.516691130E-2
5.483300000E0,-1.123992074E-2,-1.528908405E-2,1.270599663E-2
5.487270313E0,-9.354964830E-3,-1.003564335E-2,9.808750823E-3
5.491240625E0,-6.754423957E-3,-4.014257342E-3,9.808750823E-3
5.495210938E0,-4.572762642E-3,4.171337001E-3,6.806783844E-3
5.499182813E0,-4.293509759E-3,1.202531811E-2,3.752457909E-3
5.503153125E0,-4.537856206E-3,1.965240762E-2,5.410520826E-4
5.507123438E0,-5.044001620E-3,2.705260366E-2,-2.670353744E-3
5.511093750E0,-6.684611086E-3,3.305653483E-2,-6.684611086E-3
5.515064063E0,-8.011061698E-3,3.928736225E-2,-9.093165398E-3
5.519035938E0,-9.721484035E-3,4.452335089E-2,-1.120501384E-2
5.523006250E0,-1.015781611E-2,4.979424179E-2,-1.403244678E-2
5.526975000E0,-1.193805225E-2,5.553637818E-2,-1.626646891E-2
5.530946875E0,-1.239183731E-2,6.035348400E-2,-2.045525797E-2
5.534920313E0,-1.446877979E-2,6.522295624E-2,-2.291617356E-2
5.538887500E0,-1.516691130E-2,6.768386811E-2,-2.626720443E-2
5.542859375E0,-1.504473854E-2,6.998769939E-2,-2.879793197E-2
5.546828125E0,-1.305506285E-2,7.178539038E-2,-3.080506064E-2
5.550798438E0,-1.282817032E-2,7.391469181E-2,-3.253293782E-2
5.554770313E0,-1.188569237E-2,7.476990670E-2,-3.478441015E-2
5.558740625E0,-1.148426626E-2,7.394959778E-2,-3.553490341E-2
5.562710938E0,-1.226966456E-2,7.058111578E-2,-3.768165782E-2
5.566681250E0,-1.338667516E-2,6.712536514E-2,-3.808308393E-2
5.570651563E0,-1.427679323E-2,6.155776232E-2,-3.850196302E-2
5.574621875E0,-1.661553420E-2,5.349434167E-2,-3.694862127E-2
5.578593750E0,-1.904154196E-2,4.701916873E-2,-3.413863853E-2
5.582564063E0,-2.146754973E-2,4.352851212E-2,-3.083996847E-2
5.586532813E0,-2.361430414E-2,4.110250250E-2,-2.652900480E-2
5.590504688E0,-2.431243658E-2,3.806563094E-2,-2.434734255E-2
5.594475000E0,-2.179916203E-2,3.457497060E-2,-1.940806210E-2
5.598445313E0,-1.902408898E-2,2.944370359E-2,-1.616174914E-2
5.602415625E0,-1.635373570E-2,2.569124661E-2,-1.200786512E-2
5.606385938E0,-1.174606569E-2,2.080432512E-2,-7.749261800E-3
5.610357813E0,-8.272860199E-3,1.396263391E-2,-6.806783844E-3
5.614328125E0,-5.567600485E-3,5.864306353E-3,-4.153883550E-3
5.618298438E0,-2.460914198E-3,-3.019419499E-3,-2.251474652E-3
5.622268750E0,-2.391101094E-3,-1.331686229E-2,1.919862116E-4
5.626240625E0,-2.076941775E-3,-2.277654596E-2,1.274090377E-3
5.630209375E0,-2.443460980E-3,-3.200933710E-2,2.164208330E-3
5.634179688E0,-4.502949305E-3,-4.194026068E-2,1.640609466E-3
5.638151563E0,-3.089232836E-3,-5.056218803E-2,7.504915702E-4
5.642120313E0,-1.500983140E-3,-5.792747810E-2,1.274090377E-3
5.646092188E0,-4.886921961E-4,-6.375687569E-2,5.061454722E-4
5.650062500E0,2.303834539E-3,-6.709045917E-2,-1.221730490E-4
5.654032813E0,5.148721393E-3,-6.930702180E-2,-1.658062800E-3
5.658003125E0,8.761553094E-3,-7.004006207E-2,-2.652900526E-3
5.661975000E0,1.120501384E-2,-7.127925009E-2,-2.164208330E-3
5.665943750E0,1.364847459E-2,-7.250097394E-2,-1.884955564E-3
5.669915625E0,1.488765888E-2,-7.403686643E-2,-1.815142459E-3
5.673885938E0,1.535889693E-2,-7.623597980E-2,-1.047197497E-3
5.677856250E0,1.534144394E-2,-7.981390506E-2,5.235987919E-5
5.681826563E0,1.441641990E-2,-8.525933325E-2,5.445427261E-3
5.685796875E0,9.983283468E-3,-9.241518378E-2,1.228711754E-2
5.689767188E0,6.248278543E-3,-9.848892689E-2,1.511455141E-2
5.693737500E0,2.111848444E-3,-1.035329327E-1,1.811651699E-2
5.697707813E0,-5.934119690E-4,-1.029046103E-1,1.874483563E-2
5.701679688E0,-3.717551241E-3,-9.927432984E-2,2.010619268E-2
5.705650000E0,-6.335545331E-3,-9.094911069E-2,2.106612362E-2
5.709620313E0,-9.128072299E-3,-7.883652300E-2,2.146754973E-2
5.713590625E0,-1.165879890E-2,-6.288421154E-2,1.916371472E-2
5.717560938E0,-1.518436428E-2,-4.141666368E-2,1.720894687E-2
5.721531250E0,-1.881464943E-2,-1.774999872E-2,1.459095255E-2
5.725501563E0,-1.900663599E-2,2.251474652E-3,1.029744279E-2
5.729473438E0,-1.665044017E-2,1.665044017E-2,6.318091881E-3
5.733443750E0,-1.302015595E-2,2.808234841E-2,-7.155850180E-4
5.737414063E0,-1.057669520E-2,4.159119725E-2,-7.382742595E-3
5.741384375E0,-1.036725566E-2,6.106907129E-2,-8.970992640E-3
5.745354688E0,-1.258382387E-2,7.822565734E-2,-7.714355364E-3
5.749325000E0,-1.031489577E-2,9.304349869E-2,-1.190314535E-2
5.753296875E0,-8.203047328E-3,1.208465993E-1,-1.600466855E-2
5.757267188E0,1.029744279E-3,1.629962921E-1,-3.556980938E-2
5.761237500E0,2.391101047E-2,2.400525808E-1,-8.974482864E-2
5.765207813E0,4.920083284E-2,3.248057663E-1,-1.071981192E-1
5.769178125E0,5.187118426E-2,3.607944548E-1,-4.342379048E-2
5.773148438E0,3.345796093E-2,3.362900317E-1,-2.356194425E-3
5.777120313E0,9.808750823E-3,2.710321844E-1,-2.218313515E-2
5.781089063E0,-7.923794910E-3,1.922305673E-1,-6.297148019E-2
5.785060938E0,-2.024581842E-2,1.487718672E-1,-7.031931728E-2
5.789031250E0,-2.630211227E-2,1.301143020E-1,-4.195771366E-2
5.793001563E0,-3.075270168E-2,9.637708217E-2,-9.686577134E-3
5.796971875E0,-2.528982051E-2,2.138028294E-2,-6.213372108E-3
5.800942188E0,-1.001818944E-2,-7.649777830E-2,-1.542871073E-2
5.804912500E0,2.548180753E-3,-1.294859797E-1,-2.190388180E-2
5.808882813E0,4.328416660E-3,-1.337794811E-1,-2.284635976E-2
5.812853125E0,-2.408554312E-3,-1.225395650E-1,-1.391027402E-2
5.816825000E0,-1.637118869E-2,-9.627236426E-2,-5.235987715E-3
5.820795313E0,-3.433062509E-2,-6.937684119E-2,-2.670353744E-3
5.824765625E0,-4.548327997E-2,-5.438445881E-2,-2.617993858E-3
5.828735938E0,-4.494222626E-2,-3.785619140E-2,-4.118977115E-3
5.832706250E0,-3.621558100E-2,-1.291543618E-2,-2.967059845E-4
5.836678125E0,-2.220058814E-2,2.460914198E-3,3.717551241E-3
5.840646875E0,-8.587019518E-3,5.742133129E-3,4.014257283E-4
5.844618750E0,4.415682983E-3,1.605702913E-3,-1.745329246E-5
5.848589063E0,8.883725852E-3,-1.710422686E-3,1.378810150E-3
5.852587500E0,9.442231618E-3,-4.398229532E-3,2.338741207E-3
5.856529688E0,6.859143730E-3,-1.937315450E-3,2.286381321E-3
5.860500000E0,3.490658477E-3,-2.181661548E-3,4.974188283E-3
5.864470313E0,3.490658492E-5,-3.316125600E-3,7.487462368E-3
5.868442188E0,-1.588249579E-3,-3.595378250E-3,7.243116386E-3
5.872412500E0,-2.181661548E-3,-2.932153177E-3,8.237954229E-3
5.876382813E0,-2.164208330E-3,-1.919862116E-4,7.592182141E-3
5.880353125E0,-3.228859045E-3,8.028514567E-4,6.963863503E-3
5.884323438E0,-2.600540640E-3,2.879793290E-3,5.009094719E-3
5.888293750E0,-2.583087189E-3,2.670353744E-3,4.939281847E-3
5.892264063E0,-2.129301662E-3,2.007128671E-3,4.782202188E-3
5.896234375E0,-1.867502346E-3,6.283185212E-4,4.729842301E-3
5.900204688E0,-1.029744279E-3,-1.972222002E-3,3.665191354E-3
5.904176563E0,6.981316983E-5,-4.450589418E-3,1.884955564E-3
5.908146875E0,1.553343027E-3,-6.003932562E-3,1.413716702E-3
5.912115625E0,1.204277156E-3,-7.627088577E-3,-6.457717973E-4
5.916087500E0,-1.274090377E-3,-9.250245057E-3,-1.780235791E-3
5.920057813E0,-3.595378250E-3,-1.101302728E-2,-2.687806962E-3
5.924028125E0,-7.208209950E-3,-1.178097259E-2,-2.617993858E-3
5.928000000E0,-9.965829551E-3,-1.258382387E-2,-2.914699726E-3
5.931973438E0,-1.127482671E-2,-1.113520097E-2,-3.577925032E-3
5.935940625E0,-1.176351868E-2,-7.906341925E-3,-4.817108624E-3
5.939910938E0,-1.160643995E-2,-3.001966281E-3,-5.881759338E-3
5.943881250E0,-1.171115879E-2,2.338741207E-3,-8.115780540E-3
5.947851563E0,-1.113520097E-2,7.330382708E-3,-8.412486874E-3
5.951821875E0,-1.202531811E-2,1.302015595E-2,-9.686577134E-3
5.955793750E0,-1.047197543E-2,1.764527895E-2,-1.137954649E-2
5.959764063E0,-9.145525284E-3,2.066469751E-2,-1.181587856E-2
5.963734375E0,-8.203047328E-3,2.190388180E-2,-1.298524998E-2
5.967704688E0,-5.253441166E-3,2.312561311E-2,-1.464331243E-2
5.971675000E0,-3.717551241E-3,2.179916203E-2,-1.642354764E-2
5.975645313E0,-2.426007763E-3,1.993165910E-2,-1.689478755E-2
5.979615625E0,-1.029744279E-3,1.720894687E-2,-1.701696031E-2
5.983585938E0,-1.431170036E-3,1.392772701E-2,-1.764527895E-2
5.987557813E0,-1.745329246E-5,1.080358773E-2,-1.795943826E-2
5.991528125E0,1.535889693E-3,8.639379404E-3,-1.713913307E-2
5.995498438E0,2.548180753E-3,6.283185445E-3,-1.708677411E-2
5.999468750E0,4.171337001E-3,3.403391922E-3,-1.720894687E-2
6.003439063E0,5.497787148E-3,1.745329238E-3,-1.694714651E-2
6.007409375E0,4.782202188E-3,-3.490658492E-5,-1.642354764E-2
6.011379688E0,4.904375412E-3,-6.283185212E-4,-1.432915311E-2
6.015351563E0,6.736970972E-3,-8.028514567E-4,-1.394518092E-2
6.019321875E0,5.253441166E-3,-1.291543595E-3,-1.263618376E-2
6.023292188E0,5.026548170E-3,-1.134464052E-3,-1.137954649E-2
6.027262500E0,5.410520826E-3,-4.712388909E-4,-8.656833321E-3
6.031232813E0,5.061454605E-3,-9.075712296E-4,-5.689773243E-3
6.035203125E0,5.881759338E-3,-1.623156248E-3,-3.403391922E-3
6.039173438E0,5.480333697E-3,-3.019419499E-3,-2.059488557E-3
6.043145313E0,5.986479111E-3,-4.729842301E-3,-5.061454722E-4
6.047115625E0,6.562437862E-3,-6.684611086E-3,1.989675453E-3
6.051084375E0,5.969026126E-3,-9.442231618E-3,4.764748737E-3
6.055056250E0,6.405358203E-3,-1.213003788E-2,5.323254038E-3
6.059026563E0,6.230825558E-3,-1.507964451E-2,7.592182141E-3
6.062996875E0,4.223696887E-3,-1.870992966E-2,9.372417815E-3
6.066968750E0,3.403391922E-3,-2.131047100E-2,1.000073645E-2
6.070937500E0,3.333578818E-3,-2.364921197E-2,9.861109778E-3
6.074909375E0,2.705260413E-3,-2.637192421E-2,1.012290921E-2
6.078879688E0,1.954768784E-3,-2.768092230E-2,8.831365965E-3
6.082850000E0,1.448623254E-3,-2.787290886E-2,8.342674002E-3
6.086820313E0,3.124139272E-3,-2.701769583E-2,7.173303049E-3
6.090790625E0,4.921828397E-3,-2.590068616E-2,6.562437862E-3
6.094760938E0,5.986479111E-3,-2.349213138E-2,4.886921961E-3
6.098732813E0,7.627088577E-3,-2.241002768E-2,3.717551241E-3
6.102703125E0,8.656833321E-3,-2.151990868E-2,2.181661548E-3
6.106673438E0,8.307767101E-3,-2.115339041E-2,-1.396263397E-4
6.110643750E0,8.237954229E-3,-2.118829638E-2,-2.111848444E-3
6.114614063E0,9.110618383E-3,-2.106612362E-2,-4.433136433E-3
6.118584375E0,8.883725852E-3,-1.921607554E-2,-6.684611086E-3
6.122556250E0,9.128072299E-3,-1.904154196E-2,-7.278022822E-3
6.126526563E0,9.337511845E-3,-1.839577034E-2,-7.574729156E-3
6.130500000E0,9.093165398E-3,-1.642354764E-2,-9.459684603E-3
6.134467188E0,8.587019518E-3,-1.544616371E-2,-1.026253588E-2
6.138437500E0,9.354964830E-3,-1.474803220E-2,-9.267698042E-3
6.142407813E0,9.250245057E-3,-1.471312530E-2,-1.021017600E-2
6.146378125E0,8.325220086E-3,-1.410226058E-2,-9.704031050E-3
6.150348438E0,7.330382708E-3,-1.514945831E-2,-9.267698042E-3
6.154318750E0,4.660028964E-3,-1.572541706E-2,-8.709193207E-3
6.158290625E0,3.211405827E-3,-1.661553420E-2,-8.412486874E-3
6.162260938E0,5.759586347E-4,-1.851794310E-2,-7.871435024E-3
6.166231250E0,-1.047197584E-4,-1.780235767E-2,-7.295476273E-3
6.170201563E0,-2.234021435E-3,-1.701696031E-2,-7.278022822E-3
6.174171875E0,-3.246312495E-3,-1.680752076E-2,-6.841690745E-3
6.178142188E0,-3.211405827E-3,-1.616174914E-2,-5.515240598E-3
6.182112500E0,-5.288347602E-3,-1.446877979E-2,-5.916666240E-3
6.186084375E0,-6.143558770E-3,-1.223475765E-2,-6.178465672E-3
6.190053125E0,-5.009094719E-3,-1.014036313E-2,-6.702064537E-3
6.194025000E0,-5.026548170E-3,-8.237954229E-3,-6.527531426E-3
6.197995313E0,-6.073745899E-3,-6.544984877E-3,-5.881759338E-3
6.201965625E0,-8.150687441E-3,-4.293509759E-3,-7.068583276E-3
6.205935938E0,-6.894050632E-3,-8.552113432E-4,-6.928957067E-3
6.209906250E0,-6.562437862E-3,6.283185212E-4,-7.033676840E-3
6.213876563E0,-6.928957067E-3,2.827433404E-3,-7.679448463E-3
6.217848438E0,-6.126105785E-3,3.700098023E-3,-7.976154797E-3
6.221818750E0,-5.462880712E-3,4.694935866E-3,-8.813912980E-3
6.225789063E0,-4.974188283E-3,6.894050632E-3,-1.085594762E-2
6.229759375E0,-4.258603323E-3,8.831365965E-3,-1.076868176E-2
6.233729688E0,-3.612831468E-3,1.218239777E-2,-1.150172018E-2
6.237700000E0,-2.391101094E-3,1.382300723E-2,-1.214749180E-2
6.241671875E0,-1.780235791E-3,1.455604564E-2,-1.216494478E-2
6.245642188E0,-1.466076588E-3,1.354375482E-2,-1.216494478E-2
6.249610938E0,-1.745329209E-4,1.462585945E-2,-1.111774705E-2
6.253582813E0,-5.934119690E-4,1.340412907E-2,-1.024508290E-2
6.257553125E0,-1.047197584E-4,1.143190637E-2,-9.407324716E-3
6.261523438E0,-2.792526793E-4,1.197295822E-2,-8.883725852E-3
6.265493750E0,2.059488557E-3,1.059414819E-2,-8.901178837E-3
6.269464063E0,2.984513063E-3,1.024508290E-2,-8.307767101E-3
6.273435938E0,3.979350906E-3,9.546951391E-3,-7.696901914E-3
6.277406250E0,5.131267942E-3,8.621926419E-3,-7.243116386E-3
6.281376563E0,5.445427261E-3,8.970992640E-3,-6.667157635E-3
6.285346875E0,5.218534265E-3,9.075712413E-3,-6.213372108E-3
6.289317188E0,6.056292448E-3,1.015781611E-2,-6.702064537E-3
6.293287500E0,6.283185445E-3,1.089085452E-2,-6.387905218E-3
6.297259375E0,5.881759338E-3,1.317723561E-2,-6.597344764E-3
6.301229688E0,7.138396613E-3,1.513200440E-2,-6.195918657E-3
6.305200000E0,7.627088577E-3,1.654572040E-2,-6.544984877E-3
6.309170313E0,7.749261800E-3,1.722639985E-2,-6.632251199E-3
6.313140625E0,7.470009383E-3,1.708677411E-2,-6.963863503E-3
6.317110938E0,8.761553094E-3,1.675515994E-2,-6.440265104E-3
6.321081250E0,8.342674002E-3,1.652826741E-2,-5.864306353E-3
6.325053125E0,9.285151958E-3,1.616174914E-2,-5.864306353E-3
6.329026563E0,1.027998887E-2,1.530653704E-2,-5.567600485E-3
6.332993750E0,1.174606569E-2,1.432915311E-2,-5.934119225E-3
6.336964063E0,1.319468953E-2,1.272345055E-2,-4.520402756E-3
6.340934375E0,1.371828746E-2,1.110029407E-2,-2.792526735E-3
6.344904688E0,1.506219152E-2,1.068141498E-2,-1.291543595E-3
6.348875000E0,1.509709843E-2,9.965829551E-3,-5.934119690E-4
6.352845313E0,1.602212340E-2,9.930923581E-3,-1.483529806E-3
6.356817188E0,1.520181727E-2,1.036725566E-2,-5.235987919E-5
6.360787500E0,1.349139493E-2,1.048942842E-2,0.000000000E0
6.364757813E0,1.288053021E-2,1.141445339E-2,3.316125658E-4
6.368728125E0,1.242674422E-2,1.151917316E-2,2.617993741E-4
6.372698438E0,1.096066739E-2,1.244419720E-2,-3.490658419E-4
6.376668750E0,1.026253588E-2,1.343903504E-2,-2.094395168E-4
6.380639063E0,9.791296907E-3,1.490511186E-2,-6.108652451E-4
6.384609375E0,9.512044489E-3,1.649336144E-2,-5.759586347E-4
6.388579688E0,8.831365965E-3,1.960004680E-2,-7.155850180E-4
6.392551563E0,8.813912980E-3,1.862266287E-2,-1.570796303E-4
6.396521875E0,7.749261800E-3,1.774999872E-2,-4.537856148E-4
6.400492188E0,7.784168236E-3,1.708677411E-2,1.919862116E-4
6.404462500E0,5.829399452E-3,1.630137488E-2,2.268928074E-4
6.408432813E0,5.166174378E-3,1.670280099E-2,-5.235987919E-5
6.412403125E0,4.101523664E-3,1.755801216E-2,-2.792526793E-4
6.416375000E0,3.054326167E-3,1.837831736E-2,9.948377265E-4
6.420345313E0,2.042035107E-3,1.829105057E-2,1.797689125E-3
6.424315625E0,1.326450263E-3,1.902408898E-2,2.443460980E-3
6.428285938E0,-5.235987919E-5,1.891936921E-2,2.460914198E-3
6.432256250E0,-2.617993741E-4,1.888446324E-2,2.617993858E-3
6.436226563E0,-1.815142459E-3,1.993165910E-2,2.809980186E-3
6.440198438E0,-2.530727303E-3,2.230530791E-2,3.019419499E-3
6.444168750E0,-3.473205259E-3,2.354449220E-2,3.368485486E-3
6.448139063E0,-4.764748737E-3,2.476622164E-2,2.565633971E-3
6.452109375E0,-5.113814492E-3,2.733185515E-2,2.792526735E-3
6.456079688E0,-4.136430100E-3,2.755874954E-2,2.705260413E-3
6.460050000E0,-6.300638430E-3,2.837905288E-2,2.827433404E-3
6.464020313E0,-7.312929723E-3,2.752384171E-2,1.815142459E-3
6.467990625E0,-6.073745899E-3,2.745402977E-2,3.508111695E-3
6.471960938E0,-6.492624991E-3,2.759365551E-2,3.944444004E-3
6.475932813E0,-6.161012221E-3,2.762856148E-2,3.455751808E-3
6.479901563E0,-6.370451767E-3,2.717477642E-2,3.630284918E-3
6.483873438E0,-6.126105785E-3,2.736676298E-2,5.183627829E-3
6.487843750E0,-5.462880712E-3,2.846631967E-2,5.131267942E-3
6.491814063E0,-4.223696887E-3,2.860594541E-2,4.066617228E-3
6.495784375E0,-3.612831468E-3,2.984512970E-2,4.991641734E-3
6.499756250E0,-3.438298590E-3,3.167772666E-2,5.096361507E-3
6.503726563E0,-4.153883550E-3,3.260274976E-2,4.817108624E-3
6.507696875E0,-3.001966281E-3,3.239331022E-2,5.637413356E-3
6.511667188E0,-2.984513063E-3,3.279473633E-2,5.567600485E-3
6.515637500E0,-2.530727303E-3,3.108431399E-2,6.283185445E-3
6.519607813E0,-3.316125600E-3,2.988003753E-2,7.086036727E-3
6.523578125E0,-3.961897455E-3,2.776818909E-2,6.091198884E-3
6.527550000E0,-6.405358203E-3,2.752384171E-2,6.579891313E-3
6.531520313E0,-7.487462368E-3,2.761110850E-2,6.859143730E-3
6.535490625E0,-7.923794910E-3,2.792526782E-2,4.677482415E-3
6.539460938E0,-1.000073645E-2,2.785545401E-2,5.759586580E-3
6.543431250E0,-1.008800324E-2,2.933898382E-2,6.038838997E-3
6.547401563E0,-1.144936029E-2,3.124139272E-2,6.719517522E-3
6.551371875E0,-1.197295822E-2,3.263765574E-2,6.283185445E-3
6.555343750E0,-1.345648803E-2,3.420845419E-2,6.928957067E-3
6.559314063E0,-1.399754081E-2,3.492403775E-2,7.400196046E-3
6.563284375E0,-1.518436428E-2,3.750712425E-2,6.161012221E-3
6.567254688E0,-1.534144394E-2,3.970624134E-2,6.143558770E-3
6.571225000E0,-1.494001877E-2,3.965387866E-2,5.986479111E-3
6.575195313E0,-1.347394194E-2,3.965387866E-2,7.295476273E-3
6.579165625E0,-1.399754081E-2,3.783873841E-2,7.347836159E-3
6.583135938E0,-1.443387289E-2,3.857177496E-2,7.504915819E-3
6.587106250E0,-1.394518092E-2,3.771656379E-2,7.539822254E-3
6.591078125E0,-1.441641990E-2,3.612831607E-2,6.963863503E-3
6.595048438E0,-1.574287005E-2,3.406882659E-2,8.150687441E-3
6.599018750E0,-1.790707745E-2,3.232349828E-2,8.918632753E-3
6.602989063E0,-1.921607554E-2,3.321361542E-2,8.970992640E-3
6.606959375E0,-1.836086437E-2,3.195697814E-2,9.581857361E-3
6.610931250E0,-1.663298719E-2,3.056071512E-2,1.019272301E-2
6.614901563E0,-1.377064735E-2,2.869321220E-2,1.080358773E-2
6.618871875E0,-1.047197543E-2,2.565634064E-2,9.616764262E-3
6.622842188E0,-5.829399452E-3,2.110103145E-2,1.005309634E-2
6.626812500E0,-1.780235791E-3,1.464331243E-2,1.272345055E-2
6.630782813E0,3.630284918E-3,7.679448463E-3,1.478293911E-2
6.634753125E0,8.517206647E-3,3.141592606E-4,1.562069636E-2
6.638725000E0,1.340412907E-2,-9.878563695E-3,1.628392190E-2
6.642693750E0,1.677261479E-2,-1.932079531E-2,1.675515994E-2
6.646664063E0,2.021091245E-2,-2.930407785E-2,2.005383372E-2
6.650635938E0,2.157226950E-2,-3.958406672E-2,2.181661502E-2
6.654606250E0,2.192133479E-2,-5.023057386E-2,2.467895485E-2
6.658576563E0,2.110103145E-2,-6.010913849E-2,2.377138473E-2
6.662546875E0,1.923352852E-2,-7.093018293E-2,2.382374369E-2
6.666517188E0,1.589994878E-2,-8.386307210E-2,2.715732343E-2
6.670489063E0,1.171115879E-2,-9.445721656E-2,2.802998759E-2
6.674459375E0,7.155850064E-3,-1.015781611E-1,2.675589733E-2
6.678428125E0,3.263765713E-3,-1.051037237E-1,2.460914291E-2
6.682400000E0,-1.954768784E-3,-1.066221669E-1,2.405063622E-2
6.686370313E0,-7.086036727E-3,-1.065523475E-1,2.164208330E-2
6.690340625E0,-1.488765888E-2,-1.032362282E-1,2.176425606E-2
6.694312500E0,-2.415535599E-2,-9.574875981E-2,2.015855350E-2
6.698281250E0,-3.258529678E-2,-8.670795709E-2,1.761037298E-2
6.702251563E0,-3.885103017E-2,-7.698646933E-2,1.514945831E-2
6.706223438E0,-4.424409568E-2,-6.541494280E-2,1.315978263E-2
6.710193750E0,-4.865977913E-2,-5.426228791E-2,1.007054932E-2
6.714164063E0,-5.133013427E-2,-4.263839498E-2,7.766715251E-3
6.718134375E0,-5.187118426E-2,-3.221877664E-2,4.764748737E-3
6.722104688E0,-5.426228791E-2,-2.392846346E-2,2.460914198E-3
6.726075000E0,-5.323254317E-2,-1.621410809E-2,-3.665191471E-4
6.730046875E0,-5.326744914E-2,-1.041961554E-2,-2.914699726E-3
6.734017188E0,-5.372123420E-2,-6.806783844E-3,-3.892084118E-3
6.737987500E0,-5.384340882E-2,-3.612831468E-3,-3.979350906E-3
6.741957813E0,-5.447172746E-2,-2.478367416E-3,-5.829399452E-3
6.745928125E0,-5.644394830E-2,-2.775073517E-3,-7.051130291E-3
6.749898438E0,-5.742133036E-2,-4.974188283E-3,-7.522369269E-3
6.753870313E0,-5.736897141E-2,-6.736970972E-3,-7.784168236E-3
6.757840625E0,-5.916666240E-2,-1.021017600E-2,-8.325220086E-3
6.761810938E0,-6.084217876E-2,-1.277581044E-2,-7.853982039E-3
6.765781250E0,-6.293657422E-2,-1.480039209E-2,-7.731808349E-3
6.769751563E0,-6.407103688E-2,-1.548107062E-2,-6.789330859E-3
6.773721875E0,-6.586872786E-2,-1.549852360E-2,-6.702064537E-3
6.777692188E0,-6.906268001E-2,-1.371828746E-2,-5.183627829E-3
6.781662500E0,-7.124433666E-2,-8.272860199E-3,-4.328416660E-3
6.785632813E0,-7.407177240E-2,-2.042035107E-3,-4.555309191E-3
6.789604688E0,-7.571238279E-2,6.195918657E-3,-5.375613924E-3
6.793575000E0,-7.899360359E-2,1.481784508E-2,-5.427973811E-3
6.797545313E0,-8.121016622E-2,2.549926005E-2,-6.789330859E-3
6.801515625E0,-8.208283782E-2,3.640756756E-2,-1.031489577E-2
6.805485938E0,-8.367108554E-2,4.588470608E-2,-1.394518092E-2
6.809456250E0,-8.363617957E-2,5.632177368E-2,-1.745329238E-2
6.813428125E0,-8.316493779E-2,6.597344577E-2,-2.183406800E-2
6.817396875E0,-8.215264976E-2,7.271041721E-2,-2.281145379E-2
6.821368750E0,-8.127998561E-2,7.806857675E-2,-2.532472648E-2
6.825339063E0,-7.803367078E-2,8.157669008E-2,-2.614503168E-2
6.829309375E0,-7.553785294E-2,8.173377067E-2,-2.785545401E-2
6.833279688E0,-7.232644409E-2,8.119271696E-2,-2.860594541E-2
6.837250000E0,-6.998769939E-2,7.922049612E-2,-3.000221029E-2
6.841220313E0,-6.682865322E-2,7.721336931E-2,-2.946115844E-2
6.845220313E0,-6.192428246E-2,7.412413508E-2,-3.066543490E-2
6.849162500E0,-5.569345504E-2,6.956882030E-2,-3.385938704E-2
6.853132813E0,-4.832816496E-2,6.520549953E-2,-3.783873841E-2
6.857103125E0,-4.190535471E-2,6.286676228E-2,-4.475024343E-2
6.861073438E0,-3.932226822E-2,6.014404446E-2,-5.197590590E-2
6.865043750E0,-4.000294581E-2,5.733406544E-2,-5.927138031E-2
6.869015625E0,-4.515166581E-2,5.389576778E-2,-7.080800831E-2
6.872984375E0,-5.145230517E-2,4.532619938E-2,-8.555603772E-2
6.876954688E0,-5.913175642E-2,3.015928902E-2,-1.015956178E-1
6.880926563E0,-6.670648605E-2,5.567600485E-3,-1.194852367E-1
6.884896875E0,-7.243116200E-2,-2.851868048E-2,-1.375319511E-1
6.888867188E0,-7.422885299E-2,-7.007496804E-2,-1.579173952E-1
6.892837500E0,-7.394959778E-2,-1.081755087E-1,-1.734508276E-1
6.896807813E0,-7.267551124E-2,-1.459618807E-1,-1.856506765E-1
6.900778125E0,-7.278022915E-2,-1.819854826E-1,-1.883733869E-1
6.904750000E0,-7.311183959E-2,-2.192308009E-1,-1.865233332E-1
6.908720313E0,-7.440338284E-2,-2.574011683E-1,-1.795594692E-1
6.912689063E0,-7.641051710E-2,-2.965489030E-1,-1.706757396E-1
6.916660938E0,-7.916813344E-2,-3.326422870E-1,-1.636769772E-1
6.920631250E0,-8.456119895E-2,-3.637440801E-1,-1.559975296E-1
6.924601563E0,-9.049531817E-2,-3.908141255E-1,-1.470614374E-1
6.928573438E0,-9.925687313E-2,-4.111297429E-1,-1.360135078E-1
6.932543750E0,-1.122246683E-1,-4.236437678E-1,-1.206371561E-1
6.936514063E0,-1.254018992E-1,-4.285655916E-1,-1.029220670E-1
6.940484375E0,-1.398183256E-1,-4.241324663E-1,-8.234463632E-2
6.944454688E0,-1.523148865E-1,-4.139397442E-1,-5.967280641E-2
6.948425000E0,-1.667138487E-1,-3.978827000E-1,-3.494149074E-2
6.952395313E0,-1.840100586E-1,-3.795567453E-1,-4.258603323E-3
6.956365625E0,-2.004161626E-1,-3.594156504E-1,2.659881860E-2
6.960337500E0,-2.182359695E-1,-3.407580853E-1,6.038839370E-2
6.964307813E0,-2.358288914E-1,-3.190461993E-1,9.480628371E-2
6.968278125E0,-2.500533164E-1,-2.924648225E-1,1.266585439E-1
6.972248438E0,-2.606823742E-1,-2.590417564E-1,1.525766850E-1
6.976218750E0,-2.679778636E-1,-2.185675800E-1,1.682148278E-1
6.980189063E0,-2.730393112E-1,-1.705361158E-1,1.674817950E-1
6.984159375E0,-2.763205171E-1,-1.203753576E-1,1.522450745E-1
6.988131250E0,-2.773153782E-1,-6.754424423E-2,1.285260469E-1
6.992100000E0,-2.732138336E-1,-1.012290921E-2,1.044405028E-1
6.996071875E0,-2.653773129E-1,5.028293654E-2,8.730136603E-2
7.000042188E0,-2.539977729E-1,1.218937933E-1,8.117526025E-2
7.004012500E0,-2.453060299E-1,2.284112424E-1,7.853981853E-2
7.007982813E0,-2.389704734E-1,3.710744381E-1,7.920303941E-2
7.011953125E0,-2.319018990E-1,5.120097995E-1,8.705702424E-2
7.015923438E0,-2.198242247E-1,6.487388611E-1,9.573131055E-2
7.019895313E0,-2.020916790E-1,7.798131108E-1,1.073202938E-1
7.023865625E0,-1.754754037E-1,9.040107131E-1,1.210385859E-1
7.027835938E0,-1.476199478E-1,1.008957386E0,1.363451183E-1
7.031806250E0,-1.135685742E-1,1.102838635E0,1.585457027E-1
7.035776563E0,-7.398450375E-2,1.180156708E0,1.848129183E-1
7.039746875E0,-2.675589733E-2,1.245938182E0,2.130348831E-1
7.043717188E0,2.420771681E-2,1.296657443E0,2.425309569E-1
7.047687500E0,8.206538111E-2,1.335159421E0,2.751860619E-1
7.051659375E0,1.383871585E-1,1.359506726E0,3.115587234E-1
7.055629688E0,1.904328763E-1,1.372771263E0,3.526786864E-1
7.059600000E0,2.401049435E-1,1.378199220E0,3.994884193E-1
7.063570313E0,2.854311466E-1,1.370886326E0,4.551993310E-1
7.067540625E0,3.260100484E-1,1.356016159E0,5.191133022E-1
7.071510938E0,3.636742532E-1,1.332279682E0,6.003234386E-1
7.075481250E0,3.963642716E-1,1.306658149E0,6.766641736E-1
7.079453125E0,4.288448393E-1,1.283270836E0,7.293730974E-1
7.083421875E0,4.624249935E-1,1.259255052E0,7.690095305E-1
7.087393750E0,4.993386865E-1,1.240335703E0,7.994829416E-1
7.091364063E0,5.387656689E-1,1.232551455E0,8.262563348E-1
7.095334375E0,5.791700482E-1,1.235029936E0,8.484394550E-1
7.099304688E0,6.196442246E-1,1.246077776E0,8.727344275E-1
7.103275000E0,6.556329131E-1,1.259342313E0,8.950222731E-1
7.107246875E0,6.886720061E-1,1.269726992E0,9.169610739E-1
7.111217188E0,7.157944441E-1,1.273200274E0,9.345539808E-1
7.115187500E0,7.341552973E-1,1.266742468E0,9.462302327E-1
7.119157813E0,7.454301119E-1,1.241574883E0,9.542413354E-1
7.123128125E0,7.501599789E-1,1.199477553E0,9.569291472E-1
7.127098438E0,7.533538938E-1,1.136872530E0,9.502619505E-1
7.131068750E0,7.579267025E-1,1.061858296E0,9.283580780E-1
7.135040625E0,7.687651515E-1,9.758833647E-1,8.908684254E-1
7.139010938E0,7.869340777E-1,8.788256645E-1,8.317540884E-1
7.142981250E0,8.147022128E-1,7.820122242E-1,7.595847249E-1
7.146951563E0,8.535532951E-1,6.852337122E-1,6.722484827E-1
7.150921875E0,9.031206369E-1,5.913699269E-1,5.727297664E-1
7.154892188E0,9.627061486E-1,5.130046010E-1,4.665265083E-1
7.158862500E0,1.029290438E0,4.473977089E-1,3.671823740E-1
7.162832813E0,1.096921921E0,4.034852087E-1,2.802824378E-1
7.166803125E0,1.161534071E0,3.866253197E-1,2.067691535E-1
7.170775000E0,1.212096214E0,3.980048895E-1,1.495049000E-1
7.174745313E0,1.244733930E0,4.437674284E-1,1.067094281E-1
7.178715625E0,1.255345464E0,5.085016489E-1,7.796385884E-2
7.182685938E0,1.243355155E0,6.021735072E-1,5.302310362E-2
7.186657813E0,1.211467981E0,7.047464848E-1,2.799508162E-2
7.190626563E0,1.158601880E0,8.100596666E-1,-4.537856206E-3
7.194598438E0,1.096799850E0,9.091768861E-1,-3.593632951E-2
7.198568750E0,1.030686736E0,1.002168059E0,-5.510004610E-2
7.202539063E0,9.648180008E-1,1.076850653E0,-6.387905031E-2
7.206509375E0,9.033998847E-1,1.138164163E0,-6.253514439E-2
7.210479688E0,8.498880863E-1,1.188167810E0,-6.578145921E-2
7.214450000E0,8.079303503E-1,1.226058841E0,-6.785839796E-2
7.218421875E0,7.777361870E-1,1.248870373E0,-5.605997518E-2
7.222392188E0,7.551167011E-1,1.257684231E0,-3.310889751E-2
7.226362500E0,7.377681136E-1,1.252151608E0,-9.040805511E-3
7.230332813E0,7.222695947E-1,1.225133896E0,1.602212340E-2
7.234303125E0,7.089003921E-1,1.182111502E0,3.851941600E-2
7.238273438E0,6.951646209E-1,1.124061823E0,5.537929758E-2
7.242243750E0,6.824063063E-1,1.063743234E0,6.925466657E-2
7.246214063E0,6.677978635E-1,9.998642206E-1,8.145451546E-2
7.250184375E0,6.516361237E-1,9.361073375E-1,9.215338528E-2
7.254156250E0,6.364343166E-1,8.732405901E-1,1.026253626E-1
7.258126563E0,6.234316230E-1,8.129045367E-1,1.088212803E-1
7.262095313E0,6.143209934E-1,7.592356801E-1,1.158549562E-1
7.266067188E0,6.093817353E-1,7.140665650E-1,1.264141947E-1
7.270037500E0,6.093118787E-1,6.801722646E-1,1.376017630E-1
7.274007813E0,6.129072905E-1,6.568720937E-1,1.511978656E-1
7.277979688E0,6.198711395E-1,6.471855640E-1,1.657364666E-1
7.281948438E0,6.270967722E-1,6.506761909E-1,1.809731871E-1
7.285920313E0,6.339559555E-1,6.672568321E-1,1.960877478E-1
7.289890625E0,6.417575479E-1,6.954962611E-1,2.117608041E-1
7.293860938E0,6.442533731E-1,7.253239155E-1,2.275909334E-1
7.297831250E0,6.435378194E-1,7.523590922E-1,2.427054793E-1
7.301801563E0,6.442533731E-1,7.716100812E-1,2.592861056E-1
7.305771875E0,6.488087177E-1,7.874576449E-1,2.782229483E-1
7.309743750E0,6.546729803E-1,8.042302728E-1,2.982069552E-1
7.313714063E0,6.596646309E-1,8.215613961E-1,3.284011483E-1
7.317684375E0,6.611132622E-1,8.263959289E-1,3.561518788E-1
7.321654688E0,6.611830592E-1,8.171107769E-1,3.822096586E-1
7.325625000E0,6.565405130E-1,7.960272431E-1,4.011988342E-1
7.329595313E0,6.452482343E-1,7.707897425E-1,4.145680666E-1
7.333567188E0,6.292086244E-1,7.426899672E-1,4.228932858E-1
7.337537500E0,6.101147532E-1,7.151835561E-1,4.209908545E-1
7.341506250E0,5.881410241E-1,6.907140613E-1,4.155105352E-1
7.345478125E0,5.629908442E-1,6.704682112E-1,4.070107937E-1
7.349448438E0,5.302309990E-1,6.566103101E-1,4.032932222E-1
7.353418750E0,4.937012792E-1,6.471331716E-1,3.957010508E-1
7.357390625E0,4.552691281E-1,6.439043283E-1,3.872536421E-1
7.361359375E0,4.179888964E-1,6.417052150E-1,3.746523857E-1
7.365329688E0,3.877947032E-1,6.364866495E-1,3.564834893E-1
7.369301563E0,3.701319695E-1,6.212848425E-1,3.360806108E-1
7.373271875E0,3.625223339E-1,5.991017222E-1,3.126931787E-1
7.377242188E0,3.635346293E-1,5.674239993E-1,2.871764600E-1
7.381212500E0,3.713537157E-1,5.319065452E-1,2.585530877E-1
7.385182813E0,3.816685975E-1,4.923923016E-1,2.247460485E-1
7.389153125E0,3.948982060E-1,4.437150657E-1,1.916895062E-1
7.393125000E0,4.039040804E-1,3.867649734E-1,1.556833684E-1
7.397095313E0,4.113915563E-1,3.285582364E-1,1.172512174E-1
7.401065625E0,4.143760800E-1,2.665641308E-1,7.635815442E-2
7.405035938E0,4.153185487E-1,2.058441341E-1,2.926917188E-2
7.409006250E0,4.164704680E-1,1.532748193E-1,-2.120575123E-2
7.412976563E0,4.164530039E-1,1.104967967E-1,-6.829473376E-2
7.416948438E0,4.187219441E-1,8.068656921E-2,-1.083849445E-1
7.420921875E0,4.214097559E-1,6.162757427E-2,-1.457873583E-1
7.424889063E0,4.261744916E-1,6.145304441E-2,-1.734682769E-1
7.428859375E0,4.307298064E-1,8.279842138E-2,-1.892635077E-1
7.432829688E0,4.313232303E-1,1.210211292E-1,-1.977283508E-1
7.436800000E0,4.236612320E-1,1.695238352E-1,-2.043082416E-1
7.440770313E0,4.077961743E-1,2.279574573E-1,-2.108357698E-1
7.444740625E0,3.869569600E-1,2.927091718E-1,-2.181137949E-1
7.448712500E0,3.663271666E-1,3.530975580E-1,-2.251300216E-1
7.452682813E0,3.461860418E-1,4.123514891E-1,-2.325302213E-1
7.456653125E0,3.317521811E-1,4.690572321E-1,-2.380629033E-1
7.460623438E0,3.200061023E-1,5.181533694E-1,-2.441715598E-1
7.464593750E0,3.103195429E-1,5.609139204E-1,-2.511877716E-1
7.468564063E0,2.983291149E-1,5.958379507E-1,-2.581341863E-1
7.472534375E0,2.833018303E-1,6.188064814E-1,-2.637192607E-1
7.476506250E0,2.616248429E-1,6.353347301E-1,-2.687807083E-1
7.480475000E0,2.359510660E-1,6.435552239E-1,-2.750639021E-1
7.484446875E0,2.089333683E-1,6.441835761E-1,-2.794272006E-1
7.488417188E0,1.833642870E-1,6.393839121E-1,-2.832669318E-1
7.492387500E0,1.589296758E-1,6.268524528E-1,-2.862165570E-1
7.496357813E0,1.444259882E-1,6.070255041E-1,-2.886425555E-1
7.500328125E0,1.356818974E-1,5.851390958E-1,-2.903355062E-1
7.504298438E0,1.344601661E-1,5.637762547E-1,-2.903180718E-1
7.508270313E0,1.383522451E-1,5.443507433E-1,-2.894105017E-1
7.512240625E0,1.450892240E-1,5.294979811E-1,-2.876651585E-1
7.516210938E0,1.498714238E-1,5.198986530E-1,-2.845235765E-1
7.520181250E0,1.524719596E-1,5.176995397E-1,-2.805267572E-1
7.524151563E0,1.502902955E-1,5.237558484E-1,-2.728647888E-1
7.528121875E0,1.400975734E-1,5.349608660E-1,-2.654471397E-1
7.532093750E0,1.240230948E-1,5.533915162E-1,-2.570346296E-1
7.536064063E0,1.059938446E-1,5.725029111E-1,-2.461088747E-1
7.540032813E0,8.653342724E-2,5.928359628E-1,-2.343977243E-1
7.544004688E0,6.654940546E-2,6.088406444E-1,-2.245540619E-1
7.547975000E0,5.050982907E-2,6.203773022E-1,-2.149198502E-1
7.551945313E0,3.488913178E-2,6.298718452E-1,-2.071356773E-1
7.555915625E0,2.103121765E-2,6.371498704E-1,-2.016378939E-1
7.559885938E0,7.330382708E-3,6.431189179E-1,-1.979552358E-1
7.563856250E0,-6.457718089E-3,6.467841268E-1,-1.963844448E-1
7.567828125E0,-1.925098151E-2,6.478836536E-1,-1.964368075E-1
7.571798438E0,-2.830924094E-2,6.477265954E-1,-1.960004717E-1
7.575768750E0,-3.623303398E-2,6.488785148E-1,-1.966287941E-1
7.579739063E0,-4.251622036E-2,6.505365968E-1,-1.994911283E-1
7.583709375E0,-4.611159861E-2,6.509729028E-1,-2.040115297E-1
7.587679688E0,-4.914847016E-2,6.512346864E-1,-2.107659578E-1
7.591651563E0,-5.024803057E-2,6.488959789E-1,-2.183930427E-1
7.595621875E0,-5.218534544E-2,6.455798149E-1,-2.277654707E-1
7.599592188E0,-5.314527452E-2,6.392966509E-1,-2.399827689E-1
7.603562500E0,-5.745624006E-2,6.275680661E-1,-2.568601072E-1
7.607532813E0,-6.099925563E-2,6.166771650E-1,-2.761808932E-1
7.611503125E0,-6.085963175E-2,6.075316668E-1,-2.974739075E-1
7.615475000E0,-5.932373926E-2,5.943020582E-1,-3.221354187E-1
7.619448438E0,-5.319763720E-2,5.797110796E-1,-3.482804596E-1
7.623415625E0,-4.663519561E-2,5.677730441E-1,-3.740764260E-1
7.627385938E0,-3.981095925E-2,5.587846041E-1,-4.021762311E-1
7.631356250E0,-2.989749052E-2,5.496739745E-1,-4.311661422E-1
7.635326563E0,-1.829105057E-2,5.438271165E-1,-4.604004025E-1
7.639296875E0,-3.804817796E-3,5.427625179E-1,-4.879067838E-1
7.643267188E0,1.303760987E-2,5.436875224E-1,-5.163033009E-1
7.647239063E0,3.248057887E-2,5.487489700E-1,-5.470210910E-1
7.651210938E0,5.157447979E-2,5.538278818E-1,-5.818578601E-1
7.655179688E0,7.023204863E-2,5.599714518E-1,-6.162059307E-1
7.659150000E0,8.789478242E-2,5.666909814E-1,-6.548126340E-1
7.663120313E0,1.043881401E-1,5.719094872E-1,-6.937858462E-1
7.667090625E0,1.223824844E-1,5.761331916E-1,-7.369129062E-1
7.671060938E0,1.368687153E-1,5.773723722E-1,-7.821867466E-1
7.675031250E0,1.499761492E-1,5.753128529E-1,-8.257327080E-1
7.679001563E0,1.586678773E-1,5.621356368E-1,-8.706749678E-1
7.682973438E0,1.625948697E-1,5.272465348E-1,-9.136973023E-1
7.686943750E0,1.527861208E-1,4.758465588E-1,-9.526181817E-1
7.690914063E0,1.296081543E-1,4.080928862E-1,-9.889559150E-1
7.694884375E0,9.360200912E-2,3.257133365E-1,-1.020703435E0
7.698854688E0,4.899139330E-2,2.301740199E-1,-1.054283619E0
7.702825000E0,-2.670353744E-3,1.209513173E-1,-1.082453251E0
7.706796875E0,-6.084217876E-2,1.956514083E-2,-1.109820008E0
7.710767188E0,-1.130624264E-1,-7.515387982E-2,-1.133504033E0
7.714737500E0,-1.534842551E-1,-1.711818874E-1,-1.148287058E0
7.718707813E0,-1.715658605E-1,-2.746799290E-1,-1.152283788E0
7.722678125E0,-1.660331786E-1,-3.733084798E-1,-1.140991569E0
7.726648438E0,-1.404990107E-1,-4.569970071E-1,-1.112315774E0
7.730620313E0,-1.077740788E-1,-5.176821351E-1,-1.054109097E0
7.734590625E0,-7.621853054E-2,-5.452408791E-1,-9.596168995E-1
7.738559375E0,-4.872959107E-2,-5.391845703E-1,-8.237430453E-1
7.742531250E0,-2.890265174E-2,-4.983264208E-1,-6.591759324E-1
7.746501563E0,-2.658136375E-2,-4.217239022E-1,-4.671722651E-1
7.750471875E0,-5.274384841E-2,-3.081378639E-1,-2.596700788E-1
7.754442188E0,-1.113345549E-1,-1.734333634E-1,-7.819075137E-2
7.758412500E0,-2.110801190E-1,-3.183480725E-2,5.108578876E-2
7.762384375E0,-3.535862565E-1,8.532914519E-2,9.080947936E-2
7.766354688E0,-5.197415948E-1,1.386489570E-1,6.276203692E-2
7.770325000E0,-6.933844090E-1,1.165705398E-1,-2.408554312E-3
7.774295313E0,-8.313526511E-1,4.574507847E-2,-6.187192351E-2
7.778265625E0,-9.437867999E-1,-6.225589290E-2,-1.149997413E-1
7.782235938E0,-1.026724815E0,-2.031737715E-1,-1.578999311E-1
7.786206250E0,-1.065069675E0,-3.632553816E-1,-1.960353851E-1
7.790176563E0,-1.050234437E0,-5.347339511E-1,-2.365270257E-1
7.794146875E0,-9.897761941E-1,-6.909933090E-1,-2.818357646E-1
7.798118750E0,-8.914792538E-1,-8.290139437E-1,-3.404788375E-1
7.802089063E0,-7.615395188E-1,-9.471727014E-1,-4.171685874E-1
7.806059375E0,-6.203249097E-1,-1.045853615E0,-5.030911565E-1
7.810029688E0,-4.669628441E-1,-1.137535810E0,-6.025923491E-1
7.814000000E0,-3.185923994E-1,-1.218641281E0,-6.909060478E-1
7.817975000E0,-1.788962483E-1,-1.279081941E0,-7.650650740E-1
7.821942188E0,-6.237806752E-2,-1.324181318E0,-8.301658630E-1
7.825912500E0,4.399975017E-2,-1.355824113E0,-8.880933523E-1
7.829882813E0,1.288052946E-1,-1.371444821E0,-9.565975070E-1
7.833853125E0,1.879370511E-1,-1.391428828E0,-1.033933043E0
7.837851563E0,2.286555916E-1,-1.430681348E0,-1.114043713E0
7.841793750E0,2.446951568E-1,-1.478834867E0,-1.181134105E0
7.845765625E0,2.431243658E-1,-1.541963458E0,-1.239253521E0
7.849735938E0,2.378883809E-1,-1.623016596E0,-1.295365930E0
7.853704688E0,2.291617244E-1,-1.716566205E0,-1.344025731E0
7.857676563E0,2.172411382E-1,-1.801179767E0,-1.384709358E0
7.861646875E0,2.070484012E-1,-1.863749862E0,-1.409318447E0
7.865617188E0,2.012364566E-1,-1.897696495E0,-1.416352153E0
7.869587500E0,1.916022450E-1,-1.885025382E0,-1.392301440E0
7.873557813E0,1.689478755E-1,-1.819889665E0,-1.331564069E0
7.877528125E0,1.238834709E-1,-1.697350144E0,-1.224470615E0
7.881500000E0,5.841616914E-2,-1.514893413E0,-1.078997493E0
7.885470313E0,-2.605776489E-2,-1.298891425E0,-9.127025008E-1
7.889442188E0,-1.213352904E-1,-1.075000644E0,-7.317641973E-1
