"Time (s)","Gyroscope x (rad/s)","Gyroscope y (rad/s)","Gyroscope z (rad/s)"
4.524979200E-2,5.848647654E-2,-4.248564318E-2,-7.640008628E-2
4.768197900E-2,5.848647654E-2,-4.248564318E-2,-7.640008628E-2
5.016276100E-2,5.848647654E-2,-4.248564318E-2,-7.640008628E-2
5.264354200E-2,5.848647654E-2,-4.248564318E-2,-7.640008628E-2
5.512432300E-2,5.848647654E-2,-4.248564318E-2,-7.640008628E-2
5.760510400E-2,5.848647654E-2,-4.248564318E-2,-7.640008628E-2
6.008604200E-2,5.848647654E-2,-4.248564318E-2,-7.640008628E-2
6.256713600E-2,5.848647654E-2,-4.248564318E-2,-7.640008628E-2
6.504833300E-2,5.848647654E-2,-4.248564318E-2,-7.640008628E-2
6.752958300E-2,5.848647654E-2,-4.248564318E-2,-7.640008628E-2
7.001088600E-2,-3.061997592E-1,7.968730479E-2,-4.007692337E-1
7.249229200E-2,-3.226931095E-1,8.885027468E-2,-4.190951884E-1
7.497375000E-2,-3.379647136E-1,1.022892967E-1,-4.282581508E-1
7.745520800E-2,-3.465168178E-1,1.157283187E-1,-4.435297847E-1
7.993671900E-2,-3.526254892E-1,1.309999377E-1,-4.685752392E-1
8.241833300E-2,-3.630101681E-1,1.487150192E-1,-4.905663729E-1
8.490000000E-2,-3.672862351E-1,1.652083695E-1,-5.174444318E-1
8.738166700E-2,-3.672862351E-1,1.853668988E-1,-5.437116027E-1
8.986338600E-2,-3.636210561E-1,2.067471743E-1,-5.681461692E-1
9.234520800E-2,-3.507928848E-1,2.293491662E-1,-6.011328697E-1
9.482708300E-2,-3.318560719E-1,2.543945909E-1,-6.353412867E-1
9.730895800E-2,-3.043671548E-1,2.794400454E-1,-6.701605916E-1
9.979088600E-2,-2.787108421E-1,3.081507087E-1,-7.135319710E-1
1.022728650E-1,-2.402263582E-1,3.356396258E-1,-7.575142384E-1
1.047548960E-1,-1.986875683E-1,3.661828339E-1,-8.082160354E-1
1.072369270E-1,-1.534835845E-1,4.016129971E-1,-8.644155860E-1
1.097190110E-1,-1.033926755E-1,4.413191974E-1,-9.279454947E-1
1.122011460E-1,-4.291706905E-2,4.828580022E-1,-9.957515001E-1
1.146832810E-1,2.244545892E-2,5.292837620E-1,-1.066611767E0
1.171654170E-1,9.086230397E-2,5.799855590E-1,-1.141748190E0
1.196475520E-1,1.666095406E-1,6.288546920E-1,-1.221160531E0
1.221297400E-1,2.448002249E-1,6.832216382E-1,-1.297518611E0
1.246119270E-1,3.382625282E-1,7.406429648E-1,-1.374487638E0
1.270941150E-1,4.298922420E-1,7.998968363E-1,-1.450234890E0
1.295763020E-1,5.300740004E-1,8.615941405E-1,-1.525982022E0
1.320585420E-1,6.296449900E-1,9.269567132E-1,-1.598064065E0
1.345407810E-1,7.310485244E-1,9.947626591E-1,-1.670146108E0
1.370230210E-1,8.373389840E-1,1.065622926E0,-1.742839098E0
1.395052610E-1,9.424077272E-1,1.138315797E0,-1.813699365E0
1.419875520E-1,1.052363396E0,1.214673877E0,-1.888224840E0
1.444698440E-1,1.164762497E0,1.297140598E0,-1.963972092E0
1.469521360E-1,1.275328994E0,1.384494305E0,-2.032999754E0
1.494344270E-1,1.377343416E0,1.482843518E0,-2.109968662E0
1.519167710E-1,1.489131689E0,1.581803560E0,-2.180218220E0
1.543991150E-1,1.594200373E0,1.693591833E0,-2.246191502E0
1.568814580E-1,1.701712608E0,1.802936673E0,-2.312775850E0
1.593638020E-1,1.803727031E0,1.915335774E0,-2.374473095E0
1.618461980E-1,1.911239266E0,2.020404577E0,-2.440446615E0
1.643285940E-1,2.005923271E0,2.131582022E0,-2.499089479E0
1.668109900E-1,2.103661537E0,2.245202780E0,-2.551623821E0
1.692933860E-1,2.195902109E0,2.357601881E0,-2.605990887E0
1.717758330E-1,2.282033920E0,2.473055363E0,-2.650583982E0
1.742582810E-1,2.364500761E0,2.580567598E0,-2.695177078E0
1.767407290E-1,2.435971975E0,2.686857939E0,-2.740992069E0
1.792231770E-1,2.500112772E0,2.798035383E0,-2.777033091E0
1.817056770E-1,2.559366465E0,2.907380104E0,-2.812463284E0
1.841881770E-1,2.610068321E0,3.019168377E0,-2.842395544E0
1.866706770E-1,2.660770178E0,3.124237061E0,-2.872327805E0
1.891531770E-1,2.709028482E0,3.230527639E0,-2.899816751E0
1.916357290E-1,2.759119272E0,3.332541943E0,-2.924862385E0
1.941182810E-1,2.811042786E0,3.429669619E0,-2.948685884E0
1.966008330E-1,2.865409851E0,3.517634153E0,-2.970677137E0
1.990833860E-1,2.925274611E0,3.596435547E0,-2.992668152E0
2.015659900E-1,2.980252266E0,3.668517590E0,-3.014048576E0
2.040485940E-1,3.040727854E0,3.736934423E0,-3.035428762E0
2.065311980E-1,3.107312202E0,3.793744802E0,-3.057420015E0
2.090138020E-1,3.170842171E0,3.845057487E0,-3.083076239E0
2.114964580E-1,3.239259005E0,3.887207270E0,-3.106899977E0
2.139791150E-1,3.305843353E0,3.928135157E0,-3.133167028E0
2.164617710E-1,3.372427464E0,3.961732626E0,-3.165543079E0
2.189444270E-1,3.442066193E0,3.989832401E0,-3.198529720E0
2.214271360E-1,3.515369892E0,4.016099453E0,-3.230294704E0
2.239098440E-1,3.579510689E0,4.039923191E0,-3.267557383E0
2.263925520E-1,3.648538351E0,4.057638168E0,-3.306652784E0
2.288752610E-1,3.712068319E0,4.075353146E0,-3.341471910E0
2.313580210E-1,3.772543907E0,4.092457294E0,-3.383010864E0
2.338407810E-1,3.829965115E0,4.110172749E0,-3.422717094E0
2.363235420E-1,3.884332180E0,4.127276897E0,-3.458758116E0
2.388063020E-1,3.936866522E0,4.136439800E0,-3.503962040E0
2.412891150E-1,3.987568378E0,4.142548561E0,-3.537559509E0
2.437719270E-1,4.032772541E0,4.140104771E0,-3.573600531E0
2.462547400E-1,4.079809189E0,4.133385658E0,-3.606587410E0
2.487375520E-1,4.126235008E0,4.115059376E0,-3.633465290E0
2.512204170E-1,4.172049522E0,4.094901085E0,-3.663397789E0
2.537032810E-1,4.220307827E0,4.074742317E0,-3.685999632E0
2.561861460E-1,4.269176960E0,4.054584026E0,-3.712266922E0
2.586690110E-1,4.313770294E0,4.032592773E0,-3.740977526E0
2.611519270E-1,4.354698181E0,4.016710281E0,-3.767244816E0
2.636348440E-1,4.398680687E0,3.994108438E0,-3.793511868E0
2.661177610E-1,4.440219402E0,3.975782633E0,-3.825887680E0
2.686006770E-1,4.486645222E0,3.958678246E0,-3.856431007E0
2.710835940E-1,4.531848907E0,3.931800365E0,-3.890639305E0
2.735665110E-1,4.575831413E0,3.901257038E0,-3.925458670E0
2.760494270E-1,4.619813442E0,3.870713949E0,-3.965775728E0
2.785323440E-1,4.662573814E0,3.834672928E0,-4.001205921E0
2.810152610E-1,4.713275909E0,3.776029825E0,-4.037247181E0
2.834981770E-1,4.751149654E0,3.719830275E0,-4.054962158E0
2.859810940E-1,4.784747124E0,3.680124044E0,-4.035414696E0
2.884640110E-1,4.798796654E0,3.647137403E0,-3.968830109E0
2.909469270E-1,4.797574997E0,3.618426800E0,-3.849100590E0
2.934298440E-1,4.782914162E0,3.582996607E0,-3.707990885E0
2.959127610E-1,4.770086288E0,3.508471012E0,-3.593759060E0
2.983956770E-1,4.776805878E0,3.386909008E0,-3.550998688E0
3.008785940E-1,4.785968781E0,3.237247229E0,-3.544279099E0
3.033615110E-1,4.790244579E0,3.096137285E0,-3.561994076E0
3.058444270E-1,4.771918774E0,2.973964453E0,-3.574211359E0
3.083273440E-1,4.730990887E0,2.867063046E0,-3.564437628E0
3.108102610E-1,4.674180508E0,2.770546436E0,-3.540003061E0
3.132931770E-1,4.600265980E0,2.690523148E0,-3.502740383E0
3.157760940E-1,4.492753506E0,2.649595261E0,-3.456314564E0
3.182590110E-1,4.369969845E0,2.605002165E0,-3.406223774E0
3.207419270E-1,4.251461983E0,2.528644085E0,-3.360408783E0
3.232248440E-1,4.132343292E0,2.409525394E0,-3.317037344E0
3.257077610E-1,4.018111706E0,2.257420063E0,-3.282829046E0
3.281906770E-1,3.894105911E0,2.107147455E0,-3.241901159E0
3.306735940E-1,3.763991833E0,1.933661699E0,-3.197918892E0
3.331565110E-1,3.629601479E0,1.733908892E0,-3.153325796E0
3.356394270E-1,3.503152609E0,1.492006540E0,-3.124614954E0
3.381223440E-1,3.380979538E0,1.214673877E0,-3.097126245E0
3.406052610E-1,3.254530668E0,9.556673169E-1,-3.065361261E0
3.430881770E-1,3.103646994E0,7.406429648E-1,-3.031763554E0
3.455710940E-1,2.934437513E0,5.665464997E-1,-2.993279219E0
3.480540110E-1,2.775001764E0,4.413191974E-1,-2.954183817E0
3.505369270E-1,2.624118328E0,2.696662247E-1,-2.896762609E0
3.530152610E-1,2.496447563E0,9.129372984E-2,-2.810630560E0
3.554489060E-1,2.392600536E0,-9.074395895E-2,-2.715946436E0
3.578833860E-1,2.311355591E0,-2.825554907E-1,-2.597438812E0
3.603185940E-1,2.258210182E0,-4.816973805E-1,-2.478320122E0
3.627530730E-1,2.223391056E0,-7.071064115E-1,-2.357368946E0
3.651866670E-1,2.236829996E0,-1.049190760E0,-2.255354643E0
3.676211460E-1,2.297916412E0,-1.456637502E0,-2.173498631E0
3.700564060E-1,2.349229097E0,-1.745576501E0,-2.092253685E0
3.724908330E-1,2.337011814E0,-1.821323752E0,-1.993904471E0
3.749244270E-1,2.294251204E0,-1.801165223E0,-1.876007557E0
3.773589580E-1,2.239884377E0,-1.772454619E0,-1.749558568E0
3.797941670E-1,2.193458557E0,-1.749852538E0,-1.621887803E0
3.822285940E-1,2.150697947E0,-1.730304956E0,-1.492384553E0
3.846622400E-1,2.105494022E0,-1.709535480E0,-1.368378997E0
3.870967190E-1,2.057846546E0,-1.702205181E0,-1.232156157E0
3.895319270E-1,1.998592854E0,-1.736413598E0,-1.089824677E0
3.919664060E-1,1.930176020E0,-1.758404732E0,-9.694843292E-1
3.944000000E-1,1.892302394E0,-1.769400239E0,-8.857958317E-1
3.968344790E-1,1.897189379E0,-1.770011067E0,-8.295962811E-1
3.992697400E-1,1.944836736E0,-1.732748389E0,-8.247093558E-1
4.017041670E-1,2.059068441E0,-1.609353662E0,-8.778545856E-1
4.041377610E-1,2.231943130E0,-1.452972293E0,-1.021407843E0
4.065722920E-1,2.421311140E0,-1.283151984E0,-1.234599590E0
4.090075000E-1,2.602127075E0,-1.112109780E0,-1.427021980E0
4.114419270E-1,2.757286787E0,-9.545066357E-1,-1.502158284E0
4.138755730E-1,2.881903172E0,-8.225598931E-1,-1.478334665E0
4.163100520E-1,2.980252266E0,-7.596408129E-1,-1.423967600E0
4.187452610E-1,3.041949749E0,-7.846862674E-1,-1.381817937E0
4.211797400E-1,3.076768875E0,-8.842571974E-1,-1.354939938E0
4.236133330E-1,3.092651367E0,-1.041249514E0,-1.329894543E0
4.260478130E-1,3.098149300E0,-1.218400240E0,-1.307292461E0
4.284830730E-1,3.090208054E0,-1.369283795E0,-1.279192686E0
4.309175000E-1,3.057221413E0,-1.475574374E0,-1.254758120E0
4.333510940E-1,3.003465176E0,-1.543380260E0,-1.240708232E0
4.357856250E-1,2.935048342E0,-1.567814946E0,-1.228490949E0
4.382208330E-1,2.844640493E0,-1.565982342E0,-1.219938874E0
4.406552610E-1,2.742015123E0,-1.533606410E0,-1.210165024E0
4.430889060E-1,2.629005194E0,-1.489624262E0,-1.199169397E0
4.455233860E-1,2.515995264E0,-1.442587614E0,-1.190006495E0
4.479586460E-1,2.394433022E0,-1.401659727E0,-1.182676077E0
4.503930730E-1,2.280812263E0,-1.366840363E0,-1.192449927E0
4.528266670E-1,2.147643805E0,-1.336297154E0,-1.210165024E0
4.552611460E-1,2.009588480E0,-1.299034357E0,-1.230323553E0
4.576964060E-1,1.875809073E0,-1.284373641E0,-1.263921142E0
4.601308330E-1,1.759744763E0,-1.288038850E0,-1.308514237E0
4.625644270E-1,1.647345662E0,-1.300256133E0,-1.356161714E0
4.649989580E-1,1.532503128E0,-1.321636438E0,-1.402587414E0
4.674341670E-1,1.420714855E0,-1.353401423E0,-1.438628435E0
4.698686460E-1,1.307093978E0,-1.402270555E0,-1.471615076E0
4.723022400E-1,1.205079556E0,-1.458470106E0,-1.489941001E0
4.747367190E-1,1.101843476E0,-1.517724037E0,-1.497882247E0
4.771719790E-1,1.008381128E0,-1.588584304E0,-1.492384553E0
4.796064060E-1,9.253035188E-1,-1.656390309E0,-1.478334665E0
4.820400000E-1,8.556649089E-1,-1.729083180E0,-1.466117382E0
4.844744790E-1,7.878589034E-1,-1.802997828E0,-1.448402286E0
4.869097400E-1,7.273833156E-1,-1.875690699E0,-1.434963226E0
4.893441670E-1,6.754598022E-1,-1.945329309E0,-1.421524167E0
4.917777610E-1,6.241471767E-1,-1.999696255E0,-1.405030847E0
4.942122920E-1,5.807757974E-1,-2.044900179E0,-1.390980959E0
4.966475000E-1,5.355718136E-1,-2.084606409E0,-1.379374504E0
4.990819790E-1,4.976982176E-1,-2.124923468E0,-1.373265862E0
5.015155730E-1,4.653223753E-1,-2.162186146E0,-1.370822430E0
5.039500520E-1,4.341682792E-1,-2.195783615E0,-1.370822430E0
5.063853130E-1,4.158423543E-1,-2.222661734E0,-1.374487638E0
5.088197400E-1,3.944620788E-1,-2.242820263E0,-1.370211601E0
5.112533330E-1,3.822447956E-1,-2.263589621E0,-1.379374504E0
5.136878130E-1,3.779687285E-1,-2.278861284E0,-1.389759183E0
5.161230730E-1,3.718600869E-1,-2.288024187E0,-1.405030847E0
5.185575000E-1,3.620862365E-1,-2.293522120E0,-1.426411152E0
5.209910940E-1,3.578101993E-1,-2.291078568E0,-1.454510927E0
5.234256250E-1,3.523124158E-1,-2.277639627E0,-1.488108397E0
5.258608330E-1,3.425385654E-1,-2.259313583E0,-1.530258060E0
5.282953130E-1,3.352082074E-1,-2.226937771E0,-1.576072931E0
5.307289060E-1,3.309321404E-1,-2.186009884E0,-1.628607392E0
5.331633860E-1,3.242126405E-1,-2.138973236E0,-1.686639428E0
5.355986460E-1,3.229908943E-1,-2.085828066E0,-1.736119509E0
5.380330730E-1,3.181039989E-1,-2.022298098E0,-1.782545209E0
5.404666670E-1,3.211583197E-1,-1.952048779E0,-1.821029782E0
5.429011460E-1,3.242126405E-1,-1.865916848E0,-1.857070684E0
5.453364060E-1,3.278778195E-1,-1.769400239E0,-1.894333482E0
5.477708330E-1,3.333756030E-1,-1.656390309E0,-1.924876690E0
5.502044270E-1,3.400951028E-1,-1.540325999E0,-1.951143861E0
5.526389580E-1,3.449820280E-1,-1.417542219E0,-1.973134995E0
5.550741670E-1,3.492580950E-1,-1.294758320E0,-1.986574054E0
5.575086460E-1,3.584210575E-1,-1.177472353E0,-1.995737076E0
5.599422400E-1,3.663623035E-1,-1.057742834E0,-1.992071867E0
5.623767190E-1,3.724709451E-1,-9.459545612E-1,-1.987795830E0
5.648119790E-1,3.785795867E-1,-8.421075344E-1,-1.979243636E0
5.672464060E-1,3.846882284E-1,-7.309301496E-1,-1.975578547E0
5.696800000E-1,3.932403624E-1,-6.093680859E-1,-1.980465412E0
5.721144790E-1,4.048467875E-1,-5.036885142E-1,-2.009176016E0
5.745497400E-1,4.176749289E-1,-4.132805467E-1,-2.054991007E0
5.769841670E-1,4.250053167E-1,-3.167639077E-1,-2.101416588E0
5.794177610E-1,4.256161749E-1,-2.025321871E-1,-2.125851154E0
5.818522920E-1,4.176749289E-1,-8.219184726E-2,-2.142955542E0
5.842875000E-1,4.005707204E-1,4.120282456E-2,-2.154561758E0
5.867219790E-1,3.895751536E-1,1.542128026E-1,-2.162503004E0
5.891555730E-1,3.718600869E-1,2.476751059E-1,-2.171666145E0
5.915900520E-1,3.529232740E-1,3.319744170E-1,-2.178996563E0
5.940253130E-1,3.229908943E-1,4.077216387E-1,-2.183883429E0
5.964597400E-1,2.942802608E-1,4.914101064E-1,-2.186937809E0
5.988933330E-1,2.667913437E-1,5.769311786E-1,-2.175331354E0
6.013278130E-1,2.441893518E-1,6.789456010E-1,-2.160670519E0
6.037630730E-1,2.215873599E-1,7.766839862E-1,-2.131959915E0
6.061975000E-1,2.105917931E-1,8.634267449E-1,-2.087977648E0
6.086310940E-1,2.063157409E-1,9.355087876E-1,-2.031167269E0
6.110656250E-1,2.075374722E-1,9.996495843E-1,-1.958474278E0
6.135008330E-1,2.081483305E-1,1.068066359E0,-1.882116199E0
6.159353130E-1,2.203656286E-1,1.136483192E0,-1.797816873E0
6.183689060E-1,2.356372476E-1,1.145035386E0,-1.699467659E0
6.208033860E-1,2.521305978E-1,1.105329156E0,-1.584625125E0
6.232386460E-1,2.765651643E-1,1.099831343E0,-1.458786964E0
6.256730730E-1,2.997780442E-1,1.154809117E0,-1.307903409E0
6.281066670E-1,3.229908943E-1,1.264153957E0,-1.154576302E0
6.305411460E-1,3.645296991E-1,1.384494305E0,-9.969732165E-1
6.329764060E-1,4.292813540E-1,1.474291444E0,-8.357049227E-1
6.354108330E-1,5.135806799E-1,1.526825786E0,-6.561107039E-1
6.378444270E-1,6.143733263E-1,1.544540882E0,-4.563579261E-1
6.402789580E-1,7.304376364E-1,1.532323599E0,-2.309488505E-1
6.427141670E-1,8.611627221E-1,1.523160577E0,-4.199519753E-5
6.451486460E-1,1.001661658E0,1.522549748E0,2.412495613E-1
6.475822400E-1,1.165373445E0,1.512775898E0,4.819302559E-1
6.500167190E-1,1.331528544E0,1.469404459E0,7.366608381E-1
6.524519790E-1,1.504403353E0,1.398544192E0,9.975000620E-1
6.548864060E-1,1.679110646E0,1.373498797E0,1.285828233E0
6.573200000E-1,1.857483149E0,1.328905582E0,1.572934628E0
6.597544790E-1,2.052959681E0,1.251325846E0,1.849045515E0
6.621897400E-1,2.269816637E0,1.133428931E0,2.126988888E0
6.646241670E-1,2.492171526E0,9.965952635E-1,2.412262678E0
6.670577610E-1,2.719413042E0,8.451008201E-1,2.701812744E0
6.694922920E-1,2.950930834E0,6.807782054E-1,2.976090908E0
6.719275000E-1,3.170231342E0,5.066817403E-1,3.244260550E0
6.743619790E-1,3.391364336E0,3.240331709E-1,3.489828110E0
6.767955730E-1,3.603945255E0,1.309999377E-1,3.693856955E0
6.792300520E-1,3.803087234E0,-8.097012341E-2,3.863066435E0
6.816653130E-1,3.991844416E0,-3.051574826E-1,3.982795954E0
6.840997400E-1,4.135397911E0,-4.444346428E-1,4.095194817E0
6.865333330E-1,4.252072811E0,-5.073536634E-1,4.198431015E0
6.889678130E-1,4.369969845E0,-5.647749305E-1,4.286395550E0
6.914030730E-1,4.486645222E0,-6.112006903E-1,4.369472980E0
6.938375000E-1,4.600876808E0,-6.423547864E-1,4.434835434E0
6.962710940E-1,4.721827984E0,-6.790066361E-1,4.486148357E0
6.987056250E-1,4.839725018E0,-7.297084332E-1,4.514858723E0
7.011408330E-1,4.922802448E0,-7.388713956E-1,4.544180393E0
7.035753130E-1,4.960065365E0,-7.132151127E-1,4.566782475E0
7.060089060E-1,4.984499931E0,-7.132151127E-1,4.574112892E0
7.084433860E-1,5.012599468E0,-7.321518660E-1,4.566782475E0
7.108786460E-1,5.008934498E0,-6.765632033E-1,4.573502064E0
7.133130730E-1,4.970449924E0,-5.653858185E-1,4.576556206E0
7.157466670E-1,4.924024105E0,-4.841408432E-1,4.553954124E0
7.181811460E-1,4.877598286E0,-4.187783301E-1,4.527076244E0
7.206164060E-1,4.828118324E0,-3.479180038E-1,4.477596283E0
7.230508330E-1,4.721827984E0,-1.750432849E-1,4.453772545E0
7.254844270E-1,4.591713905E0,2.718348056E-3,4.407346725E0
7.279189580E-1,4.468318939E0,1.371085942E-1,4.352979660E0
7.303541670E-1,4.338815689E0,2.653901577E-1,4.295558453E0
7.327886460E-1,4.208090782E0,3.900065720E-1,4.231417656E0
7.352222400E-1,4.056596279E0,5.274511576E-1,4.168498516E0
7.376567190E-1,3.900214672E0,6.612305641E-1,4.098248959E0
7.400919790E-1,3.731616020E0,7.937881947E-1,4.036551952E0
7.425264060E-1,3.555076122E0,9.196262956E-1,3.984628439E0
7.449600000E-1,3.387699127E0,1.035079718E0,3.925985575E0
7.473944790E-1,3.222765684E0,1.152976632E0,3.883835793E0
7.498297400E-1,3.060275555E0,1.277593017E0,3.836188555E0
7.522641670E-1,2.896563768E0,1.407707214E0,3.797703981E0
7.546977610E-1,2.737739086E0,1.543930054E0,3.768382549E0
7.571322920E-1,2.588688135E0,1.664881229E0,3.738450050E0
7.595675000E-1,2.439026117E0,1.787054181E0,3.717069864E0
7.620019790E-1,2.299749136E0,1.903118491E0,3.698743820E0
7.644355730E-1,2.175743580E0,2.010020018E0,3.685915709E0
7.668700520E-1,2.056014061E0,2.111423492E0,3.681639671E0
7.693053130E-1,1.946058512E0,2.207329273E0,3.674309254E0
7.717397400E-1,1.850763559E0,2.288574219E0,3.673698425E0
7.741733330E-1,1.764631629E0,2.363099813E0,3.676752806E0
7.766078130E-1,1.679110646E0,2.424186230E0,3.679807186E0
7.790430730E-1,1.597254753E0,2.465114117E0,3.684083223E0
7.814775000E-1,1.520285845E0,2.488937855E0,3.692635298E0
7.839110940E-1,1.445149422E0,2.498711586E0,3.706074238E0
7.863456250E-1,1.373067379E0,2.484050989E0,3.723789454E0
7.887808330E-1,1.296098471E0,2.456562042E0,3.738450050E0
7.912153130E-1,1.224627256E0,2.413190603E0,3.756776094E0
7.936489060E-1,1.153156042E0,2.353936672E0,3.779989004E0
7.960833860E-1,1.084739208E0,2.275135279E0,3.801369190E0
7.985186460E-1,1.017544150E0,2.187781572E0,3.827636242E0
8.009530730E-1,9.570684433E-1,2.086988926E0,3.862455606E0
8.033866670E-1,8.947602510E-1,1.974589586E0,3.902772665E0
8.058211460E-1,8.367280960E-1,1.865244865E0,3.950420141E0
8.082564060E-1,7.799176574E-1,1.751013160E0,3.994402647E0
8.106908330E-1,7.212746739E-1,1.631894469E0,4.054266930E0
8.131244270E-1,6.693511605E-1,1.506056428E0,4.111688137E0
8.155589580E-1,6.168168187E-1,1.382050872E0,4.175218105E0
8.179941670E-1,5.697802305E-1,1.263543129E0,4.236915588E0
8.204286460E-1,5.178567171E-1,1.139537573E0,4.301056385E0
8.228622400E-1,4.714310467E-1,1.020418882E0,4.361531734E0
8.252967190E-1,4.243944585E-1,9.019112587E-1,4.423229218E0
8.277319790E-1,3.767470121E-1,7.925664783E-1,4.473320007E0
8.301664060E-1,3.303212821E-1,6.832216382E-1,4.520967484E0
8.326000000E-1,2.814520895E-1,5.805963874E-1,4.563117027E0
8.350344790E-1,2.307503372E-1,4.834688604E-1,4.595492840E0
8.374697400E-1,1.800485551E-1,3.887848556E-1,4.616262436E0
8.399041670E-1,1.269033253E-1,3.112050295E-1,4.634588242E0
8.423377610E-1,5.604301766E-2,2.452316433E-1,4.645584106E0
8.447722920E-1,7.173839957E-3,1.865886301E-1,4.644362450E0
8.472075000E-1,-5.818868801E-2,1.407737881E-1,4.635199070E0
8.496419790E-1,-1.339359134E-1,1.083979458E-1,4.611986637E0
8.520755730E-1,-2.023527622E-1,8.213075995E-2,4.580221653E0
8.545100520E-1,-2.872629464E-1,6.808087230E-2,4.534406662E0
8.569453130E-1,-3.697296977E-1,6.319395453E-2,4.486148357E0
8.593797400E-1,-4.674680531E-1,6.685914099E-2,4.429948807E0
8.618133330E-1,-5.688716173E-1,7.480037957E-2,4.368862152E0
8.642478130E-1,-6.702751517E-1,8.946114033E-2,4.301056385E0
8.666830730E-1,-7.832851410E-1,1.029001623E-1,4.222865582E0
8.691175000E-1,-8.969059587E-1,1.138957217E-1,4.144063950E0
8.715510940E-1,-1.011748433E0,1.267238855E-1,4.056710243E0
8.739856250E-1,-1.122925878E0,1.456606984E-1,3.971800327E0
8.764208330E-1,-1.230437994E0,1.731496155E-1,3.882003307E0
8.788553130E-1,-1.336728454E0,2.104123533E-1,3.791595221E0
8.812888540E-1,-1.444240689E0,2.495077103E-1,3.699354649E0
8.837233860E-1,-1.549920321E0,2.934899330E-1,3.615666389E0
8.861585940E-1,-1.650712967E0,3.386939466E-1,3.531367064E0
8.885930730E-1,-1.750283957E0,3.777892888E-1,3.451954603E0
8.910266670E-1,-1.848022342E0,4.144411683E-1,3.374374628E0
8.934611460E-1,-1.945760608E0,4.443735182E-1,3.300460100E0
8.958964060E-1,-2.036779642E0,4.669755399E-1,3.230821609E0
8.983308330E-1,-2.121689796E0,4.956861734E-1,3.164237261E0
9.007644270E-1,-2.203545570E0,5.182881951E-1,3.102540016E0
9.031989580E-1,-2.282958031E0,5.421119332E-1,3.037788153E0
9.056341670E-1,-2.353818417E0,5.592161417E-1,2.978534460E0
9.080685940E-1,-2.422846079E0,5.708225369E-1,2.914393663E0
9.105022400E-1,-2.494928122E0,5.781529546E-1,2.861859322E0
9.129367190E-1,-2.558458090E0,5.732660294E-1,2.801994562E0
9.153719270E-1,-2.619544506E0,5.647138953E-1,2.744573116E0
9.178064060E-1,-2.679409266E0,5.476096869E-1,2.692038774E0
9.202400000E-1,-2.734387159E0,5.219534039E-1,2.632784843E0
9.226744790E-1,-2.788753986E0,4.889666438E-1,2.574752808E0
9.251097400E-1,-2.834568977E0,4.480387270E-1,2.524662018E0
9.275441670E-1,-2.885270596E0,3.985586762E-1,2.478236198E0
9.299777610E-1,-2.931696415E0,3.423591256E-1,2.432421446E0
9.324122920E-1,-2.983009100E0,2.824943960E-1,2.390271664E0
9.348475000E-1,-3.028213024E0,2.152992785E-1,2.348121881E0
9.372819270E-1,-3.072806120E0,1.487150192E-1,2.310859203E0
9.397155730E-1,-3.118621111E0,8.090902865E-2,2.273596525E0
9.421500520E-1,-3.158938169E0,1.554650627E-2,2.235111952E0
9.445852610E-1,-3.198033333E0,-4.676169530E-2,2.196016788E0
9.470197400E-1,-3.240793943E0,-1.041829810E-1,2.164251804E0
9.494533330E-1,-3.282943726E0,-1.573282033E-1,2.123934746E0
9.518878130E-1,-3.312875986E0,-2.049756497E-1,2.081784964E0
9.543230730E-1,-3.352582216E0,-2.452927232E-1,2.045743942E0
9.567575000E-1,-3.389234066E0,-2.837772071E-1,2.002372503E0
9.591910940E-1,-3.419166565E0,-3.137095869E-1,1.957168579E0
9.616255730E-1,-3.464981318E0,-3.289811909E-1,1.912575483E0
9.640608330E-1,-3.504687548E0,-3.381441832E-1,1.860651970E0
9.664952610E-1,-3.540728569E0,-3.357007205E-1,1.806285024E0
9.689288540E-1,-3.576769590E0,-3.265377581E-1,1.743976831E0
9.713633860E-1,-3.615253925E0,-3.100444078E-1,1.678614259E0
9.737985940E-1,-3.659236193E0,-2.972162366E-1,1.601034403E0
9.762330730E-1,-3.709327221E0,-2.935510576E-1,1.508793831E0
9.786666670E-1,-3.754531145E0,-3.057683408E-1,1.404946923E0
9.811011460E-1,-3.805233002E0,-3.320355415E-1,1.288271666E0
9.835364060E-1,-3.856545687E0,-3.662439585E-1,1.161211848E0
9.859708330E-1,-3.903582096E0,-4.193891883E-1,1.021934628E0
9.884044270E-1,-3.942677498E0,-4.707018137E-1,8.759379983E-1
9.908389060E-1,-3.971388102E0,-5.189601183E-1,7.274978757E-1
9.932741670E-1,-3.983605623E0,-5.519468188E-1,5.894424915E-1
9.957085940E-1,-3.984216452E0,-5.708836317E-1,4.410023391E-1
9.981421880E-1,-3.972609758E0,-5.831009150E-1,3.035577834E-1
1.000576719E0,-3.957338333E0,-5.904312730E-1,1.758870482E-1
1.003011927E0,-3.931681871E0,-5.916529894E-1,4.455113038E-2
1.005446354E0,-3.884645462E0,-5.879878402E-1,-7.334576547E-2
1.007880000E0,-3.838830471E0,-5.763813853E-1,-1.875774562E-1
1.010314479E0,-3.778354883E0,-5.550011396E-1,-2.944787741E-1
1.012749688E0,-3.712381601E0,-5.262904763E-1,-3.879410923E-1
1.015184167E0,-3.640299559E0,-4.945255518E-1,-4.771273434E-1
1.017617761E0,-3.569439173E0,-4.584845304E-1,-5.553179979E-1
1.020052240E0,-3.493081093E0,-4.230543673E-1,-6.200696826E-1
1.022487500E0,-3.417944670E0,-3.876242042E-1,-6.738258004E-1
1.024921927E0,-3.345251799E0,-3.521940708E-1,-7.196406126E-1
1.027355521E0,-3.275613308E0,-3.240942955E-1,-7.526273131E-1
1.029790052E0,-3.206585646E0,-2.984379828E-1,-7.727858424E-1
1.032225261E0,-3.138168812E0,-2.801120281E-1,-7.880575061E-1
1.034659688E0,-3.071584463E0,-2.715599239E-1,-7.911118269E-1
1.037093281E0,-3.001334906E0,-2.697273195E-1,-7.795053720E-1
1.039527813E0,-2.941470146E0,-2.685056031E-1,-7.636228800E-1
1.041963021E0,-2.876107693E0,-2.752251029E-1,-7.318579555E-1
1.044397500E0,-2.810134411E0,-2.868315279E-1,-7.000929713E-1
1.046831094E0,-2.757600069E0,-2.966053784E-1,-6.628302336E-1
1.049265573E0,-2.691015720E0,-3.076009452E-1,-6.194587946E-1
1.051700833E0,-2.623209715E0,-3.112661242E-1,-5.736439824E-1
1.054135261E0,-2.551738501E0,-3.051574826E-1,-5.302725434E-1
1.056568854E0,-2.481489182E0,-2.874424160E-1,-4.832359850E-1
1.059003333E0,-2.401465893E0,-2.642295361E-1,-4.386428595E-1
1.061438594E0,-2.325107813E0,-2.300211042E-1,-4.001583755E-1
1.063873021E0,-2.245695353E0,-1.872605681E-1,-3.616738915E-1
1.066306615E0,-2.170558929E0,-1.328936070E-1,-3.299089372E-1
1.068741146E0,-2.092368364E0,-7.486147434E-2,-3.060852289E-1
1.071176354E0,-2.021507978E0,-2.779434435E-3,-2.822614908E-1
1.073610833E0,-1.951869249E0,6.869173795E-2,-2.621029615E-1
1.076044427E0,-1.886506796E0,1.450498402E-1,-2.486639321E-1
1.078478906E0,-1.818700790E0,2.250731140E-1,-2.431661487E-1
1.080914167E0,-1.757614255E0,3.038746417E-1,-2.407226861E-1
1.083348594E0,-1.696527839E0,3.814544678E-1,-2.443878800E-1
1.085782188E0,-1.639717460E0,4.535365105E-1,-2.523291409E-1
1.088216667E0,-1.582906961E0,5.292837620E-1,-2.645464242E-1
1.090651927E0,-1.524874806E0,6.056418419E-1,-2.798180282E-1
1.093086354E0,-1.474173069E0,6.752804518E-1,-3.005874455E-1
1.095519948E0,-1.421638727E0,7.388103604E-1,-3.268546164E-1
1.097954427E0,-1.377656460E0,7.968425155E-1,-3.519000709E-1
1.100389688E0,-1.336728454E0,8.444899321E-1,-3.732803464E-1
1.102824115E0,-1.295189738E0,8.860287666E-1,-3.958823383E-1
1.105257708E0,-1.264646530E0,9.184045792E-1,-4.203169346E-1
1.107692240E0,-1.228605509E0,9.403957129E-1,-4.435297847E-1
1.110127448E0,-1.193786144E0,9.538347125E-1,-4.704078138E-1
1.112561927E0,-1.164464712E0,9.550564885E-1,-4.985076189E-1
1.114995521E0,-1.127812743E0,9.568890929E-1,-5.272182226E-1
1.117430000E0,-1.086884856E0,9.550564885E-1,-5.534854531E-1
1.119865261E0,-1.041680813E0,9.593325257E-1,-5.834177732E-1
1.122299688E0,-9.922009110E-1,9.721606970E-1,-6.047980785E-1
1.124733281E0,-9.341686964E-1,9.910975099E-1,-6.255674362E-1
1.127167761E0,-8.755257130E-1,1.013088584E0,-6.481694579E-1
1.129603021E0,-8.174935579E-1,1.048518658E0,-6.671062708E-1
1.132037448E0,-7.576287985E-1,1.082727194E0,-6.872648001E-1
1.134471042E0,-6.995966434E-1,1.116935611E0,-7.171971798E-1
1.136905573E0,-6.452296972E-1,1.149311423E0,-7.410209179E-1
1.139340781E0,-5.902518630E-1,1.182298064E0,-7.776727676E-1
1.141775208E0,-5.389392376E-1,1.213452220E0,-8.143246770E-1
1.144208854E0,-4.912917912E-1,1.245217204E0,-8.473113775E-1
1.146643333E0,-4.424225986E-1,1.281869054E0,-8.839632273E-1
1.149078542E0,-3.935534060E-1,1.321575284E0,-9.261128902E-1
1.151513021E0,-3.575123847E-1,1.365557551E0,-9.682625532E-1
1.153946615E0,-3.159735799E-1,1.408318043E0,-1.001249313E0
1.156381094E0,-2.811543047E-1,1.450467706E0,-1.041566372E0
1.158816354E0,-2.432806790E-1,1.495060802E0,-1.080050826E0
1.161250781E0,-2.121265978E-1,1.531712651E0,-1.112426639E0
1.163684375E0,-1.821942180E-1,1.565310240E0,-1.148467660E0
1.166118854E0,-1.602030843E-1,1.591577411E0,-1.182065248E0
1.168554115E0,-1.430988759E-1,1.616012096E0,-1.209554195E0
1.170988542E0,-1.290489882E-1,1.633116245E0,-1.241319060E0
1.173422136E0,-1.211077422E-1,1.643500924E0,-1.266975403E0
1.175856667E0,-1.204968840E-1,1.648387909E0,-1.292631745E0
1.178291875E0,-1.192751527E-1,1.653274775E0,-1.313401103E0
1.180726302E0,-1.211077422E-1,1.648998737E0,-1.340279222E0
1.183159948E0,-1.272163987E-1,1.646555305E0,-1.367157221E0
1.185594427E0,-1.333250403E-1,1.638003111E0,-1.387926579E0
1.188029636E0,-1.388228238E-1,1.630672812E0,-1.407474279E0
1.190464115E0,-1.473749280E-1,1.620898962E0,-1.427021980E0
1.192897708E0,-1.547053009E-1,1.611125112E0,-1.441682696E0
1.195332188E0,-1.577596366E-1,1.596464396E0,-1.454510927E0
1.197767448E0,-1.650900096E-1,1.583636165E0,-1.468560815E0
1.200201875E0,-1.766964346E-1,1.561645031E0,-1.475891113E0
1.202635469E0,-1.828050911E-1,1.540264845E0,-1.480167270E0
1.205070000E0,-1.980766952E-1,1.515219331E0,-1.485664964E0
1.207505208E0,-2.054070830E-1,1.484676123E0,-1.490551949E0
1.209939636E0,-2.170135081E-1,1.453521967E0,-1.497271419E0
1.212373229E0,-2.365611792E-1,1.428476572E0,-1.509488702E0
1.214807761E0,-2.469458878E-1,1.394878983E0,-1.524149418E0
1.217242969E0,-2.616066337E-1,1.364946604E0,-1.533312440E0
1.219677448E0,-2.768782377E-1,1.326462150E0,-1.549194932E0
1.222111042E0,-2.958150506E-1,1.285534263E0,-1.568131685E0
1.224545521E0,-3.135301471E-1,1.236054182E0,-1.584014177E0
1.226980781E0,-3.318560719E-1,1.185963273E0,-1.599896669E0
1.229415208E0,-3.532363474E-1,1.138315797E0,-1.613946557E0
1.231848802E0,-3.678970933E-1,1.088835835E0,-1.627385616E0
1.234283281E0,-3.764491975E-1,1.047297001E0,-1.630439878E0
1.236718542E0,-3.904990852E-1,1.010034204E0,-1.638992071E0
1.239152969E0,-4.039381146E-1,9.770476222E-1,-1.645100713E0
1.241586563E0,-4.094358981E-1,9.520021677E-1,-1.645100713E0
1.244021094E0,-4.198206067E-1,9.361196756E-1,-1.652431011E0
1.246456302E0,-4.222640693E-1,9.287892580E-1,-1.654263616E0
1.248890729E0,-4.247075021E-1,9.263458252E-1,-1.657928824E0
1.251324323E0,-4.289835691E-1,9.330653548E-1,-1.658539653E0
1.253758854E0,-4.308161736E-1,9.446717501E-1,-1.665870070E0
1.256194063E0,-4.350922108E-1,9.648302794E-1,-1.667702675E0
1.258628542E0,-4.381465316E-1,9.782693386E-1,-1.675033092E0
1.261062136E0,-4.442551732E-1,1.002092957E0,-1.684195995E0
1.263496615E0,-4.564724863E-1,1.027749300E0,-1.690915585E0
1.265931875E0,-4.638028443E-1,1.058292508E0,-1.700078487E0
1.268366302E0,-4.711332619E-1,1.091890097E0,-1.711074114E0
1.270799896E0,-4.796853364E-1,1.127320290E0,-1.724513054E0
1.273234375E0,-4.857939780E-1,1.162750363E0,-1.737341285E0
1.275669636E0,-4.925135076E-1,1.201845765E0,-1.755667210E0
1.278104063E0,-4.980112612E-1,1.236665010E0,-1.769106269E0
1.280537656E0,-5.102286339E-1,1.271484375E0,-1.784377813E0
1.282972188E0,-5.108394623E-1,1.301416755E0,-1.801482081E0
1.285407396E0,-5.157263875E-1,1.331349134E0,-1.814921021E0
1.287841823E0,-5.145046711E-1,1.357616305E0,-1.823473215E0
1.290275469E0,-5.138937831E-1,1.372887850E0,-1.834468722E0
1.292709948E0,-5.065634251E-1,1.380218267E0,-1.836912155E0
1.295145156E0,-5.022873878E-1,1.379607439E0,-1.841799140E0
1.297579636E0,-4.906809032E-1,1.375331283E0,-1.839355707E0
1.300013229E0,-4.735766947E-1,1.363724947E0,-1.833857894E0
1.302447708E0,-4.564724863E-1,1.348453283E0,-1.823473215E0
1.304882969E0,-4.326487482E-1,1.331959963E0,-1.811255932E0
1.307317396E0,-4.033272564E-1,1.314855695E0,-1.794762492E0
1.309750990E0,-3.733948767E-1,1.298362374E0,-1.777047515E0
1.312185469E0,-3.391864598E-1,1.277593017E0,-1.758721471E0
1.314620729E0,-3.013128340E-1,1.253158450E0,-1.741617322E0
1.317055156E0,-2.640500963E-1,1.227502108E0,-1.714739323E0
1.319488750E0,-2.200678289E-1,1.198791385E0,-1.690915585E0
1.321923281E0,-1.730312556E-1,1.162139535E0,-1.671367884E0
1.324358490E0,-1.321033090E-1,1.126098514E0,-1.650598526E0
1.326792917E0,-7.834722102E-2,1.083948851E0,-1.631661654E0
1.329226563E0,-2.275853232E-2,1.038133979E0,-1.611503124E0
1.331661042E0,3.038669936E-2,9.935409427E-1,-1.588901162E0
1.334096250E0,8.353193104E-2,9.458935261E-1,-1.569964290E0
1.336530729E0,1.336228400E-1,8.921374083E-1,-1.545529723E0
1.338964323E0,1.886006594E-1,8.383812904E-1,-1.524149418E0
1.341398802E0,2.411350310E-1,7.791274190E-1,-1.503380060E0
1.343834063E0,2.777869105E-1,7.198735476E-1,-1.481999755E0
1.346268490E0,3.242126405E-1,6.575653553E-1,-1.461841226E0
1.348702083E0,3.571993411E-1,5.903702378E-1,-1.447180510E0
1.351136615E0,3.852991164E-1,5.225642323E-1,-1.431908846E0
1.353571823E0,4.115662873E-1,4.559799731E-1,-1.417858958E0
1.356006250E0,4.298922420E-1,3.900065720E-1,-1.409917712E0
1.358439844E0,4.439421296E-1,3.301418424E-1,-1.400143981E0
1.360874375E0,4.543268085E-1,2.806617916E-1,-1.383039713E0
1.363309583E0,4.586028755E-1,2.415664643E-1,-1.375098467E0
1.365744063E0,4.610463381E-1,2.146884054E-1,-1.362881184E0
1.368177656E0,4.610463381E-1,1.963624656E-1,-1.345166087E0
1.370612136E0,4.549376965E-1,1.871995032E-1,-1.329894543E0
1.373047344E0,4.549376965E-1,1.920864135E-1,-1.314012051E0
1.375481823E0,4.469964504E-1,2.067471743E-1,-1.299351215E0
1.377915417E0,4.427203834E-1,2.238513827E-1,-1.280414462E0
1.380349896E0,4.366117418E-1,2.458425164E-1,-1.272473216E0
1.382785156E0,4.298922420E-1,2.727205455E-1,-1.263921142E0
1.385219583E0,4.231727123E-1,3.093724251E-1,-1.259645104E0
1.387653177E0,4.146206081E-1,3.478569090E-1,-1.254758120E0
1.390087708E0,4.054576457E-1,3.979478180E-1,-1.257812500E0
1.392522917E0,3.926294744E-1,4.535365105E-1,-1.257812500E0
1.394957344E0,3.865208328E-1,5.158447623E-1,-1.260255933E0
1.397390938E0,3.773578703E-1,5.879267454E-1,-1.262699366E0
1.399825469E0,3.779687285E-1,6.642848849E-1,-1.268197179E0
1.402260677E0,3.749144077E-1,7.467516065E-1,-1.274916649E0
1.404695104E0,3.767470121E-1,8.328835368E-1,-1.276749253E0
1.407128750E0,3.675840199E-1,9.226806164E-1,-1.279192686E0
1.409563229E0,3.639188409E-1,1.015532017E0,-1.281636119E0
1.411998490E0,3.590319157E-1,1.102274776E0,-1.277360082E0
1.414432917E0,3.565884531E-1,1.189628482E0,-1.268808007E0
1.416866511E0,3.529232740E-1,1.275149465E0,-1.261477590E0
1.419300990E0,3.468146324E-1,1.352729321E0,-1.248649478E0
1.421736250E0,3.376516700E-1,1.430920005E0,-1.235821366E0
1.424170677E0,3.345973194E-1,1.506667256E0,-1.216273665E0
1.426604271E0,3.254343569E-1,1.575694919E0,-1.198558569E0
1.429038750E0,3.217691779E-1,1.639835715E0,-1.179621816E0
1.431474011E0,3.119953275E-1,1.698478818E0,-1.160074115E0
1.433908438E0,3.003889024E-1,1.746126175E0,-1.147245884E0
1.436342031E0,2.875607610E-1,1.788275838E0,-1.131363511E0
1.438776563E0,2.692348063E-1,1.820040822E0,-1.116091847E0
1.441211771E0,2.515197396E-1,1.850584149E0,-1.108761430E0
1.443646250E0,2.307503372E-1,1.867688298E0,-1.094100714E0
1.446079844E0,2.075374722E-1,1.878683925E0,-1.079439998E0
1.448514323E0,1.818811595E-1,1.889679432E0,-1.067222714E0
1.450949583E0,1.409532130E-1,1.915946603E0,-1.039122939E0
1.453384011E0,9.269490093E-2,1.933661699E0,-1.004914522E0
1.455817604E0,3.283015639E-2,1.955042005E0,-9.627647996E-1
1.458252083E0,-3.619755432E-2,1.978865623E0,-9.120630026E-1
1.460687344E0,-1.070578545E-1,2.002689600E0,-8.570851684E-1
1.463121771E0,-1.803616285E-1,2.027124166E0,-8.027182221E-1
1.465555365E0,-2.469458878E-1,2.049115181E0,-7.446860671E-1
1.467989844E0,-3.116975427E-1,2.067441225E0,-6.860430837E-1
1.470425104E0,-3.795035183E-1,2.081490993E0,-6.249566078E-1
1.472859531E0,-4.430334568E-1,2.094930172E0,-5.638701320E-1
1.475293125E0,-5.028982162E-1,2.102260590E0,-5.095031857E-1
1.477727656E0,-5.639846921E-1,2.110812664E0,-4.581905305E-1
1.480162865E0,-6.207951307E-1,2.110812664E0,-4.227603674E-1
1.482597292E0,-6.782163978E-1,2.118142843E0,-3.879410923E-1
1.485030938E0,-7.362485528E-1,2.124251604E0,-3.653391004E-1
1.487465417E0,-7.900046706E-1,2.132192850E0,-3.494566083E-1
1.489900625E0,-8.468150496E-1,2.148075342E0,-3.366284668E-1
1.492335104E0,-8.956842422E-1,2.167012215E0,-3.329632580E-1
1.494768698E0,-9.427208304E-1,2.185948849E0,-3.292980790E-1
1.497203177E0,-9.787618518E-1,2.209161758E0,-3.347958624E-1
1.499638438E0,-1.009915829E0,2.232374668E0,-3.439588249E-1
1.502072865E0,-1.027020097E0,2.261085272E0,-3.543435335E-1
1.504506458E0,-1.038626552E0,2.289795876E0,-3.702260256E-1
1.506940938E0,-1.046567798E0,2.316673994E0,-3.854976296E-1
1.509376198E0,-1.052065611E0,2.339886904E0,-4.050453007E-1
1.511810625E0,-1.039848208E0,2.352104187E0,-4.300907552E-1
1.514244219E0,-1.027020097E0,2.357601881E0,-4.545253515E-1
1.516678750E0,-1.006250739E0,2.363099813E0,-4.722404182E-1
1.519113958E0,-9.873139262E-1,2.358212709E0,-4.911772311E-1
1.521548438E0,-9.549381137E-1,2.352715015E0,-5.119466186E-1
1.523982031E0,-9.268383384E-1,2.339276075E0,-5.351594687E-1
1.526416511E0,-8.932408094E-1,2.317284822E0,-5.565397739E-1
1.528851719E0,-8.553671837E-1,2.281854630E0,-5.754765868E-1
1.531286198E0,-8.260456920E-1,2.231153011E0,-5.907481909E-1
1.533719792E0,-7.912263870E-1,2.167623043E0,-6.035763621E-1
1.536154271E0,-7.612940073E-1,2.100427866E0,-6.109067202E-1
1.538589531E0,-7.344159484E-1,2.032011032E0,-6.066306829E-1
1.541023958E0,-7.069270611E-1,1.964204907E0,-5.999111533E-1
1.543457552E0,-6.831033230E-1,1.900674939E0,-5.901373029E-1
1.545892031E0,-6.623339057E-1,1.840199351E0,-5.773091316E-1
1.548327292E0,-6.415645480E-1,1.779112935E0,-5.632592440E-1
1.550761719E0,-6.171299219E-1,1.725356817E0,-5.565397739E-1
1.553195313E0,-5.994148254E-1,1.678931117E0,-5.431007147E-1
1.555629792E0,-5.835323930E-1,1.638614058E0,-5.369920731E-1
1.558065052E0,-5.664281845E-1,1.603794694E0,-5.259965062E-1
1.560499479E0,-5.487130880E-1,1.566532016E0,-5.247747898E-1
1.562933073E0,-5.291653872E-1,1.538432240E0,-5.204987526E-1
1.565367604E0,-5.083960295E-1,1.508499861E0,-5.150009394E-1
1.567802813E0,-4.870156944E-1,1.484676123E0,-5.162227154E-1
1.570237292E0,-4.662463069E-1,1.466350198E0,-5.174444318E-1
1.572670886E0,-4.460877776E-1,1.455354571E0,-5.137792230E-1
1.575105365E0,-4.302052855E-1,1.455965519E0,-5.076705813E-1
1.577540625E0,-4.112685025E-1,1.462074161E0,-5.082814693E-1
1.579975052E0,-3.978294730E-1,1.476124048E0,-5.082814693E-1
1.582408646E0,-3.856121600E-1,1.501780391E0,-5.046162605E-1
1.584843125E0,-3.788926601E-1,1.534156203E0,-5.046162605E-1
1.587278386E0,-3.654536307E-1,1.570197225E0,-5.095031857E-1
1.589712813E0,-3.587341309E-1,1.612346888E0,-5.156118274E-1
1.592146406E0,-3.391864598E-1,1.655107379E0,-5.229421854E-1
1.594580886E0,-3.178061843E-1,1.699089646E0,-5.327160358E-1
1.597016146E0,-2.939824760E-1,1.746126175E0,-5.363812447E-1
1.599450573E0,-2.591631711E-1,1.796217084E0,-5.437116027E-1
1.601884167E0,-2.267873585E-1,1.849362373E0,-5.492093563E-1
1.604318698E0,-1.938006431E-1,1.901285887E0,-5.559288859E-1
1.606753906E0,-1.510401219E-1,1.945878983E0,-5.693678856E-1
1.609188333E0,-1.131665111E-1,1.984974384E0,-5.858612657E-1
1.611621979E0,-7.712548971E-2,2.010020018E0,-6.078523993E-1
1.614056458E0,-5.208003893E-2,2.018572092E0,-6.310652494E-1
1.616491719E0,-2.642371878E-2,2.014296055E0,-6.567215919E-1
1.618926146E0,-1.298469678E-2,1.992915511E0,-6.848213673E-1
1.621359740E0,1.065192744E-3,1.959318042E0,-7.116993666E-1
1.623794219E0,1.878026873E-2,1.910448790E0,-7.428535223E-1
1.626229479E0,3.527361900E-2,1.859136224E0,-7.795053720E-1
1.628663906E0,4.993437231E-2,1.793773651E0,-8.106594682E-1
1.631097500E0,6.154080108E-2,1.721080780E0,-8.497548103E-1
1.633531979E0,7.497982681E-2,1.634338021E0,-8.900718689E-1
1.635967240E0,8.353193104E-2,1.547595143E0,-9.322215319E-1
1.638401667E0,7.803414762E-2,1.463906765E0,-9.719277620E-1
1.640835261E0,6.581684947E-2,1.375331283E0,-1.012244821E0
1.643269792E0,5.726474524E-2,1.284923315E0,-1.052561879E0
1.645705000E0,4.932350665E-2,1.191461086E0,-1.100820184E0
1.648139427E0,4.260399193E-2,1.098609567E0,-1.160074115E0
1.650573021E0,3.588448092E-2,1.007590771E0,-1.211997628E0
1.653007552E0,3.283015639E-2,9.251241088E-1,-1.269418836E0
1.655442761E0,3.221929446E-2,8.609833121E-1,-1.321953297E0
1.657877240E0,3.405188769E-2,8.096706867E-1,-1.372655034E0
1.660310833E0,3.405188769E-2,7.742404938E-1,-1.406252623E0
1.662745313E0,4.443658888E-2,7.394212484E-1,-1.435574055E0
1.665180573E0,5.421042442E-2,7.149866223E-1,-1.454510927E0
1.667615000E0,7.131463289E-2,6.936063766E-1,-1.453899980E0
1.670048594E0,9.758181870E-2,6.697826385E-1,-1.452678323E0
1.672483073E0,1.152969003E-1,6.624522805E-1,-1.443515301E0
1.674918333E0,1.256815940E-1,6.765021682E-1,-1.430076361E0
1.677352761E0,1.305685192E-1,6.954389811E-1,-1.406863451E0
1.679786354E0,1.366771609E-1,7.210952640E-1,-1.378152847E0
1.682220833E0,1.397314817E-1,7.455298901E-1,-1.355550766E0
1.684656094E0,1.330119669E-1,7.791274190E-1,-1.328672767E0
1.687090521E0,1.275141835E-1,8.267748952E-1,-1.304238200E0
1.689524115E0,1.091882437E-1,8.909156919E-1,-1.287744880E0
1.691958646E0,9.269490093E-2,9.617759585E-1,-1.266364574E0
1.694393854E0,7.253636420E-2,1.041188359E0,-1.249871254E0
1.696828333E0,6.092993543E-2,1.116935611E0,-1.229712725E0
1.699261927E0,5.421042442E-2,1.186574101E0,-1.212608457E0
1.701696406E0,5.176696554E-2,1.250104070E0,-1.204056382E0
1.704131615E0,4.626918212E-2,1.303860188E0,-1.191839099E0
1.706566094E0,4.321485758E-2,1.357005358E0,-1.181454420E0
1.708999688E0,4.504745454E-2,1.412594080E0,-1.174124002E0
1.711434167E0,4.810177535E-2,1.475513101E0,-1.170458794E0
1.713869427E0,5.726474524E-2,1.546984315E0,-1.168015361E0
1.716303854E0,6.764944643E-2,1.622731566E0,-1.169847965E0
1.718737448E0,7.559068501E-2,1.688704967E0,-1.175345659E0
1.721171927E0,8.169934154E-2,1.743071914E0,-1.179621816E0
1.723607188E0,8.780798316E-2,1.776058555E0,-1.182065248E0
1.726041615E0,8.292106539E-2,1.786443353E0,-1.175956607E0
1.728475208E0,7.986673713E-2,1.771171689E0,-1.172902226E0
1.730909740E0,7.559068501E-2,1.736352444E0,-1.157019734E0
1.733344948E0,7.131463289E-2,1.677709341E0,-1.144191623E0
1.735779427E0,7.070377469E-2,1.608070850E0,-1.119146109E0
1.738213021E0,6.215166301E-2,1.537210464E0,-1.083105087E0
1.740647500E0,5.176696554E-2,1.460241556E0,-1.037290335E0
1.743082708E0,3.527361900E-2,1.366779208E0,-9.835342169E-1
1.745517188E0,2.366718650E-2,1.284923315E0,-9.322215319E-1
1.747950781E0,1.267162338E-2,1.207954407E0,-8.919044733E-1
1.750385261E0,2.897787839E-3,1.134650588E0,-8.546417356E-1
1.752820521E0,4.543289542E-4,1.066844702E0,-8.186007142E-1
1.755254948E0,4.543289542E-4,1.003925562E0,-7.862249017E-1
1.757688542E0,6.562974304E-3,9.532238841E-1,-7.562925220E-1
1.760123021E0,1.694767550E-2,9.086307287E-1,-7.068125010E-1
1.762558281E0,3.405188769E-2,8.762549162E-1,-6.493911743E-1
1.764992708E0,5.787561089E-2,8.536529541E-1,-5.938025117E-1
1.767426302E0,1.104099751E-1,8.964134455E-1,-5.241639018E-1
1.769860781E0,8.902971447E-2,8.286074996E-1,-4.655209184E-1
1.772296042E0,1.018578708E-1,8.451008201E-1,-3.995475173E-1
1.774730469E0,1.116317064E-1,8.677028418E-1,-3.500674665E-1
1.777164115E0,1.195729524E-1,9.165719748E-1,-3.054743409E-1
1.779598594E0,1.201838106E-1,9.947626591E-1,-2.688224614E-1
1.782033802E0,1.116317064E-1,1.085170627E0,-2.504965365E-1
1.784468281E0,1.067447960E-1,1.185963273E0,-2.401118279E-1
1.786901875E0,9.636008739E-2,1.294697165E0,-2.382792383E-1
1.789336354E0,8.658625185E-2,1.397933364E0,-2.462204695E-1
1.791771615E0,7.192550600E-2,1.493228197E0,-2.651572824E-1
1.794206042E0,5.482129008E-2,1.573251486E0,-2.999765575E-1
1.796639636E0,2.855410427E-2,1.645944357E0,-3.256329000E-1
1.799074115E0,3.508651629E-3,1.705809116E0,-3.427371085E-1
1.801509375E0,-2.398025990E-2,1.765063047E0,-3.525109291E-1
1.803943802E0,-4.841485247E-2,1.830425501E0,-3.500674665E-1
1.806377396E0,-6.674079597E-2,1.890901208E0,-3.421262503E-1
1.808811875E0,-8.079068363E-2,1.945268154E0,-3.335741162E-1
1.811247136E0,-9.117537737E-2,1.994137287E0,-3.231894374E-1
1.813681563E0,-9.117537737E-2,2.033843517E0,-3.066960871E-1
1.816115156E0,-7.895807922E-2,2.052780390E0,-2.749311030E-1
1.818549688E0,-6.002127752E-2,2.052780390E0,-2.358357757E-1
1.820984896E0,-3.558668867E-2,2.030178547E0,-1.863557249E-1
1.823419375E0,-7.674023509E-4,1.988028646E0,-1.222149432E-1
1.825852969E0,3.527361900E-2,1.930607319E0,-5.379809067E-2
1.828287448E0,7.009290159E-2,1.862801433E0,2.866864577E-2
1.830722656E0,1.018578708E-1,1.792551994E0,1.227418184E-1
1.833157136E0,1.275141835E-1,1.724745989E0,2.186475843E-1
1.835590729E0,1.531705111E-1,1.655107379E0,3.121098876E-1
1.838025208E0,1.659986675E-1,1.597075224E0,4.086264968E-1
1.840460469E0,1.757725030E-1,1.549427748E0,5.057539940E-1
1.842894896E0,1.769942343E-1,1.515219331E0,6.114335656E-1
1.845328490E0,1.782159656E-1,1.491395593E0,7.177240849E-1
1.847762969E0,1.708855927E-1,1.479178309E0,8.337883353E-1
1.850198229E0,1.629443467E-1,1.471237063E0,9.529069662E-1
1.852632656E0,1.568357050E-1,1.460241556E0,1.081188560E0
1.855066250E0,1.507270485E-1,1.466350198E0,1.218633175E0
1.857500781E0,1.378988922E-1,1.485286951E0,1.370127559E0
1.859935990E0,1.238490045E-1,1.505445480E0,1.535671949E0
1.862370469E0,1.146860272E-1,1.532323599E0,1.697551012E0
1.864804063E0,1.079665124E-1,1.558590770E0,1.849656343E0
1.867238542E0,1.073556542E-1,1.575084090E0,1.984657526E0
1.869673802E0,9.452749789E-2,1.573862314E0,2.108663082E0
1.872108229E0,7.986673713E-2,1.555536389E0,2.214953423E0
1.874541823E0,6.581684947E-2,1.525604010E0,2.293755054E0
1.876976302E0,5.482129008E-2,1.486508727E0,2.344456911E0
1.879411563E0,3.893880546E-2,1.459019780E0,2.373778343E0
1.881845990E0,2.549978159E-2,1.465739369E0,2.379886866E0
1.884279583E0,4.730381072E-3,1.507889032E0,2.359117508E0
1.886714115E0,-2.275853232E-2,1.584247112E0,2.328574419E0
1.889149323E0,-4.536052421E-2,1.677098513E0,2.302917957E0
1.891583750E0,-7.101684809E-2,1.782167196E0,2.275429010E0
1.894017344E0,-9.239710867E-2,1.901896715E0,2.237555504E0
1.896451875E0,-1.088904589E-1,2.030789375E0,2.163029909E0
1.898887083E0,-1.247729361E-1,2.170677423E0,2.074454546E0
1.901321563E0,-1.418771446E-1,2.313008785E0,1.980992317E0
1.903755156E0,-1.565379053E-1,2.457172871E0,1.890584350E0
1.906189636E0,-1.699769199E-1,2.601947784E0,1.805063248E0
1.908624896E0,-1.791398972E-1,2.733894587E0,1.729315996E0
1.911059323E0,-1.821942180E-1,2.859732628E0,1.648071051E0
1.913492917E0,-1.858594120E-1,2.970910072E0,1.566215158E0
1.915927396E0,-1.870811433E-1,3.058874607E0,1.484970093E0
1.918362656E0,-1.907463223E-1,3.109576464E0,1.393340468E0
1.920797083E0,-1.962441057E-1,3.137065411E0,1.304154158E0
1.923230677E0,-1.889137328E-1,3.134011030E0,1.209470153E0
1.925665156E0,-1.736421138E-1,3.099191666E0,1.118451357E0
1.928100417E0,-1.473749280E-1,3.035050869E0,1.042093277E0
1.930534844E0,-1.308815777E-1,2.946475506E0,9.889479876E-1
1.932968438E0,-1.113339067E-1,2.857900143E0,9.571830034E-1
1.935402969E0,-9.239710867E-2,2.758939981E0,9.504635334E-1
1.937838177E0,-7.590375841E-2,2.669142962E0,9.700111747E-1
1.940272604E0,-4.841485247E-2,2.595228195E0,1.009106517E0
1.942706250E0,-2.520199120E-2,2.522535324E0,1.076301694E0
1.945140729E0,-5.654320121E-3,2.438235998E0,1.151437998E0
1.947575938E0,-9.930372238E-3,2.306900263E0,1.219244003E0
1.950010417E0,-8.708644658E-3,2.184116364E0,1.294991255E0
1.952444011E0,-3.821726888E-3,2.017350197E0,1.375014544E0
1.954878490E0,-1.082795858E-1,1.967870116E0,1.478250623E0
1.957313750E0,2.549978159E-2,1.688094020E0,1.567436934E0
1.959748177E0,4.138226435E-2,1.509110689E0,1.671283841E0
1.962181771E0,6.398425996E-2,1.330127358E0,1.789180756E0
1.964616302E0,8.536452055E-2,1.130985498E0,1.913797140E0
1.967051511E0,1.152969003E-1,8.994677663E-1,2.037191868E0
1.969485938E0,1.501161903E-1,6.893303394E-1,2.164251804E0
1.971919531E0,1.800485551E-1,4.541473687E-1,2.266876936E0
1.974354063E0,2.093700618E-1,2.293491662E-1,2.352398157E0
1.976789271E0,2.454110831E-1,2.470947802E-2,2.418371439E0
1.979223750E0,2.814520895E-1,-1.756541431E-1,2.469073296E0
1.981657344E0,3.071084321E-1,-3.986197710E-1,2.492285967E0
1.984091823E0,3.413168490E-1,-6.087571979E-1,2.490453482E0
1.986527031E0,3.773578703E-1,-7.718580961E-1,2.502670765E0
1.988961511E0,4.152314663E-1,-9.141895771E-1,2.516109705E0
1.991395104E0,4.402769208E-1,-1.077290535E0,2.505725145E0
1.993829583E0,4.555485547E-1,-1.228784919E0,2.487399101E0
1.996264844E0,4.659332633E-1,-1.349125266E0,2.459299326E0
1.998699271E0,4.738744795E-1,-1.430370331E0,2.442195177E0
2.001132865E0,4.744853675E-1,-1.463967919E0,2.433032274E0
2.003567344E0,4.702093005E-1,-1.462746143E0,2.417760611E0
2.006002604E0,4.592137337E-1,-1.428537726E0,2.401267290E0
2.008437031E0,4.488290250E-1,-1.375392556E0,2.384773970E0
2.010870625E0,4.372226000E-1,-1.309419155E0,2.373167515E0
2.013305156E0,4.152314663E-1,-1.242834806E0,2.357285023E0
2.015740365E0,3.846882284E-1,-1.176250577E0,2.340180874E0
2.018174792E0,3.462037742E-1,-1.099892497E0,2.313913584E0
2.020608438E0,3.083301485E-1,-1.021090984E0,2.276650906E0
2.023042917E0,2.759543061E-1,-9.441219568E-1,2.229614258E0
2.025478125E0,2.344155163E-1,-8.598226309E-1,2.175858259E0
2.027912604E0,1.898223907E-1,-7.651385665E-1,2.119047642E0
2.030346198E0,1.537813693E-1,-6.637350321E-1,2.065291643E0
2.032780677E0,1.146860272E-1,-5.623314977E-1,2.016422510E0
2.035215938E0,7.986673713E-2,-4.645931721E-1,1.967553258E0
2.037650365E0,5.909734219E-2,-3.857916296E-1,1.904634237E0
2.040083958E0,3.832793981E-2,-3.192073703E-1,1.833163023E0
2.042518438E0,2.733237669E-2,-2.666729987E-1,1.778185248E0
2.044953698E0,1.694767550E-2,-2.153603584E-1,1.730537772E0
2.047388125E0,-7.674023509E-4,-1.701563597E-1,1.698772788E0
2.049821719E0,-1.115209982E-2,-1.457217783E-1,1.664564371E0
2.052256250E0,-3.558668867E-2,-1.249523833E-1,1.652347088E0
2.054691458E0,-6.246474013E-2,-1.047938466E-1,1.646849275E0
2.057125886E0,-1.015600711E-1,-8.768963069E-2,1.659677505E0
2.059559479E0,-1.534835845E-1,-7.913752645E-2,1.682890296E0
2.061994011E0,-1.950223744E-1,-8.402444422E-2,1.706714034E0
2.064429219E0,-2.365611792E-1,-1.200654656E-1,1.713433504E0
2.066863698E0,-2.744348049E-1,-1.835953891E-1,1.706103206E0
2.069297292E0,-3.043671548E-1,-2.556774318E-1,1.706714034E0
2.071731771E0,-3.220822513E-1,-3.338681161E-1,1.718931317E0
2.074167031E0,-3.416299224E-1,-4.096153378E-1,1.734813809E0
2.076601458E0,-3.514037430E-1,-4.774213433E-1,1.762302756E0
2.079035052E0,-3.507928848E-1,-5.440055728E-1,1.795900345E0
2.081469531E0,-3.599558473E-1,-6.038702726E-1,1.827665210E0
2.083904792E0,-3.721731603E-1,-6.539611816E-1,1.849045515E0
2.086339219E0,-3.764491975E-1,-6.973326206E-1,1.860651970E0
2.088772813E0,-3.776709437E-1,-6.955000162E-1,1.871647477E0
2.091207292E0,-3.874447644E-1,-7.571973205E-1,1.855154157E0
2.093642552E0,-3.788926601E-1,-7.584190965E-1,1.852099895E0
2.096076979E0,-3.678970933E-1,-7.455909252E-1,1.852710724E0
2.098510573E0,-3.465168178E-1,-7.278758287E-1,1.836828232E0
2.100945104E0,-3.410190344E-1,-6.881696582E-1,1.830108762E0
2.103380313E0,-3.342995346E-1,-6.600698829E-1,1.802619815E0
2.105814740E0,-3.397973180E-1,-6.295266151E-1,1.783072114E0
2.108248386E0,-3.526254892E-1,-5.916529894E-1,1.771465659E0
2.110682865E0,-3.575123847E-1,-5.580554605E-1,1.753750682E0
2.113118073E0,-3.813361228E-1,-5.061319470E-1,1.752528906E0
2.115552552E0,-4.027163982E-1,-4.566519260E-1,1.742144227E0
2.117986146E0,-4.179880023E-1,-4.193891883E-1,1.725650787E0
2.120420625E0,-4.320378900E-1,-3.980089128E-1,1.707935810E0
2.122855886E0,-4.509747028E-1,-3.815155625E-1,1.705492258E0
2.125290313E0,-4.570833445E-1,-3.802938461E-1,1.701216221E0
2.127723906E0,-4.723549783E-1,-3.729634583E-1,1.704270601E0
2.130158386E0,-4.876265824E-1,-3.534157872E-1,1.715266109E0
2.132593646E0,-5.224459171E-1,-3.589135706E-1,1.605310440E0
2.135028073E0,-5.749802589E-1,-4.963581264E-1,1.436711788E0
2.137461667E0,-5.896410346E-1,-6.148658395E-1,1.342638612E0
2.139896198E0,-5.682607293E-1,-6.631242037E-1,1.329810500E0
2.142331406E0,-5.505456924E-1,-6.582372785E-1,1.359742880E0
2.144765833E0,-5.273328424E-1,-6.307483315E-1,1.368294954E0
2.147199427E0,-5.035091043E-1,-5.934855938E-1,1.368294954E0
2.149633958E0,-4.888482988E-1,-5.684401393E-1,1.369516730E0
2.152069167E0,-4.668571651E-1,-5.617206097E-1,1.377457976E0
2.154503646E0,-4.479203820E-1,-5.666075349E-1,1.390897036E0
2.156937240E0,-4.295944273E-1,-5.678293109E-1,1.383566618E0
2.159371719E0,-4.185988605E-1,-5.574445724E-1,1.365851521E0
2.161806979E0,-4.185988605E-1,-5.372860432E-1,1.376236200E0
2.164241406E0,-4.216531813E-1,-5.250687599E-1,1.418385863E0
2.166675000E0,-4.161553979E-1,-5.183492303E-1,1.456870317E0
2.169109479E0,-4.192097187E-1,-4.829191267E-1,1.492911339E0
2.171544740E0,-4.253183901E-1,-4.926929474E-1,1.504517794E0
2.173979167E0,-4.118793607E-1,-5.562228560E-1,1.493522286E0
2.176412761E0,-4.143228233E-1,-6.148658395E-1,1.506961226E0
2.178847292E0,-3.856121600E-1,-6.820609570E-1,1.472752810E0
2.181282500E0,-3.471277058E-1,-7.028303742E-1,1.440376997E0
2.183716927E0,-2.890955508E-1,-6.802284122E-1,1.389064431E0
2.186150521E0,-2.164026499E-1,-6.295266151E-1,1.316982388E0
2.188585052E0,-1.424880177E-1,-5.586662889E-1,1.264447927E0
2.191020261E0,-7.529290020E-2,-4.988015890E-1,1.175872564E0
2.193454740E0,-1.664988324E-2,-4.389368594E-1,1.105012298E0
2.195888333E0,3.832793981E-2,-3.967871964E-1,1.071414709E0
2.198322813E0,9.086230397E-2,-3.662439585E-1,1.024989009E0
2.200758021E0,1.336228400E-1,-3.454745412E-1,9.913914204E-1
2.203192500E0,1.684421301E-1,-3.424202204E-1,9.852827787E-1
2.205626094E0,2.002070993E-1,-3.503614664E-1,9.596264958E-1
2.208060573E0,2.350263894E-1,-3.686874211E-1,9.571830034E-1
2.210495833E0,2.674022019E-1,-3.937328756E-1,9.376353621E-1
2.212930261E0,2.967237234E-1,-4.090044796E-1,9.278615117E-1
2.215363854E0,3.284886777E-1,-4.151131213E-1,9.480200410E-1
2.217798333E0,3.535341322E-1,-4.120588005E-1,9.718437791E-1
2.220233594E0,3.779687285E-1,-4.126696587E-1,9.901697636E-1
2.222668021E0,3.950729370E-1,-4.157240093E-1,1.010939121E0
2.225101615E0,4.036250412E-1,-4.090044796E-1,1.004830480E0
2.227536146E0,4.170640707E-1,-4.016741216E-1,1.010328293E0
2.229971354E0,4.280596375E-1,-3.888459504E-1,1.032319427E0
2.232405781E0,4.286704957E-1,-3.692982793E-1,1.050645351E0
2.234839427E0,4.243944585E-1,-3.326463997E-1,1.048201919E0
2.237273906E0,4.213401377E-1,-2.892749906E-1,1.072025537E0
2.239709115E0,4.127880037E-1,-2.410166711E-1,1.106844902E0
2.242143594E0,4.017924666E-1,-1.829845160E-1,1.101957917E0
2.244577188E0,3.859099746E-1,-1.164002717E-1,1.098292828E0
2.247011667E0,3.675840199E-1,-6.020072103E-2,1.108677506E0
2.249446875E0,3.535341322E-1,-7.666352205E-3,1.078745127E0
2.251881354E0,3.400951028E-1,4.181368649E-2,1.052477956E0
2.254314948E0,3.284886777E-1,9.801324457E-2,1.053699613E0
2.256749427E0,3.168822527E-1,1.444389671E-1,1.054921389E0
2.259184688E0,3.077192903E-1,1.847560406E-1,1.056143165E0
2.261619115E0,2.924476564E-1,2.177427411E-1,1.072025537E0
2.264052708E0,2.796195149E-1,2.464533746E-1,1.062862635E0
2.266487188E0,2.710674107E-1,2.763857245E-1,1.054921389E0
2.268922448E0,2.527414560E-1,2.989877164E-1,1.053088784E0
2.271356875E0,2.460219562E-1,2.922682166E-1,1.042093277E0
2.273790469E0,2.350263894E-1,2.873812914E-1,1.013382554E0
2.276225000E0,2.301394641E-1,2.647792995E-1,9.834501743E-1
2.278660208E0,2.295286059E-1,2.256839722E-1,9.504635334E-1
2.281094636E0,2.289177328E-1,1.817017198E-1,9.260289073E-1
2.283528281E0,2.240308225E-1,1.309999377E-1,9.058703780E-1
2.285962761E0,2.087592036E-1,8.457421511E-2,8.710510731E-1
2.288397969E0,1.922658533E-1,4.242455214E-2,8.398969769E-1
2.290832448E0,1.611117572E-1,1.921169646E-2,8.050777316E-1
2.293266042E0,1.214055419E-1,2.748891129E-4,7.763670683E-1
2.295700521E0,7.497982681E-2,2.748891129E-4,7.403260469E-1
2.298135781E0,2.000200003E-2,8.826995268E-3,7.085610628E-1
2.300570208E0,-3.925188258E-2,2.776380070E-2,6.676331758E-1
2.303003802E0,-1.003383398E-1,6.075049564E-2,6.218183041E-1
2.305438281E0,-1.736421138E-1,9.862411022E-2,5.729491115E-1
2.307873542E0,-2.451132834E-1,1.401629150E-1,5.271342397E-1
2.310307969E0,-3.208605051E-1,1.731496155E-1,4.959801435E-1
2.312741563E0,-3.984403312E-1,2.067471743E-1,4.697129726E-1
2.315176094E0,-4.845722616E-1,2.342360765E-1,4.465001225E-1
2.317611302E0,-5.621520877E-1,2.519511580E-1,4.281741679E-1
2.320045729E0,-6.391210556E-1,2.684444785E-1,4.061830342E-1
2.322479323E0,-6.916554570E-1,3.197571337E-1,3.982418180E-1
2.324913854E0,-7.356376648E-1,3.600741923E-1,3.860245049E-1
2.327349063E0,-7.808416486E-1,3.826761842E-1,3.652551174E-1
2.329783542E0,-8.077197075E-1,4.132194221E-1,3.463183045E-1
2.332217136E0,-8.388738036E-1,4.413191974E-1,3.316575587E-1
2.334651615E0,-8.761366010E-1,4.345996976E-1,3.200511336E-1
2.337086823E0,-9.372230172E-1,3.765675426E-1,3.139424622E-1
2.339521302E0,-1.000752926E0,3.283092380E-1,3.231054544E-1
2.341954896E0,-1.055119872E0,3.026529253E-1,3.347118795E-1
2.344389375E0,-1.094826102E0,2.953225374E-1,3.481509089E-1
2.346824636E0,-1.122315049E0,2.983768582E-1,3.603681922E-1
2.349259063E0,-1.137586594E0,3.020420372E-1,3.725854754E-1
2.351692656E0,-1.140640974E0,3.057072461E-1,3.884679675E-1
2.354127188E0,-1.135143161E0,3.093724251E-1,4.055721760E-1
2.356562396E0,-1.129645348E0,3.032637835E-1,4.177894890E-1
2.358996823E0,-1.112541199E0,2.849378288E-1,4.367262721E-1
2.361430417E0,-1.094826102E0,2.598923743E-1,4.501653016E-1
2.363864948E0,-1.068558931E0,2.317926288E-1,4.709347188E-1
2.366300156E0,-1.039848208E0,2.030819803E-1,4.819302559E-1
2.368734636E0,-1.008083344E0,1.652083695E-1,5.020887852E-1
2.371168229E0,-9.787618518E-1,1.273347586E-1,5.253016949E-1
2.373602708E0,-9.494403601E-1,9.068286419E-2,5.515688658E-1
2.376037917E0,-9.219514132E-1,6.197222322E-2,5.753926039E-1
2.378472396E0,-8.859103918E-1,4.608974233E-2,6.071575284E-1
2.380905990E0,-8.547562957E-1,2.776380070E-2,6.523615122E-1
2.383340469E0,-8.260456920E-1,1.860083081E-2,6.987872720E-1
2.385775729E0,-7.887828946E-1,4.550942220E-3,7.403260469E-1
2.388210156E0,-7.545744777E-1,-1.560759358E-2,7.922495604E-1
2.390643750E0,-7.209769487E-1,-1.072067581E-2,8.484491110E-1
2.393078229E0,-6.831033230E-1,1.310304832E-2,9.028160572E-1
2.395513490E0,-6.476731896E-1,2.043342404E-2,9.565721750E-1
2.397947917E0,-6.146864891E-1,2.470947802E-2,9.968892336E-1
2.400381511E0,-5.890301466E-1,3.509417549E-2,1.032319427E0
2.402816042E0,-5.615412593E-1,2.532034181E-2,1.056143165E0
2.405251250E0,-5.309979916E-1,-8.277216926E-3,1.064695239E0
2.407685729E0,-5.028982162E-1,-5.164861307E-2,1.068360448E0
2.410119323E0,-4.680789113E-1,-1.005177945E-1,1.067749500E0
2.412553802E0,-4.332596064E-1,-1.310610175E-1,1.077523351E0
2.414989011E0,-3.953860104E-1,-1.487760991E-1,1.095238447E0
2.417423490E0,-3.507928848E-1,-1.756541431E-1,1.103790522E0
2.419857083E0,-3.080323637E-1,-1.884822994E-1,1.109288335E0
2.422291563E0,-2.597740293E-1,-1.958126873E-1,1.106844902E0
2.424726823E0,-2.200678289E-1,-1.793193370E-1,1.103790522E0
2.427161250E0,-1.748638451E-1,-1.634368449E-1,1.096460223E0
2.429594844E0,-1.339359134E-1,-1.420565844E-1,1.079355955E0
2.432029323E0,-9.178625047E-2,-1.194545999E-1,1.066527843E0
2.434464583E0,-6.185387447E-2,-8.341357857E-2,1.048201919E0
2.436899011E0,-2.092593536E-2,-6.020072103E-2,1.020102143E0
2.439332604E0,1.022816449E-2,-2.904661745E-2,9.987218380E-1
2.441767136E0,3.893880546E-2,3.940077499E-3,9.895588160E-1
2.444202344E0,8.108846843E-2,3.203985095E-2,9.846719503E-1
2.446636771E0,1.128534377E-1,6.869173795E-2,9.981110096E-1
2.449070365E0,1.458401382E-1,9.923497587E-2,1.002997875E0
2.451504896E0,1.739399135E-1,1.395520568E-1,1.007884741E0
2.453940104E0,1.928767264E-1,1.676518321E-1,1.006663084E0
2.456374583E0,2.032614201E-1,1.939190179E-1,9.950566292E-1
2.458808177E0,1.928767264E-1,2.232405245E-1,9.755089879E-1
2.461242656E0,1.983744949E-1,2.311817557E-1,9.480200410E-1
2.463677917E0,1.898223907E-1,2.635575831E-1,9.290832281E-1
2.466112344E0,1.824920177E-1,2.959333956E-1,9.138116241E-1
2.468545938E0,1.818811595E-1,3.228114545E-1,8.802140951E-1
2.470980417E0,1.721073240E-1,3.331961632E-1,8.460056186E-1
2.473415677E0,1.672203988E-1,3.374722004E-1,8.001908064E-1
2.475850104E0,1.580574363E-1,3.313635588E-1,7.610954642E-1
2.478283698E0,1.556139737E-1,3.112050295E-1,7.091719508E-1
2.480718229E0,1.440075338E-1,2.971551418E-1,6.609136462E-1
2.483153438E0,1.305685192E-1,2.898247540E-1,6.193748116E-1
2.485587865E0,1.214055419E-1,2.788291872E-1,5.796686411E-1
2.488021511E0,1.043013334E-1,2.641684413E-1,5.405732989E-1
2.490455990E0,8.964057267E-2,2.513402700E-1,5.112518072E-1
2.492891198E0,6.764944643E-2,2.354578078E-1,4.831520319E-1
2.495325677E0,5.604301766E-2,2.067471743E-1,4.581065476E-1
2.497759271E0,5.359955877E-2,1.804799885E-1,4.403914809E-1
2.500193750E0,6.276252866E-2,1.682626903E-1,4.361154139E-1
2.502629011E0,7.803414762E-2,1.584888548E-1,4.330610931E-1
2.505063438E0,9.574922919E-2,1.554345340E-1,4.373371601E-1
2.507497031E0,1.183512211E-1,1.621540487E-1,4.367262721E-1
2.509931511E0,1.385097504E-1,1.994168013E-1,4.361154139E-1
2.512366771E0,1.556139737E-1,2.299600244E-1,4.287850559E-1
2.514801198E0,1.696638614E-1,2.953225374E-1,4.263415933E-1
2.517234792E0,1.873789430E-1,3.551872969E-1,4.245089889E-1
2.519669323E0,2.026505470E-1,4.052781761E-1,4.098482430E-1
2.522104531E0,2.050940096E-1,4.565908313E-1,3.909114301E-1
2.524538958E0,2.075374722E-1,5.127903819E-1,3.683094382E-1
2.526972604E0,1.928767264E-1,5.573835373E-1,3.389879167E-1
2.529407083E0,1.794376969E-1,5.738768578E-1,3.078338206E-1
2.531842292E0,1.568357050E-1,5.763203502E-1,2.650732994E-1
2.534276771E0,1.269033253E-1,5.848724246E-1,2.180367112E-1
2.536710365E0,9.574922919E-2,5.989223123E-1,1.642806232E-1
2.539144844E0,6.031906977E-2,6.062527299E-1,9.769636393E-2
2.541580104E0,2.000200003E-2,6.025875211E-1,2.866864577E-2
2.544014531E0,-9.319506586E-3,6.154156923E-1,-4.035906494E-2
2.546448125E0,-2.642371878E-2,6.410719752E-1,-8.922824264E-2
2.548882604E0,-2.153680101E-2,6.899411678E-1,-1.203823388E-1
2.551317865E0,-1.726074889E-2,7.638558149E-1,-1.356539577E-1
2.553752292E0,2.897787839E-3,8.732005954E-1,-1.362648308E-1
2.556185886E0,1.939113438E-2,1.003925562E0,-1.142736971E-1
2.558620417E0,4.077139869E-2,1.141981006E0,-8.006527275E-2
2.561055625E0,5.726474524E-2,1.281258225E0,-3.180696070E-2
2.563490052E0,6.154080108E-2,1.431530833E0,1.339702681E-2
2.565923698E0,6.826031208E-2,1.554314733E0,3.050124273E-2
2.568358177E0,5.543215200E-2,1.679541945E0,3.538816050E-2
2.570793386E0,4.077139869E-2,1.804158330E0,1.889481023E-2
2.573227865E0,2.855410427E-2,1.919611812E0,-5.539777689E-3
2.575661458E0,2.897787839E-3,2.055834770E0,-2.936350182E-2
2.578095938E0,-1.359556243E-2,2.162736177E0,-6.479366124E-2
2.580531198E0,-4.230620340E-2,2.274524212E0,-9.533688426E-2
2.582965625E0,-8.079068363E-2,2.400362492E0,-1.246583909E-1
2.585399219E0,-1.400445551E-1,2.567739487E0,-1.313779056E-1
2.587833698E0,-1.968549788E-1,2.734505415E0,-1.423734725E-1
2.590268958E0,-2.878738046E-1,2.955027580E0,-1.460386664E-1
2.592703386E0,-3.752274811E-1,3.123626232E0,-1.594776809E-1
2.595136979E0,-5.077851415E-1,3.452271461E0,-1.747492999E-1
2.597571511E0,-4.894591868E-1,3.232360125E0,-2.162881047E-1
2.600006719E0,-4.778527319E-1,2.975796938E0,-2.749311030E-1
2.602441146E0,-4.204314649E-1,2.689301491E0,-3.653391004E-1
2.604874792E0,-3.880556226E-1,2.584232807E0,-4.930098355E-1
2.607309271E0,-3.654536307E-1,2.543304920E0,-6.512237787E-1
2.609744479E0,-3.220822513E-1,2.467557669E0,-8.118811846E-1
2.612178958E0,-2.689370215E-1,2.334388971E0,-9.731494784E-1
2.614612552E0,-1.913571954E-1,2.099817038E0,-1.124643922E0
2.617047031E0,-1.076687276E-1,1.889068604E0,-1.264531970E0
2.619482292E0,-4.352793470E-2,1.826149464E0,-1.390370131E0
2.621916719E0,-4.536052421E-2,1.846307993E0,-1.498493195E0
2.624350313E0,-6.368646026E-2,1.969091892E0,-1.591344595E0
2.626784792E0,-7.834722102E-2,2.016739368E0,-1.678087354E0
2.629220052E0,-8.384500444E-2,2.041173935E0,-1.777658343E0
2.631654479E0,-1.107230484E-1,1.983752608E0,-1.862568498E0
2.634088125E0,-1.773073077E-1,1.818208218E0,-1.894333482E0
2.636522604E0,-2.377828956E-1,1.586079717E0,-1.897998691E0
2.638957813E0,-3.129192591E-1,1.341733813E0,-1.858292460E0
2.641392292E0,-4.198206067E-1,1.112659454E0,-1.797206044E0
2.643825886E0,-4.919026196E-1,8.078380823E-1,-1.754445434E0
2.646260365E0,-5.511565208E-1,4.645320773E-1,-1.738562942E0
2.648695625E0,-5.707042217E-1,1.499367505E-1,-1.734286904E0
2.651130052E0,-5.768128633E-1,-1.383913904E-1,-1.703743696E0
2.653563646E0,-5.933061838E-1,-3.723526001E-1,-1.631050825E0
2.655998125E0,-6.134647727E-1,-5.403403640E-1,-1.525371194E0
2.658433386E0,-6.433970928E-1,-6.600698829E-1,-1.428243756E0
2.660867813E0,-6.586687565E-1,-7.889623046E-1,-1.308514237E0
2.663301406E0,-6.776055098E-1,-9.086918235E-1,-1.160684943E0
2.665735938E0,-6.721077561E-1,-1.067516685E0,-9.988058209E-1
2.668171146E0,-6.666100025E-1,-1.193354845E0,-8.283745646E-1
2.670605573E0,-6.611121893E-1,-1.296590924E0,-6.603867412E-1
2.673039219E0,-6.653882265E-1,-1.354012251E0,-5.143901110E-1
2.675473698E0,-6.537818313E-1,-1.334464550E0,-4.013801217E-1
2.677908906E0,-6.354558468E-1,-1.299645305E0,-3.641173542E-1
2.680343386E0,-6.110212803E-1,-1.259939075E0,-3.714477420E-1
2.682776979E0,-6.073560715E-1,-1.212902427E0,-3.720586002E-1
2.685211458E0,-6.244602799E-1,-1.187857032E0,-3.604521751E-1
2.687646719E0,-6.678317189E-1,-1.171974540E0,-3.628956378E-1
2.690081146E0,-7.093704939E-1,-1.187857032E0,-3.494566083E-1
2.692514740E0,-7.686243653E-1,-1.170141935E0,-2.773745656E-1
2.694949219E0,-7.759547830E-1,-1.008262753E0,-1.417626143E-1
2.697384479E0,-6.977640986E-1,-6.741197705E-1,7.020744681E-2
2.699818906E0,-5.505456924E-1,-2.721707821E-1,2.779014707E-1
2.702252500E0,-3.556798100E-1,8.029816300E-2,4.214546680E-1
2.704687031E0,-2.603849173E-1,4.468169808E-1,6.865699291E-1
2.707122240E0,-2.371720374E-1,8.970243335E-1,1.021323800E0
2.709556667E0,-1.718095243E-1,1.366168380E0,1.222909212E0
2.711990261E0,-9.850575030E-2,1.831647277E0,1.346303821E0
2.714424792E0,-1.054123789E-2,2.262306929E0,1.430603147E0
2.716860000E0,1.134642959E-1,2.590341330E0,1.484970093E0
2.719294479E0,1.812702864E-1,2.881723881E0,1.597369313E0
2.721728073E0,3.761361241E-1,3.081476688E0,1.670673013E0
2.724162552E0,6.436948776E-1,3.208536386E0,1.623636484E0
2.726597813E0,9.356881976E-1,3.263514280E0,1.531395912E0
2.729032240E0,1.209355593E0,3.312383413E0,1.423272848E0
2.731465833E0,1.415827870E0,3.199984312E0,1.261393666E0
2.733900365E0,1.496462107E0,2.955638409E0,1.031097651E0
2.736335573E0,1.528226972E0,2.706405640E0,7.116153836E-1
2.738770000E0,1.545331240E0,2.510318041E0,3.811376095E-1
2.741203594E0,1.554494262E0,2.260474443E0,1.270178705E-1
2.743638125E0,1.488520861E0,1.885403395E0,5.249236897E-2
2.746073333E0,1.323587298E0,1.513386726E0,1.202983558E-1
2.748507813E0,1.101843476E0,1.204900026E0,2.443038821E-1
2.750941406E0,8.593301177E-1,8.933591247E-1,3.585355878E-1
2.753375886E0,5.984908938E-1,5.457770824E-1,5.314103365E-1
2.755811146E0,3.382625282E-1,1.725387424E-1,7.195566297E-1
2.758245573E0,1.018578708E-1,-2.153603584E-1,9.083138704E-1
2.760679167E0,-1.162208319E-1,-5.855443478E-1,1.056143165E0
2.763113646E0,-2.823760211E-1,-8.653203845E-1,1.212524533E0
2.765548906E0,-3.843904436E-1,-9.532849193E-1,1.364629745E0
2.767983333E0,-4.253183901E-1,-9.178547859E-1,1.558884740E0
2.770416927E0,-4.277618229E-1,-8.176729679E-1,1.724429131E0
2.772851458E0,-4.094358981E-1,-6.631242037E-1,1.861873627E0
2.775286667E0,-3.770600557E-1,-4.774213433E-1,1.957168579E0
2.777721146E0,-3.422407806E-1,-3.045466244E-1,2.009702921E0
2.780154740E0,-3.263582885E-1,-1.652694494E-1,2.074454546E0
2.782589219E0,-3.233039677E-1,-2.354883589E-2,2.194184065E0
2.785024479E0,-3.416299224E-1,2.330143601E-1,2.399434566E0
2.787458906E0,-3.226931095E-1,5.647138953E-1,2.573531151E0
2.789892500E0,-2.585523129E-1,9.581108093E-1,2.690206289E0
2.792326979E0,-1.748638451E-1,1.388159513E0,2.866746187E0
2.794762240E0,-6.674079597E-2,1.890290260E0,3.150798321E0
2.797196667E0,6.398425996E-2,2.361877918E0,3.373763800E0
2.799630261E0,3.089410067E-1,2.670975447E0,3.378650665E0
2.802064792E0,5.593954921E-1,2.813307047E0,3.179508924E0
2.804500000E0,7.371571660E-1,2.722288132E0,2.899122000E0
2.806934479E0,7.756416202E-1,2.356380224E0,2.634617567E0
2.809368073E0,7.139443159E-1,1.762008667E0,2.434253931E0
2.811802552E0,5.813866258E-1,1.131596327E0,2.285813808E0
2.814237761E0,4.360008836E-1,5.524966121E-1,2.108663082E0
2.816672240E0,2.747325897E-1,1.310304832E-2,1.891195178E0
2.819105833E0,9.574922919E-2,-4.584845304E-1,1.703659773E0
2.821540313E0,-1.052252650E-1,-8.592117429E-1,1.630966783E0
2.823975573E0,-2.487784624E-1,-1.156702876E0,1.533839345E0
2.826410000E0,-3.874447644E-1,-1.306364775E0,1.486191869E0
2.828843594E0,-4.882374704E-1,-1.332631946E0,1.508183002E0
2.831278125E0,-5.206133127E-1,-1.247721791E0,1.567436934E0
2.833713333E0,-4.845722616E-1,-1.124327064E0,1.535671949E0
2.836147761E0,-4.412008524E-1,-9.795520902E-1,1.480694056E0
2.838581406E0,-4.051598310E-1,-8.286685348E-1,1.439155340E0
2.841015886E0,-3.788926601E-1,-6.961108446E-1,1.403725147E0
2.843451094E0,-3.758383393E-1,-5.885986686E-1,1.360964656E0
2.845885573E0,-4.002729356E-1,-4.945255518E-1,1.323701859E0
2.848319167E0,-4.350922108E-1,-3.961763382E-1,1.277886987E0
2.850753646E0,-4.717440903E-1,-2.996596992E-1,1.227796078E0
2.853188906E0,-4.943461120E-1,-2.080299705E-1,1.153881431E0
2.855623333E0,-5.028982162E-1,-1.225089207E-1,1.092795014E0
2.858056927E0,-4.864048660E-1,-7.058542222E-2,1.028654218E0
2.860491458E0,-4.503638446E-1,-2.415969968E-2,9.858937263E-1
2.862926667E0,-3.929425478E-1,-1.010981109E-2,9.321375489E-1
2.865361094E0,-3.196387887E-1,-3.210094199E-2,8.747162819E-1
2.867794740E0,-2.414481044E-1,-7.669406384E-2,8.179058433E-1
2.870229219E0,-1.504292488E-1,-1.469435096E-1,7.598737478E-1
2.872664427E0,-5.879955366E-2,-2.239124626E-1,7.116153836E-1
2.875098906E0,4.077139869E-2,-3.039357364E-1,6.590810418E-1
2.877532500E0,1.311793774E-1,-3.735743165E-1,6.224291325E-1
2.879966979E0,2.240308225E-1,-4.230543673E-1,5.863881111E-1
2.882402240E0,3.022215068E-1,-4.627605677E-1,5.570666194E-1
2.884836667E0,3.767470121E-1,-4.878060222E-1,5.259125233E-1
2.887270261E0,4.390552044E-1,-4.963581264E-1,4.959801435E-1
2.889704792E0,5.050286055E-1,-4.816973805E-1,4.715455770E-1
2.892140000E0,5.563411713E-1,-4.590953887E-1,4.428349435E-1
2.894574427E0,6.009343266E-1,-4.340499341E-1,4.104591012E-1
2.897008073E0,6.375861764E-1,-4.077827632E-1,3.731963634E-1
2.899442552E0,6.626316309E-1,-3.772395253E-1,3.322684169E-1
2.901877761E0,6.779032946E-1,-3.326463997E-1,3.066121042E-1
2.904312240E0,6.791250110E-1,-2.685056031E-1,2.827883661E-1
2.906745833E0,6.809576154E-1,-1.848171204E-1,2.705710828E-1
2.909180313E0,6.748489738E-1,-9.868519753E-2,2.711819410E-1
2.911615573E0,6.644642353E-1,-2.477056347E-2,2.864535749E-1
2.914050000E0,6.595773101E-1,1.615737192E-2,3.121098876E-1
2.916483594E0,6.595773101E-1,3.509417549E-2,3.383770585E-1
2.918918125E0,6.669077277E-1,4.914406687E-2,3.676985800E-1
2.921353333E0,6.748489738E-1,3.265071660E-2,3.793050051E-1
2.923787761E0,6.760706902E-1,-9.468403296E-4,3.560921550E-1
2.926221406E0,6.791250110E-1,-2.904661745E-2,3.243271708E-1
2.928655886E0,6.846227646E-1,-4.553996772E-2,2.907296121E-1
2.931091146E0,6.852336526E-1,-3.210094199E-2,2.577429116E-1
2.933525573E0,6.974509358E-1,4.550942220E-3,2.259779572E-1
2.935959167E0,7.127225399E-1,6.319395453E-2,1.997107714E-1
2.938393646E0,7.353245616E-1,1.395520568E-1,1.752761900E-1
2.940828906E0,7.689221501E-1,2.195753306E-1,1.435112208E-1
2.943263333E0,7.976327538E-1,3.081507087E-1,1.196874976E-1
2.945696927E0,8.245108128E-1,3.906174302E-1,7.753781974E-2
2.948131458E0,8.465019464E-1,4.614777565E-1,3.783161566E-2
2.950566667E0,8.599409461E-1,5.140121579E-1,-1.653534174E-2
2.953001146E0,8.697147965E-1,5.592161417E-1,-6.479366124E-2
2.955434740E0,8.611627221E-1,6.056418419E-1,-1.081650555E-1
2.957869219E0,8.440584540E-1,6.166374087E-1,-1.533690393E-1
2.960304479E0,8.165695667E-1,6.166374087E-1,-1.900209188E-1
2.962738906E0,7.958001494E-1,6.270220876E-1,-2.065142691E-1
2.965172500E0,7.927458286E-1,6.600087881E-1,-2.022382170E-1
2.967606979E0,7.903023958E-1,7.027693391E-1,-1.955187023E-1
2.970042240E0,7.762525082E-1,7.247604728E-1,-1.814688146E-1
2.972476667E0,7.469310164E-1,7.229278684E-1,-1.741384417E-1
2.974910261E0,7.096682191E-1,7.064345479E-1,-1.710841060E-1
2.977344792E0,6.785141230E-1,6.856651306E-1,-1.582559496E-1
2.979780000E0,6.394187808E-1,6.569544673E-1,-1.484821141E-1
2.982214479E0,5.936039686E-1,6.196917295E-1,-1.271018535E-1
2.984648073E0,5.581737757E-1,5.928136706E-1,-1.051107198E-1
2.987082552E0,5.270196795E-1,5.628812909E-1,-8.250872791E-2
2.989517813E0,5.074720383E-1,5.170664787E-1,-7.090230286E-2
2.991952240E0,4.763179421E-1,4.553690851E-1,-6.357192993E-2
2.994385833E0,4.421095252E-1,3.887848556E-1,-5.501982197E-2
2.996820365E0,4.030141830E-1,3.283092380E-1,-4.402425513E-2
2.999255573E0,3.669731617E-1,2.653901577E-1,-3.425041959E-2
3.001690052E0,3.364299238E-1,2.073580325E-1,-1.836793683E-2
3.004123646E0,3.138279319E-1,1.603214592E-1,-6.528608501E-4
3.006558125E0,2.924476564E-1,1.224478334E-1,1.339702681E-2
3.008993333E0,2.674022019E-1,9.495891631E-2,2.194913477E-2
3.011427813E0,2.496871352E-1,7.724384218E-2,3.172297031E-2
3.013861406E0,2.380807102E-1,6.013962999E-2,4.577286169E-2
3.016295886E0,2.295286059E-1,3.631590679E-2,6.409880519E-2
3.018731146E0,2.240308225E-1,8.826995268E-3,7.448349893E-2
3.021165573E0,2.197547704E-1,-1.133154053E-2,8.731165528E-2
3.023599167E0,2.215873599E-1,-3.454440087E-2,1.001398265E-1
3.026033698E0,2.264742851E-1,-6.203331426E-2,1.160223037E-1
3.028468906E0,2.325829268E-1,-1.133459508E-1,1.355699748E-1
3.030903386E0,2.454110831E-1,-1.848171204E-1,1.545067877E-1
3.033336979E0,2.478545457E-1,-2.685056031E-1,1.710001230E-1
3.035771458E0,2.460219562E-1,-3.320355415E-1,1.612263024E-1
3.038206719E0,2.356372476E-1,-3.332572579E-1,1.422894895E-1
3.040641146E0,2.038722783E-1,-2.904967368E-1,1.141897142E-1
3.043074740E0,1.617226154E-1,-2.440709919E-1,9.219858050E-2
3.045509271E0,1.256815940E-1,-2.031430602E-1,8.059215546E-2
3.047944479E0,1.024687439E-1,-1.732106805E-1,7.937042415E-2
3.050378906E0,2.264742851E-1,-2.892749906E-1,1.838282943E-1
3.052812552E0,3.724709451E-1,-5.177384019E-1,3.964092135E-1
3.055247031E0,4.610463381E-1,-5.562228560E-1,3.970200717E-1
3.057682240E0,4.848700464E-1,-4.242761135E-1,1.990999132E-1
3.060116719E0,3.804121912E-1,-2.385732085E-1,9.120974690E-3
3.062550313E0,2.368589789E-1,-6.569850445E-2,-1.124411076E-1
3.064984792E0,7.375809550E-2,4.914406687E-2,-1.637537330E-1
3.067420052E0,-6.979511678E-2,9.923497587E-2,-1.839122772E-1
3.069854479E0,-1.748638451E-1,1.065653488E-1,-1.955187023E-1
3.072288073E0,-2.420589626E-1,7.846557349E-2,-2.114011794E-1
3.074722604E0,-2.872629464E-1,2.959639579E-2,-2.376683652E-1
3.077157813E0,-3.233039677E-1,-3.759872541E-2,-2.712659240E-1
3.079592292E0,-3.605667055E-1,-1.035721153E-1,-3.091395497E-1
3.082025886E0,-3.990511894E-1,-1.628259867E-1,-3.537326753E-1
3.084460365E0,-4.363139570E-1,-2.025321871E-1,-4.123756886E-1
3.086895625E0,-4.747984111E-1,-2.129168957E-1,-4.636883140E-1
3.089330052E0,-5.193915963E-1,-1.915366203E-1,-5.137792230E-1
3.091763646E0,-5.597086549E-1,-1.420565844E-1,-5.650918484E-1
3.094198125E0,-6.061343551E-1,-7.363974303E-2,-6.139610410E-1
3.096633386E0,-6.501166224E-1,9.437859990E-3,-6.573324203E-1
3.099067865E0,-6.947097778E-1,9.312632680E-2,-6.939843297E-1
3.101501458E0,-7.295290232E-1,1.786473989E-1,-7.330796719E-1
3.103935938E0,-7.612940073E-1,2.537837327E-1,-7.672880888E-1
3.106371198E0,-7.930589914E-1,3.234223127E-1,-7.966095805E-1
3.108805625E0,-8.095523119E-1,3.802327216E-1,-8.222659230E-1
3.111239219E0,-8.303217292E-1,4.291019142E-1,-8.607503772E-1
3.113673750E0,-8.480368257E-1,4.694189727E-1,-8.986240029E-1
3.116108958E0,-8.578106165E-1,4.993513525E-1,-9.328324199E-1
3.118543386E0,-8.633084297E-1,5.256185532E-1,-9.682625532E-1
3.120977031E0,-8.614758253E-1,5.524966121E-1,-1.000027537E0
3.123411511E0,-8.651410341E-1,5.787637830E-1,-1.029349089E0
3.125846719E0,-8.510911465E-1,6.019766331E-1,-1.053172827E0
3.128281198E0,-8.376520872E-1,6.245786548E-1,-1.077607393E0
3.130714792E0,-8.187152743E-1,6.459589005E-1,-1.101431131E0
3.133149271E0,-7.942807078E-1,6.679500341E-1,-1.119757056E0
3.135584531E0,-7.588505745E-1,6.905520558E-1,-1.166793585E0
3.138018958E0,-7.344159484E-1,6.960498095E-1,-1.245595217E0
3.140452552E0,-7.240312696E-1,6.679500341E-1,-1.301794767E0
3.142887083E0,-7.203660607E-1,6.178591251E-1,-1.333559632E0
3.145322292E0,-7.325833440E-1,5.524966121E-1,-1.344555259E0
3.147756771E0,-7.539636493E-1,4.761385024E-1,-1.341500878E0
3.150190365E0,-7.722895741E-1,4.058890641E-1,-1.317066312E0
3.152624844E0,-7.826742530E-1,3.490786254E-1,-1.281636119E0
3.155060104E0,-7.906154990E-1,3.148702085E-1,-1.242540836E0
3.157494531E0,-7.869503498E-1,2.947116792E-1,-1.205888987E0
3.159928125E0,-7.729004622E-1,2.959333956E-1,-1.170458794E0
3.162362656E0,-7.448006868E-1,3.130376041E-1,-1.132585168E0
3.164797865E0,-7.063161731E-1,3.319744170E-1,-1.108761430E0
3.167232292E0,-6.641665101E-1,3.527438343E-1,-1.090435505E0
3.169665938E0,-6.116321683E-1,3.680154383E-1,-1.070276976E0
3.172100417E0,-5.511565208E-1,3.808436096E-1,-1.058059692E0
3.174535677E0,-4.821287692E-1,3.863413930E-1,-1.050118446E0
3.176970104E0,-4.173771441E-1,3.875631094E-1,-1.045231581E0
3.179403698E0,-3.532363474E-1,3.893957138E-1,-1.039733768E0
3.181838177E0,-2.823760211E-1,3.942826390E-1,-1.023851275E0
3.184273438E0,-2.231221497E-1,4.003912807E-1,-9.951406121E-1
3.186707865E0,-1.675334722E-1,4.113868475E-1,-9.645974040E-1
3.189141458E0,-1.143882424E-1,4.242149889E-1,-9.291672111E-1
3.191575990E0,-6.918424368E-2,4.437626600E-1,-8.980131149E-1
3.194011198E0,-3.069977090E-2,4.626994729E-1,-8.723568320E-1
3.196445677E0,4.543289542E-4,4.834688604E-1,-8.503656983E-1
3.198879271E0,2.672151104E-2,4.907992482E-1,-8.302071691E-1
3.201313750E0,3.710621223E-2,4.895775318E-1,-8.131029606E-1
3.203749011E0,4.382572323E-2,4.718624353E-1,-7.984421849E-1
3.206183438E0,4.565831646E-2,4.425409436E-1,-7.843922973E-1
3.208617031E0,4.504745454E-2,4.034456015E-1,-7.685098052E-1
3.211051563E0,3.405188769E-2,3.551872969E-1,-7.611794472E-1
3.213486771E0,2.305632271E-2,3.038746417E-1,-7.489621639E-1
3.215921250E0,1.267162338E-2,2.452316433E-1,-7.397991419E-1
3.218354844E0,3.508651629E-3,1.859777719E-1,-7.318579555E-1
3.220789323E0,-1.420642436E-2,1.261130273E-1,-7.196406126E-1
3.223224583E0,-2.214766666E-2,6.563740969E-2,-7.104776502E-1
3.225659011E0,-3.375409916E-2,8.826995268E-3,-6.994820833E-1
3.228092604E0,-4.536052421E-2,-4.004218429E-2,-6.842104793E-1
3.230527136E0,-5.941041186E-2,-8.463530988E-2,-6.646628380E-1
3.232962344E0,-6.246474013E-2,-1.206763312E-1,-6.524454951E-1
3.235396823E0,-6.490819156E-2,-1.493869573E-1,-6.328978539E-1
3.237830417E0,-6.368646026E-2,-1.695455015E-1,-6.188479662E-1
3.240264896E0,-5.513435975E-2,-1.842062473E-1,-5.980785489E-1
3.242700156E0,-4.413879290E-2,-1.988670081E-1,-5.821960568E-1
3.245134583E0,-3.131063655E-2,-2.086408436E-1,-5.577614903E-1
3.247568177E0,-1.359556243E-2,-2.129168957E-1,-5.406572819E-1
3.250002708E0,4.119515419E-3,-2.202472687E-1,-5.186661482E-1
3.252437917E0,2.427805215E-2,-2.239124626E-1,-4.966750145E-1
3.254872396E0,4.932350665E-2,-2.281885147E-1,-4.765164852E-1
3.257305990E0,7.131463289E-2,-2.281885147E-1,-4.661317766E-1
3.259740469E0,1.006361395E-1,-2.245233208E-1,-4.471949637E-1
3.262175729E0,1.097991168E-1,-2.110842913E-1,-4.288690388E-1
3.264610156E0,1.189620793E-1,-1.952018142E-1,-4.074887633E-1
3.267043750E0,1.275141835E-1,-1.842062473E-1,-3.928280175E-1
3.269478281E0,1.262924671E-1,-1.713780910E-1,-3.745020628E-1
3.271913490E0,1.262924671E-1,-1.616042554E-1,-3.598413169E-1
3.274347917E0,1.152969003E-1,-1.457217783E-1,-3.457914293E-1
3.276781563E0,1.097991168E-1,-1.328936070E-1,-3.360175788E-1
3.279216042E0,9.819267690E-2,-1.188437343E-1,-3.384610415E-1
3.281651250E0,8.292106539E-2,-1.035721153E-1,-3.354067206E-1
3.284085729E0,7.559068501E-2,-9.379827976E-2,-3.329632580E-1
3.286519323E0,5.726474524E-2,-7.241801172E-2,-3.378501832E-1
3.288953802E0,4.810177535E-2,-5.470293760E-2,-3.409045041E-1
3.291389063E0,3.771707416E-2,-4.309650883E-2,-3.335741162E-1
3.293823490E0,2.488891780E-2,-2.904661745E-2,-3.311306834E-1
3.296257136E0,1.694767550E-2,-1.621845923E-2,-3.329632580E-1
3.298691615E0,8.395569399E-3,-6.444622763E-3,-3.299089372E-1
3.301126875E0,2.897787839E-3,1.496618614E-3,-3.366284668E-1
3.303561302E0,-1.420642436E-2,1.798996516E-2,-3.476240039E-1
3.305994896E0,-4.291706905E-2,5.891790241E-2,-3.738912046E-1
3.308429375E0,-7.773636281E-2,1.145065874E-1,-4.001583755E-1
3.310864636E0,-1.070578545E-1,1.389411837E-1,-4.252038300E-1
3.313299063E0,-1.088904589E-1,1.016784310E-1,-4.331450760E-1
3.315732708E0,-8.017981052E-2,8.216130547E-3,-4.361993968E-1
3.318167188E0,-3.192150220E-2,-1.060155705E-1,-4.337559342E-1
3.320602448E0,9.617298841E-3,-1.689346284E-1,-4.368102551E-1
3.323036875E0,3.893880546E-2,-1.701563597E-1,-4.471949637E-1
3.325470469E0,5.298869312E-2,-1.396131217E-1,-4.606339931E-1
3.327904948E0,6.276252866E-2,-9.746346623E-2,-4.679643810E-1
3.330340208E0,7.192550600E-2,-5.103775114E-2,-4.752947390E-1
3.332774636E0,8.047761023E-2,-2.779434435E-3,-4.783490598E-1
3.335208281E0,9.086230397E-2,4.059195891E-2,-4.820142686E-1
3.337642761E0,1.067447960E-1,8.029816300E-2,-4.838468432E-1
3.340078021E0,1.293467879E-1,1.169500500E-1,-4.899554849E-1
3.342512448E0,1.464509964E-1,1.493258923E-1,-4.930098355E-1
3.344946042E0,1.672203988E-1,1.804799885E-1,-4.942315519E-1
3.347380573E0,1.818811595E-1,2.116340846E-1,-4.978967309E-1
3.349815781E0,1.977636367E-1,2.397338599E-1,-4.942315519E-1
3.352250208E0,2.112026662E-1,2.702770829E-1,-4.942315519E-1
3.354683854E0,2.276960015E-1,2.959333956E-1,-4.893446267E-1
3.357118333E0,2.283068746E-1,3.240331709E-1,-4.826251268E-1
3.359553594E0,2.350263894E-1,3.478569090E-1,-4.740730226E-1
3.361988021E0,2.331937850E-1,3.698480427E-1,-4.673534930E-1
3.364421615E0,2.338046581E-1,3.900065720E-1,-4.594122767E-1
3.366856146E0,2.246416807E-1,4.113868475E-1,-4.514710307E-1
3.369291354E0,2.154787183E-1,4.321562350E-1,-4.423080385E-1
3.371725781E0,2.057048827E-1,4.504821897E-1,-4.319233596E-1
3.374159427E0,1.922658533E-1,4.675863981E-1,-4.264255762E-1
3.376593906E0,1.800485551E-1,4.840797484E-1,-4.178734720E-1
3.379029167E0,1.727181822E-1,4.950753152E-1,-4.074887633E-1
3.381463594E0,1.495053172E-1,5.170664787E-1,-4.032126963E-1
3.383897188E0,1.299576461E-1,5.329489708E-1,-3.934388757E-1
3.386331719E0,1.177403480E-1,5.469988585E-1,-3.885519505E-1
3.388766927E0,1.055230647E-1,5.579944253E-1,-3.799998462E-1
3.391201406E0,9.391662478E-2,5.696008205E-1,-3.763346672E-1
3.393635000E0,8.108846843E-2,5.805963874E-1,-3.696151376E-1
3.396069479E0,7.253636420E-2,5.854833126E-1,-3.622847795E-1
3.398504740E0,6.031906977E-2,5.860942006E-1,-3.561761379E-1
3.400939167E0,5.298869312E-2,5.867050290E-1,-3.500674665E-1
3.403372761E0,4.871264100E-2,5.848724246E-1,-3.402936459E-1
3.405807292E0,4.260399193E-2,5.799855590E-1,-3.335741162E-1
3.408242500E0,3.771707416E-2,5.757094622E-1,-3.238002956E-1
3.410676979E0,3.160842881E-2,5.708225369E-1,-3.121938705E-1
3.413110573E0,3.283015639E-2,5.616595745E-1,-3.066960871E-1
3.415545052E0,3.405188769E-2,5.524966121E-1,-2.938679159E-1
3.417980313E0,3.588448092E-2,5.396684408E-1,-2.883701324E-1
3.420414740E0,4.260399193E-2,5.323380828E-1,-2.804288864E-1
3.422848333E0,4.504745454E-2,5.256185532E-1,-2.730985284E-1
3.425282865E0,4.749090970E-2,5.225642323E-1,-2.627138197E-1
3.427718073E0,4.565831646E-2,5.188990831E-1,-2.559943199E-1
3.430152552E0,5.176696554E-2,5.176773071E-1,-2.462204695E-1
3.432586146E0,5.298869312E-2,5.152338743E-1,-2.431661487E-1
3.435020625E0,5.726474524E-2,5.127903819E-1,-2.376683652E-1
3.437455886E0,5.909734219E-2,5.121795535E-1,-2.352249026E-1
3.439890313E0,6.459511817E-2,5.097360611E-1,-2.291162610E-1
3.442323906E0,6.764944643E-2,5.121795535E-1,-2.260619402E-1
3.444758438E0,6.642772257E-2,5.134012699E-1,-2.230076194E-1
3.447193646E0,7.070377469E-2,5.158447623E-1,-2.217858881E-1
3.449628125E0,7.314722985E-2,5.219534039E-1,-2.199532986E-1
3.452061719E0,7.497982681E-2,5.237859488E-1,-2.187315673E-1
3.454496198E0,7.681241632E-2,5.317271948E-1,-2.156772316E-1
3.456931458E0,8.475366235E-2,5.366141200E-1,-2.162881047E-1
3.459365886E0,8.231019974E-2,5.427227616E-1,-2.175098360E-1
3.461799531E0,8.902971447E-2,5.433336496E-1,-2.168989629E-1
3.464234011E0,9.941440821E-2,5.469988585E-1,-2.199532986E-1
3.466669219E0,9.880355000E-2,5.476096869E-1,-2.230076194E-1
3.469103698E0,1.067447960E-1,5.476096869E-1,-2.199532986E-1
3.471537292E0,1.110208482E-1,5.457770824E-1,-2.260619402E-1
3.473971823E0,1.152969003E-1,5.384467244E-1,-2.254510671E-1
3.476407031E0,1.146860272E-1,5.341706872E-1,-2.315597236E-1
3.478841511E0,1.140751690E-1,5.280620456E-1,-2.346140444E-1
3.481275104E0,1.177403480E-1,5.201207995E-1,-2.370575070E-1
3.483709583E0,1.171294898E-1,5.103469491E-1,-2.425552905E-1
3.486144844E0,1.177403480E-1,5.030165911E-1,-2.468313426E-1
3.488579271E0,1.146860272E-1,4.907992482E-1,-2.437770218E-1
3.491012865E0,1.201838106E-1,4.822471440E-1,-2.425552905E-1
3.493447396E0,1.177403480E-1,4.724733233E-1,-2.474422008E-1
3.495882604E0,1.165186316E-1,4.626994729E-1,-2.486639321E-1
3.498317083E0,1.183512211E-1,4.523147643E-1,-2.523291409E-1
3.500750677E0,1.189620793E-1,4.443735182E-1,-2.529399991E-1
3.503185156E0,1.220164150E-1,4.339888394E-1,-2.523291409E-1
3.505620417E0,1.183512211E-1,4.266584516E-1,-2.523291409E-1
3.508054844E0,1.207946837E-1,4.217715263E-1,-2.504965365E-1
3.510488438E0,1.201838106E-1,4.126085639E-1,-2.541617155E-1
3.512922969E0,1.201838106E-1,4.071107805E-1,-2.504965365E-1
3.515358177E0,1.214055419E-1,4.046673179E-1,-2.535508573E-1
3.517792656E0,1.269033253E-1,3.985586762E-1,-2.529399991E-1
3.520226250E0,1.220164150E-1,3.991695344E-1,-2.511073947E-1
3.522660781E0,1.275141835E-1,3.961152136E-1,-2.474422008E-1
3.525095990E0,1.305685192E-1,3.930608928E-1,-2.511073947E-1
3.527530469E0,1.348445714E-1,3.948934972E-1,-2.498856634E-1
3.529964063E0,1.360663027E-1,3.948934972E-1,-2.480530739E-1
3.532398542E0,1.378988922E-1,3.948934972E-1,-2.492747903E-1
3.534833802E0,1.372880191E-1,3.967260718E-1,-2.486639321E-1
3.537268229E0,1.421749443E-1,3.948934972E-1,-2.498856634E-1
3.539701823E0,1.360663027E-1,3.961152136E-1,-2.504965365E-1
3.542136354E0,1.403423548E-1,3.942826390E-1,-2.462204695E-1
3.544571563E0,1.421749443E-1,3.893957138E-1,-2.498856634E-1
3.547006042E0,1.427858025E-1,3.881739676E-1,-2.498856634E-1
3.549439636E0,1.433966756E-1,3.851196468E-1,-2.480530739E-1
3.551874115E0,1.446184069E-1,3.851196468E-1,-2.443878800E-1
3.554309375E0,1.415640861E-1,3.808436096E-1,-2.437770218E-1
3.556743802E0,1.452292651E-1,3.759566844E-1,-2.456096113E-1
3.559177396E0,1.427858025E-1,3.741240799E-1,-2.425552905E-1
3.561611927E0,1.452292651E-1,3.692371845E-1,-2.401118279E-1
3.564047188E0,1.415640861E-1,3.661828339E-1,-2.364466339E-1
3.566481615E0,1.440075338E-1,3.625176549E-1,-2.370575070E-1
3.568915208E0,1.366771609E-1,3.600741923E-1,-2.346140444E-1
3.571349688E0,1.348445714E-1,3.557981551E-1,-2.309488505E-1
3.573784948E0,1.348445714E-1,3.515220881E-1,-2.254510671E-1
3.576219375E0,1.299576461E-1,3.484677672E-1,-2.230076194E-1
3.578653021E0,1.250707358E-1,3.448025882E-1,-2.168989629E-1
3.581087500E0,1.262924671E-1,3.380830586E-1,-2.101794481E-1
3.583522761E0,1.232381314E-1,3.283092380E-1,-2.046816796E-1
3.585957188E0,1.238490045E-1,3.258657753E-1,-1.973512918E-1
3.588390781E0,1.207946837E-1,3.222005963E-1,-1.942969710E-1
3.590825313E0,1.214055419E-1,3.112050295E-1,-1.851340085E-1
3.593260521E0,1.207946837E-1,2.995986044E-1,-1.790253520E-1
3.595695000E0,1.201838106E-1,2.867704332E-1,-1.765818894E-1
3.598128594E0,1.195729524E-1,2.757748663E-1,-1.741384417E-1
3.600563073E0,1.189620793E-1,2.574489415E-1,-1.649754643E-1
3.602998333E0,1.226272732E-1,2.360686809E-1,-1.625320017E-1
3.605432761E0,1.214055419E-1,2.183535993E-1,-1.619211435E-1
3.607866406E0,1.214055419E-1,1.963624656E-1,-1.564233601E-1
3.610300886E0,1.275141835E-1,1.725387424E-1,-1.509255767E-1
3.612736146E0,1.256815940E-1,1.468824297E-1,-1.478712559E-1
3.615170573E0,1.207946837E-1,1.242804304E-1,-1.454277933E-1
3.617604167E0,1.232381314E-1,9.801324457E-2,-1.429843456E-1
3.620038698E0,1.262924671E-1,6.930260360E-2,-1.393191516E-1
3.622473906E0,1.262924671E-1,4.792233557E-2,-1.374865621E-1
3.624908386E0,1.238490045E-1,2.470947802E-2,-1.344322264E-1
3.627341979E0,1.256815940E-1,-9.468403296E-4,-1.313779056E-1
3.629776458E0,1.305685192E-1,-2.110537700E-2,-1.264909953E-1
3.632211719E0,1.287359148E-1,-4.187477753E-2,-1.240475327E-1
3.634646146E0,1.281250566E-1,-5.348120630E-2,-1.173280180E-1
3.637079740E0,1.354554296E-1,-6.692022830E-2,-1.124411076E-1
3.639514271E0,1.366771609E-1,-7.730492949E-2,-1.106085032E-1
3.641949479E0,1.397314817E-1,-9.013309330E-2,-1.057215929E-1
3.644383958E0,1.495053172E-1,-1.041829810E-1,-9.778034687E-2
3.646817552E0,1.488944590E-1,-1.157894060E-1,-9.594775736E-2
3.649252083E0,1.543922424E-1,-1.273958385E-1,-9.044997394E-2
3.651687292E0,1.550031006E-1,-1.292284280E-1,-8.189786971E-2
3.654121719E0,1.562248319E-1,-1.335044801E-1,-8.250872791E-2
3.656555365E0,1.598900259E-1,-1.390022635E-1,-7.823267579E-2
3.658989844E0,1.672203988E-1,-1.420565844E-1,-8.006527275E-2
3.661425104E0,1.641660780E-1,-1.426674575E-1,-7.334576547E-2
3.663859531E0,1.647769362E-1,-1.438891739E-1,-7.762181759E-2
3.666293125E0,1.641660780E-1,-1.457217783E-1,-7.640008628E-2
3.668727656E0,1.641660780E-1,-1.445000470E-1,-7.273489237E-2
3.671162865E0,1.629443467E-1,-1.457217783E-1,-7.212403417E-2
3.673597344E0,1.543922424E-1,-1.414457262E-1,-7.701094449E-2
3.676030938E0,1.525596380E-1,-1.377805322E-1,-7.762181759E-2
3.678465417E0,1.470618546E-1,-1.286175549E-1,-7.395662367E-2
3.680900677E0,1.446184069E-1,-1.255632341E-1,-7.578922063E-2
3.683335104E0,1.391206235E-1,-1.170111373E-1,-7.334576547E-2
3.685768750E0,1.311793774E-1,-1.084590331E-1,-7.517835498E-2
3.688203229E0,1.244598627E-1,-9.929606318E-2,-7.212403417E-2
3.690638490E0,1.159077585E-1,-9.196568280E-2,-7.395662367E-2
3.693072917E0,1.085773855E-1,-8.158098906E-2,-7.517835498E-2
3.695506511E0,9.941440821E-2,-7.119628787E-2,-7.212403417E-2
3.697941042E0,9.330576658E-2,-6.325504184E-2,-7.212403417E-2
3.700376250E0,8.292106539E-2,-5.409207195E-2,-7.212403417E-2
3.702810729E0,7.192550600E-2,-4.737256095E-2,-7.151316851E-2
3.705244323E0,6.337339431E-2,-3.820959106E-2,-7.090230286E-2
3.707678802E0,5.421042442E-2,-3.515526652E-2,-7.212403417E-2
3.710114063E0,4.443658888E-2,-2.538142912E-2,-7.578922063E-2
3.712548490E0,3.283015639E-2,-1.927278191E-2,-7.395662367E-2
3.714982136E0,3.344102204E-2,-1.133154053E-2,-7.640008628E-2
3.717416615E0,2.244545892E-2,2.748891129E-4,-7.701094449E-2
3.719851875E0,1.878026873E-2,9.437859990E-3,-8.311960101E-2
3.722286302E0,1.694767550E-2,2.287688293E-2,-8.067613840E-2
3.724719896E0,1.083902828E-2,3.692676872E-2,-8.189786971E-2
3.727154427E0,1.267162338E-2,5.525271222E-2,-8.861738443E-2
3.729589636E0,1.022816449E-2,7.174605876E-2,-9.167170525E-2
3.732024115E0,1.022816449E-2,8.946114033E-2,-9.289343655E-2
3.734457708E0,1.328248717E-2,1.071762145E-1,-1.020563990E-1
3.736892240E0,1.450421661E-2,1.236695573E-1,-1.069433242E-1
3.739327448E0,1.633680984E-2,1.395520568E-1,-1.124411076E-1
3.741761875E0,1.694767550E-2,1.529910713E-1,-1.167171597E-1
3.744195521E0,2.061286382E-2,1.621540487E-1,-1.216040701E-1
3.746630000E0,2.183459327E-2,1.755930632E-1,-1.277127266E-1
3.749065261E0,2.427805215E-2,1.768147945E-1,-1.338213682E-1
3.751499688E0,2.672151104E-2,1.841451824E-1,-1.399300098E-1
3.753933281E0,2.794324048E-2,1.902538240E-1,-1.448169351E-1
3.756367813E0,2.977583557E-2,1.908646822E-1,-1.533690393E-1
3.758803021E0,3.344102204E-2,1.920864135E-1,-1.600885540E-1
3.761237500E0,3.283015639E-2,1.914755553E-1,-1.631428748E-1
3.763671094E0,3.221929446E-2,1.939190179E-1,-1.698623896E-1
3.766105573E0,3.954967111E-2,1.945298761E-1,-1.765818894E-1
3.768540833E0,3.954967111E-2,1.939190179E-1,-1.839122772E-1
3.770975261E0,3.954967111E-2,1.939190179E-1,-1.839122772E-1
3.773408906E0,4.138226435E-2,1.933081448E-1,-1.869665980E-1
3.775843386E0,4.688004777E-2,1.945298761E-1,-1.906317770E-1
3.778278646E0,4.993437231E-2,1.939190179E-1,-1.967404336E-1
3.780713073E0,5.176696554E-2,1.933081448E-1,-1.991838962E-1
3.783146667E0,5.054523423E-2,1.933081448E-1,-2.046816796E-1
3.785581198E0,5.726474524E-2,1.933081448E-1,-2.065142691E-1
3.788016406E0,6.092993543E-2,1.908646822E-1,-2.101794481E-1
3.790450886E0,6.215166301E-2,1.890320927E-1,-2.077360004E-1
3.792884479E0,6.215166301E-2,1.896429509E-1,-2.095685899E-1
3.795318958E0,6.398425996E-2,1.878103614E-1,-2.138446420E-1
3.797754219E0,6.642772257E-2,1.817017198E-1,-2.144555151E-1
3.800188646E0,6.520599127E-2,1.768147945E-1,-2.144555151E-1
3.802622292E0,6.459511817E-2,1.682626903E-1,-2.156772316E-1
3.805056771E0,6.276252866E-2,1.645975113E-1,-2.138446420E-1
3.807492031E0,6.092993543E-2,1.597105861E-1,-2.114011794E-1
3.809926458E0,6.031906977E-2,1.548236758E-1,-2.107903212E-1
3.812360052E0,5.482129008E-2,1.517693400E-1,-2.132337838E-1
3.814794583E0,5.176696554E-2,1.468824297E-1,-2.052925378E-1
3.817229792E0,4.810177535E-2,1.432172358E-1,-2.034599483E-1
3.819664271E0,4.443658888E-2,1.413846463E-1,-2.065142691E-1
3.822097865E0,4.321485758E-2,1.377194524E-1,-2.010164857E-1
3.824532396E0,4.199313000E-2,1.297782212E-1,-1.961295605E-1
3.826967604E0,3.771707416E-2,1.255021691E-1,-1.949078441E-1
3.829402083E0,3.649534658E-2,1.206152365E-1,-1.906317770E-1
3.831835677E0,3.588448092E-2,1.132848635E-1,-1.906317770E-1
3.834270156E0,3.221929446E-2,1.041218862E-1,-1.863557249E-1
3.836705417E0,2.916496992E-2,9.984583408E-2,-1.796362251E-1
3.839139844E0,2.916496992E-2,9.251546115E-2,-1.765818894E-1
3.841573490E0,2.916496992E-2,8.457421511E-2,-1.710841060E-1
3.844007969E0,2.977583557E-2,7.907643914E-2,-1.661971956E-1
3.846443177E0,2.977583557E-2,7.174605876E-2,-1.668080539E-1
3.848877656E0,2.611064538E-2,6.502654403E-2,-1.619211435E-1
3.851311250E0,2.366718650E-2,6.075049564E-2,-1.503147185E-1
3.853745729E0,2.611064538E-2,5.830703676E-2,-1.497038454E-1
3.856180990E0,2.061286382E-2,5.586357787E-2,-1.429843456E-1
3.858615469E0,1.939113438E-2,5.280925333E-2,-1.362648308E-1
3.861049063E0,1.939113438E-2,5.097666010E-2,-1.271018535E-1
3.863483542E0,2.000200003E-2,5.158752203E-2,-1.179388911E-1
3.865918802E0,1.572594605E-2,5.219838768E-2,-1.130519658E-1
3.868353229E0,1.939113438E-2,5.403098464E-2,-1.075541824E-1
3.870786823E0,1.511508226E-2,5.525271222E-2,-9.778034687E-2
3.873221354E0,1.816940494E-2,5.769617110E-2,-8.861738443E-2
3.875656615E0,1.450421661E-2,6.136135757E-2,-8.006527275E-2
3.878091042E0,1.328248717E-2,6.624827534E-2,-7.517835498E-2
3.880524636E0,1.328248717E-2,6.991346925E-2,-6.601538509E-2
3.882959167E0,1.694767550E-2,7.113519311E-2,-5.624154955E-2
3.885394375E0,1.328248717E-2,7.418952137E-2,-5.501982197E-2
3.887828854E0,1.511508226E-2,7.357865572E-2,-4.830030724E-2
3.890262448E0,1.450421661E-2,7.541124523E-2,-4.096993059E-2
3.892696927E0,1.083902828E-2,7.785470784E-2,-3.302869201E-2
3.895132188E0,1.206075773E-2,7.968730479E-2,-3.730474412E-2
3.897566615E0,1.022816449E-2,7.846557349E-2,-3.302869201E-2
3.900000261E0,1.206075773E-2,7.602211088E-2,-2.814177237E-2
3.902434740E0,1.083902828E-2,7.418952137E-2,-2.997436747E-2
3.904870000E0,1.022816449E-2,7.296779007E-2,-2.753090858E-2
3.907304427E0,1.083902828E-2,6.869173795E-2,-2.753090858E-2
3.909738021E0,1.083902828E-2,6.808087230E-2,-2.997436747E-2
3.912172552E0,1.083902828E-2,6.258308887E-2,-2.875263616E-2
3.914607761E0,1.389335096E-2,6.136135757E-2,-3.547214717E-2
3.917042240E0,1.328248717E-2,6.136135757E-2,-3.119609505E-2
3.919475833E0,1.389335096E-2,6.013962999E-2,-3.180696070E-2
3.921910313E0,1.633680984E-2,5.952876434E-2,-3.547214717E-2
3.924345573E0,1.328248717E-2,6.197222322E-2,-3.608301282E-2
3.926780000E0,1.878026873E-2,5.952876434E-2,-3.913733736E-2
3.929213646E0,1.878026873E-2,6.013962999E-2,-3.730474412E-2
3.931648125E0,2.305632271E-2,6.319395453E-2,-4.280252755E-2
3.934083386E0,2.549978159E-2,6.136135757E-2,-4.402425513E-2
3.936517813E0,2.244545892E-2,6.441568583E-2,-4.341338947E-2
3.938951406E0,2.977583557E-2,6.380482018E-2,-4.524598271E-2
3.941385938E0,3.221929446E-2,6.075049564E-2,-4.891117290E-2
3.943821146E0,3.405188769E-2,5.952876434E-2,-4.707857966E-2
3.946255625E0,3.344102204E-2,5.586357787E-2,-4.830030724E-2
3.948689219E0,3.527361900E-2,5.586357787E-2,-4.830030724E-2
3.951123750E0,3.588448092E-2,5.280925333E-2,-5.013290048E-2
3.953558958E0,3.771707416E-2,4.853320122E-2,-5.440895632E-2
3.955993438E0,3.649534658E-2,4.364628345E-2,-5.135463178E-2
3.958427031E0,3.832793981E-2,4.242455214E-2,-5.257635936E-2
3.960861511E0,4.504745454E-2,3.631590679E-2,-5.013290048E-2
3.963296771E0,4.626918212E-2,3.081812523E-2,-5.196549743E-2
3.965731198E0,4.260399193E-2,2.776380070E-2,-5.013290048E-2
3.968164844E0,4.138226435E-2,2.226601914E-2,-4.891117290E-2
3.970599323E0,4.016053677E-2,1.676823758E-2,-4.524598271E-2
3.973034583E0,3.710621223E-2,1.127045415E-2,-4.707857966E-2
3.975469011E0,3.832793981E-2,5.161806941E-3,-4.402425513E-2
3.977902604E0,3.893880546E-2,-9.468403296E-4,-4.402425513E-2
3.980337136E0,3.649534658E-2,-1.072067581E-2,-4.035906494E-2
3.982772344E0,3.283015639E-2,-1.682932302E-2,-3.547214717E-2
3.985206823E0,2.794324048E-2,-2.538142912E-2,-3.425041959E-2
3.987640417E0,2.794324048E-2,-3.393353522E-2,-3.302869201E-2
3.990074896E0,2.549978159E-2,-4.309650883E-2,-3.180696070E-2
3.992510156E0,2.244545892E-2,-5.042688549E-2,-2.508744970E-2
3.994944583E0,1.878026873E-2,-5.958985537E-2,-2.264399081E-2
3.997378229E0,2.183459327E-2,-6.875282526E-2,-1.775707304E-2
3.999812708E0,1.878026873E-2,-7.486147434E-2,-1.348101906E-2
4.002247969E0,1.755854115E-2,-8.158098906E-2,-1.287015434E-2
4.004682396E0,1.267162338E-2,-8.952222764E-2,-8.594101295E-3
4.007115990E0,1.389335096E-2,-9.502001107E-2,-3.096319735E-3
4.009550521E0,1.572594605E-2,-1.017395183E-1,-4.199519753E-5
4.011985729E0,1.816940494E-2,-1.109024957E-1,5.455788225E-3
4.014420208E0,1.816940494E-2,-1.182328686E-1,7.288381457E-3
4.016853802E0,2.122372761E-2,-1.243415177E-1,9.731840342E-3
4.019288333E0,2.305632271E-2,-1.347262114E-1,1.461875811E-2
4.021723542E0,2.549978159E-2,-1.408348531E-1,1.706221700E-2
4.024157969E0,2.672151104E-2,-1.451109052E-1,2.194913477E-2
4.026591615E0,3.038669936E-2,-1.542738825E-1,2.072740719E-2
4.029026094E0,3.344102204E-2,-1.597716659E-1,2.866864577E-2
4.031461354E0,3.649534658E-2,-1.628259867E-1,2.805778012E-2
4.033895781E0,3.710621223E-2,-1.671020389E-1,3.722075373E-2
4.036329375E0,3.954967111E-2,-1.713780910E-1,3.905334696E-2
4.038763906E0,4.382572323E-2,-1.732106805E-1,4.088594019E-2
4.041199167E0,4.810177535E-2,-1.787084639E-1,4.455113038E-2
4.043633594E0,4.932350665E-2,-1.793193370E-1,4.699458554E-2
4.046067188E0,5.054523423E-2,-1.817627996E-1,4.943804815E-2
4.048501719E0,5.237782747E-2,-1.860388517E-1,5.310323462E-2
4.050936927E0,5.176696554E-2,-1.878714412E-1,5.615755543E-2
4.053371406E0,5.298869312E-2,-1.915366203E-1,5.921188369E-2
4.055805000E0,5.359955877E-2,-1.897040308E-1,5.860101804E-2
4.058239479E0,5.970820785E-2,-1.909257621E-1,6.043361500E-2
4.060674740E0,5.848647654E-2,-1.872605681E-1,6.104448065E-2
4.063109167E0,5.604301766E-2,-1.890931726E-1,6.165533885E-2
4.065542813E0,6.154080108E-2,-1.872605681E-1,6.226620451E-2
4.067977292E0,5.909734219E-2,-1.835953891E-1,5.860101804E-2
4.070412552E0,6.276252866E-2,-1.817627996E-1,6.348793209E-2
4.072846979E0,6.520599127E-2,-1.780976057E-1,6.104448065E-2
4.075280573E0,6.642772257E-2,-1.768758744E-1,6.165533885E-2
4.077715104E0,6.276252866E-2,-1.725998223E-1,5.982274935E-2
4.080150313E0,6.459511817E-2,-1.701563597E-1,5.921188369E-2
4.082584792E0,6.642772257E-2,-1.689346284E-1,6.287707388E-2
4.085018386E0,6.642772257E-2,-1.658803076E-1,6.104448065E-2
4.087452865E0,6.703858078E-2,-1.640477180E-1,5.921188369E-2
4.089888125E0,6.520599127E-2,-1.585499346E-1,5.860101804E-2
4.092322552E0,6.703858078E-2,-1.573282033E-1,5.921188369E-2
4.094756198E0,6.581684947E-2,-1.573282033E-1,5.676842108E-2
4.097190677E0,6.398425996E-2,-1.554956138E-1,5.921188369E-2
4.099625938E0,6.459511817E-2,-1.542738825E-1,5.676842108E-2
4.102060365E0,6.398425996E-2,-1.518304199E-1,5.860101804E-2
4.104493958E0,6.520599127E-2,-1.506086886E-1,6.409880519E-2
4.106928490E0,6.215166301E-2,-1.469435096E-1,6.043361500E-2
4.109363698E0,6.520599127E-2,-1.493869573E-1,5.921188369E-2
4.111798177E0,6.337339431E-2,-1.451109052E-1,6.348793209E-2
4.114231771E0,6.337339431E-2,-1.445000470E-1,6.348793209E-2
4.116666302E0,6.337339431E-2,-1.432783157E-1,6.409880519E-2
4.119101511E0,6.092993543E-2,-1.432783157E-1,6.043361500E-2
4.121535990E0,6.031906977E-2,-1.420565844E-1,6.409880519E-2
4.123969583E0,5.970820785E-2,-1.438891739E-1,6.348793209E-2
4.126404063E0,5.848647654E-2,-1.426674575E-1,6.715312600E-2
4.128839323E0,5.726474524E-2,-1.432783157E-1,6.470966339E-2
4.131273750E0,5.543215200E-2,-1.438891739E-1,6.409880519E-2
4.133707396E0,5.543215200E-2,-1.451109052E-1,6.532053649E-2
4.136141875E0,5.726474524E-2,-1.408348531E-1,6.348793209E-2
4.138577136E0,5.665388331E-2,-1.408348531E-1,6.348793209E-2
4.141011563E0,5.726474524E-2,-1.371696740E-1,6.043361500E-2
4.143445156E0,5.665388331E-2,-1.377805322E-1,5.921188369E-2
4.145879688E0,5.298869312E-2,-1.365588009E-1,5.982274935E-2
4.148314896E0,5.543215200E-2,-1.335044801E-1,5.737928674E-2
4.150749375E0,5.604301766E-2,-1.310610175E-1,5.615755543E-2
4.153182969E0,5.604301766E-2,-1.261741072E-1,5.676842108E-2
4.155617448E0,5.787561089E-2,-1.267849654E-1,5.249236897E-2
4.158052708E0,5.909734219E-2,-1.218980551E-1,5.127064511E-2
4.160487188E0,5.909734219E-2,-1.164002717E-1,4.943804815E-2
4.162920781E0,5.909734219E-2,-1.151785478E-1,4.516199604E-2
4.165355261E0,6.154080108E-2,-1.096807644E-1,4.271853343E-2
4.167790521E0,5.787561089E-2,-1.047938466E-1,4.210767150E-2
4.170224948E0,5.665388331E-2,-1.005177945E-1,3.905334696E-2
4.172658594E0,6.154080108E-2,-9.563087672E-2,3.294469789E-2
4.175093073E0,6.276252866E-2,-8.952222764E-2,3.050124273E-2
4.177528333E0,6.031906977E-2,-8.402444422E-2,3.294469789E-2
4.179962761E0,6.092993543E-2,-7.852666080E-2,2.439259365E-2
4.182396354E0,5.787561089E-2,-7.241801172E-2,2.133826911E-2
4.184830886E0,6.276252866E-2,-6.692022830E-2,2.011654153E-2
4.187266094E0,5.665388331E-2,-6.020072103E-2,1.889481023E-2
4.189700573E0,5.848647654E-2,-5.592466891E-2,1.095356978E-2
4.192134167E0,6.092993543E-2,-4.920515418E-2,1.156443357E-2
4.194568646E0,5.604301766E-2,-4.309650883E-2,8.510110900E-3
4.197003906E0,5.909734219E-2,-3.820959106E-2,6.677515805E-3
4.199438333E0,5.665388331E-2,-3.332267329E-2,5.688704550E-4
4.201871979E0,5.604301766E-2,-3.026834689E-2,-6.528608501E-4
4.204306458E0,5.482129008E-2,-2.415969968E-2,-6.528608501E-4
4.206741719E0,5.359955877E-2,-2.171624079E-2,-2.485454082E-3
4.209176146E0,5.543215200E-2,-1.988364570E-2,-4.928912967E-3
4.211609740E0,5.665388331E-2,-1.744018681E-2,-9.204966016E-3
4.214044271E0,5.665388331E-2,-1.927278191E-2,-7.372371852E-3
4.216479479E0,5.909734219E-2,-1.866191812E-2,-5.539777689E-3
4.218913958E0,6.031906977E-2,-1.805105247E-2,-1.042669546E-2
4.221347552E0,5.848647654E-2,-1.805105247E-2,-8.594101295E-3
4.223782083E0,6.092993543E-2,-1.805105247E-2,-9.815830737E-3
4.226217292E0,5.787561089E-2,-1.988364570E-2,-8.594101295E-3
4.228651771E0,6.276252866E-2,-2.293797024E-2,-1.042669546E-2
4.231085365E0,6.398425996E-2,-2.110537700E-2,-9.815830737E-3
4.233519844E0,6.398425996E-2,-2.415969968E-2,-1.225928962E-2
4.235955104E0,6.337339431E-2,-2.477056347E-2,-1.103756018E-2
4.238389531E0,6.581684947E-2,-2.354883589E-2,-1.042669546E-2
4.240823125E0,6.520599127E-2,-2.599229477E-2,-1.348101906E-2
4.243257656E0,6.520599127E-2,-2.599229477E-2,-1.103756018E-2
4.245692917E0,6.398425996E-2,-2.477056347E-2,-1.409188379E-2
4.248127344E0,6.520599127E-2,-2.782488801E-2,-1.103756018E-2
4.250560938E0,6.887117773E-2,-2.599229477E-2,-1.287015434E-2
4.252995469E0,6.276252866E-2,-2.354883589E-2,-1.225928962E-2
4.255430677E0,6.459511817E-2,-2.293797024E-2,-1.103756018E-2
4.257865156E0,6.398425996E-2,-2.049451135E-2,-1.348101906E-2
4.260298750E0,6.337339431E-2,-1.805105247E-2,-1.103756018E-2
4.262733229E0,6.459511817E-2,-1.744018681E-2,-1.103756018E-2
4.265168490E0,6.764944643E-2,-1.438586414E-2,-1.287015434E-2
4.267602917E0,6.337339431E-2,-1.194240525E-2,-1.103756018E-2
4.270036563E0,6.581684947E-2,-8.277216926E-3,-8.594101295E-3
4.272471042E0,6.276252866E-2,-7.666352205E-3,-7.983236574E-3
4.274906302E0,6.154080108E-2,-6.444622763E-3,-9.204966016E-3
4.277340729E0,6.031906977E-2,-5.833758041E-3,-7.372371852E-3
4.279774323E0,5.909734219E-2,-4.001163878E-3,-5.539777689E-3
4.282208854E0,5.726474524E-2,-5.833758041E-3,-4.928912967E-3
4.284644063E0,5.115609989E-2,-4.612028599E-3,-4.318048246E-3
4.287078542E0,4.993437231E-2,-3.390299156E-3,-6.528608501E-4
4.289512136E0,4.871264100E-2,-4.001163878E-3,1.790598035E-3
4.291946615E0,4.688004777E-2,-5.833758041E-3,3.623193130E-3
4.294381875E0,4.199313000E-2,-4.001163878E-3,6.677515805E-3
4.296816354E0,3.710621223E-2,-5.833758041E-3,8.510110900E-3
4.299249948E0,3.893880546E-2,-5.833758041E-3,1.034270599E-2
4.301684427E0,3.527361900E-2,-6.444622763E-3,9.731840342E-3
4.304119688E0,3.221929446E-2,-8.277216926E-3,1.278616488E-2
4.306554115E0,3.038669936E-2,-5.222893320E-3,1.889481023E-2
4.308987708E0,2.611064538E-2,-1.010981109E-2,1.584048942E-2
4.311422240E0,2.244545892E-2,-1.133154053E-2,1.645135134E-2
4.313857500E0,2.183459327E-2,-8.888081647E-3,1.828394458E-2
4.316291927E0,2.122372761E-2,-1.010981109E-2,2.133826911E-2
4.318725521E0,2.000200003E-2,-1.072067581E-2,2.194913477E-2
4.321160052E0,1.816940494E-2,-9.498946369E-3,2.194913477E-2
4.323595261E0,2.122372761E-2,-1.072067581E-2,2.561432496E-2
4.326029740E0,1.939113438E-2,-1.255326997E-2,2.683605254E-2
4.328463333E0,2.244545892E-2,-1.499672886E-2,2.683605254E-2
4.330897813E0,2.305632271E-2,-1.499672886E-2,2.317086235E-2
4.333333073E0,2.611064538E-2,-1.927278191E-2,2.683605254E-2
4.335767500E0,2.611064538E-2,-2.415969968E-2,2.927951142E-2
4.338201146E0,2.488891780E-2,-2.599229477E-2,2.989037707E-2
4.340635625E0,2.672151104E-2,-3.026834689E-2,2.866864577E-2
4.343070886E0,2.977583557E-2,-3.515526652E-2,3.111210465E-2
4.345505313E0,3.221929446E-2,-3.637699783E-2,2.989037707E-2
4.347938906E0,2.916496992E-2,-4.004218429E-2,3.294469789E-2
4.350373438E0,3.160842881E-2,-4.492910206E-2,3.294469789E-2
4.352808646E0,2.977583557E-2,-4.859428853E-2,4.027507827E-2
4.355243125E0,3.099756315E-2,-5.409207195E-2,3.783161566E-2
4.357676719E0,3.344102204E-2,-5.470293760E-2,3.722075373E-2
4.360111250E0,3.527361900E-2,-6.142244861E-2,3.783161566E-2
4.362546458E0,3.405188769E-2,-6.081158668E-2,3.660988808E-2
4.364980938E0,3.954967111E-2,-6.203331426E-2,3.416642919E-2
4.367414531E0,4.260399193E-2,-6.569850445E-2,3.416642919E-2
4.369849011E0,4.077139869E-2,-6.142244861E-2,3.355556354E-2
4.372284271E0,4.321485758E-2,-6.325504184E-2,3.233383596E-2
4.374718698E0,4.565831646E-2,-6.386590749E-2,2.989037707E-2
4.377152344E0,4.932350665E-2,-6.447677314E-2,2.744691819E-2
4.379586823E0,4.749090970E-2,-6.264417619E-2,2.622518688E-2
4.382022083E0,5.421042442E-2,-6.264417619E-2,2.561432496E-2
4.384456511E0,5.665388331E-2,-6.020072103E-2,2.256000042E-2
4.386890104E0,5.848647654E-2,-5.958985537E-2,2.133826911E-2
4.389324636E0,5.970820785E-2,-5.836812407E-2,1.950567588E-2
4.391759844E0,5.909734219E-2,-5.775726214E-2,1.584048942E-2
4.394194323E0,6.459511817E-2,-5.531380326E-2,1.522962376E-2
4.396627917E0,6.215166301E-2,-5.287034437E-2,1.461875811E-2
4.399062396E0,6.398425996E-2,-5.470293760E-2,1.339702681E-2
4.401497656E0,5.970820785E-2,-5.103775114E-2,1.400789246E-2
4.403932083E0,5.787561089E-2,-5.164861307E-2,1.584048942E-2
4.406365729E0,5.543215200E-2,-5.042688549E-2,8.510110900E-3
4.408800208E0,5.482129008E-2,-5.225947872E-2,1.095356978E-2
4.411235469E0,5.543215200E-2,-5.164861307E-2,1.156443357E-2
4.413669896E0,5.115609989E-2,-5.225947872E-2,1.339702681E-2
4.416103490E0,4.749090970E-2,-5.103775114E-2,9.120974690E-3
4.418538021E0,4.199313000E-2,-4.920515418E-2,1.034270599E-2
4.420973229E0,4.077139869E-2,-4.981601983E-2,1.217529923E-2
4.423407708E0,4.077139869E-2,-4.798342660E-2,1.278616488E-2
4.425841302E0,3.649534658E-2,-4.492910206E-2,1.217529923E-2
4.428275781E0,3.344102204E-2,-4.187477753E-2,1.584048942E-2
4.430711042E0,2.977583557E-2,-4.065304995E-2,1.522962376E-2
4.433145521E0,2.855410427E-2,-3.698785976E-2,1.828394458E-2
4.435579115E0,2.366718650E-2,-3.576613218E-2,1.828394458E-2
4.438013594E0,2.366718650E-2,-3.210094199E-2,2.317086235E-2
4.440448854E0,2.244545892E-2,-3.087921254E-2,1.889481023E-2
4.442883281E0,1.816940494E-2,-2.904661745E-2,1.767308265E-2
4.445316927E0,1.694767550E-2,-2.721402235E-2,1.828394458E-2
4.447751406E0,1.450421661E-2,-2.415969968E-2,2.500345930E-2
4.450186667E0,1.267162338E-2,-2.110537700E-2,2.194913477E-2
4.452621094E0,1.328248717E-2,-1.866191812E-2,2.256000042E-2
4.455054688E0,1.022816449E-2,-1.560759358E-2,1.950567588E-2
4.457489219E0,7.784705609E-3,-1.377499942E-2,2.072740719E-2
4.459924427E0,7.784705609E-3,-1.316413470E-2,2.133826911E-2
4.462358906E0,8.395569399E-3,-8.277216926E-3,1.950567588E-2
4.464792500E0,7.173839957E-3,-6.444622763E-3,2.133826911E-2
4.467226979E0,5.952110514E-3,-4.001163878E-3,2.194913477E-2
4.469662240E0,6.562974304E-3,-3.359756083E-4,1.645135134E-2
4.472096667E0,8.395569399E-3,8.857538342E-4,1.767308265E-2
4.474530313E0,1.083902828E-2,2.718348056E-3,1.584048942E-2
4.476964792E0,1.206075773E-2,7.605265826E-3,1.889481023E-2
4.479400052E0,1.633680984E-2,9.437859990E-3,1.828394458E-2
4.481834479E0,1.450421661E-2,1.004872471E-2,2.011654153E-2
4.484268073E0,1.694767550E-2,1.310304832E-2,1.584048942E-2
4.486702604E0,1.816940494E-2,1.493564248E-2,1.706221700E-2
4.489137813E0,2.305632271E-2,1.493564248E-2,1.217529923E-2
4.491572292E0,2.488891780E-2,1.676823758E-2,7.899247110E-3
4.494005886E0,2.916496992E-2,1.737910137E-2,1.217529923E-2
4.496440417E0,2.733237669E-2,1.860083081E-2,9.731840342E-3
4.498875625E0,3.160842881E-2,1.798996516E-2,7.288381457E-3
4.501310104E0,3.221929446E-2,1.860083081E-2,4.234056920E-3
4.503743698E0,3.405188769E-2,2.226601914E-2,3.623193130E-3
4.506178177E0,3.466275334E-2,2.043342404E-2,1.179734245E-3
4.508613438E0,3.221929446E-2,2.104428969E-2,5.688704550E-4
4.511047865E0,3.527361900E-2,2.348774858E-2,1.179734245E-3
4.513481511E0,3.649534658E-2,2.409861423E-2,2.401463687E-3
4.515915990E0,4.077139869E-2,2.165515535E-2,-6.761507131E-3
4.518351250E0,4.077139869E-2,2.348774858E-2,-7.372371852E-3
4.520785677E0,4.321485758E-2,2.837466635E-2,-6.150642410E-3
4.523219271E0,4.138226435E-2,2.532034181E-2,-6.150642410E-3
4.525653802E0,4.443658888E-2,2.654207312E-2,-8.594101295E-3
4.528089011E0,4.260399193E-2,2.532034181E-2,-9.204966016E-3
4.530523490E0,4.688004777E-2,2.715293691E-2,-1.103756018E-2
4.532957083E0,4.871264100E-2,2.654207312E-2,-1.042669546E-2
4.535391563E0,4.504745454E-2,2.593120746E-2,-1.409188379E-2
4.537826823E0,5.054523423E-2,2.715293691E-2,-9.815830737E-3
4.540261250E0,4.993437231E-2,2.654207312E-2,-1.103756018E-2
4.542694896E0,5.054523423E-2,2.776380070E-2,-9.815830737E-3
4.545129375E0,5.115609989E-2,2.959639579E-2,-1.164842490E-2
4.547564636E0,4.993437231E-2,3.020725958E-2,-1.042669546E-2
4.549999063E0,4.810177535E-2,2.898553200E-2,-1.042669546E-2
4.552432708E0,4.749090970E-2,2.959639579E-2,-7.372371852E-3
4.554867188E0,4.749090970E-2,2.837466635E-2,-7.983236574E-3
4.557302396E0,4.504745454E-2,2.837466635E-2,-6.761507131E-3
4.559736875E0,4.321485758E-2,2.837466635E-2,-4.928912967E-3
4.562170469E0,4.260399193E-2,2.837466635E-2,-4.318048246E-3
4.564605000E0,3.954967111E-2,2.837466635E-2,-1.263724640E-3
4.567040208E0,4.077139869E-2,2.470947802E-2,-4.199519753E-5
4.569474688E0,3.649534658E-2,2.409861423E-2,2.401463687E-3
4.571908281E0,3.527361900E-2,2.470947802E-2,6.677515805E-3
4.574342761E0,3.221929446E-2,2.409861423E-2,7.899247110E-3
4.576778021E0,3.405188769E-2,2.287688293E-2,9.731840342E-3
4.579212448E0,2.672151104E-2,2.165515535E-2,1.278616488E-2
4.581646094E0,2.549978159E-2,2.348774858E-2,1.400789246E-2
4.584080573E0,2.305632271E-2,2.287688293E-2,1.950567588E-2
4.586515833E0,2.000200003E-2,2.348774858E-2,1.950567588E-2
4.588950261E0,1.816940494E-2,2.226601914E-2,2.378172800E-2
4.591383854E0,1.511508226E-2,2.409861423E-2,2.378172800E-2
4.593818386E0,1.022816449E-2,2.348774858E-2,2.927951142E-2
4.596253594E0,8.395569399E-3,2.226601914E-2,2.927951142E-2
4.598688073E0,7.173839957E-3,2.532034181E-2,3.355556354E-2
4.601121667E0,4.730381072E-3,2.226601914E-2,2.989037707E-2
4.603556198E0,-1.565366983E-4,2.593120746E-2,3.844248131E-2
4.605991406E0,-1.378264278E-3,3.020725958E-2,3.538816050E-2
4.608425886E0,-3.210861236E-3,3.020725958E-2,3.783161566E-2
4.610859479E0,-5.043454468E-3,3.326158226E-2,3.966421261E-2
4.613293958E0,-6.876047701E-3,3.570504114E-2,4.210767150E-2
4.615729219E0,-7.486913353E-3,3.875936568E-2,4.332939908E-2
4.618163646E0,-8.097779006E-3,4.242455214E-2,4.882718250E-2
4.620597292E0,-9.930372238E-3,4.608974233E-2,4.882718250E-2
4.623031771E0,-1.176296547E-2,4.853320122E-2,5.432496592E-2
4.625467031E0,-1.176296547E-2,4.853320122E-2,5.615755543E-2
4.627901458E0,-1.298469678E-2,4.914406687E-2,5.737928674E-2
4.630335052E0,-9.930372238E-3,4.608974233E-2,5.921188369E-2
4.632769583E0,-8.708644658E-3,4.486801103E-2,6.165533885E-2
4.635204792E0,-7.486913353E-3,4.425714910E-2,6.532053649E-2
4.637639271E0,-8.097779006E-3,4.059195891E-2,6.409880519E-2
4.640072865E0,-9.319506586E-3,3.937023133E-2,6.959658861E-2
4.642507344E0,-5.654320121E-3,3.570504114E-2,6.959658861E-2
4.644942604E0,4.119515419E-3,3.081812523E-2,6.776398420E-2
4.647377083E0,4.543289542E-4,2.898553200E-2,6.959658861E-2
4.649810677E0,3.508651629E-3,2.470947802E-2,7.448349893E-2
4.652245156E0,4.119515419E-3,2.043342404E-2,7.204003632E-2
4.654680417E0,6.562974304E-3,1.737910137E-2,7.753781974E-2
4.657114844E0,1.022816449E-2,1.188131887E-2,7.875955105E-2
4.659548490E0,9.006433189E-3,6.383536384E-3,7.937042415E-2
4.661982969E0,1.816940494E-2,2.748891129E-4,7.937042415E-2
4.664418229E0,1.939113438E-2,-5.222893320E-3,8.242474496E-2
4.666852656E0,2.794324048E-2,-8.888081647E-3,8.425733447E-2
4.669286250E0,3.221929446E-2,-1.438586414E-2,8.425733447E-2
4.671720781E0,3.710621223E-2,-2.232710458E-2,8.242474496E-2
4.674155990E0,3.832793981E-2,-2.782488801E-2,8.670079708E-2
4.676590469E0,4.565831646E-2,-3.332267329E-2,8.975511789E-2
4.679024063E0,5.115609989E-2,-4.309650883E-2,9.097684920E-2
4.681458542E0,5.482129008E-2,-4.737256095E-2,8.914425969E-2
4.683893802E0,5.970820785E-2,-5.653553084E-2,9.403117001E-2
4.686328229E0,6.276252866E-2,-6.081158668E-2,9.647463262E-2
4.688761875E0,6.826031208E-2,-7.058542222E-2,9.708549082E-2
4.691196354E0,6.764944643E-2,-7.547233999E-2,9.769636393E-2
4.693631615E0,7.192550600E-2,-8.097012341E-2,9.769636393E-2
4.696066042E0,7.559068501E-2,-8.952222764E-2,1.019724160E-1
4.698499636E0,7.864501327E-2,-9.868519753E-2,1.019724160E-1
4.700934167E0,8.414278924E-2,-1.102916300E-1,1.019724160E-1
4.703369375E0,9.086230397E-2,-1.206763312E-1,1.068593413E-1
4.705803854E0,9.208403528E-2,-1.286175549E-1,1.080810577E-1
4.708237448E0,9.758181870E-2,-1.359479427E-1,1.111353934E-1
4.710671979E0,9.758181870E-2,-1.420565844E-1,1.123571098E-1
4.713107188E0,1.012470126E-1,-1.493869573E-1,1.215200871E-1
4.715541667E0,1.030796021E-1,-1.554956138E-1,1.221309602E-1
4.717975261E0,1.018578708E-1,-1.634368449E-1,1.209092289E-1
4.720409740E0,1.079665124E-1,-1.695455015E-1,1.288504601E-1
4.722845000E0,1.018578708E-1,-1.725998223E-1,1.331265122E-1
4.725279427E0,1.061339229E-1,-1.738215536E-1,1.349591166E-1
4.727713073E0,1.024687439E-1,-1.787084639E-1,1.410677582E-1
4.730147552E0,1.030796021E-1,-1.823736578E-1,1.465655416E-1
4.732582813E0,9.941440821E-2,-1.854279786E-1,1.526741832E-1
4.735017240E0,9.513835609E-2,-1.878714412E-1,1.581719667E-1
4.737450833E0,9.208403528E-2,-1.927583516E-1,1.624480188E-1
4.739885365E0,8.597539365E-2,-1.982561350E-1,1.691675335E-1
4.742320573E0,7.803414762E-2,-2.000887394E-1,1.752761900E-1
4.744755052E0,6.703858078E-2,-2.037539184E-1,1.844391525E-1
4.747188646E0,5.848647654E-2,-2.104734331E-1,1.856608838E-1
4.749623125E0,4.565831646E-2,-2.153603584E-1,1.911586672E-1
4.752058386E0,3.466275334E-2,-2.208581418E-1,1.948238611E-1
4.754492813E0,2.488891780E-2,-2.269667834E-1,2.021542341E-1
4.756926458E0,1.022816449E-2,-2.379623502E-1,2.076520175E-1
4.759360938E0,-2.599995583E-3,-2.459035814E-1,2.088737488E-1
4.761796198E0,-1.176296547E-2,-2.526231110E-1,2.119280696E-1
4.764230625E0,-2.520199120E-2,-2.605643570E-1,2.168149799E-1
4.766664219E0,-3.986274078E-2,-2.685056031E-1,2.174258530E-1
4.769098750E0,-4.902571812E-2,-2.746142447E-1,2.198693156E-1
4.771533958E0,-6.124300882E-2,-2.819446325E-1,2.223127633E-1
4.773968438E0,-6.735165417E-2,-2.849989533E-1,2.259779572E-1
4.776402031E0,-8.201241493E-2,-2.892749906E-1,2.247562259E-1
4.778836563E0,-9.422969818E-2,-2.904967368E-1,2.247562259E-1
4.781271771E0,-1.064469963E-1,-2.941619158E-1,2.229236364E-1
4.783706250E0,-1.143882424E-1,-2.923293114E-1,2.210910320E-1
4.786139844E0,-1.241620779E-1,-2.959945202E-1,2.198693156E-1
4.788574323E0,-1.321033090E-1,-2.984379828E-1,2.168149799E-1
4.791009583E0,-1.437097490E-1,-2.990488410E-1,2.113171965E-1
4.793444011E0,-1.498183906E-1,-2.996596992E-1,2.033759654E-1
4.795877656E0,-1.565379053E-1,-2.984379828E-1,2.027650923E-1
4.798312136E0,-1.669225991E-1,-3.002705574E-1,1.960455775E-1
4.800747396E0,-1.675334722E-1,-2.984379828E-1,1.887152046E-1
4.803181823E0,-1.797507554E-1,-2.984379828E-1,1.777196378E-1
4.805615417E0,-1.809724867E-1,-2.972162366E-1,1.722218543E-1
4.808049948E0,-1.821942180E-1,-2.966053784E-1,1.636697501E-1
4.810485156E0,-1.809724867E-1,-2.917184532E-1,1.569502354E-1
4.812919636E0,-1.803616285E-1,-2.923293114E-1,1.465655416E-1
4.815353229E0,-1.766964346E-1,-2.923293114E-1,1.410677582E-1
4.817787708E0,-1.754747033E-1,-2.904967368E-1,1.325156540E-1
4.820222969E0,-1.705877930E-1,-2.862206697E-1,1.227418184E-1
4.822657448E0,-1.644791365E-1,-2.856098115E-1,1.160223037E-1
4.825091042E0,-1.589813530E-1,-2.849989533E-1,1.062484682E-1
4.827525521E0,-1.547053009E-1,-2.843880951E-1,1.031941473E-1
4.829960781E0,-1.461531967E-1,-2.849989533E-1,9.525290132E-2
4.832395208E0,-1.406554133E-1,-2.862206697E-1,8.670079708E-2
4.834828854E0,-1.333250403E-1,-2.843880951E-1,8.181387186E-2
4.837263333E0,-1.259946674E-1,-2.886641324E-1,7.631608844E-2
4.839698594E0,-1.168316901E-1,-2.923293114E-1,6.654225290E-2
4.842133021E0,-1.113339067E-1,-2.947727740E-1,5.982274935E-2
4.844566615E0,-1.033926755E-1,-2.978270948E-1,4.821631685E-2
4.847001146E0,-9.667316079E-2,-2.959945202E-1,4.027507827E-2
4.849436354E0,-8.689932525E-2,-2.990488410E-1,3.233383596E-2
4.851870833E0,-7.895807922E-2,-2.972162366E-1,2.194913477E-2
4.854304427E0,-7.284943759E-2,-2.966053784E-1,1.217529923E-2
4.856738906E0,-6.185387447E-2,-2.904967368E-1,4.234056920E-3
4.859174167E0,-4.780398682E-2,-2.843880951E-1,-4.318048246E-3
4.861608594E0,-3.986274078E-2,-2.788903117E-1,-7.983236574E-3
4.864042240E0,-2.398025990E-2,-2.691164613E-1,-1.836793683E-2
4.866476719E0,-1.237383112E-2,-2.654512823E-1,-2.630917728E-2
4.868911979E0,-7.674023509E-4,-2.575100362E-1,-2.997436747E-2
4.871346406E0,1.022816449E-2,-2.514013946E-1,-3.425041959E-2
4.873780052E0,1.633680984E-2,-2.416275293E-1,-3.730474412E-2
4.876214531E0,2.733237669E-2,-2.373514771E-1,-3.913733736E-2
4.878649740E0,3.405188769E-2,-2.324645668E-1,-4.341338947E-2
4.881084219E0,4.199313000E-2,-2.269667834E-1,-3.974820301E-2
4.883517813E0,4.504745454E-2,-2.233015895E-1,-3.974820301E-2
4.885952344E0,4.565831646E-2,-2.233015895E-1,-3.486128524E-2
4.888387552E0,4.871264100E-2,-2.178038061E-1,-3.669387847E-2
4.890822031E0,4.871264100E-2,-2.171929479E-1,-3.302869201E-2
4.893255625E0,4.199313000E-2,-2.171929479E-1,-2.753090858E-2
4.895690104E0,4.260399193E-2,-2.123060226E-1,-2.447658405E-2
4.898125365E0,3.832793981E-2,-2.116951644E-1,-1.714620739E-2
4.900559792E0,3.038669936E-2,-2.086408436E-1,-1.225928962E-2
4.902993438E0,2.244545892E-2,-2.043647915E-1,-6.150642410E-3
4.905427917E0,1.572594605E-2,-2.019213289E-1,1.179734245E-3
4.907863177E0,5.341246724E-3,-1.964235455E-1,4.844922572E-3
4.910297604E0,-1.565366983E-4,-1.897040308E-1,1.584048942E-2
4.912731198E0,-1.054123789E-2,-1.829845160E-1,2.133826911E-2
4.915165729E0,-2.031507343E-2,-1.762650162E-1,2.378172800E-2
4.917600938E0,-3.069977090E-2,-1.689346284E-1,3.355556354E-2
4.920035417E0,-4.047360644E-2,-1.597716659E-1,4.149680585E-2
4.922469011E0,-5.024744198E-2,-1.487760991E-1,4.577286169E-2
4.924903490E0,-5.818868801E-2,-1.377805322E-1,5.188150331E-2
4.927338750E0,-6.857338548E-2,-1.298392862E-1,5.676842108E-2
4.929773229E0,-8.017981052E-2,-1.176220030E-1,5.737928674E-2
4.932206823E0,-8.812105656E-2,-1.072373018E-1,6.287707388E-2
4.934641302E0,-9.789489210E-2,-9.440914541E-2,6.898571551E-2
4.937076563E0,-1.101121902E-1,-8.280271292E-2,7.570523024E-2
4.939510990E0,-1.192751527E-1,-6.875282526E-2,7.692696154E-2
4.941944636E0,-1.308815777E-1,-5.897898972E-2,8.364647627E-2
