"Time (s)","Acceleration x (m/s^2)","Acceleration y (m/s^2)","Acceleration z (m/s^2)"
0.000000000E0,3.950550079E0,9.617950439E0,6.420541286E0
1.010239600E-2,1.511665702E0,1.079641533E1,3.602992773E0
1.266406200E-2,1.200000525E0,1.085384369E1,3.617349625E0
1.516385400E-2,8.650053740E-1,1.080598736E1,3.569493294E0
1.766364600E-2,5.389832854E-1,1.097827053E1,3.258426189E0
2.016348900E-2,2.039881349E-1,1.065763187E1,2.750549555E0
2.266328100E-2,-5.503492057E-2,1.017368412E1,2.146960020E0
2.516307300E-2,-2.464607358E-1,9.862018585E0,1.773081541E0
2.766286400E-2,-4.528416991E-1,9.713663101E0,1.529013634E0
3.016265600E-2,-5.150550604E-1,9.134002686E0,1.370489120E0
3.266244800E-2,-4.863412082E-1,8.516056061E0,1.112064362E0
3.516223900E-2,-4.815555513E-1,8.127820015E0,1.097707391E0
3.766203100E-2,-6.251249313E-1,7.581658363E0,1.887937069E0
4.025661400E-2,-8.931210637E-1,7.059424877E0,2.424527645E0
4.275640600E-2,-1.252642632E0,7.217351437E0,2.185245275E0
4.525619800E-2,-1.530808330E0,7.840083599E0,1.495514154E0
4.775598900E-2,-1.660020709E0,8.261817932E0,9.732806087E-1
5.025583300E-2,-1.789233088E0,8.745766640E0,5.946164131E-1
5.275562500E-2,-1.865803480E0,9.570094109E0,3.499503136E-1
5.525541600E-2,-1.899302959E0,9.694520950E0,3.308077157E-1
5.775520800E-2,-2.081755638E0,1.059541893E1,2.063809484E-1
6.025500000E-2,-2.690130949E0,1.250189972E1,-7.471588850E-1
6.275479100E-2,-2.258824587E0,1.787259102E1,-9.710672379E0
6.525458300E-2,-1.482951880E0,2.105863380E1,-1.710808372E1
6.775437500E-2,-2.072184324E0,1.826082611E1,-4.426722050E0
7.025645800E-2,-1.750947952E0,1.727378654E1,5.006981373E0
7.275625000E-2,-1.674377680E0,1.239661598E1,7.019345284E0
7.525604100E-2,-3.389433384E0,6.887141705E0,2.030489540E1
7.775583300E-2,-3.969094515E0,4.185046673E0,3.388715363E1
8.025567700E-2,-2.915056229E0,-3.040081263E0,3.015973473E1
8.275546900E-2,-1.908874273E0,-7.773682594E0,2.462633324E1
8.525526000E-2,-4.067798331E-2,-8.415556908E0,1.697468376E1
8.775505200E-2,1.660020709E0,-6.044270039E0,7.052844524E0
9.025484400E-2,2.541775942E0,-1.238883972E0,-8.189435601E-1
9.275463500E-2,3.193221807E0,4.400400639E0,-5.044668198E0
9.525442700E-2,3.763311863E0,8.539983749E0,-6.227919102E0
9.775421900E-2,4.333401680E0,1.079162979E1,-5.183452129E0
1.002534890E-1,4.630710125E0,1.203230858E1,-3.132802963E0
1.027532810E-1,4.592424870E0,1.243011570E1,-9.577272534E-1
1.052530730E-1,4.496711731E0,1.200359440E1,1.701296926E0
1.077528640E-1,4.280759811E0,1.165902805E1,3.627519131E0
1.102527080E-1,3.830310822E0,1.132343483E1,4.901697159E0
1.127525000E-1,3.433102369E0,1.089691448E1,6.223731518E0
1.152522910E-1,3.059223652E0,1.047517967E1,7.062416077E0
1.177520830E-1,2.417349100E0,1.031246758E1,7.191628456E0
1.202518750E-1,1.904686809E0,1.021675491E1,6.952346325E0
1.227516660E-1,1.549950838E0,1.024546814E1,6.329614162E0
1.252514580E-1,1.109073281E0,1.032682419E1,5.548357487E0
1.277512500E-1,7.645068169E-1,1.016889763E1,4.858626366E0
1.302505210E-1,6.155536175E-1,9.842875481E0,4.441677094E0
1.327503120E-1,6.735795736E-1,9.560523033E0,3.948157310E0
1.352501040E-1,8.458628058E-1,9.507881165E0,3.267997503E0
1.377498960E-1,7.214360237E-1,9.555737495E0,2.539382935E0
1.402497390E-1,8.123632669E-1,9.296713829E0,1.739582062E0
1.427495310E-1,9.702895880E-1,8.736195564E0,1.078564763E0
1.452493230E-1,1.089930773E0,8.501698494E0,6.376872063E-1
1.477491140E-1,1.099501967E0,8.472985268E0,2.350948304E-1
1.502489060E-1,1.238883972E0,8.381459236E0,8.195417374E-2
1.527486980E-1,1.449452281E0,8.118248940E0,-1.818545163E-1
1.552484890E-1,1.578664780E0,7.557730198E0,-3.290131316E-2
1.577482810E-1,1.626521230E0,7.140780926E0,2.733799815E-1
1.602475520E-1,1.368096352E0,6.896713257E0,7.142575383E-1
1.627473440E-1,1.171286702E0,6.723831654E0,1.581655741E0
1.652471350E-1,1.214955688E0,6.494120598E0,2.683550596E0
1.677469270E-1,9.942178130E-1,6.317051888E0,3.713660717E0
1.702467710E-1,9.559326172E-1,5.938387394E0,4.657031059E0
1.727465620E-1,1.224527001E0,5.425725460E0,5.629713535E0
1.752463540E-1,1.272383451E0,5.397011280E0,6.430112839E0
1.777461460E-1,1.449452281E0,4.688137531E0,7.374081135E0
1.802459370E-1,1.459023595E0,4.822135925E0,8.231309891E0
1.827457290E-1,8.554341197E-1,5.775675774E0,9.060422897E0
1.852455210E-1,2.327020019E-1,6.417550564E0,1.002772141E1
1.877453120E-1,-2.799602449E-1,6.728617191E0,1.080897808E1
1.902445830E-1,-9.266205430E-1,6.489335060E0,1.169073296E1
1.927443750E-1,-1.913659930E0,6.239883423E0,1.292662621E1
1.952441660E-1,-2.349751949E0,6.527620316E0,1.349671650E1
1.977439580E-1,-2.800200701E0,6.336194515E0,1.393759346E1
2.002438020E-1,-2.838485956E0,6.043671608E0,1.436890030E1
2.027435940E-1,-2.833700180E0,6.034100533E0,1.457468319E1
2.052433850E-1,-2.742773056E0,6.101099491E0,1.460339642E1
2.077431770E-1,-2.483749866E0,6.307480335E0,1.427258873E1
2.102429690E-1,-2.301895380E0,6.201598167E0,1.379881001E1
2.127427600E-1,-2.340180635E0,6.072385788E0,1.321855068E1
2.152425520E-1,-2.474178553E0,6.024528980E0,1.263888931E1
2.177423440E-1,-2.464607239E0,5.799603939E0,1.177687454E1
2.202416140E-1,-2.507678032E0,5.852245808E0,1.107218838E1
2.227414060E-1,-2.340180635E0,6.211169243E0,1.064626598E1
2.252411980E-1,-1.817947030E0,6.503692150E0,9.697511673E0
2.277409890E-1,-1.597807288E0,6.484549522E0,8.734400749E0
2.302408330E-1,-1.319641709E0,6.666403770E0,8.288737297E0
2.327406250E-1,-7.782655358E-1,6.790830612E0,8.226524353E0
2.352404160E-1,-1.651047617E-1,6.795616150E0,8.001599312E0
2.377402080E-1,1.657029688E-1,6.618547440E0,7.325626373E0
2.402400000E-1,4.336991012E-1,6.249454498E0,6.506682873E0
2.427397910E-1,6.251249313E-1,5.775675774E0,5.903093338E0
2.452395830E-1,7.788637877E-1,5.430510998E0,5.467001438E0
2.477393750E-1,7.932206988E-1,5.181059361E0,5.212764263E0
2.502386460E-1,8.506484628E-1,4.846064091E0,4.801198483E0
2.527384370E-1,8.458628058E-1,4.615755081E0,4.365106583E0
2.552382290E-1,7.070791125E-1,4.448257446E0,3.593421459E0
2.577380210E-1,3.427718580E-1,4.333401680E0,3.028116941E0
2.602378640E-1,-1.890329868E-1,4.275974274E0,2.855833769E0
2.627376560E-1,-5.916253924E-1,4.347758770E0,2.922832966E0
2.652374480E-1,-1.013360381E0,4.309473515E0,3.263211966E0
2.677372390E-1,-9.942178130E-1,4.481756687E0,3.521636724E0
2.702370310E-1,-1.190429211E0,4.610969067E0,4.034298897E0
2.727368230E-1,-1.367498159E0,4.683351994E0,4.470390797E0
2.752366140E-1,-1.578664780E0,4.779065132E0,4.887340069E0
2.777364060E-1,-1.789233088E0,4.822135925E0,5.280361176E0
2.802357290E-1,-1.918445587E0,5.085346222E0,5.639284611E0
2.827355210E-1,-1.942373753E0,4.975276470E0,6.310471535E0
2.852353120E-1,-1.875374794E0,4.975276470E0,6.918846607E0
2.877351040E-1,-1.703091502E0,5.152345181E0,7.445865631E0
2.902349480E-1,-1.664806366E0,5.296513081E0,7.852645874E0
2.927347390E-1,-1.545165181E0,5.353940487E0,8.073383331E0
2.952345310E-1,-1.367498159E0,5.425725460E0,8.264809608E0
2.977343230E-1,-1.324427366E0,5.420939922E0,8.394021988E0
3.002341140E-1,-1.424925923E0,5.243870735E0,8.437092781E0
3.027339060E-1,-1.343569875E0,5.277370453E0,8.303094864E0
3.052336980E-1,-1.252642632E0,5.358726501E0,8.240880966E0
3.077334890E-1,-1.219143152E0,5.349154949E0,8.303094864E0
3.102327600E-1,-9.942178130E-1,5.368297577E0,8.456833839E0
3.127325520E-1,-7.926225066E-1,5.277370453E0,8.475975990E0
3.152323440E-1,-4.719842672E-1,5.219942570E0,8.413164139E0
3.177321350E-1,-1.986042857E-1,5.137988567E0,8.288737297E0
3.202319790E-1,-1.459621787E-1,4.960919380E0,8.169096947E0
3.227317710E-1,-8.853443712E-2,4.702494621E0,7.809575081E0
3.252315620E-1,-8.374879509E-2,4.563112736E0,7.368697166E0
3.277313540E-1,-9.332008660E-2,4.472185612E0,6.952346325E0
3.302311460E-1,-6.460621208E-2,4.271188259E0,6.449255466E0
3.327309370E-1,-1.196411345E-2,4.146163464E0,6.022734642E0
3.352307290E-1,7.417750359E-2,4.060021877E0,5.754140377E0
3.377305210E-1,2.279163599E-1,3.969094515E0,5.543571949E0
3.402298440E-1,3.379862010E-1,3.954737663E0,5.385645390E0
3.427296350E-1,2.997010350E-1,3.983451605E0,5.188836098E0
3.452294270E-1,4.049852192E-1,3.906881094E0,4.868197441E0
3.477292190E-1,5.485545993E-1,4.021736622E0,4.422534466E0
3.502290620E-1,6.879364848E-1,4.232903481E0,3.651447296E0
3.527288540E-1,9.032905698E-1,4.409972191E0,2.602194548E0
3.552286460E-1,1.214955688E0,4.563112736E0,1.466202021E0
3.577284370E-1,1.473380566E0,4.654039860E0,4.073780477E-1
3.602282290E-1,1.482951880E0,4.793421745E0,-5.312066078E-1
3.627280210E-1,1.506880045E0,5.027918816E0,-1.173081279E0
3.652278120E-1,1.722234130E0,5.161916733E0,-1.110867858E0
3.677276040E-1,2.053041935E0,5.272584915E0,-4.594219327E-1
3.702269270E-1,2.335993052E0,5.497509956E0,3.978067636E-1
3.727267190E-1,2.580060959E0,5.751149178E0,1.116850019E0
3.752265100E-1,2.618346214E0,5.818746567E0,1.816152334E0
3.777263020E-1,2.297708035E0,5.919245243E0,2.548954248E0
3.802261460E-1,1.856830359E0,6.019743443E0,3.061616659E0
3.827259370E-1,1.569093466E0,6.134599209E0,3.478565931E0
3.852257290E-1,1.234098315E0,6.455835342E0,3.804588079E0
3.877255210E-1,7.310073376E-1,6.690331936E0,4.115654945E0
3.902253120E-1,2.901297510E-1,6.877570629E0,4.412963390E0
3.927251040E-1,-2.153540403E-2,7.030711174E0,4.676173687E0
3.952248960E-1,-1.411765367E-1,6.911069870E0,5.006981373E0
3.977246870E-1,-6.939185411E-2,6.709474564E0,5.184050083E0
4.002239580E-1,-6.939185411E-2,6.628118515E0,5.304289818E0
4.027237500E-1,-1.268195957E-1,6.455835342E0,5.510072231E0
4.052235410E-1,-1.986042857E-1,6.187241077E0,5.663212776E0
4.077233330E-1,-2.751746178E-1,5.904888153E0,5.936593056E0
4.102231770E-1,-3.565305769E-1,5.531009674E0,6.108876228E0
4.127229690E-1,-4.432703853E-1,5.075775146E0,6.223731518E0
4.152227600E-1,-4.336991012E-1,4.476971149E0,6.449255466E0
4.177225520E-1,-3.613162339E-1,3.667598963E0,6.588038921E0
4.202223440E-1,-4.528416991E-1,2.747558594E0,6.722036839E0
4.227221350E-1,-7.351947427E-1,1.774876237E0,6.981060028E0
4.252219270E-1,-9.846464992E-1,3.661018610E-1,6.817749977E0
4.277217190E-1,-3.038884699E-1,-8.075776696E-1,6.281159401E0
4.302210410E-1,1.657029688E-1,-2.632703066E0,6.022734642E0
4.327208330E-1,1.219741344E0,-4.668995380E0,5.691926956E0
4.352206250E-1,3.044866800E0,-6.178267956E0,5.093122959E0
4.377204160E-1,4.103690624E0,-6.638288021E0,5.342574596E0
4.402202600E-1,4.745565414E0,-6.762714863E0,5.888736725E0
4.427200520E-1,4.036691666E0,-2.958725214E0,6.199803352E0
4.452198440E-1,2.737987280E0,-1.992024779E-1,6.473183632E0
4.477196350E-1,2.014756680E0,7.686942816E-1,6.635895252E0
4.502194270E-1,2.292922258E0,9.559326172E-1,6.430112839E0
4.527192190E-1,2.761915445E0,1.607378602E0,5.788238049E0
4.552190100E-1,2.910868645E0,2.871985435E0,4.863411903E0
4.577188020E-1,3.164507866E0,4.232903481E0,3.909872293E0
4.602181250E-1,3.288934708E0,6.474977970E0,2.922832966E0
4.627179160E-1,3.600599766E0,9.114859581E0,2.237887383E0
4.652177080E-1,4.022335052E0,1.080120182E1,2.199602127E0
4.677175000E-1,3.528815269E0,1.137129116E1,3.492922783E0
4.702173440E-1,3.092723370E0,1.253539944E1,4.360321045E0
4.727171350E-1,2.436491728E0,1.457169151E1,4.983053207E0
4.752169270E-1,2.484348059E0,1.650269890E1,5.112265587E0
4.777167190E-1,4.480560422E-1,1.617667770E1,5.150550842E0
4.802165100E-1,-1.731805444E0,1.607139397E1,4.801198483E0
4.827163020E-1,-3.389433384E0,1.695255089E1,4.623531342E0
4.852160940E-1,-5.497509956E0,1.804965973E1,5.237290382E0
4.877158850E-1,-7.529016495E0,1.891705704E1,6.468397617E0
4.902152080E-1,-8.707481384E0,1.887877274E1,7.484150887E0
4.927150000E-1,-9.541379929E0,1.844268036E1,8.528617859E0
4.952147910E-1,-1.056610680E1,1.748435593E1,9.294919968E0
4.977145830E-1,-1.126122189E1,1.648834229E1,9.836296082E0
5.002144270E-1,-1.175952721E1,1.590329742E1,9.664012909E0
5.027142190E-1,-1.214716434E1,1.516570950E1,8.509475708E0
5.052140100E-1,-1.233918858E1,1.438505173E1,7.110272408E0
5.077138020E-1,-1.163928795E1,1.400638771E1,5.797809124E0
5.102135940E-1,-1.029811001E1,1.354636765E1,4.575675011E0
5.127133850E-1,-8.784051895E0,1.311984634E1,3.378067255E0
5.152131770E-1,-7.212565422E0,1.266939735E1,2.443670034E0
5.177129690E-1,-5.602794170E0,1.214716434E1,1.849651933E0
5.202122910E-1,-4.050450325E0,1.164467144E1,1.475773335E0
5.227121870E-1,-2.704487801E0,1.132822037E1,1.380060434E0
5.252120830E-1,-1.679163337E0,1.098305607E1,1.466202021E0
5.277119790E-1,-9.894321561E-1,1.069591713E1,1.696511269E0
5.302118230E-1,-5.629115105E-1,1.048475075E1,1.844866276E0
5.327117190E-1,-4.719842672E-1,1.031725311E1,1.911865234E0
5.352116140E-1,-5.246263742E-1,1.016889763E1,1.993221283E0
5.377115100E-1,-6.777670383E-1,9.943374634E0,2.218744755E0
5.402113540E-1,-9.463613629E-1,9.852447510E0,2.477169752E0
5.427112500E-1,-1.324427366E0,9.919445992E0,2.812762976E0
5.452111460E-1,-1.640878081E0,9.842875481E0,3.311068296E0
5.477109890E-1,-1.856232166E0,9.766305923E0,3.814159393E0
5.502093750E-1,-1.942373753E0,9.737591743E0,4.264608383E0
5.527092710E-1,-1.971087694E0,9.627521515E0,4.657031059E0
5.552091660E-1,-1.918445587E0,9.579665184E0,4.935196877E0
5.577090620E-1,-1.908874273E0,9.546165466E0,5.030909538E0
5.602089060E-1,-1.861017823E0,9.555737495E0,5.054837704E0
5.627088020E-1,-1.789233088E0,9.459425926E0,5.045266628E0
5.652086980E-1,-1.703091502E0,9.349356651E0,5.088337421E0
5.677085940E-1,-1.640878081E0,9.421140671E0,5.126622677E0
5.702084370E-1,-1.693520188E0,9.761520386E0,5.164907455E0
5.727083330E-1,-1.841875196E0,1.037946606E1,5.126622677E0
5.752082290E-1,-1.918445587E0,1.074855900E1,5.150550842E0
5.777080730E-1,-1.990230203E0,1.115593719E1,5.275575638E0
5.802064580E-1,-2.024327993E0,1.113679504E1,5.581857204E0
5.827063540E-1,-2.053041935E0,1.080598736E1,5.840879917E0
5.852062500E-1,-2.201396942E0,1.077248764E1,6.108876228E0
5.877061460E-1,-2.254039049E0,1.077248764E1,6.218945980E0
5.902059890E-1,-2.182254314E0,1.070070267E1,6.334399700E0
5.927058850E-1,-2.081755638E0,1.029811001E1,6.290730953E0
5.952057810E-1,-1.923231244E0,9.862018585E0,6.108876228E0
5.977056770E-1,-1.736590981E0,9.632308006E0,5.831308842E0
6.002055210E-1,-1.578664780E0,9.119645119E0,5.802595139E0
6.027054160E-1,-1.037288666E0,8.798408508E0,5.739783287E0
6.052053120E-1,-5.581258535E-1,8.745766640E0,5.831308842E0
6.077051560E-1,-3.134597540E-1,8.626125336E0,6.099305153E0
6.102035940E-1,-2.177468538E-1,8.592626572E0,6.544968128E0
6.127034890E-1,-2.632104978E-2,8.985647202E0,7.081558704E0
6.152033850E-1,2.709871531E-1,9.416355133E0,7.766504288E0
6.177032810E-1,3.379862010E-1,9.603593826E0,8.471190453E0
6.202031250E-1,3.714857101E-1,9.723235130E0,8.873184204E0
6.227030210E-1,4.145565331E-1,1.004447079E1,8.959325790E0
6.252029160E-1,5.006981492E-1,1.022154045E1,9.428917885E0
6.277028120E-1,3.571287692E-1,1.045125103E1,9.798010826E0
6.302026560E-1,1.944168359E-1,1.115593719E1,1.003729248E1
6.327025520E-1,1.220339537E-1,1.174516964E1,1.036810017E1
6.352024480E-1,1.417747438E-1,1.225783253E1,1.074676514E1
6.377022910E-1,1.657029688E-1,1.254018497E1,1.121157074E1
6.402006770E-1,2.135594189E-1,1.267418289E1,1.148435211E1
6.427005730E-1,1.992024779E-1,1.295713425E1,1.134556866E1
6.452004690E-1,2.135594189E-1,1.319163132E1,1.129292679E1
6.477003640E-1,3.667000830E-1,1.336929798E1,1.105304623E1
6.502002080E-1,3.619144261E-1,1.362772274E1,1.057388306E1
6.527001040E-1,2.087737769E-1,1.397767353E1,9.845867157E0
6.552000000E-1,3.589234129E-2,1.448076439E1,9.050851822E0
6.576998960E-1,-9.810572863E-2,1.509392548E1,8.432307243E0
6.601997390E-1,-1.746760458E-1,1.572622871E1,7.651648521E0
6.626996350E-1,-2.273181528E-1,1.603789330E1,6.712465763E0
6.651995310E-1,-2.703889608E-1,1.592244053E1,5.404788017E0
6.676993750E-1,6.939185411E-2,1.586979771E1,3.555136204E0
6.701977600E-1,1.540379524E0,1.718764496E1,6.238088608E0
6.726976560E-1,1.521237016E0,1.753759575E1,7.426723480E0
6.751975520E-1,1.976471543E0,1.694776535E1,5.026124001E0
6.776974480E-1,2.158325911E0,1.674676704E1,3.133999348E0
6.801972910E-1,2.761915445E0,1.687119484E1,1.715653777E0
6.826971870E-1,3.366103172E0,1.717807388E1,1.489532143E-1
6.851970830E-1,3.312862873E0,1.716850281E1,-1.149153113E0
6.876969790E-1,3.543172121E0,1.733121490E1,-2.198405743E0
6.901968230E-1,3.336791277E0,1.695733643E1,-3.099303484E0
6.926967190E-1,3.126222849E0,1.707279015E1,-3.755535126E0
6.951966140E-1,2.834298372E0,1.679940987E1,-4.201198578E0
6.976964580E-1,2.024327993E0,1.683769417E1,-4.028914928E0
7.001948960E-1,2.258824587E0,1.662234116E1,-4.033700943E0
7.026947910E-1,1.679163337E0,1.625803375E1,-3.937987804E0
7.051946870E-1,1.640878081E0,1.610010719E1,-3.559323788E0
7.076945830E-1,1.540379524E0,1.545823288E1,-3.564109325E0
7.101944270E-1,1.109073281E0,1.493121338E1,-3.300300598E0
7.126943230E-1,6.107679605E-1,1.446640778E1,-2.725425005E0
7.151942190E-1,2.805584669E-1,1.396331692E1,-2.352144718E0
7.176941140E-1,-1.196411345E-2,1.346979713E1,-2.011765718E0
7.201939580E-1,-1.746760458E-1,1.280399418E1,-1.594816327E0
7.226938540E-1,-3.756731451E-1,1.210409355E1,-9.625129104E-1
7.251937500E-1,-3.948157430E-1,1.124686432E1,-2.823530734E-1
7.276935940E-1,-3.804588020E-1,1.048475075E1,3.595215976E-1
7.301919790E-1,-3.517449200E-1,9.785448074E0,7.238288522E-1
7.326918750E-1,-3.708875179E-1,9.220144272E0,1.040279627E0
7.351917710E-1,-3.900300860E-1,8.788837433E0,1.365703583E0
7.376916660E-1,-4.097708762E-1,8.386244774E0,1.533799291E0
7.401915100E-1,-5.437689424E-1,7.941180229E0,1.706082582E0
7.426914060E-1,-6.203392744E-1,7.581658363E0,2.012363911E0
7.451913020E-1,-6.299105883E-1,7.255636692E0,2.352742910E0
7.476911980E-1,-6.346961856E-1,7.174280643E0,2.592623234E0
7.501910410E-1,-5.676971674E-1,7.313064098E0,2.946761131E0
7.526909370E-1,-4.432703853E-1,7.303493023E0,3.483351469E0
7.551908330E-1,-2.129612118E-1,7.385447025E0,4.005585194E0
7.576906770E-1,5.982056633E-2,7.390232563E0,4.661816597E0
7.601890620E-1,3.858426511E-1,7.298707485E0,5.557928562E0
7.626889580E-1,6.394818425E-1,7.121638298E0,6.635895252E0
7.651888540E-1,9.415757060E-1,6.652047157E0,7.431509018E0
7.676887500E-1,1.406381488E0,6.067600250E0,8.504690170E0
7.701885940E-1,1.995614052E0,5.483152866E0,9.409774780E0
7.726884890E-1,2.278565407E0,4.726422787E0,1.013360405E1
7.751883850E-1,2.374278307E0,3.830310822E0,1.054995537E1
7.776882810E-1,2.560918331E0,2.924627542E0,1.055474091E1
7.801881250E-1,2.790629387E0,2.167897224E0,1.042552853E1
7.826880210E-1,2.925225735E0,2.096112728E0,9.573084831E0
7.851879160E-1,3.198007345E0,1.999801517E0,9.266205788E0
7.876877600E-1,3.543172121E0,1.947159410E0,9.414560318E0
7.901861460E-1,4.036691666E0,1.789233088E0,9.304491043E0
7.926860410E-1,4.764708042E0,1.319641709E0,9.141778946E0
7.951859370E-1,5.449653625E0,1.142572761E0,9.002995491E0
7.976858330E-1,6.178267956E0,1.152144074E0,8.633902550E0
8.001856770E-1,6.772286415E0,1.602592945E0,8.231309891E0
8.026855730E-1,7.146164894E0,2.081755638E0,7.651648521E0
8.051854690E-1,7.395018578E0,2.325823545E0,6.981060028E0
8.076853640E-1,7.509873867E0,2.067398787E0,6.281159401E0
8.101852080E-1,7.308876991E0,2.368894339E0,5.687141418E0
8.126851040E-1,6.968497753E0,2.771486759E0,4.815555573E0
8.151850000E-1,6.474977970E0,2.881556749E0,3.952943087E0
8.176848440E-1,5.952744484E0,3.025125980E0,3.258426189E0
8.201832810E-1,5.584249973E0,3.087937593E0,2.898904562E0
8.226831770E-1,5.219942570E0,3.269792080E0,2.822334290E0
8.251830730E-1,4.716851711E0,3.533002615E0,2.774477959E0
8.276829690E-1,4.141975880E0,3.772883177E0,2.784049034E0
8.301828120E-1,3.595814228E0,3.997808456E0,2.965903759E0
8.326827080E-1,3.150151014E0,4.127020836E0,3.042474031E0
8.351826040E-1,2.771486759E0,4.376472473E0,3.032902718E0
8.376825000E-1,2.383849621E0,4.567898273E0,3.023331404E0
8.401823440E-1,1.971685886E0,4.721637249E0,3.013760090E0
8.426822390E-1,1.588235974E0,4.999204636E0,2.937189817E0
8.451821350E-1,1.406381488E0,5.176273346E0,2.721835852E0
8.476819790E-1,1.305882931E0,5.296513081E0,2.559123755E0
8.501803640E-1,1.272383451E0,5.344369411E0,2.266601324E0
8.526802600E-1,1.123430252E0,5.454439163E0,1.921436548E0
8.551801560E-1,8.123632669E-1,5.732006550E0,1.447059512E0
8.576800520E-1,6.927221417E-1,6.077171326E0,1.179063320E0
8.601798960E-1,7.214360237E-1,6.393621922E0,1.193420291E0
8.626797910E-1,7.166503668E-1,6.527620316E0,1.293918848E0
8.651796870E-1,6.299105883E-1,6.561119556E0,1.480558991E0
8.676795830E-1,6.346961856E-1,6.479763508E0,1.921436548E0
8.701794270E-1,7.980063558E-1,6.518048763E0,2.491526604E0
8.726793230E-1,1.080359459E0,6.671189308E0,3.042474031E0
8.751792190E-1,1.396810174E0,6.709474564E0,3.924229145E0
8.776790620E-1,1.578664780E0,6.580262184E0,4.930410862E0
8.801774480E-1,1.761117458E0,6.393621922E0,6.477969170E0
8.826773440E-1,2.374278307E0,6.278168201E0,6.976274490E0
8.851772390E-1,3.226721287E0,6.134599209E0,7.182057381E0
8.876771350E-1,3.705883980E0,5.967101574E0,7.024130821E0
8.901769790E-1,3.912265062E0,6.168098450E0,6.363113403E0
8.926768750E-1,4.003192425E0,6.752545357E0,5.270790100E0
8.951767710E-1,3.969692707E0,7.183851719E0,4.374678135E0
8.976766660E-1,4.146761417E0,7.658228874E0,3.392424345E0
9.001765100E-1,4.261617184E0,8.008178711E0,2.515454769E0
9.026764060E-1,4.223331928E0,8.410173416E0,1.864008784E0
9.051763020E-1,4.132404804E0,9.004789352E0,1.078564763E0
9.076761460E-1,3.907479286E0,9.191430092E0,5.706881881E-1
9.101745310E-1,3.863810301E0,9.268000603E0,2.207378894E-1
9.126744270E-1,4.151547432E0,9.440283775E0,9.631111473E-2
9.151743230E-1,4.271188259E0,9.186644554E0,-4.187439568E-3
9.176742190E-1,4.113262177E0,8.635697365E0,-9.990034252E-2
9.201740620E-1,4.118047714E0,8.463413239E0,9.631111473E-2
9.226739580E-1,3.955335855E0,8.056035995E0,2.015953064E-1
9.251738540E-1,3.835096598E0,7.610372543E0,4.701896608E-1
9.276737500E-1,3.782454491E0,7.390232563E0,5.467599630E-1
9.301735940E-1,3.356531858E0,7.135995388E0,6.664010882E-1
9.326734890E-1,2.944368362E0,7.102495670E0,8.961120844E-1
9.351733850E-1,2.546561480E0,6.848856449E0,8.913264275E-1
9.376732290E-1,2.153540373E0,6.939784050E0,8.051848412E-1
9.401716660E-1,1.842473388E0,6.752545357E0,5.802595019E-1
9.426715620E-1,1.396810174E0,6.489335060E0,4.893322289E-1
9.451714580E-1,8.075776696E-1,6.297909260E0,4.175475538E-1
9.476713540E-1,3.619144261E-1,6.312266350E0,7.190431952E-1
9.501711980E-1,1.417747438E-1,6.369693756E0,9.008977413E-1
9.526710940E-1,-1.076770201E-1,6.355337143E0,1.040279627E0
9.551709890E-1,-2.560320199E-1,6.297909260E0,1.346560955E0
9.576708850E-1,-4.145565331E-1,6.297909260E0,1.663011789E0
9.601707290E-1,-4.336991012E-1,6.355337143E0,1.816152334E0
9.626706250E-1,-5.629115105E-1,6.192026615E0,1.916650891E0
9.651705210E-1,-9.750752449E-1,6.384050846E0,2.626122952E0
9.676703640E-1,-8.356932998E-1,6.215955257E0,3.205784082E0
9.701688020E-1,-5.006981492E-1,6.235097408E0,3.622135162E0
9.726686980E-1,-6.634100676E-1,6.263811588E0,3.986442566E0
9.751685940E-1,-3.804588020E-1,6.642475605E0,4.642673969E0
9.776684890E-1,-3.278166950E-1,6.771687984E0,4.810770035E0
9.801683330E-1,-2.512463629E-1,7.226922512E0,5.333003521E0
9.826682290E-1,-4.049852192E-1,7.409375191E0,6.094519138E0
9.851681250E-1,-2.153540403E-2,7.792226791E0,6.769893646E0
9.876680210E-1,4.001995921E-1,8.376673698E0,7.460222721E0
9.901678640E-1,9.128618240E-1,8.640482903E0,7.761718273E0
9.926677600E-1,1.234098315E0,8.966505051E0,8.130811691E0
9.951676560E-1,1.272383451E0,8.851051331E0,8.121239662E0
9.976675000E-1,1.621735573E0,8.879764557E0,8.207381248E0
1.000165937E0,2.029113531E0,8.865407944E0,7.833503246E0
1.002665833E0,2.513062000E0,8.764909744E0,7.234699249E0
1.005165729E0,2.910868645E0,8.712266922E0,6.463612080E0
1.007665625E0,3.265006542E0,8.492127419E0,5.567500114E0
1.010165469E0,3.729812384E0,7.945965767E0,4.738985062E0
1.012665364E0,1.487737536E0,6.819544315E0,4.389034748E0
1.015165260E0,6.107679605E-1,4.812564373E0,3.387638569E0
1.017665156E0,-5.916253924E-1,2.507678032E0,4.336392879E0
1.020165000E0,-2.249253273E0,3.236292601E0,6.736393929E0
1.022664896E0,-3.422932863E0,4.543970108E0,6.995417118E0
1.025164791E0,-2.584846735E0,6.317051888E0,8.178668022E0
1.027664635E0,1.896311939E-1,8.922835350E0,8.054241180E0
1.030163073E0,2.618346214E0,1.099262714E1,6.650252342E0
1.032662969E0,2.680559635E0,1.134257793E1,4.293322086E0
1.035162812E0,1.602592945E0,1.130907822E1,2.973082066E-1
1.037662656E0,6.634100676E-1,1.160100269E1,-3.238087177E0
1.040162500E0,5.724828243E-1,1.145264721E1,-4.225126743E0
1.042662396E0,1.358525038E0,1.140000534E1,-3.573680639E0
1.045162239E0,1.411167145E0,1.122293663E1,-2.658426046E0
1.047662083E0,1.152144074E0,1.099262714E1,-2.145763636E0
1.050161927E0,1.099501967E0,1.081077290E1,-1.920838356E0
1.052661823E0,1.650449395E0,1.052782154E1,-2.390429735E0
1.055161666E0,1.607378602E0,9.799804688E0,-2.275574446E0
1.057661510E0,2.369492531E0,9.828518867E0,-2.217548370E0
1.060160208E0,2.258824587E0,9.392427444E0,-1.829911113E0
1.062660104E0,2.541775942E0,9.315856934E0,-1.446461320E0
1.065159948E0,2.302493572E0,8.855836868E0,-1.024726272E0
1.067659791E0,2.312064886E0,8.640482903E0,-6.849454641E-1
1.070159635E0,1.895115495E0,8.156534195E0,-2.392822653E-1
1.072659531E0,1.736590981E0,7.763513088E0,2.638086975E-1
1.075159375E0,1.089930773E0,6.608976364E0,1.045065284E0
1.077659219E0,9.128618240E-1,4.055236340E0,2.750549555E0
1.080159062E0,3.906283081E-1,-3.589234129E-2,5.667998791E0
1.082658958E0,-2.512463629E-1,-1.669592023E0,7.555935860E0
1.085158802E0,-9.463613629E-1,-2.662015259E-1,6.866204739E0
1.087658646E0,-8.165507317E-1,2.388036966E0,3.766302824E0
1.090157344E0,-2.321037948E-1,4.735994339E0,3.786641955E-1
1.092657239E0,-6.939185411E-2,6.786045074E0,-1.350748420E0
1.095157083E0,-2.368894368E-1,8.333602905E0,-1.542174220E0
1.097656927E0,-1.698904037E-1,9.153144836E0,-6.125625968E-1
1.100156771E0,2.997010350E-1,1.026939678E1,1.313061476E0
1.102656666E0,1.046859860E0,1.147179031E1,2.472383976E0
1.105156510E0,1.262812138E0,1.238225937E1,1.801795483E0
1.107656354E0,1.113858938E0,1.185523987E1,3.080759048E0
1.110156198E0,9.224331379E-1,1.114158058E1,4.585246563E0
1.112656094E0,9.942178130E-1,1.079162979E1,4.652245522E0
1.115155937E0,1.329811215E0,1.110808086E1,3.267997503E0
1.117655781E0,1.765903115E0,1.220997620E1,6.472585201E-1
1.120154479E0,2.014756680E0,1.311506081E1,-1.067797065E0
1.122654375E0,1.578664780E0,1.402552986E1,-1.642672777E0
1.125154219E0,9.511470199E-1,1.488335705E1,-2.188834429E0
1.127654062E0,1.094716311E0,1.513699627E1,-1.973480463E0
1.130153906E0,1.200000525E0,1.514656734E1,-1.518245935E0
1.132653802E0,1.113858938E0,1.469611835E1,-4.354937077E-1
1.135153646E0,7.597211599E-1,1.420738411E1,2.685943544E-1
1.137653489E0,-1.411765367E-1,1.379581928E1,6.089733839E-1
1.140153333E0,-1.420140266E0,1.273699474E1,1.950150490E0
1.142653229E0,-1.674377680E0,1.197009563E1,2.788834810E0
1.145153073E0,-1.156929731E0,1.222911835E1,2.544168711E0
1.147652916E0,-2.847459018E-1,1.231525993E1,2.017149448E0
1.150151614E0,4.959124923E-1,1.209930801E1,1.734796405E0
1.152651510E0,1.008574724E0,1.174995518E1,1.768295884E0
1.155151354E0,8.985049129E-1,1.132343483E1,1.864008784E0
1.157651198E0,5.006981492E-1,1.117029476E1,1.701296926E0
1.160151041E0,3.044866920E-1,1.116550827E1,1.313061476E0
1.162650937E0,3.110669367E-2,1.099262714E1,1.107278705E0
1.165150781E0,-2.321037948E-1,1.090648556E1,9.200403094E-1
1.167650625E0,-2.512463629E-1,1.087777138E1,9.391828775E-1
1.170150469E0,-1.794617027E-1,1.069591713E1,8.147560954E-1
1.172650364E0,-1.172483116E-1,1.046082211E1,8.195417523E-1
1.175150208E0,-1.220339537E-1,1.021675491E1,8.721838593E-1
1.177650052E0,-1.363908947E-1,9.866804123E0,1.150349498E0
1.180148750E0,-6.939185411E-2,9.468997002E0,1.231705427E0
1.182648646E0,1.316052526E-1,9.119645119E0,1.356132269E0
1.185148489E0,2.470589429E-1,8.927620888E0,1.456630826E0
1.187648333E0,3.475574851E-1,8.932407379E0,1.519442320E0
1.190148177E0,3.475574851E-1,8.879764557E0,1.619940877E0
1.192648073E0,2.566302419E-1,8.535198212E0,1.543370605E0
1.195147916E0,3.284149170E-1,8.650053978E0,1.811366796E0
1.197647760E0,6.681957245E-1,9.382855415E0,1.648654819E0
1.200147604E0,5.964110494E-1,9.503094673E0,1.274776220E0
1.202647500E0,5.150550604E-1,9.531808853E0,1.360917926E0
1.205147344E0,8.362914920E-1,9.119645119E0,1.016351461E0
1.207647187E0,1.037288666E0,8.961120605E0,1.025922656E0
1.210145885E0,7.836494446E-1,9.038289070E0,8.626125455E-1
1.212645781E0,5.294120312E-1,9.019146919E0,9.972088337E-1
1.215145625E0,5.006981492E-1,9.315856934E0,9.152546525E-1
1.217645469E0,4.671986103E-1,9.440283775E0,8.626125455E-1
1.220145312E0,5.198407173E-1,9.723235130E0,9.493523836E-1
1.222645208E0,5.198407173E-1,9.914660454E0,8.721838593E-1
1.225145052E0,4.289134443E-1,1.003968525E1,1.824527234E-1
1.227644896E0,2.853440940E-1,9.771091461E0,-7.663014531E-1
1.230144739E0,1.316052526E-1,9.373284340E0,-1.398604870E0
1.232644635E0,5.024927482E-2,9.507881165E0,-1.532602906E0
1.235144479E0,-1.411765367E-1,9.522237778E0,-1.772483349E0
1.237644323E0,-1.986042857E-1,9.594022751E0,-1.853839397E0
1.240143021E0,-2.177468538E-1,9.818947792E0,-1.709671736E0
1.242642916E0,-3.038884699E-1,1.028853893E1,-1.613958836E0
1.245142760E0,-4.528416991E-1,1.045603657E1,-1.365105271E0
1.247642604E0,-3.565305769E-1,1.044167995E1,-9.672985673E-1
1.250142448E0,-5.533402562E-1,1.070548820E1,-8.237292171E-1
1.252642344E0,-9.463613629E-1,1.055174923E1,-7.567301393E-1
1.255142187E0,-1.238285661E0,1.023111153E1,-9.816554785E-1
1.257642031E0,-1.367498159E0,1.010189915E1,-1.556531072E0
1.260141875E0,-1.526022673E0,9.818947792E0,-1.796411633E0
1.262641771E0,-1.798804402E0,9.430712700E0,-1.877767563E0
1.265141614E0,-1.856232166E0,9.057432175E0,-2.078764677E0
1.267641458E0,-1.770090580E0,8.587840080E0,-2.117049932E0
1.270140156E0,-1.645663738E0,8.218747139E0,-2.064407825E0
1.272640052E0,-1.683948994E0,7.907680511E0,-1.849053741E0
1.275139896E0,-1.779661894E0,7.591229916E0,-1.499103427E0
1.277639739E0,-1.717448473E0,7.371089935E0,-1.110867858E0
1.280139583E0,-1.526022673E0,7.083353043E0,-5.838487148E-1
1.282639479E0,-1.314856052E0,7.140780926E0,3.308077157E-1
1.285139323E0,-1.467996716E0,7.317849636E0,-6.705885530E-1
1.287639166E0,-8.931210637E-1,7.462017536E0,2.111666054E-1
1.290139010E0,-4.863412082E-1,7.691728592E0,2.494517565E-1
1.292638906E0,-2.177468538E-1,8.118248940E0,5.994020700E-1
1.295138750E0,2.901297510E-1,8.400602341E0,1.064207911E0
1.297638594E0,9.080761671E-1,8.946763992E0,1.485942841E0
1.300137291E0,1.056431174E0,9.449854851E0,2.056032896E0
1.302637187E0,1.234098315E0,9.507881165E0,3.598206997E0
1.305137031E0,6.107679605E-1,9.675378799E0,3.900300980E0
1.307636875E0,-6.825526357E-1,1.031246758E1,4.465605259E0
1.310136719E0,-7.591229677E-1,1.033160973E1,4.226323128E0
1.312636614E0,-1.353141189E0,1.003430176E1,4.715056896E0
1.315136458E0,-1.429711580E0,9.881160736E0,4.566103935E0
1.317636302E0,-1.247856975E0,9.828518867E0,3.656233072E0
1.320136146E0,-7.734799385E-1,1.019282627E1,3.080759048E0
1.322636041E0,-1.554736495E0,1.055174923E1,2.693121910E0
1.325135885E0,-1.664806366E0,1.055653572E1,2.395813704E0
1.327635729E0,-7.615158081E0,1.457647705E1,7.344769001E0
1.330134427E0,-2.282752752E0,1.154357433E1,2.414956331E0
1.332634323E0,8.458628058E-1,9.818947792E0,-1.796411633E0
1.335134166E0,-2.273181528E-1,9.929018021E0,-3.195016384E0
1.337634010E0,-4.576273263E-1,9.780662537E0,-4.028914928E0
1.340133854E0,-3.708875179E-1,9.425926208E0,-3.285943747E0
1.342633750E0,-5.964110494E-1,9.162715912E0,-4.052843571E0
1.345133594E0,-1.415354609E0,9.847661972E0,-5.360520840E0
1.347633437E0,-1.851446509E0,1.009232807E1,-5.992824078E0
1.350133281E0,-1.942373753E0,9.478569031E0,-3.760320902E0
1.352633177E0,-2.340180635E0,9.071788788E0,-1.962114573E-1
1.355133021E0,-2.766701221E0,9.162715912E0,2.213959217E0
1.357632864E0,-3.336791277E0,9.670592308E0,3.061616659E0
1.360131562E0,-4.045664787E0,1.034596729E1,4.590032101E0
1.362631458E0,-4.386044025E0,1.117986584E1,6.290730953E0
1.365131302E0,-4.625326157E0,1.254018497E1,7.349554539E0
1.367631146E0,-3.940380573E0,1.302891922E1,7.905287743E0
1.370130989E0,-3.015554667E0,1.389631748E1,8.466404915E0
1.372630885E0,-1.918445587E0,1.482054520E1,8.820542336E0
1.375130729E0,-7.543373108E-1,1.551087475E1,8.648259163E0
1.377630573E0,8.123632669E-1,1.579322720E1,7.004988194E0
1.380130416E0,2.489133835E0,1.655534172E1,6.343971252E0
1.382630312E0,4.592424870E0,1.632981873E1,5.807380676E0
1.385130156E0,6.307480335E0,1.572622871E1,4.705485821E0
1.387630000E0,7.098308563E0,1.603789330E1,3.838087559E0
1.390128698E0,7.165307522E0,1.656012726E1,2.989831924E0
1.392628594E0,6.906284332E0,1.635374641E1,2.434098721E0
1.395128437E0,6.465406895E0,1.529013634E1,2.309672117E0
1.397628281E0,5.660820007E0,1.401117325E1,2.070389748E0
1.400128125E0,4.400400639E0,1.312463188E1,2.151745796E0
1.402628021E0,2.752344131E0,1.255932808E1,1.825723648E0
1.405127864E0,1.080359459E0,1.196052361E1,1.983649969E0
1.407627708E0,-4.480560422E-1,1.145743275E1,1.887937069E0
1.410127552E0,-1.128215909E0,1.100698376E1,2.170888424E0
1.412627448E0,-7.782655358E-1,1.069591713E1,3.105285645E0
1.415127291E0,-2.608176768E-1,1.012582684E1,3.699303865E0
1.417627135E0,7.417750359E-2,9.708877563E0,3.957728624E0
1.420125833E0,3.954139352E-1,9.632308006E0,4.432105541E0
1.422625729E0,1.640878081E0,9.536594391E0,5.289932728E0
1.425125573E0,2.479562521E0,1.052303600E1,6.137589931E0
1.427625416E0,1.430309772E0,1.289492130E1,6.434898376E0
1.430125260E0,-9.332008660E-2,1.600918007E1,6.458826542E0
1.432625156E0,-1.080359459E0,1.854317856E1,6.458826542E0
1.435125000E0,-1.803590059E0,2.003330994E1,5.793023586E0
1.437624844E0,-2.507678032E0,2.059382820E1,5.404788017E0
1.440124687E0,-3.058625460E0,2.057947159E1,5.021338463E0
1.442624583E0,-3.600001574E0,1.995673943E1,4.379463673E0
1.445124427E0,-3.983451605E0,1.831825447E1,3.637090445E0
1.447624271E0,-4.112663746E0,1.574058533E1,2.788834810E0
1.450122969E0,-4.117449760E0,1.313420391E1,2.079961061E0
1.452622864E0,-4.007379532E0,1.084427261E1,1.466202021E0
1.455122708E0,-3.734597921E0,8.798408508E0,9.876375198E-1
1.457622552E0,-3.183650494E0,7.131209850E0,8.195417523E-1
1.460122396E0,-2.354537487E0,5.674578667E0,8.147560954E-1
1.462622291E0,-1.487737536E0,4.587040901E0,8.961120844E-1
1.465122135E0,-8.021938205E-1,3.758526087E0,1.102493048E0
1.467621979E0,-2.273181528E-1,3.116651535E0,1.351346612E0
1.470121823E0,1.674975827E-2,2.690130949E0,1.447059512E0
1.472621719E0,1.609173268E-1,2.493321180E0,1.403988719E0
1.475121562E0,1.848455518E-1,2.474178553E0,1.121635556E0
1.477621406E0,1.028913707E-1,2.656631231E0,7.429714203E-1
1.480120104E0,5.982056633E-2,2.967698336E0,3.308077157E-1
1.482620000E0,4.067798331E-2,3.332005501E0,-1.375873014E-2
1.485119844E0,-7.896314561E-2,3.658027649E0,-4.211367965E-1
1.487619687E0,-1.316052526E-1,4.040879250E0,-6.125625968E-1
1.490119531E0,-1.172483116E-1,4.352544308E0,-3.110669553E-1
1.492619427E0,7.178467698E-3,4.639683247E0,1.298106313E-1
1.495119271E0,2.566302419E-1,4.932205677E0,6.999006271E-1
1.497619114E0,5.772684813E-1,5.099703312E0,1.289133191E0
1.500118958E0,9.798609018E-1,5.190630436E0,1.730010748E0
1.502618854E0,1.454237938E0,5.263013363E0,2.137388945E0
1.505118698E0,1.717448473E0,5.320441246E0,2.548954248E0
1.507618541E0,1.971685886E0,5.325226784E0,2.894119024E0
1.510117239E0,2.100898266E0,5.325226784E0,3.090928555E0
1.512617135E0,2.167897224E0,5.291727066E0,3.248854876E0
1.515116979E0,2.210968018E0,5.296513081E0,3.526422262E0
1.517616823E0,2.215753794E0,5.301298618E0,3.602992773E0
1.520116666E0,2.206182480E0,5.239085197E0,3.569493294E0
1.522616562E0,2.234896421E0,5.253442287E0,3.588635683E0
1.525116406E0,2.239681959E0,5.219942570E0,3.588635683E0
1.527616250E0,2.254039049E0,5.243870735E0,3.526422262E0
1.530116094E0,2.239681959E0,5.339583874E0,3.478565931E0
1.532615989E0,2.225325108E0,5.401797295E0,3.445066452E0
1.535115833E0,2.254039049E0,5.387440205E0,3.378067255E0
1.537615677E0,2.177468538E0,5.483152866E0,3.330210924E0
1.540114375E0,2.091326952E0,5.459224701E0,3.306282759E0
1.542614219E0,2.091326952E0,5.559723377E0,3.339782238E0
1.545114062E0,2.081755638E0,5.564508915E0,3.349353552E0
1.547613906E0,2.057827473E0,5.578866005E0,3.406781197E0
1.550113750E0,2.057827473E0,5.607579708E0,3.502494097E0
1.552613594E0,2.005185366E0,5.574080467E0,3.564707518E0
1.555113437E0,1.938186288E0,5.588437080E0,3.689732552E0
1.557613281E0,1.861616015E0,5.602794170E0,3.761517286E0
1.560113125E0,1.818545222E0,5.559723377E0,3.895515203E0
1.562612916E0,1.789831281E0,5.487938881E0,4.101297855E0
1.565112760E0,1.765903115E0,5.373083115E0,4.226323128E0
1.567612604E0,1.756331801E0,5.286941528E0,4.302893162E0
1.570111510E0,1.712662816E0,5.282155991E0,4.302893162E0
1.572611354E0,1.712662816E0,5.243870735E0,4.360321045E0
1.575111198E0,1.727019787E0,5.133202553E0,4.412963390E0
1.577611041E0,1.707877159E0,5.142774105E0,4.393820763E0
1.580110885E0,1.717448473E0,5.152345181E0,4.350749969E0
1.582610729E0,1.698305845E0,5.204987526E0,4.422534466E0
1.585110573E0,1.669592023E0,5.334797859E0,4.508676052E0
1.587610416E0,1.593021631E0,5.315655708E0,4.556532383E0
1.590110260E0,1.420738459E0,5.248656273E0,4.551746845E0
1.592610052E0,1.094716311E0,5.224728107E0,4.460819721E0
1.595109896E0,7.836494446E-1,5.176273346E0,4.317250252E0
1.597609739E0,5.868397355E-1,5.176273346E0,4.278964996E0
1.600108698E0,3.810569942E-1,5.176273346E0,4.216751575E0
1.602608541E0,1.220339537E-1,5.200201988E0,3.986442566E0
1.605108385E0,-5.006981492E-1,5.478367329E0,3.838087559E0
1.607608229E0,-1.511665702E0,6.053243160E0,3.612564087E0
1.610108073E0,-2.469393015E0,6.484549522E0,3.234498024E0
1.612607916E0,-3.034697294E0,6.742974281E0,2.961117983E0
1.615107760E0,-3.063411236E0,7.246065140E0,3.905086517E0
1.617607604E0,-2.613560438E0,8.084749222E0,6.348756790E0
1.620107448E0,-2.220539331E0,7.926823139E0,5.754140377E0
1.622607239E0,-7.878368497E-1,6.647261143E0,1.993221283E0
1.625107083E0,1.076770201E-1,6.656832695E0,1.308275819E0
1.627606927E0,1.609173268E-1,6.685546398E0,2.745764017E0
1.630105833E0,3.762713671E-1,6.225526333E0,2.568695068E0
1.632605677E0,4.001995921E-1,5.296513081E0,2.650051117E0
1.635105521E0,4.049852192E-1,3.887738705E0,1.346560955E0
1.637605364E0,2.422732860E-1,3.384647608E0,2.946761131E0
1.640105208E0,-7.208378315E-1,6.987640381E0,2.529811859E0
1.642605052E0,-1.832303882E0,1.027896786E1,1.801795483E0
1.645104896E0,-2.867199659E0,1.159143066E1,3.042474031E0
1.647604739E0,-3.638885021E0,1.235354519E1,4.197608948E0
1.650104583E0,-4.860421181E0,1.240140152E1,4.963910580E0
1.652604375E0,-5.770890236E0,1.251625729E1,4.825126648E0
1.655104219E0,-6.532405853E0,1.288535023E1,5.207978249E0
1.657604062E0,-6.585047722E0,1.308634663E1,5.112265587E0
1.660102969E0,-6.911069870E0,1.311027527E1,5.538786411E0
1.662602812E0,-7.390232563E0,1.342194080E1,6.128018856E0
1.665102656E0,-7.715656757E0,1.359422398E1,6.564110756E0
1.667602500E0,-7.902894974E0,1.355593872E1,7.134200573E0
1.670102344E0,-8.046463966E0,1.342194080E1,7.460222721E0
1.672602187E0,-8.032107353E0,1.316770267E1,7.589435101E0
1.675102031E0,-7.941180229E0,1.298584843E1,7.632505894E0
1.677601875E0,-8.070392609E0,1.290449238E1,7.747361660E0
1.680101719E0,-8.371888161E0,1.282792187E1,7.756932735E0
1.682601510E0,-8.597412109E0,1.278963661E1,7.800003529E0
1.685101354E0,-8.602197647E0,1.252104282E1,7.723433495E0
1.687601198E0,-8.261817932E0,1.217109203E1,7.704290867E0
1.690100104E0,-7.806583881E0,1.176909828E1,7.862216949E0
1.692599948E0,-7.538587570E0,1.142871952E1,8.538188934E0
1.695099791E0,-7.375875950E0,1.144786167E1,9.759725571E0
1.697599635E0,-6.675975323E0,1.206580830E1,1.197787189E1
1.700099479E0,-7.533802032E0,1.335972691E1,1.548036575E1
1.702599323E0,-1.047996521E1,1.305763340E1,1.162313557E1
1.705099166E0,-1.117029476E1,1.287099266E1,1.147478104E1
1.707599010E0,-1.147657585E1,1.264546967E1,1.252881908E1
1.710098854E0,-1.154357433E1,1.216630650E1,1.223689461E1
1.712598646E0,-1.137129116E1,1.186002541E1,1.199701500E1
1.715098489E0,-1.093519974E1,1.153878880E1,1.181994534E1
1.717598333E0,-1.021675491E1,1.120857906E1,1.167159081E1
1.720097239E0,-9.392427444E0,1.089691448E1,1.112064362E1
1.722597083E0,-8.645268440E0,1.068156052E1,1.033460140E1
1.725096927E0,-7.878368378E0,1.051825047E1,9.549157143E0
1.727596771E0,-7.083353043E0,1.037946606E1,8.667402267E0
1.730096614E0,-6.369693756E0,1.029811001E1,7.642077446E0
1.732596458E0,-5.655436516E0,1.025025368E1,6.635895252E0
1.735096302E0,-4.879563808E0,1.019282627E1,5.581857204E0
1.737596146E0,-4.055236340E0,1.007318497E1,4.767699242E0
1.740095989E0,-3.188436270E0,9.938589096E0,4.096512318E0
1.742595781E0,-2.407179594E0,9.814162254E0,3.440280676E0
1.745095625E0,-1.655235052E0,9.704092026E0,2.822334290E0
1.747595469E0,-8.548358679E-1,9.661021233E0,2.338385820E0
1.750094427E0,-1.698904037E-1,9.680164337E0,1.887937069E0
1.752594271E0,3.379862010E-1,9.881160736E0,1.581655741E0
1.755094114E0,7.645068169E-1,1.010668468E1,1.562513232E0
1.757593958E0,1.176072359E0,1.049432182E1,1.720439434E0
1.760093802E0,1.506880045E0,1.093041420E1,1.978864312E0
1.762593646E0,1.693520188E0,1.141914749E1,2.223530531E0
1.765093489E0,1.942971945E0,1.188873959E1,2.673979282E0
1.767593333E0,2.206182480E0,1.243968678E1,3.138785124E0
1.770093177E0,2.532204628E0,1.303370476E1,3.550350666E0
1.772592969E0,2.815155745E0,1.360858059E1,3.914657831E0
1.775092812E0,3.111865759E0,1.417388535E1,4.312464714E0
1.777592656E0,3.385245800E0,1.471047497E1,4.680959225E0
1.780091562E0,3.696312666E0,1.519920921E1,4.973481655E0
1.782591406E0,3.926621914E0,1.560658741E1,5.217549801E0
1.785091250E0,4.165904045E0,1.587936974E1,5.481358528E0
1.787591094E0,4.299902439E0,1.595175171E1,5.581857204E0
1.790090937E0,4.309473515E0,1.579322720E1,5.514857769E0
1.792590781E0,4.094119549E0,1.521835232E1,5.304289818E0
1.795090625E0,3.581457376E0,1.421216965E1,5.006981373E0
1.797590469E0,2.761915445E0,1.276092339E1,4.652245522E0
1.800090312E0,1.837687731E0,1.125643635E1,4.345963955E0
1.802590104E0,9.942178130E-1,9.818947792E0,4.053441525E0
1.805089948E0,2.614158690E-1,8.673981667E0,3.828516245E0
1.807589791E0,-3.038884699E-1,7.677371502E0,3.699303865E0
1.810088698E0,-8.500502706E-1,6.844070911E0,3.689732552E0
1.812588541E0,-1.391426325E0,6.201598167E0,3.680161238E0
1.815088385E0,-1.884945989E0,5.847460270E0,3.694518089E0
1.817588229E0,-2.249253273E0,5.766104221E0,3.694518089E0
1.820088073E0,-2.392822742E0,5.914459229E0,3.646661758E0
1.822587916E0,-2.277967215E0,6.139384747E0,3.464209080E0
1.825087760E0,-1.975873351E0,6.407979012E0,3.181855917E0
1.827587604E0,-1.511665702E0,6.656832695E0,2.812762976E0
1.830087448E0,-8.691928387E-1,6.906284332E0,2.386242390E0
1.832587239E0,-3.421736360E-1,6.987640381E0,2.017149448E0
1.835087083E0,1.674975827E-2,6.982854843E0,1.686939955E0
1.837586927E0,3.571287692E-1,6.978068829E0,1.485942841E0
1.840085833E0,6.155536175E-1,6.858428001E0,1.360917926E0
1.842585677E0,8.362914920E-1,6.781259537E0,1.303490162E0
1.845085521E0,1.051645517E0,6.762116909E0,1.298704505E0
1.847585364E0,1.214955688E0,6.819544315E0,1.265205026E0
1.850085208E0,1.411167145E0,7.006783009E0,1.236491084E0
1.852585052E0,1.530808330E0,7.231708050E0,1.226919770E0
1.855084896E0,1.616949916E0,7.524230957E0,1.226919770E0
1.857584739E0,1.751546144E0,7.936394691E0,1.255633712E0
1.860084583E0,1.808973908E0,8.453842163E0,1.293918848E0
1.862584375E0,1.957328916E0,8.995218277E0,1.365703583E0
1.865084219E0,2.105684042E0,9.641879082E0,1.394417405E0
1.867584062E0,2.273181438E0,1.038903809E1,1.485942841E0
1.870083021E0,2.527418852E0,1.119422245E1,1.643869162E0
1.872582864E0,2.804986238E0,1.198923779E1,1.892722726E0
1.875082708E0,3.092723370E0,1.274178028E1,2.108675003E0
1.877582552E0,3.346960783E0,1.363250923E1,2.261815548E0
1.880082396E0,3.447459221E0,1.447119331E1,2.391027927E0
1.882582239E0,3.888336897E0,1.525663757E1,2.606980324E0
1.885082083E0,4.290330887E0,1.593260956E1,2.817548752E0
1.887581927E0,4.434498787E0,1.646441460E1,2.807977438E0
1.890081771E0,4.491926193E0,1.683769417E1,2.874976397E0
1.892581562E0,4.472783566E0,1.707279015E1,3.056830883E0
1.895081406E0,4.180261135E0,1.704886055E1,3.196212769E0
1.897581250E0,3.720241070E0,1.673241043E1,3.263211966E0
1.900080156E0,3.030509949E0,1.605224991E1,3.435495138E0
1.902580000E0,2.091326952E0,1.523270893E1,3.785445452E0
1.905079844E0,1.224527001E0,1.422652721E1,4.149154663E0
1.907579687E0,4.959124923E-1,1.321555901E1,4.551746845E0
1.910079531E0,-5.024927482E-2,1.217587757E1,4.892126083E0
1.912579375E0,-4.241278172E-1,1.123250771E1,5.083551884E0
1.915079219E0,-8.117650747E-1,1.045603657E1,5.285147190E0
1.917579062E0,-1.118644595E0,9.871589661E0,5.423930645E0
1.920078906E0,-1.424925923E0,9.301499367E0,5.481358528E0
1.922578698E0,-1.516451359E0,8.717052460E0,5.596213818E0
1.925078541E0,-1.506880045E0,8.180462837E0,5.749354839E0
1.927578385E0,-1.429711580E0,7.710870743E0,5.917450428E0
1.930077291E0,-1.281356573E0,7.308278561E0,6.113661766E0
1.932577135E0,-1.066002488E0,6.896713257E0,6.185446739E0
1.935076979E0,-7.447660565E-1,6.618547440E0,6.171089649E0
1.937576823E0,-4.049852192E-1,6.340980053E0,6.094519138E0
1.940076666E0,-1.651047617E-1,6.067600250E0,6.037091732E0
1.942576510E0,8.853443712E-2,5.895316601E0,6.022734642E0
1.945076354E0,3.762713671E-1,5.890531063E0,5.931807518E0
1.947576198E0,5.294120312E-1,5.976672649E0,5.706283569E0
1.950076041E0,6.490531564E-1,6.201598167E0,5.620141983E0
1.952575833E0,7.645068169E-1,6.455835342E0,5.467001438E0
1.955075677E0,8.554341197E-1,6.613761902E0,5.207978249E0
1.957575521E0,1.089930773E0,6.723831654E0,5.030909538E0
1.960074427E0,1.286740422E0,6.800402164E0,4.762913704E0
1.962574271E0,1.468594909E0,6.887141705E0,4.317250252E0
1.965074114E0,1.780260086E0,7.021139622E0,3.718446493E0
1.967573958E0,2.076970100E0,7.255636692E0,2.918047190E0
1.970073802E0,2.331207514E0,7.438089371E0,2.032104731E0
1.972573646E0,2.675773859E0,7.576872826E0,1.255633712E0
1.975073489E0,2.939582586E0,7.701299667E0,9.732806087E-1
1.977573333E0,3.121437073E0,7.892725468E0,8.578268886E-1
1.980073177E0,3.293720484E0,7.955537319E0,7.764709592E-1
1.982572969E0,3.370888948E0,7.998608112E0,7.334001660E-1
1.985072812E0,3.428316593E0,8.003393173E0,8.386843204E-1
1.987572656E0,3.390031576E0,8.022536278E0,1.064207911E0
1.990071614E0,3.317648649E0,8.046463966E0,1.336989641E0
1.992571458E0,3.145365477E0,8.075178146E0,1.619940877E0
1.995071302E0,2.968296528E0,8.036892891E0,2.002792597E0
1.997571146E0,2.790629387E0,8.008178711E0,2.338385820E0
2.000070989E0,2.565704107E0,7.955537319E0,2.860619545E0
2.002570833E0,2.254039049E0,8.070392609E0,3.785445452E0
2.005070677E0,1.986042738E0,8.209176064E0,4.647459984E0
2.007570521E0,1.928615093E0,8.237890244E0,5.333003521E0
2.010070364E0,1.904686809E0,8.343173981E0,5.807380676E0
2.012570156E0,1.895115495E0,8.295317650E0,6.003592014E0
2.015070000E0,1.837687731E0,8.314460754E0,6.022734642E0
2.017569844E0,1.804188251E0,8.362317085E0,5.888736725E0
2.020068750E0,1.751546144E0,8.395816803E0,5.687141418E0
2.022568594E0,1.640878081E0,8.434700012E0,5.337789059E0
2.025068437E0,1.559522152E0,8.516056061E0,4.896911621E0
2.027568281E0,1.382453322E0,8.530412674E0,4.365106583E0
2.030068125E0,1.272383451E0,8.525627136E0,3.795016766E0
2.032567969E0,1.205384374E0,8.458627701E0,3.320639610E0
2.035067812E0,1.205384374E0,8.285746574E0,2.894119024E0
2.037567656E0,1.277169108E0,8.094321251E0,2.568695068E0
2.040067500E0,1.315454245E0,7.868797302E0,2.276172638E0
2.042567291E0,1.353739381E0,7.768298626E0,1.993221283E0
2.045067135E0,1.406381488E0,7.663014412E0,2.012363911E0
2.047566979E0,1.468594909E0,7.476374149E0,2.103889227E0
2.050065937E0,1.554736495E0,7.250850677E0,2.290529490E0
2.052565781E0,1.707877159E0,7.121638298E0,2.544168711E0
2.055065625E0,1.871187329E0,6.968497753E0,2.793620348E0
2.057565416E0,1.962114573E0,6.747759819E0,3.153141975E0
2.060065260E0,2.029113531E0,6.589833736E0,3.440280676E0
2.062565052E0,2.191825628E0,6.460621357E0,3.804588079E0
2.065064896E0,2.215753794E0,6.451049805E0,4.058227062E0
2.067564739E0,2.172683001E0,6.331408501E0,4.336392879E0
2.070064531E0,2.187039852E0,6.263811588E0,4.494318962E0
2.072564375E0,2.167897224E0,6.287739754E0,4.537389755E0
2.075064166E0,2.038684845E0,6.273382664E0,4.575675011E0
2.077564010E0,1.995614052E0,6.307480335E0,4.570889473E0
2.080063073E0,1.952543259E0,6.317051888E0,4.494318962E0
2.082562916E0,1.928615093E0,6.350551128E0,4.345963955E0
2.085062760E0,1.852044702E0,6.388836384E0,4.077369690E0
2.087562552E0,1.813759565E0,6.403193474E0,3.890729666E0
2.090062396E0,1.799402595E0,6.498906136E0,3.761517286E0
2.092562187E0,1.775474429E0,6.637690067E0,3.540779352E0
2.095062031E0,1.813759565E0,6.766902447E0,3.162713289E0
2.097561875E0,1.885544300E0,6.709474564E0,2.755335331E0
2.100061666E0,1.981257200E0,6.742974281E0,2.616551638E0
2.102561510E0,1.971685886E0,6.805187702E0,2.491526604E0
2.105061302E0,1.928615093E0,6.809973240E0,2.352742910E0
2.107561146E0,1.895115495E0,6.858428001E0,2.304886341E0
2.110060260E0,1.765903115E0,6.872784615E0,2.170888424E0
2.112560104E0,1.789831281E0,6.982854843E0,2.142174482E0
2.115059948E0,1.866401672E0,7.169494629E0,2.185245275E0
2.117559739E0,1.852044702E0,7.255636692E0,2.151745796E0
2.120059583E0,1.890329838E0,7.380661488E0,2.108675003E0
2.122559375E0,1.885544300E0,7.452445984E0,2.079961061E0
2.125059219E0,1.804188251E0,7.529016495E0,2.137388945E0
2.127559062E0,1.770688772E0,7.691728592E0,2.185245275E0
2.130058854E0,1.679163337E0,7.801798344E0,2.151745796E0
2.132558698E0,1.616949916E0,7.955537319E0,2.199602127E0
2.135058489E0,1.640878081E0,8.099106789E0,2.242672920E0
2.137558333E0,1.583450437E0,8.218747139E0,2.295315027E0
2.140057396E0,1.478166223E0,8.314460754E0,2.328814745E0
2.142557239E0,1.358525038E0,8.472985268E0,2.328814745E0
2.145057083E0,1.301097274E0,8.606983185E0,2.429313183E0
2.147556875E0,1.190429211E0,8.645268440E0,2.481955290E0
2.150056719E0,1.156929731E0,8.764909744E0,2.616551638E0
2.152556510E0,1.156929731E0,8.817551613E0,2.740978241E0
2.155056354E0,1.248455167E0,8.807980537E0,2.793620348E0
2.157556198E0,1.310668588E0,8.640482903E0,2.779263496E0
2.160055989E0,1.607378602E0,7.926823139E0,2.985046148E0
2.162555833E0,1.444666624E0,7.859225750E0,3.056830883E0
2.165055625E0,8.458628058E-1,8.784051895E0,2.846262455E0
2.167555469E0,5.246263742E-1,9.363713264E0,2.688336134E0
2.170054583E0,5.916253924E-1,9.392427444E0,2.410170555E0
2.172554427E0,9.080761671E-1,9.492925644E0,2.429313183E0
2.175054271E0,1.234098315E0,9.503094673E0,2.529811859E0
2.177554062E0,1.473380566E0,9.430712700E0,2.635694027E0
2.180053906E0,1.588235974E0,9.330213547E0,2.760120869E0
2.182553698E0,1.703091502E0,9.205786705E0,2.817548752E0
2.185053541E0,1.808973908E0,9.282357216E0,3.090928555E0
2.187553385E0,1.530808330E0,9.320642471E0,3.430709362E0
2.190053177E0,1.152144074E0,8.539983749E0,2.865405083E0
2.192553021E0,1.482951880E0,7.557730198E0,2.491526604E0
2.195052812E0,1.277169108E0,7.581658363E0,2.941975355E0
2.197552656E0,7.692924738E-1,7.725227833E0,3.512065411E0
2.200051719E0,8.027920127E-1,7.701299667E0,4.158725739E0
2.202551562E0,7.932206988E-1,7.749155998E0,4.882554531E0
2.205051406E0,7.836494446E-1,7.777870178E0,5.467001438E0
2.207551198E0,9.032905698E-1,7.691728592E0,5.836094379E0
2.210051041E0,1.109073281E0,7.648657799E0,6.132804394E0
2.212550833E0,1.372882009E0,7.567301750E0,6.343971252E0
2.215050677E0,1.583450437E0,7.600800991E0,6.588038921E0
2.217550521E0,1.761117458E0,7.639086246E0,6.861418724E0
2.220050312E0,1.866401672E0,7.696514130E0,6.909275532E0
2.222550156E0,2.005185366E0,7.753942013E0,6.861418724E0
2.225049948E0,2.206182480E0,7.749155998E0,6.774679184E0
2.227549791E0,2.326421738E0,7.768298626E0,6.583253384E0
2.230048906E0,2.484348059E0,7.773084164E0,6.290730953E0
2.232548750E0,2.570489645E0,7.859225750E0,5.883950710E0
2.235048594E0,2.465205431E0,8.032107353E0,5.860022545E0
2.237548385E0,2.369492531E0,8.257032394E0,6.051448345E0
2.240048229E0,2.503490686E0,8.123034477E0,5.946164131E0
2.242548021E0,2.704487801E0,7.734799385E0,5.452644825E0
2.245047864E0,2.920439959E0,7.572087288E0,5.150550842E0
2.247547708E0,2.997010469E0,7.438089371E0,4.973481655E0
2.250047500E0,3.092723370E0,7.332206726E0,4.858626366E0
2.252547344E0,3.207578659E0,7.236494064E0,4.815555573E0
2.255047135E0,3.284149170E0,7.155138016E0,4.772484779E0
2.257546979E0,3.346960783E0,7.059424877E0,4.671388149E0
2.260046041E0,3.390031576E0,7.045068264E0,4.637888432E0
2.262545885E0,3.447459221E0,7.006783009E0,4.628317356E0
2.265045729E0,3.447459221E0,7.011568546E0,4.671388149E0
2.267545521E0,3.346960783E0,6.982854843E0,4.633102894E0
2.270045364E0,3.293720484E0,6.930212498E0,4.628317356E0
2.272545156E0,3.198007345E0,6.896713257E0,4.594817638E0
2.275045000E0,2.958725214E0,6.906284332E0,4.657031059E0
2.277544844E0,2.843869686E0,6.887141705E0,4.705485821E0
2.280044635E0,2.733201742E0,6.939784050E0,4.734199524E0
2.282544479E0,2.680559635E0,7.016354084E0,4.719842434E0
2.285044271E0,2.627917528E0,7.088139057E0,4.724628448E0
2.287544114E0,2.532204628E0,7.207779884E0,4.762913704E0
2.290043229E0,2.455634356E0,7.346563816E0,4.791627407E0
2.292543073E0,2.479562521E0,7.466803074E0,4.801198483E0
2.295042916E0,2.508276224E0,7.629515171E0,4.849055290E0
2.297542708E0,2.489133835E0,7.768298626E0,4.844269276E0
2.300042552E0,2.584846735E0,7.878368378E0,4.911268711E0
2.302542344E0,2.714059114E0,7.917252064E0,4.963910580E0
2.305042187E0,2.771486759E0,7.912466049E0,5.002195835E0
2.307542031E0,2.848655462E0,7.902894974E0,5.059623718E0
2.310041823E0,2.944368362E0,7.854440212E0,5.140979290E0
2.312541666E0,2.949153900E0,7.773084164E0,5.160121918E0
2.315041458E0,2.968296528E0,7.648657799E0,5.174479008E0
2.317541302E0,2.949153900E0,7.572087288E0,5.212764263E0
2.320040364E0,2.839084148E0,7.524230957E0,5.285147190E0
2.322540208E0,2.804986238E0,7.423732281E0,5.251647472E0
2.325040052E0,2.723630428E0,7.289135933E0,5.207978249E0
2.327539844E0,2.618346214E0,7.179066181E0,5.117051125E0
2.330039687E0,2.426920414E0,7.155138016E0,5.126622677E0
2.332539479E0,2.225325108E0,7.078567505E0,5.169693470E0
2.335039323E0,2.029113531E0,6.925426960E0,5.035695076E0
2.337539166E0,1.823330879E0,6.848856449E0,4.911268711E0
2.340038958E0,1.511665702E0,6.800402164E0,4.839483738E0
2.342538802E0,1.176072359E0,6.723831654E0,4.786841869E0
2.345038594E0,8.123632669E-1,6.704689026E0,4.715056896E0
2.347538437E0,4.815555513E-1,6.642475605E0,4.705485821E0
2.350037552E0,2.327020019E-1,6.565905571E0,4.729413986E0
2.352537396E0,-3.589234129E-2,6.527620316E0,4.695914268E0
2.355037239E0,-2.703889608E-1,6.436692715E0,4.580460548E0
2.357537031E0,-4.624129832E-1,6.326622963E0,4.508676052E0
2.360036875E0,-6.586244106E-1,6.172883987E0,4.379463673E0
2.362536666E0,-8.404789567E-1,6.105885029E0,4.326821327E0
2.365036510E0,-8.500502706E-1,6.024528980E0,4.331607342E0
2.367536354E0,-7.974081635E-1,5.943173409E0,4.341178417E0
2.370036146E0,-6.586244106E-1,5.947958946E0,4.298107624E0
2.372535989E0,-5.102694035E-1,5.947958946E0,4.207180500E0
2.375035781E0,-3.756731451E-1,6.034100533E0,4.173680782E0
2.377535625E0,-2.033899277E-1,6.101099491E0,4.072584152E0
2.380034687E0,-6.939185411E-2,6.235097408E0,3.929014683E0
2.382534531E0,5.024927482E-2,6.312266350E0,3.761517286E0
2.385034375E0,1.704886109E-1,6.479763508E0,3.632304668E0
2.387534166E0,2.422732860E-1,6.666403770E0,3.435495138E0
2.390034010E0,2.853440940E-1,6.786045074E0,3.200998545E0
2.392533802E0,4.097708762E-1,6.896713257E0,2.932404041E0
2.395033646E0,5.246263742E-1,7.006783009E0,2.673979282E0
2.397533489E0,7.405785918E-1,7.035496712E0,2.434098721E0
2.400033281E0,1.080359459E0,7.121638298E0,2.170888424E0
2.402533125E0,1.468594909E0,7.222136974E0,1.835294962E0
2.405032916E0,1.808973908E0,7.390232563E0,1.442273855E0
2.407532760E0,2.254039049E0,7.548159122E0,1.054636598E0
2.410031875E0,2.704487801E0,7.701299667E0,7.764709592E-1
2.412531719E0,3.140579700E0,7.955537319E0,3.930211067E-1
2.415031562E0,3.629313707E0,8.276175499E0,1.058823988E-1
2.417531354E0,4.079762459E0,8.630910873E0,-1.531406492E-1
2.420031198E0,4.506283283E0,9.067003250E0,-3.876372576E-1
2.422530989E0,4.975874901E0,9.584450722E0,-5.551348329E-1
2.425030833E0,5.541179180E0,1.007797050E1,-6.508477330E-1
2.427530677E0,5.995815277E0,1.060977554E1,-7.567301393E-1
2.430030469E0,6.355337143E0,1.120379353E1,-7.519445419E-1
2.432530312E0,6.667002201E0,1.178824043E1,-6.125625968E-1
2.435030104E0,6.867999077E0,1.226261806E1,-3.828516304E-1
2.437529948E0,6.992425919E0,1.272263813E1,-7.597211748E-2
2.440029010E0,7.078567505E0,1.318684578E1,3.068794906E-1
2.442528854E0,7.049853802E0,1.371386433E1,7.381857634E-1
2.445028698E0,6.968497753E0,1.443290806E1,1.040279627E0
2.447528489E0,6.997211456E0,1.542951870E1,1.399203062E0
2.450028333E0,6.934998035E0,1.647877121E1,1.887937069E0
2.452528125E0,6.676573277E0,1.749871254E1,2.319243431E0
2.455027969E0,6.168696880E0,1.844746590E1,2.731407166E0
2.457527812E0,5.498108387E0,1.935314941E1,3.239283562E0
2.460027604E0,4.822135925E0,2.006680870E1,3.747160196E0
2.462527448E0,4.084548473E0,2.062732697E1,4.259822369E0
2.465027239E0,3.279363394E0,2.119741821E1,4.930410862E0
2.467527083E0,2.398206472E0,2.164308167E1,5.514857769E0
2.470026198E0,1.559522152E0,2.189731789E1,5.950950146E0
2.472526041E0,7.214360237E-1,2.198824501E1,6.128018856E0
2.475025885E0,-1.674975827E-2,2.205524445E1,6.094519138E0
2.477525677E0,-7.543373108E-1,2.206960106E1,5.816951752E0
2.480025521E0,-1.674377680E0,2.216052818E1,5.385645390E0
2.482525312E0,-2.392822742E0,2.199781609E1,4.939982414E0
2.485025156E0,-2.972483873E0,2.181596184E1,4.412963390E0
2.487525000E0,-3.322434187E0,2.167179489E1,4.086941242E0
2.490024791E0,-3.561716557E0,2.137508392E1,3.838087559E0
2.492524635E0,-3.820739508E0,2.099163437E1,3.492922783E0
2.495024427E0,-3.916452408E0,2.057947159E1,2.913261652E0
2.497524271E0,-3.806382656E0,2.010988045E1,2.252244234E0
2.500023333E0,-3.624528170E0,1.945364761E1,1.466202021E0
2.502523177E0,-3.231507063E0,1.861077690E1,6.233302951E-1
2.505023021E0,-2.824128866E0,1.762373734E1,4.845465720E-2
2.507522812E0,-2.340180635E0,1.665583992E1,-4.354937077E-1
2.510022656E0,-1.794018745E0,1.567837238E1,-9.337990284E-1
2.512522448E0,-1.372283816E0,1.470568943E1,-1.345962763E0
2.515022291E0,-1.037288666E0,1.386760330E1,-1.604387641E0
2.517522135E0,-6.969096065E-1,1.306241894E1,-1.666600943E0
2.520021927E0,-4.624129832E-1,1.240140152E1,-1.652244091E0
2.522521771E0,-4.097708762E-1,1.186481094E1,-1.412961721E0
2.525021562E0,-3.708875179E-1,1.138564873E1,-1.043868899E0
2.527521406E0,-3.517449200E-1,1.094477081E1,-6.753742099E-1
2.530020521E0,-3.804588020E-1,1.050389290E1,-2.440679073E-1
2.532520364E0,-4.384847581E-1,1.011147022E1,2.446661144E-1
2.535020208E0,-5.246263742E-1,9.785448074E0,6.329016089E-1
2.537520000E0,-5.485545993E-1,9.430712700E0,1.021137118E0
2.540019844E0,-5.294120312E-1,9.038289070E0,1.389631748E0
2.542519635E0,-6.921239495E-1,8.669196129E0,1.916650891E0
2.545019479E0,-7.399803996E-1,8.257032394E0,2.338385820E0
2.547519323E0,-7.304090858E-1,7.912466049E0,2.688336134E0
2.550019114E0,-7.926225066E-1,7.596015453E0,3.013760090E0
2.552518958E0,-8.835497499E-1,7.231708050E0,3.306282759E0
2.555018750E0,-9.074779749E-1,6.925426960E0,3.593421459E0
2.557518594E0,-9.314061999E-1,6.666403770E0,3.881158352E0
2.560017656E0,-1.075573802E0,6.412764549E0,4.164109707E0
2.562517500E0,-1.300499082E0,6.206383705E0,4.307679176E0
2.565017291E0,-1.545165181E0,6.067600250E0,4.393820763E0
2.567517135E0,-1.789233088E0,6.048457623E0,4.508676052E0
2.570016927E0,-2.076970100E0,6.043671608E0,4.508676052E0
2.572516719E0,-2.287538528E0,6.024528980E0,4.508676052E0
2.575016562E0,-2.455035925E0,5.928816319E0,4.570889473E0
2.577516354E0,-2.575275421E0,5.842674732E0,4.613960266E0
2.580016146E0,-2.685345173E0,5.842674732E0,4.652245522E0
2.582515989E0,-2.886342287E0,5.727221012E0,4.700700283E0
2.585015781E0,-2.962912560E0,5.540580750E0,4.618745804E0
2.587515573E0,-2.900699139E0,5.320441246E0,4.523033142E0
2.590014844E0,-2.790629387E0,5.104488850E0,4.345963955E0
2.592514687E0,-2.737987280E0,5.023132801E0,4.063013077E0
2.595014479E0,-2.776272535E0,5.051846981E0,3.751945972E0
2.597514323E0,-2.694916487E0,5.094917774E0,3.502494097E0
2.600014114E0,-2.502892494E0,5.128417015E0,3.287140131E0
2.602513906E0,-2.416750908E0,5.339583874E0,3.047259569E0
2.605013750E0,-2.330609322E0,5.554937840E0,2.860619545E0
2.607513541E0,-2.100898266E0,5.669793129E0,2.678765059E0
2.610013333E0,-1.875374794E0,5.780461311E0,2.496312141E0
2.612513177E0,-1.679163337E0,5.885745525E0,2.381456852E0
2.615012969E0,-1.357926846E0,5.947958946E0,2.209173441E0
2.617512760E0,-1.027717352E0,5.991029739E0,2.103889227E0
2.620011979E0,-7.830511928E-1,6.048457623E0,2.017149448E0
2.622511823E0,-4.911268353E-1,6.067600250E0,1.878365755E0
2.625011614E0,-2.177468538E-1,6.101099491E0,1.734796405E0
2.627511458E0,-2.153540403E-2,6.101099491E0,1.629512191E0
2.630011250E0,1.704886109E-1,6.048457623E0,1.533799291E0
2.632511041E0,3.906283081E-1,6.010172367E0,1.456630826E0
2.635010885E0,5.341976285E-1,6.024528980E0,1.403988719E0
2.637510677E0,6.735795736E-1,5.986244202E0,1.308275819E0
2.640010469E0,8.267202377E-1,6.081956863E0,1.336989641E0
2.642510312E0,9.942178130E-1,6.096313953E0,1.241276741E0
2.645010104E0,1.113858938E0,6.072385788E0,1.241276741E0
2.647509896E0,1.253240824E0,6.058028698E0,1.265205026E0
2.650009114E0,1.449452281E0,6.077171326E0,1.255633712E0
2.652508958E0,1.564307809E0,6.062814236E0,1.236491084E0
2.655008750E0,1.674377680E0,6.038886070E0,1.260419369E0
2.657508594E0,1.780260086E0,6.067600250E0,1.313061476E0
2.660008385E0,1.847259045E0,6.120242119E0,1.313061476E0
2.662508177E0,1.885544300E0,6.134599209E0,1.365703583E0
2.665008021E0,1.976471543E0,6.182455540E0,1.351346612E0
2.667507812E0,2.067398787E0,6.182455540E0,1.432702541E0
2.670007604E0,2.124826431E0,6.259026051E0,1.596012712E0
2.672507448E0,2.158325911E0,6.321837425E0,1.691725612E0
2.675007239E0,2.143969059E0,6.340980053E0,1.782652855E0
2.677507031E0,2.167897224E0,6.350551128E0,1.950150490E0
2.680006302E0,2.163111687E0,6.422336102E0,2.161317110E0
2.682506146E0,2.067398787E0,6.513263226E0,2.290529490E0
2.685005937E0,2.072184324E0,6.546762943E0,2.453241348E0
2.687505781E0,2.014756680E0,6.647261143E0,2.597409010E0
2.690005573E0,1.895115495E0,6.704689026E0,2.731407166E0
2.692505364E0,1.789831281E0,6.766902447E0,2.836691141E0
2.695005208E0,1.722234130E0,6.872784615E0,2.985046148E0
2.697505000E0,1.607378602E0,6.891927242E0,3.066402197E0
2.700004791E0,1.459023595E0,6.992425919E0,3.114856958E0
2.702504635E0,1.310668588E0,7.049853802E0,3.239283562E0
2.705004427E0,1.185643673E0,7.088139057E0,3.296711445E0
2.707504219E0,1.085145116E0,7.083353043E0,3.272783279E0
2.710003489E0,1.022931695E0,7.112067223E0,3.334996462E0
2.712503333E0,9.128618240E-1,7.107281685E0,3.387638569E0
2.715003125E0,8.219345808E-1,7.097710133E0,3.392424345E0
2.717502969E0,7.118647099E-1,7.040282249E0,3.425923824E0
2.720002760E0,6.251249313E-1,6.954140663E0,3.512065411E0
2.722502552E0,5.676971674E-1,6.934998035E0,3.569493294E0
2.725002396E0,5.246263742E-1,6.877570629E0,3.617349625E0
2.727502187E0,3.714857101E-1,6.829713821E0,3.670589924E0
2.730001979E0,3.044866920E-1,6.723831654E0,3.780659676E0
2.732501823E0,1.848455518E-1,6.680760860E0,3.871587038E0
2.735001614E0,2.632104978E-2,6.589833736E0,3.991228104E0
2.737501406E0,-5.503492057E-2,6.537191391E0,4.067798615E0
2.740000625E0,-1.555334777E-1,6.474977970E0,4.139583111E0
2.742500469E0,-2.656033039E-1,6.465406895E0,4.188037872E0
2.745000260E0,-3.804588020E-1,6.379265308E0,4.278964996E0
2.747500104E0,-5.246263742E-1,6.331408501E0,4.432105541E0
2.749999896E0,-6.299105883E-1,6.282954216E0,4.460819721E0
2.752499687E0,-7.878368497E-1,6.259026051E0,4.503890514E0
2.754999531E0,-9.655039310E-1,6.336194515E0,4.551746845E0
2.757499323E0,-1.152144074E0,6.374479294E0,4.633102894E0
2.759999114E0,-1.262213945E0,6.331408501E0,4.743771076E0
2.762498958E0,-1.391426325E0,6.302694798E0,4.853840828E0
2.764998750E0,-1.540379524E0,6.340980053E0,4.968696117E0
2.767498541E0,-1.669592023E0,6.374479294E0,5.050052166E0
2.769997760E0,-1.841875196E0,6.393621922E0,5.160121918E0
2.772497604E0,-1.995015860E0,6.407979012E0,5.227120876E0
2.774997396E0,-2.124826431E0,6.379265308E0,5.309075356E0
2.777497239E0,-2.297109842E0,6.407979012E0,5.390431404E0
2.779997031E0,-2.502892494E0,6.393621922E0,5.443073273E0
2.782496823E0,-2.704487801E0,6.407979012E0,5.538786411E0
2.784996666E0,-2.910270452E0,6.503692150E0,5.653641701E0
2.787496458E0,-3.135794163E0,6.551548481E0,5.696712494E0
2.789996250E0,-3.346362352E0,6.604190350E0,5.802595139E0
2.792496094E0,-3.542573929E0,6.666403770E0,5.903093338E0
2.794995885E0,-3.701098442E0,6.704689026E0,5.994020939E0
2.797495677E0,-3.854238987E0,6.790830612E0,5.970092297E0
2.799994948E0,-4.012165546E0,6.863213539E0,6.017949104E0
2.802494791E0,-4.117449760E0,6.853642464E0,5.965306759E0
2.804994583E0,-4.204189301E0,6.963712215E0,5.974878311E0
2.807494427E0,-4.414757729E0,7.078567505E0,6.037091732E0
2.809994219E0,-4.610969067E0,7.193423271E0,6.094519138E0
2.812494010E0,-4.750350952E0,7.414160728E0,6.104090691E0
2.814993854E0,-4.822135925E0,7.596015453E0,6.123233318E0
2.817493646E0,-4.879563808E0,7.797012806E0,6.190232277E0
2.819993437E0,-4.889134884E0,8.056035995E0,6.218945980E0
2.822493281E0,-4.922634602E0,8.362317085E0,6.252445698E0
2.824993073E0,-4.913063049E0,8.693124771E0,6.285944939E0
2.827492864E0,-4.836492538E0,9.105288506E0,6.315257072E0
2.829992083E0,-4.663611412E0,9.411569595E0,6.363113403E0
2.832491927E0,-4.409972191E0,9.775876999E0,6.410970211E0
2.834991719E0,-4.131806374E0,1.006361389E1,6.454041004E0
2.837491562E0,-3.949951887E0,1.029811001E1,6.554539204E0
2.839991354E0,-3.787240028E0,1.050867844E1,6.621538639E0
2.842491146E0,-3.720241070E0,1.063848972E1,6.645466805E0
2.844990989E0,-3.739383698E0,1.070548820E1,6.745965004E0
2.847490781E0,-3.844667673E0,1.064806080E1,6.827321053E0
2.849990573E0,-4.103092670E0,1.046082211E1,6.904489517E0
2.852490416E0,-4.342973232E0,1.032682419E1,7.038487911E0
2.854990208E0,-4.563112736E0,1.016889763E1,7.172485828E0
2.857490000E0,-4.783850670E0,1.003968525E1,7.253841877E0
2.859989271E0,-4.980062008E0,9.943374634E0,7.306483746E0
2.862489114E0,-5.128417015E0,9.881160736E0,7.359126091E0
2.864988906E0,-5.219942570E0,9.732806206E0,7.407580853E0
2.867488750E0,-5.397011280E0,9.546165466E0,7.339983463E0
2.869988541E0,-5.564508915E0,9.354142189E0,7.268198967E0
2.872488333E0,-5.693721294E0,9.148359299E0,7.091129780E0
2.874988177E0,-5.833103180E0,8.870193481E0,6.866204739E0
2.877487969E0,-6.014957905E0,8.511270523E0,6.492326260E0
2.879987760E0,-6.163312912E0,8.170890808E0,6.051448345E0
2.882487604E0,-6.287739754E0,7.849654675E0,5.696712494E0
2.884987396E0,-6.489335060E0,7.505088329E0,5.347360611E0
2.887487187E0,-6.690331936E0,7.164709091E0,5.016552448E0
2.889986406E0,-6.844070911E0,6.839285374E0,4.892126083E0
2.892486250E0,-7.001997471E0,6.628118515E0,4.882554531E0
2.894986041E0,-7.150352478E0,6.508477688E0,4.925625324E0
2.897485885E0,-7.155138016E0,6.484549522E0,5.164907455E0
2.899985677E0,-7.169494629E0,6.613761902E0,5.615356445E0
2.902485469E0,-7.097710133E0,6.877570629E0,6.247660160E0
2.904985312E0,-6.834499836E0,7.169494629E0,6.875775814E0
2.907485104E0,-6.192026615E0,7.514659405E0,7.493722439E0
2.909984896E0,-5.008776188E0,8.123034477E0,7.953742504E0
2.912484739E0,-3.658027649E0,8.870193481E0,8.197810173E0
2.914984531E0,-2.637488842E0,9.656235695E0,8.173882484E0
2.917484323E0,-2.105684042E0,1.033160973E1,7.838288784E0
2.919983541E0,-1.688734531E0,1.098784161E1,7.339983463E0
2.922483385E0,-1.271785259E0,1.145264721E1,6.765107632E0
2.924983177E0,-8.117650747E-1,1.181695461E1,6.214160442E0
2.927483021E0,-3.565305769E-1,1.210409355E1,5.754140377E0
2.929982812E0,4.546362907E-2,1.240140152E1,5.289932728E0
2.932482604E0,6.203392744E-1,1.263111210E1,4.753342152E0
2.934982448E0,1.348953724E0,1.287099266E1,4.336392879E0
2.937482239E0,1.952543259E0,1.321077347E1,4.015156269E0
2.939982031E0,2.484348059E0,1.355593872E1,3.564707518E0
2.942481875E0,2.992224693E0,1.401595879E1,3.008974552E0
2.944981666E0,3.452244759E0,1.455733490E1,2.386242390E0
2.947481458E0,3.883551121E0,1.504606915E1,1.797009826E0
2.949980729E0,4.232903481E0,1.546301842E1,1.246062398E0
2.952480573E0,4.506283283E0,1.580279922E1,8.530412912E-1
2.954980364E0,4.707280159E0,1.598525143E1,6.520441771E-1
2.957480208E0,4.826921463E0,1.608575058E1,5.563312769E-1
2.959980000E0,4.745565414E0,1.610967827E1,4.223332107E-1
2.962479791E0,4.506283283E0,1.602832222E1,4.654040039E-1
2.964979635E0,3.993621111E0,1.580279922E1,6.089733839E-1
2.967479427E0,3.064009428E0,1.542951870E1,7.429714203E-1
2.969979219E0,1.631306887E0,1.501735497E1,9.296116233E-1
2.972479062E0,-1.316052526E-1,1.454776382E1,1.356132269E0
2.974978854E0,-1.683948994E0,1.422174168E1,1.883151412E0
2.977478646E0,-2.809772015E0,1.383889008E1,2.352742910E0
2.979977864E0,-3.494717360E0,1.340758324E1,2.784049034E0
2.982477708E0,-3.806382656E0,1.295234871E1,3.085544825E0
2.984977500E0,-3.691527128E0,1.248754311E1,3.296711445E0
2.987477344E0,-3.202793121E0,1.212323570E1,3.411566973E0
2.989977135E0,-2.589632273E0,1.171167088E1,3.507279873E0
2.992476927E0,-2.014756680E0,1.127079296E1,3.521636724E0
2.994976771E0,-1.429711580E0,1.088255692E1,3.540779352E0
2.997476562E0,-8.644071817E-1,1.056132126E1,3.531208038E0
2.999976354E0,-3.996013701E-1,1.030289650E1,3.492922783E0
3.002476198E0,-1.076770201E-1,1.012582684E1,3.430709362E0
3.004975989E0,2.231307179E-1,9.972088814E0,3.368496180E0
3.007475781E0,5.533402562E-1,9.905089378E0,3.263211966E0
3.009975052E0,8.793623447E-1,9.890732765E0,3.181855917E0
3.012474896E0,1.305882931E0,9.905089378E0,3.224926710E0
3.014974687E0,1.693520188E0,9.842875481E0,3.210569859E0
3.017474531E0,1.981257200E0,9.847661972E0,3.248854876E0
3.019974323E0,2.215753794E0,9.962516785E0,3.315854073E0
3.022474114E0,2.312064886E0,1.015932655E1,3.464209080E0
3.024973958E0,2.685345173E0,1.011147022E1,3.531208038E0
3.027473750E0,2.987439156E0,1.021196842E1,3.737588882E0
3.029973541E0,3.111865759E0,1.049432182E1,3.948157310E0
3.032473385E0,3.111865759E0,1.089691448E1,4.091726780E0
3.034973177E0,3.183650494E0,1.129950714E1,4.134797573E0
3.037472969E0,3.274577856E0,1.165902805E1,4.164109707E0
3.039972187E0,3.361317635E0,1.196052361E1,4.188037872E0
3.042472031E0,3.452244759E0,1.216152096E1,4.158725739E0
3.044971823E0,3.437887907E0,1.229133129E1,4.298107624E0
3.047471666E0,3.480958700E0,1.244925785E1,4.389034748E0
3.049971458E0,3.461816072E0,1.255454254E1,4.427320004E0
3.052471250E0,3.457030535E0,1.263111210E1,4.436891556E0
3.054971094E0,3.404388428E0,1.261196995E1,4.384249210E0
3.057470885E0,3.312862873E0,1.252582836E1,4.360321045E0
3.059970677E0,3.169293642E0,1.240618706E1,4.379463673E0
3.062470521E0,2.906083107E0,1.229133129E1,4.322035789E0
3.064970312E0,2.608774900E0,1.209452248E1,4.350749969E0
3.067470104E0,2.326421738E0,1.186002541E1,4.379463673E0
3.069969375E0,1.976471543E0,1.161535931E1,4.451248169E0
3.072469219E0,1.612164259E0,1.135693455E1,4.489533424E0
3.074969010E0,1.296311617E0,1.105484104E1,4.537389755E0
3.077468802E0,1.051645517E0,1.077727318E1,4.546961308E0
3.079968594E0,8.841479421E-1,1.050867844E1,4.494318962E0
3.082468385E0,7.453642488E-1,1.021196842E1,4.369892120E0
3.084968229E0,6.975077987E-1,9.871589661E0,4.374678135E0
3.087468021E0,7.357929349E-1,9.522237778E0,4.374678135E0
3.089967812E0,8.362914920E-1,9.181859016E0,4.293322086E0
3.092467604E0,9.894321561E-1,8.870193481E0,4.158725739E0
3.094967396E0,1.128215909E0,8.559126854E0,4.019941807E0
3.097467187E0,1.301097274E0,8.213961601E0,4.067798615E0
3.099966562E0,1.406381488E0,7.974679470E0,4.183252335E0
3.102466406E0,1.449452281E0,7.840083599E0,4.211966038E0
3.104966198E0,1.530808330E0,7.682157040E0,4.302893162E0
3.107465989E0,1.688734531E0,7.433303356E0,4.412963390E0
3.109965781E0,1.880758643E0,7.126423836E0,4.341178417E0
3.112465573E0,1.899901152E0,7.016354084E0,4.250251293E0
3.114965416E0,1.866401672E0,7.045068264E0,4.130012035E0
3.117465208E0,1.828116536E0,7.049853802E0,3.938585997E0
3.119965000E0,1.727019787E0,7.001997471E0,3.756731510E0
3.122464791E0,1.679163337E0,6.939784050E0,3.559921980E0
3.124964583E0,1.688734531E0,6.848856449E0,3.296711445E0
3.127464375E0,1.799402595E0,6.752545357E0,3.004188776E0
3.129963698E0,1.899901152E0,6.642475605E0,2.621337175E0
3.132463541E0,1.976471543E0,6.532405853E0,2.237887383E0
3.134963333E0,2.029113531E0,6.403193474E0,2.017149448E0
3.137463125E0,2.062613010E0,6.364908218E0,1.964507341E0
3.139962916E0,2.043470621E0,6.302694798E0,1.859223247E0
3.142462708E0,2.086541414E0,6.211169243E0,1.801795483E0
3.144962552E0,2.139183521E0,6.081956863E0,1.773081541E0
3.147462344E0,2.143969059E0,5.986244202E0,1.763510346E0
3.149962135E0,2.100898266E0,5.890531063E0,1.883151412E0
3.152461927E0,2.038684845E0,5.876173973E0,1.902294040E0
3.154961719E0,2.009970903E0,5.924030781E0,1.935793519E0
3.157461510E0,1.880758643E0,5.981458187E0,2.089532375E0
3.159960885E0,1.655235052E0,6.263811588E0,2.812762976E0
3.162460729E0,1.377667665E0,6.786045074E0,3.780659676E0
3.164960521E0,1.109073281E0,7.274778843E0,4.710271358E0
3.167460312E0,1.003789067E0,7.830512047E0,5.600999832E0
3.169960104E0,8.745766878E-1,8.410173416E0,5.855237007E0
3.172459896E0,7.788637877E-1,8.990432739E0,5.879165173E0
3.174959739E0,7.501499057E-1,9.363713264E0,5.644070625E0
3.177459531E0,8.650053740E-1,9.522237778E0,5.294718266E0
3.179959323E0,1.051645517E0,9.589237213E0,4.872983456E0
3.182459114E0,1.118644595E0,9.570094109E0,4.412963390E0
3.184958906E0,1.133001566E0,9.468997002E0,3.718446493E0
3.187458698E0,1.147358418E0,9.315856934E0,3.138785124E0
3.189958021E0,1.109073281E0,9.134002686E0,2.874976397E0
3.192457864E0,1.109073281E0,8.985647202E0,2.640479803E0
3.194957656E0,1.286740422E0,8.678768158E0,2.247458696E0
3.197457448E0,1.559522152E0,8.223533630E0,2.007578135E0
3.199957239E0,1.707877159E0,7.777870178E0,1.974078655E0
3.202457031E0,1.655235052E0,7.317849636E0,2.084746838E0
3.204956875E0,1.645663738E0,7.054639339E0,2.338385820E0
3.207456666E0,1.621735573E0,6.771687984E0,2.539382935E0
3.209956458E0,1.607378602E0,6.608976364E0,2.807977438E0
3.212456250E0,1.640878081E0,6.484549522E0,3.100499868E0
3.214956041E0,1.683948994E0,6.431907177E0,3.445066452E0
3.217455833E0,1.645663738E0,6.350551128E0,3.790230989E0
3.219955208E0,1.669592023E0,6.312266350E0,4.115654945E0
3.222455052E0,1.669592023E0,6.312266350E0,4.427320004E0
3.224954844E0,1.554736495E0,6.312266350E0,4.666602135E0
3.227454635E0,1.545165181E0,6.244668961E0,4.896911621E0
3.229954427E0,1.506880045E0,6.211169243E0,4.983053207E0
3.232454219E0,1.368096352E0,6.225526333E0,4.887340069E0
3.234954062E0,1.224527001E0,6.278168201E0,4.791627407E0
3.237453854E0,1.056431174E0,6.239883423E0,4.652245522E0
3.239953646E0,9.080761671E-1,6.239883423E0,4.475176334E0
3.242453437E0,7.357929349E-1,6.278168201E0,4.255036831E0
3.244953229E0,6.059823632E-1,6.302694798E0,3.976871252E0
3.247453021E0,4.863412082E-1,6.379265308E0,3.833301783E0
3.249952396E0,4.049852192E-1,6.465406895E0,3.559921980E0
3.252452239E0,3.284149170E-1,6.599404812E0,3.358924866E0
3.254952031E0,2.135594189E-1,6.719046116E0,3.234498024E0
3.257451823E0,1.848455518E-1,6.814758778E0,3.037688255E0
3.259951614E0,8.374879509E-2,6.834499836E0,2.812762976E0
3.262451406E0,2.153540403E-2,6.997211456E0,2.635694027E0
3.264951250E0,-3.589234129E-2,7.073781967E0,2.477169752E0
3.267451041E0,-9.810572863E-2,7.135995388E0,2.123031855E0
3.269950833E0,-9.810572863E-2,7.159923553E0,1.950150490E0
3.272450625E0,-1.411765367E-1,7.241279602E0,1.816152334E0
3.274950416E0,-1.651047617E-1,7.341778278E0,1.725225091E0
3.277450208E0,-1.794617027E-1,7.514659405E0,1.682154298E0
3.279949531E0,-1.698904037E-1,7.605587006E0,1.605584025E0
3.282449375E0,-1.603191197E-1,7.706085205E0,1.447059512E0
3.284949166E0,-2.225325108E-1,7.720442295E0,1.274776220E0
3.287448958E0,-2.560320199E-1,7.806583881E0,1.193420291E0
3.289948750E0,-1.603191197E-1,7.873582840E0,1.217348576E0
3.292448541E0,-1.268195957E-1,7.902894974E0,1.351346612E0
3.294948385E0,-4.067798331E-2,8.012965202E0,1.495514154E0
3.297448177E0,8.374879509E-2,8.127820015E0,1.691725612E0
3.299947969E0,1.513460279E-1,8.314460754E0,1.964507341E0
3.302447760E0,2.518445849E-1,8.506484032E0,2.190030813E0
3.304947552E0,2.327020019E-1,8.626125336E0,2.252244234E0
3.307447344E0,2.662015259E-1,8.712266922E0,2.381456852E0
3.309946719E0,3.236292601E-1,8.812766075E0,2.443670034E0
3.312446562E0,4.528416991E-1,8.913264275E0,2.559123755E0
3.314946354E0,6.586244106E-1,8.932407379E0,2.659622431E0
3.317446146E0,8.123632669E-1,8.976076126E0,2.750549555E0
3.319945937E0,9.415757060E-1,8.985647202E0,2.836691141E0
3.322445729E0,1.147358418E0,8.961120605E0,2.927618504E0
3.324945573E0,1.353739381E0,9.057432175E0,3.095714331E0
3.327445156E0,1.526022673E0,9.138788223E0,3.181855917E0
3.329944948E0,1.660020709E0,9.000003815E0,3.253640652E0
3.332444687E0,1.875972986E0,8.971290588E0,3.320639610E0
3.334944479E0,2.057827473E0,8.903693199E0,3.411566973E0
3.337444271E0,2.239681959E0,8.855836868E0,3.550350666E0
3.339944062E0,2.398206472E0,8.851051331E0,3.699303865E0
3.342443854E0,2.474776745E0,8.894122124E0,4.067798615E0
3.344943698E0,2.493919373E0,9.090931892E0,4.288536549E0
3.347443489E0,2.527418852E0,9.268000603E0,4.365106583E0
3.349943281E0,2.441277266E0,9.445069313E0,5.414359570E0
3.352443073E0,2.599203587E0,9.229715347E0,5.207978249E0
3.354942864E0,3.087937593E0,8.976076126E0,4.700700283E0
3.357442656E0,3.255435228E0,8.884550095E0,4.930410862E0
3.359942031E0,3.279363394E0,8.903693199E0,5.380859852E0
3.362441875E0,3.404388428E0,8.908478737E0,5.836094379E0
3.364941666E0,3.447459221E0,8.898907661E0,6.070590973E0
3.367441458E0,3.567100286E0,8.908478737E0,6.132804394E0
3.369941250E0,3.648456335E0,8.918049812E0,6.233303070E0
3.372441041E0,3.705883980E0,8.990432739E0,6.295516491E0
3.374940885E0,3.777668715E0,9.000003815E0,6.324828625E0
3.377440677E0,3.839882135E0,8.980861664E0,6.391827583E0
3.379940469E0,3.839882135E0,9.004789352E0,6.434898376E0
3.382440260E0,3.849453449E0,8.995218277E0,6.410970211E0
3.384940052E0,3.873381615E0,8.941978455E0,6.348756790E0
3.387439844E0,3.863810301E0,8.913264275E0,6.209374905E0
3.389939166E0,3.830310822E0,8.870193481E0,6.046662807E0
3.392439010E0,3.859024763E0,8.803194046E0,5.793023586E0
3.394938802E0,3.815953970E0,8.717052460E0,5.567500114E0
3.397438594E0,3.787240028E0,8.659625053E0,5.385645390E0
3.399938385E0,3.820739508E0,8.539983749E0,5.140979290E0
3.402438177E0,3.782454491E0,8.357531548E0,4.963910580E0
3.404938021E0,3.701098442E0,8.132605553E0,4.844269276E0
3.407437812E0,3.686741590E0,7.926823139E0,4.633102894E0
3.409937604E0,3.662813187E0,7.725227833E0,4.484747887E0
3.412437396E0,3.567100286E0,7.543373585E0,4.408177376E0
3.414937187E0,3.375674486E0,7.332206726E0,4.274179459E0
3.417436979E0,3.217149973E0,7.083353043E0,4.125226021E0
3.419936354E0,3.020938635E0,6.973283291E0,4.034298897E0
3.422436198E0,2.858226538E0,6.877570629E0,3.967299938E0
3.424935989E0,2.613560438E0,6.771687984E0,3.857230186E0
3.427435781E0,2.388635159E0,6.747759819E0,3.694518089E0
3.429935573E0,2.191825628E0,6.719046116E0,3.521636724E0
3.432435364E0,2.029113531E0,6.719046116E0,3.411566973E0
3.434935208E0,1.899901152E0,6.771687984E0,3.315854073E0
3.437435000E0,1.775474429E0,6.906284332E0,3.229712248E0
3.439934791E0,1.712662816E0,7.054639339E0,3.258426189E0
3.442434583E0,1.712662816E0,7.246065140E0,3.287140131E0
3.444934375E0,1.746760488E0,7.495516777E0,3.344567776E0
3.447434166E0,1.804188251E0,7.734799385E0,3.521636724E0
3.449933489E0,1.880758643E0,7.979465485E0,3.704089403E0
3.452433333E0,1.928615093E0,8.314460754E0,3.895515203E0
3.454933125E0,2.029113531E0,8.606983185E0,4.153940201E0
3.457432916E0,2.172683001E0,8.784051895E0,4.451248169E0
3.459932708E0,2.321636200E0,8.971290588E0,4.680959225E0
3.462432500E0,2.517847538E0,9.157930374E0,4.987838745E0
3.464932344E0,2.651845694E0,9.320642471E0,5.299503803E0
3.467432135E0,2.781058073E0,9.373284340E0,5.534000397E0
3.469931927E0,2.901297569E0,9.435498238E0,5.773880959E0
3.472431719E0,3.073580742E0,9.392427444E0,6.013163090E0
3.474931510E0,3.135794163E0,9.373284340E0,6.228517532E0
3.477431302E0,3.150151014E0,9.320642471E0,6.425326824E0
3.479930677E0,3.231507063E0,9.244071960E0,6.525825500E0
3.482430521E0,3.250649452E0,9.277571678E0,6.578467846E0
3.484930312E0,3.145365477E0,9.205786705E0,6.659823418E0
3.487430104E0,3.068794966E0,9.157930374E0,6.640681267E0
3.489929896E0,2.886940479E0,9.201001167E0,6.602396011E0
3.492429687E0,2.824727058E0,9.148359299E0,6.530611038E0
3.494929531E0,2.757129908E0,9.105288506E0,6.430112839E0
3.497429323E0,2.642274380E0,9.124430656E0,6.353542328E0
3.499929114E0,2.450848579E0,9.028717995E0,6.223731518E0
3.502428906E0,2.258824587E0,9.052646637E0,6.022734642E0
3.504928698E0,2.024327993E0,9.019146919E0,5.816951752E0
3.507428489E0,1.895115495E0,8.918049812E0,5.529214859E0
3.509927864E0,1.746760488E0,8.860622406E0,5.237290382E0
3.512427708E0,1.679163337E0,8.707481384E0,4.911268711E0
3.514927500E0,1.621735573E0,8.482556343E0,4.637888432E0
3.517427291E0,1.492523074E0,8.237890244E0,4.360321045E0
3.519927083E0,1.506880045E0,7.898109436E0,3.972085476E0
3.522426875E0,1.415952802E0,7.648657799E0,3.665804386E0
3.524926719E0,1.281954765E0,7.284350395E0,3.392424345E0
3.527426510E0,1.272383451E0,6.973283291E0,3.157927752E0
3.529926302E0,1.003789067E0,6.699903488E0,2.870190859E0
3.532426094E0,7.788637877E-1,6.403193474E0,2.678765059E0
3.534925885E0,4.671986103E-1,6.177670002E0,2.501097918E0
3.537425677E0,1.465603858E-1,5.971887112E0,2.285743713E0
3.539925052E0,-7.896314561E-2,5.770890236E0,2.046461582E0
3.542424896E0,-2.751746178E-1,5.526223660E0,1.797009826E0
3.544924687E0,-4.815555513E-1,5.411368370E0,1.615155339E0
3.547424479E0,-5.676971674E-1,5.263013363E0,1.375274777E0
3.549924271E0,-5.054838061E-1,5.075775146E0,1.226919770E0
3.552424062E0,-4.384847581E-1,4.960919380E0,1.073779106E0
3.554923906E0,-3.756731451E-1,4.779065132E0,9.541380405E-1
3.557423698E0,-3.326023519E-1,4.654039860E0,9.343972206E-1
3.559923489E0,-4.624129832E-1,4.572684288E0,8.769695163E-1
3.562423281E0,-4.911268353E-1,4.496113777E0,8.721838593E-1
3.564923073E0,-3.661018610E-1,4.285545349E0,8.769695163E-1
3.567422864E0,-1.363908947E-1,4.156332970E0,8.721838593E-1
3.569922187E0,3.110669367E-2,4.040879250E0,8.530412912E-1
3.572422031E0,2.662015259E-1,3.969094515E0,8.386843204E-1
3.574921823E0,4.767699242E-1,3.882952929E0,7.956135273E-1
3.577421614E0,6.155536175E-1,3.849453449E0,8.530412912E-1
3.579921406E0,8.075776696E-1,3.792025566E0,8.721838593E-1
3.582421198E0,1.037288666E0,3.768097401E0,8.673982024E-1
3.584921041E0,1.205384374E0,3.729812384E0,8.769695163E-1
3.587420833E0,1.382453322E0,3.772883177E0,9.248259664E-1
3.589920625E0,1.645663738E0,3.835096598E0,1.068993568E0
3.592420416E0,1.947757602E0,3.926023722E0,1.121635556E0
3.594920208E0,2.196611166E0,4.088735580E0,1.126421213E0
3.597420000E0,2.508276224E0,4.342973232E0,1.236491084E0
3.599919375E0,2.804986238E0,4.630111694E0,1.303490162E0
3.602419219E0,3.188436270E0,4.999204636E0,1.356132269E0
3.604919010E0,3.576671600E0,5.459224701E0,1.322632670E0
3.607418802E0,3.859024763E0,6.024528980E0,1.246062398E0
3.609918594E0,4.189832687E0,6.565905571E0,1.231705427E0
3.612418385E0,4.625924587E0,7.217351437E0,1.351346612E0
3.614918229E0,5.014159679E0,7.902894974E0,1.250848055E0
3.617418021E0,5.358726501E0,8.803194046E0,1.188634634E0
3.619917812E0,5.804389477E0,1.010668468E1,1.131206870E0
3.622417604E0,6.412764549E0,1.164945698E1,1.121635556E0
3.624917396E0,6.805785656E0,1.315813160E1,1.159920812E0
3.627417187E0,6.801000118E0,1.495035553E1,1.212562919E0
3.629916562E0,6.705287457E0,1.676590919E1,1.543370605E0
3.632416406E0,6.628716946E0,1.820339775E1,1.983649969E0
3.634916198E0,6.498906136E0,1.945843315E1,2.553740025E0
3.637415989E0,6.278766632E0,2.057947159E1,3.330210924E0
3.639915781E0,5.727818966E0,2.157129669E1,4.178466320E0
3.642415573E0,5.033302307E0,2.240998077E1,5.136193752E0
3.644915416E0,4.280759811E0,2.291785622E1,5.883950710E0
3.647415208E0,3.327219963E0,2.313799667E1,6.199803352E0
3.649915000E0,2.038684845E0,2.311406898E1,5.936593056E0
3.652414791E0,9.559326172E-1,2.292264366E1,5.500501156E0
3.654914583E0,4.546362907E-2,2.268754768E1,5.069194794E0
3.657414375E0,-7.160521746E-1,2.248176575E1,4.700700283E0
3.659913750E0,-1.424925923E0,2.208395767E1,4.441677094E0
3.662413594E0,-2.038684845E0,2.184467697E1,4.302893162E0
3.664913385E0,-2.594418049E0,2.180579185E1,3.981656790E0
3.667413177E0,-3.044268608E0,2.192603302E1,3.612564087E0
3.669912969E0,-3.327219963E0,2.199303055E1,3.344567776E0
3.672412760E0,-3.580859184E0,2.201696014E1,3.090928555E0
3.674912604E0,-3.830310822E0,2.191646004E1,2.683550596E0
3.677412396E0,-4.021736622E0,2.172922325E1,2.247458696E0
3.679912187E0,-4.131806374E0,2.131287193E1,1.639083505E0
3.682411979E0,-4.213760853E0,2.077628136E1,1.064207911E0
3.684911771E0,-4.208974838E0,2.014337921E1,3.930211067E-1
3.687411562E0,-4.007379532E0,1.924308014E1,-3.110669553E-1
3.689910885E0,-3.739383698E0,1.805444527E1,-1.115653515E0
3.692410729E0,-3.403790236E0,1.678505325E1,-1.863410592E0
3.694910521E0,-3.072982550E0,1.552044582E1,-2.476571321E0
3.697410312E0,-2.723630428E0,1.430309772E1,-2.998805046E0
3.699910104E0,-2.560918331E0,1.322034550E1,-3.444468260E0
3.702409896E0,-2.522035122E0,1.232004547E1,-3.583251953E0
3.704909739E0,-2.435893536E0,1.151007557E1,-3.583251953E0
3.707409531E0,-2.397608280E0,1.072463131E1,-3.314657450E0
3.709909323E0,-2.354537487E0,1.006361389E1,-2.893520832E0
3.712409114E0,-2.368894339E0,9.488140106E0,-2.299502611E0
3.714908906E0,-2.321038008E0,8.995218277E0,-1.753340840E0
3.717408698E0,-2.316252232E0,8.559126854E0,-1.350748420E0
3.719908073E0,-2.435893536E0,8.271389961E0,-9.194421172E-1
3.722407916E0,-2.469393015E0,8.046463966E0,-4.450650215E-1
3.724907708E0,-2.464607239E0,7.840083599E0,9.631111473E-2
3.727407500E0,-2.488535643E0,7.615158081E0,4.319044948E-1
3.729907291E0,-2.502892494E0,7.462017536E0,8.530412912E-1
3.732407083E0,-2.541177750E0,7.341778278E0,1.284347534E0
3.734906927E0,-2.488535643E0,7.169494629E0,1.720439434E0
3.737406719E0,-2.402393818E0,6.896713257E0,2.209173441E0
3.739906510E0,-2.354537487E0,6.647261143E0,2.597409010E0
3.742406302E0,-2.258824587E0,6.422336102E0,3.004188776E0
3.744906094E0,-2.129612207E0,6.249454498E0,3.406781197E0
3.747405885E0,-2.043470621E0,6.048457623E0,3.751945972E0
3.749905260E0,-2.014756680E0,5.842674732E0,4.039084435E0
3.752405104E0,-2.009970903E0,5.741578102E0,4.341178417E0
3.754904896E0,-1.980658889E0,5.679364681E0,4.680959225E0
3.757404687E0,-1.966302037E0,5.650650501E0,5.021338463E0
3.759904479E0,-1.966302037E0,5.588437080E0,5.447858810E0
3.762404271E0,-1.870589137E0,5.593223095E0,5.821737289E0
3.764904114E0,-1.779661894E0,5.454439163E0,6.151947021E0
3.767403906E0,-1.655235052E0,5.339583874E0,6.434898376E0
3.769903698E0,-1.463211060E0,5.248656273E0,6.650252342E0
3.772403489E0,-1.276570916E0,5.229514122E0,6.817749977E0
3.774903281E0,-1.089930773E0,5.157131195E0,6.803392887E0
3.777403073E0,-8.931210637E-1,5.142774105E0,6.726822853E0
3.779902396E0,-6.538388133E-1,5.171487808E0,6.549753666E0
3.782402239E0,-5.054838061E-1,5.181059361E0,6.266802311E0
3.784902031E0,-3.326023519E-1,5.204987526E0,5.950950146E0
3.787401823E0,-2.225325108E-1,5.253442287E0,5.567500114E0
3.789901614E0,-1.172483116E-1,5.315655708E0,5.212764263E0
3.792401406E0,2.632104978E-2,5.334797859E0,4.834698200E0
3.794901094E0,1.465603858E-1,5.444868088E0,4.489533424E0
3.797400885E0,2.374876440E-1,5.526223660E0,4.164109707E0
3.799900677E0,3.810569942E-1,5.641079426E0,3.828516245E0
3.802400364E0,4.911268353E-1,5.813961029E0,3.526422262E0
3.804900156E0,5.581258535E-1,5.995815277E0,3.301496983E0
3.807399948E0,5.964110494E-1,6.177670002E0,3.100499868E0
3.809899739E0,7.262216806E-1,6.340980053E0,2.946761131E0
3.812399531E0,7.740781307E-1,6.551548481E0,2.889333248E0
3.814899375E0,9.655039310E-1,6.719046116E0,2.946761131E0
3.817399166E0,1.142572761E0,6.872784615E0,3.013760090E0
3.819898958E0,1.267597795E0,7.021139622E0,3.075973511E0
3.822398750E0,1.430309772E0,7.212565422E0,3.143570662E0
3.824898541E0,1.597807288E0,7.255636692E0,3.267997503E0
3.827398333E0,1.775474429E0,7.317849636E0,3.253640652E0
3.829897708E0,1.828116536E0,7.390232563E0,3.239283562E0
3.832397552E0,1.895115495E0,7.404589653E0,3.215355396E0
3.834897344E0,1.895115495E0,7.375875950E0,3.186641455E0
3.837397135E0,1.976471543E0,7.371089935E0,3.138785124E0
3.839896927E0,2.043470621E0,7.361518860E0,3.110071182E0
3.842396719E0,2.009970903E0,7.322635651E0,3.037688255E0
3.844896562E0,1.966900229E0,7.274778843E0,2.975475073E0
3.847396354E0,1.928615093E0,7.241279602E0,2.951546669E0
3.849896146E0,1.828116536E0,7.236494064E0,2.903690338E0
3.852395937E0,1.731805444E0,7.293921471E0,2.874976397E0
3.854895729E0,1.564307809E0,7.260422230E0,2.851048231E0
3.857395521E0,1.320239902E0,7.289135933E0,2.841476917E0
3.859894844E0,1.142572761E0,7.327421188E0,2.841476917E0
3.862394687E0,9.750752449E-1,7.260422230E0,2.851048231E0
3.864894479E0,8.410771489E-1,7.236494064E0,2.846262455E0
3.867394271E0,6.586244106E-1,7.246065140E0,2.841476917E0
3.869894062E0,5.006981492E-1,7.169494629E0,2.884547710E0
3.872393854E0,3.667000830E-1,7.107281685E0,2.922832966E0
3.874893698E0,2.901297510E-1,7.169494629E0,2.951546669E0
3.877393489E0,1.896311939E-1,7.164709091E0,2.951546669E0
3.879893281E0,1.172483116E-1,7.169494629E0,2.999403238E0
3.882393073E0,3.110669367E-2,7.193423271E0,3.071187973E0
3.884892864E0,-2.392822644E-3,7.198208809E0,3.095714331E0
3.887392656E0,-4.067798331E-2,7.231708050E0,3.157927752E0
3.889892031E0,-9.332008660E-2,7.269993305E0,3.239283562E0
3.892391875E0,-6.460621208E-2,7.188637257E0,3.311068296E0
3.894891666E0,-5.024927482E-2,7.135995388E0,3.368496180E0
3.897391458E0,1.674975827E-2,7.045068264E0,3.406781197E0
3.899891250E0,7.417750359E-2,7.016354084E0,3.401995659E0
3.902391041E0,6.939185411E-2,6.987640381E0,3.392424345E0
3.904890885E0,1.369891018E-1,6.877570629E0,3.459423304E0
3.907390677E0,1.609173268E-1,6.728617191E0,3.488137245E0
3.909890469E0,1.848455518E-1,6.508477688E0,3.521636724E0
3.912390260E0,1.561316848E-1,6.340980053E0,3.622135162E0
3.914890052E0,6.939185411E-2,6.206383705E0,3.699303865E0
3.917389844E0,3.589234129E-2,6.058028698E0,3.785445452E0
3.919889219E0,-8.853443712E-2,5.938387394E0,3.952943087E0
3.922389062E0,-1.507478207E-1,5.818746567E0,4.029513359E0
3.924888854E0,-2.608176768E-1,5.785246849E0,4.188037872E0
3.927388646E0,-4.241278172E-1,5.712863922E0,4.283750534E0
3.929888437E0,-5.533402562E-1,5.626722336E0,4.456034184E0
3.932388229E0,-6.969096065E-1,5.550152302E0,4.561318398E0
3.934888073E0,-8.548358679E-1,5.550152302E0,4.671388149E0
3.937387864E0,-9.990034699E-1,5.473581791E0,4.753342152E0
3.939887656E0,-1.046859860E0,5.473581791E0,4.877768993E0
3.942387448E0,-1.204786181E0,5.416153908E0,4.978267670E0
3.944887239E0,-1.343569875E0,5.368297577E0,5.093122959E0
3.947387031E0,-1.502094388E0,5.353940487E0,5.242076397E0
3.949886354E0,-1.664806366E0,5.349154949E0,5.323431969E0
3.952386198E0,-1.765304923E0,5.282155991E0,5.390431404E0
3.954885989E0,-1.899302959E0,5.263013363E0,5.467001438E0
3.957385781E0,-2.053041935E0,5.301298618E0,5.548357487E0
3.959885573E0,-2.187039852E0,5.358726501E0,5.577071190E0
3.962385364E0,-2.359323025E0,5.296513081E0,5.600999832E0
3.964885208E0,-2.488535643E0,5.310869694E0,5.620141983E0
3.967385000E0,-2.680559635E0,5.306084156E0,5.663212776E0
3.969884791E0,-2.843271494E0,5.248656273E0,5.711069584E0
3.972384583E0,-3.020340443E0,5.258227825E0,5.788238049E0
3.974884375E0,-3.245863914E0,5.286941528E0,5.769095421E0
3.977384166E0,-3.494717360E0,5.315655708E0,5.793023586E0
3.979883541E0,-3.701098442E0,5.411368370E0,5.749354839E0
3.982383385E0,-3.935595036E0,5.511867046E0,5.687141418E0
3.984883177E0,-4.098307133E0,5.645864964E0,5.548357487E0
3.987382969E0,-4.280759811E0,5.794818401E0,5.471786976E0
3.989882760E0,-4.472185612E0,6.034100533E0,5.452644825E0
3.992382552E0,-4.620540619E0,6.211169243E0,5.333003521E0
3.994882396E0,-4.692923546E0,6.407979012E0,5.198407173E0
3.997382187E0,-4.769493580E0,6.690331936E0,5.140979290E0
3.999881979E0,-4.802993298E0,6.906284332E0,5.026124001E0
4.002381771E0,-4.798207760E0,7.107281685E0,4.944767952E0
4.004881562E0,-4.750350952E0,7.375875950E0,4.849055290E0
4.007381354E0,-4.630111694E0,7.677371502E0,4.734199524E0
4.009880729E0,-4.505684853E0,7.950751305E0,4.652245522E0
4.012380573E0,-4.309473515E0,8.237890244E0,4.604389191E0
4.014880364E0,-4.088735580E0,8.602197647E0,4.542175770E0
4.017380156E0,-3.830310822E0,8.898907661E0,4.470390797E0
4.019879948E0,-3.600001574E0,9.224929810E0,4.484747887E0
4.022379739E0,-3.370290756E0,9.536594391E0,4.518247128E0
4.024879583E0,-3.255435228E0,9.857233047E0,4.542175770E0
4.027379375E0,-3.159722328E0,1.004447079E1,4.700700283E0
4.029879166E0,-3.097508907E0,1.026461124E1,4.786841869E0
4.032378958E0,-3.183650494E0,1.049432182E1,4.930410862E0
4.034878750E0,-3.336791277E0,1.065284634E1,5.222335339E0
4.037378541E0,-3.580859184E0,1.065284634E1,5.433502197E0
4.039877916E0,-3.873381615E0,1.060020447E1,5.701498032E0
4.042377760E0,-4.218546391E0,1.052782154E1,6.108876228E0
4.044877552E0,-4.524827480E0,1.050867844E1,6.477969170E0
4.047377344E0,-4.812564373E0,1.044167995E1,6.803392887E0
4.049877135E0,-5.051846981E0,1.042732334E1,7.172485828E0
4.052376927E0,-5.263013363E0,1.044167995E1,7.551149845E0
4.054876771E0,-5.526223660E0,1.039382362E1,7.843074322E0
4.057376562E0,-5.703292847E0,1.038903809E1,8.193024635E0
4.059876354E0,-5.880959988E0,1.030289650E1,8.461619377E0
4.062376146E0,-6.077171326E0,1.033639526E1,8.614759445E0
4.064875937E0,-6.187241077E0,1.033160973E1,8.734400749E0
4.067375729E0,-6.331408501E0,1.030289650E1,8.791828156E0
4.069875052E0,-6.494120598E0,1.025982571E1,8.820542336E0
4.072374896E0,-6.604190350E0,1.024546814E1,8.801400185E0
4.074874687E0,-6.675975323E0,1.022154045E1,8.691329956E0
4.077374479E0,-6.809973240E0,1.024546814E1,8.605188370E0
4.079874271E0,-6.920641422E0,1.024068260E1,8.422736168E0
4.082374062E0,-6.968497753E0,1.027896786E1,8.240880966E0
4.084873906E0,-6.992425919E0,1.036510944E1,7.987242222E0
4.087373698E0,-6.891927242E0,1.044646549E1,7.771289825E0
4.089873489E0,-6.714260101E0,1.060977554E1,7.349554539E0
4.092373281E0,-6.384050846E0,1.077248764E1,7.014559746E0
4.094873073E0,-5.813961029E0,1.097827053E1,6.602396011E0
4.097372864E0,-4.984847546E0,1.111286640E1,6.257231236E0
4.099872239E0,-4.026522160E0,1.115115166E1,5.931807518E0
4.102372083E0,-3.102294445E0,1.124207878E1,5.586642742E0
4.104871875E0,-2.330609322E0,1.133300591E1,5.309075356E0
4.107371666E0,-1.727019787E0,1.137129116E1,5.059623718E0
4.109871458E0,-1.180858016E0,1.152921772E1,4.820341110E0
4.112371250E0,-6.873382926E-1,1.170688438E1,4.609174728E0
4.114871094E0,-2.799602449E-1,1.197488117E1,4.389034748E0
4.117370885E0,1.268195957E-1,1.230568886E1,4.226323128E0
4.119870677E0,5.676971674E-1,1.259761333E1,4.197608948E0
4.122370469E0,9.798609018E-1,1.292363548E1,4.125226021E0
4.124870260E0,1.430309772E0,1.333101273E1,4.125226021E0
4.127370052E0,1.885544300E0,1.377607822E1,4.106083870E0
4.129869427E0,2.263610125E0,1.419781303E1,4.053441525E0
4.132369271E0,2.623131752E0,1.466261864E1,3.952943087E0
4.134869062E0,2.891726255E0,1.511785316E1,3.900300980E0
4.137368854E0,3.121437073E0,1.553001690E1,3.881158352E0
4.139868646E0,3.250649452E0,1.592782402E1,4.000799656E0
4.142368437E0,3.366103172E0,1.617189217E1,4.264608383E0
4.144868281E0,3.370888948E0,1.632981873E1,4.599603176E0
4.147368073E0,3.336791277E0,1.635853195E1,4.920839787E0
4.149867864E0,3.212364435E0,1.615275002E1,5.140979290E0
4.152367656E0,3.030509949E0,1.572144318E1,5.227120876E0
4.154867448E0,2.815155745E0,1.499821186E1,5.045266628E0
4.157367239E0,2.479562521E0,1.399681568E1,4.920839787E0
4.159866614E0,1.938186288E0,1.280877972E1,4.772484779E0
4.162366458E0,1.291526079E0,1.166381359E1,4.479962349E0
4.164866250E0,6.011967063E-1,1.059063339E1,4.029513359E0
4.167366041E0,1.674975827E-2,9.823733330E0,3.607778311E0
4.169865833E0,-4.528416991E-1,9.181859016E0,3.239283562E0
4.172365625E0,-1.037288666E0,8.693124771E0,3.095714331E0
4.174865469E0,-1.597807288E0,8.324031830E0,3.177070379E0
4.177365260E0,-1.985444546E0,8.079963684E0,3.358924866E0
4.179865052E0,-2.234896421E0,7.922037601E0,3.545564890E0
4.182364844E0,-2.378465652E0,7.749155998E0,3.751945972E0
4.184864635E0,-2.359323025E0,7.763513088E0,3.857230186E0
4.187364427E0,-2.225325108E0,7.730013371E0,3.795016766E0
4.189863802E0,-2.043470621E0,7.706085205E0,3.550350666E0
4.192363646E0,-1.784447432E0,7.667799950E0,3.253640652E0
4.194863437E0,-1.526022673E0,7.581658363E0,2.894119024E0
4.197363229E0,-1.262213945E0,7.519444942E0,2.520240545E0
4.199863021E0,-9.750752449E-1,7.433303356E0,2.204387903E0
4.202362812E0,-7.591229677E-1,7.447660446E0,1.883151412E0
4.204862656E0,-6.059823632E-1,7.495516777E0,1.624726534E0
4.207362448E0,-4.576273263E-1,7.576872826E0,1.399203062E0
4.209862239E0,-2.991028428E-1,7.801798344E0,1.241276741E0
4.212362031E0,-2.177468538E-1,8.036892891E0,1.040279627E0
4.214861823E0,-1.316052526E-1,8.213961601E0,9.200403094E-1
4.217361614E0,-5.982056633E-2,8.463413239E0,8.291130662E-1
4.219860937E0,6.460621208E-2,8.774480820E0,6.807580590E-1
4.222360781E0,1.800599098E-1,9.086145401E0,5.898307562E-1
4.224860573E0,2.805584669E-1,9.440283775E0,5.371887088E-1
4.227360364E0,3.954139352E-1,9.938589096E0,5.515456200E-1
4.229860156E0,4.576273263E-1,1.051825047E1,6.855437160E-1
4.232359948E0,5.294120312E-1,1.121336555E1,9.391828775E-1
4.234859791E0,7.070791125E-1,1.192702484E1,1.164706469E0
4.237359583E0,9.511470199E-1,1.274178028E1,1.442273855E0
4.239859375E0,1.248455167E0,1.357986641E1,1.739582062E0
4.242359166E0,1.487737536E0,1.440897942E1,2.046461582E0
4.244858958E0,1.751546144E0,1.514178181E1,2.209173441E0
4.247358750E0,2.134397745E0,1.551566029E1,2.505883455E0
4.249858125E0,2.436491728E0,1.580758476E1,2.640479803E0
4.252357969E0,2.795415163E0,1.586501217E1,2.874976397E0
4.254857760E0,2.987439156E0,1.577887058E1,3.253640652E0
4.257357552E0,2.934797049E0,1.562573051E1,3.497708559E0
4.259857344E0,2.656631231E0,1.531885052E1,3.756731510E0
4.262357135E0,2.110469580E0,1.462911987E1,4.024727821E0
4.264856979E0,1.396810174E0,1.362293720E1,4.379463673E0
4.267356771E0,6.735795736E-1,1.271306705E1,4.738985062E0
4.269856562E0,9.810572863E-2,1.187438202E1,5.054837704E0
4.272356354E0,-2.321037948E-1,1.104048347E1,5.428716183E0
4.274856146E0,-4.815555513E-1,1.025982571E1,5.749354839E0
4.277355937E0,-7.016952634E-1,9.608379364E0,5.907878876E0
4.279855312E0,-7.639086246E-1,9.076574326E0,6.003592014E0
4.282355156E0,-7.639086246E-1,8.530412674E0,6.099305153E0
4.284854948E0,-6.299105883E-1,8.003393173E0,6.128018856E0
4.287354739E0,-4.624129832E-1,7.605587006E0,5.970092297E0
4.289854531E0,-2.703889608E-1,7.202994347E0,5.821737289E0
4.292354323E0,-2.153540403E-2,6.848856449E0,5.658427238E0
4.294854166E0,3.188436031E-1,6.527620316E0,5.385645390E0
4.297353958E0,6.634100676E-1,6.302694798E0,5.121836662E0
4.299853750E0,1.018146038E0,6.072385788E0,4.801198483E0
4.302353541E0,1.478166223E0,5.976672649E0,4.460819721E0
4.304853333E0,1.957328916E0,5.842674732E0,4.134797573E0
4.307353125E0,2.431705952E0,5.736792088E0,3.890729666E0
4.309852500E0,2.848655462E0,5.645864964E0,3.818944931E0
4.312352291E0,3.322434187E0,5.507081509E0,3.775874138E0
4.314852083E0,3.705883980E0,5.382654667E0,3.651447296E0
4.317351927E0,3.969692707E0,5.392225742E0,3.349353552E0
4.319851719E0,4.098905087E0,5.425725460E0,3.061616659E0
4.322351510E0,4.084548473E0,5.559723377E0,2.903690338E0
4.324851302E0,4.060619831E0,5.665007591E0,2.865405083E0
4.327351094E0,4.074976921E0,5.703292847E0,2.693121910E0
4.329850885E0,4.036691666E0,5.785246849E0,2.371885538E0
4.332350677E0,4.022335052E0,5.837889194E0,2.156531334E0
4.334850469E0,3.988835335E0,5.967101574E0,2.084746838E0
4.337350260E0,4.113262177E0,6.029314995E0,2.113460541E0
4.339849635E0,4.118047714E0,6.010172367E0,2.089532375E0
4.342349427E0,4.132404804E0,6.053243160E0,2.118246317E0
4.344849219E0,4.185046673E0,6.125027657E0,2.213959217E0
4.347349062E0,4.256831646E0,6.249454498E0,2.367099762E0
4.349848854E0,4.228117466E0,6.384050846E0,2.559123755E0
4.352348646E0,4.108476639E0,6.608976364E0,2.721835852E0
4.354848437E0,3.863810301E0,6.757331371E0,2.932404041E0
4.357348229E0,3.629313707E0,6.934998035E0,3.196212769E0
4.359848021E0,3.394817114E0,7.121638298E0,3.497708559E0
4.362347812E0,3.073580742E0,7.375875950E0,3.708875179E0
4.364847604E0,2.709273338E0,7.605587006E0,3.881158352E0
4.367347396E0,2.436491728E0,7.701299667E0,3.991228104E0
4.369846823E0,2.201396942E0,7.797012806E0,4.130012035E0
4.372346614E0,2.062613010E0,7.931608677E0,4.954339504E0
4.374846406E0,1.880758643E0,8.094321251E0,5.725426197E0
4.377346250E0,1.631306887E0,8.300103188E0,6.218945980E0
4.379846041E0,1.253240824E0,8.573483467E0,6.396613121E0
4.382345833E0,9.224331379E-1,8.788837433E0,6.214160442E0
4.384845625E0,5.868397355E-1,8.990432739E0,5.931807518E0
4.387345416E0,4.480560422E-1,9.138788223E0,5.615356445E0
4.389845208E0,3.140579760E-1,9.258428574E0,5.150550842E0
4.392345000E0,1.561316848E-1,9.272786140E0,4.671388149E0
4.394844791E0,-3.110669367E-2,9.306285858E0,4.192823410E0
4.397344583E0,-1.316052526E-1,9.301499367E0,3.593421459E0
4.399844010E0,-1.507478207E-1,9.081359863E0,2.965903759E0
4.402343802E0,-1.172483116E-1,8.659625053E0,2.496312141E0
4.404843594E0,2.392822644E-3,8.271389961E0,2.209173441E0
4.407343437E0,1.316052526E-1,7.945965767E0,2.060818434E0
4.409843229E0,2.805584669E-1,7.734799385E0,2.051247120E0
4.412343021E0,4.049852192E-1,7.548159122E0,2.060818434E0
4.414842812E0,5.198407173E-1,7.438089371E0,2.118246317E0
4.417342604E0,6.681957245E-1,7.255636692E0,2.280958176E0
4.419842396E0,7.118647099E-1,7.145566463E0,2.501097918E0
4.422342187E0,7.980063558E-1,7.011568546E0,2.769692183E0
4.424841979E0,9.080761671E-1,6.944569588E0,3.095714331E0
4.427341771E0,9.224331379E-1,6.954140663E0,3.430709362E0
4.429841198E0,9.320043921E-1,6.920641422E0,3.718446493E0
4.432340989E0,8.793623447E-1,6.958926678E0,4.043870449E0
4.434840781E0,8.267202377E-1,6.987640381E0,4.365106583E0
4.437340625E0,7.836494446E-1,6.987640381E0,4.527818680E0
4.439840416E0,6.681957245E-1,7.140780926E0,4.642673969E0
4.442340208E0,5.629115105E-1,7.207779884E0,4.666602135E0
4.444840000E0,3.906283081E-1,7.226922512E0,4.695914268E0
4.447339791E0,2.662015259E-1,7.207779884E0,4.715056896E0
4.449839583E0,1.992024779E-1,7.169494629E0,4.604389191E0
4.452339375E0,3.589234129E-2,7.183851719E0,4.460819721E0
4.454839166E0,-5.503492057E-2,7.279564857E0,4.293322086E0
4.457338958E0,-1.555334777E-1,7.274778843E0,4.178466320E0
4.459838385E0,-1.794617027E-1,7.179066181E0,4.015156269E0
4.462338177E0,-1.555334777E-1,7.222136974E0,3.847658873E0
4.464837969E0,-2.368894368E-1,7.303493023E0,3.708875179E0
4.467337812E0,-3.134597540E-1,7.371089935E0,3.598206997E0
4.469837604E0,-3.421736360E-1,7.476374149E0,3.521636724E0
4.472337396E0,-3.852444589E-1,7.505088329E0,3.373281717E0
4.474837187E0,-3.804588020E-1,7.605587006E0,3.358924866E0
4.477336979E0,-4.145565331E-1,7.763513088E0,3.287140131E0
4.479836771E0,-4.289134443E-1,7.955537319E0,3.196212769E0
4.482336562E0,-4.528416991E-1,8.123034477E0,3.124428272E0
4.484836354E0,-4.624129832E-1,8.170890808E0,3.052045345E0
4.487336146E0,-4.719842672E-1,8.271389961E0,3.008974552E0
4.489835573E0,-4.719842672E-1,8.347960472E0,3.105285645E0
4.492335364E0,-3.900300860E-1,8.424530029E0,3.066402197E0
4.494835156E0,-4.049852192E-1,8.487341881E0,3.061616659E0
4.497335000E0,-4.624129832E-1,8.520841599E0,3.090928555E0
4.499834791E0,-3.852444589E-1,8.707481384E0,3.143570662E0
4.502334583E0,-3.996013701E-1,8.855836868E0,3.191427231E0
4.504834375E0,-4.289134443E-1,8.951549530E0,3.320639610E0
4.507334166E0,-4.145565331E-1,9.100502968E0,3.464209080E0
4.509833958E0,-4.241278172E-1,9.124430656E0,3.550350666E0
4.512333750E0,-3.661018610E-1,9.201001167E0,3.699303865E0
4.514833541E0,-2.991028428E-1,9.344570160E0,3.838087559E0
4.517333333E0,-2.416750938E-1,9.421140671E0,3.818944931E0
4.519832760E0,-1.603191197E-1,9.512666702E0,3.790230989E0
4.522332552E0,-8.853443712E-2,9.594022751E0,3.842873096E0
4.524832344E0,-2.632104978E-2,9.536594391E0,3.747160196E0
4.527332187E0,6.460621208E-2,9.459425926E0,3.723232031E0
4.529831979E0,2.422732860E-1,9.546165466E0,3.579064369E0
4.532331771E0,3.379862010E-1,9.574879646E0,3.459423304E0
4.534831562E0,4.145565331E-1,9.555737495E0,3.468994617E0
4.537331354E0,5.150550604E-1,9.584450722E0,3.497708559E0
4.539831146E0,5.916253924E-1,9.589237213E0,3.454637766E0
4.542330937E0,7.262216806E-1,9.560523033E0,3.421138287E0
4.544830729E0,8.075776696E-1,9.550951958E0,3.435495138E0
4.547330521E0,9.367900491E-1,9.570094109E0,3.373281717E0
4.549829948E0,1.070788145E0,9.517452240E0,3.325425386E0
4.552329739E0,1.190429211E0,9.488140106E0,3.373281717E0
4.554829531E0,1.200000525E0,9.449854851E0,3.540779352E0
4.557329375E0,1.348953724E0,9.234500885E0,3.526422262E0
4.559829166E0,1.526022673E0,8.908478737E0,3.301496983E0
4.562328958E0,1.818545222E0,8.237890244E0,2.563909531E0
4.564828750E0,2.422134638E0,7.399804115E0,1.820937991E0
4.567328541E0,2.340778828E0,7.500302792E0,2.405385017E0
4.569828333E0,1.971685886E0,7.859225750E0,2.913261652E0
4.572328125E0,1.703091502E0,8.060821533E0,3.320639610E0
4.574827916E0,1.636092424E0,8.204390526E0,3.766302824E0
4.577327708E0,1.703091502E0,8.223533630E0,4.034298897E0
4.579827083E0,1.861616015E0,8.218747139E0,4.269393921E0
4.582326875E0,2.053041935E0,8.185248375E0,4.542175770E0
4.584826666E0,2.096112728E0,8.209176064E0,4.896911621E0
4.587326510E0,2.191825628E0,8.218747139E0,5.169693470E0
4.589826302E0,2.340778828E0,8.094321251E0,5.266004562E0
4.592326094E0,2.450848579E0,7.864011765E0,5.294718266E0
4.594825885E0,2.618346214E0,7.596015453E0,5.289932728E0
4.597325677E0,2.809772015E0,7.433303356E0,5.423930645E0
4.599825469E0,2.809772015E0,7.336992264E0,5.529214859E0
4.602325260E0,2.771486759E0,7.202994347E0,5.567500114E0
4.604825052E0,2.761915445E0,7.121638298E0,5.840879917E0
4.607324844E0,2.886940479E0,6.599404812E0,5.510072231E0
4.609824271E0,3.288934708E0,6.067600250E0,5.155336380E0
4.612324062E0,3.547957659E0,5.809175014E0,4.978267670E0
4.614823854E0,3.691527128E0,5.674578667E0,4.777270317E0
4.617323698E0,3.917050600E0,5.430510998E0,4.715056896E0
4.619823489E0,4.079762459E0,5.224728107E0,4.642673969E0
4.622323281E0,4.223331928E0,5.080560684E0,4.446462631E0
4.624823073E0,4.314259052E0,5.013561726E0,4.355535507E0
4.627322864E0,4.347758770E0,5.085346222E0,4.211966038E0
4.629822656E0,4.347758770E0,5.248656273E0,4.063013077E0
4.632322448E0,4.304687977E0,5.454439163E0,3.876372576E0
4.634822239E0,4.290330887E0,5.766104221E0,3.723232031E0
4.637322031E0,4.228117466E0,6.101099491E0,3.540779352E0
4.639821458E0,4.165904045E0,6.451049805E0,3.344567776E0
4.642321250E0,4.060619831E0,6.819544315E0,3.253640652E0
4.644821041E0,4.012763500E0,7.145566463E0,3.119642496E0
4.647320885E0,4.041477680E0,7.476374149E0,3.110071182E0
4.649820677E0,4.051048756E0,7.825726509E0,3.129213810E0
4.652320469E0,3.993621111E0,8.123034477E0,3.205784082E0
4.654820260E0,3.988835335E0,8.295317650E0,3.339782238E0
4.657320052E0,3.888336897E0,8.525627136E0,3.521636724E0
4.659819844E0,3.734597921E0,8.650053978E0,3.684946775E0
4.662319635E0,3.643670797E0,8.884550095E0,3.919443607E0
4.664819427E0,3.471387386E0,9.023932457E0,4.149154663E0
4.667319219E0,3.351746321E0,9.220144272E0,4.432105541E0
4.669818646E0,3.250649452E0,9.488140106E0,4.762913704E0
4.672318437E0,3.150151014E0,9.728020668E0,5.026124001E0
4.674818229E0,3.044866800E0,9.885947227E0,5.333003521E0
4.677318073E0,2.910868645E0,9.972088814E0,5.605785370E0
4.679817864E0,2.839084148E0,1.003968525E1,5.831308842E0
4.682317656E0,2.853441000E0,1.004447079E1,6.041877270E0
4.684817448E0,2.886940479E0,9.996016502E0,6.128018856E0
4.687317239E0,2.863012314E0,9.857233047E0,6.175875187E0
4.689817031E0,2.867797852E0,9.785448074E0,6.233303070E0
4.692316823E0,2.863012314E0,9.675378799E0,6.305685997E0
4.694816614E0,2.776272535E0,9.584450722E0,6.233303070E0
4.697316406E0,2.781058073E0,9.459425926E0,6.108876228E0
4.699815833E0,2.680559635E0,9.421140671E0,6.017949104E0
4.702315625E0,2.551347256E0,9.363713264E0,5.941378593E0
4.704815416E0,2.465205431E0,9.258428574E0,5.855237007E0
4.707315260E0,2.379063845E0,9.205786705E0,5.591428280E0
4.709815052E0,2.239681959E0,9.215357780E0,5.457430363E0
4.712314844E0,2.048256159E0,9.220144272E0,5.333003521E0
4.714814635E0,1.933400750E0,9.143573761E0,5.174479008E0
4.717314427E0,1.741974831E0,9.052646637E0,5.016552448E0
4.719814219E0,1.554736495E0,8.927620888E0,4.801198483E0
4.722314010E0,1.387238979E0,8.764909744E0,4.599603176E0
4.724813802E0,1.185643673E0,8.573483467E0,4.384249210E0
4.727313594E0,9.846464992E-1,8.362317085E0,4.173680782E0
4.729812969E0,8.075776696E-1,8.079963684E0,3.943371773E0
4.732312760E0,7.740781307E-1,7.749155998E0,3.699303865E0
4.734812552E0,7.645068169E-1,7.481160164E0,3.502494097E0
4.737312396E0,7.166503668E-1,7.274778843E0,3.306282759E0
4.739812187E0,6.831508875E-1,7.025925636E0,3.167499065E0
4.742311979E0,5.772684813E-1,6.848856449E0,3.056830883E0
4.744811771E0,4.384847581E-1,6.699903488E0,2.965903759E0
4.747311562E0,3.858426511E-1,6.508477688E0,2.941975355E0
4.749811354E0,2.805584669E-1,6.345765591E0,2.937189817E0
4.752311146E0,1.944168359E-1,6.220740795E0,2.793620348E0
4.754810937E0,1.172483116E-1,6.014957905E0,2.702693224E0
4.757310729E0,8.853443712E-2,5.876173973E0,2.606980324E0
4.759810208E0,6.460621208E-2,5.794818401E0,2.597409010E0
4.762310000E0,5.982056633E-2,5.708078384E0,2.640479803E0
4.764809791E0,2.853440940E-1,5.464010715E0,2.750549555E0
4.767309635E0,4.145565331E-1,5.449653625E0,2.831905603E0
4.769809427E0,2.949153781E-1,5.507081509E0,2.568695068E0
4.772309219E0,1.896311939E-1,5.598008633E0,2.218744755E0
4.774809010E0,1.369891018E-1,5.669793129E0,2.041675806E0
4.777308802E0,8.853443712E-2,5.665007591E0,1.950150490E0
4.779808594E0,1.609173268E-1,5.583651543E0,1.988435626E0
4.782308385E0,2.997010350E-1,5.526223660E0,2.012363911E0
4.784808177E0,3.906283081E-1,5.540580750E0,2.007578135E0
4.787307969E0,5.389832854E-1,5.487938881E0,2.036890268E0
4.789807344E0,6.681957245E-1,5.464010715E0,2.002792597E0
4.792307135E0,9.224331379E-1,5.377869129E0,1.993221283E0
4.794806927E0,1.118644595E0,5.296513081E0,1.993221283E0
4.797306771E0,1.291526079E0,5.334797859E0,2.012363911E0
4.799806562E0,1.535593987E0,5.310869694E0,1.945364833E0
4.802306354E0,1.736590981E0,5.267798901E0,1.864008784E0
4.804806146E0,1.842473388E0,5.272584915E0,1.710868239E0
4.807305937E0,1.852044702E0,5.430510998E0,1.720439434E0
4.809805729E0,2.033899307E0,5.531009674E0,1.787438512E0
4.812305521E0,2.297708035E0,5.660222054E0,1.677368641E0
4.814805312E0,2.493919373E0,5.813961029E0,1.562513232E0
4.817305104E0,2.680559635E0,6.072385788E0,1.466202021E0
4.819804531E0,3.001796007E0,6.355337143E0,1.389631748E0
4.822304323E0,3.265006542E0,6.652047157E0,1.332203984E0
4.824804114E0,3.457030535E0,7.078567505E0,1.260419369E0
4.827303906E0,3.648456335E0,7.533802032E0,1.313061476E0
4.829803698E0,3.830310822E0,8.123034477E0,1.380060434E0
4.832303489E0,4.132404804E0,9.129216194E0,1.529013634E0
4.834803281E0,4.683351994E0,1.032682419E1,1.581655741E0
4.837303073E0,5.272584915E0,1.185045433E1,1.475773335E0
4.839802864E0,5.656034470E0,1.327837086E1,1.567298889E0
4.842302656E0,5.938387394E0,1.453340626E1,1.816152334E0
4.844802448E0,5.957530022E0,1.562573051E1,2.151745796E0
4.847302239E0,5.742176056E0,1.664148331E1,2.486740828E0
4.849801719E0,5.498108387E0,1.768116379E1,2.851048231E0
4.852301510E0,5.253442287E0,1.850967979E1,3.492922783E0
4.854801302E0,4.826921463E0,1.916650963E1,4.379463673E0
4.857301094E0,4.256831646E0,1.953978920E1,5.107480049E0
4.859800885E0,3.500101328E0,1.976531410E1,5.672784328E0
4.862300677E0,2.733201742E0,2.003330994E1,5.927021503E0
4.864800469E0,1.981257200E0,2.018166351E1,5.850451469E0
4.867300260E0,1.267597795E0,2.030669022E1,5.596213818E0
4.869800052E0,6.681957245E-1,2.042154503E1,5.414359570E0
4.872299844E0,2.374876440E-1,2.038804626E1,5.227120876E0
4.874799635E0,-2.512463629E-1,2.036890221E1,5.030909538E0
4.877299427E0,-7.639086246E-1,2.045025826E1,4.758127689E0
4.879798906E0,-1.276570916E0,2.049811554E1,4.446462631E0
4.882298698E0,-1.669592023E0,2.057947159E1,4.221537113E0
4.884798489E0,-1.937588096E0,2.050768661E1,3.871587038E0
4.887298281E0,-2.167897224E0,2.044547272E1,3.569493294E0
4.889798073E0,-2.330609322E0,2.030669022E1,3.239283562E0
4.892297864E0,-2.474178553E0,2.002852440E1,3.004188776E0
4.894797656E0,-2.526820660E0,1.962114525E1,2.731407166E0
4.897297448E0,-2.483749866E0,1.896969986E1,2.371885538E0
4.899797239E0,-2.335394859E0,1.812204170E1,1.911865234E0
4.902297031E0,-2.086541414E0,1.713500214E1,1.365703583E0
4.904796823E0,-1.846660852E0,1.615753555E1,9.152546525E-1
4.907296614E0,-1.674377680E0,1.525663757E1,3.930211067E-1
4.909796094E0,-1.588235974E0,1.444726467E1,-1.531406492E-1
4.912295885E0,-1.578664780E0,1.368993664E1,-7.184450030E-1
4.914795677E0,-1.813161373E0,1.307199001E1,-1.283749342E0
4.917295469E0,-1.961516380E0,1.246361542E1,-1.834696770E0
4.919795260E0,-2.105684042E0,1.189831066E1,-2.390429735E0
4.922295052E0,-2.277967215E0,1.136650562E1,-2.706282377E0
4.924794844E0,-2.512463808E0,1.089691448E1,-2.749353170E0
4.927294635E0,-2.642274380E0,1.043689442E1,-2.600998163E0
4.929794427E0,-2.781058073E0,9.976874352E0,-2.236690998E0
4.932294219E0,-2.929413080E0,9.555737495E0,-1.791625977E0
4.934794010E0,-3.010769129E0,9.181859016E0,-1.365105271E0
4.937293802E0,-3.072982550E0,8.807980537E0,-7.902296782E-1
4.939793281E0,-3.063411236E0,8.429315567E0,-9.511470050E-2
4.942293073E0,-3.188436270E0,8.094321251E0,5.084748268E-1
4.944792864E0,-3.217149973E0,7.945965767E0,1.121635556E0
4.947292656E0,-3.092723370E0,7.586444378E0,1.356132269E0
4.949792448E0,-2.924627542E0,7.016354084E0,1.696511269E0
4.952292239E0,-2.915056229E0,6.738188744E0,1.964507341E0
4.954792031E0,-2.881556749E0,6.594619274E0,2.285743713E0
4.957291823E0,-2.824128866E0,6.321837425E0,2.496312141E0
4.959791614E0,-2.742773056E0,5.852245808E0,2.846262455E0
4.962291406E0,-2.742773056E0,5.531009674E0,3.244069338E0
4.964791198E0,-2.967698336E0,5.473581791E0,3.401995659E0
4.967290989E0,-3.317648649E0,5.736792088E0,3.588635683E0
4.969790469E0,-3.681955814E0,6.014957905E0,4.149154663E0
4.972290260E0,-3.973880291E0,6.201598167E0,4.527818680E0
4.974790052E0,-4.107878208E0,6.364908218E0,4.892126083E0
4.977289844E0,-4.093521118E0,6.422336102E0,5.356931686E0
4.979789635E0,-4.016951084E0,6.441478729E0,5.802595139E0
4.982289427E0,-3.959523201E0,6.484549522E0,6.156732559E0
4.984789219E0,-3.806382656E0,6.518048763E0,6.391827583E0
4.987289010E0,-3.590430260E0,6.541976929E0,6.655037880E0
4.989788802E0,-3.365504980E0,6.474977970E0,6.793821812E0
4.992288594E0,-3.083152056E0,6.460621357E0,6.832107067E0
4.994788385E0,-2.757129908E0,6.498906136E0,6.822535515E0
4.997288177E0,-2.522035122E0,6.556334019E0,6.650252342E0
4.999787656E0,-2.225325108E0,6.675975323E0,6.406184196E0
5.002287448E0,-1.956730723E0,6.709474564E0,6.046662807E0
5.004787239E0,-1.693520188E0,6.699903488E0,5.624927998E0
5.007287031E0,-1.386640668E0,6.671189308E0,5.232504845E0
5.009786823E0,-1.156929731E0,6.781259537E0,4.911268711E0
5.012286614E0,-9.511470199E-1,6.973283291E0,4.628317356E0
5.014786406E0,-7.112665176E-1,7.159923553E0,4.508676052E0
5.017286198E0,-5.772684813E-1,7.385447025E0,4.278964996E0
5.019785989E0,-4.815555513E-1,7.572087288E0,3.967299938E0
5.022285781E0,-3.469592929E-1,7.730013371E0,3.751945972E0
5.024785573E0,-1.842473447E-1,7.820940971E0,3.555136204E0
5.027285364E0,-5.982056633E-2,7.917252064E0,3.325425386E0
5.029784844E0,9.332008660E-2,8.003393173E0,3.133999348E0
5.032284635E0,2.709871531E-1,8.079963684E0,2.951546669E0
5.034784427E0,4.480560422E-1,8.089534760E0,2.717050076E0
5.037284219E0,6.346961856E-1,8.099106789E0,2.563909531E0
5.039784010E0,7.836494446E-1,8.079963684E0,2.376671076E0
5.042283802E0,9.272187948E-1,8.003393173E0,2.237887383E0
5.044783594E0,1.051645517E0,7.950751305E0,2.079961061E0
5.047283385E0,1.224527001E0,7.825726509E0,1.935793519E0
5.049783177E0,1.368096352E0,7.753942013E0,1.835294962E0
5.052282969E0,1.454237938E0,7.605587006E0,1.706082582E0
5.054782760E0,1.640878081E0,7.447660446E0,1.619940877E0
5.057282552E0,1.722234130E0,7.284350395E0,1.557727575E0
5.059782031E0,1.765903115E0,7.088139057E0,1.562513232E0
5.062281823E0,1.813759565E0,6.954140663E0,1.557727575E0
5.064781614E0,1.765903115E0,6.867999077E0,1.567298889E0
5.067281406E0,1.756331801E0,6.719046116E0,1.624726534E0
5.069781198E0,1.693520188E0,6.546762943E0,1.691725612E0
5.072280989E0,1.578664780E0,6.455835342E0,1.787438512E0
5.074780781E0,1.435095429E0,6.422336102E0,1.892722726E0
5.077280573E0,1.320239902E0,6.340980053E0,1.998006940E0
5.079780364E0,1.214955688E0,6.230311871E0,2.175673962E0
5.082280156E0,1.089930773E0,6.120242119E0,2.314457655E0
5.084779948E0,9.607182741E-1,6.101099491E0,2.424527645E0
5.087279739E0,7.836494446E-1,6.096313953E0,2.578266382E0
5.089779219E0,6.975077987E-1,6.096313953E0,2.784049034E0
5.092279010E0,6.251249313E-1,6.129813194E0,2.989831924E0
5.094778802E0,5.724828243E-1,6.177670002E0,3.075973511E0
5.097278594E0,5.485545993E-1,6.215955257E0,3.210569859E0
5.099778385E0,5.006981492E-1,6.254240036E0,3.406781197E0
5.102278177E0,4.671986103E-1,6.312266350E0,3.483351469E0
5.104777969E0,4.576273263E-1,6.345765591E0,3.598206997E0
5.107277760E0,5.054838061E-1,6.427121639E0,3.708875179E0
5.109777552E0,5.341976285E-1,6.498906136E0,3.795016766E0
5.112277344E0,6.107679605E-1,6.546762943E0,3.847658873E0
5.114777135E0,6.059823632E-1,6.589833736E0,3.900300980E0
5.117276927E0,6.346961856E-1,6.599404812E0,3.905086517E0
5.119776354E0,7.070791125E-1,6.570691109E0,3.924229145E0
5.122276146E0,6.831508875E-1,6.527620316E0,3.948157310E0
5.124775937E0,6.490531564E-1,6.508477688E0,3.929014683E0
5.127275729E0,6.059823632E-1,6.412764549E0,3.952943087E0
5.129775521E0,5.389832854E-1,6.360122681E0,4.034298897E0
5.132275312E0,4.624129832E-1,6.282954216E0,4.063013077E0
5.134775104E0,3.667000830E-1,6.192026615E0,4.173680782E0
5.137274896E0,3.044866920E-1,6.168098450E0,4.231108665E0
5.139774687E0,1.992024779E-1,6.034100533E0,4.312464714E0
5.142274479E0,1.124626622E-1,5.967101574E0,4.379463673E0
5.144774271E0,2.153540403E-2,5.895316601E0,4.360321045E0
5.147274062E0,-1.172483116E-1,5.794818401E0,4.393820763E0
5.149773541E0,-2.368894368E-1,5.799603939E0,4.451248169E0
5.152273333E0,-3.756731451E-1,5.775675774E0,4.479962349E0
5.154773125E0,-5.006981492E-1,5.650650501E0,4.561318398E0
5.157272916E0,-6.251249313E-1,5.550152302E0,4.580460548E0
5.159772708E0,-7.734799385E-1,5.531009674E0,4.618745804E0
5.162272500E0,-8.691928387E-1,5.492724419E0,4.671388149E0
5.164772291E0,-1.070788145E0,5.464010715E0,4.690530777E0
5.167272083E0,-1.238285661E0,5.511867046E0,4.738985062E0
5.169771875E0,-1.405783296E0,5.492724419E0,4.719842434E0
5.172271666E0,-1.593021631E0,5.545366287E0,4.724628448E0
5.174771458E0,-1.693520188E0,5.578866005E0,4.791627407E0
5.177271250E0,-1.899302959E0,5.617151260E0,4.853840828E0
5.179770729E0,-2.086541414E0,5.703292847E0,4.959125042E0
5.182270521E0,-2.239681959E0,5.746363640E0,4.992624283E0
5.184770312E0,-2.502892494E0,5.809175014E0,5.083551884E0
5.187270104E0,-2.694916487E0,5.852245808E0,5.160121918E0
5.189769896E0,-2.953341246E0,5.880959988E0,5.227120876E0
5.192269687E0,-3.198007345E0,5.971887112E0,5.232504845E0
5.194769479E0,-3.451646566E0,6.062814236E0,5.333003521E0
5.197269271E0,-3.710669756E0,6.244668961E0,5.371288776E0
5.199769062E0,-3.988237143E0,6.412764549E0,5.452644825E0
5.202268854E0,-4.285545349E0,6.604190350E0,5.553143024E0
5.204768646E0,-4.505684853E0,6.819544315E0,5.663212776E0
5.207268437E0,-4.740779877E0,7.006783009E0,5.812166214E0
5.209767916E0,-5.018347263E0,7.250850677E0,5.836094379E0
5.212267708E0,-5.209773064E0,7.500302792E0,5.860022545E0
5.214767500E0,-5.397011280E0,7.739584923E0,5.941378593E0
5.217267291E0,-5.559723377E0,8.065607071E0,6.061019897E0
5.219767083E0,-5.693721294E0,8.405387878E0,6.151947021E0
5.222266875E0,-5.871388435E0,8.831908226E0,6.247660160E0
5.224766666E0,-6.014957905E0,9.234500885E0,6.339185238E0
5.227266458E0,-6.043671608E0,9.661021233E0,6.382256031E0
5.229766250E0,-6.058028698E0,1.007318497E1,6.482754707E0
5.232266041E0,-5.995815277E0,1.047996521E1,6.573681831E0
5.234765833E0,-5.842674732E0,1.078684425E1,6.631109715E0
5.237265625E0,-5.722435474E0,1.104526901E1,6.655037880E0
5.239765104E0,-5.507081509E0,1.129950714E1,6.645466805E0
5.242264896E0,-5.272584915E0,1.139043427E1,6.578467846E0
5.244764687E0,-5.099703312E0,1.143829060E1,6.487540245E0
5.247264479E0,-4.932205677E0,1.143829060E1,6.353542328E0
5.249764271E0,-4.922634602E0,1.119900799E1,6.209374905E0
5.252264062E0,-5.042275429E0,1.087298584E1,6.195017815E0
5.254763854E0,-5.253442287E0,1.051346493E1,6.242874146E0
5.257263646E0,-5.444868088E0,1.017846966E1,6.401398659E0
