"Time (s)","Gyroscope x (rad/s)","Gyroscope y (rad/s)","Gyroscope z (rad/s)"
8.211200000E-2,-6.426675618E-2,3.579710424E-2,-1.001258120E-1
8.460000000E-2,-5.362477526E-2,4.005397484E-2,-1.075753048E-1
8.708800000E-2,-4.511103407E-2,5.282445624E-2,-1.128962934E-1
8.957600000E-2,-3.446892276E-2,5.708119273E-2,-1.160889119E-1
9.206399500E-2,-2.382694185E-2,6.453068554E-2,-1.160889119E-1
9.455191900E-2,-1.212057937E-2,7.836541533E-2,-1.150246635E-1
9.703999500E-2,-4.143491678E-4,9.007164836E-2,-1.097036675E-1
9.952799500E-2,1.235599909E-2,1.028421298E-1,-1.001258120E-1
1.020159960E-1,2.831909992E-2,1.134842411E-1,-9.267631918E-2
1.045040200E-1,4.002546147E-2,1.241263524E-1,-8.309845626E-2
1.069920200E-1,5.811693519E-2,1.411535740E-1,-7.245647907E-2
1.094799430E-1,7.727265358E-2,1.560525596E-1,-6.819960475E-2
1.119679430E-1,9.536412358E-2,1.720156521E-1,-6.287848204E-2
1.144560200E-1,1.155840978E-1,1.943639964E-1,-5.755749717E-2
1.169440720E-1,1.368683279E-1,2.145839781E-1,-5.542912707E-2
1.194320720E-1,1.528314203E-1,2.401249409E-1,-5.330062285E-2
1.219199950E-1,1.741155088E-1,2.614090145E-1,-5.223650485E-2
1.244080720E-1,1.964638531E-1,2.880142331E-1,-4.797963426E-2
1.268960720E-1,2.166838348E-1,3.114268184E-1,-5.010800436E-2
1.293841060E-1,2.358395457E-1,3.369677961E-1,-5.436487496E-2
1.318720290E-1,2.613805234E-1,3.603803813E-1,-5.862174556E-2
1.343601060E-1,2.816004753E-1,3.806003630E-1,-6.607124209E-2
1.368480290E-1,3.007562160E-1,4.018844366E-1,-7.458484918E-2
1.393360290E-1,3.231045604E-1,4.242327809E-1,-8.416271210E-2
1.418241440E-1,3.411960304E-1,4.444527626E-1,-9.267631918E-2
1.443121440E-1,3.592876196E-1,4.646725953E-1,-1.054468006E-1
1.468000670E-1,3.784433305E-1,4.785073400E-1,-1.192815304E-1
1.492880670E-1,3.997274339E-1,4.870210886E-1,-1.246025190E-1
1.517761440E-1,4.178190529E-1,4.965989292E-1,-1.352446377E-1
1.542641050E-1,4.369747639E-1,5.051125288E-1,-1.480151117E-1
1.567521050E-1,4.550662339E-1,5.136261582E-1,-1.597214788E-1
1.592401050E-1,4.742219448E-1,5.189473033E-1,-1.714277118E-1
1.617281820E-1,4.880566895E-1,5.178830028E-1,-1.852624416E-1
1.642161050E-1,4.997629225E-1,5.157545209E-1,-1.969686747E-1
1.667041280E-1,5.093407631E-1,5.136261582E-1,-2.065465301E-1
1.691921280E-1,5.104051828E-1,5.040482879E-1,-2.150602788E-1
1.716801280E-1,5.114693046E-1,4.891494513E-1,-2.203812599E-1
1.741681280E-1,5.082766414E-1,4.721221030E-1,-2.235738784E-1
1.766561280E-1,5.040197968E-1,4.465811253E-1,-2.267664969E-1
1.791442300E-1,4.944419265E-1,4.178475440E-1,-2.288948745E-1
1.816322300E-1,4.848640561E-1,3.901782334E-1,-2.267664969E-1
1.841201530E-1,4.763504565E-1,3.614445031E-1,-2.225096375E-1
1.866081530E-1,4.614514709E-1,3.337751627E-1,-2.214455158E-1
1.890961810E-1,4.518736005E-1,3.061058521E-1,-2.161243856E-1
1.915841810E-1,4.401673675E-1,2.773721218E-1,-2.108034045E-1
1.940721810E-1,4.295252562E-1,2.582164109E-1,-2.086750269E-1
1.965601810E-1,4.135621786E-1,2.390606850E-1,-2.076107860E-1
1.990481810E-1,4.029200673E-1,2.230975777E-1,-2.044181675E-1
2.015362100E-1,3.933421969E-1,2.060702294E-1,-2.001612931E-1
2.040239790E-1,3.773790896E-1,1.890430152E-1,-1.969686747E-1
2.065119790E-1,3.646086156E-1,1.773366481E-1,-1.905834228E-1
2.090002100E-1,3.571591079E-1,1.709514111E-1,-1.841981858E-1
2.114882100E-1,3.497097492E-1,1.688230336E-1,-1.788772047E-1
2.139760080E-1,3.443887830E-1,1.688230336E-1,-1.735560745E-1
2.164642390E-1,3.390676379E-1,1.773366481E-1,-1.703634560E-1
2.189522390E-1,3.369392753E-1,1.826577634E-1,-1.639782190E-1
2.214402390E-1,3.422602713E-1,1.943639964E-1,-1.597214788E-1
2.239280080E-1,3.486455083E-1,2.071344852E-1,-1.586572230E-1
2.264162580E-1,3.571591079E-1,2.199049592E-1,-1.554646045E-1
2.289042580E-1,3.646086156E-1,2.284185737E-1,-1.575929821E-1
2.313920270E-1,3.752507269E-1,2.390606850E-1,-1.565288603E-1
2.338800270E-1,3.858928382E-1,2.475742847E-1,-1.575929821E-1
2.363682580E-1,3.944064379E-1,2.539596558E-1,-1.597214788E-1
2.388560750E-1,4.007916749E-1,2.582164109E-1,-1.714277118E-1
2.413440750E-1,4.082411826E-1,2.603448927E-1,-1.703634560E-1
2.438320750E-1,4.124979079E-1,2.624732852E-1,-1.735560745E-1
2.463200750E-1,4.167547822E-1,2.677942514E-1,-1.799414456E-1
2.488080750E-1,4.210116565E-1,2.699227631E-1,-1.884550601E-1
2.512961130E-1,4.242042899E-1,2.688585222E-1,-1.959045529E-1
2.537841130E-1,4.252685308E-1,2.752437592E-1,-2.044181675E-1
2.562721130E-1,4.252685308E-1,2.773721218E-1,-2.161243856E-1
2.587601130E-1,4.263326526E-1,2.869499922E-1,-2.299591303E-1
2.612483440E-1,4.273968935E-1,3.018489778E-1,-2.395369858E-1
2.637361330E-1,4.263326526E-1,3.146194518E-1,-2.501790822E-1
2.662241330E-1,4.263326526E-1,3.305825591E-1,-2.618853152E-1
2.687121330E-1,4.273968935E-1,3.518666327E-1,-2.703989446E-1
2.712001330E-1,4.295252562E-1,3.625087440E-1,-2.778484225E-1
2.736883640E-1,4.316536486E-1,3.646371365E-1,-2.874262929E-1
2.761763830E-1,4.305895269E-1,3.657013774E-1,-2.948757708E-1
2.786641520E-1,4.273968935E-1,3.625087440E-1,-3.001967669E-1
2.811521520E-1,4.220757782E-1,3.529309034E-1,-3.033894002E-1
2.836401520E-1,4.114337862E-1,3.380320370E-1,-3.012610078E-1
2.861281520E-1,4.029200673E-1,3.199404478E-1,-2.970041633E-1
2.886161520E-1,3.901495636E-1,2.986563444E-1,-2.916831672E-1
2.911041520E-1,3.741864860E-1,2.720511258E-1,-2.852979302E-1
2.935921520E-1,3.603518605E-1,2.486385405E-1,-2.789126933E-1
2.960801520E-1,3.422602713E-1,2.252259552E-1,-2.725274265E-1
2.985680750E-1,3.305540383E-1,1.986208707E-1,-2.629495859E-1
3.010561610E-1,3.124624491E-1,1.762725264E-1,-2.533717155E-1
3.035441610E-1,2.954352200E-1,1.539240479E-1,-2.416653484E-1
3.060321610E-1,2.879857123E-1,1.337042153E-1,-2.310233712E-1
3.085201610E-1,2.805362344E-1,1.230621040E-1,-2.214455158E-1
3.110081610E-1,2.709583640E-1,1.219978482E-1,-2.086750269E-1
3.134961470E-1,2.698942423E-1,1.241263524E-1,-2.044181675E-1
3.159840700E-1,2.656373978E-1,1.358325779E-1,-1.959045529E-1
3.184720700E-1,2.645731270E-1,1.517956853E-1,-1.841981858E-1
3.209601470E-1,2.688300014E-1,1.698871553E-1,-1.746203303E-1
3.234481470E-1,2.741509974E-1,1.932997406E-1,-1.650424600E-1
3.259360600E-1,2.784078717E-1,2.262901962E-1,-1.575929821E-1
3.284240600E-1,2.922425866E-1,2.582164109E-1,-1.437583715E-1
3.309121370E-1,3.039488196E-1,3.007847071E-1,-1.352446377E-1
3.334000600E-1,3.241688013E-1,3.433530331E-1,-1.235384047E-1
3.358880600E-1,3.454529047E-1,3.848570883E-1,-1.086394191E-1
3.383761520E-1,3.731223643E-1,4.327464104E-1,-9.161219746E-2
3.408640750E-1,4.050485492E-1,4.763789773E-1,-7.990583777E-2
3.433520750E-1,4.476168752E-1,5.168189406E-1,-6.926386058E-2
3.458401520E-1,4.923135638E-1,5.561944842E-1,-5.862174556E-2
3.483281520E-1,5.348818898E-1,5.923776627E-1,-5.223650485E-2
3.508160800E-1,5.785144567E-1,6.274963617E-1,-4.691538215E-2
3.533040800E-1,6.264037490E-1,6.562300920E-1,-4.159439355E-2
3.557921570E-1,6.657792926E-1,6.828351617E-1,-4.053014144E-2
3.582801570E-1,7.062192559E-1,7.083761096E-1,-4.585126415E-2
3.607681570E-1,7.413380742E-1,7.285960913E-1,-5.436487496E-2
3.632560810E-1,7.700716257E-1,7.434949279E-1,-6.394273788E-2
3.657440810E-1,7.924199700E-1,7.498801947E-1,-8.309845626E-2
3.682321570E-1,8.094473481E-1,7.403023243E-1,-1.075753048E-1
3.707200810E-1,8.158326149E-1,7.179539800E-1,-1.320520192E-1
3.732080810E-1,8.137040734E-1,6.870920658E-1,-1.565288603E-1
3.756961410E-1,8.030620813E-1,6.455879807E-1,-1.884550601E-1
3.781840650E-1,7.924199700E-1,5.987628102E-1,-2.225096375E-1
3.806720650E-1,7.583654523E-1,5.444882512E-1,-2.555000782E-1
3.831601410E-1,7.221823335E-1,4.838283360E-1,-2.895548046E-1
3.856480650E-1,6.785499454E-1,4.210401773E-1,-3.193524778E-1
3.881360360E-1,6.274678707E-1,3.518666327E-1,-3.470219672E-1
3.906240360E-1,5.721291900E-1,2.837575078E-1,-3.725629151E-1
3.931120360E-1,5.135976672E-1,2.135197222E-1,-3.959755003E-1
3.956000360E-1,4.540019929E-1,1.368968338E-1,-4.140669703E-1
3.980880360E-1,3.901495636E-1,6.559493393E-2,-4.310943186E-1
4.005760360E-1,3.316181600E-1,-8.899447508E-3,-4.459931850E-1
4.030640360E-1,2.698942423E-1,-7.488035411E-2,-4.630205333E-1
4.055520360E-1,2.081702203E-1,-1.366043985E-1,-4.725984037E-1
4.080400360E-1,1.443176866E-1,-1.961999238E-1,-4.768551290E-1
4.105278050E-1,8.897888660E-2,-2.398324907E-1,-4.757910073E-1
4.130160170E-1,3.364009038E-2,-2.717587054E-1,-4.725984037E-1
4.155040170E-1,-1.424908172E-2,-3.004922867E-1,-4.630205333E-1
4.179920170E-1,-6.001001596E-2,-3.153912723E-1,-4.502500594E-1
4.204800940E-1,-9.406458586E-2,-3.132627606E-1,-4.364153147E-1
4.229680940E-1,-1.196055487E-1,-3.058134019E-1,-4.172596037E-1
4.254557760E-1,-1.398255229E-1,-2.909144163E-1,-3.938470185E-1
4.279440070E-1,-1.536602527E-1,-2.675018311E-1,-3.725629151E-1
4.304320070E-1,-1.547243744E-1,-2.323829979E-1,-3.534072042E-1
4.329200070E-1,-1.483391374E-1,-1.983284205E-1,-3.331872225E-1
4.354080070E-1,-1.313119084E-1,-1.536317468E-1,-3.204167485E-1
4.378959790E-1,-1.068350673E-1,-1.036139354E-1,-3.119031191E-1
4.403839790E-1,-7.384461164E-2,-4.721089080E-2,-3.087105155E-1
4.428719790E-1,-3.340480477E-2,1.132025942E-2,-3.076462746E-1
4.453597480E-1,1.448436733E-2,6.772330403E-2,-3.023252785E-1
4.478477480E-1,7.088741660E-2,1.241263524E-1,-2.991326451E-1
4.503359830E-1,1.326114535E-1,1.805292666E-1,-2.980684042E-1
4.528239830E-1,1.922071129E-1,2.433175594E-1,-2.927474082E-1
4.553119830E-1,2.560595274E-1,3.018489778E-1,-2.852979302E-1
4.577999830E-1,3.262971640E-1,3.699582517E-1,-2.778484225E-1
4.602879830E-1,3.954707086E-1,4.401958883E-1,-2.746558189E-1
4.627759690E-1,4.614514709E-1,5.114977956E-1,-2.693348229E-1
4.652637380E-1,5.274323821E-1,5.774787068E-1,-2.661421895E-1
4.677519690E-1,5.934132934E-1,6.381384730E-1,-2.640137076E-1
4.702399690E-1,6.487519741E-1,6.924130321E-1,-2.629495859E-1
4.727277380E-1,6.977056265E-1,7.328529954E-1,-2.629495859E-1
4.752157280E-1,7.392095923E-1,7.562654614E-1,-2.672064602E-1
4.777039590E-1,7.647506595E-1,7.647791505E-1,-2.714631855E-1
4.801917280E-1,7.807137370E-1,7.562654614E-1,-2.735915482E-1
4.826797280E-1,7.870990038E-1,7.339172363E-1,-2.735915482E-1
4.851677280E-1,7.796494961E-1,6.998625398E-1,-2.725274265E-1
4.876559500E-1,7.658149004E-1,6.509089470E-1,-2.767841816E-1
4.901439500E-1,7.402738333E-1,5.881208181E-1,-2.757200599E-1
4.926317190E-1,7.094118595E-1,5.104335546E-1,-2.746558189E-1
4.951199500E-1,6.647151709E-1,4.284896553E-1,-2.789126933E-1
4.976079500E-1,6.157616377E-1,3.369677961E-1,-2.778484225E-1
5.000956910E-1,5.614870787E-1,2.422533035E-1,-2.725274265E-1
5.025836910E-1,4.997629225E-1,1.454104483E-1,-2.757200599E-1
5.050719220E-1,4.359105229E-1,4.856758565E-2,-2.767841816E-1
5.075599220E-1,3.678012192E-1,-4.721089080E-2,-2.799767852E-1
5.100476910E-1,2.943709791E-1,-1.397970170E-1,-2.852979302E-1
5.125356760E-1,2.188121974E-1,-2.302546352E-1,-2.906188965E-1
5.150239070E-1,1.389966905E-1,-3.111343980E-1,-2.970041633E-1
5.175119070E-1,5.918118358E-2,-3.845646679E-1,-3.012610078E-1
5.199996760E-1,-1.637745090E-2,-4.462887049E-1,-3.055178821E-1
5.224876760E-1,-8.874359727E-2,-5.037558675E-1,-3.119031191E-1
5.249756860E-1,-1.568528712E-1,-5.452600718E-1,-3.150957525E-1
5.274636860E-1,-2.207052857E-1,-5.825072527E-1,-3.161598742E-1
5.299516860E-1,-2.781724334E-1,-6.027272344E-1,-3.182883859E-1
5.324399170E-1,-3.239333928E-1,-6.133691669E-1,-3.150957525E-1
5.349276860E-1,-3.579880893E-1,-6.123051047E-1,-3.076462746E-1
5.374158930E-1,-3.845931590E-1,-6.005988717E-1,-3.001967669E-1
5.399038930E-1,-4.026847780E-1,-5.856998563E-1,-2.874262929E-1
5.423918930E-1,-4.122626185E-1,-5.622872710E-1,-2.725274265E-1
5.448796620E-1,-4.037490189E-1,-5.452600718E-1,-2.555000782E-1
5.473676620E-1,-3.707585633E-1,-5.420672894E-1,-2.363443673E-1
5.498556470E-1,-3.143555224E-1,-5.324894190E-1,-2.129317671E-1
5.523438780E-1,-2.430536300E-1,-5.101410747E-1,-1.937760562E-1
5.548316470E-1,-1.728159785E-1,-4.665086567E-1,-1.863265634E-1
5.573196470E-1,-1.110919416E-1,-4.122341275E-1,-1.831339300E-1
5.598076470E-1,-6.001001596E-2,-3.441248536E-1,-1.810055673E-1
5.622956130E-1,-2.489105985E-2,-2.792081833E-1,-1.820698231E-1
5.647836130E-1,1.022762991E-2,-2.185482681E-1,-1.852624416E-1
5.672716130E-1,4.853907228E-2,-1.621453464E-1,-1.873908043E-1
5.697598440E-1,9.323575348E-2,-1.163844168E-1,-1.884550601E-1
5.722476130E-1,1.432535648E-1,-7.275198400E-2,-1.884550601E-1
5.747356130E-1,1.975281090E-1,-3.550466150E-2,-1.873908043E-1
5.772238440E-1,2.528668940E-1,3.870900488E-3,-1.841981858E-1
5.797116130E-1,3.135266900E-1,4.963183403E-2,-1.767486930E-1
5.821996130E-1,3.677936494E-1,9.858112782E-2,-1.639629006E-1
5.846876130E-1,4.188755751E-1,1.528557986E-1,-1.533207893E-1
5.871758640E-1,4.614438713E-1,2.124513388E-1,-1.437429190E-1
5.896638640E-1,5.018838048E-1,2.784322500E-1,-1.341650635E-1
5.921516330E-1,5.433878899E-1,3.422846496E-1,-1.245872006E-1
5.946396330E-1,5.848919749E-1,4.061370492E-1,-1.118167192E-1
5.971276330E-1,6.274602413E-1,4.774389565E-1,-1.033031121E-1
5.996156320E-1,6.732211709E-1,5.519334674E-1,-9.478936344E-2
6.021036320E-1,7.232390046E-1,6.360058784E-1,-8.521150798E-2
6.045916320E-1,7.775135636E-1,7.307203412E-1,-7.137690485E-2
6.070798630E-1,8.371090889E-1,8.275632262E-1,-5.754217505E-2
6.095676320E-1,8.967047334E-1,9.265345335E-1,-5.115693435E-2
6.120556470E-1,9.594930410E-1,1.029762626E0,-4.583594576E-2
6.145436470E-1,1.026537776E0,1.123412848E0,-3.945057094E-2
6.170316470E-1,1.094647169E0,1.214934826E0,-3.093696013E-2
6.195196470E-1,1.164885044E0,1.308585048E0,-2.880859189E-2
6.220076470E-1,1.235122681E0,1.393721342E0,-2.880859189E-2
6.244956470E-1,1.306424499E0,1.477793932E0,-3.093696013E-2
6.269836470E-1,1.369212866E0,1.557609439E0,-3.093696013E-2
6.294716470E-1,1.427744269E0,1.634232283E0,-3.519383073E-2
6.319596470E-1,1.485211253E0,1.701277375E0,-4.477169365E-2
6.344476470E-1,1.533100724E0,1.766194224E0,-5.434955284E-2
6.369356660E-1,1.573540568E0,1.820468783E0,-6.392741203E-2
6.394236660E-1,1.610787868E0,1.866229534E0,-7.882626355E-2
6.419115890E-1,1.641649842E0,1.904541016E0,-9.266099334E-2
6.443998970E-1,1.660805464E0,1.943916678E0,-1.043672264E-1
6.468876660E-1,1.672511697E0,1.971586227E0,-1.171377078E-1
6.493756660E-1,1.674640298E0,1.998191237E0,-1.256514490E-1
6.518638970E-1,1.672511697E0,2.024796486E0,-1.309724450E-1
6.543516660E-1,1.665062428E0,2.042887926E0,-1.384219378E-1
6.568396660E-1,1.656548619E0,2.056722641E0,-1.437429190E-1
6.593276660E-1,1.644842505E0,2.068428993E0,-1.458714306E-1
6.618156610E-1,1.634200335E0,2.076942682E0,-1.522566676E-1
6.643036610E-1,1.617173076E0,2.081199408E0,-1.607702672E-1
6.667916610E-1,1.596953154E0,2.080135107E0,-1.618345231E-1
6.692795850E-1,1.576733232E0,2.076942682E0,-1.639629006E-1
6.717676610E-1,1.561834335E0,2.074814081E0,-1.650271416E-1
6.742556470E-1,1.543742776E0,2.079071045E0,-1.586419046E-1
6.767435710E-1,1.534164786E0,2.095034122E0,-1.511924118E-1
6.792315710E-1,1.530972242E0,2.115253925E0,-1.469355375E-1
6.817196470E-1,1.534164786E0,2.142923355E0,-1.373576820E-1
6.842076480E-1,1.549063802E0,2.179106712E0,-1.352293044E-1
6.866956520E-1,1.573540568E0,2.215289593E0,-1.362935603E-1
6.891836520E-1,1.615044594E0,2.253601074E0,-1.341650635E-1
6.916716520E-1,1.668254972E0,2.300426006E0,-1.309724450E-1
6.941596520E-1,1.725722313E0,2.344058514E0,-1.341650635E-1
6.966476520E-1,1.800216794E0,2.389819622E0,-1.352293044E-1
6.991356960E-1,1.881096482E0,2.438773394E0,-1.426787972E-1
7.016236960E-1,1.957719445E0,2.483469486E0,-1.565134078E-1
7.041116960E-1,2.029021263E0,2.523909807E0,-1.714123785E-1
7.065996190E-1,2.095002174E0,2.555835962E0,-1.863112301E-1
7.090876960E-1,2.145020008E0,2.571798801E0,-2.044028342E-1
7.115757240E-1,2.182267189E0,2.567542076E0,-2.193016857E-1
7.140636470E-1,2.197166204E0,2.538808346E0,-2.427142859E-1
7.165516470E-1,2.196101904E0,2.494112015E0,-2.671909928E-1
7.190397240E-1,2.178010464E0,2.435580254E0,-2.937962115E-1
7.215277240E-1,2.157790422E0,2.366406918E0,-3.172087967E-1
7.240157240E-1,2.136506319E0,2.301490307E0,-3.363645077E-1
7.265037240E-1,2.110965252E0,2.232316732E0,-3.555202484E-1
7.289917240E-1,2.095002174E0,2.163143396E0,-3.746759593E-1
7.314797240E-1,2.077975035E0,2.096098423E0,-3.789327145E-1
7.339677240E-1,2.062011719E0,2.024796486E0,-3.853179514E-1
7.364557430E-1,2.056690931E0,1.948173523E0,-3.863821924E-1
7.389437430E-1,2.040727615E0,1.865165472E0,-3.799969554E-1
7.414316660E-1,2.010929823E0,1.774707675E0,-3.672264814E-1
7.439196660E-1,1.977939248E0,1.685314298E0,-3.565843701E-1
7.464077430E-1,1.938563585E0,1.602306247E0,-3.448781371E-1
7.488957430E-1,1.897059560E0,1.521426439E0,-3.363645077E-1
7.513836660E-1,1.868326068E0,1.456509709E0,-3.374286294E-1
7.538716660E-1,1.839592338E0,1.409684777E0,-3.321076632E-1
7.563597430E-1,1.812987208E0,1.380951047E0,-3.267866671E-1
7.588477430E-1,1.789574623E0,1.357538581E0,-3.235940337E-1
7.613356850E-1,1.777868390E0,1.340511084E0,-3.193371594E-1
7.638237620E-1,1.773611426E0,1.328804851E0,-3.150802851E-1
7.663117620E-1,1.775740027E0,1.331997514E0,-3.023098111E-1
7.687997620E-1,1.776804090E0,1.351153374E0,-2.820898294E-1
7.712877620E-1,1.781061053E0,1.377758384E0,-2.608057559E-1
7.737757720E-1,1.791703105E0,1.411813140E0,-2.373931557E-1
7.762637720E-1,1.802345037E0,1.457573891E0,-2.086595744E-1
7.787517720E-1,1.822564840E0,1.510784388E0,-1.767333746E-1
7.812396950E-1,1.853427172E0,1.578893661E0,-1.490640491E-1
7.837277720E-1,1.888545990E0,1.657644987E0,-1.245872006E-1
7.862157720E-1,1.930050015E0,1.744910002E0,-9.159674495E-2
7.887036950E-1,1.976875186E0,1.839624524E0,-5.754217505E-2
7.911916950E-1,2.037535191E0,1.932210326E0,-3.306533024E-2
7.936797720E-1,2.103515863E0,2.017346859E0,-1.390960813E-2
7.961676950E-1,2.166304111E0,2.106740475E0,3.117477754E-3
7.986556810E-1,2.229092360E0,2.188684225E0,1.482384093E-2
8.011437580E-1,2.299329996E0,2.261050463E0,1.588795893E-2
8.036316810E-1,2.367439508E0,2.337673426E0,9.502718225E-3
8.061196810E-1,2.435548544E0,2.404718399E0,-5.395998713E-3
8.086077580E-1,2.507914543E0,2.463249922E0,-2.455171943E-2
8.110957680E-1,2.584537745E0,2.518588543E0,-5.328530073E-2
8.135837680E-1,2.654775143E0,2.570734739E0,-7.776214927E-2
8.160716910E-1,2.714370728E0,2.602661133E0,-1.054314747E-1
8.185597680E-1,2.766517162E0,2.613303185E0,-1.320366859E-1
8.210477680E-1,2.806956768E0,2.610110521E0,-1.586419046E-1
8.235357050E-1,2.838883162E0,2.601596832E0,-1.831186116E-1
8.260237050E-1,2.861231327E0,2.593083143E0,-2.022743374E-1
8.285117050E-1,2.886772394E0,2.581377029E0,-2.118521929E-1
8.309997820E-1,2.912313461E0,2.548386574E0,-2.161090672E-1
8.334877820E-1,2.932533264E0,2.502625465E0,-2.118521929E-1
8.359756950E-1,2.944239616E0,2.441965580E0,-2.044028342E-1
8.384636950E-1,2.948496342E0,2.374920368E0,-2.012102157E-1
8.409516950E-1,2.938918591E0,2.290848255E0,-2.033385932E-1
8.434397720E-1,2.911249161E0,2.195069551E0,-2.054669559E-1
8.459277720E-1,2.876130581E0,2.109932899E0,-2.075954527E-1
8.484157820E-1,2.841011524E0,2.034374237E0,-2.107879519E-1
8.509037820E-1,2.805892706E0,1.951366067E0,-2.150448114E-1
8.533917820E-1,2.763324261E0,1.868357897E0,-2.193016857E-1
8.558797820E-1,2.712242603E0,1.793863535E0,-2.246226817E-1
8.583677820E-1,2.650518656E0,1.709791183E0,-2.331364155E-1
8.608557100E-1,2.588794470E0,1.615076661E0,-2.469710261E-1
8.633437100E-1,2.529198647E0,1.523554802E0,-2.608057559E-1
8.658317870E-1,2.464282036E0,1.441610813E0,-2.725119889E-1
8.683197870E-1,2.403622389E0,1.371373296E0,-2.735762298E-1
8.708077100E-1,2.339770079E0,1.321355343E0,-2.778331041E-1
8.732957290E-1,2.286559582E0,1.287300944E0,-2.788972259E-1
8.757837290E-1,2.240798473E0,1.273466229E0,-2.746404707E-1
8.782718060E-1,2.205679655E0,1.271337509E0,-2.725119889E-1
8.807597290E-1,2.187588453E0,1.274530292E0,-2.725119889E-1
8.832477290E-1,2.181203127E0,1.284108281E0,-2.746404707E-1
8.857357870E-1,2.180138826E0,1.301135421E0,-2.735762298E-1
8.882237870E-1,2.196101904E0,1.323483825E0,-2.788972259E-1
8.907117100E-1,2.217386007E0,1.345832229E0,-2.810257375E-1
8.931997870E-1,2.243991137E0,1.375630021E0,-2.831541002E-1
8.956877870E-1,2.269532442E0,1.405427814E0,-2.778331041E-1
8.981757100E-1,2.302522898E0,1.438418150E0,-2.650626302E-1
9.006637100E-1,2.326999187E0,1.463959336E0,-2.490995228E-1
9.031517870E-1,2.349347830E0,1.482050657E0,-2.288795561E-1
9.056397870E-1,2.371695995E0,1.494821191E0,-2.139807045E-1
9.081277100E-1,2.385530710E0,1.502270699E0,-1.958891004E-1
9.106156900E-1,2.391916037E0,1.493757129E0,-1.809902489E-1
9.131037670E-1,2.382338047E0,1.467151880E0,-1.650271416E-1
9.155916900E-1,2.366374969E0,1.420326710E0,-1.469355375E-1
9.180796900E-1,2.350412130E0,1.370308876E0,-1.309724450E-1
9.205676900E-1,2.323806763E0,1.309649110E0,-1.107524708E-1
9.230557430E-1,2.292944670E0,1.242604136E0,-9.372524917E-2
9.255437430E-1,2.254633188E0,1.162788510E0,-8.095476776E-2
9.280317430E-1,2.204615593E0,1.069138169E0,-7.350527495E-2
9.305197430E-1,2.151405096E0,9.542039037E-1,-6.712003797E-2
9.330077430E-1,2.096066475E0,8.286272883E-1,-6.392741203E-2
9.354956660E-1,2.031150103E0,6.945372820E-1,-5.967054144E-2
9.379836660E-1,1.951334119E0,5.540618300E-1,-5.860642344E-2
9.404717430E-1,1.864069104E0,4.157150388E-1,-5.115693435E-2
9.429597430E-1,1.775740027E0,2.688543797E-1,-4.370744154E-2
9.454476660E-1,1.684218049E0,1.177369803E-1,-3.625794873E-2
9.479356660E-1,1.593760490E0,-3.444454074E-2,-3.093696013E-2
9.504237430E-1,1.508623838E0,-1.823694557E-1,-2.135909908E-2
9.529116660E-1,1.419230461E0,-3.185880184E-1,-1.284549013E-2
9.553996660E-1,1.333029747E0,-4.409718215E-1,-3.267629538E-3
9.578876660E-1,1.252149940E0,-5.463283062E-1,8.438600227E-3
9.603757380E-1,1.177655339E0,-6.197587252E-1,1.908057928E-2
9.628637380E-1,1.107417703E0,-6.719048619E-1,3.397956118E-2
9.653516610E-1,1.047822118E0,-6.931889653E-1,4.142905399E-2
9.678397380E-1,1.003125429E0,-6.921248436E-1,4.994266480E-2
9.703277380E-1,9.680064917E-1,-6.676480174E-1,5.632790551E-2
9.728156660E-1,9.477866888E-1,-6.229513288E-1,6.271314621E-2
9.753036660E-1,9.360804558E-1,-5.654840469E-1,6.484151632E-2
9.777917430E-1,9.275667071E-1,-4.995032549E-1,6.590576470E-2
9.802797430E-1,9.190530777E-1,-4.335223436E-1,6.909838319E-2
9.827676660E-1,9.137319922E-1,-3.675415516E-1,7.229100913E-2
9.852556710E-1,9.009616375E-1,-3.047532737E-1,6.803413481E-2
9.877437480E-1,8.860626221E-1,-2.377082556E-1,6.164889410E-2
9.902317480E-1,8.828700185E-1,-1.610852331E-1,5.313528329E-2
9.927196710E-1,8.881909847E-1,-7.807710767E-2,3.717218339E-2
9.952076710E-1,8.956404924E-1,1.982987113E-2,1.801646128E-2
9.976957480E-1,9.179888368E-1,1.315715760E-1,-7.500919310E-5
1.000183748E0,9.605571628E-1,2.603406310E-1,-1.284549013E-2
1.002671671E0,1.016960025E0,3.901740909E-1,-2.455171943E-2
1.005159748E0,1.084005117E0,5.093652606E-1,-2.774433978E-2
1.007647748E0,1.171270132E0,6.211068630E-1,-1.710222848E-2
1.010135661E0,1.267048836E0,7.232708335E-1,9.891086956E-4
1.012623661E0,1.361763239E0,8.147926927E-1,2.227319963E-2
1.015111738E0,1.443707228E0,8.882231116E-1,4.675004259E-2
1.017599738E0,1.518201709E0,9.499469995E-1,7.229100913E-2
1.020087661E0,1.570348024E0,9.882584810E-1,1.042172089E-1
1.022575738E0,1.604402542E0,1.004221678E0,1.350792944E-1
1.025063738E0,1.627815247E0,1.003157258E0,1.680696160E-1
1.027551738E0,1.642714024E0,9.925153255E-1,1.989316940E-1
1.030039661E0,1.645906568E0,9.797448516E-1,2.287295312E-1
1.032527661E0,1.644842505E0,9.605891109E-1,2.670409679E-1
1.035015733E0,1.643778324E0,9.339839220E-1,3.021597862E-1
1.037503733E0,1.637392879E0,9.084429741E-1,3.351502419E-1
1.039991656E0,1.634200335E0,8.860946298E-1,3.628195822E-1
1.042479733E0,1.628879309E0,8.594893813E-1,3.819754422E-1
1.044967656E0,1.612916112E0,8.318200707E-1,3.958100379E-1
1.047455657E0,1.601209998E0,7.988296151E-1,4.053879082E-1
1.049943734E0,1.577797413E0,7.626465559E-1,4.181583822E-1
1.052431734E0,1.553320527E0,7.264634967E-1,4.266719818E-1
1.054919657E0,1.522458553E0,6.913446188E-1,4.351857305E-1
1.057407657E0,1.485211253E0,6.540974379E-1,4.405067265E-1
1.059895661E0,1.443707228E0,6.242996454E-1,4.405067265E-1
1.062383738E0,1.403267384E0,6.062080264E-1,4.405067265E-1
1.064871738E0,1.360699058E0,6.051439047E-1,4.362499714E-1
1.067359661E0,1.326644421E0,6.232353449E-1,4.266719818E-1
1.069847662E0,1.301103592E0,6.626110673E-1,4.181583822E-1
1.072335738E0,1.280883551E0,7.158215046E-1,4.021952748E-1
1.074823738E0,1.272369862E0,7.754170299E-1,3.862321675E-1
1.077311662E0,1.278755188E0,8.296917081E-1,3.681406975E-1
1.079799738E0,1.290461421E0,8.924798369E-1,3.521775901E-1
1.082287758E0,1.303223372E0,9.541992545E-1,3.383600712E-1
1.084775682E0,1.319186449E0,1.005281210E0,3.287822008E-1
1.087263758E0,1.326635957E0,1.040400028E0,3.255894482E-1
1.089751758E0,1.334085464E0,1.063812613E0,3.298463225E-1
1.092239758E0,1.331956983E0,1.082968473E0,3.404884338E-1
1.094727714E0,1.331956983E0,1.093610406E0,3.543231487E-1
1.097215714E0,1.333021164E0,1.086160898E0,3.702862561E-1
1.099703714E0,1.329828620E0,1.060619950E0,3.862493634E-1
1.102191715E0,1.322379231E0,1.030822158E0,4.032765925E-1
1.104679624E0,1.320250869E0,9.946391582E-1,4.181755781E-1
1.107167624E0,1.309608459E0,9.488782287E-1,4.298817813E-1
1.109655701E0,1.300030708E0,9.041815400E-1,4.426522851E-1
1.112143701E0,1.291517138E0,8.520354033E-1,4.532943964E-1
1.114631624E0,1.277682424E0,8.169165850E-1,4.639365077E-1
1.117119706E0,1.260655046E0,7.924396992E-1,4.703217447E-1
1.119607629E0,1.247884631E0,7.743482590E-1,4.788353443E-1
1.122095706E0,1.239370942E0,7.445504069E-1,4.798996150E-1
1.124583706E0,1.235114098E0,7.062389851E-1,4.841563404E-1
1.127071706E0,1.237242579E0,6.636706591E-1,4.873489738E-1
1.129559672E0,1.237242579E0,6.125887036E-1,4.916058183E-1
1.132047595E0,1.242563605E0,5.721487999E-1,4.926700890E-1
1.134535672E0,1.251077175E0,5.285163522E-1,4.884132147E-1
1.137023672E0,1.254269958E0,4.902049005E-1,4.820279777E-1
1.139511595E0,1.260655046E0,4.635996819E-1,4.575512707E-1
1.141999609E0,1.265976071E0,4.561502039E-1,4.298817813E-1
1.144487686E0,1.263847709E0,4.699849188E-1,4.011482000E-1
1.146975686E0,1.260655046E0,4.965901375E-1,3.639010191E-1
1.149463609E0,1.262783527E0,5.412868261E-1,3.309105635E-1
1.151951609E0,1.261719346E0,5.891761184E-1,2.979201078E-1
1.154439681E0,1.264911890E0,6.381297112E-1,2.691865265E-1
1.156927681E0,1.273425698E0,6.860190034E-1,2.425813228E-1
1.159415681E0,1.279810786E0,7.222020626E-1,2.202329785E-1
1.161903681E0,1.300030708E0,7.562567592E-1,1.978846341E-1
1.164391681E0,1.308544517E0,7.903113365E-1,1.819215268E-1
1.166879647E0,1.313865542E0,8.296870589E-1,1.691510528E-1
1.169367647E0,1.312801242E0,8.658701181E-1,1.702151746E-1
1.171855647E0,1.311737180E0,9.020531774E-1,1.787289083E-1
1.174343647E0,1.295773983E0,9.414287210E-1,1.989487559E-1
1.176831570E0,1.271297336E0,9.669698477E-1,2.298108339E-1
1.179319579E0,1.240435243E0,9.786760807E-1,2.713148892E-1
1.181807656E0,1.211701512E0,9.712265730E-1,3.160115778E-1
1.184295656E0,1.170197606E0,9.510065913E-1,3.607084155E-1
1.186783656E0,1.131886125E0,9.116310477E-1,4.054050744E-1
1.189271656E0,1.091446161E0,8.562922478E-1,4.458448887E-1
1.191759661E0,1.049942017E0,7.871187329E-1,4.841563404E-1
1.194247661E0,1.004181147E0,7.147527337E-1,5.245962739E-1
1.196735584E0,9.552276134E-1,6.445149183E-1,5.575867295E-1
1.199223661E0,9.084024429E-1,5.657636523E-1,5.863203406E-1
1.201711661E0,8.615772724E-1,4.795627892E-1,6.139896512E-1
1.204199661E0,8.126237392E-1,3.954904079E-1,6.384664774E-1
1.206687584E0,7.721838951E-1,3.029044271E-1,6.565579772E-1
1.209175661E0,7.370650768E-1,2.018046975E-1,6.682642102E-1
1.211663661E0,7.019462585E-1,1.017692164E-1,6.757137179E-1
1.214151632E0,6.657631993E-1,1.131159905E-2,6.789063215E-1
1.216639555E0,6.253233552E-1,-7.488914579E-2,6.884841919E-1
1.219127632E0,5.880760550E-1,-1.472551674E-1,6.906125546E-1
1.221615632E0,5.582782030E-1,-2.057865858E-1,6.842272878E-1
1.224103632E0,5.380582213E-1,-2.515475154E-1,6.735852957E-1
1.226591565E0,5.135815144E-1,-2.781527340E-1,6.629431844E-1
1.229079642E0,5.093246698E-1,-2.877305746E-1,6.544296145E-1
1.231567642E0,5.103889108E-1,-2.877305746E-1,6.491084695E-1
1.234055565E0,5.146457553E-1,-2.760243714E-1,6.459158659E-1
1.236543642E0,5.210310221E-1,-2.472906411E-1,6.448517442E-1
1.239031608E0,5.274162292E-1,-2.079149485E-1,6.427232623E-1
1.241519608E0,5.369940996E-1,-1.621541530E-1,6.395305991E-1
1.244007608E0,5.518929958E-1,-1.057510972E-1,6.342096329E-1
1.246495608E0,5.657277107E-1,-4.189869389E-2,6.363379955E-1
1.248983608E0,5.795624256E-1,2.408207953E-2,6.405948400E-1
1.251471617E0,5.923328996E-1,9.431972355E-2,6.544296145E-1
1.253959617E0,6.019107699E-1,1.603006274E-1,6.672000885E-1
1.256447617E0,6.136170030E-1,2.252172828E-1,6.852915287E-1
1.258935617E0,6.200023890E-1,2.858770788E-1,7.076398730E-1
1.261423617E0,6.306443810E-1,3.465368748E-1,7.289240956E-1
1.263911641E0,6.359653473E-1,4.029399157E-1,7.470155954E-1
1.266399641E0,6.370295882E-1,4.593428075E-1,7.651070356E-1
1.268887641E0,6.327727437E-1,5.072322488E-1,7.863912582E-1
1.271375564E0,6.200023890E-1,5.476720929E-1,8.044828773E-1
1.273863641E0,6.051033735E-1,5.838551521E-1,8.268311024E-1
1.276351627E0,5.891402960E-1,6.115244627E-1,8.513079286E-1
1.278839627E0,5.657277107E-1,6.338729262E-1,8.768488765E-1
1.281327858E0,5.401867628E-1,6.540927887E-1,9.109034538E-1
1.283815858E0,5.146457553E-1,6.668632627E-1,9.492149353E-1
1.286303627E0,4.891048074E-1,6.689916253E-1,9.907191396E-1
1.288791622E0,4.614353478E-1,6.657991409E-1,1.037544250E0
1.291279622E0,4.316375256E-1,6.615422964E-1,1.087561965E0
1.293767622E0,3.954545856E-1,6.657991409E-1,1.138643861E0
1.296255622E0,3.518220186E-1,6.689916253E-1,1.186533213E0
1.298743622E0,2.720065117E-1,7.158168554E-1,1.219523668E0
1.301231560E0,1.155679747E-1,8.594848514E-1,1.215266943E0
1.303719868E0,-5.683351681E-2,9.637772441E-1,1.197175264E0
1.306207637E0,-2.281708866E-1,1.008473754E0,1.171634316E0
1.308695637E0,-3.984440267E-1,1.026565194E0,1.138643861E0
1.311183868E0,-5.697814226E-1,1.023372650E0,1.106717706E0
1.313671646E0,-7.411187887E-1,1.013794899E0,1.089690328E0
1.316159646E0,-9.188413620E-1,1.023372650E0,1.085433483E0
1.318647877E0,-1.084857821E0,1.028693795E0,1.086497903E0
1.321135646E0,-1.234911084E0,9.903823137E-1,1.105653405E0
1.323623646E0,-1.360487461E0,9.190803766E-1,1.154607177E0
1.326111661E0,-1.469036579E0,8.924753070E-1,1.199303865E0
1.328599661E0,-1.549916387E0,1.063812613E0,1.241871953E0
1.331087892E0,-1.646759391E0,1.241535187E0,1.291889906E0
1.333575661E0,-1.768078804E0,1.218122602E0,1.329136968E0
1.336063661E0,-1.889398575E0,1.092546344E0,1.353613853E0
1.338551651E0,-2.013910770E0,9.584560990E-1,1.357870579E0
1.341039651E0,-2.126716852E0,8.424575329E-1,1.353613853E0
1.343527651E0,-2.216110229E0,7.605134845E-1,1.358934879E0
1.346015651E0,-2.289540529E0,7.126241922E-1,1.378090501E0
1.348503882E0,-2.334236860E0,6.902758479E-1,1.402567267E0
1.350991661E0,-2.372548580E0,6.987895966E-1,1.422787189E0
1.353479661E0,-2.392768860E0,7.243305445E-1,1.443007231E0
1.355967892E0,-2.395961046E0,7.519999146E-1,1.453649282E0
1.358455892E0,-2.375741482E0,7.722198963E-1,1.448328376E0
1.360943661E0,-2.338494301E0,7.775408626E-1,1.434493542E0
1.363431675E0,-2.281026840E0,7.807334661E-1,1.420658827E0
1.365919906E0,-2.218238592E0,7.892470956E-1,1.402567267E0
1.368407906E0,-2.138422966E0,8.126596808E-1,1.385540009E0
1.370895675E0,-2.054350615E0,8.520354033E-1,1.371705294E0
1.373383675E0,-1.958571911E0,8.882184625E-1,1.368512511E0
1.375871891E0,-1.851087093E0,9.180163145E-1,1.364255786E0
1.378359891E0,-1.738281131E0,9.488782287E-1,1.361063242E0
1.380847660E0,-1.623346806E0,9.850612879E-1,1.351485491E0
1.383335660E0,-1.515861750E0,1.020180106E0,1.344035864E0
1.385823660E0,-1.412633657E0,1.056363106E0,1.338714838E0
1.388311665E0,-1.303020358E0,1.085096717E0,1.339779139E0
1.390799665E0,-1.192342758E0,1.104252338E0,1.346164465E0
1.393287896E0,-1.080600858E0,1.126600862E0,1.357870579E0
1.395775896E0,-9.699234366E-1,1.145756602E0,1.377026320E0
1.398263896E0,-8.645668626E-1,1.153206110E0,1.404695749E0
1.400751651E0,-7.549535036E-1,1.159591198E0,1.440878868E0
1.403239882E0,-6.538537741E-1,1.171297550E0,1.475997686E0
1.405727882E0,-5.548825264E-1,1.185132265E0,1.513244867E0
1.408215651E0,-4.495259523E-1,1.190453291E0,1.557941556E0
1.410703651E0,-3.431052268E-1,1.187260628E0,1.598381519E0
1.413191901E0,-2.430697381E-1,1.187260628E0,1.640949845E0
1.415679670E0,-1.462268829E-1,1.189388990E0,1.681389570E0
1.418167901E0,-5.470501631E-2,1.202159643E0,1.721829534E0
1.420655670E0,3.255984932E-2,1.226636291E0,1.759076715E0
1.423143901E0,1.187606007E-1,1.257498264E0,1.799516559E0
1.425631920E0,1.932551116E-1,1.286231875E0,1.828250289E0
1.428119689E0,2.613644004E-1,1.312837124E0,1.848470211E0
1.430607920E0,3.209600449E-1,1.337313890E0,1.861240745E0
1.433095920E0,3.656567335E-1,1.347955942E0,1.860176444E0
1.435583689E0,3.965187073E-1,1.343699217E0,1.849534392E0
1.438071709E0,4.060965478E-1,1.329864383E0,1.833571315E0
1.440559940E0,4.124817848E-1,1.310708761E0,1.808030248E0
1.443047940E0,4.124817848E-1,1.297938347E0,1.778232455E0
1.445535709E0,4.007755518E-1,1.289424658E0,1.745242000E0
1.448023940E0,3.922619522E-1,1.283039331E0,1.711187482E0
1.450511916E0,3.773629665E-1,1.273461580E0,1.675004363E0
1.452999916E0,3.496936560E-1,1.256434202E0,1.628179193E0
1.455487685E0,3.156389296E-1,1.229829073E0,1.576033115E0
1.457975685E0,2.847769856E-1,1.198966861E0,1.521758556E0
1.460463916E0,2.581717670E-1,1.164912224E0,1.464291334E0
1.462951892E0,2.305024415E-1,1.134050369E0,1.416401982E0
1.465439661E0,2.028329819E-1,1.104252338E0,1.373833776E0
1.467927661E0,1.751636416E-1,1.080839753E0,1.342971683E0
1.470415892E0,1.400448233E-1,1.055298924E0,1.316366673E0
1.472903892E0,1.049258634E-1,1.032950521E0,1.291889906E0
1.475391925E0,7.406391203E-2,1.004217029E0,1.269541502E0
1.477879925E0,3.681658953E-2,9.754834771E-1,1.248257399E0
1.480367925E0,-1.494721277E-3,9.446213841E-1,1.231230021E0
1.482855925E0,-3.980616480E-2,9.126952887E-1,1.219523668E0
1.485343925E0,-8.237447590E-2,8.775763512E-1,1.201432228E0
1.487831911E0,-1.238785461E-1,8.350081444E-1,1.178019404E0
1.490319911E0,-1.664468646E-1,7.828620076E-1,1.155671358E0
1.492807911E0,-2.047583014E-1,7.307156920E-1,1.130130172E0
1.495295680E0,-2.377487570E-1,6.775053740E-1,1.112038732E0
1.497783911E0,-2.654180825E-1,6.232308149E-1,1.097139835E0
1.500271896E0,-2.962801754E-1,5.742772818E-1,1.084369183E0
1.502759896E0,-3.335273564E-1,5.253237486E-1,1.081176639E0
1.505247896E0,-3.718388081E-1,4.710491896E-1,1.080112457E0
1.507735896E0,-4.112145007E-1,4.061325192E-1,1.071598887E0
1.510223896E0,-4.527185559E-1,3.327022493E-1,1.056699872E0
1.512711911E0,-4.995437562E-1,2.603361011E-1,1.038608432E0
1.515199911E0,-5.474330783E-1,1.847773492E-1,1.022645354E0
1.517687911E0,-6.038361192E-1,1.209249422E-1,1.002425313E0
1.520175911E0,-6.581106186E-1,7.197138667E-2,9.875264764E-1
1.522663911E0,-7.155777812E-1,2.833881788E-2,9.726275206E-1
1.525151992E0,-7.741092443E-1,-6.779871415E-3,9.587927461E-1
1.527639915E0,-8.390258551E-1,-3.232083470E-2,9.460224509E-1
1.530127915E0,-8.996856809E-1,-5.360492319E-2,9.268667102E-1
1.532615915E0,-9.624739289E-1,-7.808177173E-2,9.098393321E-1
1.535103915E0,-1.028454900E0,-1.036227271E-1,8.928120136E-1
1.537591906E0,-1.090178728E0,-1.227784529E-1,8.768488765E-1
1.540079906E0,-1.148710370E0,-1.376772970E-1,8.715277910E-1
1.542567676E0,-1.205113173E0,-1.440625489E-1,8.651426435E-1
1.545055906E0,-1.261516333E0,-1.472551674E-1,8.608857989E-1
1.547543906E0,-1.320047617E0,-1.621541530E-1,8.534362912E-1
1.550031676E0,-1.379643321E0,-1.876951158E-1,8.491795659E-1
1.552519983E0,-1.432853699E0,-2.121718228E-1,8.566289544E-1
1.555007906E0,-1.471165061E0,-2.270708084E-1,8.757846355E-1
1.557495906E0,-1.503091216E0,-2.355844080E-1,9.002615213E-1
1.559983983E0,-1.527567983E0,-2.398412824E-1,9.332517982E-1
1.562471906E0,-1.547788024E0,-2.462265193E-1,9.694349170E-1
1.564959906E0,-1.564815283E0,-2.728316188E-1,9.960401058E-1
1.567447906E0,-1.574393153E0,-3.175284266E-1,1.018388629E0
1.569935906E0,-1.582906842E0,-3.792524636E-1,1.032223225E0
1.572423906E0,-1.590356350E0,-4.462974966E-1,1.039672613E0
1.574911978E0,-1.594613194E0,-5.186635256E-1,1.040736794E0
1.577399901E0,-1.602062583E0,-5.814517736E-1,1.038608432E0
1.579887901E0,-1.610576272E0,-6.495610476E-1,1.030094624E0
1.582375901E0,-1.615902424E0,-7.134163976E-1,1.014142275E0
1.584863901E0,-1.628672957E0,-7.708835602E-1,9.886012673E-1
1.587351901E0,-1.641443372E0,-8.240939975E-1,9.566750526E-1
1.589839978E0,-1.662727594E0,-8.709190488E-1,9.215563536E-1
1.592327901E0,-1.682947516E0,-9.198725820E-1,8.757953048E-1
1.594815901E0,-1.705295920E0,-9.613766670E-1,8.268417716E-1
1.597303978E0,-1.732965231E0,-9.890461564E-1,7.789524198E-1
1.599792002E0,-1.764891505E0,-1.003944993E0,7.236137986E-1
1.602279925E0,-1.789368391E0,-1.010330319E0,6.629538536E-1
1.604767925E0,-1.809588313E0,-1.017779708E0,6.033582091E-1
1.607256002E0,-1.828744054E0,-1.014587045E0,5.405700207E-1
1.609744002E0,-1.846835375E0,-1.003944993E0,4.777817726E-1
1.612231934E0,-1.862798572E0,-9.784039855E-1,4.149936140E-1
1.614719934E0,-1.873440742E0,-9.432851672E-1,3.553979397E-1
1.617207934E0,-1.886211157E0,-8.922032714E-1,3.011233807E-1
1.619696011E0,-1.894724846E0,-8.262223601E-1,2.468487173E-1
1.622183935E0,-1.891532302E0,-7.602415681E-1,2.032162845E-1
1.624671935E0,-1.881954312E0,-6.963890195E-1,1.574553400E-1
1.627160011E0,-1.867055416E0,-6.378576159E-1,1.223365217E-1
1.629648011E0,-1.850028157E0,-5.814546943E-1,9.466719627E-2
1.632136011E0,-1.823423028E0,-5.271800160E-1,7.870395482E-2
1.634624011E0,-1.797881842E0,-4.856759906E-1,7.231871784E-2
1.637112011E0,-1.768084168E0,-4.537497759E-1,7.338296622E-2
1.639600011E0,-1.740414739E0,-4.377866685E-1,8.508933336E-2
1.642087935E0,-1.715937972E0,-4.367224276E-1,1.010524333E-1
1.644576011E0,-1.691461205E0,-4.494929016E-1,1.191439033E-1
1.647064011E0,-1.665920258E0,-4.782264829E-1,1.372353733E-1
1.649551935E0,-1.644636035E0,-5.176022053E-1,1.617122144E-1
1.652040012E0,-1.623351932E0,-5.622990131E-1,1.851248145E-1
1.654528012E0,-1.604196191E0,-6.165735126E-1,2.159867585E-1
1.657016012E0,-1.592489958E0,-6.751049757E-1,2.489772141E-1
1.659504012E0,-1.576526761E0,-7.315078974E-1,2.894170284E-1
1.661991950E0,-1.558435321E0,-7.911035419E-1,3.309210837E-1
1.664480027E0,-1.540343761E0,-8.538916707E-1,3.702967763E-1
1.666968027E0,-1.532894254E0,-9.166799784E-1,4.032872319E-1
1.669456027E0,-1.529701829E0,-9.773397446E-1,4.256355762E-1
1.671944027E0,-1.526509047E0,-1.040127993E0,4.352134466E-1
1.674432007E0,-1.529701829E0,-1.097595334E0,4.352134466E-1
1.676919930E0,-1.538215280E0,-1.140163541E0,4.245713353E-1
1.679407930E0,-1.555242658E0,-1.171025634E0,4.054156244E-1
1.681896007E0,-1.574398398E0,-1.189117193E0,3.745536506E-1
1.684384007E0,-1.582911968E0,-1.190181255E0,3.404990733E-1
1.686872041E0,-1.597811103E0,-1.178475022E0,2.979307771E-1
1.689360041E0,-1.620159268E0,-1.155062556E0,2.500414550E-1
1.691848041E0,-1.638250947E0,-1.119943738E0,2.021520287E-1
1.694336041E0,-1.651021242E0,-1.076311111E0,1.563912332E-1
1.696823964E0,-1.661663413E0,-1.025229216E0,1.053091735E-1
1.699312027E0,-1.669112802E0,-9.784039855E-1,5.741986632E-2
1.701800027E0,-1.677626491E0,-9.315788150E-1,7.402061485E-3
1.704288027E0,-1.681883335E0,-8.890106678E-1,-3.623023629E-2
1.706776027E0,-1.684011698E0,-8.517633080E-1,-8.092692494E-2
1.709264257E0,-1.687204480E0,-8.198370934E-1,-1.234952360E-1
1.711752022E0,-1.690397024E0,-7.974887490E-1,-1.660635471E-1
1.714240022E0,-1.701039195E0,-7.964245081E-1,-2.128885984E-1
1.716728022E0,-1.709552646E0,-8.028097749E-1,-2.682275474E-1
1.719216022E0,-1.719130516E0,-8.251581192E-1,-3.193094432E-1
1.721704022E0,-1.726580024E0,-8.453781009E-1,-3.661345243E-1
1.724192026E0,-1.730836868E0,-8.655980825E-1,-4.055102170E-1
1.726680026E0,-1.736157894E0,-8.890106678E-1,-4.331796765E-1
1.729168026E0,-1.749992609E0,-9.188083410E-1,-4.608489871E-1
1.731656026E0,-1.767019987E0,-9.528630376E-1,-4.853257239E-1
1.734144026E0,-1.780854583E0,-9.869176149E-1,-5.023530722E-1
1.736632031E0,-1.789368391E0,-1.025229216E0,-5.161877871E-1
1.739120031E0,-1.795753598E0,-1.058219552E0,-5.257656574E-1
1.741608031E0,-1.804267168E0,-1.088017464E0,-5.321509242E-1
1.744096031E0,-1.810652375E0,-1.110365748E0,-5.332149863E-1
1.746584261E0,-1.815973520E0,-1.125264645E0,-5.321509242E-1
1.749072041E0,-1.821294546E0,-1.132714152E0,-5.310866237E-1
1.751560041E0,-1.826615572E0,-1.131649971E0,-5.289582610E-1
1.754048041E0,-1.831936479E0,-1.131649971E0,-5.225728750E-1
1.756536272E0,-1.830872416E0,-1.125264645E0,-5.215088129E-1
1.759024272E0,-1.830872416E0,-1.114622593E0,-5.183161497E-1
1.761512041E0,-1.823423028E0,-1.090145826E0,-5.066099167E-1
1.764000041E0,-1.803203106E0,-1.063540697E0,-4.885183275E-1
1.766488272E0,-1.777661920E0,-1.031614423E0,-4.682984948E-1
1.768976272E0,-1.740414739E0,-1.002880812E0,-4.470142722E-1
1.771464041E0,-1.684011698E0,-9.773397446E-1,-4.310511649E-1
1.773952046E0,-1.624416232E0,-9.517987967E-1,-4.140238166E-1
1.776440046E0,-1.555242658E0,-9.251936078E-1,-4.001892209E-1
1.778928277E0,-1.477555633E0,-9.071021080E-1,-3.842261136E-1
1.781416046E0,-1.392418981E0,-8.953957558E-1,-3.661345243E-1
1.783904277E0,-1.307282448E0,-8.879463673E-1,-3.554923832E-1
1.786392277E0,-1.223209977E0,-8.922032714E-1,-3.544282913E-1
1.788880277E0,-1.142330289E0,-9.081663489E-1,-3.576208949E-1
1.791368277E0,-1.064643025E0,-9.283862114E-1,-3.650704026E-1
1.793856277E0,-9.933412075E-1,-9.475419521E-1,-3.746482432E-1
1.796344046E0,-9.326814413E-1,-9.688261747E-1,-3.831618726E-1
1.798832046E0,-8.677647710E-1,-9.911745191E-1,-3.948681056E-1
1.801320277E0,-8.124259710E-1,-1.011394501E0,-4.087028205E-1
1.803808277E0,-7.602798343E-1,-1.033742785E0,-4.214732945E-1
1.806296277E0,-7.091978788E-1,-1.059283733E0,-4.353080392E-1
1.808784277E0,-6.698222160E-1,-1.084824920E0,-4.502068758E-1
1.811272036E0,-6.347033978E-1,-1.111429930E0,-4.672342539E-1
1.813760267E0,-6.017129421E-1,-1.133778453E0,-4.842616022E-1
1.816248267E0,-5.697867274E-1,-1.150805593E0,-5.034173131E-1
1.818736036E0,-5.367962718E-1,-1.159319282E0,-5.236371756E-1
1.821224267E0,-5.069985986E-1,-1.164640427E0,-5.481140018E-1
1.823712238E0,-4.803932309E-1,-1.159319282E0,-5.800402164E-1
1.826200007E0,-4.612374902E-1,-1.139099360E0,-6.140947938E-1
1.828688238E0,-4.463386536E-1,-1.115686774E0,-6.577273607E-1
1.831176238E0,-4.378249049E-1,-1.088017464E0,-7.056166530E-1
1.833664238E0,-4.261186719E-1,-1.053962827E0,-7.566985488E-1
1.836152238E0,-4.112198353E-1,-1.007137775E0,-8.088448644E-1
1.838640238E0,-3.931282163E-1,-9.411566854E-1,-8.567340374E-1
1.841128238E0,-3.665231466E-1,-8.560200334E-1,-8.929170966E-1
1.843616238E0,-3.303400576E-1,-7.623699307E-1,-9.259075522E-1
1.846104007E0,-2.824506462E-1,-6.655271053E-1,-9.503844380E-1
1.848592017E0,-2.345613241E-1,-5.750693679E-1,-9.727326035E-1
1.851080248E0,-1.802867800E-1,-4.931254685E-1,-9.897599816E-1
1.853568248E0,-1.174986288E-1,-4.207593203E-1,-1.007851601E0
1.856056248E0,-5.896721408E-2,-3.643563986E-1,-1.023814678E0
1.858544325E0,-2.564168535E-3,-3.217881024E-1,-1.033392549E0
1.861032238E0,4.532500356E-2,-2.866692543E-1,-1.036585331E0
1.863520238E0,8.789331466E-2,-2.653850317E-1,-1.036585331E0
1.866008238E0,1.262047589E-1,-2.611281872E-1,-1.029135704E0
1.868496238E0,1.570668519E-1,-2.621924281E-1,-1.009979963E0
1.870984238E0,1.889930516E-1,-2.707060277E-1,-9.918883443E-1
1.873472238E0,2.198549956E-1,-2.930545211E-1,-9.652832747E-1
1.875960315E0,2.432675958E-1,-3.154028654E-1,-9.365496635E-1
1.878448315E0,2.698728144E-1,-3.483932912E-1,-9.003666043E-1
1.880936238E0,2.964780331E-1,-3.845762312E-1,-8.631194234E-1
1.883424238E0,3.241473436E-1,-4.218235612E-1,-8.226794600E-1
1.885912233E0,3.528809249E-1,-4.601350129E-1,-7.811754346E-1
1.888400233E0,3.741651475E-1,-4.973823428E-1,-7.417997122E-1
1.890888233E0,3.954492509E-1,-5.314369202E-1,-7.066808939E-1
1.893376233E0,4.188618362E-1,-5.591063499E-1,-6.768830419E-1
1.895864310E0,4.348249435E-1,-5.835830569E-1,-6.524063349E-1
1.898352247E0,4.465311766E-1,-6.059314013E-1,-6.289937496E-1
1.900840247E0,4.550449252E-1,-6.133809090E-1,-6.098378897E-1
1.903328324E0,4.656868875E-1,-6.080598235E-1,-5.970675349E-1
1.905816324E0,4.678153992E-1,-5.889040828E-1,-5.821686983E-1
1.908304247E0,4.624942839E-1,-5.622990131E-1,-5.725907087E-1
1.910792243E0,4.593016505E-1,-5.271800160E-1,-5.662054420E-1
1.913280320E0,4.529164135E-1,-4.835475981E-1,-5.608844757E-1
1.915768320E0,4.486596882E-1,-4.324656725E-1,-5.523708463E-1
1.918256243E0,4.465311766E-1,-3.781909943E-1,-5.427928567E-1
1.920744243E0,4.444028139E-1,-3.196595907E-1,-5.289582610E-1
1.923232320E0,4.433385432E-1,-2.611281872E-1,-5.183161497E-1
1.925720320E0,4.529164135E-1,-2.068536282E-1,-5.034173131E-1
1.928208243E0,4.571732879E-1,-1.600285769E-1,-4.917109609E-1
1.930696243E0,4.688795209E-1,-1.227812469E-1,-4.831973314E-1
1.933184320E0,4.837785065E-1,-8.659830689E-2,-4.693626165E-1
1.935672305E0,5.018699765E-1,-6.318571419E-2,-4.555280209E-1
1.938160228E0,5.231540799E-1,-5.041523650E-2,-4.374364018E-1
1.940648305E0,5.486950278E-1,-4.296574369E-2,-4.204090536E-1
1.943136305E0,5.742360950E-1,-4.828673229E-2,-4.055102170E-1
1.945624305E0,5.965844393E-1,-6.212146580E-2,-3.906113505E-1
1.948112305E0,6.210611463E-1,-8.340568841E-2,-3.735840023E-1
1.950600305E0,6.466021538E-1,-1.142676398E-1,-3.586851656E-1
1.953088305E0,6.678863764E-1,-1.547075808E-1,-3.491071463E-1
1.955576305E0,6.881061792E-1,-2.015326321E-1,-3.352725506E-1
1.958064228E0,7.008766532E-1,-2.504861951E-1,-3.203735650E-1
1.960552311E0,7.104546428E-1,-3.047607243E-1,-3.107957244E-1
1.963040311E0,7.168399096E-1,-3.632921576E-1,-3.033462167E-1
1.965528234E0,7.179040313E-1,-4.196951985E-1,-2.937684953E-1
1.968016311E0,7.232251763E-1,-4.643918872E-1,-2.863190174E-1
1.970504311E0,7.317387462E-1,-4.931254685E-1,-2.778052688E-1
1.972992296E0,7.434449792E-1,-5.048316717E-1,-2.639706731E-1
1.975480296E0,7.519587278E-1,-5.080243349E-1,-2.437506914E-1
1.977968296E0,7.572796941E-1,-4.963181019E-1,-2.245949656E-1
1.980456296E0,7.657933235E-1,-4.888685942E-1,-2.075676173E-1
1.982944296E0,7.689859271E-1,-4.718412459E-1,-1.894761473E-1
1.985432272E0,7.774996758E-1,-4.484287798E-1,-1.767056584E-1
1.987920503E0,7.828207016E-1,-4.175666869E-1,-1.628709286E-1
1.990408503E0,7.838849425E-1,-3.803195059E-1,-1.522288173E-1
1.992896272E0,7.806923389E-1,-3.334943354E-1,-1.405225843E-1
1.995384272E0,7.721785903E-1,-2.770912647E-1,-1.213668659E-1
1.997872267E0,7.636649609E-1,-2.164314836E-1,-9.476165473E-2
2.000360267E0,7.551513314E-1,-1.696064323E-1,-6.496381760E-2
2.002848267E0,7.498302460E-1,-1.302307397E-1,-3.516598791E-2
2.005336267E0,7.445092201E-1,-9.724029154E-2,-9.625025094E-3
2.007824267E0,7.349314094E-1,-7.595619559E-2,1.485155337E-2
2.010312258E0,7.264177799E-1,-6.318571419E-2,3.507152572E-2
2.012800258E0,7.179040313E-1,-5.360785499E-2,5.635561794E-2
2.015288489E0,7.072620392E-1,-4.190149158E-2,7.763984054E-2
2.017776258E0,6.976840496E-1,-2.593839169E-2,1.021165550E-1
2.020264258E0,6.817209721E-1,-1.316791028E-2,1.223365217E-1
2.022752498E0,6.657578349E-1,-6.782669108E-3,1.478774846E-1
2.025240498E0,6.444737315E-1,-1.103954110E-2,1.617122144E-1
2.027728498E0,6.263821721E-1,-1.316791028E-2,1.766110659E-1
2.030216267E0,6.104192138E-1,-1.636053063E-2,1.819321960E-1
2.032704267E0,5.880708694E-1,-2.593839169E-2,1.819321960E-1
2.035192479E0,5.646582842E-1,-3.764475510E-2,1.840605587E-1
2.037680479E0,5.444383025E-1,-5.147935450E-2,1.829963028E-1
2.040168248E0,5.263466835E-1,-6.531408429E-2,1.840605587E-1
2.042656248E0,5.135762095E-1,-7.489194721E-2,1.808679402E-1
2.045144479E0,5.008057356E-1,-8.127718419E-2,1.766110659E-1
2.047632239E0,4.890994728E-1,-8.021306992E-2,1.712900847E-1
2.050120239E0,4.869711101E-1,-9.191929549E-2,1.659690887E-1
2.052608239E0,4.827142358E-1,-1.014971584E-1,1.500058621E-1
2.055096470E0,4.827142358E-1,-1.025614142E-1,1.425565034E-1
2.057584470E0,4.859068692E-1,-1.025614142E-1,1.329786330E-1
2.060072460E0,4.944204688E-1,-9.724029154E-2,1.191439033E-1
2.062560460E0,4.976131022E-1,-8.979093283E-2,1.042450517E-1
2.065048460E0,5.071909428E-1,-8.127718419E-2,8.615344763E-2
2.067536229E0,5.157046914E-1,-7.382769138E-2,6.486935914E-2
2.070024460E0,5.188972950E-1,-6.424983591E-2,4.571363702E-2
2.072512460E0,5.188972950E-1,-4.722261429E-2,2.868628502E-2
2.075000460E0,5.242183208E-1,-2.487427369E-2,1.910842396E-2
2.077488460E0,5.306035280E-1,-1.461679931E-3,1.272318419E-2
2.079976460E0,5.348604321E-1,1.769390889E-2,1.165893301E-2
2.082464465E0,5.391114354E-1,3.897493333E-2,1.379915979E-2
2.084952465E0,5.486891866E-1,6.132327765E-2,2.231290191E-2
2.087440234E0,5.593312979E-1,8.899261057E-2,4.040437192E-2
2.089928234E0,5.731660128E-1,1.209188104E-1,6.381696463E-2
2.092416465E0,5.827438831E-1,1.560377628E-1,9.361480176E-2
2.094904479E0,5.944501162E-1,1.858354658E-1,1.319262385E-1
2.097392556E0,6.050923467E-1,2.081838101E-1,1.670450717E-1
2.099880556E0,6.146700382E-1,2.220185399E-1,1.936502755E-1
2.102368479E0,6.210553050E-1,2.411742657E-1,2.245122343E-1
2.104856479E0,6.157343388E-1,2.603299916E-1,2.532458007E-1
2.107344474E0,6.040279269E-1,2.826784551E-1,2.819793820E-1
2.109832474E0,5.774228573E-1,3.028982878E-1,3.075204790E-1
2.112320474E0,5.380471945E-1,3.167330325E-1,3.266760707E-1
2.114808474E0,4.827083945E-1,3.241825104E-1,3.405108154E-1
2.117296474E0,4.156633615E-1,3.199256659E-1,3.490245640E-1
2.119784551E0,3.475540876E-1,3.124761581E-1,3.543455303E-1
2.122272474E0,2.698669434E-1,3.028982878E-1,3.522171676E-1
2.124760474E0,1.900514364E-1,2.890636921E-1,3.500886858E-1
2.127248474E0,1.070431769E-1,2.762930989E-1,3.458319306E-1
2.129736474E0,3.254865855E-2,2.603299916E-1,3.383824527E-1
2.132224503E0,-4.088147357E-2,2.422385067E-1,3.319972157E-1
2.134712503E0,-1.079266295E-1,2.305322886E-1,3.288045824E-1
2.137200580E0,-1.685864180E-1,2.241470367E-1,3.234835863E-1
2.139688580E0,-2.207325995E-1,2.209544182E-1,3.234835863E-1
2.142176503E0,-2.611724138E-1,2.198901772E-1,3.160341084E-1
2.144664570E0,-2.941628695E-1,2.166975588E-1,3.107131124E-1
2.147152570E0,-3.207680583E-1,2.124406844E-1,3.075204790E-1
2.149640493E0,-3.399237990E-1,2.071196884E-1,3.075204790E-1
2.152128493E0,-3.526942730E-1,1.954134554E-1,3.075204790E-1
2.154616570E0,-3.526942730E-1,1.751934886E-1,3.075204790E-1
2.157104555E0,-3.473732769E-1,1.485882699E-1,3.107131124E-1
2.159592555E0,-3.399237990E-1,1.155978218E-1,3.139057457E-1
2.162080478E0,-3.218321800E-1,8.047899604E-2,3.170983493E-1
2.164568555E0,-3.090617061E-1,4.536017403E-2,3.213551044E-1
2.167056555E0,-2.962912321E-1,8.112849668E-3,3.224193454E-1
2.169544497E0,-2.771355212E-1,-2.700584009E-2,3.298688233E-1
2.172032497E0,-2.547871768E-1,-6.212466210E-2,3.319972157E-1
2.174520574E0,-2.398883104E-1,-9.298661351E-2,3.362539411E-1
2.177008574E0,-2.228609622E-1,-1.163992062E-1,3.341255784E-1
2.179496574E0,-2.037052363E-1,-1.312981844E-1,3.468960524E-1
2.181984608E0,-1.856136322E-1,-1.398117989E-1,3.575381637E-1
2.184472608E0,-1.781642735E-1,-1.600317657E-1,3.532812893E-1
2.186960608E0,-1.792283952E-1,-1.791874915E-1,3.458319306E-1
2.189448608E0,-1.717790365E-1,-1.866369843E-1,3.298688233E-1
2.191936608E0,-1.504948139E-1,-1.621601433E-1,3.160341084E-1
2.194424598E0,-1.302749813E-1,-1.206560805E-1,3.053919971E-1
2.196912598E0,-1.164402440E-1,-5.999629200E-2,3.000710011E-1
2.199400598E0,-9.622026980E-2,1.556234155E-2,2.819793820E-1
2.201888598E0,-7.812879980E-2,8.792848885E-2,2.575026751E-1
2.204376598E0,-5.897307768E-2,1.677439958E-1,2.277048528E-1
2.206864617E0,-3.556048498E-2,2.496879995E-1,1.936502755E-1
2.209352617E0,-8.955270983E-3,3.231182694E-1,1.627881974E-1
2.211840617E0,1.658555679E-2,3.986770511E-1,1.276693642E-1
2.214328617E0,5.276863277E-2,4.731715620E-1,1.042567790E-1
2.216816617E0,9.959368408E-2,5.412806869E-1,9.042217582E-2
2.219304853E0,1.549324840E-1,5.902342796E-1,8.616530895E-2
2.221792853E0,2.166565210E-1,6.274815798E-1,8.403693885E-2
2.224280622E0,2.932795286E-1,6.487656832E-1,8.297269046E-2
2.226768622E0,3.656455576E-1,6.466373205E-1,8.084432036E-2
2.229256853E0,4.326905906E-1,6.242889762E-1,8.190843463E-2
2.231744901E0,4.912219942E-1,5.838490129E-1,8.190843463E-2
2.234232670E0,5.369829535E-1,5.317028165E-1,8.084432036E-2
2.236720670E0,5.625239015E-1,4.572084546E-1,8.297269046E-2
2.239208901E0,5.689092875E-1,3.742001951E-1,8.616530895E-2
2.241696670E0,5.603955388E-1,2.858710885E-1,9.148629755E-2
2.244184689E0,5.348545313E-1,1.975418329E-1,1.021284088E-1
2.246672689E0,4.997357428E-1,1.070842147E-1,1.202198789E-1
2.249160920E0,4.550389051E-1,1.875496283E-2,1.372472346E-1
2.251648920E0,4.082138538E-1,-6.106040999E-2,1.564029604E-1
2.254136689E0,3.518109620E-1,-1.376834363E-1,1.744945645E-1
2.256624940E0,2.964721620E-1,-2.057925761E-1,1.893934011E-1
2.259112940E0,2.336838692E-1,-2.579387426E-1,2.010996342E-1
2.261600709E0,1.783450693E-1,-2.888008356E-1,2.074848711E-1
2.264088709E0,1.261989027E-1,-3.005070686E-1,2.085491270E-1
2.266576940E0,8.575908840E-2,-2.856082022E-1,2.064207643E-1
2.269064940E0,5.808962137E-2,-2.526177466E-1,2.010996342E-1
2.271552940E0,3.786964715E-2,-2.036641985E-1,1.947143972E-1
2.274040940E0,3.042029031E-2,-1.419401765E-1,1.830081642E-1
2.276528940E0,3.574128076E-2,-7.702351362E-2,1.723660529E-1
2.279016940E0,4.744751006E-2,-6.785866804E-3,1.595955789E-1
2.281504713E0,6.021812186E-2,6.558014452E-2,1.436324716E-1
2.283992713E0,7.618122548E-2,1.294325590E-1,1.244767532E-1
2.286480944E0,9.427269548E-2,1.879639626E-1,1.063852832E-1
2.288968944E0,1.123641655E-1,2.486237586E-1,8.829367906E-2
2.291456944E0,1.336483955E-1,2.965130508E-1,7.020220906E-2
2.293944949E0,1.528041065E-1,3.305677772E-1,5.636747554E-2
2.296432949E0,1.719598323E-1,3.571729660E-1,4.678961262E-2
2.298920949E0,1.932439208E-1,3.763287067E-1,3.827600554E-2
2.301408949E0,2.123996466E-1,3.890991807E-1,3.401913121E-2
2.303897026E0,2.294269949E-1,3.890991807E-1,3.721175343E-2
2.306384944E0,2.485827208E-1,3.816497028E-1,4.040437192E-2
2.308872944E0,2.656100690E-1,3.571729660E-1,4.253274202E-2
2.311360944E0,2.794448137E-1,3.252467811E-1,4.891798273E-2
2.313849021E0,2.954078913E-1,2.869352102E-1,5.211060122E-2
2.316336944E0,3.092426360E-1,2.454311401E-1,6.168846413E-2
2.318824925E0,3.220131099E-1,1.943492144E-1,7.020220906E-2
2.321312925E0,3.305267394E-1,1.400746703E-1,7.445894182E-2
2.323800925E0,3.369119763E-1,8.047899604E-2,7.765169442E-2
2.326289002E0,3.337193429E-1,2.088333108E-2,8.084432036E-2
2.328776925E0,3.188205063E-1,-3.551945090E-2,8.297269046E-2
2.331265002E0,2.996647656E-1,-8.872987330E-2,8.297269046E-2
2.333752925E0,2.751879394E-1,-1.430044174E-1,7.978006452E-2
2.336240925E0,2.390048653E-1,-1.983432174E-1,6.807370484E-2
2.338729002E0,2.038860321E-1,-2.441041470E-1,5.211060122E-2
2.341217002E0,1.698314697E-1,-2.802872360E-1,3.295488283E-2
2.343705007E0,1.304557621E-1,-3.047639430E-1,1.912028156E-2
2.346193007E0,9.320844710E-2,-3.154060543E-1,8.478170261E-3
2.348681007E0,5.702536926E-2,-3.164701760E-1,-4.292177502E-3
2.351169007E0,2.829178795E-2,-3.111491799E-1,-2.131953090E-2
2.353656930E0,-3.634281922E-3,-2.941218317E-1,-3.196164221E-2
2.356144959E0,-3.449623287E-2,-2.696451247E-1,-4.473212361E-2
2.358632959E0,-5.897307768E-2,-2.313336730E-1,-5.750260502E-2
2.361121036E0,-8.451403677E-2,-1.813158691E-1,-6.708046794E-2
2.363609036E0,-1.068623811E-1,-1.249129474E-1,-6.814458221E-2
2.366097036E0,-1.185686141E-1,-5.893204361E-2,-6.601621211E-2
2.368585017E0,-1.292107254E-1,9.177100845E-3,-5.963097513E-2
2.371073017E0,-1.302749813E-1,7.090114057E-2,-5.324573442E-2
2.373561017E0,-1.292107254E-1,1.230473146E-1,-4.686049372E-2
2.376049017E0,-1.249538511E-1,1.656156331E-1,-3.196164221E-2
2.378537017E0,-1.185686141E-1,1.954134554E-1,-1.812691055E-2
2.381025003E0,-1.100549996E-1,2.166975588E-1,-7.484797854E-3
2.383513003E0,-1.004771441E-1,2.241470367E-1,2.092929557E-3
2.386001234E0,-9.089928120E-2,2.209544182E-1,1.699177921E-2
2.388489003E0,-7.919291407E-2,2.092480659E-1,2.976226062E-2
2.390977003E0,-6.642243266E-2,1.900923401E-1,4.146862403E-2
2.393465012E0,-5.152358487E-2,1.634871215E-1,5.317485332E-2
2.395953012E0,-3.981735557E-2,1.326251775E-1,6.594533473E-2
2.398441012E0,-2.279000357E-2,9.431373328E-2,7.765169442E-2
2.400929012E0,-7.891019806E-3,5.280966684E-2,9.574317187E-2
2.403417012E0,8.071947843E-3,8.112849668E-3,1.127705202E-1
2.405905229E0,2.297079749E-2,-3.658369929E-2,1.287336200E-1
2.408392998E0,3.680552915E-2,-8.340875059E-2,1.446967274E-1
2.410880998E0,4.531913996E-2,-1.323623061E-1,1.606598198E-1
2.413369229E0,4.744751006E-2,-1.770589948E-1,1.787512898E-1
2.415857229E0,5.276863277E-2,-2.100494504E-1,1.925860345E-1
2.418344998E0,5.702536926E-2,-2.334620357E-1,2.032281458E-1
2.420832998E0,5.808962137E-2,-2.536820173E-1,2.106775045E-1
2.423321229E0,6.873173267E-2,-2.600672543E-1,2.170627415E-1
2.425809229E0,8.256646246E-2,-2.547461390E-1,2.181269825E-1
2.428296998E0,9.640106559E-2,-2.441041470E-1,2.191912383E-1
2.430784974E0,1.123641655E-1,-2.249484360E-1,2.202553600E-1
2.433273205E0,1.336483955E-1,-1.940863431E-1,2.159986198E-1
2.435761205E0,1.549324840E-1,-1.504539102E-1,2.085491270E-1
2.438249205E0,1.772808284E-1,-9.617936611E-2,2.010996342E-1
2.440737205E0,2.038860321E-1,-2.806995809E-2,1.893934011E-1
2.443225186E0,2.241060138E-1,3.791068494E-2,1.755586714E-1
2.445713186E0,2.336838692E-1,1.070842147E-1,1.606598198E-1
2.448201186E0,2.464543432E-1,1.762576103E-1,1.436324716E-1
2.450689186E0,2.496469766E-1,2.379816473E-1,1.308619976E-1
2.453177186E0,2.496469766E-1,2.911920547E-1,1.180915087E-1
2.455665166E0,2.570964694E-1,3.401456177E-1,1.106420159E-1
2.458152936E0,2.549679577E-1,3.720718324E-1,1.063852832E-1
2.460641243E0,2.570964694E-1,3.859065473E-1,1.021284088E-1
2.463129166E0,2.656100690E-1,3.880349398E-1,1.031926572E-1
2.465617166E0,2.656100690E-1,3.890991807E-1,1.010641605E-1
2.468105157E0,2.656100690E-1,3.773928285E-1,1.031926572E-1
2.470593157E0,2.666743100E-1,3.507877290E-1,1.106420159E-1
2.473081157E0,2.677384317E-1,3.135403991E-1,1.170272604E-1
2.475569157E0,2.773164213E-1,2.699078321E-1,1.234124973E-1
2.478056927E0,2.858300507E-1,2.305322886E-1,1.361829787E-1
2.480545243E0,2.890226543E-1,1.847713441E-1,1.489536017E-1
2.483033166E0,2.868942916E-1,1.347535402E-1,1.617240757E-1
2.485521166E0,2.847657800E-1,7.728637755E-2,1.766229272E-1
2.488009243E0,2.826374173E-1,1.769071072E-2,1.893934011E-1
2.490497166E0,2.794448137E-1,-3.871206939E-2,2.053565085E-1
2.492985166E0,2.666743100E-1,-9.192249924E-2,2.202553600E-1
2.495473166E0,2.528395951E-1,-1.376834363E-1,2.340900898E-1
2.497961243E0,2.368764877E-1,-1.770589948E-1,2.479248196E-1
2.500449243E0,2.187850177E-1,-2.111136913E-1,2.585669458E-1
2.502937166E0,2.060145438E-1,-2.334620357E-1,2.628236711E-1
2.505425147E0,1.964365393E-1,-2.462325245E-1,2.681447864E-1
2.507913224E0,1.889871806E-1,-2.430399060E-1,2.681447864E-1
2.510401224E0,1.879229397E-1,-2.313336730E-1,2.670805454E-1
2.512889147E0,1.879229397E-1,-1.983432174E-1,2.543100715E-1
2.515377224E0,1.868586838E-1,-1.461970359E-1,2.319617271E-1
2.517865147E0,1.879229397E-1,-8.872987330E-2,2.128060013E-1
2.520353224E0,1.868586838E-1,-2.168471739E-2,1.904576570E-1
2.522841147E0,1.975007951E-1,4.961704835E-2,1.681093127E-1
2.525329224E0,2.113355249E-1,1.219830588E-1,1.436324716E-1
2.527817224E0,2.230417579E-1,1.890282184E-1,1.212841272E-1
2.530305219E0,2.390048653E-1,2.475595027E-1,9.787153453E-2
2.532793450E0,2.560321987E-1,3.007699251E-1,7.978006452E-2
2.535281450E0,2.773164213E-1,3.369530141E-1,6.168846413E-2
2.537769219E0,2.900867760E-1,3.614297211E-1,4.040437192E-2
2.540257219E0,3.007288873E-1,3.784570694E-1,1.167079061E-2
2.542745205E0,3.188205063E-1,3.922918141E-1,-1.174166985E-2
2.545233205E0,3.347836137E-1,4.008054137E-1,-4.047525302E-2
2.547721205E0,3.443614542E-1,4.157042503E-1,-5.963097513E-2
2.550209205E0,3.550034463E-1,4.263463616E-1,-8.197931200E-2
2.552697205E0,3.603245616E-1,4.252821207E-1,-1.032635421E-1
2.555185401E0,3.581960499E-1,4.167685211E-1,-1.224192604E-1
2.557673170E0,3.539393246E-1,3.997412920E-1,-1.437033564E-1
2.560161170E0,3.411688507E-1,3.827139437E-1,-1.596664488E-1
2.562649401E0,3.177562356E-1,3.646223247E-1,-1.703085601E-1
2.565137170E0,2.900867760E-1,3.465308547E-1,-1.809506714E-1
2.567625185E0,2.592248321E-1,3.337603807E-1,-1.884000301E-1
2.570113416E0,2.209133953E-1,3.252467811E-1,-1.894642860E-1
2.572601416E0,1.804734468E-1,3.167330325E-1,-1.830790490E-1
2.575089416E0,1.389693767E-1,3.114120364E-1,-1.735011786E-1
2.577577185E0,1.017221883E-1,3.071551621E-1,-1.607307047E-1
2.580065430E0,6.447485834E-2,3.028982878E-1,-1.500885934E-1
2.582553430E0,2.617128007E-2,2.997100651E-1,-1.415909678E-1
2.585041199E0,-1.107577980E-2,3.082236946E-1,-1.330772340E-1
2.587529200E0,-4.938722402E-2,3.327004015E-1,-1.309488565E-1
2.590017430E0,-8.769866824E-2,3.603698611E-1,-1.330772340E-1
2.592505210E0,-1.228176206E-1,3.944244385E-1,-1.373340935E-1
2.594993440E0,-1.515512019E-1,4.338001311E-1,-1.405267119E-1
2.597481210E0,-1.802847832E-1,4.721115828E-1,-1.415909678E-1
2.599969440E0,-2.068898678E-1,5.093588829E-1,-1.447835863E-1
2.602457440E0,-2.303024530E-1,5.359641314E-1,-1.447835863E-1
2.604945454E0,-2.643571794E-1,5.689545870E-1,-1.426550895E-1
2.607433454E0,-2.973474860E-1,5.742755532E-1,-1.415909678E-1
2.609921531E0,-3.239527047E-1,5.593767166E-1,-1.405267119E-1
2.612409454E0,-3.601357639E-1,5.295788646E-1,-1.447835863E-1
2.614897454E0,-3.846124709E-1,5.093588829E-1,-1.458477080E-1
2.617385449E0,-4.005757272E-1,4.891389310E-1,-1.458477080E-1
2.619873449E0,-4.144103229E-1,4.763684273E-1,-1.447835863E-1
2.622361449E0,-4.282450378E-1,4.710474610E-1,-1.437193453E-1
2.624849449E0,-4.282450378E-1,4.635979533E-1,-1.447835863E-1
2.627337526E0,-4.261166751E-1,4.550843537E-1,-1.447835863E-1
2.629825521E0,-4.261166751E-1,4.572127163E-1,-1.511688381E-1
2.632313444E0,-4.261166751E-1,4.657263160E-1,-1.532972008E-1
2.634801444E0,-4.314376712E-1,4.646622241E-1,-1.532972008E-1
2.637289444E0,-4.410155416E-1,4.710474610E-1,-1.564898193E-1
2.639777444E0,-4.537860155E-1,4.763684273E-1,-1.607466936E-1
2.642265449E0,-4.697491229E-1,4.742400646E-1,-1.639393121E-1
2.644753526E0,-4.825195968E-1,4.753041863E-1,-1.703245491E-1
2.647241526E0,-4.984827042E-1,4.859462976E-1,-1.799024194E-1
2.649729526E0,-5.069964528E-1,4.880746603E-1,-1.820307821E-1
2.652217449E0,-5.048679113E-1,4.870105386E-1,-1.713886708E-1
2.654705521E0,-5.016753078E-1,4.987167716E-1,-1.607466936E-1
2.657193521E0,-4.984827042E-1,5.008451343E-1,-1.532972008E-1
2.659681521E0,-4.857122004E-1,4.955241680E-1,-1.479760706E-1
2.662169521E0,-4.665564895E-1,4.816894233E-1,-1.394624710E-1
2.664657521E0,-4.516576529E-1,4.667905867E-1,-1.320129782E-1
2.667145536E0,-4.452724159E-1,4.614694715E-1,-1.266919822E-1
2.669633536E0,-4.346303046E-1,4.625337124E-1,-1.224351153E-1
2.672121459E0,-4.186671972E-1,4.657263160E-1,-1.224351153E-1
2.674609536E0,-4.027040899E-1,4.763684273E-1,-1.266919822E-1
2.677097536E0,-3.835483789E-1,4.902031720E-1,-1.288203597E-1
2.679585521E0,-3.612000346E-1,5.019093752E-1,-1.298846006E-1
2.682073752E0,-3.409800529E-1,5.242577195E-1,-1.309488565E-1
2.684561521E0,-3.228885829E-1,5.455419421E-1,-1.341414750E-1
2.687049521E0,-3.101181090E-1,5.657619238E-1,-1.447835863E-1
2.689537521E0,-2.941548526E-1,5.859817863E-1,-1.586181968E-1
2.692025502E0,-2.760633826E-1,5.976881385E-1,-1.745812893E-1
2.694513502E0,-2.632929087E-1,5.998165011E-1,-1.969297677E-1
2.697001502E0,-2.473298162E-1,6.019450426E-1,-2.299200892E-1
2.699489502E0,-2.377519459E-1,6.030091047E-1,-2.586536705E-1
2.701977733E0,-2.356235832E-1,5.944954157E-1,-2.895157635E-1
2.704465747E0,-2.366877049E-1,5.838534236E-1,-3.193134665E-1
2.706953516E0,-2.398803234E-1,5.774681568E-1,-3.469829261E-1
2.709441516E0,-2.420088202E-1,5.710829496E-1,-3.714596331E-1
2.711929516E0,-2.569076717E-1,5.604408383E-1,-3.980648518E-1
2.714417516E0,-2.675497830E-1,5.529913306E-1,-4.257343113E-1
2.716905560E0,-2.749991417E-1,5.476703644E-1,-4.523393810E-1
2.719393560E0,-2.845770121E-1,5.380924940E-1,-4.661741257E-1
2.721881790E0,-2.898981273E-1,5.295788646E-1,-4.704310000E-1
2.724369560E0,-2.845770121E-1,5.306429863E-1,-4.736236036E-1
2.726857560E0,-2.749991417E-1,5.402208567E-1,-4.693667293E-1
2.729345781E0,-2.749991417E-1,5.519272089E-1,-4.555320144E-1
2.731833781E0,-2.664855421E-1,5.732114315E-1,-4.480826557E-1
2.734321781E0,-2.569076717E-1,5.902386308E-1,-4.342479110E-1
2.736809781E0,-2.483940572E-1,5.966238976E-1,-4.278626740E-1
2.739297781E0,-2.505224347E-1,6.040734053E-1,-4.236057997E-1
2.741785781E0,-2.462655604E-1,6.147153378E-1,-4.161564410E-1
2.744273551E0,-2.356235832E-1,6.104586124E-1,-4.023217261E-1
2.746761551E0,-2.217888534E-1,6.083301306E-1,-3.821017444E-1
2.749249781E0,-2.068898678E-1,5.944954157E-1,-3.682669997E-1
2.751737781E0,-1.887983978E-1,5.700187087E-1,-3.544324040E-1
2.754225806E0,-1.685784310E-1,5.359641314E-1,-3.427260518E-1
2.756713806E0,-1.409090906E-1,4.965884089E-1,-3.246345818E-1
2.759201806E0,-1.111112610E-1,4.614694715E-1,-3.012219965E-1
2.761689806E0,-7.812080532E-2,4.359284937E-1,-2.767452598E-1
2.764177576E0,-3.874511272E-2,4.210296571E-1,-2.501400709E-1
2.766665897E0,4.887188319E-3,4.146443903E-1,-2.309843451E-1
2.769153820E0,4.107026383E-2,4.178370237E-1,-2.192779779E-1
2.771641820E0,8.257432282E-2,4.391211271E-1,-2.065074891E-1
2.774129820E0,1.198216528E-1,4.753041863E-1,-1.969297677E-1
2.776617897E0,1.560045928E-1,5.178725123E-1,-1.958655119E-1
2.779105801E0,1.868666708E-1,5.604408383E-1,-1.979938895E-1
2.781593801E0,2.028297782E-1,6.051375270E-1,-2.139569819E-1
2.784081801E0,2.049581409E-1,6.604763269E-1,-2.437548190E-1
2.786569878E0,2.017655224E-1,7.136867046E-1,-2.841946185E-1
2.789057878E0,1.953802854E-1,7.445486784E-1,-3.267629445E-1
2.791545791E0,1.889950484E-1,7.583833933E-1,-3.629460335E-1
2.794033791E0,2.177286297E-1,7.381634116E-1,-3.714596331E-1
2.796521868E0,3.028652668E-1,6.477057934E-1,-2.990936041E-1
2.799009791E0,5.135783553E-1,4.082591534E-1,-8.625217527E-2
2.801497791E0,7.615387440E-1,1.475282907E-1,2.000195384E-1
2.803985863E0,9.030781388E-1,4.536443949E-2,3.341097236E-1
2.806473863E0,9.307476282E-1,1.875922456E-2,2.830277979E-1
2.808961863E0,8.935003877E-1,5.068542808E-2,1.787353009E-1
2.811449863E0,8.094280362E-1,1.294368207E-1,9.040619433E-2
2.813937863E0,7.040714025E-1,2.092523277E-1,1.484742295E-2
2.816425878E0,5.997790694E-1,2.688480020E-1,-5.539008975E-2
2.818913802E0,5.114498138E-1,3.071594238E-1,-1.213710010E-1
2.821401878E0,4.390838146E-1,3.263151646E-1,-1.862876564E-1
2.823889878E0,3.837450147E-1,3.401498795E-1,-2.416264564E-1
2.826377878E0,3.326630890E-1,3.624982238E-1,-2.895157635E-1
2.828865882E0,2.890305221E-1,4.071949124E-1,-3.256988227E-1
2.831353882E0,2.475264668E-1,4.667905867E-1,-3.554965258E-1
2.833841882E0,2.017655224E-1,5.306429863E-1,-3.810375035E-1
2.836329882E0,1.506835967E-1,5.987522602E-1,-4.055143297E-1
2.838817882E0,9.960167855E-2,6.817605495E-1,-4.225416780E-1
2.841306104E0,5.064812303E-2,7.551907897E-1,-4.310553074E-1
2.843793874E0,2.758819377E-3,8.115937114E-1,-4.267984331E-1
2.846281874E0,-4.619460180E-2,8.594831228E-1,-4.172205627E-1
2.848770104E0,-8.769866824E-2,8.807672262E-1,-4.044500887E-1
2.851258104E0,-1.217533723E-1,8.722535968E-1,-3.874227405E-1
2.853745893E0,-1.643216908E-1,8.499052525E-1,-3.714596331E-1
2.856233893E0,-2.047615051E-1,8.339420557E-1,-3.544324040E-1
2.858722123E0,-2.452014387E-1,8.243643045E-1,-3.395334184E-1
2.861210123E0,-2.909622490E-1,8.222358227E-1,-3.235703111E-1
2.863698123E0,-3.516221642E-1,8.243643045E-1,-3.118641078E-1
2.866185917E0,-4.154745638E-1,8.243643045E-1,-3.097357154E-1
2.868673917E0,-4.825195968E-1,8.137221932E-1,-3.086714745E-1
2.871162147E0,-5.506289005E-1,7.807317376E-1,-3.118641078E-1
2.873650147E0,-6.123529077E-1,7.456129193E-1,-3.214419484E-1
2.876137917E0,-6.581138372E-1,7.126224637E-1,-3.288914561E-1
2.878626152E0,-6.868474483E-1,6.838889122E-1,-3.352766931E-1
2.881114152E0,-7.060031295E-1,6.657974124E-1,-3.491112888E-1
2.883602152E0,-7.219662666E-1,6.657974124E-1,-3.586891592E-1
2.886090152E0,-7.389935851E-1,6.785678864E-1,-3.565607667E-1
2.888578152E0,-7.485714555E-1,6.924026608E-1,-3.512398005E-1
2.891066137E0,-7.666630745E-1,7.041088939E-1,-3.469829261E-1
2.893554137E0,-7.922040224E-1,7.126224637E-1,-3.395334184E-1
2.896042137E0,-8.188090920E-1,7.136867046E-1,-3.363408148E-1
2.898530137E0,-8.390291929E-1,6.828246117E-1,-3.437902927E-1
2.901018137E0,-8.656343222E-1,6.147153378E-1,-3.597534001E-1
2.903506176E0,-8.911752701E-1,5.285146236E-1,-3.746523857E-1
2.905994253E0,-9.082025886E-1,4.423137307E-1,-3.799733818E-1
2.908482176E0,-9.167162180E-1,3.752686977E-1,-3.735881448E-1
2.910970176E0,-9.284224510E-1,3.327004015E-1,-3.597534001E-1
2.913458176E0,-9.422571659E-1,2.816184759E-1,-3.491112888E-1
2.915946253E0,-9.614130259E-1,2.252154201E-1,-3.491112888E-1
2.918434253E0,-9.858897328E-1,1.634915173E-1,-3.469829261E-1
2.920922253E0,-1.024201155E0,1.219873279E-1,-3.437902927E-1
2.923410253E0,-1.068897843E0,1.049601063E-1,-3.374050558E-1
2.925898253E0,-1.112530351E0,8.899700642E-2,-3.299555779E-1
2.928386190E0,-1.167869210E0,7.729063928E-2,-3.235703111E-1
2.930874190E0,-1.224272251E0,5.600655079E-2,-3.235703111E-1
2.933362267E0,-1.289188862E0,1.663085632E-2,-3.320840597E-1
2.935850267E0,-1.363683343E0,-2.487307414E-2,-3.352766931E-1
2.938338190E0,-1.447755814E0,-4.722141474E-2,-3.256988227E-1
2.940826267E0,-1.530763865E0,-5.679927766E-2,-3.086714745E-1
2.943314267E0,-1.594616413E0,-8.234024048E-2,-2.810020149E-1
2.945802267E0,-1.639312863E0,-1.568347514E-1,-2.490758151E-1
2.948290191E0,-1.646762490E0,-2.930532992E-1,-2.192779779E-1
2.950778191E0,-1.615900397E0,-4.814180434E-1,-1.767097861E-1
2.953266267E0,-1.564818501E0,-6.995804906E-1,-1.224351153E-1
2.955754267E0,-1.494580746E0,-9.379630089E-1,-5.858270824E-2
2.958242267E0,-1.409444213E0,-1.148676038E0,2.229691483E-2
2.960730498E0,-1.310473084E0,-1.311499834E0,9.891980141E-2
2.963218267E0,-1.207244873E0,-1.413663745E0,1.702217013E-1
2.965706257E0,-1.100824237E0,-1.464745641E0,2.234321237E-1
2.968194257E0,-9.901464581E-1,-1.469002485E0,2.574867010E-1
2.970682257E0,-8.911752701E-1,-1.429626703E0,2.777066827E-1
2.973170488E0,-7.964607477E-1,-1.353003740E0,2.862202823E-1
2.975658258E0,-7.113241553E-1,-1.264674664E0,2.883487940E-1
2.978146244E0,-6.315087676E-1,-1.176345348E0,2.926055193E-1
2.980634474E0,-5.612710118E-1,-1.092272997E0,2.957981527E-1
2.983122244E0,-4.952900708E-1,-1.025228024E0,3.011192679E-1
2.985610244E0,-4.399512708E-1,-9.677606821E-1,3.213392496E-1
2.988098244E0,-3.824841082E-1,-9.241282940E-1,3.628433049E-1
2.990586469E0,-3.218243420E-1,-9.039083123E-1,4.075399935E-1
2.993074469E0,-2.590360343E-1,-9.156146646E-1,4.543650448E-1
2.995562239E0,-1.994405091E-1,-9.368987679E-1,5.054469705E-1
2.998050469E0,-1.472943276E-1,-9.539260864E-1,5.480152965E-1
3.000538527E0,-9.089128673E-2,-9.869165421E-1,5.756847262E-1
3.003026450E0,-2.597462945E-2,-1.018842816E0,5.959045887E-1
3.005514450E0,4.213451222E-2,-1.057154179E0,6.033540964E-1
3.008002450E0,1.006659269E-1,-1.085887790E0,5.969688296E-1
3.010490450E0,1.517478526E-1,-1.097594142E0,5.895194411E-1
3.012978464E0,1.921876669E-1,-1.096529841E0,5.714278817E-1
3.015466464E0,2.092150152E-1,-1.078438401E0,5.501437783E-1
3.017954464E0,1.964445412E-1,-1.047576308E0,5.384374261E-1
3.020442541E0,1.560045928E-1,-1.007136583E0,5.373731852E-1
3.022930464E0,9.428055584E-2,-9.709534645E-1,5.267311931E-1
3.025418474E0,3.042815067E-2,-9.475408792E-1,5.022543669E-1
3.027906474E0,-1.958938874E-2,-9.219999313E-1,4.799061418E-1
3.030394474E0,-5.683671311E-2,-8.900735378E-1,4.564935267E-1
3.032882474E0,-8.237767965E-2,-8.485696316E-1,4.362735748E-1
3.035370551E0,-1.068543866E-1,-7.921665907E-1,4.235030711E-1
3.037858561E0,-1.345238537E-1,-7.368277907E-1,4.086042345E-1
3.040346561E0,-1.536795795E-1,-6.900026202E-1,3.830631375E-1
3.042834561E0,-1.653857976E-1,-6.484986544E-1,3.490085602E-1
3.045322561E0,-1.685784310E-1,-6.208292246E-1,3.138897419E-1
3.047810561E0,-1.643216908E-1,-6.006093621E-1,2.798350453E-1
3.050298479E0,-1.451659650E-1,-5.782608986E-1,2.521657050E-1
3.052786556E0,-1.292028576E-1,-5.654904246E-1,2.362026125E-1
3.055274556E0,-1.089828908E-1,-5.420778394E-1,2.447162122E-1
3.057762556E0,-8.557029814E-2,-5.005737543E-1,2.649361789E-1
3.060250556E0,-6.322195381E-2,-4.707760513E-1,2.894128859E-1
3.062738445E0,-4.513034970E-2,-4.622623026E-1,3.192107379E-1
3.065226522E0,-4.300198331E-2,-4.750328064E-1,3.490085602E-1
3.067714522E0,-5.470834672E-2,-5.144084692E-1,3.777421415E-1
3.070202522E0,-7.279981673E-2,-5.644261837E-1,4.075399935E-1
3.072690753E0,-9.727652371E-2,-6.261501908E-1,4.405304492E-1
3.075178517E0,-1.270743608E-1,-6.942594647E-1,4.745849967E-1
3.077666517E0,-1.728352904E-1,-7.378920317E-1,5.097038150E-1
3.080154748E0,-2.196604759E-1,-7.549192905E-1,5.416300297E-1
3.082642517E0,-2.537294328E-1,-7.389640212E-1,5.693284273E-1
3.085130517E0,-2.792704105E-1,-6.836252213E-1,5.884841084E-1
3.087618541E0,-2.803346515E-1,-6.357359290E-1,5.842273831E-1
3.090106772E0,-2.739494145E-1,-5.686908960E-1,5.746495128E-1
3.092594772E0,-2.696925402E-1,-4.963247478E-1,5.703926682E-1
3.095082772E0,-2.590504289E-1,-4.271512330E-1,5.661357641E-1
3.097570541E0,-2.569220662E-1,-3.590420783E-1,5.586863160E-1
3.100058522E0,-2.601146698E-1,-2.941254079E-1,5.491084456E-1
3.102546753E0,-2.547937036E-1,-2.409150004E-1,5.352738500E-1
3.105034753E0,-2.633073032E-1,-2.111171633E-1,5.118612647E-1
3.107522523E0,-2.813988924E-1,-2.121814191E-1,4.895128906E-1
3.110010753E0,-3.111965954E-1,-2.504928410E-1,4.607793093E-1
3.112498739E0,-3.463154435E-1,-3.111526370E-1,4.384309649E-1
3.114986509E0,-3.814342618E-1,-3.718125522E-1,4.160825014E-1
3.117474739E0,-4.261310697E-1,-4.324723482E-1,3.990552723E-1
3.119962739E0,-4.612498879E-1,-4.814259112E-1,3.841562867E-1
3.122450739E0,-5.070108175E-1,-5.144162178E-1,3.660648167E-1
3.124938739E0,-5.410653949E-1,-5.399571657E-1,3.490374684E-1
3.127426739E0,-5.740558505E-1,-5.644340515E-1,3.373312354E-1
3.129914739E0,-6.166240573E-1,-5.910392404E-1,3.192396462E-1
3.132402739E0,-6.591923237E-1,-6.101949811E-1,2.947629392E-1
3.134890739E0,-7.081459165E-1,-6.048738360E-1,2.585798502E-1
3.137378748E0,-7.560353279E-1,-5.974245071E-1,2.213326693E-1
3.139866748E0,-8.060530424E-1,-5.974245071E-1,1.787643582E-1
3.142354748E0,-8.560706973E-1,-6.112592220E-1,1.266181767E-1
3.144842748E0,-9.082170129E-1,-6.101949811E-1,6.808675826E-2
3.147330825E0,-9.571705461E-1,-6.133875847E-1,1.594058610E-2
3.149818835E0,-1.007188320E0,-6.091306806E-1,-3.301283717E-2
3.152306758E0,-1.055077553E0,-5.899749994E-1,-7.132428139E-2
3.154794835E0,-1.099774361E0,-5.623056293E-1,-1.085714698E-1
3.157282835E0,-1.133828998E0,-5.378288031E-1,-1.404978037E-1
3.159770758E0,-1.161498308E0,-5.059025884E-1,-1.628461480E-1
3.162258734E0,-1.190231919E0,-4.643985331E-1,-1.777449995E-1
3.164746811E0,-1.201938272E0,-4.079956412E-1,-1.883871108E-1
3.167234811E0,-1.200873971E0,-3.675556779E-1,-1.894512326E-1
3.169722734E0,-1.192360520E0,-3.324368596E-1,-1.894512326E-1
3.172210734E0,-1.182782650E0,-2.919969261E-1,-1.915797293E-1
3.174698825E0,-1.157241464E0,-2.515571117E-1,-1.841302365E-1
3.177186825E0,-1.123186946E0,-2.121814191E-1,-1.681671441E-1
3.179674825E0,-1.076361775E0,-1.855762005E-1,-1.458187997E-1
3.182162825E0,-1.010380864E0,-1.653562337E-1,-1.128283441E-1
3.184650830E0,-9.358863235E-1,-1.227880418E-1,-6.813166291E-2
3.187138830E0,-8.475570679E-1,-6.106400862E-2,-1.492123306E-2
3.189626830E0,-7.528427243E-1,1.875149831E-2,5.531628057E-2
3.192114830E0,-6.559998393E-1,1.102732345E-1,1.361960322E-1
3.194602830E0,-5.719273686E-1,2.252077013E-1,2.287820280E-1
3.197090825E0,-4.984970987E-1,3.518483937E-1,3.224322498E-1
3.199578825E0,-4.378373027E-1,4.550764859E-1,3.990552723E-1
3.202067056E0,-3.952689767E-1,5.508552194E-1,4.714213014E-1
3.204554825E0,-3.707922697E-1,6.242855191E-1,5.395305753E-1
3.207042825E0,-3.612143993E-1,6.860095263E-1,5.895484090E-1
3.209530811E0,-3.729206324E-1,7.466692924E-1,6.278598309E-1
3.212019042E0,-3.963332474E-1,7.924302816E-1,6.640428901E-1
3.214507042E0,-4.261310697E-1,8.126502037E-1,7.002259493E-1
3.216994811E0,-4.718919992E-1,8.243564367E-1,7.406657934E-1
3.219482811E0,-5.442579985E-1,8.584110141E-1,7.832341194E-1
3.221971027E0,-6.464220285E-1,9.063003063E-1,8.183529377E-1
3.224458796E0,-7.773194313E-1,9.637676477E-1,8.407014012E-1
3.226947027E0,-8.858686686E-1,9.297129512E-1,8.566643596E-1
3.229435027E0,-9.220516086E-1,7.434766889E-1,8.864622116E-1
3.231923027E0,-9.050243497E-1,4.848743379E-1,9.300947785E-1
3.234411056E0,-8.581991792E-1,2.752254903E-1,9.726631045E-1
3.236899056E0,-8.326582313E-1,1.890246272E-1,1.005653501E0
3.239387133E0,-8.433002234E-1,1.975383610E-1,1.028001904E0
3.241875133E0,-8.539423347E-1,2.188224643E-1,1.050350189E0
3.244363056E0,-8.560706973E-1,1.996667385E-1,1.079083800E0
3.246851041E0,-8.592634201E-1,1.709331572E-1,1.107817411E0
3.249339041E0,-8.656486869E-1,1.560341716E-1,1.115266800E0
3.251827041E0,-8.773549199E-1,1.453921944E-1,1.108881593E0
3.254315041E0,-9.060884714E-1,1.453921944E-1,1.097175360E0
3.256803041E0,-9.550420642E-1,1.666762829E-1,1.075891137E0
3.259291118E0,-1.018894553E0,2.156298310E-1,1.048221827E0
3.261779118E0,-1.092324853E0,2.603265345E-1,1.015231371E0
3.264267041E0,-1.173204660E0,2.858674824E-1,9.833050370E-1
3.266755118E0,-1.245570779E0,2.848032415E-1,9.513788819E-1
3.269243041E0,-1.314744234E0,2.645833790E-1,9.226452708E-1
3.271731118E0,-1.376468301E0,2.326571941E-1,8.811411858E-1
3.274219118E0,-1.424357533E0,2.060519755E-1,8.311235309E-1
3.276707118E0,-1.456283808E0,1.794467568E-1,7.608857751E-1
3.279195118E0,-1.472246885E0,1.592267901E-1,6.938406229E-1
3.281683118E0,-1.466925859E0,1.421995759E-1,6.257314682E-1
3.284171109E0,-1.446705937E0,1.251722127E-1,5.533652902E-1
3.286659109E0,-1.405201793E0,1.060164943E-1,4.884486496E-1
3.289147109E0,-1.351991534E0,9.005339444E-2,4.277888536E-1
3.291635109E0,-1.292395830E0,6.983342022E-2,3.607437015E-1
3.294123109E0,-1.224286556E0,5.812719092E-2,2.873134315E-1
3.296611075E0,-1.146599412E0,4.642082751E-2,2.117547989E-1
3.299099075E0,-1.058270335E0,3.045772761E-2,1.287465394E-1
3.301587075E0,-9.582346678E-1,1.449462678E-2,3.403218836E-2
3.304075075E0,-8.443644643E-1,-3.596710740E-3,-6.600329280E-2
3.306563075E0,-7.251732349E-1,-1.211045310E-2,-1.873228550E-1
3.309051060E0,-5.932115912E-1,-1.317457110E-2,-3.203487992E-1
3.311539291E0,-4.474151731E-1,-8.917833678E-3,-4.629525840E-1
3.314027291E0,-3.005544841E-1,1.130200643E-2,-6.140701175E-1
3.316515291E0,-1.494370848E-1,5.067770183E-2,-7.630590200E-1
3.319003060E0,-1.512307790E-3,9.324601293E-2,-8.822503686E-1
3.321491277E0,1.304492354E-1,1.390069574E-1,-9.439743757E-1
3.323979277E0,2.464479506E-1,1.837036312E-1,-9.482311606E-1
3.326467277E0,3.326486945E-1,2.294645756E-1,-8.960849643E-1
3.328955046E0,3.837306201E-1,2.603265345E-1,-7.939211130E-1
3.331443277E0,4.018220901E-1,2.911885977E-1,-6.566383243E-1
3.333931277E0,3.773453832E-1,3.284358084E-1,-5.129702687E-1
3.336419277E0,3.305202127E-1,3.678115010E-1,-3.639813662E-1
3.338907046E0,2.634751797E-1,3.997376859E-1,-2.224416882E-1
3.341395046E0,1.911091655E-1,4.444343746E-1,-9.473687410E-2
3.343883277E0,1.219356284E-1,5.061584115E-1,-9.600243531E-3
3.346371258E0,6.978945434E-2,5.795888305E-1,3.190368786E-2
3.348859258E0,3.254226223E-2,6.657895446E-1,3.403218836E-2
3.351347335E0,1.870753244E-2,7.349630594E-1,1.806895435E-2
3.353835258E0,3.360638022E-2,7.785955071E-1,-5.343372002E-3
3.356323258E0,6.233996525E-2,7.764671445E-1,-4.259069636E-2
3.358811285E0,9.958729148E-2,6.668537855E-1,-8.303050697E-2
3.361299362E0,3.467063233E-2,9.173637256E-3,-1.564609110E-1
3.363787285E0,-7.600682229E-2,-6.655337811E-1,-2.107354552E-1
3.366275285E0,-1.441161036E-1,-9.560623169E-1,-2.384047806E-1
3.368763362E0,-1.781706810E-1,-1.002887487E0,-2.660742402E-1
3.371251362E0,-1.983906478E-1,-9.518054724E-1,-3.097066879E-1
3.373739285E0,-2.196747363E-1,-8.879530430E-1,-3.586602509E-1
3.376227362E0,-2.420232147E-1,-8.730542064E-1,-4.150632918E-1
3.378715285E0,-2.675641775E-1,-9.103013873E-1,-4.693378210E-1
3.381203362E0,-2.909767628E-1,-9.581906796E-1,-5.097776651E-1
3.383691358E0,-3.122608662E-1,-9.645760655E-1,-5.491533279E-1
3.386179281E0,-3.335449398E-1,-9.496771097E-1,-5.895932913E-1
3.388667358E0,-3.548291624E-1,-9.241361022E-1,-6.332258582E-1
3.391155358E0,-3.686639071E-1,-8.858245611E-1,-6.928213835E-1
3.393643358E0,-3.782417774E-1,-8.304858804E-1,-7.513527870E-1
3.396131603E0,-3.824985027E-1,-7.570556402E-1,-8.034989834E-1
3.398619372E0,-3.739849031E-1,-6.783042550E-1,-8.513882756E-1
3.401107372E0,-3.590860367E-1,-5.633697510E-1,-9.003418088E-1
3.403595372E0,-3.207744658E-1,-3.728766739E-1,-9.503596425E-1
3.406083372E0,-2.739494145E-1,-1.132100523E-1,-1.000377297E0
3.408571603E0,-2.122253776E-1,1.911531240E-1,-1.035496116E0
3.411059372E0,-1.749780476E-1,4.018660486E-1,-1.066358089E0
3.413547372E0,-1.707213223E-1,5.104152560E-1,-1.108926415E0
3.416035372E0,-1.824275404E-1,5.455341339E-1,-1.153623104E0
3.418523372E0,-2.058401406E-1,5.306352377E-1,-1.196191430E0
3.421011622E0,-2.377663404E-1,4.657185972E-1,-1.249401689E0
3.423499391E0,-2.750135362E-1,3.497198820E-1,-1.313254237E0
3.425987622E0,-3.133251071E-1,1.890246272E-1,-1.387748718E0
3.428475622E0,-3.580217957E-1,-4.660961684E-3,-1.477142096E0
3.430963622E0,-4.016542137E-1,-2.675202191E-1,-1.571856618E0
3.433451598E0,-4.282594323E-1,-5.942318439E-1,-1.692112088E0
3.435939598E0,-4.474151731E-1,-9.039161801E-1,-1.795340180E0
3.438427598E0,-4.782772362E-1,-1.117821932E0,-1.834715724E0
3.440915598E0,-4.878551066E-1,-1.192316413E0,-1.826202035E0
3.443403598E0,-5.027539730E-1,-1.154004931E0,-1.781505466E0
3.445891603E0,-5.282949209E-1,-1.059290528E0,-1.721909881E0
3.448379603E0,-5.612853765E-1,-9.305213690E-1,-1.646351099E0
3.450867603E0,-6.070463061E-1,-7.176799178E-1,-1.553765059E0
3.453355603E0,-6.517429948E-1,-4.569490552E-1,-1.451601267E0
3.455843603E0,-7.081459165E-1,-1.791909635E-1,-1.351565599E0
3.458331608E0,-7.634848356E-1,7.728291303E-2,-1.253658533E0
3.460819608E0,-8.135024905E-1,2.922527194E-1,-1.157879949E0
3.463307685E0,-8.369150758E-1,4.870027006E-1,-1.084449649E0
3.465795685E0,-8.507496715E-1,6.689822078E-1,-1.019532919E0
3.468283608E0,-8.645844460E-1,8.158428669E-1,-9.312037826E-1
3.470771680E0,-8.560706973E-1,9.520614147E-1,-8.311682940E-1
3.473259680E0,-8.262729645E-1,1.086151361E0,-7.385823131E-1
3.475747603E0,-7.783836722E-1,1.184058428E0,-6.651520729E-1
3.478235603E0,-7.230448723E-1,1.239397407E0,-5.917216539E-1
3.480723680E0,-6.655777097E-1,1.224498510E0,-5.182913542E-1
3.483211699E0,-6.198167801E-1,1.164902687E0,-4.427326024E-1
3.485699699E0,-5.804411173E-1,1.086151361E0,-3.682380915E-1
3.488187622E0,-5.474506617E-1,9.839876294E-1,-2.948078215E-1
3.490675699E0,-5.229737759E-1,8.765026331E-1,-2.181848139E-1
3.493163699E0,-5.059465766E-1,7.817881703E-1,-1.436904222E-1
3.495651718E0,-4.867908657E-1,6.966515183E-1,-7.770951837E-2
3.498139718E0,-4.644425213E-1,6.179002523E-1,-1.492123306E-2
3.500627718E0,-4.484794140E-1,5.625614524E-1,2.232582495E-2
3.503115718E0,-4.186815917E-1,5.370205045E-1,2.658269741E-2
3.505603718E0,-3.835627437E-1,5.402131081E-1,6.362724584E-3
3.508091728E0,-3.431228101E-1,5.668181777E-1,-3.407695517E-2
3.510579728E0,-3.080039918E-1,6.093866229E-1,-8.622313291E-2
3.513067728E0,-2.782061398E-1,6.668537855E-1,-1.415619254E-1
3.515555728E0,-2.452156991E-1,7.328345776E-1,-1.979649663E-1
3.518043959E0,-2.058401406E-1,7.988154888E-1,-2.575605214E-1
3.520531728E0,-1.622075737E-1,8.520258069E-1,-3.139635623E-1
3.523019959E0,-1.132540181E-1,8.871447444E-1,-3.682380915E-1
3.525507728E0,-6.217209250E-2,9.020435810E-1,-4.065495431E-1
3.527995959E0,-5.769179203E-3,8.882089853E-1,-3.916506767E-1
3.530483959E0,3.999162093E-2,8.711816669E-1,-3.065140545E-1
3.532971723E0,8.681681007E-2,8.488333225E-1,-1.873228550E-1
3.535459723E0,1.357703656E-1,8.200997114E-1,-5.855379999E-2
3.537947954E0,1.879165322E-1,7.871091366E-1,6.808675826E-2
3.540435954E0,2.389984578E-1,7.551829219E-1,1.883422136E-1
3.542923954E0,2.911446393E-1,7.115504742E-1,2.851850688E-1
3.545411954E0,3.337128162E-1,6.679179072E-1,3.575512171E-1
3.547899954E0,3.709601462E-1,6.083223820E-1,4.033120275E-1
3.550387954E0,4.092715979E-1,5.295709968E-1,4.214036167E-1
3.552876031E0,4.560967684E-1,4.146365523E-1,4.331098497E-1
3.555364031E0,4.976008236E-1,3.071517050E-1,4.320457280E-1
3.557852031E0,5.156922936E-1,2.369139344E-1,4.118257761E-1
3.560339954E0,5.242060423E-1,1.741257757E-1,3.830921948E-1
3.562827954E0,5.316554308E-1,1.113374829E-1,3.490374684E-1
3.565316031E0,5.401691794E-1,3.258609772E-2,3.139186502E-1
3.567804031E0,5.508111119E-1,-5.893550813E-2,2.862493098E-1
3.570291935E0,5.646458864E-1,-1.504573822E-1,2.681577206E-1
3.572779935E0,5.678384900E-1,-2.238876373E-1,2.521946132E-1
3.575268012E0,5.689027309E-1,-2.856116891E-1,2.404883951E-1
3.577756012E0,5.689027309E-1,-3.430788517E-1,2.372957617E-1
3.580243935E0,5.635817647E-1,-3.824545443E-1,2.362315208E-1
3.582732021E0,5.561333299E-1,-4.175728261E-1,2.394217402E-1
3.585220021E0,5.433628559E-1,-4.409852922E-1,2.468712330E-1
3.587708021E0,5.188861489E-1,-4.420495331E-1,2.532564700E-1
3.590196021E0,4.944094121E-1,-4.494990408E-1,2.479354888E-1
3.592684021E0,4.646115899E-1,-4.473705292E-1,2.341007441E-1
3.595172036E0,4.294927716E-1,-4.399211705E-1,2.117524147E-1
3.597660036E0,3.954380453E-1,-4.346000552E-1,1.840829402E-1
3.600148036E0,3.549982309E-1,-4.228938222E-1,1.521567404E-1
3.602636036E0,3.145582974E-1,-4.090590775E-1,1.244874075E-1
3.605124036E0,2.687974870E-1,-3.899033666E-1,1.010748148E-1
3.607612036E0,2.198439389E-1,-3.643623888E-1,8.617596328E-2
3.610100036E0,1.708903909E-1,-3.313719332E-1,8.085484058E-2
3.612588267E0,1.219368279E-1,-3.015742600E-1,7.659810781E-2
3.615076036E0,8.043276519E-2,-2.802900374E-1,7.659810781E-2
3.617564036E0,4.850656539E-2,-2.653911710E-1,7.766222209E-2
3.620052267E0,2.615808882E-2,-2.526205480E-1,7.979072630E-2
3.622540036E0,1.551611070E-2,-2.462354451E-1,7.979072630E-2
3.625028267E0,1.551611070E-2,-2.419785857E-1,7.979072630E-2
3.627516267E0,2.083710022E-2,-2.281438410E-1,7.979072630E-2
3.630004267E0,3.254333138E-2,-2.079238743E-1,7.766222209E-2
3.632492267E0,4.318544269E-2,-1.866397858E-1,7.659810781E-2
3.634980036E0,5.702017248E-2,-1.621630788E-1,7.127698511E-2
3.637468344E0,6.766228378E-2,-1.366219819E-1,6.808435917E-2
3.639956267E0,7.724014670E-2,-1.110810190E-1,6.169912219E-2
3.642444267E0,8.681800961E-2,-8.447593451E-2,5.744238198E-2
3.644932267E0,9.426736832E-2,-5.680647120E-2,5.212126300E-2
3.647420267E0,9.852423519E-2,-3.765074909E-2,4.360765219E-2
3.649908267E0,9.426736832E-2,-2.381601743E-2,3.509390727E-2
3.652396344E0,9.426736832E-2,-1.104553603E-2,2.551604807E-2
3.654884036E0,9.107474238E-2,4.917432088E-3,2.019505762E-2
3.657372353E0,8.043276519E-2,2.726577409E-2,1.380981784E-2
3.659860276E0,7.298327237E-2,4.748574644E-2,5.296208430E-3
3.662348276E0,6.659803540E-2,6.557721645E-2,-5.345770158E-3
3.664836353E0,6.021279469E-2,8.154031634E-2,-1.385938004E-2
3.667324353E0,5.276330188E-2,9.218242764E-2,-2.024462074E-2
3.669812373E0,4.424969479E-2,9.643930197E-2,-2.343724109E-2
3.672300373E0,4.105707258E-2,9.963192046E-2,-2.982248180E-2
3.674788373E0,4.424969479E-2,9.537505358E-2,-2.769411169E-2
3.677276373E0,4.318544269E-2,8.579719067E-2,-2.450149134E-2
3.679764373E0,4.850656539E-2,7.728344947E-2,-2.237312309E-2
3.682252358E0,5.276330188E-2,6.557721645E-2,-1.811625063E-2
3.684740358E0,5.702017248E-2,5.387098715E-2,-1.492363121E-2
3.687228358E0,6.127704680E-2,4.429312795E-2,-1.279526204E-2
3.689716358E0,6.766228378E-2,3.897200525E-2,-9.602641687E-3
3.692204358E0,7.724014670E-2,3.258676454E-2,-8.538390510E-3
3.694692387E0,8.256113529E-2,2.407315373E-2,-7.474139333E-3
3.697180387E0,8.788212389E-2,1.343104150E-2,-5.345770158E-3
3.699668387E0,9.639586508E-2,5.981550086E-3,-2.478101123E-5
3.702156618E0,1.049094796E-1,-2.531926613E-3,8.488828316E-3
3.704644618E0,1.123589724E-1,-1.530240756E-2,1.487406902E-2
3.707132363E0,1.187442094E-1,-2.594451979E-2,2.125930972E-2
3.709620363E0,1.261935681E-1,-3.977911919E-2,2.658029832E-2
3.712108594E0,1.325789392E-1,-5.680647120E-2,3.083717078E-2
3.714596594E0,1.410925537E-1,-7.383382320E-2,3.935078159E-2
3.717084363E0,1.453492939E-1,-9.086117893E-2,5.105714500E-2
3.719572372E0,1.474777907E-1,-1.068242788E-1,5.424976349E-2
3.722060603E0,1.506704092E-1,-1.291726232E-1,5.850649998E-2
3.724548603E0,1.538630277E-1,-1.440714747E-1,6.382762641E-2
3.727036603E0,1.527987868E-1,-1.621630788E-1,6.914861500E-2
3.729524372E0,1.517346650E-1,-1.813187897E-1,7.234123349E-2
3.732012584E0,1.517346650E-1,-2.047312558E-1,7.340548187E-2
3.734500584E0,1.527987868E-1,-2.260154784E-1,7.979072630E-2
3.736988584E0,1.485420465E-1,-2.504921854E-1,7.979072630E-2
3.739476661E0,1.464135349E-1,-2.717764080E-1,7.872647792E-2
3.741964661E0,1.432209164E-1,-2.898678780E-1,8.085484058E-2
3.744452579E0,1.432209164E-1,-3.090236187E-1,7.553385198E-2
3.746940579E0,1.421566755E-1,-3.303078413E-1,7.659810781E-2
3.749428656E0,1.357714236E-1,-3.430783153E-1,7.340548187E-2
3.751916656E0,1.347073168E-1,-3.547845483E-1,7.127698511E-2
3.754404579E0,1.368356794E-1,-3.664907813E-1,7.234123349E-2
3.756892550E0,1.378999352E-1,-3.718118966E-1,7.234123349E-2
3.759380627E0,1.378999352E-1,-3.803254962E-1,6.702024490E-2
3.761868627E0,1.389641762E-1,-3.845823705E-1,6.489174068E-2
3.764356627E0,1.410925537E-1,-3.877750039E-1,6.382762641E-2
3.766844627E0,1.464135349E-1,-3.867107332E-1,6.063500419E-2
3.769332647E0,1.400282979E-1,-3.909676075E-1,6.169912219E-2
3.771820647E0,1.421566755E-1,-3.867107332E-1,5.637813359E-2
3.774308570E0,1.453492939E-1,-3.845823705E-1,5.318551138E-2
3.776796878E0,1.453492939E-1,-3.824538589E-1,4.786452278E-2
3.779284647E0,1.485420465E-1,-3.803254962E-1,4.892864078E-2
3.781772632E0,1.527987868E-1,-3.760686219E-1,4.467190430E-2
3.784260632E0,1.506704092E-1,-3.707476556E-1,4.254340008E-2
3.786748863E0,1.506704092E-1,-3.718118966E-1,4.041502997E-2
3.789236632E0,1.485420465E-1,-3.675550222E-1,4.041502997E-2
3.791724632E0,1.506704092E-1,-3.601055443E-1,3.935078159E-2
3.794212627E0,1.485420465E-1,-3.558487892E-1,4.041502997E-2
3.796700858E0,1.421566755E-1,-3.515919149E-1,3.935078159E-2
3.799188858E0,1.432209164E-1,-3.483993113E-1,4.360765219E-2
3.801676627E0,1.442851722E-1,-3.430783153E-1,3.935078159E-2
3.804164627E0,1.421566755E-1,-3.388214409E-1,4.147914797E-2
3.806652858E0,1.432209164E-1,-3.377572000E-1,4.147914797E-2
3.809140858E0,1.389641762E-1,-3.324362040E-1,4.360765219E-2
3.811628627E0,1.421566755E-1,-3.260509670E-1,4.254340008E-2
3.814116858E0,1.410925537E-1,-3.249866962E-1,4.254340008E-2
3.816604858E0,1.389641762E-1,-3.207299709E-1,4.467190430E-2
3.819092853E0,1.378999352E-1,-3.175373375E-1,4.786452278E-2
3.821580930E0,1.389641762E-1,-3.111521006E-1,4.892864078E-2
3.824068853E0,1.336430609E-1,-3.047667444E-1,4.680027068E-2
3.826556853E0,1.304504424E-1,-3.005099893E-1,4.786452278E-2
3.829044853E0,1.283220649E-1,-2.973173857E-1,4.360765219E-2
3.831532849E0,1.283220649E-1,-2.909321487E-1,4.680027068E-2
3.834020926E0,1.208725795E-1,-2.845468819E-1,4.360765219E-2
3.836508926E0,1.144873425E-1,-2.781616449E-1,4.147914797E-2
3.838996849E0,1.091663465E-1,-2.728405297E-1,4.041502997E-2
3.841484849E0,1.070378497E-1,-2.664552927E-1,3.722241148E-2
3.843972844E0,9.958849102E-2,-2.600700557E-1,3.615815938E-2
3.846460921E0,9.213899821E-2,-2.536848187E-1,3.509390727E-2
3.848948844E0,8.256113529E-2,-2.472995669E-1,2.977291867E-2
3.851436921E0,8.149688691E-2,-2.377217114E-1,2.977291867E-2
3.853924921E0,7.830426842E-2,-2.292080969E-1,2.764455043E-2
3.856412911E0,7.298327237E-2,-2.217586040E-1,2.977291867E-2
3.858901142E0,7.191902399E-2,-2.164376229E-1,2.977291867E-2
3.861389142E0,6.872640550E-2,-2.026028782E-1,2.870866843E-2
3.863876911E0,6.872640550E-2,-1.940892786E-1,2.870866843E-2
3.866364911E0,6.340541691E-2,-1.855755299E-1,3.402978927E-2
3.868852916E0,6.553378701E-2,-1.738692969E-1,3.935078159E-2
3.871340916E0,6.446966529E-2,-1.653556973E-1,3.935078159E-2
3.873828916E0,6.021279469E-2,-1.600345671E-1,4.041502997E-2
3.876316916E0,6.021279469E-2,-1.536493301E-1,4.147914797E-2
3.878804916E0,6.340541691E-2,-1.493925899E-1,4.467190430E-2
3.881292916E0,6.446966529E-2,-1.451357156E-1,4.786452278E-2
3.883780916E0,6.446966529E-2,-1.461999714E-1,4.999289289E-2
3.886268916E0,6.553378701E-2,-1.451357156E-1,5.212126300E-2
3.888756916E0,6.659803540E-2,-1.483283341E-1,5.424976349E-2
3.891245147E0,6.446966529E-2,-1.504567116E-1,5.424976349E-2
3.893733123E0,5.702017248E-2,-1.557778269E-1,5.637813359E-2
3.896221123E0,5.914854258E-2,-1.632271856E-1,5.424976349E-2
3.898709123E0,6.127704680E-2,-1.674840599E-1,5.531388149E-2
3.901197123E0,5.702017248E-2,-1.759976745E-1,5.424976349E-2
3.903685123E0,5.382755399E-2,-1.802545488E-1,4.999289289E-2
3.906173152E0,5.382755399E-2,-1.877040416E-1,5.212126300E-2
3.908661152E0,5.382755399E-2,-1.951534003E-1,4.786452278E-2
3.911149152E0,4.531380907E-2,-1.940892786E-1,4.573602229E-2
3.913637152E0,4.105707258E-2,-1.962176412E-1,4.254340008E-2
3.916125229E0,3.573594987E-2,-1.972818971E-1,3.722241148E-2
3.918613142E0,2.722234093E-2,-1.972818971E-1,3.083717078E-2
3.921101142E0,2.190135047E-2,-2.004745156E-1,2.232342772E-2
3.923589142E0,2.745629521E-3,-2.068597525E-1,1.168144867E-2
3.926077142E0,-1.640995964E-2,-2.164376229E-1,3.167706076E-3
3.928565219E0,-2.279520035E-2,-2.196302414E-1,-2.153150039E-3
3.931053224E0,-2.598781884E-2,-2.206944823E-1,-3.217401216E-3
3.933541147E0,-2.492370270E-2,-2.089881301E-1,2.103588078E-3
3.936029224E0,-1.853846200E-2,-1.972818971E-1,1.039336901E-3
3.938517147E0,-1.108896919E-2,-1.866397858E-1,3.167706076E-3
3.941005224E0,-6.832098123E-3,-1.749335527E-1,5.296208430E-3
3.943493219E0,-2.575360006E-3,-1.621630788E-1,2.103588078E-3
3.945981219E0,7.002367638E-3,-1.493925899E-1,-2.153150039E-3
3.948469219E0,8.066618815E-3,-1.398147345E-1,-3.217401216E-3
3.950957142E0,8.066618815E-3,-1.281083673E-1,-4.281519447E-3
3.953445219E0,8.066618815E-3,-1.238515005E-1,-6.410021335E-3
3.955933248E0,1.232349034E-2,-1.164021417E-1,-7.474139333E-3
3.958421248E0,1.338760834E-2,-1.089526489E-1,-7.474139333E-3
3.960909248E0,1.445185952E-2,-1.036316603E-1,-7.474139333E-3
3.963397248E0,1.870873012E-2,-9.618216753E-2,-5.345770158E-3
3.965885248E0,1.870873012E-2,-9.298954159E-2,-7.474139333E-3
3.968373508E0,1.977284811E-2,-8.979692310E-2,-5.345770158E-3
3.970861277E0,2.615808882E-2,-8.341168612E-2,-6.410021335E-3
3.973349508E0,2.722234093E-2,-7.809069753E-2,-3.217401216E-3
3.975837277E0,2.935070917E-2,-7.170531899E-2,-2.478101123E-5
3.978325277E0,3.360757977E-2,-6.532008201E-2,-2.478101123E-5
3.980813498E0,4.212119058E-2,-5.787072331E-2,3.167706076E-3
3.983301498E0,4.850656539E-2,-5.042123049E-2,2.103588078E-3
3.985789498E0,5.276330188E-2,-4.829286039E-2,6.360326428E-3
3.988277498E0,5.808442459E-2,-4.403598979E-2,5.296208430E-3
3.990765498E0,6.340541691E-2,-4.084337130E-2,8.488828316E-3
3.993253508E0,7.085490972E-2,-3.552237898E-2,9.552946314E-3
3.995741508E0,7.404752821E-2,-3.232976049E-2,9.552946314E-3
3.998229508E0,7.724014670E-2,-2.913714014E-2,1.380981784E-2
4.000717508E0,8.575375378E-2,-2.700863779E-2,2.019505762E-2
4.003205508E0,9.320324659E-2,-2.488026768E-2,2.125930972E-2
4.005693498E0,9.958849102E-2,-2.275189944E-2,1.913080737E-2
4.008181498E0,1.038452238E-1,-2.381601743E-2,1.913080737E-2
4.010669498E0,1.091663465E-1,-2.594451979E-2,2.019505762E-2
4.013157498E0,1.027811095E-1,-3.339387849E-2,2.232342772E-2
4.015645498E0,1.038452238E-1,-4.403598979E-2,2.445193008E-2
4.018133556E0,1.059737280E-1,-5.042123049E-2,2.870866843E-2
4.020621556E0,1.006526053E-1,-6.319171190E-2,3.083717078E-2
4.023109556E0,9.958849102E-2,-7.489794493E-2,3.296554089E-2
4.025597479E0,9.639586508E-2,-8.873267472E-2,3.722241148E-2
4.028085556E0,9.107474238E-2,-1.036316603E-1,4.041502997E-2
4.030573546E0,8.788212389E-2,-1.121452674E-1,4.467190430E-2
4.033061546E0,8.575375378E-2,-1.249157488E-1,4.467190430E-2
4.035549546E0,8.149688691E-2,-1.323652416E-1,4.573602229E-2
4.038037546E0,7.298327237E-2,-1.408788562E-1,4.892864078E-2
4.040525546E0,6.766228378E-2,-1.461999714E-1,4.892864078E-2
4.043013575E0,6.021279469E-2,-1.525852084E-1,4.999289289E-2
4.045501498E0,6.021279469E-2,-1.579062045E-1,4.999289289E-2
4.047989805E0,5.914854258E-2,-1.632271856E-1,5.318551138E-2
4.050477575E0,5.382755399E-2,-1.664198041E-1,5.105714500E-2
4.052965575E0,4.850656539E-2,-1.706766784E-1,5.105714500E-2
4.055453824E0,4.424969479E-2,-1.770619303E-1,5.318551138E-2
4.057941594E0,4.637806118E-2,-1.791902930E-1,5.212126300E-2
4.060429824E0,4.957068339E-2,-1.866397858E-1,5.531388149E-2
4.062917824E0,5.276330188E-2,-1.951534003E-1,5.424976349E-2
4.065405824E0,5.276330188E-2,-2.036671340E-1,5.744238198E-2
4.067893833E0,6.021279469E-2,-2.111166269E-1,5.424976349E-2
4.070381603E0,6.766228378E-2,-2.164376229E-1,5.105714500E-2
4.072869603E0,6.979065388E-2,-2.217586040E-1,4.999289289E-2
4.075357834E0,7.617589831E-2,-2.313364744E-1,4.254340008E-2
4.077845834E0,8.468950540E-2,-2.366575897E-1,3.935078159E-2
4.080333830E0,9.107474238E-2,-2.409143299E-1,2.977291867E-2
4.082821830E0,1.027787104E-1,-2.451725304E-1,1.913560368E-2
4.085309830E0,1.059713289E-1,-2.451725304E-1,9.557742625E-3
4.087797830E0,1.123565733E-1,-2.451725304E-1,-1.084235846E-3
4.090285830E0,1.166134402E-1,-2.398514152E-1,-1.385471690E-2
4.092773901E0,1.229986846E-1,-2.334661633E-1,-2.236832678E-2
4.095261825E0,1.219344288E-1,-2.302735448E-1,-2.768944949E-2
4.097749825E0,1.272555590E-1,-2.249525636E-1,-3.194618598E-2
4.100237901E0,1.251270473E-1,-2.100535780E-1,-3.620306030E-2
4.102725902E0,1.176776960E-1,-1.983473450E-1,-3.407469019E-2
4.105213882E0,1.134208217E-1,-1.919621080E-1,-3.407469019E-2
4.107701805E0,1.059713289E-1,-1.813199967E-1,-3.726730868E-2
4.110189805E0,9.320084751E-2,-1.696137637E-1,-3.726730868E-2
4.112677882E0,8.149462193E-2,-1.600359082E-1,-4.045993090E-2
4.115165882E0,7.085251063E-2,-1.536506563E-1,-4.471666738E-2
4.117653878E0,5.488940701E-2,-1.451369226E-1,-4.790928960E-2
4.120141801E0,4.637579620E-2,-1.398159266E-1,-4.897354171E-2
4.122629878E0,3.254106641E-2,-1.387516856E-1,-5.110190809E-2
4.125117878E0,2.083470114E-2,-1.366233081E-1,-5.429453030E-2
4.127605878E0,1.019272301E-2,-1.334306896E-1,-5.110190809E-2
4.130094103E0,-4.492557491E-4,-1.334306896E-1,-5.323041230E-2
4.132581873E0,-7.898746990E-3,-1.387516856E-1,-5.216616020E-2
4.135069873E0,-1.428398769E-2,-1.398159266E-1,-4.684517160E-2
4.137558103E0,-2.066922933E-2,-1.398159266E-1,-4.684517160E-2
4.140046103E0,-2.173334733E-2,-1.440728009E-1,-4.471666738E-2
4.142534098E0,-2.173334733E-2,-1.483295411E-1,-3.726730868E-2
4.145021868E0,-2.173334733E-2,-1.557790339E-1,-3.620306030E-2
4.147510098E0,-1.960497722E-2,-1.600359082E-1,-2.875356749E-2
4.149998098E0,-1.641235687E-2,-1.653568894E-1,-1.917570643E-2
4.152486098E0,-1.428398769E-2,-1.738706380E-1,-9.597845376E-3
4.154974088E0,-1.215548534E-2,-1.813199967E-1,-3.212604905E-3
4.157462088E0,-4.706127103E-3,-1.855768710E-1,3.172502387E-3
4.159950088E0,-8.962864988E-3,-1.951547265E-1,1.381461415E-2
4.162438088E0,-6.834496278E-3,-2.047325820E-1,1.594298333E-2
4.164926088E0,-6.834496278E-3,-2.111178339E-1,1.700723544E-2
4.167414151E0,-7.898746990E-3,-2.196314335E-1,2.126397192E-2
4.169902074E0,-3.641875926E-3,-2.249525636E-1,2.658509463E-2
4.172390074E0,-4.492557491E-4,-2.334661633E-1,2.552084439E-2
4.174878151E0,3.807482542E-3,-2.324019223E-1,2.658509463E-2
4.177366151E0,-5.770245101E-3,-2.217599452E-1,2.232822403E-2
4.179854093E0,-1.534810569E-2,-2.164388150E-1,2.019985393E-2
4.182342093E0,-1.002711616E-2,-2.185673118E-1,2.126397192E-2
4.184830170E0,-2.577624749E-3,-2.238883078E-1,2.764921263E-2
4.187318170E0,1.678980072E-3,-2.260166705E-1,3.190608323E-2
4.189806170E0,7.000102662E-3,-2.281451821E-1,4.041969404E-2
4.192294136E0,1.125684101E-2,-2.260166705E-1,4.680493474E-2
4.194782136E0,1.764208078E-2,-2.196314335E-1,5.106180534E-2
4.197270136E0,1.764208078E-2,-2.143104523E-1,5.106180534E-2
4.199758136E0,1.444946136E-2,-2.057968378E-1,5.212605745E-2
4.202246060E0,1.551371254E-2,-1.940904707E-1,5.106180534E-2
4.204734382E0,1.125684101E-2,-1.802557409E-1,4.999755695E-2
4.207222151E0,9.128471836E-3,-1.674854010E-1,5.212605745E-2
4.209710151E0,8.064220659E-3,-1.568432897E-1,4.999755695E-2
4.212198382E0,2.743231365E-3,-1.462011635E-1,5.212605745E-2
4.214686382E0,-4.492557491E-4,-1.344949454E-1,5.531867966E-2
4.217174387E0,6.148621906E-4,-1.195959598E-1,5.531867966E-2
4.219662156E0,-3.641875926E-3,-1.089539751E-1,5.319017544E-2
4.222150387E0,-5.770245101E-3,-9.831186384E-2,5.531867966E-2
4.224638387E0,-7.898746990E-3,-8.447713405E-2,5.531867966E-2
4.227126156E0,-1.109136734E-2,-7.596352696E-2,5.638279393E-2
4.229614401E0,-7.898746990E-3,-6.851403415E-2,6.383229047E-2
4.232102401E0,-1.109136734E-2,-6.212879345E-2,6.383229047E-2
4.234590401E0,-1.428398769E-2,-5.680780485E-2,6.383229047E-2
4.237078401E0,-1.641235687E-2,-5.680780485E-2,6.170391664E-2
4.239566171E0,-1.747660898E-2,-6.000042334E-2,6.063966826E-2
4.242054363E0,-1.641235687E-2,-5.787192285E-2,5.957541615E-2
4.244542363E0,-1.854072697E-2,-5.574355274E-2,5.957541615E-2
4.247030363E0,-2.386184968E-2,-4.935831204E-2,5.638279393E-2
4.249518440E0,-2.918283828E-2,-4.403732345E-2,5.319017544E-2
4.252006440E0,-3.024708852E-2,-3.871620074E-2,5.319017544E-2
4.254494372E0,-3.343971074E-2,-3.233096004E-2,5.319017544E-2
4.256982372E0,-3.556807712E-2,-2.913833968E-2,5.106180534E-2
4.259470449E0,-3.876069933E-2,-2.488160133E-2,4.467656463E-2
4.261958449E0,-4.514594004E-2,-1.956047863E-2,4.041969404E-2
4.264446372E0,-4.408182204E-2,-1.849636063E-2,3.616295755E-2
4.266934425E0,-4.514594004E-2,-1.530360710E-2,2.977771498E-2
4.269422425E0,-5.365968123E-2,-1.317523792E-2,2.339247428E-2
4.271910425E0,-5.365968123E-2,-1.530360710E-2,1.807135344E-2
4.274398348E0,-5.472379923E-2,-1.530360710E-2,9.557742625E-3
4.276886348E0,-5.791642144E-2,-1.530360710E-2,1.044000033E-3
4.279374430E0,-6.004492193E-2,-1.317523792E-2,-6.405225024E-3
4.281862430E0,-6.217329204E-2,-1.530360710E-2,-1.172634773E-2
4.284350430E0,-6.217329204E-2,-9.982617572E-3,-1.598308608E-2
4.286838661E0,-6.323754042E-2,-8.918366395E-3,-2.236832678E-2
4.289326430E0,-6.430166215E-2,-7.854248397E-3,-2.768944949E-2
4.291814435E0,-6.110903993E-2,-4.661628045E-3,-2.981781773E-2
4.294302435E0,-5.472379923E-2,-4.661628045E-3,-2.768944949E-2
4.296790666E0,-5.046706274E-2,2.787730424E-3,-2.768944949E-2
4.299278666E0,-5.153118074E-2,2.513607219E-2,-3.194618598E-2
4.301766435E0,-4.727444053E-2,4.109917209E-2,-3.726730868E-2
4.304254439E0,-4.833855852E-2,5.706227571E-2,-4.258830100E-2
4.306742670E0,-4.301756993E-2,6.770438701E-2,-4.258830100E-2
4.309230670E0,-4.301756993E-2,7.728224993E-2,-4.365254939E-2
4.311718439E0,-3.982495144E-2,8.579585701E-2,-5.003779009E-2
4.314206439E0,-4.088919982E-2,9.963058680E-2,-4.684517160E-2
4.316694675E0,-3.982495144E-2,1.134653240E-1,-4.790928960E-2
4.319182675E0,-4.088919982E-2,1.272999197E-1,-4.897354171E-2
4.321670675E0,-4.408182204E-2,1.390062869E-1,-4.471666738E-2
4.324158752E0,-5.046706274E-2,1.560336351E-1,-4.365254939E-2
4.326646675E0,-5.578805134E-2,1.730608493E-1,-4.365254939E-2
4.329134694E0,-6.004492193E-2,1.837029606E-1,-4.365254939E-2
4.331622771E0,-6.643016636E-2,1.954091936E-1,-4.471666738E-2
4.334110771E0,-7.281540334E-2,2.060513049E-1,-4.471666738E-2
4.336598771E0,-7.920064777E-2,2.166934162E-1,-4.365254939E-2
4.339086694E0,-8.452163637E-2,2.273355275E-1,-4.152404889E-2
4.341574719E0,-8.345738053E-2,2.337207794E-1,-3.939567879E-2
4.344062796E0,-8.345738053E-2,2.369133979E-1,-3.194618598E-2
4.346550796E0,-8.132901043E-2,2.432986349E-1,-2.768944949E-2
4.349038719E0,-7.600802183E-2,2.454269975E-1,-2.662519738E-2
4.351526719E0,-7.175115496E-2,2.539406121E-1,-2.236832678E-2
4.354014801E0,-6.749428064E-2,2.592617273E-1,-2.023995668E-2
4.356502801E0,-6.749428064E-2,2.613901198E-1,-2.236832678E-2
4.358990801E0,-6.855852902E-2,2.677753568E-1,-2.343257703E-2
4.361478801E0,-7.068689913E-2,2.730963230E-1,-2.130420879E-2
4.363966801E0,-6.855852902E-2,2.709679604E-1,-2.449682914E-2
4.366454801E0,-7.068689913E-2,2.720322311E-1,-2.023995668E-2
4.368943032E0,-7.281540334E-2,2.720322311E-1,-1.811158843E-2
4.371431032E0,-7.494377345E-2,2.709679604E-1,-1.491896808E-2
4.373918801E0,-7.387952507E-2,2.677753568E-1,-1.066209655E-2
4.376406801E0,-7.175115496E-2,2.613901198E-1,-9.597845376E-3
4.378895037E0,-6.749428064E-2,2.571332455E-1,-6.405225024E-3
4.381383037E0,-6.536591053E-2,2.528764904E-1,-5.341107491E-3
4.383871037E0,-5.898067355E-2,2.454269975E-1,-4.276856314E-3
4.386358806E0,-5.898067355E-2,2.326565236E-1,-1.084235846E-3
4.388846806E0,-5.472379923E-2,2.273355275E-1,-1.998468724E-5
4.391335046E0,-4.621019214E-2,2.166934162E-1,-1.998468724E-5
4.393823046E0,-3.769658133E-2,2.028586864E-1,2.108251210E-3
4.396310815E0,-3.237545863E-2,1.868955940E-1,3.172502387E-3
4.398799123E0,-2.386184968E-2,1.762534827E-1,8.493491448E-3
4.401287046E0,-1.428398769E-2,1.581620127E-1,1.381461415E-2
4.403775022E0,-7.898746990E-3,1.475198865E-1,1.807135344E-2
4.406263099E0,-1.513506868E-3,1.347494125E-1,2.126397192E-2
4.408751099E0,1.125684101E-2,1.230431795E-1,2.232822403E-2
4.411239022E0,1.657796279E-2,1.166579425E-1,2.232822403E-2
4.413727022E0,2.296320349E-2,1.081442013E-1,2.232822403E-2
4.416215099E0,2.189895324E-2,1.038874611E-1,2.019985393E-2
4.418703099E0,1.977058314E-2,9.750222415E-2,1.487873215E-2
4.421191022E0,1.977058314E-2,9.111697972E-2,2.108251210E-3
4.423679022E0,1.444946136E-2,8.792436123E-2,-7.469476201E-3
4.426167099E0,1.338534337E-2,8.366748691E-2,-9.597845376E-3
4.428655094E0,1.444946136E-2,8.047486842E-2,-5.341107491E-3
4.431143094E0,1.657796279E-2,7.834649831E-2,-2.148486907E-3
4.433631094E0,1.657796279E-2,7.089700550E-2,-2.148486907E-3
4.436119017E0,1.870633289E-2,6.664013863E-2,2.108251210E-3
4.438607094E0,2.189895324E-2,6.451176852E-2,4.236620385E-3
4.441095109E0,2.402732149E-2,6.983275712E-2,8.493491448E-3
4.443583109E0,2.934844419E-2,7.515387982E-2,4.236620385E-3
4.446071340E0,3.466943279E-2,8.047486842E-2,-1.998468724E-5
4.448559109E0,4.105467349E-2,8.473174274E-2,-3.212604905E-3
4.451047109E0,4.637579620E-2,8.366748691E-2,-7.469476201E-3
4.453535311E0,5.063253641E-2,7.515387982E-2,-8.533727378E-3
4.456023080E0,5.808202550E-2,6.557601690E-2,-1.066209655E-2
4.458511311E0,6.340301782E-2,5.599802360E-2,-9.597845376E-3
4.460999080E0,6.021039560E-2,5.174128711E-2,-1.066209655E-2
4.463487311E0,6.021039560E-2,4.642016441E-2,-1.172634773E-2
4.465975306E0,6.553152204E-2,4.109917209E-2,-1.066209655E-2
4.468463306E0,6.446726620E-2,3.364968300E-2,-1.279046573E-2
4.470951306E0,6.127464771E-2,2.513607219E-2,-1.279046573E-2
4.473439306E0,6.553152204E-2,1.449396089E-2,-1.598308608E-2
4.475927306E0,6.978825480E-2,1.723479363E-3,-1.172634773E-2
4.478415301E0,7.191675901E-2,-7.854248397E-3,-7.469476201E-3
4.480903301E0,7.936611772E-2,-1.104686875E-2,-1.998468724E-5
4.483391378E0,8.575135469E-2,-2.488160133E-2,-2.148486907E-3
4.485879301E0,9.745772183E-2,-3.552357852E-2,-1.998468724E-5
4.488367301E0,1.049070805E-1,-4.084470123E-2,3.172502387E-3
4.490855378E0,1.102282032E-1,-4.190881923E-2,5.300871562E-3
4.493343378E0,1.187418103E-1,-4.829405993E-2,5.300871562E-3
4.495831301E0,1.208703145E-1,-4.935831204E-2,2.108251210E-3
4.498319301E0,1.229986846E-1,-4.935831204E-2,2.108251210E-3
4.500807378E0,1.229986846E-1,-5.148668215E-2,-1.998468724E-5
4.503295364E0,1.176776960E-1,-5.467930064E-2,-2.148486907E-3
4.505783287E0,1.134208217E-1,-5.467930064E-2,-1.998468724E-5
4.508271364E0,1.155491918E-1,-4.935831204E-2,-4.276856314E-3
4.510759364E0,1.123565733E-1,-4.616568983E-2,-1.998468724E-5
4.513247364E0,1.112923175E-1,-4.616568983E-2,1.044000033E-3
4.515735268E0,1.049070805E-1,-4.616568983E-2,-1.998468724E-5
4.518223268E0,1.049070805E-1,-4.403732345E-2,-1.084235846E-3
4.520711576E0,9.958609194E-2,-4.084470123E-2,-1.998468724E-5
4.523199345E0,9.426510334E-2,-4.403732345E-2,3.172502387E-3
4.525687345E0,8.894398063E-2,-4.510144144E-2,-2.148486907E-3
4.528175590E0,8.362299204E-2,-4.616568983E-2,-1.998468724E-5
4.530663590E0,7.936611772E-2,-4.722994193E-2,1.044000033E-3
4.533151590E0,7.617349923E-2,-4.935831204E-2,2.108251210E-3
4.535639359E0,6.872414052E-2,-5.148668215E-2,1.044000033E-3
4.538127590E0,6.872414052E-2,-5.574355274E-2,1.044000033E-3
4.540615600E0,6.233889982E-2,-5.787192285E-2,5.300871562E-3
4.543103369E0,6.340301782E-2,-6.000042334E-2,9.557742625E-3
4.545591600E0,6.446726620E-2,-6.106454134E-2,9.557742625E-3
4.548079600E0,6.233889982E-2,-6.319304556E-2,8.493491448E-3
4.550567600E0,6.127464771E-2,-6.638566405E-2,1.594298333E-2
4.553055600E0,6.233889982E-2,-7.170665264E-2,2.019985393E-2
4.555543369E0,6.340301782E-2,-7.489927113E-2,2.019985393E-2
4.558031600E0,6.340301782E-2,-7.809189707E-2,2.232822403E-2
4.560519600E0,6.446726620E-2,-8.128451556E-2,2.445659228E-2
4.563007677E0,6.340301782E-2,-9.086237848E-2,2.658509463E-2
4.565495662E0,6.233889982E-2,-9.831186384E-2,2.552084439E-2
4.567983662E0,5.808202550E-2,-1.036328599E-1,2.658509463E-2
4.570471585E0,5.595365912E-2,-1.132107154E-1,3.084183298E-2
4.572959585E0,5.488940701E-2,-1.227885783E-1,3.084183298E-2
4.575447662E0,5.276103690E-2,-1.302380711E-1,3.084183298E-2
4.577935648E0,5.382515490E-2,-1.355590522E-1,3.297033533E-2
4.580423648E0,4.637579620E-2,-1.430085450E-1,3.297033533E-2
4.582911648E0,4.850243405E-2,-1.472663581E-1,3.403805196E-2
4.585399648E0,5.063080415E-2,-1.515230983E-1,3.403805196E-2
4.587887648E0,4.637393355E-2,-1.525873393E-1,3.403805196E-2
4.590375571E0,4.424556345E-2,-1.515230983E-1,3.616642207E-2
4.592863648E0,4.211719334E-2,-1.483305991E-1,3.403805196E-2
4.595351648E0,3.253933415E-2,-1.462021023E-1,3.190968186E-2
4.597839648E0,2.934671193E-2,-1.472663581E-1,3.084543161E-2
4.600327648E0,3.253933415E-2,-1.515230983E-1,3.084543161E-2
4.602815884E0,3.253933415E-2,-1.568442136E-1,2.978117950E-2
4.605303884E0,3.466770053E-2,-1.589725912E-1,3.084543161E-2
4.607791884E0,3.253933415E-2,-1.611010879E-1,2.552430891E-2
4.610279653E0,2.934671193E-2,-1.579084694E-1,2.765281126E-2
4.612767884E0,2.828246169E-2,-1.557799578E-1,2.978117950E-2
4.615255874E0,2.721820958E-2,-1.536515951E-1,2.552430891E-2
4.617743874E0,2.402558923E-2,-1.504589766E-1,2.339593880E-2
4.620231874E0,2.508984134E-2,-1.515230983E-1,2.446019091E-2
4.622719874E0,2.615409158E-2,-1.493947208E-1,2.658855915E-2
4.625207874E0,2.189722098E-2,-1.483305991E-1,2.658855915E-2
4.627695883E0,2.508984134E-2,-1.493947208E-1,2.339593880E-2
4.630183883E0,2.508984134E-2,-1.515230983E-1,2.765281126E-2
4.632671883E0,2.615409158E-2,-1.493947208E-1,3.084543161E-2
4.635159883E0,2.402558923E-2,-1.440737396E-1,3.190968186E-2
4.637647883E0,2.508984134E-2,-1.398168653E-1,3.616642207E-2
4.640135960E0,2.402558923E-2,-1.398168653E-1,3.510230407E-2
4.642623960E0,2.508984134E-2,-1.387526095E-1,3.829492256E-2
4.645111883E0,3.041082993E-2,-1.366242468E-1,4.255165905E-2
4.647599960E0,2.615409158E-2,-1.366242468E-1,4.680853337E-2
4.650087960E0,3.253933415E-2,-1.313032508E-1,5.106540397E-2
4.652575898E0,2.934671193E-2,-1.206611395E-1,5.000115186E-2
4.655063975E0,2.934671193E-2,-1.121475324E-1,4.468016326E-2
4.657551975E0,2.934671193E-2,-1.057622880E-1,4.787278175E-2
4.660039975E0,3.041082993E-2,-9.512017667E-2,4.468016326E-2
4.662527975E0,2.721820958E-2,-8.341395110E-2,3.829492256E-2
4.665015960E0,1.976885088E-2,-7.277183980E-2,3.616642207E-2
4.667503960E0,1.338361111E-2,-6.106560677E-2,2.978117950E-2
4.669991960E0,8.062488399E-3,-5.148761347E-2,3.084543161E-2
4.672479960E0,3.805617103E-3,-4.084563628E-2,3.190968186E-2
4.674967960E0,3.805617103E-3,-2.807515301E-2,2.765281126E-2
4.677456181E0,-3.643607954E-3,-1.530467253E-2,2.552430891E-2
4.679944181E0,-3.643607954E-3,-4.662560765E-3,2.446019091E-2
4.682432181E0,-5.772110540E-3,8.107786998E-3,2.552430891E-2
4.684920182E0,-5.772110540E-3,2.087826841E-2,2.126757056E-2
4.687408182E0,-3.643607954E-3,3.045612946E-2,1.488232985E-2
4.689896182E0,-8.964730427E-3,4.322661087E-2,1.381807867E-2
4.692384182E0,-1.109309960E-2,5.386872217E-2,9.561207145E-3
4.694872182E0,-1.002884842E-2,6.663919985E-2,7.432837971E-3
4.697360182E0,-1.109309960E-2,7.940968126E-2,8.497089148E-3
4.699848182E0,-1.002884842E-2,8.685917407E-2,6.368586794E-3
4.702336201E0,-1.428571995E-2,9.856540710E-2,2.111848444E-3
4.704824201E0,-1.428571995E-2,1.081432700E-1,-2.144889673E-3
4.707312201E0,-1.215735078E-2,1.166570112E-1,-4.273259081E-3
4.709800201E0,-1.534997113E-2,1.230422482E-1,-7.465878967E-3
4.712288201E0,-1.534997113E-2,1.304916143E-1,-1.172275096E-2
4.714776301E0,-1.641408913E-2,1.358127296E-1,-1.385112014E-2
4.717264225E0,-1.960670948E-2,1.432620883E-1,-1.810799167E-2
4.719752225E0,-1.854259148E-2,1.475189626E-1,-2.023635991E-2
4.722240302E0,-1.322146878E-2,1.528399438E-1,-2.130061202E-2
4.724728302E0,-1.534997113E-2,1.539041996E-1,-2.023635991E-2
4.727216283E0,-1.960670948E-2,1.613536924E-1,-2.449323237E-2
4.729704283E0,-1.747833937E-2,1.645463109E-1,-2.662160061E-2
4.732192283E0,-1.322146878E-2,1.656104326E-1,-3.087847307E-2
4.734680283E0,-1.322146878E-2,1.688030511E-1,-3.194272518E-2
4.737168283E0,-1.322146878E-2,1.709315479E-1,-3.300683945E-2
4.739656243E0,-7.900479250E-3,1.751882881E-1,-3.832796216E-2
4.742144243E0,-2.579490189E-3,1.783810407E-1,-3.832796216E-2
4.744632243E0,-3.643607954E-3,1.783810407E-1,-4.152058437E-2
4.747120243E0,6.129969261E-4,1.815736592E-1,-4.258470237E-2
4.749608243E0,-4.509877472E-4,1.815736592E-1,-4.258470237E-2
4.752096464E0,1.677248161E-3,1.805094182E-1,-4.896994308E-2
4.754584464E0,4.869868513E-3,1.847662926E-1,-5.003419518E-2
4.757072234E0,4.869868513E-3,1.815736592E-1,-5.003419518E-2
4.759560464E0,6.998370867E-3,1.815736592E-1,-5.003419518E-2
4.762048464E0,9.126739576E-3,1.815736592E-1,-4.577732086E-2
4.764536459E0,1.125510875E-2,1.762525439E-1,-4.684157297E-2
4.767024459E0,1.125510875E-2,1.762525439E-1,-4.790582508E-2
4.769512459E0,1.976885088E-2,1.762525439E-1,-4.364895448E-2
4.772000459E0,2.508984134E-2,1.741241813E-1,-4.152058437E-2
4.774488459E0,2.402558923E-2,1.698673069E-1,-4.045633227E-2
4.776976468E0,2.189722098E-2,1.688030511E-1,-3.513534367E-2
4.779464468E0,2.721820958E-2,1.645463109E-1,-2.768585272E-2
4.781952468E0,3.253933415E-2,1.613536924E-1,-2.768585272E-2
4.784440468E0,3.147508204E-2,1.581610739E-1,-2.236486226E-2
4.786928468E0,3.573195264E-2,1.539041996E-1,-1.704373956E-2
4.789416545E0,4.211719334E-2,1.485832185E-1,-1.597962156E-2
4.791904468E0,3.998869285E-2,1.485832185E-1,-1.278700214E-2
4.794392468E0,4.637393355E-2,1.432620883E-1,-1.065849978E-2
4.796880545E0,4.743818194E-2,1.390053481E-1,-5.337510258E-3
4.799368545E0,4.530981556E-2,1.368768513E-1,-1.652067476E-5
4.801856550E0,4.850243405E-2,1.326201111E-1,1.047597267E-3
4.804344550E0,5.169505626E-2,1.294274926E-1,3.175966442E-3
4.806832550E0,5.488767475E-2,1.219779998E-1,7.432837971E-3
4.809320550E0,5.701604486E-2,1.198496297E-1,7.432837971E-3
4.811808550E0,4.956655204E-2,1.177211255E-1,1.062545832E-2
4.814296574E0,5.275917426E-2,1.124001369E-1,1.275382750E-2
4.816784574E0,5.275917426E-2,1.060148999E-1,1.488232985E-2
4.819272574E0,5.595179275E-2,1.017580256E-1,1.488232985E-2
4.821760574E0,5.595179275E-2,9.962965548E-2,1.913906820E-2
4.824248574E0,5.808029324E-2,9.430853277E-2,2.233168855E-2
4.826736776E0,5.808029324E-2,8.898754418E-2,2.658855915E-2
4.829224776E0,5.808029324E-2,8.366655558E-2,2.658855915E-2
4.831712545E0,5.808029324E-2,8.047393709E-2,2.871706150E-2
4.834200776E0,5.808029324E-2,7.834543288E-2,3.297379985E-2
4.836688776E0,5.914441124E-2,7.196019590E-2,3.616642207E-2
4.839176738E0,6.446553767E-2,6.876756996E-2,3.829492256E-2
4.841664738E0,6.233703345E-2,6.238233298E-2,4.255165905E-2
4.844152738E0,6.233703345E-2,5.706134066E-2,4.468016326E-2
4.846640738E0,6.872227043E-2,5.067610368E-2,4.574428126E-2
4.849128738E0,7.085077465E-2,4.748348147E-2,5.000115186E-2
4.851616718E0,6.978652626E-2,4.429086298E-2,5.319377407E-2
4.854104718E0,7.191489637E-2,4.322661087E-2,5.425802246E-2
4.856592718E0,7.404339314E-2,3.790562227E-2,5.638639256E-2
4.859080718E0,7.723601907E-2,3.471300006E-2,6.064326316E-2
4.861568718E0,7.723601907E-2,3.684137017E-2,5.957901478E-2
4.864056810E0,7.723601907E-2,3.364874795E-2,6.064326316E-2
4.866544733E0,7.936438918E-2,3.364874795E-2,6.170738116E-2
4.869032810E0,8.255700767E-2,3.790562227E-2,6.277163327E-2
4.871520810E0,8.042863756E-2,3.577725217E-2,6.064326316E-2
4.874008810E0,8.149275184E-2,3.471300006E-2,6.277163327E-2
4.876496824E0,8.149275184E-2,3.790562227E-2,6.170738116E-2
4.878984824E0,8.042863756E-2,3.896987066E-2,5.638639256E-2
4.881472824E0,8.042863756E-2,4.003398865E-2,5.851476267E-2
4.883960824E0,7.936438918E-2,4.429086298E-2,5.638639256E-2
4.886448824E0,7.723601907E-2,4.641922936E-2,5.106540397E-2
4.888936824E0,7.617176324E-2,4.854773358E-2,5.532214046E-2
4.891424824E0,7.936438918E-2,4.961185157E-2,5.106540397E-2
4.893913055E0,7.617176324E-2,5.280447006E-2,4.893689975E-2
4.896400824E0,7.297914475E-2,5.386872217E-2,4.680853337E-2
4.898888824E0,7.191489637E-2,5.918971077E-2,4.148754105E-2
4.901377055E0,6.552965194E-2,6.131821498E-2,4.148754105E-2
4.903865055E0,6.340128183E-2,6.344658136E-2,3.935904056E-2
4.906352824E0,6.446553767E-2,6.557495147E-2,3.935904056E-2
4.908841055E0,6.127291545E-2,6.876756996E-2,3.616642207E-2
4.911329055E0,5.488767475E-2,7.089607418E-2,3.190968186E-2
4.913817041E0,4.956655204E-2,7.408869267E-2,3.084543161E-2
4.916305118E0,4.637393355E-2,7.940968126E-2,3.297379985E-2
4.918793041E0,4.105294123E-2,7.834543288E-2,3.297379985E-2
4.921281041E0,3.892457485E-2,8.153805137E-2,2.978117950E-2
4.923769041E0,3.466770053E-2,8.579492569E-2,2.658855915E-2
4.926257050E0,3.147508204E-2,8.898754418E-2,2.765281126E-2
4.928745050E0,2.615409158E-2,9.218016267E-2,2.552430891E-2
4.931233127E0,1.976885088E-2,9.643703699E-2,2.765281126E-2
4.933721050E0,1.976885088E-2,1.017580256E-1,2.658855915E-2
4.936209050E0,1.551198028E-2,1.070791483E-1,2.339593880E-2
4.938697147E0,9.126739576E-3,1.081432700E-1,2.233168855E-2
4.941185070E0,5.934119690E-3,1.145285070E-1,2.020331845E-2
4.943673147E0,-2.579490189E-3,1.241063699E-1,1.807495020E-2
4.946161147E0,-6.836228073E-3,1.315558553E-1,1.594644785E-2
4.948649147E0,-1.002884842E-2,1.411337256E-1,1.381807867E-2
4.951137133E0,-1.428571995E-2,1.453905851E-1,1.168970950E-2
4.953625133E0,-1.960670948E-2,1.528399438E-1,7.432837971E-3
4.956113364E0,-1.854259148E-2,1.634820551E-1,6.368586794E-3
4.958601133E0,-2.599195018E-2,1.709315479E-1,4.240217619E-3
4.961089133E0,-3.450569138E-2,1.773167998E-1,1.047597267E-3
4.963577378E0,-3.556980938E-2,1.847662926E-1,-3.209140850E-3
4.966065378E0,-3.556980938E-2,1.975367665E-1,-5.337510258E-3
4.968553147E0,-3.663406149E-2,2.071146220E-1,-1.065849978E-2
4.971041147E0,-4.408355430E-2,2.124356180E-1,-1.278700214E-2
4.973529378E0,-4.834029078E-2,2.220134735E-1,-1.172275096E-2
4.976017354E0,-4.834029078E-2,2.326555848E-1,-1.597962156E-2
4.978505354E0,-5.366141349E-2,2.422334552E-1,-2.023635991E-2
4.980993123E0,-5.685403571E-2,2.486186922E-1,-2.236486226E-2
4.983481354E0,-6.323927641E-2,2.550039291E-1,-2.662160061E-2
4.985969354E0,-6.536764652E-2,2.667101622E-1,-2.662160061E-2
4.988457373E0,-6.856026500E-2,2.720312774E-1,-2.768585272E-2
4.990945450E0,-6.962451339E-2,2.794806361E-1,-2.875010297E-2
4.993433450E0,-7.388138771E-2,2.869301438E-1,-3.194272518E-2
4.995921373E0,-7.494550198E-2,2.954437435E-1,-3.087847307E-2
4.998409373E0,-8.026662469E-2,3.060858548E-1,-3.300683945E-2
5.000897364E0,-8.239499480E-2,3.145996034E-1,-3.407109156E-2
5.003385441E0,-8.771598339E-2,3.231132030E-1,-3.513534367E-2
5.005873364E0,-9.090860933E-2,3.305625618E-1,-4.258470237E-2
5.008361364E0,-9.622973204E-2,3.390763104E-1,-4.684157297E-2
5.010849441E0,-1.015507206E-1,3.497184217E-1,-4.896994308E-2
5.013337426E0,-1.026149690E-1,3.582320213E-1,-5.109844357E-2
5.015825426E0,-1.090002134E-1,3.624888957E-1,-5.429106578E-2
5.018313426E0,-1.132569462E-1,3.699382544E-1,-5.641943589E-2
5.020801426E0,-1.185780689E-1,3.773877621E-1,-5.429106578E-2
5.023289426E0,-1.217706949E-1,3.859013617E-1,-5.641943589E-2
5.025777465E0,-1.270916760E-1,3.901582360E-1,-6.174055859E-2
5.028265696E0,-1.302842945E-1,3.944151103E-1,-6.386892498E-2
5.030753696E0,-1.356052905E-1,3.976077139E-1,-6.174055859E-2
5.033241465E0,-1.377337873E-1,4.018644691E-1,-6.280467659E-2
5.035729465E0,-1.441190392E-1,4.061213434E-1,-6.706154346E-2
5.038217729E0,-1.441190392E-1,4.103782177E-1,-6.386892498E-2
5.040705729E0,-1.441190392E-1,4.050570726E-1,-5.961205438E-2
5.043193498E0,-1.473116577E-1,4.061213434E-1,-6.386892498E-2
