"Time (s)","Acceleration x (m/s^2)","Acceleration y (m/s^2)","Acceleration z (m/s^2)"
1.339820000E-1,1.285725594E0,6.562707424E0,7.458166122E0
1.359820000E-1,1.285725594E0,6.562707424E0,7.458166122E0
1.379820000E-1,1.285725594E0,6.562707424E0,7.458166122E0
1.399820000E-1,1.285725594E0,6.562707424E0,7.458166122E0
1.419820000E-1,1.357553840E0,4.300117493E0,6.091034889E0
1.439820000E-1,7.302538157E-1,4.158855438E0,6.749460697E0
1.459820000E-1,3.806896806E-1,4.046324253E0,7.067899227E0
1.479820000E-1,-1.867534369E-1,3.905062199E0,7.678439140E0
1.499817500E-1,-4.309694767E-1,3.878725290E0,8.135746002E0
1.519815270E-1,-4.046324492E-1,3.945764780E0,8.317710876E0
1.539813270E-1,-2.873129845E-1,4.144489765E0,8.554743767E0
1.559811450E-1,-1.316851079E-1,4.441379547E0,8.696005821E0
1.579809780E-1,-1.388679445E-1,4.517996788E0,8.719948769E0
1.599808240E-1,-1.532335877E-1,4.668835640E0,8.705583572E0
1.619806810E-1,-1.005595401E-1,4.898686409E0,8.710371971E0
1.639796810E-1,-4.309694469E-2,4.994457245E0,8.717555046E0
1.659794310E-1,1.675992459E-2,5.078257084E0,8.638543129E0
1.679791950E-1,7.182824612E-2,5.114171028E0,8.473338127E0
1.699789720E-1,7.422251999E-2,5.116565228E0,8.379961967E0
1.719787610E-1,-2.633702382E-2,5.032765865E0,8.138139725E0
1.739785610E-1,-9.098244458E-2,5.047131062E0,7.939415455E0
1.759783700E-1,-2.106961906E-1,5.018400192E0,7.759844780E0
1.779781880E-1,-3.232271075E-1,4.934600353E0,7.642525196E0
1.799780140E-1,-4.812492430E-1,4.836435318E0,7.398309231E0
1.819777640E-1,-5.243461728E-1,4.853195190E0,7.319298267E0
1.839775240E-1,-6.344828010E-1,4.860377789E0,7.151699066E0
1.859772930E-1,-7.063110471E-1,4.843617916E0,6.981705189E0
1.879770700E-1,-7.134938836E-1,4.855589390E0,6.907482624E0
1.899768550E-1,-6.991282701E-1,4.922628880E0,6.763826370E0
1.919766480E-1,-6.057515144E-1,4.994457245E0,6.691998005E0
1.939772140E-1,-5.458946824E-1,5.027976990E0,6.677632332E0
1.959769470E-1,-4.142095447E-1,5.111776829E0,6.696786404E0
1.979766800E-1,-2.729473412E-1,5.123748302E0,6.799740314E0
1.999764130E-1,-2.059076279E-1,5.135719299E0,6.890722752E0
2.019761460E-1,-7.901106775E-2,5.152479172E0,7.156487465E0
2.039758790E-1,3.112557158E-2,5.138113976E0,7.465348721E0
2.059756120E-1,7.661679387E-2,5.130930901E0,7.620976925E0
2.079753450E-1,1.556278616E-1,5.095016956E0,7.898712635E0
2.099751450E-1,2.585816681E-1,5.063891411E0,8.128562927E0
2.119748780E-1,3.112557232E-1,5.049525738E0,8.233911514E0
2.139746110E-1,4.094209969E-1,5.016005516E0,8.411087036E0
2.159743440E-1,5.075862408E-1,5.006428719E0,8.497281075E0
2.179744440E-1,5.506832004E-1,4.994457245E0,8.530800819E0
2.199741770E-1,1.106154919E0,5.145296574E0,8.583475113E0
2.219739100E-1,1.568249941E0,5.576265812E0,8.609811783E0
2.239740760E-1,2.487651587E0,5.870761871E0,8.667274475E0
2.259738760E-1,3.019180536E0,6.323279858E0,9.495694160E0
2.279736090E-1,3.110162973E0,6.342433929E0,9.838075638E0
2.299733420E-1,3.033546209E0,6.184412003E0,9.972154617E0
2.319730750E-1,2.664827824E0,5.741470814E0,9.749486923E0
2.339728080E-1,2.461314440E0,5.537957668E0,9.574705124E0
2.359725410E-1,2.047105074E0,5.130930901E0,9.062330246E0
2.379722740E-1,2.020767927E0,5.056708336E0,8.930644989E0
2.399720070E-1,2.020767927E0,5.004034519E0,8.801354408E0
2.419718070E-1,2.099778891E0,4.944177628E0,8.518829346E0
2.439715400E-1,2.281744003E0,4.960937500E0,8.164477348E0
2.459712730E-1,2.382303476E0,4.977697372E0,7.992089272E0
2.479710060E-1,2.583422422E0,5.051919937E0,7.671256542E0
2.499707390E-1,2.822849989E0,5.135719299E0,7.405491829E0
2.519705390E-1,2.937775135E0,5.185999393E0,7.314509392E0
2.539695050E-1,3.155654192E0,5.269798756E0,7.204372883E0
2.559693050E-1,3.332830429E0,5.329655647E0,7.211555958E0
2.579691050E-1,3.395081758E0,5.348809719E0,7.254652500E0
2.599688380E-1,3.469304085E0,5.391906738E0,7.386337757E0
2.619685710E-1,3.517189741E0,5.430215359E0,7.518023014E0
2.639683040E-1,3.517189741E0,5.454157829E0,7.575485706E0
2.659680370E-1,3.141288519E0,5.413455486E0,7.735901833E0
2.679677700E-1,2.528354168E0,5.284164429E0,7.977723598E0
2.699675030E-1,2.324840784E0,5.195576191E0,8.133351326E0
2.719673030E-1,1.956122518E0,5.008822918E0,8.509252548E0
2.739670360E-1,1.505998850E0,4.790944099E0,9.024022102E0
2.759667690E-1,1.247417212E0,4.553910732E0,9.498087883E0
2.779663020E-1,1.175588965E0,4.455745220E0,9.672870636E0
2.799660350E-1,1.094183564E0,4.300117493E0,9.854835510E0
2.819657680E-1,1.058269501E0,4.230683804E0,9.873989105E0
2.839655010E-1,9.433442950E-1,4.139701366E0,9.790189743E0
2.859652340E-1,7.637736797E-1,4.115758419E0,9.610619545E0
2.879650340E-1,6.847625971E-1,4.132518291E0,9.493299484E0
2.899648000E-1,5.363175869E-1,4.197163582E0,9.249083519E0
2.919645660E-1,4.453351200E-1,4.252232075E0,9.047964096E0
2.939643320E-1,4.142095447E-1,4.261809349E0,8.959376335E0
2.959640980E-1,3.471698463E-1,4.278569221E0,8.842057228E0
2.979638640E-1,2.944957912E-1,4.268991947E0,8.806142807E0
2.999636300E-1,2.585816681E-1,4.245049000E0,8.820508003E0
3.019633960E-1,1.963305324E-1,4.168432236E0,8.911490440E0
3.039632290E-1,6.703969836E-2,4.055901527E0,9.071907043E0
3.059629950E-1,2.394274808E-2,4.010410309E0,9.158101082E0
3.079627610E-1,-2.154847234E-2,3.909850836E0,9.340065956E0
3.099625270E-1,-3.591412306E-2,3.828445435E0,9.517242432E0
3.119622270E-1,-2.154847234E-2,3.792531252E0,9.593858719E0
3.139619930E-1,-2.873129770E-2,3.727885962E0,9.723150253E0
3.159617590E-1,-6.225114316E-2,3.675211906E0,9.847652435E0
3.179615250E-1,-3.830839694E-2,3.675211906E0,9.893143654E0
3.199613580E-1,-7.182824425E-3,3.737462997E0,9.972154617E0
3.219611240E-1,1.915419847E-2,3.859570980E0,1.001285744E1
3.239608900E-1,8.379961550E-2,3.919427872E0,1.007510853E1
3.259606900E-1,8.858817071E-2,4.058295727E0,1.010383987E1
3.279604560E-1,9.337671846E-2,4.127729893E0,1.008947372E1
3.299602220E-1,1.436564922E-1,4.264203548E0,9.998491287E0
3.319599880E-1,2.106961906E-1,4.417437077E0,9.804554939E0
3.339598210E-1,2.466102988E-1,4.510813713E0,9.680052757E0
3.359596540E-1,3.040728867E-1,4.817280769E0,9.284997940E0
3.379592540E-1,3.543526828E-1,4.879531860E0,9.220352173E0
3.399590200E-1,4.022381604E-1,4.941783428E0,9.124581337E0
3.419587860E-1,4.716721475E-1,5.068679810E0,8.856422424E0
3.439585520E-1,5.315290093E-1,5.200365067E0,8.595446587E0
3.459583180E-1,5.123748183E-1,5.241067410E0,8.468549728E0
3.479580840E-1,3.208328187E-1,5.322473049E0,8.312922478E0
3.499578840E-1,-2.130904645E-1,5.389512539E0,8.415876389E0
3.519576840E-1,-6.296942830E-1,5.449369431E0,8.573898315E0
3.539574170E-1,-1.352765322E0,5.528380394E0,9.074301720E0
3.559562830E-1,-1.371919513E0,5.391906738E0,9.617801666E0
3.579560160E-1,-1.228263021E0,5.267404556E0,9.845257759E0
3.599557490E-1,-9.385557175E-1,5.013611317E0,1.017327404E1
3.619554820E-1,-6.512427330E-1,4.786155224E0,1.028341007E1
3.639552150E-1,-4.860377908E-1,4.690384388E0,1.026425648E1
3.659550150E-1,-1.604164094E-1,4.570670605E0,1.011341667E1
3.679547480E-1,1.532335877E-1,4.606584549E0,9.814132690E0
3.699544810E-1,3.232271075E-1,4.680807114E0,9.620196342E0
3.719542140E-1,6.464542150E-1,4.960937500E0,9.189227104E0
3.739539470E-1,1.058269501E0,5.276981831E0,8.803748131E0
3.759536800E-1,1.534730196E0,5.604997158E0,8.475732803E0
3.779534130E-1,1.769369125E0,5.748653889E0,8.341653824E0
3.799531460E-1,2.197944164E0,6.004841328E0,8.128562927E0
3.819529460E-1,2.367937803E0,6.103006363E0,8.061523438E0
3.839526790E-1,2.657644987E0,6.261028767E0,8.025609016E0
3.859523790E-1,2.846792698E0,6.385530949E0,8.099831581E0
3.879521120E-1,2.921015263E0,6.409473896E0,8.166871071E0
3.899518450E-1,2.983266354E0,6.421444893E0,8.327287674E0
3.919515780E-1,2.988054991E0,6.387925148E0,8.482915878E0
3.939513110E-1,2.978477955E0,6.352011204E0,8.552350044E0
3.959510440E-1,2.901860952E0,6.205960274E0,8.648120880E0
3.979504440E-1,2.844398499E0,6.148497581E0,8.652909279E0
3.999501770E-1,2.786935806E0,6.079063892E0,8.633754730E0
4.019499100E-1,2.624125242E0,5.913858891E0,8.545166969E0
4.039496430E-1,2.413429022E0,5.748653889E0,8.435029984E0
4.059493760E-1,2.300898075E0,5.679219723E0,8.382355690E0
4.079491090E-1,2.075836182E0,5.525986195E0,8.293767929E0
4.099488420E-1,1.951334000E0,5.351204395E0,8.219545364E0
4.119485750E-1,1.699935079E0,5.265010357E0,8.178842545E0
4.139483750E-1,1.482056141E0,5.083045483E0,8.104619980E0
4.159489750E-1,1.280937076E0,4.920234680E0,8.016032219E0
4.179487080E-1,1.218685865E0,4.843617916E0,7.987300873E0
4.199484410E-1,1.166011810E0,4.714327335E0,7.937020779E0
4.219481740E-1,1.156434774E0,4.673624516E0,7.929838181E0
4.239479070E-1,1.163617611E0,4.632921696E0,7.948992252E0
4.259476400E-1,1.113337755E0,4.647287369E0,8.059128761E0
4.279474400E-1,9.385557175E-1,4.711932659E0,8.181237221E0
4.299472400E-1,7.925049663E-1,4.913052082E0,8.571503639E0
4.319469730E-1,1.836408734E0,4.932206154E0,9.040781975E0
4.339467060E-1,2.494834423E0,4.925023079E0,9.179649353E0
4.359464390E-1,3.861965179E0,5.229096413E0,9.182044029E0
4.379461720E-1,4.137306690E0,5.446975231E0,9.098244667E0
4.399459050E-1,4.388705730E0,5.698374271E0,8.992896080E0
4.419456380E-1,4.857983589E0,6.205960274E0,8.798959732E0
4.439454380E-1,5.030371189E0,6.593832970E0,8.724737167E0
4.459451710E-1,5.037554264E0,6.708757877E0,8.712765694E0
4.479449040E-1,4.867560863E0,6.766220570E0,8.784594536E0
4.499446370E-1,4.486870766E0,6.711152077E0,8.887548447E0
4.519443700E-1,4.252232075E0,6.665660858E0,8.952193260E0
4.539441030E-1,3.833234072E0,6.586649895E0,9.043175697E0
4.559438360E-1,3.445361376E0,6.500456333E0,9.146129608E0
4.579430360E-1,3.246636629E0,6.454965115E0,9.198803902E0
4.599434020E-1,2.794118643E0,6.332856655E0,9.301757812E0
4.619431350E-1,2.432583094E0,6.189200401E0,9.380768776E0
4.639428680E-1,2.296109438E0,6.138920784E0,9.423865318E0
4.659426010E-1,2.066259146E0,6.057515144E0,9.534002304E0
4.679423340E-1,1.996825218E0,5.937801361E0,9.529213905E0
4.699411340E-1,1.970488191E0,5.892310143E0,9.517242432E0
4.719408670E-1,1.996825218E0,5.827664852E0,9.443019867E0
4.739406000E-1,2.128510237E0,5.827664852E0,9.289786339E0
4.759404000E-1,2.303292274E0,5.861184597E0,9.143735886E0
4.779401330E-1,2.348783493E0,5.873156071E0,9.086273193E0
4.799398660E-1,2.473285913E0,5.901887417E0,8.971347809E0
4.819395990E-1,2.549902678E0,5.916253090E0,8.928250313E0
4.839393320E-1,2.751021862E0,6.012023926E0,8.956981659E0
4.859390650E-1,3.028757572E0,6.038361073E0,8.815719604E0
4.879387980E-1,3.141288519E0,6.043149471E0,8.789382935E0
4.899385310E-1,3.265790939E0,6.091034889E0,8.765439987E0
4.919383310E-1,3.296916485E0,6.160469055E0,8.770228386E0
4.939380640E-1,3.306493521E0,6.201171875E0,8.779806137E0
4.959377970E-1,3.275367975E0,6.299336910E0,8.789382935E0
4.979375300E-1,3.225088120E0,6.354405403E0,8.794171333E0
4.999372630E-1,3.086220264E0,6.337645531E0,8.772623062E0
5.019369960E-1,2.976083517E0,6.284971237E0,8.602629662E0
5.039367290E-1,2.925803900E0,6.189200401E0,8.430241585E0
5.059365290E-1,2.715107679E0,6.105400562E0,8.016032219E0
5.079363290E-1,2.384697676E0,5.935407162E0,7.690410614E0
5.099360620E-1,2.171607256E0,5.825270653E0,7.606611252E0
5.119357950E-1,1.664021015E0,5.576265812E0,7.565908432E0
5.139355280E-1,1.060663700E0,5.248250484E0,7.673650742E0
5.159352610E-1,4.381522834E-1,4.889109135E0,7.932232380E0
5.179360940E-1,1.747820675E-1,4.731087208E0,8.085466385E0
5.199352600E-1,-2.777358890E-1,4.398283005E0,8.358413696E0
5.219350600E-1,-4.405465722E-1,4.247443676E0,8.475732803E0
5.239347930E-1,-5.482889414E-1,4.060689926E0,8.559532166E0
5.259345260E-1,-4.405465722E-1,4.036747456E0,8.530800819E0
5.279342590E-1,-3.447755575E-1,4.063084126E0,8.492492676E0
5.299349250E-1,-1.125309169E-1,4.151672363E0,8.394327164E0
5.319346580E-1,9.337671846E-2,4.233078003E0,8.351230621E0
5.339343910E-1,1.915419847E-1,4.285751820E0,8.363202095E0
5.359341240E-1,3.759011328E-1,4.367157459E0,8.528407097E0
5.379339240E-1,4.142095447E-1,4.374340057E0,8.628966331E0
5.399336570E-1,4.453351200E-1,4.383917332E0,8.741497040E0
5.419333900E-1,5.219519138E-1,4.407859802E0,8.990502357E0
5.439331230E-1,6.703969240E-1,4.441379547E0,9.177255630E0
5.459328560E-1,8.188419938E-1,4.482082367E0,9.210775375E0
5.479325890E-1,1.304879785E0,4.604190350E0,8.966559410E0
5.499323220E-1,1.826831698E0,4.817280769E0,8.334470749E0
5.519320550E-1,2.025556564E0,4.939388752E0,7.956175327E0
5.539318550E-1,2.284138203E0,5.128536701E0,7.326480865E0
5.559315880E-1,2.399063349E0,5.159662247E0,7.063110828E0
5.579313210E-1,2.351177931E0,5.138113976E0,7.094236374E0
5.599310540E-1,1.999219418E0,5.016005516E0,7.355212212E0
5.619307870E-1,1.465296149E0,4.932206154E0,7.673650742E0
5.639305200E-1,1.122914910E0,4.908263206E0,7.795758724E0
5.659302530E-1,4.908263385E-1,4.850800991E0,7.915472507E0
5.679297860E-1,0.000000000E0,4.800520897E0,7.920260906E0
5.699295860E-1,-1.771763414E-1,4.774183750E0,7.889135361E0
5.719293190E-1,-4.261809289E-1,4.678412914E0,7.903501034E0
5.739290520E-1,-6.009629965E-1,4.520390987E0,8.071100235E0
5.759287850E-1,-6.823683381E-1,4.333637238E0,8.447001457E0
5.779289180E-1,-6.895511150E-1,4.235472202E0,8.674457550E0
5.799286510E-1,-5.267404318E-1,3.988861799E0,9.110215187E0
5.819283840E-1,-2.442160249E-1,3.720703125E0,9.239506721E0
5.839281840E-1,7.901106775E-2,3.227482557E0,9.165284157E0
5.859279840E-1,-1.197137386E-1,3.059883118E0,8.861210823E0
5.879277170E-1,-2.849186957E-1,3.050306082E0,8.739103317E0
5.899274500E-1,-6.033572555E-1,3.062277555E0,8.698400497E0
5.919271830E-1,-7.661679387E-1,3.107768774E0,8.877970695E0
5.939269160E-1,-9.792584181E-1,3.138894320E0,8.988107681E0
5.959266490E-1,-9.433442950E-1,3.196356773E0,9.136552811E0
5.979267820E-1,-6.656084061E-1,3.282550812E0,9.138946533E0
5.999265820E-1,-4.716721475E-1,3.318464994E0,9.105426788E0
6.019263820E-1,-1.077423692E-1,3.421418667E0,8.976136208E0
6.039261150E-1,4.549122229E-2,3.483669758E0,8.911490440E0
6.059258480E-1,2.178790122E-1,3.624932051E0,8.806142807E0
6.079255810E-1,2.968900800E-1,3.770982742E0,8.715160370E0
6.099253140E-1,3.136500120E-1,3.821262598E0,8.652909279E0
6.119250470E-1,1.939362586E-1,3.895485163E0,8.530800819E0
6.139247800E-1,9.337671846E-2,3.852388144E0,8.396721840E0
6.159245800E-1,-3.591412306E-2,3.833234072E0,8.277008057E0
6.179243130E-1,-1.173194647E-1,3.804502726E0,8.243488312E0
6.199240460E-1,-4.189980924E-1,3.696760416E0,8.272219658E0
6.219237790E-1,-6.368771195E-1,3.634509087E0,8.346442223E0
6.239235120E-1,-1.094183564E0,3.498035431E0,8.458972931E0
6.259232450E-1,-1.707117915E0,3.433390141E0,8.480521202E0
6.279231780E-1,-2.025556564E0,3.426207304E0,8.494887352E0
6.299229110E-1,-2.636096478E0,3.407052994E0,8.605023384E0
6.319227110E-1,-3.098191500E0,3.296916485E0,8.786988258E0
6.339224440E-1,-3.253819466E0,3.213116884E0,8.865999222E0
6.359221770E-1,-3.536343813E0,2.592999697E0,8.830085754E0
6.379213430E-1,-3.612960577E0,2.269772530E0,8.619389534E0
6.399210760E-1,-3.648874760E0,2.085413456E0,8.454184532E0
6.419208090E-1,-3.715914488E0,1.915419817E0,8.339259148E0
6.439205420E-1,-3.773377180E0,1.769369125E0,8.348835945E0
6.459202750E-1,-3.849993944E0,1.690358043E0,8.334470749E0
6.479200750E-1,-4.051113129E0,1.532335877E0,8.248276711E0
6.499198080E-1,-4.178009510E0,1.395862222E0,8.221940041E0
6.519195410E-1,-4.240260601E0,1.350371003E0,8.221940041E0
6.539192740E-1,-4.367157459E0,1.288119793E0,8.291373253E0
6.559190070E-1,-4.510813713E0,1.235445857E0,8.494887352E0
6.579183400E-1,-4.546727657E0,1.218685865E0,8.638543129E0
6.599180730E-1,-4.517996788E0,1.261782765E0,8.988107681E0
6.619178060E-1,-4.369551659E0,1.450930476E0,9.282603264E0
6.639176060E-1,-4.273780346E0,1.580221415E0,9.404711723E0
6.659173390E-1,-4.027170181E0,1.869928598E0,9.624984741E0
6.679170720E-1,-3.574652195E0,2.145270348E0,9.771035194E0
6.699168050E-1,-3.246636629E0,2.288926601E0,9.785401344E0
6.719165380E-1,-2.456526041E0,2.652856588E0,9.680052757E0
6.739162710E-1,-1.635289669E0,3.052700281E0,9.572310448E0
6.759160040E-1,-8.356019258E-1,3.428601503E0,9.555550575E0
6.779158040E-1,-4.788549542E-1,3.615355015E0,9.581888199E0
6.799156040E-1,9.577099234E-2,3.952947617E0,9.711178780E0
6.819153370E-1,3.304099143E-1,4.108575344E0,9.761458397E0
6.839150700E-1,7.182824612E-1,4.388705730E0,9.646533012E0
6.859148030E-1,8.786988258E-1,4.580247879E0,9.124581337E0
6.879145360E-1,1.185166001E0,4.673624516E0,8.746285439E0
6.899142690E-1,1.331216812E0,4.774183750E0,7.948992252E0
6.919140020E-1,1.316851139E0,4.714327335E0,7.647313595E0
6.939138020E-1,1.103760719E0,4.611373425E0,7.436617374E0
6.959135680E-1,7.350423932E-1,4.324060440E0,7.735901833E0
6.979142340E-1,5.099805593E-1,4.019987583E0,7.982511997E0
6.999140000E-1,4.788549617E-3,3.909850836E0,8.482915878E0
7.019137660E-1,-5.889915824E-1,3.732674360E0,8.966559410E0
7.039135320E-1,-9.481328130E-1,3.641691923E0,9.083878517E0
7.059132980E-1,-1.527547359E0,3.531555414E0,9.320911407E0
7.079130640E-1,-1.989642382E0,3.505218267E0,9.505270958E0
7.099128970E-1,-2.154847383E0,3.505218267E0,9.584281921E0
7.119126630E-1,-2.375120640E0,3.533949614E0,9.751881599E0
7.139124290E-1,-2.430188894E0,3.627326250E0,9.850046158E0
7.159121950E-1,-2.358360767E0,3.751828671E0,9.917086601E0
7.179120950E-1,-2.293715239E0,3.816473961E0,9.933846474E0
7.199118610E-1,-2.102173328E0,4.012804508E0,9.950606346E0
7.219116270E-1,-2.004008055E0,4.134912491E0,9.960183144E0
7.239113930E-1,-1.822043180E0,4.280963421E0,1.003680038E1
7.259112260E-1,-1.585009933E0,4.443774223E0,1.012299347E1
7.279109920E-1,-1.474873304E0,4.525179386E0,1.015890789E1
7.299107580E-1,-1.268965602E0,4.616161823E0,1.020200539E1
7.319105240E-1,-1.139674783E0,4.613767624E0,1.021397591E1
7.339102900E-1,-1.110943556E0,4.592218876E0,1.024749660E1
7.359100560E-1,-9.050358534E-1,4.585036278E0,1.034326744E1
7.379098220E-1,-8.403904438E-1,4.613767624E0,1.031214142E1
7.399095880E-1,-7.781392932E-1,4.640104771E0,1.021876526E1
7.419094210E-1,-6.512427330E-1,4.740664005E0,9.895537376E0
7.439091870E-1,-6.273000240E-1,4.786155224E0,9.586676598E0
7.459089530E-1,-6.488484740E-1,4.771789551E0,9.524425507E0
7.479087190E-1,-7.446194887E-1,4.697566986E0,9.569916725E0
7.499084850E-1,-9.888355136E-1,4.522785187E0,9.862017632E0
7.519082510E-1,-1.156434774E0,4.388705730E0,1.012538815E1
7.539080170E-1,-9.792584181E-1,4.194769382E0,1.064973450E1
7.559078170E-1,-3.280156553E-1,4.110970020E0,1.106873226E1
7.579068500E-1,-1.295302629E0,4.118152618E0,1.145181656E1
7.599065830E-1,-2.736656189E0,4.364762783E0,1.166969585E1
7.619063160E-1,-3.972101927E0,4.247443676E0,1.151167297E1
7.639060490E-1,-4.213923454E0,4.048718929E0,1.125309181E1
7.659057820E-1,-4.333637238E0,3.517189741E0,1.068804264E1
7.679055150E-1,-4.063084126E0,3.093403101E0,1.031214142E1
7.699052480E-1,-4.029564381E0,2.906649590E0,1.032650757E1
7.719050480E-1,-4.120546818E0,2.602576733E0,1.061621475E1
7.739047810E-1,-4.048718929E0,2.458920240E0,1.036242104E1
7.759045140E-1,-3.684788942E0,2.413429022E0,9.929058075E0
7.779041140E-1,-3.505218267E0,2.360754967E0,9.646533012E0
7.799038470E-1,-3.440572977E0,2.068653345E0,9.395133972E0
7.819035800E-1,-3.572257996E0,1.893871427E0,9.411893845E0
7.839033130E-1,-3.804502726E0,1.642472506E0,9.634561539E0
7.859030460E-1,-3.878725290E0,1.599375606E0,9.735121727E0
7.879025790E-1,-3.701548815E0,1.594586968E0,9.783006668E0
7.899023120E-1,-3.181991339E0,1.644866824E0,9.737515450E0
7.919020450E-1,-2.861158371E0,1.666415215E0,9.696812630E0
7.939017780E-1,-2.109356165E0,1.805283189E0,9.440625191E0
7.959015110E-1,-1.297696948E0,2.056682110E0,8.985713005E0
7.979009440E-1,-9.385557175E-1,2.202732801E0,8.760651588E0
7.999006770E-1,-3.830839694E-1,2.454131603E0,8.439818382E0
8.019004100E-1,-1.819648892E-1,2.458920240E0,8.291373253E0
8.039002100E-1,-2.130904645E-1,2.372726440E0,8.217150688E0
8.058995100E-1,-4.549122155E-1,2.114144564E0,7.987300873E0
8.078992430E-1,-7.733507752E-1,1.824437380E0,7.613793850E0
8.098989760E-1,-9.337671995E-1,1.671203852E0,7.427040577E0
8.118986760E-1,-1.206714511E0,1.374313712E0,7.170853138E0
8.138984090E-1,-1.379102230E0,1.084606528E0,7.125361919E0
8.158981420E-1,-1.331216812E0,8.834874034E-1,7.266623974E0
8.178977420E-1,-1.235445857E0,8.236305118E-1,7.352818012E0
8.198975420E-1,-9.098244309E-1,7.661679387E-1,7.477320194E0
8.218972750E-1,-7.039167881E-1,7.709565163E-1,7.484503269E0
8.238970080E-1,-2.921015322E-1,7.996878028E-1,7.403097630E0
8.258967410E-1,1.005595401E-1,8.571503758E-1,7.213950157E0
8.278964740E-1,2.537931204E-1,8.954587579E-1,7.118178844E0
8.298962070E-1,4.501236677E-1,9.457385540E-1,6.952973843E0
8.318959400E-1,4.860377908E-1,9.720755816E-1,6.917059898E0
8.338957400E-1,4.405465722E-1,9.792584181E-1,6.952973843E0
8.358955400E-1,2.729473412E-1,1.019961119E0,7.130150318E0
8.378952730E-1,4.309694469E-2,1.051086664E0,7.199584484E0
8.398950060E-1,-8.140534163E-2,1.108549237E0,7.288172722E0
8.418947390E-1,-2.873129845E-1,1.247417212E0,7.529994488E0
8.438944720E-1,-3.998439014E-1,1.484450340E0,7.788576126E0
8.458942050E-1,-3.926610649E-1,1.618529797E0,7.934626579E0
8.478942050E-1,-2.729473412E-1,1.915419817E0,8.145322800E0
8.498940050E-1,4.788549617E-3,2.169213057E0,8.269824982E0
8.518938050E-1,1.795706153E-1,2.274561167E0,8.303344727E0
8.538935380E-1,5.937801600E-1,2.454131603E0,8.346442223E0
8.558932710E-1,9.840469360E-1,2.585816860E0,8.365595818E0
8.578933040E-1,1.132491946E0,2.640885115E0,8.389538765E0
8.598930370E-1,1.331216812E0,2.710319042E0,8.447001457E0
8.618927700E-1,1.388679385E0,2.827638626E0,8.545166969E0
8.638925030E-1,1.383890867E0,2.899466753E0,8.614601135E0
8.658927360E-1,1.333611012E0,3.081431627E0,8.755863190E0
8.678924690E-1,1.319245458E0,3.241847992E0,9.007262230E0
8.698922020E-1,1.170800328E0,3.316070557E0,9.074301720E0
8.718919680E-1,1.005595446E0,3.433390141E0,9.038387299E0
8.738917010E-1,9.529213905E-1,3.457332850E0,9.016839027E0
8.758914340E-1,9.529213905E-1,3.402264595E0,9.019232750E0
8.778919340E-1,9.936240315E-1,3.368744612E0,8.988107681E0
8.798916670E-1,1.046298146E0,3.332830429E0,8.947404861E0
8.818914670E-1,1.134886265E0,3.222693920E0,8.971347809E0
8.838912000E-1,1.240234375E0,3.079037428E0,9.057541847E0
8.858909330E-1,1.302485466E0,2.995237827E0,9.117398262E0
8.878906660E-1,1.412622094E0,2.818061352E0,9.165284157E0
8.898903990E-1,1.436564922E0,2.686376333E0,9.031204224E0
8.918901320E-1,1.424593568E0,2.631308079E0,8.911490440E0
8.938898650E-1,1.359948039E0,2.494834423E0,8.657697678E0
8.958895980E-1,1.230657220E0,2.308080912E0,8.439818382E0
8.978893980E-1,1.137280583E0,2.207521439E0,8.370385170E0
8.998891310E-1,9.433442950E-1,1.934574008E0,8.255459785E0
9.018888640E-1,7.326480746E-1,1.618529797E0,8.147717476E0
9.038885970E-1,6.368771195E-1,1.446141958E0,8.102226257E0
9.058883300E-1,4.477293789E-1,1.048692346E0,8.006455421E0
9.078880630E-1,2.921015322E-1,6.488484740E-1,7.867587090E0
9.098877960E-1,2.226675600E-1,4.501236677E-1,7.786181450E0
9.118875290E-1,9.098244458E-2,9.337671846E-2,7.580274105E0
9.138873290E-1,-2.154847234E-2,-2.561874092E-1,7.379155159E0
9.158870620E-1,-1.005595401E-1,-6.033572555E-1,7.194795609E0
9.178867950E-1,-1.173194647E-1,-7.470137477E-1,7.134938717E0
9.198865280E-1,-1.029538140E-1,-9.744698405E-1,7.067899227E0
9.218862610E-1,-9.577099234E-2,-1.051086664E0,7.053533554E0
9.238859940E-1,-6.464541703E-2,-1.142069101E0,7.096630573E0
9.258857270E-1,-3.591412306E-2,-1.127703428E0,7.201978683E0
9.278855270E-1,7.182824425E-3,-1.087000728E0,7.247469902E0
9.298853270E-1,1.125309169E-1,-9.720755816E-1,7.271412373E0
9.318850600E-1,2.681587934E-1,-7.781392932E-1,7.233104229E0
9.338847930E-1,3.495641351E-1,-6.847625971E-1,7.185218811E0
9.358845260E-1,5.602602959E-1,-3.639297783E-1,7.091842175E0
9.378830260E-1,6.249057055E-1,-2.346389294E-1,7.084659100E0
9.398827590E-1,6.608198285E-1,-9.577099234E-2,7.077476501E0
9.418824920E-1,6.129343510E-1,2.585816681E-1,7.125361919E0
9.438822920E-1,6.368771195E-1,6.536370516E-1,7.333663940E0
9.458820580E-1,7.230709791E-1,7.996878028E-1,7.491685867E0
9.478818240E-1,1.046298146E0,9.648927450E-1,7.841249943E0
9.498815900E-1,1.319245458E0,1.094183564E0,8.145322800E0
9.518813560E-1,1.424593568E0,1.139674783E0,8.262641907E0
9.538811220E-1,1.604164124E0,1.163617611E0,8.449396133E0
9.558808880E-1,1.697540879E0,1.149251938E0,8.612206459E0
9.578806540E-1,1.678386688E0,1.134886265E0,8.674457550E0
9.598804870E-1,1.544307232E0,1.087000728E0,8.741497040E0
9.618803530E-1,1.460507631E0,1.015172482E0,8.808537483E0
9.638802190E-1,1.252205729E0,9.385557175E-1,8.842057228E0
9.658800850E-1,9.744698405E-1,7.877163887E-1,8.897125244E0
9.678799510E-1,8.116591573E-1,6.201171875E-1,8.930644989E0
9.698798170E-1,5.004034638E-1,5.339232683E-1,8.990502357E0
9.718796830E-1,2.609759569E-1,3.447755575E-1,8.928250313E0
9.738795490E-1,1.604164094E-1,2.705530524E-1,8.870788574E0
9.758794820E-1,-2.633702382E-2,9.337671846E-2,8.564320564E0
9.778794150E-1,-5.746259540E-2,4.788549617E-2,8.480521202E0
9.798793480E-1,-6.225114316E-2,-2.154847234E-2,8.420664787E0
9.818788480E-1,-4.788549617E-2,-2.106961906E-1,8.346442223E0
9.838787810E-1,-4.788549617E-3,-4.261809289E-1,8.327287674E0
9.858787140E-1,2.633702382E-2,-5.243461728E-1,8.327287674E0
9.878782140E-1,8.858817071E-2,-6.751855016E-1,8.341653824E0
9.898781470E-1,1.460507661E-1,-7.781392932E-1,8.363202095E0
9.918777130E-1,1.819648892E-1,-8.188419938E-1,8.379961967E0
9.938776790E-1,2.370332032E-1,-8.810931444E-1,8.408693314E0
9.958776450E-1,2.537931204E-1,-9.936240315E-1,8.478127480E0
9.978780780E-1,2.490045726E-1,-1.063058019E0,8.523618698E0
9.998780440E-1,1.699935049E-1,-1.240234375E0,8.643332481E0
1.001878010E0,5.746259540E-2,-1.477267504E0,8.820508003E0
1.003877976E0,-2.873129770E-2,-1.585009933E0,8.894730568E0
1.005877976E0,-1.532335877E-1,-1.781340480E0,9.047964096E0
1.007877976E0,-2.849186957E-1,-1.972882390E0,9.263449669E0
1.009878142E0,-3.567469418E-1,-2.071047783E0,9.380768776E0
1.011878108E0,-6.009629965E-1,-2.343995094E0,9.610619545E0
1.013878074E0,-1.194743156E0,-2.827638626E0,9.890748978E0
1.015878040E0,-6.778192043E0,-6.399896622E0,1.188278580E1
1.017878006E0,-7.676044941E0,-7.498868465E0,1.251966286E1
1.019877972E0,-3.926610708E0,-5.897099018E0,1.053241444E1
1.021877905E0,-3.064671755E0,-5.250644684E0,9.624984741E0
1.023877838E0,-3.498035431E0,-5.174027920E0,9.294574738E0
1.025877771E0,-3.694365978E0,-5.190787792E0,9.155706406E0
1.027877704E0,-3.653663397E0,-5.133325100E0,9.031204224E0
1.029877637E0,-3.421418667E0,-4.908263206E0,8.873182297E0
1.031877570E0,-3.162837029E0,-4.630527496E0,8.846845627E0
1.033877503E0,-2.937775135E0,-4.453351021E0,8.854028702E0
1.035877436E0,-2.154847383E0,-3.929004908E0,8.827691078E0
1.037877236E0,-1.216291547E0,-3.399870157E0,8.937828064E0
1.039877102E0,-7.637736797E-1,-3.167625666E0,9.028810501E0
1.041877402E0,6.703969836E-2,-2.681587696E0,9.241900444E0
1.043877268E0,1.108549237E0,-2.111750364E0,9.261054993E0
1.045877134E0,1.611346960E0,-1.814860344E0,9.232323647E0
1.047877434E0,2.423006058E0,-1.211503029E0,9.184437752E0
1.049877300E0,3.007209063E0,-6.057515144E-1,9.191620827E0
1.051877600E0,3.222693920E0,-3.184385598E-1,9.201197624E0
1.053877500E0,3.557892323E0,2.059076279E-1,9.234718323E0
1.055877333E0,3.742251635E0,6.057515144E-1,9.249083519E0
1.057877166E0,3.782954216E0,7.541965842E-1,9.249083519E0
1.059876999E0,2.990449190E0,5.865973234E-1,8.717555046E0
1.061876832E0,6.560313106E-1,1.084606528E0,7.362394810E0
1.063878065E0,-4.019987583E0,1.522758722E0,4.264203548E0
1.065877898E0,-4.989668846E0,2.123721838E0,2.669616461E0
1.067877731E0,-5.063891411E0,2.248224020E0,2.193155766E0
1.069876497E0,-5.080651283E0,2.092596292E0,1.616135478E0
1.071876297E0,-5.111776829E0,1.580221415E0,1.362342358E0
1.073876097E0,-5.142902374E0,1.264177084E0,1.290514112E0
1.075875897E0,-5.162056446E0,3.016786277E-1,1.087000728E0
1.077875697E0,-5.123748302E0,3.351984918E-2,1.007989645E0
1.079875497E0,-5.095016956E0,-1.939362586E-1,9.002473354E-1
1.081875297E0,-5.269798756E0,-5.004034638E-1,5.626545548E-1
1.083875097E0,-6.811711788E0,-8.451790214E-1,3.711125851E-1
1.085874897E0,-8.327287674E0,-1.235445857E0,8.020820618E-1
1.087874630E0,-9.986519814E0,-2.863552570E0,3.694365978E0
1.089874363E0,-9.203592300E0,-4.637710094E0,7.968146324E0
1.091873696E0,-8.372778893E0,-4.996851444E0,9.304151535E0
1.093873429E0,-6.885934353E0,-4.106181145E0,8.940221786E0
1.095873162E0,-6.023995399E0,-2.157241583E0,6.548341751E0
1.097873028E0,-5.786962032E0,-1.213897347E0,5.377541065E0
1.099872828E0,-5.648094177E0,1.747820675E-1,3.763799906E0
1.101872628E0,-6.095823765E0,7.709565163E-1,3.311282158E0
1.103872361E0,-6.538764477E0,8.188419938E-1,3.462121487E0
1.105872094E0,-7.664073467E0,6.440598965E-1,4.180403709E0
1.107871827E0,-8.554743767E0,3.112557232E-1,5.224307537E0
1.109871560E0,-8.798959732E0,1.388679445E-1,5.801327705E0
1.111871293E0,-8.930644989E0,-1.364736706E-1,6.802134514E0
1.113871026E0,-8.686429024E0,-3.040728867E-1,7.565908432E0
1.115870826E0,-8.178842545E0,-3.854782581E-1,7.884346962E0
1.117870559E0,-7.869981289E0,-3.782954216E-1,7.872375488E0
1.119870292E0,-7.228315830E0,-2.944957912E-1,7.659285069E0
1.121870025E0,-6.890722752E0,-2.609759569E-1,7.477320194E0
1.123868358E0,-6.280182838E0,-2.442160249E-1,7.058321953E0
1.125868091E0,-5.729499817E0,-3.615354896E-1,6.763826370E0
1.127867824E0,-5.463735104E0,-4.764606953E-1,6.691998005E0
1.129868457E0,-4.941783428E0,-8.451790214E-1,6.703969479E0
1.131868257E0,-4.491659641E0,-1.252205729E0,6.859597206E0
1.133867990E0,-4.271386147E0,-1.458113313E0,6.936213970E0
1.135867723E0,-3.828445435E0,-1.893871427E0,7.163670063E0
1.137867089E0,-3.356773376E0,-2.315263748E0,7.527599812E0
1.139866822E0,-3.059883118E0,-2.492439985E0,7.721536160E0
1.141866555E0,-2.468497276E0,-2.765387297E0,8.080677032E0
1.143866288E0,-1.812466025E0,-2.894678354E0,8.382355690E0
1.145866021E0,-1.482056141E0,-2.897072554E0,8.506858826E0
1.147865821E0,-8.427847624E-1,-2.798907280E0,8.724737167E0
1.149865554E0,-5.889915824E-1,-2.660039425E0,8.961771011E0
1.151865687E0,-3.399870098E-1,-2.581028223E0,9.079090118E0
1.153865420E0,-2.897072434E-1,-2.379909277E0,9.282603264E0
1.155865153E0,-3.040728867E-1,-2.176395893E0,9.574705124E0
1.157864886E0,-3.543526828E-1,-2.080624819E0,9.727938652E0
1.159864619E0,-5.674431324E-1,-1.917814136E0,1.002722263E1
1.161864352E0,-7.039167881E-1,-1.819648862E0,1.016848469E1
1.163864152E0,-9.481328130E-1,-1.599375606E0,1.039594078E1
1.165863885E0,-1.197137356E0,-1.412622094E0,1.051565456E1
1.167863618E0,-1.288119793E0,-1.324033976E0,1.053959751E1
1.169863351E0,-1.391073704E0,-1.127703428E0,1.049650097E1
1.171862651E0,-1.314456820E0,-4.333637357E-1,9.943423271E0
1.173862384E0,-1.285725594E0,1.149251908E-1,9.383162498E0
1.175862117E0,-1.436564922E0,1.302485466E0,6.809317589E0
1.177861783E0,-1.422199249E0,1.319245458E0,6.502850533E0
1.179861583E0,-1.309668303E0,1.168406129E0,6.742278099E0
1.181861316E0,-9.361614585E-1,6.703969240E-1,8.109408379E0
1.183861049E0,-6.751855016E-1,2.897072434E-1,9.251478195E0
1.185860782E0,-6.273000240E-1,1.675992310E-1,9.483722687E0
1.187860515E0,-5.698373914E-1,2.633702382E-2,9.443019867E0
1.189860248E0,-5.339232683E-1,-9.337671846E-2,8.988107681E0
1.191859981E0,-5.075862408E-1,-1.484450400E-1,8.703188896E0
1.193859781E0,-4.309694767E-1,-2.370332032E-1,8.078283310E0
1.195859081E0,-3.256213665E-1,-1.963305324E-1,7.429434776E0
1.197859181E0,-2.633702159E-1,-1.173194647E-1,7.087053299E0
1.199858914E0,-1.340793967E-1,9.098244458E-2,6.419050694E0
1.201858647E0,1.436564885E-2,2.992843390E-1,5.875550270E0
1.203858380E0,8.140534163E-2,3.950553536E-1,5.648094177E0
1.205858113E0,2.106961906E-1,5.794144869E-1,5.221913338E0
1.207857846E0,2.968900800E-1,7.733507752E-1,4.764606953E0
1.209857646E0,3.304099143E-1,8.691217303E-1,4.501236439E0
1.211857379E0,3.519583941E-1,1.065452337E0,3.948159218E0
1.213857112E0,3.782954216E-1,1.206714511E0,3.378321648E0
1.215856845E0,3.926610649E-1,1.249811411E0,2.897072554E0
1.217856578E0,4.142095447E-1,1.233051538E0,2.691164970E0
1.219856311E0,4.908263385E-1,1.134886265E0,2.382303476E0
1.221856044E0,5.530774593E-1,1.055875182E0,2.284138203E0
1.223855777E0,6.847625971E-1,8.332076073E-1,2.197944164E0
1.225855577E0,8.571503758E-1,5.650488734E-1,2.233858347E0
1.227855310E0,9.553156495E-1,4.213923812E-1,2.288926601E0
1.229855043E0,1.134886265E0,1.628106833E-1,2.430188894E0
1.231855209E0,1.252205729E0,-3.112557158E-2,2.631308079E0
1.233854942E0,1.309668303E0,-1.101366431E-1,2.731867552E0
1.235854675E0,1.388679385E0,-1.891477108E-1,2.959323645E0
1.237854441E0,1.438959122E0,-2.035133541E-1,3.088614464E0
1.239854174E0,1.501210332E0,-1.460507661E-1,3.361561775E0
1.241853974E0,1.549095750E0,-1.675992459E-2,3.641691923E0
1.243853707E0,1.568249941E0,1.891477108E-1,3.924216509E0
1.245853440E0,1.549095750E0,3.208328187E-1,4.067873001E0
1.247853173E0,1.539518714E0,6.320885420E-1,4.333637238E0
1.249852906E0,1.522758722E0,8.020820618E-1,4.453351021E0
1.251852639E0,1.350371003E0,1.233051538E0,4.613767624E0
1.253852372E0,-1.364736706E-1,2.597788095E0,4.568276405E0
1.255852605E0,-4.644893169E0,6.318490982E0,4.288146019E0
1.257852405E0,-5.892310143E0,7.297749519E0,4.343214512E0
1.259852138E0,-6.498061657E0,7.280989647E0,4.546727657E0
1.261851871E0,-6.684815407E0,6.924242973E0,4.582642078E0
1.263851604E0,-7.458166122E0,6.272999763E0,4.441379547E0
1.265851337E0,-8.023215294E0,5.554717541E0,4.108575344E0
1.267851070E0,-7.996877670E0,5.032765865E0,3.940976381E0
1.269850803E0,-7.733507633E0,3.811685562E0,3.914639235E0
1.271850603E0,-7.525205612E0,2.432583094E0,4.405465603E0
1.273850403E0,-7.544359684E0,1.714300752E0,4.855589390E0
1.275850136E0,-7.898712635E0,-1.580221355E-1,6.622564316E0
1.277849869E0,-7.944203854E0,-7.063110471E-1,7.398309231E0
1.279849169E0,-7.901106834E0,-1.194743156E0,8.226728439E0
1.281848902E0,-7.371972084E0,-1.865140080E0,9.850046158E0
1.283848635E0,-6.220325947E0,-2.212309837E0,1.132013130E1
1.285848368E0,-5.439792156E0,-2.288926601E0,1.200489426E1
1.287848168E0,-3.763799906E0,-2.264983892E0,1.309189510E1
1.289847901E0,-1.968093872E0,-2.018373728E0,1.373595428E1
1.291847634E0,-9.936240315E-1,-1.838803053E0,1.396580505E1
1.293847367E0,8.930644989E-1,-1.441353440E0,1.389876556E1
1.295847100E0,2.566662550E0,-1.046298146E0,1.340554428E1
1.297846933E0,3.287339211E0,-8.858816624E-1,1.304161453E1
1.299846666E0,4.393494129E0,-6.081457734E-1,1.214136791E1
1.301846399E0,5.020794392E0,-4.357580245E-1,1.106873226E1
1.303846265E0,5.169239521E0,-3.782954216E-1,1.050368404E1
1.305845998E0,5.181210518E0,-3.184385598E-1,9.335277557E0
1.307845731E0,4.877137661E0,-2.250618339E-1,8.221940041E0
1.309845464E0,4.625739098E0,-1.484450400E-1,7.685622215E0
1.311845197E0,4.000833035E0,8.140534163E-2,6.730306625E0
1.313844930E0,3.335224867E0,3.974496126E-1,5.921041489E0
1.315844663E0,2.667222023E0,7.182824612E-1,5.233884811E0
1.317844396E0,2.348783493E0,8.906702399E-1,4.970514297E0
1.319844196E0,1.723877907E0,1.259388566E0,4.570670605E0
1.321843929E0,1.410227895E0,1.441353440E0,4.410254002E0
1.323843662E0,7.470137477E-1,1.819648862E0,4.197163582E0
1.325843395E0,5.506832153E-2,2.193155766E0,4.118152618E0
1.327843128E0,-2.897072434E-1,2.353572130E0,4.101392746E0
1.329842861E0,-9.768640995E-1,2.628913641E0,4.120546818E0
1.331842594E0,-1.324033976E0,2.815667152E0,4.110970020E0
1.333842327E0,-1.960911036E0,2.868341208E0,4.103786945E0
1.335842127E0,-2.528354168E0,2.856369734E0,4.084632874E0
1.337841860E0,-2.777358770E0,2.751021862E0,4.070267200E0
1.339842026E0,-3.165231228E0,2.679193497E0,4.029564381E0
1.341841759E0,-3.459727049E0,2.509200096E0,4.008016109E0
1.343841492E0,-3.565075159E0,2.399063349E0,4.008016109E0
1.345841225E0,-3.675211906E0,2.157241583E0,4.041535854E0
1.347840958E0,-3.689577579E0,1.944151163E0,4.161249638E0
1.349840758E0,-3.658451796E0,1.845985889E0,4.242654800E0
1.351840558E0,-3.526766777E0,1.687963724E0,4.479688168E0
1.353840291E0,-3.308887720E0,1.573038578E0,4.802915096E0
1.355840024E0,-3.028757572E0,1.470084786E0,5.217124939E0
1.357838857E0,-2.858764172E0,1.436564922E0,5.463735104E0
1.359838590E0,-2.454131603E0,1.417410731E0,5.997658253E0
1.361838323E0,-2.260195494E0,1.429382086E0,6.299336910E0
1.363837989E0,-1.860351562E0,1.513181686E0,6.943397045E0
1.365837789E0,-1.448536277E0,1.675992370E0,7.575485706E0
1.367837522E0,-1.235445857E0,1.788523316E0,7.913078308E0
1.369837255E0,-7.853221297E-1,2.037527800E0,8.581081390E0
1.371836988E0,-3.304099143E-1,2.257801056E0,9.126976013E0
1.373836721E0,-1.245022863E-1,2.322446585E0,9.366402626E0
1.375836454E0,-7.901106775E-2,2.729473352E0,9.926663399E0
1.377836187E0,-1.771763414E-1,2.909043789E0,1.005356026E1
1.379835920E0,-3.208328187E-1,3.091008663E0,1.013257122E1
1.381835720E0,-6.967339516E-1,3.447755814E0,1.015172482E1
1.383835453E0,-1.156434774E0,3.766194344E0,9.984126091E0
1.385835186E0,-1.400650740E0,3.902667999E0,9.850046158E0
1.387834919E0,-1.896265626E0,4.161249638E0,9.466962814E0
1.389834652E0,-2.389486313E0,4.395888329E0,9.026415825E0
1.391834385E0,-2.624125242E0,4.503631115E0,8.801354408E0
1.393834118E0,-3.052700281E0,4.714327335E0,8.358413696E0
1.395833851E0,-3.445361376E0,4.936994553E0,7.958569527E0
1.397833651E0,-3.646480560E0,5.054314137E0,7.774210453E0
1.399833384E0,-4.034353256E0,5.308107376E0,7.439012051E0
1.401833117E0,-4.383917332E0,5.593026161E0,7.146910191E0
1.403832850E0,-4.558699131E0,5.739076614E0,7.008042336E0
1.405832583E0,-4.865166187E0,6.019207001E0,6.766220570E0
1.407832816E0,-5.118959427E0,6.277788639E0,6.567495823E0
1.409832549E0,-5.209941864E0,6.390319347E0,6.464541912E0
1.411832282E0,-5.358386993E0,6.581861496E0,6.308914185E0
1.413832082E0,-5.408666611E0,6.744672298E0,6.179623127E0
1.415831848E0,-5.375146866E0,6.845231533E0,6.086246490E0
1.417833481E0,-5.327261448E0,6.895511627E0,6.055120945E0
1.419833247E0,-5.174027920E0,6.979310989E0,6.052726746E0
1.421833013E0,-5.071074009E0,7.012830734E0,6.071880817E0
1.423832779E0,-4.805309772E0,7.058321953E0,6.146103382E0
1.425832545E0,-4.637710094E0,7.103813171E0,6.294548512E0
1.427832378E0,-4.249837875E0,7.103813171E0,6.395108223E0
1.429832211E0,-3.766194344E0,7.031985283E0,6.660872459E0
1.431831977E0,-3.505218267E0,6.864386082E0,6.818894863E0
1.433831743E0,-2.978477955E0,6.720729351E0,7.115784645E0
1.435831509E0,-2.473285913E0,6.301731110E0,7.240286827E0
1.437831275E0,-2.212309837E0,6.069486618E0,7.055927753E0
1.439831041E0,-1.589798450E0,5.877944469E0,6.778192043E0
1.441830807E0,-8.715160489E-1,6.124555111E0,7.443800449E0
1.443830640E0,-5.027977228E-1,6.344828129E0,8.090254784E0
1.445830406E0,1.508393139E-1,6.811711788E0,9.759063721E0
1.447830172E0,7.158881426E-1,7.108602047E0,1.167448425E1
1.449829938E0,9.840469360E-1,7.161275864E0,1.265374279E1
1.451829704E0,1.517970204E0,7.108602047E0,1.448057365E1
1.453829470E0,2.099778891E0,6.972128391E0,1.585967636E1
1.455829236E0,2.660039425E0,6.773403645E0,1.660190201E1
1.457829002E0,2.899466753E0,6.665660858E0,1.668330765E1
1.459828835E0,3.198751211E0,6.428627968E0,1.631698227E1
1.461828601E0,3.234665155E0,6.318490982E0,1.590756226E1
1.463828367E0,3.124528646E0,6.100612164E0,1.481337833E1
1.465828133E0,2.724684715E0,5.968926907E0,1.346300697E1
1.467827399E0,2.427794695E0,5.928224564E0,1.276627350E1
1.469827165E0,1.723877907E0,5.870761871E0,1.141350842E1
1.471826931E0,9.002473354E-1,5.892310143E0,1.024749660E1
1.473826697E0,4.597007632E-1,5.909070015E0,9.771035194E0
1.475826497E0,-8.044763207E-1,6.117372036E0,8.674457550E0
1.477825897E0,-1.177983165E0,6.210748672E0,8.413481712E0
1.479825630E0,-1.529941559E0,6.308914185E0,8.207573891E0
1.481825363E0,-2.135693073E0,6.531581879E0,7.913078308E0
1.483825096E0,-2.640885115E0,6.780586243E0,7.786181450E0
1.485824829E0,-2.856369734E0,6.917059898E0,7.769421577E0
1.487824562E0,-3.241847992E0,7.178035736E0,7.819701672E0
1.489824295E0,-3.526766777E0,7.446194649E0,7.963357925E0
1.491824095E0,-3.629720688E0,7.568302631E0,8.063917160E0
1.493823828E0,-3.821262598E0,7.795758724E0,8.305739403E0
1.495823561E0,-3.950553417E0,7.977723598E0,8.590658188E0
1.497823294E0,-3.979284763E0,8.039975166E0,8.734314919E0
1.499823027E0,-4.029564381E0,8.130957603E0,9.024022102E0
1.501822760E0,-4.053507328E0,8.162082672E0,9.284997940E0
1.503822493E0,-4.063084126E0,8.166871071E0,9.421471596E0
1.505822293E0,-4.098998547E0,8.150111198E0,9.725543976E0
1.507822093E0,-4.110970020E0,8.116591454E0,1.007271385E1
1.509821826E0,-4.130124092E0,8.133351326E0,1.025707340E1
1.511821559E0,-4.302511692E0,8.315316200E0,1.064255142E1
1.513821292E0,-4.869955063E0,8.925856590E0,1.087958431E1
1.515821025E0,-5.181210518E0,9.251478195E0,1.067607117E1
1.517820758E0,-5.279376030E0,9.282603264E0,1.061382008E1
1.519820491E0,-5.379935265E0,9.292180061E0,1.076465988E1
1.521820291E0,-5.554717541E0,9.277814865E0,1.094662476E1
1.523820091E0,-5.569083214E0,9.213169098E0,1.149251938E1
1.525819824E0,-5.528380394E0,9.174860954E0,1.178222656E1
1.527819557E0,-5.442186832E0,9.103033066E0,1.233051491E1
1.529819290E0,-5.312895775E0,8.959376335E0,1.276627350E1
1.531819023E0,-5.250644684E0,8.832479477E0,1.294823837E1
1.533818756E0,-5.154873848E0,8.576292038E0,1.328583050E1
1.535818489E0,-5.030371189E0,8.195602417E0,1.353962421E1
1.537818355E0,-4.968120098E0,7.960963726E0,1.364018345E1
1.539818088E0,-4.843617916E0,7.486897469E0,1.386524582E1
1.541817821E0,-4.728692532E0,7.055927753E0,1.409749031E1
1.543817554E0,-4.702355862E0,6.902694225E0,1.420762634E1
1.545817287E0,-4.690384388E0,6.723123550E0,1.435367775E1
1.547817020E0,-4.702355862E0,6.725517750E0,1.440635109E1
1.549816753E0,-4.714327335E0,6.751854897E0,1.440156269E1
1.551816486E0,-4.778972626E0,6.859597206E0,1.431297493E1
1.553816286E0,-4.922628880E0,6.969734192E0,1.418607807E1
1.555816019E0,-5.159662247E0,7.053533554E0,1.410227871E1
1.557815752E0,-5.305713177E0,7.087053299E0,1.405439281E1
1.559815485E0,-5.631334305E0,7.103813171E0,1.396580505E1
1.561815218E0,-5.808510780E0,7.101418972E0,1.399214172E1
1.563814951E0,-6.150891781E0,7.125361919E0,1.415495300E1
1.565814684E0,-6.476513386E0,7.173247337E0,1.425551224E1
1.567814417E0,-6.629746914E0,7.175641537E0,1.434170628E1
1.569814217E0,-6.924242973E0,7.146910191E0,1.468408775E1
1.571813950E0,-7.223526955E0,7.084659100E0,1.501689148E1
1.573813683E0,-7.367183685E0,7.020013809E0,1.520603943E1
1.575813416E0,-7.604216576E0,6.766220570E0,1.576629925E1
1.577813149E0,-7.848433018E0,6.639324188E0,1.596741867E1
1.579812882E0,-8.011243820E0,6.519610405E0,1.618290329E1
1.581812615E0,-8.418270111E0,6.287365437E0,1.657556534E1
1.583812348E0,-8.913885117E0,5.995264053E0,1.683654022E1
1.585812148E0,-9.170072556E0,5.770202160E0,1.689879227E1
1.587811881E0,-9.706390381E0,5.238673210E0,1.690118599E1
1.589811614E0,-1.023552513E1,4.527573586E0,1.673837471E1
1.591811347E0,-1.047495270E1,4.132518291E0,1.660429573E1
1.593811080E0,-1.082691097E1,3.392687321E0,1.623318291E1
1.595810813E0,-1.099690437E1,2.813272953E0,1.570644283E1
1.597810646E0,-1.101366425E1,2.576239586E0,1.543110085E1
1.599810446E0,-1.095141315E1,2.169213057E0,1.487802410E1
1.601810246E0,-1.066649437E1,1.924996972E0,1.429621506E1
1.603809979E0,-1.047495270E1,1.826831698E0,1.400650787E1
1.605809712E0,-1.006313705E1,1.666415215E0,1.347019005E1
1.607809445E0,-9.869200706E0,1.563461423E0,1.309668350E1
1.609808245E0,-9.615407944E0,1.534730196E0,1.299372959E1
1.611807978E0,-9.632167816E0,1.577827096E0,1.289316940E1
1.613807711E0,-9.864412308E0,1.740637779E0,1.290514088E1
1.615808644E0,-1.183250618E1,2.183578730E0,1.302724934E1
1.617808377E0,-1.269444466E1,2.530748367E0,1.310865498E1
1.619808110E0,-1.356356716E1,2.925803900E0,1.323315716E1
1.621807843E0,-1.488999462E1,3.960130453E0,1.357314396E1
1.623807576E0,-1.501210308E1,4.903474808E0,1.366652107E1
1.625807309E0,-1.496900654E1,4.486870766E0,1.364257812E1
1.627807042E0,-1.604882431E1,1.781340480E0,1.350370979E1
1.629806775E0,-1.827071190E1,-2.394274808E-2,1.371680069E1
1.631806575E0,-1.928348923E1,-3.591412306E-2,1.425311756E1
1.633806308E0,-2.036330795E1,9.672870040E-1,1.565137482E1
1.635806041E0,-2.010712051E1,2.188367128E0,1.630979919E1
1.637805774E0,-1.960671616E1,2.770175934E0,1.627627945E1
1.639805507E0,-1.831859589E1,3.742251635E0,1.589080143E1
1.641805240E0,-1.687005997E1,4.419831276E0,1.540476418E1
1.643804973E0,-1.617811394E1,4.664047241E0,1.514378834E1
1.645804706E0,-1.499534321E1,5.025582790E0,1.458113384E1
1.647804506E0,-1.386524582E1,5.444581032E0,1.398495960E1
1.649804239E0,-1.326188850E1,5.614574432E0,1.369764614E1
1.651803972E0,-1.209108734E1,5.992869854E0,1.312062550E1
1.653803705E0,-1.142069054E1,6.368771076E0,1.269923401E1
1.655803438E0,-1.117647457E1,6.603409767E0,1.251008606E1
1.657802371E0,-1.103042412E1,6.747066498E0,1.250050831E1
1.659802104E0,-1.027143860E1,7.106207848E0,1.260346222E1
1.661801837E0,-9.699207306E0,7.259441376E0,1.269923401E1
1.663801637E0,-8.588263512E0,7.388731956E0,1.281894779E1
1.665801370E0,-7.867587090E0,7.290566921E0,1.275909042E1
1.667801103E0,-7.834067345E0,7.103813171E0,1.266571331E1
1.669801769E0,-8.212362289E0,6.691998005E0,1.235924625E1
1.671801502E0,-8.107014656E0,6.361588001E0,1.188278580E1
1.673801235E0,-7.719141960E0,6.193988800E0,1.157631874E1
1.675799835E0,-6.466936111E0,5.739076614E0,1.091310501E1
1.677799635E0,-5.056708336E0,5.602602959E0,1.037918091E1
1.679799435E0,-4.506025314E0,5.487678051E0,1.019961071E1
1.681799168E0,-3.768588543E0,5.444581032E0,9.912297249E0
1.683798901E0,-3.126922846E0,5.533169270E0,9.692024231E0
1.685798634E0,-3.004814863E0,5.621757030E0,9.624984741E0
1.687798367E0,-3.122134447E0,5.861184597E0,9.488511086E0
1.689798100E0,-3.198751211E0,6.198777676E0,9.330489159E0
1.691797833E0,-3.102980137E0,6.363982677E0,9.251478195E0
1.693797633E0,-2.830032825E0,6.610592842E0,9.086273193E0
1.695797366E0,-2.695953369E0,6.749460697E0,8.868393898E0
1.697797099E0,-2.729473352E0,6.790163517E0,8.743891716E0
1.699796832E0,-2.842004299E0,6.873962879E0,8.461367607E0
1.701796565E0,-2.906649590E0,6.960156918E0,8.150111198E0
1.703796298E0,-3.091008663E0,7.031985283E0,7.989695072E0
1.705796031E0,-3.325647593E0,7.194795609E0,7.656890869E0
1.707795764E0,-3.454938650E0,7.360000610E0,7.501263142E0
1.709795564E0,-3.610566378E0,7.431828976E0,7.166064739E0
1.711795297E0,-3.634509087E0,7.577879906E0,6.787769318E0
1.713795030E0,-3.646480560E0,7.659285069E0,6.531581879E0
1.715794763E0,-3.521978140E0,7.647313595E0,6.052726746E0
1.717794063E0,-3.282550812E0,7.539571285E0,6.055120945E0
1.719793796E0,-2.959323645E0,7.300143719E0,6.107795238E0
1.721793529E0,-2.157241583E0,7.213950157E0,6.280182838E0
1.723793262E0,-1.230657220E0,7.130150318E0,6.579467297E0
1.725793062E0,-7.805336118E-1,7.163670063E0,6.771008968E0
1.727792795E0,7.182824425E-3,7.474925995E0,7.106207848E0
1.729793695E0,6.153286099E-1,8.016032219E0,7.319298267E0
1.731793428E0,8.715160489E-1,8.300951004E0,7.362394810E0
1.733793161E0,1.252205729E0,8.736708641E0,7.309720993E0
1.735792894E0,1.501210332E0,8.968953133E0,7.225921154E0
1.737792627E0,1.568249941E0,9.033598900E0,7.079870701E0
1.739792360E0,1.692752242E0,8.492492676E0,6.517216206E0
1.741792160E0,1.446141958E0,7.422251701E0,5.937801361E0
1.743791893E0,1.223474383E0,7.024802208E0,5.585843086E0
1.745791626E0,6.320885420E-1,6.615381241E0,4.841223717E0
1.747791359E0,8.858817071E-2,6.689603806E0,4.237866402E0
1.749791092E0,-1.388679445E-1,6.854808807E0,4.053507328E0
1.751790825E0,-4.213923812E-1,7.381549358E0,3.938581944E0
1.753790558E0,-4.908263385E-1,7.867587090E0,4.039141655E0
1.755790358E0,-5.099805593E-1,8.229122162E0,4.127729893E0
1.757790158E0,-4.908263385E-1,8.360807419E0,4.163643837E0
1.759789891E0,-5.123748183E-1,8.490098000E0,4.168432236E0
1.761789624E0,-5.937801600E-1,8.485309601E0,4.173221111E0
1.763789357E0,-8.739103079E-1,8.351230621E0,4.204346657E0
1.765789090E0,-1.245022893E0,8.193208694E0,4.369551659E0
1.767788823E0,-1.436564922E0,8.111803055E0,4.462928295E0
1.769788556E0,-1.810071707E0,8.044763565E0,4.692778587E0
1.771788356E0,-2.109356165E0,8.006455421E0,4.965725899E0
1.773788156E0,-2.209915638E0,7.989695072E0,5.097411156E0
1.775787889E0,-2.358360767E0,7.901106834E0,5.324867249E0
1.777788922E0,-2.396669149E0,7.699987888E0,5.478100777E0
1.779788655E0,-2.384697676E0,7.541965485E0,5.547534943E0
1.781788388E0,-2.327235222E0,7.142121792E0,5.712739468E0
1.783788121E0,-2.200338602E0,6.756643295E0,5.894704342E0
1.785787854E0,-2.111750364E0,6.589044094E0,6.004841328E0
1.787787654E0,-1.853168726E0,6.323279858E0,6.270605564E0
1.789786220E0,-1.477267504E0,6.155680656E0,6.584255695E0
1.791785953E0,-1.278542757E0,6.129343510E0,6.747066498E0
1.793785686E0,-9.002473354E-1,6.136526108E0,7.046350956E0
1.795785419E0,-6.153286099E-1,6.215537548E0,7.350423813E0
1.797785152E0,-5.195576549E-1,6.294548512E0,7.491685867E0
1.799784885E0,-4.740664065E-1,6.459753513E0,7.716747761E0
1.801784618E0,-5.027977228E-1,6.620169640E0,7.798152924E0
1.803784418E0,-6.584255695E-1,6.694392204E0,7.929838181E0
1.805784151E0,-8.715160489E-1,6.914665699E0,7.970541000E0
1.807783884E0,-9.816526771E-1,7.039167881E0,7.956175327E0
1.809783617E0,-1.199531674E0,7.328875065E0,7.879558563E0
1.811783350E0,-1.359948039E0,7.659285069E0,7.776604652E0
1.813783083E0,-1.393467903E0,7.800547123E0,7.711959362E0
1.815782816E0,-1.324033976E0,8.159688950E0,7.501263142E0
1.817782549E0,-1.266571403E0,8.272219658E0,7.412674904E0
1.819782349E0,-1.204320192E0,8.334470749E0,7.312115192E0
1.821782115E0,-9.960182905E-1,8.360807419E0,7.125361919E0
1.823782448E0,-7.637736797E-1,8.257853508E0,6.945791245E0
1.825782214E0,-6.608198285E-1,8.087860107E0,6.869174480E0
1.827781980E0,-3.375927508E-1,7.508445740E0,6.785374641E0
1.829781746E0,1.604164094E-1,6.696786404E0,6.737489223E0
1.831781512E0,4.166038036E-1,6.320885658E0,6.792557716E0
1.833781278E0,7.589851022E-1,6.004841328E0,7.043956280E0
1.835781111E0,7.757450342E-1,6.715940952E0,7.309720993E0
1.837779944E0,6.871568561E-1,6.715940952E0,7.403097630E0
1.839779710E0,3.304099143E-1,7.714353561E0,7.486897469E0
1.841779476E0,-2.729473412E-1,8.736708641E0,7.494080067E0
1.843779242E0,-6.775797606E-1,9.117398262E0,7.491685867E0
1.845779008E0,-1.654443860E0,9.474145889E0,7.565908432E0
1.847778774E0,-2.772570133E0,9.196409225E0,7.637736797E0
1.849778607E0,-3.340013266E0,8.813325882E0,7.620976925E0
1.851778440E0,-4.443774223E0,7.664073467E0,7.427040577E0
1.853778206E0,-5.389512539E0,6.296942711E0,7.005648136E0
1.855777972E0,-6.105400562E0,4.965725899E0,6.557918549E0
1.857777738E0,-6.371165276E0,4.367157459E0,6.423839092E0
1.859777504E0,-6.680026531E0,3.486064196E0,6.378347874E0
1.861777270E0,-6.694392204E0,3.229876757E0,6.474119186E0
1.863777036E0,-6.426233768E0,3.086220264E0,6.969734192E0
1.865776869E0,-5.798933506E0,3.363956213E0,7.735901833E0
1.867776635E0,-5.341627121E0,3.653663397E0,8.193208694E0
1.869776401E0,-4.228289127E0,4.525179386E0,9.174860954E0
1.871776167E0,-2.961717844E0,5.581054688E0,1.011102295E1
1.873775933E0,-2.358360767E0,6.165257454E0,1.049410629E1
1.875775699E0,-1.333611012E0,7.343240738E0,1.098972130E1
1.877775465E0,-6.177229285E-1,8.324893951E0,1.092507553E1
1.879775231E0,-3.447755575E-1,8.643332481E0,1.066649437E1
1.881775031E0,3.591412306E-2,8.961771011E0,9.778218269E0
1.883774197E0,1.436564922E-1,8.921068192E0,8.751074791E0
1.885773930E0,9.816526622E-2,8.834874153E0,8.267431259E0
1.887773663E0,-8.140534163E-2,8.420664787E0,7.182824612E0
1.889773396E0,-1.245022863E-1,7.417463303E0,6.146103382E0
1.891773129E0,9.577099234E-2,6.888328552E0,5.832453251E0
1.893772862E0,5.530774593E-1,6.363982677E0,5.516408920E0
1.895772595E0,1.089395046E0,6.596227169E0,5.360781193E0
1.897772461E0,1.364736676E0,6.979310989E0,5.365570068E0
1.899772194E0,2.126116037E0,8.154899597E0,5.739076614E0
1.901771927E0,2.638490915E0,8.868393898E0,6.050332546E0
1.903771660E0,3.371139050E0,1.047255802E1,6.665660858E0
1.905771393E0,4.039141655E0,1.226587009E1,7.134938717E0
1.907771126E0,4.501236439E0,1.312541485E1,7.285778046E0
1.909770859E0,5.391906738E0,1.457155609E1,7.350423813E0
1.911770592E0,6.021601200E0,1.539758110E1,7.187613010E0
1.913770392E0,6.241874218E0,1.542152405E1,7.051139355E0
1.915770125E0,5.700768471E0,1.346061325E1,6.057515144E0
1.917769858E0,4.996851444E0,1.234009266E1,5.545140266E0
1.919769591E0,4.168432236E0,1.116929245E1,4.999245644E0
1.921769324E0,2.492439985E0,8.877970695E0,4.027170181E0
1.923769057E0,1.017566800E0,6.782980442E0,3.395081758E0
1.925768790E0,3.735068738E-1,5.801327705E0,3.215511084E0
1.927768590E0,-6.416656375E-1,3.976890564E0,3.062277555E0
1.929768390E0,-1.347976685E0,2.456526041E0,3.119740009E0
1.931768123E0,-1.606558442E0,1.869928598E0,3.213116884E0
1.933767856E0,-1.905842781E0,1.151646137E0,3.541132450E0
1.935767589E0,-1.889082789E0,1.101366401E0,4.156461239E0
1.937767322E0,-1.699935079E0,1.333611012E0,4.587430477E0
1.939767055E0,-1.005595446E0,2.174001455E0,5.662459850E0
1.941766788E0,1.197137404E-2,3.292127848E0,6.897905827E0
1.943766588E0,5.674431324E-1,3.921822071E0,7.494080067E0
1.945766321E0,1.652049661E0,5.236279011E0,8.605023384E0
1.947766054E0,2.566662550E0,6.421444893E0,9.507665634E0
1.949765787E0,2.892283916E0,6.948185444E0,9.852440834E0
1.951765520E0,3.249030828E0,7.824490070E0,1.030735302E1
1.953765253E0,3.129317284E0,8.487704277E0,1.036721039E1
1.955764986E0,2.669616461E0,8.904308319E0,1.012059975E1
1.957763786E0,2.332023621E0,9.002472878E0,9.909903526E0
1.959763586E0,1.510787368E0,9.062330246E0,9.325700760E0
1.961763319E0,1.051086664E0,9.040781975E0,8.980924606E0
1.963763052E0,9.816526622E-2,8.940221786E0,8.277008057E0
1.965762785E0,-7.972934842E-1,8.775016785E0,7.709564686E0
1.967762518E0,-1.199531674E0,8.674457550E0,7.501263142E0
1.969762251E0,-1.939362645E0,8.439818382E0,7.154093266E0
1.971761984E0,-2.537931204E0,8.181237221E0,6.919454098E0
1.973761717E0,-2.770175934E0,8.063917160E0,6.859597206E0
1.975761517E0,-3.110162973E0,7.848433018E0,6.857203007E0
1.977761250E0,-3.263396502E0,7.632947922E0,6.883540154E0
1.979760983E0,-3.577046633E0,7.577879906E0,6.938608170E0
1.981760716E0,-3.799714088E0,7.589851379E0,7.101418972E0
1.983760449E0,-3.881119490E0,7.726325035E0,7.204372883E0
1.985760182E0,-3.969707727E0,7.802941799E0,7.360000610E0
1.987759915E0,-3.917033672E0,7.975329399E0,7.467742920E0
1.989759648E0,-3.885908127E0,8.032792091E0,7.489291668E0
1.991759448E0,-3.861965179E0,8.097437859E0,7.443800449E0
1.993759181E0,-3.976890564E0,8.128562927E0,7.472531796E0
1.995758914E0,-4.218712330E0,8.032792091E0,7.470137596E0
1.997758647E0,-4.333637238E0,7.965752125E0,7.393520832E0
1.999758380E0,-4.884320736E0,7.807730198E0,7.558725357E0
2.001758113E0,-5.492466450E0,7.673650742E0,8.260248184E0
2.003757846E0,-6.996070862E0,7.285778046E0,1.056354046E1
2.005757646E0,-8.707977295E0,6.835654736E0,1.303443241E1
2.007757446E0,-9.352037430E0,6.634535313E0,1.386045647E1
2.009757179E0,-9.840469360E0,6.287365437E0,1.413819313E1
2.011756912E0,-9.431048393E0,6.019207001E0,1.266331959E1
2.013756645E0,-9.088666916E0,5.899493217E0,1.159068394E1
2.015756378E0,-8.461367607E0,5.667248249E0,8.482915878E0
2.017757044E0,-8.492492676E0,5.612180233E0,7.623371124E0
2.019756777E0,-8.576292038E0,5.585843086E0,6.850020409E0
2.021756577E0,-8.684034348E0,5.638517380E0,5.480494976E0
2.023756377E0,-8.597841263E0,5.837242126E0,4.340820312E0
2.025756110E0,-8.463761330E0,5.925830364E0,3.823656797E0
2.027755843E0,-8.023215294E0,6.076669693E0,2.992843628E0
2.029755576E0,-7.383943558E0,6.201171875E0,2.504411459E0
2.031755309E0,-7.053533554E0,6.241874218E0,2.351177931E0
2.033755042E0,-6.366376877E0,6.208354473E0,2.109356165E0
2.035754875E0,-5.724710941E0,6.160469055E0,2.015979290E0
2.037754675E0,-5.485283375E0,6.193988800E0,2.075836182E0
2.039754441E0,-5.188393593E0,6.292154312E0,2.418217659E0
2.041754207E0,-4.970514297E0,6.500456333E0,2.853975534E0
2.043753973E0,-4.853195190E0,6.639324188E0,3.081431627E0
2.045753739E0,-4.692778587E0,6.948185444E0,3.526766777E0
2.047753505E0,-4.673624516E0,7.204372883E0,3.890696526E0
2.049753271E0,-4.726298332E0,7.307326794E0,4.046324253E0
2.051753037E0,-4.822069645E0,7.484503269E0,4.331243038E0
2.053752870E0,-4.872349262E0,7.685622215E0,4.582642078E0
2.055752670E0,-5.006428719E0,7.800547123E0,4.637710094E0
2.057752470E0,-5.068679810E0,7.855615616E0,4.652075768E0
2.059752270E0,-5.214730740E0,7.980117798E0,4.678412914E0
2.061752070E0,-5.214730740E0,8.032792091E0,4.711932659E0
2.063751870E0,-5.066285610E0,8.123774529E0,4.810098171E0
2.065751670E0,-4.747847080E0,8.212362289E0,4.893897533E0
2.067751470E0,-4.585036278E0,8.245882034E0,4.968120098E0
2.069751336E0,-4.242654800E0,8.257853508E0,5.200365067E0
2.071751202E0,-4.098998547E0,8.202785492E0,5.521197796E0
2.073751068E0,-3.723097324E0,8.202785492E0,5.681613922E0
2.075750934E0,-3.320859194E0,8.164477348E0,5.976109982E0
2.077751167E0,-3.150865555E0,8.128562927E0,6.251451492E0
2.079751033E0,-2.789330244E0,8.104619980E0,6.373559475E0
2.081750966E0,-2.535537004E0,8.023215294E0,6.579467297E0
2.083750832E0,-2.423006058E0,7.996877670E0,6.658478260E0
2.085750765E0,-2.332023621E0,7.999272346E0,6.660872459E0
2.087750631E0,-2.403851986E0,8.030397415E0,6.598621368E0
2.089750497E0,-2.511594296E0,8.090254784E0,6.543552876E0
2.091750363E0,-2.779752970E0,8.262641907E0,6.438204765E0
2.093750229E0,-3.007209063E0,8.447001457E0,6.608198643E0
2.095749995E0,-3.035940409E0,8.590658188E0,6.919454098E0
2.097749861E0,-2.918621063E0,8.636149406E0,7.087053299E0
2.099749761E0,-2.662433624E0,8.564320564E0,7.541965485E0
2.101749661E0,-2.581028223E0,8.432636261E0,7.757450581E0
2.103749494E0,-2.458920240E0,8.102226257E0,8.073494911E0
2.105749327E0,-2.533142805E0,7.819701672E0,8.277008057E0
2.107749160E0,-2.669616461E0,7.692804813E0,8.358413696E0
2.109748993E0,-3.016786337E0,7.474925995E0,8.379961967E0
2.111748826E0,-3.699154615E0,7.472531796E0,8.324893951E0
2.113748659E0,-4.151672363E0,7.558725357E0,8.367990494E0
2.115748525E0,-5.030371189E0,7.982511997E0,8.818114281E0
2.117748325E0,-5.073468208E0,8.123774529E0,9.055147171E0
2.119748125E0,-5.027976990E0,8.217150688E0,9.273026466E0
2.121747925E0,-4.637710094E0,8.236305237E0,9.749486923E0
2.123747725E0,-4.108575344E0,8.044763565E0,1.031214142E1
2.125747525E0,-3.703943014E0,7.848433018E0,1.048931789E1
2.127747325E0,-2.655250788E0,7.271412373E0,1.042467213E1
2.129747125E0,-1.989642382E0,6.572284222E0,9.888355255E0
2.131746925E0,-1.836408734E0,6.263422966E0,9.569916725E0
2.133746658E0,-1.714300752E0,5.842030525E0,8.837267876E0
2.135746391E0,-1.848380208E0,5.552323341E0,8.221940041E0
2.137745324E0,-1.972882390E0,5.451763630E0,8.035185814E0
2.139745257E0,-2.411034822E0,5.497254848E0,7.790970325E0
2.141744923E0,-2.818061352E0,5.786962032E0,7.716747761E0
2.143744656E0,-2.966506481E0,6.002447128E0,7.750267506E0
2.145744389E0,-3.105374336E0,6.423839092E0,7.886741161E0
2.147744189E0,-3.174808502E0,6.763826370E0,7.970541000E0
2.149743922E0,-3.150865555E0,6.919454098E0,7.977723598E0
2.151743655E0,-3.083826065E0,7.182824612E0,8.073494911E0
2.153743388E0,-3.225088120E0,7.352818012E0,8.243488312E0
2.155743121E0,-3.356773376E0,7.486897469E0,8.518829346E0
2.157742854E0,-3.430995703E0,7.568302631E0,8.633754730E0
2.159742587E0,-3.648874760E0,7.625765324E0,8.810931206E0
2.161742320E0,-3.768588543E0,7.611399651E0,8.892336845E0
2.163742120E0,-4.065478802E0,7.656890869E0,8.897125244E0
2.165741853E0,-4.192375183E0,7.743084908E0,8.832479477E0
2.167741586E0,-4.288146019E0,7.769421577E0,8.870788574E0
2.169741319E0,-3.988861799E0,7.925049782E0,9.217958450E0
2.171741052E0,-3.510006905E0,8.078283310E0,9.380768776E0
2.173740785E0,-2.348783493E0,8.035185814E0,9.632167816E0
2.175740518E0,-1.948939681E0,7.723930359E0,1.007750225E1
2.177740318E0,-2.183578730E0,7.403097630E0,1.028341007E1
2.179739918E0,-3.040729046E0,6.514821529E0,1.014933109E1
2.181739651E0,-3.517189741E0,5.648094177E0,8.945011139E0
2.183739384E0,-3.447755814E0,5.255433083E0,8.130957603E0
2.185739117E0,-2.772570133E0,4.731087208E0,6.581861496E0
2.187738850E0,-1.774157643E0,4.537150860E0,5.607391834E0
2.189738583E0,-1.369525194E0,4.484476566E0,5.470917702E0
2.191738316E0,-1.063058019E0,4.472505569E0,5.767807961E0
2.193738116E0,-1.491633177E0,4.616161823E0,6.287365437E0
2.195737849E0,-1.989642382E0,4.841223717E0,6.780586243E0
2.197738015E0,-1.874717116E0,4.884320736E0,7.175641537E0
2.199737548E0,-1.271359921E0,5.095016956E0,7.944203854E0
2.201737281E0,-1.307274103E0,5.394300938E0,8.176448822E0
2.203737014E0,-3.993650436E0,7.747873306E0,6.914665699E0
2.205736747E0,-5.109382629E0,9.119792938E0,8.808537483E0
2.207736480E0,-5.042342663E0,9.213169098E0,1.051086617E1
2.209736780E0,-4.348002911E0,8.427846909E0,1.309668350E1
2.211736513E0,-2.813272953E0,7.060716629E0,1.331216812E1
2.213736246E0,-1.869928598E0,6.373559475E0,1.259867382E1
2.215735979E0,8.092648983E-1,4.616161823E0,8.889942169E0
2.217735712E0,1.340793848E0,4.151672363E0,7.635342598E0
2.219735445E0,1.479661822E0,3.792531252E0,6.605803967E0
2.221735178E0,5.913859010E-1,3.529160976E0,5.468523502E0
2.223734911E0,-1.163617611E0,3.960130453E0,5.664854050E0
2.225734711E0,-2.059076309E0,4.245049000E0,6.282577038E0
2.227734444E0,-3.617749214E0,4.623344421E0,7.802941799E0
2.229734177E0,-4.264203548E0,4.532361984E0,9.165284157E0
2.231733910E0,-4.182797909E0,4.280963421E0,9.754275322E0
2.233733643E0,-3.332830429E0,3.500429869E0,1.041509533E1
2.235733376E0,-1.826831698E0,2.722290516E0,8.451789856E0
2.237733109E0,-9.960182905E-1,2.461314440E0,6.591438770E0
2.239733042E0,4.740664065E-1,2.176395893E0,2.494834423E0
2.241732842E0,1.012778282E0,2.545114040E0,-5.698373914E-1
2.243732342E0,9.050358534E-1,2.921015263E0,-1.331216812E0
2.245732075E0,2.825244367E-1,3.663240433E0,-1.120520592E0
2.247731808E0,-7.110996246E-1,4.264203548E0,1.041509509E0
2.249731541E0,-1.235445857E0,4.477293968E0,2.482862949E0
2.251731274E0,-2.039922237E0,4.838829517E0,5.344021320E0
2.253731007E0,-2.281744003E0,5.083045483E0,7.582668304E0
2.255730807E0,-2.083019018E0,5.231490612E0,8.772623062E0
2.257730607E0,-1.903448462E0,5.353598595E0,8.861210823E0
2.259730340E0,-1.690358043E0,5.547534943E0,8.430241585E0
2.261730073E0,-1.410227895E0,5.616968632E0,7.958569527E0
2.263729806E0,-1.312062621E0,5.590631485E0,6.938608170E0
2.265729539E0,-1.355159521E0,5.542746067E0,6.428627968E0
2.267729272E0,-1.462901950E0,5.399089813E0,5.590631485E0
2.269728505E0,-1.556278586E0,5.236279011E0,5.128536701E0
2.271728305E0,-1.589798450E0,5.212336063E0,4.958543301E0
2.273728105E0,-1.472478986E0,5.229096413E0,4.865166187E0
2.275727838E0,-1.115732074E0,5.332049847E0,5.092622280E0
2.277727571E0,-9.241901040E-1,5.394300938E0,5.231490612E0
2.279727304E0,-5.171633363E-1,5.370358467E0,5.686402798E0
2.281727037E0,-3.567469418E-1,5.399089813E0,6.093429565E0
2.283726770E0,-3.759011328E-1,5.439792156E0,6.277788639E0
2.285726503E0,-5.219519138E-1,5.604997158E0,6.560312748E0
2.287726303E0,-5.291347504E-1,5.894704342E0,6.778192043E0
2.289726036E0,-4.668835998E-1,6.112583637E0,6.828471661E0
2.291725769E0,1.436564885E-2,6.526793003E0,7.132544518E0
2.293725802E0,7.254652381E-1,6.591438770E0,8.164477348E0
2.295726135E0,7.446194887E-1,6.174834728E0,9.804554939E0
2.297725868E0,4.070267081E-1,5.830059052E0,1.065212822E1
2.299725601E0,-6.584255695E-1,4.901080608E0,1.213179016E1
2.301725334E0,-1.242628574E0,4.429408550E0,1.252205753E1
2.303725367E0,-2.140481710E0,3.579440832E0,1.240952587E1
2.305725100E0,-2.336812258E0,2.748627424E0,1.147815323E1
2.307724833E0,-2.164424419E0,2.394274712E0,1.087000751E1
2.309724566E0,-1.477267504E0,1.884294271E0,9.464568138E0
2.311724299E0,-7.326480746E-1,1.604164124E0,7.920260906E0
2.313724032E0,-4.644893110E-1,1.537124395E0,7.146910191E0
2.315723765E0,1.699935049E-1,1.733454943E0,4.846012115E0
2.317723498E0,3.256213665E-1,1.901054144E0,4.118152618E0
2.319723298E0,4.716721475E-1,2.063864946E0,3.452544212E0
2.321723031E0,7.230709791E-1,2.262589693E0,2.707924843E0
2.323722764E0,7.637736797E-1,2.355966330E0,2.691164970E0
2.325722497E0,6.608198285E-1,2.399063349E0,2.815667152E0
2.327722230E0,3.878725171E-1,2.451737404E0,3.196356773E0
2.329721963E0,2.442160249E-1,2.602576733E0,3.711125851E0
2.331721696E0,2.322446555E-1,2.774964571E0,3.976890564E0
2.333721429E0,3.112557232E-1,3.256213665E0,4.498842239E0
2.335721229E0,4.166038036E-1,3.766194344E0,5.308107376E0
2.337720962E0,3.902668059E-1,4.017592907E0,5.844424725E0
2.339720695E0,2.394274808E-2,4.510813713E0,6.897905827E0
2.341720428E0,-7.134938836E-1,4.869955063E0,7.556331158E0
2.343720161E0,-1.072635174E0,4.944177628E0,7.750267506E0
2.345719894E0,-1.618529797E0,4.896292210E0,7.984906673E0
2.347720027E0,-1.920208454E0,4.716721535E0,7.834067345E0
2.349719827E0,-1.924996972E0,4.625739098E0,7.609005451E0
2.351719627E0,-1.594586968E0,4.376734257E0,7.197190285E0
2.353719060E0,-1.321639657E0,4.180403709E0,7.079870701E0
2.355718193E0,-5.913859010E-1,4.168432236E0,6.557918549E0
2.357717926E0,-3.423812985E-1,4.180403709E0,6.390319347E0
2.359717659E0,-9.098244458E-2,4.194769382E0,6.296942711E0
2.361717392E0,2.777358890E-1,4.302511692E0,6.148497581E0
2.363716692E0,3.974496126E-1,4.517996788E0,5.952167034E0
2.365716492E0,3.711125851E-1,4.628133297E0,5.849213123E0
2.367716225E0,1.460507661E-1,4.874743462E0,5.693585396E0
2.369715958E0,-1.436564922E-1,5.042342663E0,5.640911579E0
2.371715691E0,-2.753416002E-1,5.083045483E0,5.645699978E0
2.373715424E0,-4.309694767E-1,5.054314137E0,5.619362831E0
2.375715157E0,-4.956148863E-1,4.841223717E0,5.695979595E0
2.377714890E0,-4.956148863E-1,4.841223717E0,5.695979595E0
2.379714623E0,-5.674431324E-1,4.795732498E0,5.612180233E0
2.381714156E0,-5.626545548E-1,4.738269806E0,5.619362831E0
2.383713889E0,-5.458946824E-1,4.738269806E0,5.707951069E0
2.385713622E0,-5.411061049E-1,4.884320736E0,5.842030525E0
2.387713355E0,-5.267404318E-1,5.147690773E0,5.983292580E0
2.389713088E0,-4.836435020E-1,5.293741703E0,6.186806202E0
2.391712821E0,-4.189980924E-1,5.636122704E0,6.612987041E0
2.393712554E0,-4.213923812E-1,5.897099018E0,6.972128391E0
2.395712287E0,-2.657645047E-1,5.899493217E0,7.597033978E0
2.397712087E0,-2.513988614E-1,5.854001999E0,7.948992252E0
2.399711820E0,-5.961744189E-1,5.834847927E0,8.298556328E0
2.401711553E0,-8.571503758E-1,5.887521744E0,8.324893951E0
2.403711286E0,-1.137280583E0,5.930618763E0,8.375173569E0
2.405711019E0,-1.096577883E0,5.760625362E0,8.693612099E0
2.407710352E0,-1.084606528E0,5.727105141E0,8.775016785E0
2.409710085E0,-1.216291547E0,5.765413761E0,8.511647224E0
2.411709818E0,-1.268965602E0,5.849213123E0,8.063917160E0
2.413709618E0,-1.209108829E0,5.827664852E0,8.028003693E0
2.415709351E0,-1.240234375E0,5.851607800E0,7.917866707E0
2.417708717E0,-1.314456820E0,5.887521744E0,7.735901833E0
2.419708450E0,-1.352765322E0,5.954561234E0,7.654496670E0
2.421708183E0,-1.280937076E0,5.940196037E0,7.757450581E0
2.423708349E0,-1.158828974E0,5.851607800E0,8.016032219E0
2.425708082E0,-1.132491946E0,5.832453251E0,8.075888634E0
2.427707882E0,-1.005595446E0,5.688796997E0,8.341653824E0
2.429707682E0,-9.409499764E-1,5.734288216E0,8.399115562E0
2.431707415E0,-8.834874034E-1,5.846818924E0,8.389538765E0
2.433707148E0,-6.967339516E-1,6.035966873E0,8.377567291E0
2.435706881E0,-4.381522834E-1,6.275394440E0,8.353624344E0
2.437706614E0,-3.567469418E-1,6.368771076E0,8.346442223E0
2.439706347E0,-3.687183261E-1,6.636929989E0,8.205180168E0
2.441706347E0,-4.118152559E-1,6.809317589E0,8.073494911E0
2.443706147E0,-3.351984620E-1,6.838048935E0,8.197997093E0
2.445705947E0,-2.921015322E-1,6.938608170E0,8.573898315E0
2.447705713E0,-2.154847383E-1,6.605803967E0,8.842057228E0
2.449705479E0,1.412622184E-1,6.177228928E0,9.785401344E0
2.451705512E0,1.508393139E-1,5.492466450E0,1.050847244E1
2.453705278E0,7.661679387E-2,5.432609558E0,1.069522572E1
2.455705044E0,2.753416002E-1,5.322473049E0,1.182292938E1
2.457704810E0,2.059076279E-1,5.262616158E0,1.179180336E1
2.459704643E0,-9.816526622E-2,5.320078850E0,1.124590874E1
2.461704409E0,-1.075029373E0,5.806116581E0,8.820508003E0
2.463704175E0,-1.223474383E0,5.420638084E0,7.072687626E0
2.465703275E0,-8.332076073E-1,4.484476566E0,7.649707794E0
2.467703041E0,-4.549122229E-2,3.002420664E0,9.148524284E0
2.469702807E0,4.453351200E-1,2.614548206E0,9.000079155E0
2.471702573E0,5.243461728E-1,2.602576733E0,8.411087036E0
2.473702339E0,1.891477108E-1,2.767781734E0,6.780586243E0
2.475702172E0,-6.847625971E-1,3.074248791E0,5.281770229E0
2.477702305E0,-1.221080184E0,3.258608103E0,4.699961662E0
2.479702071E0,-2.035133600E0,3.646480560E0,4.003227711E0
2.481701837E0,-2.387091875E0,4.046324253E0,3.988861799E0
2.483701603E0,-2.411034822E0,4.257020473E0,4.168432236E0
2.485701369E0,-2.298503876E0,4.642498970E0,4.891503334E0
2.487701135E0,-2.054287672E0,4.786155224E0,5.940196037E0
2.489700901E0,-1.924996972E0,4.800520897E0,6.488484859E0
2.491700734E0,-1.764580488E0,4.788549423E0,7.403097630E0
2.493700500E0,-1.678386688E0,4.750241280E0,7.869981289E0
2.495700266E0,-1.654443860E0,4.721509933E0,7.834067345E0
2.497700032E0,-1.668809533E0,4.735875607E0,7.666468143E0
2.499699798E0,-1.740637779E0,4.831646442E0,7.182824612E0
2.501699564E0,-1.766974807E0,4.908263206E0,6.931425571E0
2.503699330E0,-1.781340480E0,5.054314137E0,6.543552876E0
2.505699096E0,-1.774157643E0,5.140508175E0,6.340039730E0
2.507698896E0,-1.783734679E0,5.154873848E0,6.316096783E0
2.509698629E0,-1.800494671E0,5.154873848E0,6.409473896E0
2.511698095E0,-1.781340480E0,5.162056446E0,6.543552876E0
2.513697828E0,-1.757397652E0,5.162056446E0,6.598621368E0
2.515697561E0,-1.649655342E0,5.130930901E0,6.723123550E0
2.517697294E0,-1.517970204E0,5.047131062E0,6.802134514E0
2.519697027E0,-1.448536277E0,4.999245644E0,6.826077461E0
2.521696827E0,-1.331216812E0,4.893897533E0,6.821289062E0
2.523696627E0,-1.268965602E0,4.778972626E0,6.766220570E0
2.525697027E0,-1.240234375E0,4.738269806E0,6.730306625E0
2.527696760E0,-1.180377483E0,4.707144260E0,6.694392204E0
2.529696493E0,-1.127703428E0,4.728692532E0,6.706363678E0
2.531696226E0,-1.087000728E0,4.759818554E0,6.761432171E0
2.533695959E0,-1.022355318E0,4.896292210E0,6.924242973E0
2.535695692E0,-9.457385540E-1,5.162056446E0,7.132544518E0
2.537695225E0,-9.122186899E-1,5.291347504E0,7.261835575E0
2.539694958E0,-8.547561169E-1,5.525986195E0,7.549148560E0
2.541694691E0,-8.212362528E-1,5.681613922E0,7.676044941E0
2.543694424E0,-7.757450342E-1,5.700768471E0,7.910684109E0
2.545694157E0,-8.332076073E-1,5.698374271E0,8.080677032E0
2.547693890E0,-8.786988258E-1,5.672037125E0,8.140534401E0
2.549693623E0,-9.720755816E-1,5.607391834E0,8.221940041E0
2.551693356E0,-1.067846537E0,5.566689014E0,8.288979530E0
2.553693156E0,-1.079817891E0,5.578660488E0,8.320104599E0
2.555692889E0,-9.792584181E-1,5.607391834E0,8.341653824E0
2.557692955E0,-9.265843630E-1,5.593026161E0,8.360807419E0
2.559692688E0,-8.930644989E-1,5.573871613E0,8.389538765E0
2.561692421E0,-9.026415944E-1,5.549929142E0,8.468549728E0
2.563692154E0,-1.003201127E0,5.533169270E0,8.583475113E0
2.565691887E0,-1.091789365E0,5.549929142E0,8.624177933E0
2.567691620E0,-1.343188167E0,5.607391834E0,8.662486076E0
2.569691420E0,-1.520364523E0,5.719922543E0,8.616994858E0
2.571691153E0,-1.529941559E0,5.755836487E0,8.585869789E0
2.573690886E0,-1.426987767E0,5.777385235E0,8.518829346E0
2.575690619E0,-1.326428294E0,5.739076614E0,8.360807419E0
2.577690352E0,-1.379102230E0,5.746259689E0,8.162082672E0
2.579690085E0,-1.419804931E0,5.767807961E0,7.913078308E0
2.581689818E0,-1.154040456E0,5.727105141E0,8.118986130E0
2.583689551E0,-9.577099085E-1,5.700768471E0,8.262641907E0
2.585689351E0,-5.650488734E-1,5.593026161E0,8.391933441E0
2.587689084E0,-3.232271075E-1,5.408666611E0,8.344047546E0
2.589688817E0,-2.561874092E-1,5.312895775E0,8.284191132E0
2.591688550E0,-2.418217510E-1,5.176422119E0,8.159688950E0
2.593688283E0,-3.495641351E-1,5.087833881E0,8.066311836E0
2.595688016E0,-5.818088055E-1,4.989668846E0,7.850827217E0
2.597687916E0,-7.350423932E-1,4.951360226E0,7.731113434E0
2.599687716E0,-1.156434774E0,4.865166187E0,7.537177086E0
2.601687516E0,-1.290514112E0,4.831646442E0,7.551542759E0
2.603687249E0,-1.388679385E0,4.752635479E0,7.695199013E0
2.605686982E0,-1.417410731E0,4.632921696E0,7.764633179E0
2.607686715E0,-1.417410731E0,4.573064804E0,7.747873306E0
2.609686448E0,-1.340793848E0,4.453351021E0,7.798152924E0
2.611686181E0,-1.302485466E0,4.400677204E0,7.834067345E0
2.613685914E0,-1.285725594E0,4.395888329E0,7.843644142E0
2.615685714E0,-1.209108829E0,4.374340057E0,7.893924236E0
2.617685114E0,-1.170800328E0,4.259414673E0,7.932232380E0
2.619684847E0,-1.070240855E0,4.199557781E0,7.994483471E0
2.621684580E0,-7.446194887E-1,4.082238674E0,8.171659470E0
2.623684313E0,-5.842030644E-1,3.878725290E0,8.224333763E0
2.625684046E0,-3.902668059E-1,3.751828671E0,8.190814018E0
2.627683779E0,-4.261809289E-1,3.517189741E0,8.121379852E0
2.629683512E0,-5.315290093E-1,3.237059593E0,8.095043182E0
2.631683312E0,-8.020820618E-1,3.098191500E0,8.114197731E0
2.633683045E0,-9.936240315E-1,2.865947008E0,8.202785492E0
2.635682778E0,-1.096577883E0,2.652856588E0,8.300951004E0
2.637682511E0,-1.089395046E0,2.545114040E0,8.363202095E0
2.639682244E0,-1.051086664E0,2.346389294E0,8.437424660E0
2.641681977E0,-1.053480864E0,2.236252785E0,8.463761330E0
2.643681710E0,-1.089395046E0,2.071047783E0,8.480521202E0
2.645681443E0,-1.189954638E0,1.992036581E0,8.466156006E0
2.647681243E0,-1.276148438E0,1.934574008E0,8.458972931E0
2.649680976E0,-1.494027495E0,1.845985889E0,8.442213058E0
2.651680709E0,-1.577827096E0,1.836408734E0,8.435029984E0
2.653680442E0,-1.568249941E0,1.817254543E0,8.403904915E0
2.655680175E0,-1.367130876E0,1.881899953E0,8.437424660E0
2.657680041E0,-1.266571403E0,1.936968327E0,8.399115562E0
2.659679774E0,-1.216291547E0,1.910631299E0,8.356019020E0
2.661679507E0,-1.115732074E0,1.903448462E0,8.533195496E0
2.663678373E0,-9.768640995E-1,2.037527800E0,8.547560692E0
2.665678106E0,-9.361614585E-1,2.142875910E0,8.511647224E0
2.667677839E0,-9.122186899E-1,2.298503876E0,8.298556328E0
2.669677572E0,-9.385557175E-1,2.341600657E0,8.243488312E0
2.671677305E0,-9.553156495E-1,2.358360767E0,8.329682350E0
2.673677038E0,-1.031932473E0,2.293715239E0,8.710371971E0
2.675676771E0,-1.003201127E0,2.317657948E0,9.296969414E0
2.677676571E0,-9.457385540E-1,2.384697676E0,9.541185379E0
2.679676371E0,-8.667274714E-1,2.478074312E0,9.835680962E0
2.681677204E0,-8.212362528E-1,2.830032825E0,1.004158878E1
2.683676937E0,-7.996878028E-1,3.227482557E0,1.022115898E1
2.685676670E0,-7.613793612E-1,4.774183750E0,1.106154919E1
2.687676403E0,-1.022355318E0,5.238673210E0,1.123633194E1
2.689676136E0,-1.146857619E0,5.016005516E0,1.102084732E1
2.691675869E0,-1.268965602E0,4.170826912E0,1.025946712E1
2.693675669E0,-1.192348838E0,3.323253393E0,9.292180061E0
2.695675469E0,-1.010383964E0,2.758204460E0,8.528407097E0
2.697675202E0,-8.379961848E-1,2.607365370E0,8.195602417E0
2.699674935E0,-4.381522834E-1,2.540325642E0,7.597033978E0
2.701674668E0,-2.370332032E-1,2.597788095E0,7.280989647E0
2.703674401E0,0.000000000E0,2.753416061E0,6.845231533E0
2.705674134E0,1.699935049E-1,3.076643229E0,6.857203007E0
2.707673867E0,3.112557232E-1,3.287339211E0,6.936213970E0
2.709673667E0,8.906702399E-1,3.754222870E0,7.077476501E0
2.711673400E0,1.352765322E0,4.228289127E0,7.336058140E0
2.713673133E0,1.347976685E0,4.446168423E0,7.422251701E0
2.715672866E0,1.046298146E0,4.788549423E0,7.551542759E0
2.717672566E0,7.661679387E-1,5.123748302E0,8.051946640E0
2.719672299E0,9.577099234E-2,5.279376030E0,8.377567291E0
2.721672032E0,-4.764606953E-1,5.588237286E0,8.619389534E0
2.723672698E0,-7.302538157E-1,5.894704342E0,8.566715240E0
2.725672498E0,-1.201925993E0,6.026389599E0,8.286584854E0
2.727672231E0,-1.678386688E0,6.268211365E0,8.116591454E0
2.729671964E0,-1.927391171E0,6.380742550E0,8.241093636E0
2.731671697E0,-2.387091875E0,6.502850533E0,8.370385170E0
2.733671430E0,-2.657644987E0,6.624958515E0,8.281796455E0
2.735671163E0,-2.748627424E0,6.644112587E0,7.721536160E0
2.737670896E0,-2.798907280E0,6.653689861E0,7.546754360E0
2.739670629E0,-2.856369734E0,6.802134514E0,7.446194649E0
2.741669329E0,-2.870735407E0,6.972128391E0,7.544359684E0
2.743669062E0,-2.818061352E0,7.360000610E0,7.620976925E0
2.745668795E0,-2.724684715E0,7.613793850E0,7.285778046E0
2.747668528E0,-2.688770533E0,7.642525196E0,7.027196407E0
2.749668261E0,-2.569056988E0,7.623371124E0,6.490879059E0
2.751667994E0,-2.552296877E0,7.455771923E0,5.636122704E0
2.753667727E0,-2.545114040E0,7.362394810E0,5.188393593E0
2.755667460E0,-2.547508478E0,7.383943558E0,4.393494129E0
2.757667260E0,-2.502017260E0,7.484503269E0,4.010410309E0
2.759666993E0,-2.406246185E0,7.599428177E0,3.612960577E0
2.761666726E0,-1.841197371E0,7.970541000E0,3.517189741E0
2.763666459E0,-1.347976685E0,8.547560692E0,4.118152618E0
2.765666192E0,-1.324033976E0,8.722343445E0,4.331243038E0
2.767665758E0,-1.201925993E0,8.751074791E0,4.376734257E0
2.769665491E0,-1.596981287E0,8.753468513E0,4.630527496E0
2.771665291E0,-1.874717116E0,8.765439987E0,4.637710094E0
2.773665091E0,-2.267378330E0,8.791776657E0,4.235472202E0
2.775664824E0,-2.691164970E0,8.600234985E0,4.036747456E0
2.777663657E0,-2.894678354E0,8.480521202E0,4.161249638E0
2.779663390E0,-3.119740009E0,8.303344727E0,4.431802750E0
2.781663123E0,-3.277762175E0,8.035185814E0,4.391099930E0
2.783662856E0,-3.366350412E0,7.946598053E0,4.338426113E0
2.785662589E0,-3.385504484E0,7.836461544E0,4.115758419E0
2.787662389E0,-3.081431627E0,7.728719234E0,3.644086361E0
2.789662122E0,-2.932986736E0,7.594639778E0,3.445361376E0
2.791661855E0,-2.774964571E0,7.529994488E0,3.287339211E0
2.793661588E0,-2.600182533E0,7.625765324E0,3.026363373E0
2.795661321E0,-2.530748367E0,7.529994488E0,2.803695917E0
2.797661054E0,-2.626519442E0,7.450983047E0,3.045517445E0
2.799660787E0,-2.916226625E0,7.496474266E0,3.445361376E0
2.801660520E0,-3.031152010E0,7.585062504E0,3.510006905E0
2.803660320E0,-3.246636629E0,7.673650742E0,3.423812866E0
2.805660053E0,-3.351984739E0,7.872375488E0,3.347196102E0
2.807659786E0,-3.344801903E0,8.011243820E0,3.344801903E0
2.809659519E0,-3.313676357E0,8.377567291E0,3.299310684E0
2.811659252E0,-3.272973776E0,8.700794220E0,3.306493521E0
2.813658985E0,-3.201145411E0,8.810931206E0,3.411841631E0
2.815658718E0,-3.170019865E0,9.141341209E0,3.543526649E0
2.817658451E0,-3.181991339E0,9.543579102E0,3.720703125E0
2.819658251E0,-3.356773376E0,9.802161217E0,4.036747456E0
2.821657984E0,-3.589017868E0,1.032411289E1,4.060689926E0
2.823657717E0,-3.718308687E0,1.051804924E1,4.149278164E0
2.825657450E0,-4.005621910E0,1.081733322E1,4.453351021E0
2.827657350E0,-4.175615311E0,1.092268181E1,4.419831276E0
2.829657083E0,-4.240260601E0,1.090831566E1,4.482082367E0
2.831656816E0,-4.297723293E0,1.072874546E1,4.723904133E0
2.833656549E0,-4.209135056E0,1.036960411E1,4.872349262E0
2.835656349E0,-4.070267200E0,1.012299347E1,4.968120098E0
2.837656982E0,-4.010410309E0,1.000567436E1,4.980091572E0
2.839656715E0,-3.969707727E0,9.696812630E0,4.877137661E0
2.841656448E0,-3.972101927E0,9.517242432E0,4.874743462E0
2.843656181E0,-4.048718929E0,9.155706406E0,5.054314137E0
2.845655914E0,-4.199557781E0,8.909096718E0,5.166844845E0
2.847655647E0,-4.302511692E0,8.803748131E0,5.123748302E0
2.849655447E0,-4.386311531E0,8.478127480E0,5.075862408E0
2.851655247E0,-4.338426113E0,8.157294273E0,5.231490612E0
2.853655013E0,-4.297723293E0,7.996877670E0,5.286558628E0
2.855654779E0,-4.098998547E0,7.800547123E0,5.427821159E0
2.857654545E0,-3.988861799E0,7.726325035E0,5.487678051E0
2.859654311E0,-3.869148016E0,7.666468143E0,5.581054688E0
2.861654077E0,-3.737462997E0,7.649707794E0,5.820482254E0
2.863653843E0,-3.622537851E0,7.719141960E0,5.875550270E0
2.865653676E0,-3.581835032E0,7.726325035E0,5.868367672E0
2.867653442E0,-3.550709486E0,7.707170486E0,5.925830364E0
2.869653208E0,-3.471698523E0,7.778998852E0,5.880339146E0
2.871653474E0,-3.402264595E0,7.865192890E0,5.839636326E0
2.873653240E0,-3.294522047E0,7.989695072E0,5.784567833E0
2.875653006E0,-3.177202702E0,8.063917160E0,5.667248249E0
2.877652472E0,-3.126922846E0,8.097437859E0,5.660065651E0
2.879652238E0,-3.088614464E0,8.104619980E0,5.669642925E0
2.881652071E0,-3.021574736E0,8.104619980E0,5.858790398E0
2.883651837E0,-2.906649590E0,8.121379852E0,5.985687256E0
2.885651603E0,-2.528354168E0,7.968146324E0,6.067092419E0
2.887651369E0,-2.181184292E0,7.850827217E0,5.964138508E0
2.889651135E0,-2.128510237E0,7.879558563E0,5.913858891E0
2.891650901E0,-2.262589693E0,8.051946640E0,5.909070015E0
2.893650667E0,-2.578634024E0,8.183630943E0,5.889915943E0
2.895650433E0,-2.928198099E0,8.293767929E0,5.983292580E0
2.897650266E0,-3.052700281E0,8.351230621E0,6.043149471E0
2.899650032E0,-3.249030828E0,8.449396133E0,6.158074856E0
2.901649798E0,-3.294522047E0,8.449396133E0,6.203566074E0
2.903649564E0,-3.275367975E0,8.372778893E0,6.304125786E0
2.905649330E0,-3.222693920E0,8.363202095E0,6.263422966E0
2.907649096E0,-3.232270956E0,8.339259148E0,6.182017326E0
2.909648862E0,-3.320859194E0,8.243488312E0,6.131737709E0
2.911648628E0,-3.387898922E0,8.176448822E0,6.105400562E0
2.913648428E0,-3.687183142E0,8.121379852E0,6.165257454E0
2.915648161E0,-4.149278164E0,8.071100235E0,6.074275017E0
2.917648127E0,-4.149278164E0,8.071100235E0,6.074275017E0
2.919647860E0,-4.297723293E0,7.992089272E0,6.160469055E0
2.921647593E0,-4.391099930E0,7.958569527E0,6.122160912E0
2.923647326E0,-4.443774223E0,7.958569527E0,6.074275017E0
2.925647059E0,-4.537150860E0,8.011243820E0,6.100612164E0
2.927646859E0,-4.546727657E0,8.140534401E0,6.023995399E0
2.929646659E0,-4.556304932E0,8.186025620E0,6.002447128E0
2.931645892E0,-4.484476566E0,8.152505875E0,6.023995399E0
2.933645625E0,-4.257020473E0,8.075888634E0,6.129343510E0
2.935645358E0,-4.065478802E0,8.109408379E0,6.253845692E0
2.937645724E0,-3.967313290E0,8.150111198E0,6.304125786E0
2.939645457E0,-3.723097324E0,8.245882034E0,6.308914185E0
2.941645190E0,-3.605777979E0,8.284191132E0,6.332856655E0
2.943644990E0,-3.524372578E0,8.506858826E0,6.459753513E0
2.945644790E0,-3.648874760E0,8.846845627E0,6.452570438E0
2.947644523E0,-3.687183142E0,8.978530884E0,6.464541912E0
2.949644256E0,-3.682394743E0,9.172467232E0,6.498061657E0
2.951643989E0,-3.744645834E0,9.364008904E0,6.392713547E0
2.953643722E0,-3.778165579E0,9.443019867E0,6.282577038E0
2.955643455E0,-3.756617069E0,9.361614227E0,6.136526108E0
2.957643888E0,-3.696760416E0,9.332882881E0,6.023995399E0
2.959643688E0,-3.610566378E0,9.318517685E0,5.875550270E0
2.961643421E0,-3.428601503E0,9.320911407E0,5.576265812E0
2.963643154E0,-3.181991339E0,9.452596664E0,5.248250484E0
2.965642887E0,-3.069460392E0,9.488511086E0,5.092622280E0
2.967642620E0,-2.887495518E0,9.474145889E0,4.831646442E0
2.969642353E0,-2.748627424E0,9.457385063E0,4.709538460E0
2.971642086E0,-2.707924843E0,9.464568138E0,4.652075768E0
2.973641819E0,-2.633702278E0,9.428654671E0,4.525179386E0
2.975641385E0,-2.626519442E0,9.287391663E0,4.546727657E0
2.978052839E0,-2.633702278E0,9.213169098E0,4.556304932E0
2.980052572E0,-2.648067951E0,9.086273193E0,4.580247879E0
2.982052305E0,-2.573845387E0,9.064723969E0,4.527573586E0
2.984052038E0,-2.535537004E0,9.103033066E0,4.450956821E0
2.986051771E0,-2.535537004E0,9.170072556E0,4.331243038E0
2.988051504E0,-2.731867552E0,9.086273193E0,4.213923454E0
2.990051237E0,-2.839609861E0,9.055147171E0,4.199557781E0
2.992051037E0,-3.038334846E0,9.076695442E0,4.290540695E0
2.994050770E0,-3.170019865E0,9.100638390E0,4.278569221E0
2.996050503E0,-3.545921087E0,9.148524284E0,4.350397110E0
2.998050036E0,-3.665634632E0,9.184437752E0,4.427014351E0
3.000049769E0,-3.790137053E0,9.342460632E0,4.534756660E0
3.002049502E0,-3.921822071E0,9.517242432E0,4.788549423E0
3.004049235E0,-3.861965179E0,1.007510853E1,5.106987953E0
3.006048968E0,-3.701548815E0,1.068325424E1,5.525986195E0
3.008048768E0,-3.131711483E0,1.265134811E1,7.070293427E0
3.010048501E0,-2.918621063E0,1.350610447E1,7.553936958E0
3.012048234E0,-3.004814863E0,1.320203114E1,7.087053299E0
3.014047967E0,-3.162837029E0,1.180616951E1,5.660065651E0
3.016047700E0,-3.203539610E0,1.001525116E1,4.130124092E0
3.018046733E0,-3.179596901E0,9.136552811E0,3.380716085E0
3.020046466E0,-3.129317284E0,7.733507633E0,1.999219418E0
3.022046266E0,-3.105374336E0,6.938608170E0,8.715160489E-1
3.024046066E0,-3.146077156E0,6.749460697E0,4.525179267E-1
3.026045799E0,-3.296916485E0,6.672843933E0,-5.027977005E-2
3.028045532E0,-3.486064196E0,6.785374641E0,-2.322446555E-1
3.030045265E0,-3.538738251E0,6.878751755E0,-2.011190802E-1
3.032044998E0,-3.572257996E0,7.101418972E0,9.098244458E-2
3.034044731E0,-3.385504484E0,7.455771923E0,6.201171875E-1
3.036044697E0,-3.107768774E0,7.865192890E0,1.450930476E0
3.038044497E0,-2.875524044E0,8.066311836E0,1.790917516E0
3.040044230E0,-2.391880512E0,8.406298637E0,2.454131603E0
3.042043963E0,-2.217098475E0,8.516435623E0,2.789330244E0
3.044043696E0,-1.999219418E0,8.595446587E0,3.256213665E0
3.046043429E0,-1.910631299E0,8.552350044E0,3.510006905E0
3.048043162E0,-1.872322917E0,8.490098000E0,3.548315287E0
3.050042895E0,-1.652049661E0,8.327287674E0,3.332830429E0
3.052042628E0,-1.242628574E0,8.178842545E0,2.889889717E0
3.054042428E0,-1.075029373E0,8.087860107E0,2.693559170E0
3.056042161E0,-7.518022656E-1,7.941809654E0,2.286532402E0
3.058040827E0,-3.112557232E-1,7.937020779E0,2.262589693E0
3.060040560E0,-8.619388938E-2,7.946598053E0,2.281744003E0
3.062040293E0,4.477293789E-1,8.035185814E0,2.291321039E0
3.064040026E0,1.110943556E0,8.197997093E0,2.250618219E0
3.066039759E0,1.486844659E0,8.255459785E0,2.126116037E0
3.068039492E0,2.162030220E0,8.245882034E0,1.771763325E0
3.070039292E0,2.540325642E0,8.200390816E0,1.544307232E0
3.072039025E0,2.636096478E0,8.209968567E0,1.520364523E0
3.074038758E0,2.672010660E0,8.231516838E0,1.458113313E0
3.076038491E0,2.480468750E0,8.312922478E0,1.541913033E0
3.078038224E0,2.286532402E0,8.370385170E0,1.671203852E0
3.080037957E0,1.719089270E0,8.602629662E0,2.214704275E0
3.082037690E0,1.156434774E0,8.923461914E0,2.858764172E0
3.084037423E0,8.906702399E-1,9.110215187E0,3.165231228E0
3.086037223E0,3.950553536E-1,9.416683197E0,3.883513689E0
3.088036989E0,1.843591630E-1,9.615407944E0,4.664047241E0
3.090036755E0,-1.436564922E-1,9.715967178E0,5.083045483E0
3.092036521E0,-3.639297783E-1,9.897932053E0,5.858790398E0
3.094036287E0,-4.525179267E-1,9.938634872E0,6.172440529E0
3.096036053E0,-7.948992252E-1,9.972154617E0,6.952973843E0
3.098035819E0,-9.481328130E-1,1.000088596E1,7.130150318E0
3.100035652E0,-1.134886265E0,1.002722263E1,7.269018173E0
3.102035485E0,-1.522758722E0,1.005116558E1,7.407886028E0
3.104035351E0,-1.862745762E0,1.020918751E1,7.434223175E0
3.106035217E0,-2.020767927E0,1.032650757E1,7.410280704E0
3.108035083E0,-2.286532402E0,1.066888809E1,7.257047176E0
3.110034949E0,-2.547508478E0,1.110943508E1,7.175641537E0
3.112034815E0,-2.660039425E0,1.131773663E1,7.292961121E0
3.114034681E0,-2.844398499E0,1.151406765E1,7.666468143E0
3.116034614E0,-2.880312681E0,1.096577835E1,7.838855743E0
3.118035480E0,-2.882706881E0,1.076465988E1,7.838855743E0
3.120034980E0,-2.882706881E0,1.052044392E1,7.745479107E0
3.122034913E0,-2.782147408E0,1.038875866E1,7.659285069E0
3.124034846E0,-2.638490915E0,1.043903828E1,7.647313595E0
3.126034779E0,-2.320052385E0,1.062339687E1,7.450983047E0
3.128034712E0,-2.243435383E0,1.068564892E1,7.134938717E0
3.130034645E0,-2.269772530E0,1.068085957E1,6.924242973E0
3.132034645E0,-2.085413456E0,1.102563572E1,7.190007210E0
3.134034611E0,-1.347976685E0,1.213179016E1,8.779806137E0
3.136034577E0,-6.991282701E-1,1.286443901E1,1.011102295E1
3.138034543E0,-6.081457734E-1,1.273514748E1,1.020200539E1
3.140034509E0,-8.715160489E-1,1.143505669E1,9.081484795E0
3.142034475E0,-1.151646137E0,1.042706680E1,7.999272346E0
3.144034441E0,-1.611346960E0,8.418270111E0,5.351204395E0
3.146034407E0,-1.829225898E0,6.838048935E0,2.480468750E0
3.148034407E0,-1.865140080E0,6.244268894E0,9.984126091E-1
3.150034373E0,-1.853168726E0,5.458946705E0,-1.838803053E0
3.152034339E0,-1.848380208E0,5.092622280E0,-4.175615311E0
3.154034305E0,-1.850774407E0,5.032765865E0,-5.109382629E0
3.156034271E0,-1.884294271E0,5.262616158E0,-6.419050694E0
3.158034237E0,-1.980065227E0,5.442186832E0,-7.087053299E0
3.160034203E0,-2.030344963E0,5.650488377E0,-7.216344357E0
3.162034169E0,-2.087807655E0,6.055120945E0,-7.067899227E0
3.164034102E0,-1.953728199E0,6.399896622E0,-6.404685020E0
3.166034035E0,-1.771763325E0,6.612987041E0,-5.925830364E0
3.168033968E0,-1.290514112E0,7.134938717E0,-4.762212753E0
3.170033901E0,-9.313728809E-1,7.245075703E0,-3.562680960E0
3.172033834E0,-7.589851022E-1,7.235498428E0,-2.988054991E0
3.174033767E0,-1.149251908E-1,7.486897469E0,-1.764580488E0
3.176033700E0,7.302538157E-1,7.980117798E0,-5.411061049E-1
3.178033433E0,1.087000728E0,8.166871071E0,-9.577099234E-3
3.180033799E0,1.762186289E0,8.516435623E0,9.433442950E-1
3.182033665E0,2.054287672E0,8.851634026E0,1.750214934E0
3.184033365E0,2.504411459E0,8.990502357E0,2.087807655E0
3.186033231E0,2.885101080E0,9.220352173E0,2.650462151E0
3.188033097E0,3.043123245E0,9.443019867E0,2.921015263E0
3.190032963E0,3.320859194E0,9.577098846E0,3.457332850E0
3.192032829E0,3.565075159E0,9.845257759E0,3.890696526E0
3.194032729E0,3.658451796E0,9.967366219E0,4.043930054E0
3.196032629E0,3.770982742E0,1.014693642E1,4.237866402E0
3.198032462E0,3.775771379E0,1.014214802E1,4.225894928E0
3.200032295E0,3.768588543E0,1.005834866E1,4.137306690E0
3.202032128E0,3.593806505E0,9.572310448E0,3.684788942E0
3.204031961E0,3.301704884E0,9.126976013E0,3.198751211E0
3.206031794E0,3.189173937E0,8.945011139E0,3.009603500E0
3.208031627E0,3.086220264E0,8.719948769E0,2.856369734E0
3.210031493E0,3.198751211E0,8.679245949E0,3.100585938E0
3.212031293E0,3.306493521E0,8.686429024E0,3.325647593E0
3.214031093E0,3.603383541E0,8.717555046E0,3.902667999E0
3.216030893E0,3.926610708E0,8.715160370E0,4.608979225E0
3.218030693E0,4.000833035E0,8.696005821E0,4.951360226E0
3.220030493E0,3.780560017E0,8.487704277E0,5.614574432E0
3.222030293E0,2.968900681E0,8.001666069E0,6.352011204E0
3.224030093E0,2.343995094E0,7.685622215E0,6.766220570E0
3.226029893E0,7.661679387E-1,6.909877300E0,7.585062504E0
3.228029626E0,-9.768640995E-1,6.028783798E0,8.255459785E0
3.230029359E0,-1.793311834E0,5.571477413E0,8.533195496E0
3.232029092E0,-3.213116884E0,4.716721535E0,8.940221786E0
3.234028825E0,-4.324060440E0,4.019987583E0,9.136552811E0
3.236028558E0,-5.042342663E0,3.550709486E0,8.672063828E0
3.238028591E0,-5.305713177E0,3.363956213E0,8.128562927E0
3.240028324E0,-5.387118340E0,3.320859194E0,7.333663940E0
3.242028124E0,-5.229096413E0,3.462121487E0,7.082264900E0
3.244028024E0,-4.764606953E0,3.814079762E0,6.751854897E0
3.246027757E0,-4.156461239E0,4.156461239E0,6.601015568E0
3.248027490E0,-3.840416908E0,4.321666241E0,6.636929989E0
3.250027223E0,-3.289733648E0,4.604190350E0,6.742278099E0
3.252026956E0,-2.762993097E0,4.822069645E0,6.955368519E0
3.254026689E0,-2.540325642E0,4.925023079E0,7.079870701E0
3.256026422E0,-2.241041183E0,5.075862408E0,7.367183685E0
3.258026222E0,-2.214704275E0,5.185999393E0,7.582668304E0
3.260025955E0,-2.308080912E0,5.224307537E0,7.632947922E0
3.262025688E0,-2.640885115E0,5.305713177E0,7.462954521E0
3.264025421E0,-3.107768774E0,5.360781193E0,6.984099388E0
3.266025154E0,-3.375927448E0,5.365570068E0,6.648900986E0
3.268024887E0,-3.840416908E0,5.408666611E0,5.779779434E0
3.270024620E0,-4.091815472E0,5.449369431E0,4.778972626E0
3.272024420E0,-4.098998547E0,5.444581032E0,4.249837875E0
3.274024220E0,-3.897879362E0,5.370358467E0,3.162837029E0
3.276023953E0,-3.435784340E0,5.145296574E0,2.152452946E0
3.278023686E0,-3.105374336E0,5.035160065E0,1.740637779E0
3.280023419E0,-2.451737404E0,4.738269806E0,1.225868702E0
3.282023152E0,-2.128510237E0,4.355185986E0,1.077423692E0
3.284022885E0,-1.498816013E0,4.142095566E0,1.027143836E0
3.286022618E0,-9.720755816E-1,3.821262598E0,1.192348838E0
3.288022418E0,-7.518022656E-1,3.732674360E0,1.304879785E0
3.290022151E0,-3.064671755E-1,3.766194344E0,1.596981287E0
3.292021884E0,9.816526622E-2,3.984073162E0,1.831620216E0
3.294021617E0,2.609759569E-1,4.144489765E0,1.915419817E0
3.296021350E0,8.236305118E-1,5.083045483E0,1.951334000E0
3.298020550E0,1.043903828E0,5.514014721E0,1.869928598E0
3.300020283E0,1.237840056E0,5.952167034E0,1.735849261E0
3.302020016E0,1.522758722E0,6.876357079E0,1.419804931E0
3.304019816E0,1.687963724E0,7.836461544E0,1.031932473E0
3.306019549E0,1.661626697E0,8.265036583E0,8.020820618E-1
3.308019282E0,1.283331275E0,9.047964096E0,3.782954216E-1
3.310019015E0,5.387118459E-1,9.787795067E0,7.661679387E-2
3.312018748E0,1.652049571E-1,1.011820507E1,-2.154847234E-2
3.314018481E0,-5.985686779E-1,1.074550533E1,-8.379961550E-2
3.316018214E0,-1.245022893E0,1.135604572E1,7.182824612E-2
3.318017947E0,-1.489238977E0,1.162180996E1,2.154847383E-1
3.320017747E0,-1.731060743E0,1.226347542E1,5.315290093E-1
3.322017480E0,-1.702329397E0,1.295781517E1,8.786988258E-1
3.324017213E0,-1.501210332E0,1.326667690E1,1.082212210E0
3.326016946E0,-8.906702399E-1,1.391073704E1,1.388679385E0
3.328016679E0,-1.795706153E-1,1.450451660E1,1.788523316E0
3.330016412E0,1.628106833E-1,1.470084763E1,2.018373728E0
3.332016145E0,7.541965842E-1,1.522279930E1,2.497228622E0
3.334015878E0,9.744698405E-1,1.591474438E1,2.877918243E0
3.336015678E0,7.182824612E-1,1.639120483E1,3.198751211E0
3.338015411E0,4.884320498E-1,1.658514214E1,3.332830429E0
3.340015144E0,1.915419847E-2,1.684132957E1,3.521978140E0
3.342014877E0,-1.532335877E-1,1.688203239E1,3.612960577E0
3.344014610E0,-3.950553536E-1,1.679104996E1,3.768588543E0
3.346014343E0,-4.860377908E-1,1.659471893E1,3.838022470E0
3.348014076E0,-5.171633363E-1,1.650613022E1,3.821262598E0
3.350013876E0,-3.974496126E-1,1.663781548E1,3.605777979E0
3.352013676E0,2.537931204E-1,1.680541420E1,3.148471355E0
3.354013409E0,5.051919818E-1,1.668570137E1,3.000026226E0
3.356013142E0,6.177229285E-1,1.585967636E1,2.899466753E0
3.358013442E0,3.399870098E-1,1.467211628E1,3.074248791E0
3.360013175E0,2.346389294E-1,1.406157589E1,3.275367975E0
3.362012908E0,1.915419847E-1,1.283810139E1,3.699154615E0
3.364012641E0,3.208328187E-1,1.165772438E1,3.940976381E0
3.366012441E0,3.711125851E-1,1.112619495E1,3.957736254E0
3.368012241E0,5.770202279E-1,1.012059975E1,3.878725290E0
3.370011974E0,6.991282701E-1,9.241900444E0,3.706337452E0
3.372011707E0,7.374366522E-1,8.885153770E0,3.591412306E0
3.374011440E0,6.296942830E-1,8.284191132E0,3.337619066E0
3.376011173E0,5.458946824E-1,7.671256542E0,3.153259993E0
3.378010906E0,4.525179267E-1,7.403097630E0,3.093403101E0
3.380010639E0,2.705530524E-1,6.929031372E0,3.124528646E0
3.382010439E0,1.556278616E-1,6.689603806E0,3.191568375E0
3.384010172E0,-4.094209969E-1,6.280182838E0,3.251425266E0
3.386009905E0,-9.984126091E-1,6.067092419E0,3.088614464E0
3.388009638E0,-1.194743156E0,6.043149471E0,2.995237827E0
3.390009371E0,-1.467690468E0,6.301731110E0,2.923409462E0
3.392009104E0,-1.652049661E0,6.725517750E0,3.002420664E0
3.394008837E0,-1.687963724E0,6.984099388E0,3.000026226E0
3.396008570E0,-1.793311834E0,7.740690231E0,3.000026226E0
3.398008370E0,-1.915419817E0,7.960963726E0,2.932986736E0
3.400008103E0,-2.073441982E0,8.183630943E0,2.870735407E0
3.402007836E0,-2.322446585E0,8.514040947E0,2.830032825E0
3.404007569E0,-2.403851986E0,8.803748131E0,2.772570133E0
3.406007302E0,-2.353572130E0,8.976136208E0,2.762993097E0
3.408007035E0,-1.987248063E0,9.177255630E0,2.825244188E0
3.410006768E0,-1.503604531E0,9.237112045E0,2.956929445E0
3.412006501E0,-1.268965602E0,9.189227104E0,3.038334846E0
3.414006301E0,-1.046298146E0,8.877970695E0,3.126922846E0
3.416006034E0,-7.254652381E-1,8.420664787E0,3.205934048E0
3.418005634E0,-6.823683381E-1,8.159688950E0,3.272973776E0
3.420005367E0,-8.260248303E-1,7.683228016E0,3.397475958E0
3.422005100E0,-8.882759809E-1,7.386337757E0,3.239453793E0
3.424004833E0,-8.140534163E-1,7.314509392E0,3.098191500E0
3.426004566E0,-6.033572555E-1,7.309720993E0,2.842004299E0
3.428004299E0,-3.902668059E-1,7.333663940E0,2.669616461E0
3.430004099E0,-4.932205975E-1,7.333663940E0,2.578634024E0
3.432003832E0,-7.278595567E-1,7.395915031E0,2.442160368E0
3.434003565E0,-8.332076073E-1,7.525205612E0,2.396669149E0
3.436003298E0,-1.017566800E0,7.685622215E0,2.372726440E0
3.438003031E0,-1.127703428E0,7.817307472E0,2.358360767E0
3.440002764E0,-1.371919513E0,8.068706512E0,2.348783493E0
3.442002497E0,-1.470084786E0,8.183630943E0,2.389486313E0
3.444002297E0,-1.874717116E0,8.533195496E0,2.506805658E0
3.446002097E0,-2.118933201E0,8.997684479E0,2.660039425E0
3.448001830E0,-2.197944164E0,9.234718323E0,2.782147408E0
3.450001563E0,-2.485257149E0,9.620196342E0,2.844398499E0
3.452001296E0,-2.806090117E0,1.003201103E1,2.786935806E0
3.454001029E0,-2.959323645E0,1.024031353E1,2.722290516E0
3.456000762E0,-3.047911882E0,1.077423668E1,2.300898075E0
3.458000495E0,-3.047911882E0,1.085324764E1,2.147664547E0
3.460000295E0,-2.861158371E0,1.085803604E1,1.987248063E0
3.462000028E0,-2.820455790E0,1.070240879E1,1.759791970E0
3.463999761E0,-2.777358770E0,9.986519814E0,1.719089270E0
3.465999494E0,-1.424593568E0,9.471751213E0,1.956122518E0
3.467999227E0,-1.544307232E0,8.305739403E0,1.999219418E0
3.469998960E0,-2.293715239E0,7.778998852E0,1.862745762E0
3.471998693E0,-4.022381783E0,6.763826370E0,1.340793848E0
3.473998426E0,-1.838803053E0,6.761432171E0,2.111750364E0
3.475998226E0,3.062277555E0,8.114197731E0,3.308887720E0
3.477997959E0,4.072661400E0,8.480521202E0,3.435784340E0
3.479997692E0,2.607365370E0,7.678439140E0,2.748627424E0
3.481997425E0,8.212362528E-1,6.814105988E0,2.114144564E0
3.483997158E0,-1.869928598E0,5.281770229E0,9.840469360E-1
3.485996891E0,-1.589798450E0,4.632921696E0,3.687183261E-1
3.487996624E0,-6.153286099E-1,4.790944099E0,4.261809289E-1
3.489996357E0,1.470084786E0,5.516408920E0,5.746259689E-1
3.491996157E0,2.114144564E0,6.387925148E0,8.044763207E-1
3.493995890E0,1.814860344E0,6.869174480E0,1.166011810E0
3.495995623E0,-6.177229285E-1,8.447001457E0,2.609759569E0
3.497995356E0,-1.371919513E0,8.913885117E0,2.899466753E0
3.499995089E0,-2.008796453E0,9.409500122E0,3.035940409E0
3.501994822E0,-2.909043789E0,1.039115238E1,2.921015263E0
3.503994555E0,-3.442967176E0,1.143745041E1,2.660039425E0
3.505994288E0,-3.593806505E0,1.197616291E1,2.518777132E0
3.507994088E0,-3.608172178E0,1.309428883E1,2.446948767E0
3.509993821E0,-3.670423269E0,1.416452980E1,2.473285913E0
3.511993554E0,-3.816473961E0,1.461704731E1,2.485257149E0
3.513993287E0,-4.503631115E0,1.538800430E1,2.391880512E0
3.515993020E0,-5.432609558E0,1.604403496E1,2.262589693E0
3.517992753E0,-5.791750908E0,1.637444496E1,2.308080912E0
3.519992486E0,-6.110189438E0,1.707117844E1,2.636096478E0
3.521992286E0,-5.889915943E0,1.761707497E1,3.004814863E0
3.523992086E0,-5.657671452E0,1.779185677E1,3.201145411E0
3.525991819E0,-5.190787792E0,1.780861664E1,3.407052994E0
3.527991552E0,-4.735875607E0,1.743271446E1,3.349590540E0
3.529991285E0,-4.580247879E0,1.715737343E1,3.253819466E0
3.531991018E0,-4.343214512E0,1.646303368E1,3.014391899E0
3.533990751E0,-4.015198708E0,1.556278610E1,2.842004299E0
3.535990484E0,-3.763799906E0,1.460028744E1,2.729473352E0
3.537990717E0,-3.632114887E0,1.411664391E1,2.688770533E0
3.539990450E0,-3.299310684E0,1.316372299E1,2.648067951E0
3.541990183E0,-3.093403101E0,1.270881081E1,2.660039425E0
3.543989916E0,-2.695953369E0,1.185644913E1,2.707924843E0
3.545989649E0,-2.296109438E0,1.111422348E1,2.794118643E0
3.547989382E0,-2.066259146E0,1.081254482E1,2.851581335E0
3.549989115E0,-1.704723716E0,1.032411289E1,3.069460392E0
3.551988848E0,-1.647261024E0,9.962577820E0,3.332830429E0
3.553988648E0,-1.745426297E0,9.878777504E0,3.426207304E0
3.555988381E0,-1.673598051E0,9.845257759E0,3.660846233E0
3.557988114E0,-1.553884387E0,9.914691925E0,3.838022470E0
3.559987847E0,-1.482056141E0,9.962577820E0,4.070267200E0
3.561987580E0,-1.656838179E0,1.006074238E1,4.149278164E0
3.563987313E0,-1.786128998E0,1.010862827E1,4.166038036E0
3.565987046E0,-2.020767927E0,1.020200539E1,4.134912491E0
3.567986779E0,-2.427794695E0,1.027143860E1,4.051113129E0
3.569986579E0,-2.597788095E0,1.029777622E1,4.024775982E0
3.571986345E0,-2.870735407E0,1.033847904E1,4.008016109E0
3.573986111E0,-3.143682718E0,1.038157558E1,3.998438835E0
3.575985877E0,-3.340013266E0,1.041749001E1,3.986467600E0
3.577985643E0,-3.356773376E0,1.042467213E1,3.972101927E0
3.579985409E0,-3.284945011E0,1.044143200E1,3.897879362E0
3.581985175E0,-3.268185139E0,1.045100975E1,3.821262598E0
3.583984941E0,-3.320859194E0,1.046298122E1,3.615355015E0
3.585984774E0,-3.222693920E0,1.048931789E1,3.423812866E0
3.587984540E0,-3.050306082E0,1.050847244E1,3.308887720E0
3.589984306E0,-2.660039425E0,1.051086617E1,3.043123245E0
3.591984072E0,-2.379909277E0,1.052044392E1,2.849187136E0
3.593983838E0,-2.288926601E0,1.055156898E1,2.832427025E0
3.595983604E0,-2.066259146E0,1.069522572E1,2.794118643E0
3.597982904E0,-1.994430900E0,1.075747681E1,2.842004299E0
3.599982737E0,-1.939362645E0,1.081493950E1,2.923409462E0
3.601982570E0,-1.905842781E0,1.087958431E1,3.143682718E0
3.603982336E0,-2.044710636E0,1.088916206E1,3.311282158E0
3.605982102E0,-2.085413456E0,1.085803604E1,3.385504484E0
3.607981868E0,-2.114144564E0,1.072874546E1,3.507612705E0
3.609981634E0,-2.202732801E0,1.053480911E1,3.610566378E0
3.611981400E0,-2.212309837E0,1.042227840E1,3.636903524E0
3.613981166E0,-2.083019018E0,1.010623360E1,3.653663397E0
3.615980999E0,-1.860351562E0,9.593858719E0,3.751828671E0
3.617980832E0,-1.752609134E0,9.308940887E0,3.766194344E0
3.619980598E0,-1.743032098E0,8.861210823E0,3.584229469E0
3.621980364E0,-2.056682110E0,8.478127480E0,3.299310684E0
3.623980130E0,-2.401457548E0,8.226728439E0,3.062277555E0
3.625979896E0,-4.144489765E0,7.173247337E0,2.054287672E0
3.627979662E0,-6.938608170E0,5.437397957E0,5.842030644E-1
3.629979428E0,-8.111803055E0,4.580247879E0,-5.985686928E-2
3.631979228E0,-9.268238068E0,3.241847992E0,-8.499675393E-1
3.633978961E0,-8.808537483E0,2.751021862E0,-8.068706393E-1
3.635978694E0,-6.952973843E0,3.237059593E0,-2.394274808E-2
3.637978427E0,-5.767807961E0,3.754222870E0,4.836435020E-1
3.639978160E0,-3.521978140E0,5.006428719E0,1.316851139E0
3.641977893E0,-2.552296877E0,5.686402798E0,1.623318315E0
3.643977626E0,-1.383890867E0,6.782980442E0,1.929785490E0
3.645977359E0,-1.125309110E0,7.534782887E0,1.999219418E0
3.647977159E0,-1.163617611E0,7.802941799E0,1.848380208E0
3.649976892E0,-1.690358043E0,8.169265747E0,1.345582485E0
3.651976625E0,-1.987248063E0,8.458972931E0,1.139674783E0
3.653976358E0,-2.523565531E0,8.571503639E0,8.954587579E-1
3.655976091E0,-2.686376333E0,8.782199860E0,1.043903828E0
3.657975857E0,-2.638490915E0,8.875576973E0,1.283331275E0
3.659975590E0,-2.425400496E0,9.000079155E0,1.781340480E0
3.661975323E0,-2.133298874E0,9.117398262E0,2.377514839E0
3.663975123E0,-1.944151163E0,9.165284157E0,2.710319042E0
3.665974856E0,-1.553884387E0,9.241900444E0,3.435784340E0
3.667974589E0,-1.230657220E0,9.275420189E0,4.075055599E0
3.669974322E0,-1.091789365E0,9.275420189E0,4.350397110E0
3.671974055E0,-9.289786220E-1,9.239506721E0,4.860377789E0
3.673973788E0,-9.385557175E-1,9.146129608E0,5.262616158E0
3.675973521E0,-1.039115310E0,9.002472878E0,5.523591995E0
3.677973254E0,-1.091789365E0,8.911490440E0,5.588237286E0
3.679973054E0,-1.168406129E0,8.758256912E0,5.624151707E0
3.681972787E0,-1.233051538E0,8.686429024E0,5.593026161E0
3.683972520E0,-1.357553840E0,8.537983894E0,5.499649048E0
3.685972253E0,-1.462901950E0,8.391933441E0,5.334444046E0
3.687971986E0,-1.525153041E0,8.363202095E0,5.236279011E0
3.689971719E0,-1.637683988E0,8.348835945E0,5.044736862E0
3.691971452E0,-1.683175206E0,8.363202095E0,4.963331699E0
3.693971252E0,-1.656838179E0,8.353624344E0,4.946571827E0
3.695971052E0,-1.640078187E0,8.372778893E0,4.834040642E0
3.697970785E0,-1.697540879E0,8.427846909E0,4.767001152E0
3.699970518E0,-1.781340480E0,8.506858826E0,4.690384388E0
3.701970251E0,-2.068653345E0,8.784594536E0,4.422225475E0
3.703969984E0,-2.272166729E0,9.050358772E0,4.082238674E0
3.705969717E0,-2.102173328E0,9.112609863E0,3.866753817E0
3.707969450E0,-1.702329397E0,9.241900444E0,3.347196102E0
3.709969250E0,-1.750214934E0,9.364008904E0,2.846792698E0
3.711968983E0,-1.867534399E0,9.411893845E0,2.640885115E0
3.713968716E0,-2.118933201E0,9.522030830E0,2.303292274E0
3.715968449E0,-2.320052385E0,9.589070320E0,2.130904675E0
3.717968015E0,-2.377514839E0,9.627379417E0,2.099778891E0
3.719967748E0,-2.183578730E0,9.840469360E0,2.528354168E0
3.721967481E0,-1.798100352E0,1.020679379E1,3.251425266E0
3.723967214E0,-1.632895470E0,1.037199879E1,3.505218267E0
3.725967014E0,-1.453324795E0,1.058269501E1,4.063084126E0
3.727967214E0,-1.237840056E0,1.080775642E1,4.508419514E0
3.729966947E0,-1.053480864E0,1.092747021E1,4.692778587E0
3.731966680E0,-7.182824612E-1,1.111422348E1,5.032765865E0
3.733966413E0,-5.650488734E-1,1.117647457E1,5.245856285E0
3.735966146E0,-3.471698463E-1,1.106394386E1,5.152479172E0
3.737965879E0,-3.830839694E-1,1.097535610E1,5.018400192E0
3.739965612E0,-7.063110471E-1,1.074550533E1,4.546727657E0
3.741965412E0,-9.936240315E-1,1.056832886E1,4.209135056E0
3.743965145E0,-1.687963724E0,1.015411949E1,3.440572977E0
3.745964878E0,-2.030344963E0,9.936240196E0,3.040729046E0
3.747964611E0,-2.717501879E0,9.514847755E0,2.164424419E0
3.749964344E0,-3.351984739E0,9.100638390E0,1.264177084E0
3.751964077E0,-3.557892323E0,8.964164734E0,9.577099085E-1
3.753963810E0,-3.830839634E0,8.798959732E0,5.315290093E-1
3.755963543E0,-3.682394743E0,8.863605499E0,4.549122155E-1
3.757963343E0,-3.495641232E0,8.952193260E0,5.554717779E-1
3.759963076E0,-3.071854591E0,9.191620827E0,9.050358534E-1
3.761962809E0,-2.703136206E0,9.486116409E0,1.343188167E0
3.763962542E0,-2.516382933E0,9.687235832E0,1.565855742E0
3.765962275E0,-1.778946161E0,1.021397591E1,2.267378330E0
3.767962008E0,-1.407833576E0,1.031692982E1,2.801301479E0
3.769961741E0,-1.300091267E0,1.029538155E1,3.023969173E0
3.771961541E0,-1.328822494E0,1.011581135E1,3.332830429E0
3.773961341E0,-1.628106833E0,9.775823593E0,3.380716085E0
3.775961074E0,-2.078230619E0,9.320911407E0,3.340013266E0
3.777960974E0,-2.322446585E0,9.091061592E0,3.294522047E0
3.779960707E0,-2.748627424E0,8.681640625E0,3.193962574E0
3.781960440E0,-2.899466753E0,8.526012421E0,3.155654192E0
3.783960173E0,-3.131711483E0,8.310527802E0,3.114951611E0
3.785959906E0,-3.371139050E0,8.133351326E0,3.102980137E0
3.787959239E0,-3.466909885E0,8.025609016E0,3.100585938E0
3.789958972E0,-3.531555414E0,7.848433018E0,3.143682718E0
3.791958705E0,-3.610566378E0,7.740690231E0,3.069460392E0
3.793958438E0,-3.651269197E0,7.695199013E0,2.956929445E0
3.795958171E0,-3.763799906E0,7.649707794E0,2.542719841E0
3.797957904E0,-3.732674360E0,7.676044941E0,2.442160368E0
3.799957637E0,-3.708731651E0,7.678439140E0,2.327235222E0
3.801957370E0,-3.663240433E0,7.680833817E0,2.027950764E0
3.803957170E0,-3.581835032E0,7.764633179E0,1.862745762E0
3.805956903E0,-3.591412306E0,7.774210453E0,1.826831698E0
3.807956636E0,-3.603383541E0,7.771816254E0,1.843591571E0
3.809956369E0,-3.605777979E0,7.781393051E0,1.805283189E0
3.811956102E0,-3.581835032E0,7.817307472E0,1.879505754E0
3.813955835E0,-3.634509087E0,7.903501034E0,2.061470509E0
3.815955568E0,-3.634509087E0,8.011243820E0,2.274561167E0
3.817955301E0,-3.608172178E0,8.073494911E0,2.324840784E0
3.819955101E0,-3.629720688E0,8.205180168E0,2.346389294E0
3.821954834E0,-3.565075159E0,8.250671387E0,2.305686712E0
3.823954567E0,-3.490852594E0,8.277008057E0,2.370332003E0
3.825954300E0,-3.462121487E0,8.310527802E0,2.554691315E0
3.827954033E0,-3.478881359E0,8.288979530E0,2.626519442E0
3.829953766E0,-3.481275558E0,8.248276711E0,2.688770533E0
3.831953499E0,-3.538738251E0,8.107014656E0,2.731867552E0
3.833953232E0,-3.517189741E0,7.829278469E0,2.693559170E0
3.835953032E0,-3.275367975E0,7.496474266E0,2.537931204E0
3.837952498E0,-3.165231228E0,7.304932594E0,2.461314440E0
3.839952231E0,-3.057488918E0,7.115784645E0,2.358360767E0
3.841951964E0,-2.832427025E0,6.763826370E0,2.164424419E0
3.843951697E0,-2.640885115E0,6.490879059E0,1.946545362E0
3.845951430E0,-2.554691315E0,6.404685020E0,1.755003452E0
3.847951163E0,-2.442160368E0,6.282577038E0,1.515576005E0
3.849950963E0,-2.377514839E0,6.210748672E0,1.494027495E0
3.851950763E0,-2.346389294E0,6.213143349E0,1.539518714E0
3.853950496E0,-2.322446585E0,6.277788639E0,1.692752242E0
3.855950229E0,-2.310475111E0,6.404685020E0,1.905842781E0
3.857949962E0,-2.346389294E0,6.488484859E0,2.042316437E0
3.859949695E0,-2.545114040E0,6.610592842E0,2.375120640E0
3.861949428E0,-2.849187136E0,6.773403645E0,2.648067951E0
3.863949161E0,-3.055094719E0,6.859597206E0,2.765387297E0
3.865948961E0,-3.395081758E0,6.969734192E0,2.899466753E0
3.867948761E0,-3.648874760E0,6.950579643E0,3.023969173E0
3.869948494E0,-3.742251635E0,6.931425571E0,3.004814863E0
3.871948227E0,-3.773377180E0,6.979310989E0,2.784541607E0
3.873947960E0,-4.046324253E0,7.075081825E0,2.571451187E0
3.875947693E0,-4.388705730E0,7.257047176E0,2.291321039E0
3.877947426E0,-4.541939259E0,7.357606411E0,2.185972929E0
3.879947159E0,-5.011217117E0,7.580274105E0,2.044710636E0
3.881946959E0,-5.293741703E0,7.699987888E0,2.049499273E0
3.883946692E0,-5.904281616E0,7.980117798E0,2.157241583E0
3.885946425E0,-6.541158676E0,8.229122162E0,2.245829821E0
3.887946158E0,-6.881145954E0,8.320104599E0,2.308080912E0
3.889945891E0,-7.285778046E0,8.458972931E0,2.509200096E0
3.891945624E0,-7.683228016E0,8.576292038E0,2.830032825E0
3.893945357E0,-7.831672668E0,8.564320564E0,2.937775135E0
3.895945090E0,-8.039975166E0,8.497281075E0,3.086220264E0
3.897944223E0,-8.107014656E0,8.487704277E0,3.165231228E0
3.899943956E0,-8.255459785E0,8.482915878E0,3.213116884E0
3.901943689E0,-8.332076073E0,8.411087036E0,3.292127848E0
3.903943422E0,-8.312922478E0,8.279402733E0,3.414235830E0
3.905943155E0,-8.272219658E0,8.200390816E0,3.486064196E0
3.907942888E0,-8.116591454E0,8.071100235E0,3.524372578E0
3.909942621E0,-8.006455421E0,8.008849144E0,3.426207304E0
3.911942354E0,-7.910684109E0,7.982511997E0,3.373533249E0
3.913942154E0,-7.580274105E0,7.941809654E0,3.234665155E0
3.915941887E0,-7.154093266E0,8.008849144E0,3.081431627E0
3.917941620E0,-6.890722752E0,8.097437859E0,3.035940409E0
3.919941353E0,-6.189200401E0,8.305739403E0,2.961717844E0
3.921941086E0,-5.722316742E0,8.648120880E0,2.858764172E0
3.923940819E0,-4.695172787E0,8.861210823E0,2.798907280E0
3.925940552E0,-3.610566378E0,9.447808266E0,2.645673752E0
3.927940285E0,-3.038334846E0,1.005595398E1,2.537931204E0
3.929940085E0,-1.908236980E0,1.033847904E1,2.346389294E0
3.931939818E0,-8.571503758E-1,1.082212257E1,2.255406857E0
3.933939551E0,-3.591412306E-1,1.103281784E1,2.250618219E0
3.935939284E0,1.134886265E0,1.135125732E1,2.399063349E0
3.937939017E0,1.580221415E0,1.132491970E1,2.523565531E0
3.939938750E0,2.015979290E0,1.124351406E1,2.674404860E0
3.941938483E0,2.863552570E0,1.095620155E1,2.985660791E0
3.943938283E0,3.574652195E0,1.053241444E1,3.210722446E0
3.945938083E0,3.821262598E0,1.025707340E1,3.320859194E0
3.947937816E0,4.077449799E0,9.589070320E0,3.505218267E0
3.949937549E0,4.075055599E0,8.906702042E0,3.589017868E0
3.951937282E0,3.943370581E0,8.605023384E0,3.586623669E0
3.953937015E0,3.548315287E0,8.035185814E0,3.512401104E0
3.955936748E0,3.026363373E0,7.575485706E0,3.351984739E0
3.957937414E0,2.765387297E0,7.405491829E0,3.306493521E0
3.959937214E0,2.310475111E0,7.108602047E0,3.289733648E0
3.961936947E0,1.896265626E0,6.861991405E0,3.395081758E0
3.963936680E0,1.733454943E0,6.775797844E0,3.572257996E0
3.965936413E0,1.565855742E0,6.680026531E0,4.075055599E0
3.967936146E0,1.513181686E0,6.658478260E0,4.611373425E0
3.969935879E0,1.508393168E0,6.682421207E0,4.814886570E0
3.971935612E0,1.256994247E0,6.797346115E0,4.951360226E0
3.973935345E0,7.925049663E-1,6.981705189E0,4.841223717E0
3.975935145E0,2.059076279E-1,7.063110828E0,4.503631115E0
3.977934911E0,-1.652049571E-1,7.130150318E0,4.333637238E0
3.979934677E0,-9.433442950E-1,7.398309231E0,3.929004908E0
3.981934443E0,-1.326428294E0,7.525205612E0,3.739857197E0
3.983934209E0,-1.996825218E0,7.673650742E0,3.450150013E0
3.985933975E0,-2.394274712E0,7.692804813E0,3.316070557E0
3.987933741E0,-2.518777132E0,7.699987888E0,3.246636629E0
3.989933507E0,-2.698347807E0,7.738296032E0,3.179596901E0
3.991933340E0,-2.853975534E0,7.750267506E0,3.167625666E0
3.993933106E0,-2.889889717E0,7.817307472E0,3.167625666E0
3.995932872E0,-2.880312681E0,8.107014656E0,3.337619066E0
3.997932638E0,-2.856369734E0,8.209968567E0,3.419024467E0
3.999932404E0,-2.839609861E0,8.296162605E0,3.517189741E0
4.001932170E0,-2.731867552E0,8.377567291E0,3.790137053E0
4.003931936E0,-2.389486313E0,8.305739403E0,3.952947617E0
4.005931702E0,-2.169213057E0,8.305739403E0,3.845205307E0
4.007931535E0,-1.879505754E0,8.054340363E0,3.565075159E0
4.009931301E0,-1.467690468E0,7.889135361E0,3.610566378E0
4.011931067E0,-1.218685865E0,7.946598053E0,3.694365978E0
4.013930833E0,-6.249057055E-1,8.090254784E0,3.634509087E0
4.015930599E0,-1.245022863E-1,7.960963726E0,3.510006905E0
4.017929999E0,1.245022863E-1,7.927443981E0,3.481275558E0
4.019929765E0,6.967339516E-1,7.972935200E0,3.361561775E0
4.021929598E0,9.481328130E-1,8.004060745E0,3.337619066E0
4.023929431E0,1.398256540E0,8.013637543E0,3.270579338E0
4.025929197E0,1.675992370E0,7.927443981E0,3.210722446E0
4.027928963E0,1.843591571E0,7.843644142E0,3.105374336E0
4.029928729E0,2.130904675E0,7.692804813E0,2.930592299E0
4.031928495E0,2.363149166E0,7.479714394E0,2.770175934E0
4.033928261E0,2.454131603E0,7.300143719E0,2.643279314E0
4.035928027E0,2.279349566E0,6.804529190E0,2.020767927E0
4.037927827E0,2.212309837E0,6.617775440E0,1.766974807E0
4.039927560E0,2.166818619E0,6.483695984E0,1.494027495E0
4.041927293E0,1.989642382E0,6.507638931E0,1.041509509E0
4.043927026E0,1.790917516E0,6.586649895E0,6.057515144E-1
4.045926759E0,1.496421814E0,6.651295185E0,4.812492430E-1
4.047926492E0,6.273000240E-1,6.864386082E0,2.035133541E-1
4.049926225E0,-3.184385598E-1,7.190007210E0,-1.412622184E-1
4.051925958E0,-7.661679387E-1,7.398309231E0,-2.298503816E-1
4.053925758E0,-1.503604531E0,7.865192890E0,-2.873129845E-1
4.055925491E0,-1.850774407E0,8.288979530E0,-3.304099143E-1
4.057925224E0,-1.958516836E0,8.533195496E0,-2.250618339E-1
4.059924957E0,-2.257801056E0,9.021627426E0,2.011190802E-1
4.061924690E0,-2.506805658E0,9.404711723E0,4.764606953E-1
4.063924423E0,-2.581028223E0,9.613013268E0,4.860377908E-1
4.065924156E0,-2.703136206E0,9.833286285E0,4.956148863E-1
4.067923889E0,-2.741444588E0,9.960183144E0,7.948992252E-1
4.069923689E0,-2.691164970E0,1.001525116E1,9.816526771E-1
4.071923422E0,-2.509200096E0,9.933846474E0,1.431776285E0
4.073923155E0,-2.370332003E0,9.749486923E0,1.951334000E0
4.075922888E0,-2.722290516E0,9.778218269E0,2.454131603E0
4.077922988E0,-2.885101080E0,9.830892563E0,2.499622822E0
4.079922721E0,-3.124528646E0,9.988914490E0,2.700742006E0
4.081922454E0,-3.256213665E0,1.008708000E1,2.853975534E0
4.083922187E0,-3.459727049E0,1.025946712E1,3.119740009E0
4.085921987E0,-4.374340057E0,1.033368969E1,3.426207304E0
4.087921720E0,-4.829252243E0,1.045100975E1,3.486064196E0
4.089921453E0,-5.339232922E0,1.067128277E1,3.696760416E0
4.091921186E0,-5.391906738E0,1.106394386E1,4.019987583E0
4.093920919E0,-5.300924301E0,1.133449650E1,4.096604347E0
4.095920652E0,-5.035160065E0,1.173912907E1,4.383917332E0
4.097920385E0,-4.695172787E0,1.176546669E1,4.659258842E0
4.099920185E0,-4.563488007E0,1.166490650E1,4.778972626E0
4.101919985E0,-4.537150860E0,1.144702816E1,4.898686409E0
4.103919718E0,-4.697566986E0,1.110464668E1,4.719115734E0
4.105919451E0,-5.085439682E0,1.091789341E1,4.539545059E0
4.107919184E0,-5.360781193E0,1.063536835E1,4.178009510E0
4.109918917E0,-5.382329941E0,1.042946148E1,4.005621910E0
4.111918650E0,-5.262616158E0,1.030256462E1,3.754222870E0
4.113918383E0,-4.872349262E0,1.007750225E1,3.498035431E0
4.115918183E0,-4.496448040E0,9.739910126E0,3.277762175E0
4.117917983E0,-4.290540695E0,9.584281921E0,3.079037428E0
4.119917716E0,-3.833234072E0,9.220352173E0,2.791724443E0
4.121917449E0,-3.543526649E0,9.028810501E0,2.672010660E0
4.123917182E0,-2.952140808E0,8.851634026E0,2.691164970E0
4.125916915E0,-2.557085514E0,8.660092354E0,2.873129845E0
4.127916648E0,-2.408640385E0,8.585869789E0,2.837215662E0
4.129916381E0,-2.068653345E0,8.418270111E0,2.533142805E0
4.131916181E0,-1.953728199E0,8.257853508E0,3.098191500E0
4.133915914E0,-1.826831698E0,8.200390816E0,3.670423269E0
4.135915647E0,-1.764580488E0,8.667274475E0,4.563488007E0
4.137915380E0,-1.733454943E0,8.875576973E0,4.178009510E0
4.139915113E0,-1.683175206E0,9.057541847E0,3.663240433E0
4.141914846E0,-1.659232497E0,9.387951851E0,2.885101080E0
4.143914579E0,-1.905842781E0,9.613013268E0,2.633702278E0
4.145914312E0,-2.080624819E0,9.651321411E0,2.628913641E0
4.147914112E0,-2.418217659E0,9.682447433E0,2.700742006E0
4.149913845E0,-2.705530643E0,9.890748978E0,3.052700281E0
4.151913578E0,-2.913832426E0,1.006792545E1,3.222693920E0
4.153913311E0,-3.299310684E0,1.038397026E1,3.340013266E0
4.155913044E0,-3.739857197E0,1.055875206E1,3.466909885E0
4.157912777E0,-3.919427872E0,1.054917526E1,3.524372578E0
4.159912510E0,-4.115758419E0,1.047255802E1,3.447755814E0
4.161912243E0,-4.242654800E0,1.008947372E1,3.050306082E0
4.163912043E0,-4.264203548E0,9.852440834E0,2.820455790E0
4.165911776E0,-4.058295727E0,9.584281921E0,2.406246185E0
4.167911509E0,-3.713520288E0,9.390345573E0,2.094990492E0
4.169911242E0,-3.567469358E0,9.483722687E0,1.960911036E0
4.171910975E0,-3.246636629E0,1.031932449E1,1.783734679E0
4.173910708E0,-2.846792698E0,1.145899963E1,1.920208454E0
4.175910441E0,-2.877918243E0,1.198334503E1,2.348783493E0
4.177909907E0,-3.107768774E0,1.192588329E1,2.530748367E0
4.179909707E0,-3.574652195E0,1.135843945E1,2.755810261E0
4.181909473E0,-3.747040033E0,1.090831566E1,2.784541607E0
4.183909239E0,-3.840416908E0,9.988914490E0,2.502017260E0
4.185909005E0,-3.366350412E0,1.016848469E1,2.355966330E0
4.187908771E0,-3.057488918E0,1.039354706E1,2.291321039E0
4.189908537E0,-2.537931204E0,1.090352726E1,2.411034822E0
4.191908303E0,-2.233858347E0,1.124590874E1,2.135693073E0
4.193908136E0,-2.257801056E0,1.126985168E1,1.987248063E0
4.195907969E0,-2.446948767E0,1.114295483E1,1.936968327E0
4.197907769E0,-2.427794695E0,1.106633854E1,1.731060743E0
4.199907569E0,-2.248224020E0,1.098493290E1,1.652049661E0
4.201907369E0,-2.202732801E0,1.077184200E1,1.726272106E0
4.203907169E0,-2.128510237E0,1.080296803E1,1.747820616E0
4.205906969E0,-1.752609134E0,1.089634418E1,1.848380208E0
4.207906769E0,-1.417410731E0,1.094423008E1,1.970488191E0
4.209906635E0,-1.264177084E0,1.094183540E1,2.001613855E0
4.211906501E0,-1.075029373E0,1.103281784E1,1.877111435E0
4.213906367E0,-1.252205729E0,1.092507553E1,1.553884387E0
4.215906233E0,-1.436564922E0,1.097296143E1,1.228263021E0
4.217906099E0,-1.575432777E0,1.098253822E1,1.089395046E0
4.219905965E0,-1.692752242E0,1.097056675E1,8.834874034E-1
4.221905831E0,-1.596981287E0,1.086282444E1,7.326480746E-1
4.223905697E0,-4.213923812E-1,1.069522572E1,2.272166729E0
4.225905630E0,4.932205975E-1,1.058508873E1,3.390293121E0
4.227905496E0,6.608198285E-1,1.047974110E1,3.430995703E0
4.229905362E0,7.757450342E-1,1.020200539E1,3.045517445E0
4.231905228E0,6.105400920E-1,1.002961731E1,1.960911036E0
4.233905094E0,4.477293789E-1,1.007750225E1,1.568249941E0
4.235904960E0,3.615354896E-1,1.079339123E1,7.110996246E-1
4.237905093E0,2.681587934E-1,1.108070374E1,4.860377908E-1
4.239904959E0,1.915419847E-1,1.140632534E1,4.956148863E-1
4.241904859E0,1.364736706E-1,1.204559612E1,1.024749637E0
4.243904692E0,-1.436564885E-2,1.225389862E1,1.776551962E0
4.245904525E0,-3.830839694E-2,1.223235035E1,2.245829821E0
4.247904358E0,2.250618339E-1,1.210784817E1,3.093403101E0
4.249904191E0,5.961744189E-1,1.181095791E1,3.342407703E0
4.251904024E0,7.063110471E-1,1.162659836E1,3.452544212E0
4.253903857E0,7.374366522E-1,1.125788021E1,3.536343813E0
4.255903690E0,6.991282701E-1,1.103281784E1,3.335224867E0
4.257903556E0,6.871568561E-1,1.098014450E1,3.158048391E0
4.259903356E0,6.536370516E-1,1.095620155E1,2.796513081E0
4.261903156E0,5.267404318E-1,1.096817303E1,2.533142805E0
4.263902956E0,3.567469418E-1,1.096817303E1,2.351177931E0
4.265902756E0,4.549122229E-2,1.095620155E1,2.298503876E0
4.267902556E0,3.351984918E-2,1.095141315E1,2.633702278E0
4.269902356E0,1.604164094E-1,1.093225861E1,2.830032825E0
4.271902156E0,4.189980924E-1,1.081493950E1,3.205934048E0
4.273901956E0,5.746259689E-1,1.069761944E1,3.531555414E0
4.275901689E0,9.146129489E-1,1.062818623E1,3.565075159E0
4.277901722E0,9.720755816E-1,1.053480911E1,3.514795303E0
4.279901455E0,9.648927450E-1,1.041749001E1,3.557892323E0
4.281900255E0,9.601042271E-1,1.041749001E1,3.557892323E0
4.283899988E0,9.601042271E-1,1.047495270E1,3.536343813E0
4.285899721E0,1.024749637E0,1.055875206E1,3.428601503E0
4.287899521E0,1.029538155E0,1.059227180E1,3.399870157E0
4.289899254E0,1.149251938E0,1.064733982E1,3.378321648E0
4.291898987E0,1.209108829E0,1.063297462E1,3.244242430E0
4.293898720E0,1.156434774E0,1.058030033E1,3.162837029E0
4.295898453E0,1.079817891E0,1.049171257E1,3.007209063E0
4.297898186E0,1.046298146E0,1.037678719E1,2.909043789E0
4.299897919E0,9.840469360E-1,1.033129597E1,2.736656189E0
4.301897652E0,1.015172482E0,1.025707340E1,2.669616461E0
4.303897452E0,1.048692346E0,1.021397591E1,2.679193497E0
4.305897185E0,1.125309110E0,1.017087936E1,2.767781734E0
4.307896918E0,1.149251938E0,1.014933109E1,2.901860952E0
4.309896651E0,1.158828974E0,1.015651417E1,2.983266354E0
4.311896384E0,1.151646137E0,1.020918751E1,3.067065954E0
