"Time (s)","Gyroscope x (rad/s)","Gyroscope y (rad/s)","Gyroscope z (rad/s)"
0.000000000E0,4.378682077E-1,4.621631801E-1,-6.111444831E-1
3.970312000E-3,3.478615582E-1,3.992440701E-1,-5.725029111E-1
7.940625000E-3,2.423389703E-1,3.360282481E-1,-5.324999690E-1
1.191093700E-2,1.332384348E-1,2.749766111E-1,-4.945041239E-1
1.588281200E-2,1.790707745E-2,2.173632979E-1,-4.581140280E-1
1.985312500E-2,-1.037947312E-1,1.668185741E-1,-4.189837277E-1
2.382187500E-2,-2.184803188E-1,1.194677874E-1,-3.807610273E-1
2.779375000E-2,-3.322583139E-1,7.504915446E-2,-3.474601507E-1
3.176406200E-2,-4.370130002E-1,3.907792270E-2,-3.205646276E-1
3.573437500E-2,-5.245587230E-1,2.125811018E-2,-3.064623475E-1
3.970468700E-2,-5.934643149E-1,2.158972248E-2,-3.092548847E-1
4.367500000E-2,-6.380574703E-1,3.642502055E-2,-3.288025856E-1
4.764531200E-2,-6.558772922E-1,5.881759524E-2,-3.659606278E-1
5.161718700E-2,-6.483200192E-1,8.948303014E-2,-4.117929935E-1
5.558750000E-2,-6.201503873E-1,1.301666498E-1,-4.583758116E-1
5.955781200E-2,-5.720142126E-1,1.827534288E-1,-5.006302595E-1
6.352812500E-2,-4.965636134E-1,2.560048997E-1,-5.228133798E-1
6.749843700E-2,-4.063999057E-1,4.027696252E-1,-5.123413801E-1
7.146875000E-2,-3.106511533E-1,6.188064814E-1,-4.736300111E-1
7.544062500E-2,-2.057743222E-1,8.624544740E-1,-4.194026291E-1
7.941093700E-2,-6.166248396E-2,1.104601383E0,-3.679328561E-1
8.338281200E-2,9.658651799E-2,1.341599703E0,-3.287502229E-1
8.735156200E-2,2.806314826E-1,1.596400261E0,-2.952224314E-1
9.132187500E-2,4.774871767E-1,1.875949740E0,-2.678033113E-1
9.529218700E-2,6.839247346E-1,2.192779303E0,-2.386912256E-1
9.926250000E-2,8.947081566E-1,2.545684814E0,-1.958957613E-1
1.032328120E-1,1.106503844E0,2.903390169E0,-1.356818974E-1
1.072046870E-1,1.332332015E0,3.266505957E0,-5.312782153E-2
1.111750000E-1,1.578720093E0,3.634019852E0,3.900810704E-2
1.151453120E-1,1.829314470E0,4.006682396E0,1.364847422E-1
1.191156250E-1,2.093243122E0,4.353130341E0,2.245191485E-1
1.230859370E-1,2.340329409E0,4.673415661E0,3.030415177E-1
1.270562500E-1,2.574064016E0,4.925214291E0,3.737797141E-1
1.310265620E-1,2.785074234E0,5.071909428E0,4.373795092E-1
1.349984370E-1,2.985839367E0,5.091963291E0,4.988325536E-1
1.389687500E-1,3.185365438E0,4.970907211E0,5.620833039E-1
1.429390620E-1,3.362970114E0,4.767803192E0,6.353173256E-1
1.469093750E-1,3.485527277E0,4.572605610E0,7.173652053E-1
1.508796870E-1,3.514185429E0,4.425230026E0,7.883128524E-1
1.548515620E-1,3.467113972E0,4.298833370E0,8.212821484E-1
1.588203120E-1,3.381942034E0,4.149677277E0,8.038462996E-1
1.627906250E-1,3.290766001E0,3.999160051E0,7.553086877E-1
1.667625000E-1,3.188734055E0,3.862116814E0,7.004704475E-1
1.707328120E-1,3.084293365E0,3.722682476E0,6.661398411E-1
1.747031250E-1,2.989609480E0,3.595989227E0,6.510252357E-1
1.786734370E-1,2.903512239E0,3.452662706E0,6.463477612E-1
1.826437500E-1,2.843856812E0,3.292301893E0,6.365565062E-1
1.866140620E-1,2.816699505E0,3.104190350E0,6.186494231E-1
1.905859370E-1,2.825286627E0,2.901522636E0,6.043202281E-1
1.945562500E-1,2.855847359E0,2.701036692E0,5.960822701E-1
1.985265620E-1,2.884907007E0,2.520220518E0,5.705132484E-1
2.024968750E-1,2.901086330E0,2.364938498E0,5.205968022E-1
2.064671870E-1,2.892813444E0,2.214456320E0,4.382347167E-1
2.104375000E-1,2.859355450E0,2.069297314E0,3.231302500E-1
2.144093750E-1,2.798687696E0,1.893525124E0,1.882861257E-1
2.183796870E-1,2.704911232E0,1.681607246E0,5.033529550E-2
2.223484370E-1,2.580382109E0,1.459549069E0,-6.949900836E-2
2.263203120E-1,2.416757345E0,1.252745032E0,-1.677261442E-1
2.302906250E-1,2.214246750E0,1.036463737E0,-2.517637312E-1
2.342609370E-1,1.990024447E0,8.169362545E-1,-3.180688024E-1
2.382312500E-1,1.716164827E0,5.767440200E-1,-3.718947470E-1
2.422015620E-1,1.388374567E0,2.455852777E-1,-4.266108274E-1
2.461734370E-1,9.603674412E-1,-2.163161039E-1,-4.759338200E-1
2.501437500E-1,5.238256454E-1,-6.157696247E-1,-5.091300011E-1
2.541140620E-1,1.440071166E-1,-8.576198816E-1,-5.202128291E-1
2.580843750E-1,-1.304982603E-1,-9.509775639E-1,-5.135980248E-1
2.620546870E-1,-2.814168930E-1,-9.500001669E-1,-5.040336251E-1
2.660250000E-1,-3.263416588E-1,-8.943067193E-1,-5.025849938E-1
2.699953120E-1,-2.785545588E-1,-8.123111129E-1,-5.139471292E-1
2.739671870E-1,-1.727701426E-1,-7.194247246E-1,-5.379802585E-1
2.779375000E-1,-1.598721556E-2,-6.542017460E-1,-5.732883215E-1
2.819078120E-1,1.581442803E-1,-6.415480971E-1,-6.210405231E-1
2.858968750E-1,3.393094540E-1,-6.851987839E-1,-6.866125464E-1
2.898484370E-1,5.017123222E-1,-7.668104172E-1,-7.562511563E-1
2.938187500E-1,6.464699507E-1,-8.434827328E-1,-8.365886807E-1
2.977890620E-1,7.648730874E-1,-9.079028368E-1,-9.255830050E-1
3.017593750E-1,8.535358310E-1,-9.661968350E-1,-1.009760261E0
3.057312500E-1,9.213767648E-1,-1.041612506E0,-1.066361308E0
3.097015620E-1,9.717120528E-1,-1.125580311E0,-1.088509440E0
3.136718750E-1,1.008172035E0,-1.213544846E0,-1.074407220E0
3.176421870E-1,1.027457833E0,-1.300584435E0,-1.034299612E0
3.216125000E-1,1.038051963E0,-1.382667303E0,-9.793740511E-1
3.255828120E-1,1.046516895E0,-1.435027122E0,-9.220399857E-1
3.295531250E-1,1.068734884E0,-1.476391435E0,-8.542513847E-1
3.335250000E-1,1.106137276E0,-1.495485306E0,-7.837051749E-1
3.374953120E-1,1.172023535E0,-1.478625536E0,-7.219728827E-1
3.414656250E-1,1.264892459E0,-1.448012352E0,-6.784618497E-1
3.454359370E-1,1.391358972E0,-1.412180781E0,-6.420193911E-1
3.494062500E-1,1.550759912E0,-1.401726246E0,-5.846678615E-1
3.533781250E-1,1.727666497E0,-1.433177114E0,-4.653047621E-1
3.573468750E-1,1.905951858E0,-1.459252357E0,-2.865132391E-1
3.613171870E-1,2.092457771E0,-1.424328327E0,-7.211700082E-2
3.652890620E-1,2.294462204E0,-1.359489322E0,1.651255935E-1
3.692593750E-1,2.442850113E0,-1.400015831E0,4.184775949E-1
3.732296870E-1,2.492801428E0,-1.524597406E0,6.494020820E-1
3.772000000E-1,2.488612652E0,-1.646945000E0,8.866097927E-1
3.811703120E-1,2.465382338E0,-1.756080508E0,1.122037292E0
3.851406250E-1,2.442274094E0,-1.858583689E0,1.330028176E0
3.891125000E-1,2.432639837E0,-1.955205083E0,1.499359965E0
3.930828120E-1,2.426531315E0,-1.995469809E0,1.608059049E0
3.970531250E-1,2.428084612E0,-2.010863543E0,1.666038990E0
4.010234370E-1,2.434821606E0,-2.054584026E0,1.696634531E0
4.049937500E-1,2.431627512E0,-2.127416611E0,1.720999360E0
4.089640620E-1,2.413790464E0,-2.196706295E0,1.737754464E0
4.129359370E-1,2.386842489E0,-2.258595705E0,1.742274880E0
4.169046870E-1,2.355880260E0,-2.326174736E0,1.728259921E0
4.208750000E-1,2.325982809E0,-2.391554832E0,1.704401255E0
4.248468750E-1,2.288231373E0,-2.440511227E0,1.679390669E0
4.288171870E-1,2.240322113E0,-2.480654001E0,1.653420210E0
4.327875000E-1,2.183110237E0,-2.527393818E0,1.631603599E0
4.367578120E-1,2.121238232E0,-2.592215300E0,1.616576314E0
4.407281250E-1,2.056137562E0,-2.670615435E0,1.607692599E0
4.447000000E-1,2.000967503E0,-2.735140324E0,1.603416562E0
4.486687500E-1,1.957648516E0,-2.774584770E0,1.601252317E0
4.526390620E-1,1.929042578E0,-2.779593945E0,1.604760408E0
4.566109370E-1,1.910751581E0,-2.742680073E0,1.616506457E0
4.605812500E-1,1.903281569E0,-2.650736332E0,1.643332243E0
4.645515620E-1,1.893211007E0,-2.514617920E0,1.688256979E0
4.685218750E-1,1.883367300E0,-2.344047070E0,1.747702837E0
4.724921870E-1,1.867694259E0,-2.157314301E0,1.821757197E0
4.764625000E-1,1.852475047E0,-1.977824569E0,1.894362926E0
4.804343750E-1,1.843224764E0,-1.794320583E0,1.961348653E0
4.844046870E-1,1.848635316E0,-1.601531625E0,2.013568878E0
4.883750000E-1,1.860294104E0,-1.430506706E0,2.042855501E0
4.923453120E-1,1.876438379E0,-1.302451968E0,2.053798676E0
4.963156250E-1,1.899302244E0,-1.237473369E0,2.047916889E0
5.002859370E-1,1.934296012E0,-1.220264435E0,2.032819986E0
5.042578120E-1,1.978365660E0,-1.223179102E0,2.014441490E0
5.082265620E-1,2.034547806E0,-1.222899795E0,1.994579673E0
5.121984370E-1,2.097222567E0,-1.205080032E0,1.968801260E0
5.161687500E-1,2.162934065E0,-1.164029837E0,1.930927515E0
5.201390620E-1,2.232625246E0,-1.093239307E0,1.880539894E0
5.241093750E-1,2.307831526E0,-1.002534628E0,1.809766769E0
5.280796870E-1,2.384940147E0,-9.126151800E-1,1.724786758E0
5.320515620E-1,2.454910278E0,-8.152956367E-1,1.607692599E0
5.360203120E-1,2.503849268E0,-7.105235457E-1,1.446720839E0
5.399921870E-1,2.557518244E0,-6.774321198E-1,1.259848475E0
5.439625000E-1,2.634260416E0,-7.300363183E-1,1.073045850E0
5.479328120E-1,2.731684685E0,-8.579340577E-1,9.036965966E-1
5.519031250E-1,2.850244761E0,-1.029168248E0,7.662344575E-1
5.558734370E-1,2.964127541E0,-1.187242746E0,6.605896950E-1
5.598437500E-1,3.046419859E0,-1.271140695E0,5.604426861E-1
5.638156250E-1,3.090105534E0,-1.274753571E0,4.680100381E-1
5.677843750E-1,3.124052048E0,-1.226460338E0,3.711617291E-1
5.717562500E-1,3.152029753E0,-1.154064059E0,2.924822867E-1
5.757265620E-1,3.180531025E0,-1.063097477E0,2.278352827E-1
5.796968750E-1,3.213413000E0,-9.669473171E-1,1.784948260E-1
5.836671870E-1,3.257936239E0,-8.723504543E-1,1.365720183E-1
5.876687500E-1,3.314432621E0,-7.737393379E-1,9.658651799E-2
5.916093750E-1,3.378974915E0,-6.786538363E-1,5.112069473E-2
5.955796870E-1,3.441283226E0,-5.977054238E-1,-4.712388909E-4
5.995500000E-1,3.500432253E0,-5.273686647E-1,-5.923647434E-2
6.035203120E-1,3.563560963E0,-4.652349651E-1,-1.249830276E-1
6.074906250E-1,3.626532316E0,-4.153185487E-1,-1.919513047E-1
6.114609370E-1,3.690673113E0,-3.759439290E-1,-2.563888729E-1
6.154312500E-1,3.754953623E0,-3.479139209E-1,-3.142988980E-1
6.194015620E-1,3.812532187E0,-3.365343809E-1,-3.572514355E-1
6.233734370E-1,3.858102560E0,-3.463605940E-1,-3.869569600E-1
6.273421870E-1,3.897686720E0,-3.712140918E-1,-4.059984982E-1
6.313140620E-1,3.930272102E0,-4.052479863E-1,-4.213399291E-1
6.352843750E-1,3.953973532E0,-4.368559122E-1,-4.318118989E-1
6.392546870E-1,3.970397234E0,-4.595626295E-1,-4.384616017E-1
6.432250000E-1,3.974830389E0,-4.694063067E-1,-4.415333867E-1
6.471953120E-1,3.962298870E0,-4.767715931E-1,-4.400847554E-1
6.511671870E-1,3.930725813E0,-4.806462228E-1,-4.315850139E-1
6.551375000E-1,3.876899958E0,-4.845208526E-1,-4.155105352E-1
6.591078120E-1,3.813614130E0,-4.825311899E-1,-3.949156404E-1
6.630781250E-1,3.744883060E0,-4.681671262E-1,-3.782477677E-1
6.670484370E-1,3.677426100E0,-4.364195764E-1,-3.713362515E-1
6.710187500E-1,3.607613087E0,-3.936590254E-1,-3.797661960E-1
6.749890620E-1,3.528322697E0,-3.564660549E-1,-4.097858667E-1
6.789609370E-1,3.437146664E0,-3.291341960E-1,-4.605574906E-1
6.829312500E-1,3.347942829E0,-3.156951666E-1,-5.237383842E-1
6.869015620E-1,3.251670599E0,-3.073873818E-1,-6.040584445E-1
6.908718750E-1,3.153670311E0,-3.037047386E-1,-6.879215240E-1
6.948421870E-1,3.057851791E0,-3.084695041E-1,-7.701789141E-1
6.988125000E-1,2.960026026E0,-3.214547336E-1,-8.430987597E-1
7.027843750E-1,2.848115444E0,-3.334276974E-1,-8.961393237E-1
7.067531250E-1,2.727077007E0,-3.385066092E-1,-9.364563823E-1
7.107234370E-1,2.595897913E0,-3.471983373E-1,-9.623221755E-1
7.146953120E-1,2.464596987E0,-3.586477041E-1,-9.785537720E-1
7.186656250E-1,2.332475424E0,-3.601486981E-1,-9.835453629E-1
7.226359370E-1,2.202012062E0,-3.475823104E-1,-9.747489095E-1
7.266062500E-1,2.077395678E0,-3.370754421E-1,-9.494416714E-1
7.305765620E-1,1.950196028E0,-3.448421657E-1,-9.101717472E-1
7.345484370E-1,1.821303487E0,-3.663097024E-1,-8.571661115E-1
7.385187500E-1,1.697995901E0,-3.908839524E-1,-7.954861522E-1
7.424890620E-1,1.572052956E0,-4.103792608E-1,-7.369478345E-1
7.464593750E-1,1.449478507E0,-4.257207215E-1,-6.894399524E-1
7.504296870E-1,1.330831051E0,-4.402418435E-1,-6.590014100E-1
7.544000000E-1,1.226128697E0,-4.538204968E-1,-6.421939135E-1
7.583703120E-1,1.128669500E0,-4.668232203E-1,-6.338861585E-1
7.623421870E-1,1.039430857E0,-4.918861389E-1,-6.261717677E-1
7.663109370E-1,9.594249129E-1,-5.253790021E-1,-6.058037877E-1
7.702828120E-1,8.966978192E-1,-5.370377898E-1,-5.732533932E-1
7.742531250E-1,8.434827328E-1,-5.067738295E-1,-5.296725035E-1
7.782234370E-1,7.914021015E-1,-4.468042850E-1,-4.761781693E-1
7.821937500E-1,7.228804827E-1,-3.793473244E-1,-4.208337963E-1
7.861640620E-1,6.305001974E-1,-3.346319795E-1,-3.567104042E-1
7.901343750E-1,4.937012792E-1,-3.444756269E-1,-2.804045975E-1
7.941046870E-1,3.249803185E-1,-3.724009097E-1,-1.998576522E-1
7.980765620E-1,1.511106044E-1,-3.786666393E-1,-1.164658219E-1
8.020468750E-1,-3.396410868E-2,-3.521376252E-1,-5.394812673E-2
8.060171870E-1,-2.277829200E-1,-3.167423606E-1,-7.382742595E-3
8.099875000E-1,-4.290717542E-1,-2.822022736E-1,1.813396998E-2
8.139578120E-1,-6.311110258E-1,-2.646093667E-1,2.284635976E-2
8.179281250E-1,-8.103389144E-1,-2.690599561E-1,3.735004691E-3
8.219000000E-1,-9.478010535E-1,-2.884331048E-1,-2.937389165E-2
8.258687500E-1,-1.051264167E0,-3.060260415E-1,-6.754424423E-2
8.298406250E-1,-1.118860722E0,-3.071430326E-1,-9.798278660E-2
8.338109370E-1,-1.157258034E0,-2.829178572E-1,-1.137256548E-1
8.377812500E-1,-1.172843814E0,-2.321636975E-1,-1.258033365E-1
8.417515620E-1,-1.157484889E0,-1.679006666E-1,-1.360309571E-1
8.457218750E-1,-1.120047569E0,-1.061334684E-1,-1.355597228E-1
8.496921870E-1,-1.074285030E0,-4.050909355E-2,-1.125737354E-1
8.536640620E-1,-1.012866974E0,3.663446009E-2,-6.846926361E-2
8.576343750E-1,-9.325643182E-1,1.266236305E-1,-2.949606394E-3
8.616046870E-1,-8.527504206E-1,1.823520064E-1,9.627236426E-2
8.655750000E-1,-7.760781050E-1,1.926843524E-1,2.457598150E-1
8.695453120E-1,-7.071725130E-1,1.582839042E-1,4.415857494E-1
8.735156250E-1,-6.424033642E-1,1.534493417E-1,6.508507133E-1
8.774875000E-1,-5.842489600E-1,2.232276052E-1,8.752477169E-1
8.814578120E-1,-5.394288898E-1,3.531499207E-1,1.087654233E0
8.854265620E-1,-5.206491947E-1,4.742583036E-1,1.272327542E0
8.893984370E-1,-5.353273749E-1,5.654692054E-1,1.404047608E0
8.933687500E-1,-5.886646509E-1,6.215990186E-1,1.473337173E0
8.973390620E-1,-6.801024675E-1,6.750235558E-1,1.470492244E0
9.013109370E-1,-7.960446477E-1,7.450810671E-1,1.406665564E0
9.052796870E-1,-9.510996938E-1,8.171282411E-1,1.302050471E0
9.092515620E-1,-1.140537739E0,8.800299168E-1,1.194067001E0
9.132218750E-1,-1.342088342E0,9.188634753E-1,1.124009490E0
9.171921870E-1,-1.542783737E0,9.196663499E-1,1.118214965E0
9.211625000E-1,-1.689112186E0,9.072046876E-1,1.177678347E0
9.251328120E-1,-1.796083450E0,8.903971910E-1,1.310881853E0
9.291031250E-1,-1.850485325E0,8.920028806E-1,1.493425846E0
9.330750000E-1,-1.844498873E0,9.141336679E-1,1.726689100E0
9.370453120E-1,-1.773725748E0,9.481850266E-1,2.000636101E0
9.410156250E-1,-1.634116888E0,9.808576107E-1,2.290186167E0
9.449859370E-1,-1.426317930E0,1.022832751E0,2.583593369E0
9.489562500E-1,-1.211206079E0,1.054178834E0,2.857121468E0
9.529265620E-1,-1.006583691E0,1.162179828E0,3.071465254E0
9.568968750E-1,-7.447494268E-1,1.367168784E0,3.230796337E0
9.608671870E-1,-4.811523557E-1,1.611096025E0,3.333893061E0
9.648375000E-1,-2.694090307E-1,1.847937107E0,3.401838779E0
9.688093750E-1,-1.136558428E-1,2.117869854E0,3.429362535E0
9.727796870E-1,1.677261479E-2,2.465329885E0,3.425662518E0
9.767500000E-1,1.639387757E-1,2.730393171E0,3.414143324E0
9.807203120E-1,3.141767085E-1,2.861292839E0,3.424493074E0
9.846906250E-1,4.341157377E-1,2.895518780E0,3.452226400E0
9.886609370E-1,4.627216756E-1,2.859390259E0,3.474514246E0
9.926328120E-1,4.083197713E-1,2.717407703E0,3.513539791E0
9.966031250E-1,2.790606916E-1,2.396651268E0,3.597455263E0
1.000573437E0,1.035678387E-1,1.957439065E0,3.701162577E0
1.004543750E0,-1.128180847E-1,1.612719178E0,3.741410017E0
1.008514062E0,-3.994534910E-1,1.477752805E0,3.622099161E0
1.012484375E0,-6.898588538E-1,1.421221614E0,3.376618624E0
1.016454687E0,-9.336987734E-1,1.373399615E0,3.149289608E0
1.020425000E0,-1.183123827E0,1.457472086E0,2.959607124E0
1.024395312E0,-1.428831220E0,1.720685244E0,2.768458605E0
1.028367187E0,-1.817585826E0,2.214526176E0,2.615742445E0
1.032337500E0,-2.447230816E0,2.650422096E0,2.436444759E0
1.036307812E0,-3.242647171E0,2.975018501E0,2.112249851E0
1.040278125E0,-4.065535069E0,3.253101826E0,1.829785705E0
1.044248437E0,-4.744520664E0,3.409535646E0,1.612178087E0
1.048218750E0,-5.164935589E0,3.157003880E0,1.486636519E0
1.052190625E0,-5.220786095E0,2.280883551E0,1.446214676E0
1.056160937E0,-4.933190346E0,7.588691711E-1,1.481016636E0
1.060131250E0,-4.471306801E0,-9.893573523E-1,1.559067726E0
1.064101562E0,-3.943100214E0,-2.515455723E0,1.701259732E0
1.068071875E0,-3.464024782E0,-3.322897434E0,2.031929731E0
1.072042187E0,-3.229382753E0,-3.700132847E0,2.467860699E0
1.076014062E0,-3.102270365E0,-4.274346352E0,3.180653095E0
1.079982812E0,-2.877943277E0,-4.889260769E0,3.926764011E0
1.083954687E0,-2.457388639E0,-5.365316868E0,4.313354492E0
1.087925000E0,-1.863296032E0,-5.820707798E0,4.150637150E0
1.091895312E0,-1.213248134E0,-6.387922287E0,3.511654854E0
1.095865625E0,-5.605997443E-1,-6.562612534E0,2.680703640E0
1.099837500E0,7.557275705E-3,-6.305071831E0,1.962587833E0
1.103806250E0,5.197939277E-1,-5.765817165E0,1.393453360E0
1.107778125E0,9.679247141E-1,-5.057004452E0,9.509426355E-1
1.111748437E0,1.288035512E0,-4.291712284E0,5.957506895E-1
1.115718750E0,1.487125278E0,-3.526175976E0,3.221179545E-1
1.119689062E0,1.585806131E0,-2.829161167E0,9.882054478E-2
1.123659375E0,1.616314530E0,-2.227843046E0,-6.546729803E-2
1.127629687E0,1.603329301E0,-1.750338316E0,-1.721243709E-1
1.131600000E0,1.565438151E0,-1.329225302E0,-2.311165035E-1
1.135571875E0,1.528437138E0,-9.434551597E-1,-2.520255446E-1
1.139542187E0,1.507807374E0,-6.066939235E-1,-2.622880936E-1
1.143512500E0,1.494298577E0,-2.964790761E-1,-2.649409771E-1
1.147482812E0,1.487613916E0,-1.410226058E-2,-2.739119828E-1
1.151453125E0,1.477927327E0,2.305056304E-1,-2.813819945E-1
1.155423437E0,1.452218652E0,4.271344244E-1,-2.821324766E-1
1.159393750E0,1.397659659E0,5.688551664E-1,-2.719397545E-1
1.163364062E0,1.306815267E0,6.709394455E-1,-2.391799241E-1
1.167335937E0,1.190122604E0,7.507010102E-1,-1.960179210E-1
1.171328125E0,1.046447039E0,7.978597879E-1,-1.483006328E-1
1.175276562E0,8.715825081E-1,8.048760295E-1,-1.385267824E-1
1.179246875E0,6.789330840E-1,8.016820550E-1,-1.752659678E-1
1.183217187E0,4.660727084E-1,8.225038648E-1,-2.323207706E-1
1.187187500E0,2.368935347E-1,8.864876032E-1,-2.836334705E-1
1.191159375E0,1.457349956E-2,9.851859808E-1,-3.147875965E-1
1.195129687E0,-2.027199864E-1,1.110779881E0,-3.280346394E-1
1.199098437E0,-4.074470997E-1,1.229217887E0,-3.271096051E-1
1.203070312E0,-5.875825286E-1,1.330237627E0,-3.139323592E-1
1.207040625E0,-7.557449937E-1,1.397083759E0,-2.862688899E-1
1.211010937E0,-8.990889192E-1,1.424153805E0,-2.402096689E-1
1.214981250E0,-1.016270280E0,1.412111044E0,-1.852841526E-1
1.218951562E0,-1.104007959E0,1.346381903E0,-1.249132156E-1
1.222921875E0,-1.172355056E0,1.224418283E0,-6.593853980E-2
1.226893750E0,-1.211555243E0,1.057320476E0,-1.443387289E-2
1.230864062E0,-1.222219110E0,8.660847545E-1,2.455678210E-2
1.234834375E0,-1.205882907E0,6.405183673E-1,5.145230517E-2
1.238804687E0,-1.166543126E0,4.080928862E-1,7.049384713E-2
1.242775000E0,-1.108109593E0,1.750041693E-1,8.208283782E-2
1.246745312E0,-1.036585927E0,-4.108504951E-2,8.857546002E-2
1.250717187E0,-9.473123550E-1,-2.346420586E-1,9.129817039E-2
1.254687500E0,-8.385608792E-1,-3.876027167E-1,1.010371074E-1
1.258657812E0,-7.156897187E-1,-4.862138331E-1,1.202880889E-1
1.262628125E0,-5.773374438E-1,-5.379453897E-1,1.408306211E-1
1.266598437E0,-4.229630828E-1,-5.473701358E-1,1.513025910E-1
1.270568750E0,-2.644173801E-1,-5.254487991E-1,1.495223492E-1
1.274539062E0,-1.123468429E-1,-4.758989215E-1,1.389631182E-1
1.278535937E0,3.785619140E-2,-4.018795192E-1,1.219112501E-1
1.282484375E0,1.731192023E-1,-3.214198351E-1,1.027126238E-1
1.286451562E0,2.845235765E-1,-2.432639897E-1,8.491026610E-2
1.290421875E0,3.762231767E-1,-1.709026396E-1,6.913249195E-2
1.294392187E0,4.436277747E-1,-1.103746220E-1,5.431464687E-2
1.298362500E0,4.863359928E-1,-6.056292355E-2,4.293509945E-2
1.302332812E0,5.059011579E-1,-1.371828746E-2,3.124139272E-2
1.306304687E0,5.075417161E-1,3.190461919E-2,2.141519077E-2
1.310275000E0,4.905073345E-1,6.534512341E-2,1.267109066E-2
1.314243750E0,4.583583772E-1,9.225810319E-2,5.131267942E-3
1.318215625E0,4.111472070E-1,1.161516607E-1,-3.281218931E-3
1.322185937E0,3.497639894E-1,1.177224591E-1,-7.906341925E-3
1.326156250E0,2.837730944E-1,1.178097278E-1,-1.136209350E-2
1.330126562E0,2.114466429E-1,1.175304726E-1,-1.631882787E-2
1.334098437E0,1.372177899E-1,1.225744709E-1,-2.138028294E-2
1.338067187E0,6.894050539E-2,1.234296858E-1,-2.466150187E-2
1.342039062E0,6.248278543E-3,1.325228512E-1,-2.851868048E-2
1.346009375E0,-4.197516665E-2,1.447052509E-1,-3.118903376E-2
1.349979687E0,-7.969173044E-2,1.451764852E-1,-3.263765574E-2
1.353950000E0,-1.056447774E-1,1.326624751E-1,-3.316125646E-2
1.357920312E0,-1.200786531E-1,1.092052534E-1,-3.164282069E-2
1.361890625E0,-1.253495514E-1,8.669050038E-2,-3.199188411E-2
1.365862500E0,-1.235693097E-1,6.935938448E-2,-3.193952516E-2
1.369832812E0,-1.173733920E-1,5.176646635E-2,-3.103195317E-2
1.373803125E0,-1.101826355E-1,2.881538495E-2,-2.808234841E-2
1.377773437E0,-1.028871611E-1,-7.679448463E-4,-2.309070528E-2
1.381743750E0,-9.361945838E-2,-3.682644665E-2,-1.816887781E-2
1.385714062E0,-8.396779001E-2,-6.248278543E-2,-1.478293911E-2
1.389684375E0,-7.182029635E-2,-7.698646933E-2,-1.104793418E-2
1.393654687E0,-5.827654526E-2,-8.424704522E-2,-7.661995478E-3
1.397625000E0,-4.298745841E-2,-8.733627200E-2,-1.954768784E-3
1.401596875E0,-2.726204321E-2,-8.677776903E-2,7.155850180E-4
1.405567187E0,-1.579522900E-2,-8.513715863E-2,2.164208330E-3
1.409537500E0,-3.159045940E-3,-7.387978584E-2,1.483529806E-3
1.413507812E0,8.395033889E-3,-4.654793069E-2,-1.745329209E-4
1.417478125E0,1.802925020E-2,-1.202531811E-2,-2.111848444E-3
1.421448437E0,2.656391077E-2,1.986184716E-2,-2.914699726E-3
1.425420312E0,3.075270168E-2,4.459316283E-2,-3.735004691E-3
1.429390625E0,3.108431399E-2,5.960299447E-2,-5.759586580E-3
1.433360937E0,2.801253460E-2,7.646287233E-2,-7.033676840E-3
1.437331250E0,2.239257470E-2,9.229300916E-2,-7.819075137E-3
1.441301562E0,1.626646891E-2,1.056273282E-1,-6.073745899E-3
1.445271875E0,6.841690745E-3,1.075820923E-1,-2.914699726E-3
1.449243750E0,-2.827433404E-3,1.037249193E-1,2.426007763E-3
1.453214062E0,-9.564404376E-3,9.354964644E-2,7.731808349E-3
1.457184375E0,-1.539380383E-2,8.110544831E-2,1.483529899E-2
1.461154687E0,-1.902408898E-2,6.565928459E-2,2.375393175E-2
1.465125000E0,-1.830850355E-2,4.928809777E-2,3.345796093E-2
1.469095312E0,-1.661553420E-2,3.494149074E-2,4.396484420E-2
1.473065625E0,-1.106538717E-2,2.171189524E-2,5.543165654E-2
1.477035937E0,-4.031710327E-3,1.268854365E-2,6.731735170E-2
1.481006250E0,4.258603323E-3,3.124139272E-3,7.824310660E-2
1.484978125E0,1.183333248E-2,-9.896016680E-3,8.847074211E-2
1.488948437E0,1.698205434E-2,-2.143264376E-2,9.489355236E-2
1.492918750E0,2.146754973E-2,-3.150319308E-2,9.702285379E-2
1.496889062E0,2.265437320E-2,-4.256857932E-2,9.562659264E-2
1.500859375E0,1.904154196E-2,-5.719443783E-2,8.862782270E-2
1.504831250E0,1.359611470E-2,-7.063347101E-2,7.792895287E-2
1.508800000E0,4.328416660E-3,-8.136724681E-2,6.265731901E-2
1.512775000E0,-3.787364578E-3,-8.733627200E-2,4.541346803E-2
1.516742187E0,-1.221730467E-2,-8.768533915E-2,3.022910282E-2
1.520712500E0,-1.939060725E-2,-8.461356163E-2,1.363102160E-2
1.524682812E0,-2.473131567E-2,-7.463027537E-2,-1.972222002E-3
1.528653125E0,-2.808234841E-2,-6.435029209E-2,-1.673770696E-2
1.532623437E0,-3.120648675E-2,-5.202826485E-2,-2.932153083E-2
1.536593750E0,-3.307398781E-2,-4.099778458E-2,-3.951425478E-2
1.540564062E0,-3.551745042E-2,-3.330088034E-2,-4.790928960E-2
1.544535937E0,-3.975860029E-2,-2.736676298E-2,-5.220279843E-2
1.548506250E0,-4.537856206E-2,-2.687807009E-2,-5.377359316E-2
1.552476562E0,-5.302310362E-2,-2.946115844E-2,-5.267403647E-2
1.556446875E0,-5.909684673E-2,-3.239331022E-2,-5.028293654E-2
1.560417187E0,-6.457718462E-2,-4.022983834E-2,-4.408701509E-2
1.564389062E0,-6.782349199E-2,-5.220279843E-2,-3.509857133E-2
1.568357812E0,-7.061602175E-2,-6.618288159E-2,-2.537708730E-2
1.572329687E0,-7.000515610E-2,-7.705628872E-2,-1.666789502E-2
1.576300000E0,-6.637486815E-2,-8.019787818E-2,-1.213003788E-2
1.580301562E0,-6.195918843E-2,-8.204792440E-2,-5.986479111E-3
1.584240625E0,-5.705481395E-2,-8.480554819E-2,-4.712388909E-4
1.588210937E0,-5.080653355E-2,-8.672541380E-2,2.757620299E-3
1.592181250E0,-4.555309191E-2,-9.007643908E-2,5.550147034E-3
1.596153125E0,-3.892084211E-2,-9.786061198E-2,8.691739291E-3
1.600123437E0,-3.689625859E-2,-1.293812543E-1,1.583013684E-2
1.604093750E0,-3.576179594E-2,-1.675865203E-1,2.146754973E-2
1.608064062E0,-3.155555204E-2,-1.939758956E-1,2.172934823E-2
1.612034375E0,-2.052507177E-2,-1.942376941E-1,2.164208330E-2
1.616004687E0,-7.557275705E-3,-1.745852828E-1,2.371902391E-2
1.619975000E0,5.899212789E-3,-1.477595717E-1,2.638937905E-2
1.623946875E0,1.979203336E-2,-1.270599663E-1,2.511528693E-2
1.627915625E0,3.408627957E-2,-1.097812131E-1,2.298598550E-2
1.631885937E0,4.913101718E-2,-9.171704948E-2,1.940806210E-2
1.635857812E0,6.267477572E-2,-7.286749780E-2,1.712168008E-2
1.639828125E0,6.937684119E-2,-5.319763720E-2,1.593485661E-2
1.643798437E0,6.855653226E-2,-4.143411666E-2,1.425934024E-2
1.647768750E0,5.902703479E-2,-3.160791099E-2,1.111774705E-2
1.651739062E0,4.192280769E-2,-2.438225038E-2,8.342674002E-3
1.655710937E0,2.242748067E-2,-1.090830751E-2,3.996803891E-3
1.659681250E0,-2.827433404E-3,3.281218931E-3,3.141592606E-4
1.663651562E0,-2.583087236E-2,1.781981252E-2,-1.832595677E-3
1.667621875E0,-4.792674258E-2,3.485422581E-2,-4.049163777E-3
1.671592187E0,-6.724753231E-2,4.789183289E-2,-5.393067375E-3
1.675562500E0,-8.402015269E-2,5.459389836E-2,-5.881759338E-3
1.679534375E0,-9.412560612E-2,5.633922666E-2,-4.660028964E-3
1.683504687E0,-1.008102149E-1,5.333726108E-2,-4.049163777E-3
1.687475000E0,-1.021017581E-1,4.202752933E-2,-2.827433404E-3
1.691445312E0,-1.025904566E-1,2.069960535E-2,-1.762782573E-3
1.695415625E0,-9.580112249E-2,4.293509759E-3,4.537856148E-4
1.699385937E0,-8.454374969E-2,6.108652451E-4,2.251474652E-3
1.703357812E0,-6.775368005E-2,-1.064650831E-3,4.066617228E-3
1.707326562E0,-4.968952388E-2,-1.247910410E-2,6.492624991E-3
1.711296875E0,-2.900737152E-2,-3.834488243E-2,8.796459064E-3
1.715268750E0,-7.661995478E-3,-6.408849359E-2,1.134464052E-2
1.719239062E0,1.218239777E-2,-7.321656495E-2,1.216494478E-2
1.723209375E0,3.166027367E-2,-6.805038452E-2,1.192059834E-2
1.727179687E0,4.593706504E-2,-6.218608096E-2,1.261873078E-2
1.731150000E0,5.822418258E-2,-5.958554149E-2,1.054178830E-2
1.735120312E0,6.611306965E-2,-7.065092772E-2,6.091198884E-3
1.739092187E0,7.101744413E-2,-6.726498902E-2,1.762782573E-3
1.743062500E0,7.590436935E-2,-3.954916075E-2,-2.216568217E-3
1.747032812E0,7.838273793E-2,-7.033676840E-3,-4.310963210E-3
1.751007812E0,7.768460363E-2,1.392772701E-2,-9.808750823E-3
1.754973437E0,7.569492608E-2,3.474950418E-2,-1.186823845E-2
1.758943750E0,7.065092772E-2,5.401793867E-2,-1.253146399E-2
1.762915625E0,6.363470107E-2,6.358234584E-2,-1.211258490E-2
1.766885937E0,5.426228791E-2,6.455972791E-2,-1.171115879E-2
1.770856250E0,4.309218004E-2,6.134832278E-2,-1.069886796E-2
1.774826562E0,3.054326214E-2,6.096434966E-2,-8.325220086E-3
1.778796875E0,1.867502369E-2,6.640977412E-2,-6.806783844E-3
1.782767187E0,8.220500313E-3,7.763224840E-2,-4.153883550E-3
1.786737500E0,-1.117010717E-3,9.245008975E-2,-2.548180753E-3
1.790707812E0,-8.063420653E-3,1.052084491E-1,-1.745329209E-4
1.794678125E0,-1.410226058E-2,1.097288504E-1,2.373647876E-3
1.798650000E0,-1.928588748E-2,1.145285070E-1,6.056292448E-3
1.802620312E0,-2.092649788E-2,1.175828278E-1,1.094321441E-2
1.806590625E0,-2.181661502E-2,1.281420738E-1,1.926843449E-2
1.810560937E0,-2.279400080E-2,1.596278101E-1,3.303908184E-2
1.814531250E0,-2.110103145E-2,2.127032727E-1,5.770058557E-2
1.818501562E0,-1.839577034E-2,2.567204833E-1,9.197884798E-2
1.822473437E0,-2.038544603E-2,2.549577057E-1,1.284736842E-1
1.826442187E0,-2.754129469E-2,1.961051971E-1,1.601339579E-1
1.830414062E0,-3.843215108E-2,1.039692611E-1,1.726130694E-1
1.834384375E0,-5.543165654E-2,-2.181661502E-2,1.641133130E-1
1.838354687E0,-7.986626774E-2,-1.834515631E-1,1.357167959E-1
1.842325000E0,-1.064301804E-1,-3.230778873E-1,9.744173288E-2
1.846295312E0,-1.231504306E-1,-4.006228745E-1,5.824163556E-2
1.850265625E0,-1.270599663E-1,-3.963119090E-1,2.408554405E-2
1.854237500E0,-1.157327816E-1,-3.117856085E-1,-6.318091881E-3
1.858207812E0,-8.958774805E-2,-1.838704348E-1,-3.398156166E-2
1.862178125E0,-5.478588492E-2,-6.511823088E-2,-5.279621109E-2
1.866148437E0,-9.581857361E-3,3.312635049E-2,-6.370452046E-2
1.870118750E0,2.932153083E-2,9.279915690E-2,-6.972590089E-2
1.874089062E0,6.307619810E-2,1.241278127E-1,-7.307693362E-2
1.878059375E0,8.740609139E-2,1.402721107E-1,-7.382743061E-2
1.882031250E0,1.006705910E-1,1.426632106E-1,-6.663667411E-2
1.886001562E0,1.035154760E-1,1.342507303E-1,-5.527457595E-2
1.889971875E0,9.567894787E-2,1.158200502E-1,-4.448844120E-2
1.893942187E0,7.888887823E-2,8.796459436E-2,-3.625048697E-2
1.897912500E0,5.387831479E-2,5.722934753E-2,-2.988003753E-2
1.901882812E0,2.448697016E-2,2.932153083E-2,-2.597049996E-2
1.905853125E0,-6.056292448E-3,9.546951391E-3,-2.343977243E-2
1.909823437E0,-3.164282069E-2,3.333578818E-3,-2.158972248E-2
1.913795312E0,-5.126031861E-2,8.639379404E-3,-1.853539608E-2
1.917764062E0,-6.389650702E-2,2.146754973E-2,-1.488765888E-2
1.921735937E0,-6.885323673E-2,3.715806082E-2,-1.076868176E-2
1.925706250E0,-6.712536514E-2,5.255186185E-2,-7.138396613E-3
1.929676562E0,-6.185446680E-2,6.515314430E-2,-1.535889693E-3
1.933646875E0,-5.386086181E-2,7.354817539E-2,5.340707488E-3
1.937617187E0,-4.108504951E-2,7.572983950E-2,1.300270297E-2
1.941587500E0,-2.766346931E-2,7.150614262E-2,2.132792398E-2
1.945559375E0,-1.438151300E-2,6.030112505E-2,2.846631967E-2
1.949529687E0,-1.448623254E-3,4.564036056E-2,3.604104742E-2
1.953500000E0,1.094321441E-2,3.218387067E-2,4.118977115E-2
1.957470312E0,2.141519077E-2,2.143264376E-2,4.658283666E-2
1.961440625E0,2.790781483E-2,1.352630183E-2,4.799655452E-2
1.965410937E0,3.096214123E-2,2.740166849E-3,4.820599407E-2
1.969382812E0,2.738421597E-2,-6.091198884E-3,4.691445082E-2
1.973353125E0,2.207841538E-2,-1.350884791E-2,4.160865024E-2
1.977321875E0,1.392772701E-2,-1.876228862E-2,3.645992652E-2
1.981293750E0,3.228859045E-3,-2.253220044E-2,3.075270168E-2
1.985264062E0,-9.791296907E-3,-2.591813914E-2,2.565634064E-2
1.989246875E0,-2.042035200E-2,-3.103195317E-2,1.951278187E-2
1.993206250E0,-2.815216035E-2,-3.415609151E-2,1.549852360E-2
1.997175000E0,-3.769911081E-2,-3.513347730E-2,1.204277202E-2
2.001146875E0,-4.305727407E-2,-3.478441015E-2,7.679448463E-3
2.005117187E0,-4.625122622E-2,-3.183480725E-2,4.729842301E-3
2.009087500E0,-4.858996719E-2,-2.865830623E-2,1.099557383E-3
2.013057812E0,-4.845033959E-2,-2.330014482E-2,-1.169370604E-3
2.017028125E0,-4.719370231E-2,-1.574287005E-2,-3.124139272E-3
2.020998437E0,-4.462806880E-2,-8.342674002E-3,-5.148721393E-3
2.024968750E0,-4.078834504E-2,4.712388909E-4,-7.330382708E-3
2.028940625E0,-3.933972120E-2,7.312929723E-3,-7.155850064E-3
2.032910937E0,-3.609341010E-2,8.936085738E-3,-7.243116386E-3
2.036879687E0,-3.118903376E-2,2.408554405E-2,-8.168140426E-3
2.040851562E0,-2.432988957E-2,5.440191180E-2,-9.773843922E-3
2.044821875E0,-1.682497375E-2,7.377506793E-2,-1.034980267E-2
2.048792187E0,-1.125737373E-2,7.791149616E-2,-7.923794910E-3
2.052764062E0,-7.243116386E-3,8.122762293E-2,-4.886921961E-3
2.056732812E0,-2.286381321E-3,9.080947936E-2,-3.351032268E-3
2.060704687E0,2.303834539E-3,1.008800268E-1,-6.108652335E-3
2.064675000E0,1.553343027E-3,8.588765562E-2,-5.916666240E-3
2.068645312E0,-4.537856148E-4,5.982988700E-2,-1.518436475E-3
2.072615625E0,-3.979350906E-3,4.473278672E-2,2.478367416E-3
2.076585937E0,-1.902408898E-3,4.125958309E-2,4.136430100E-3
2.080556250E0,1.937315450E-3,4.096287861E-2,4.712388851E-3
2.084528125E0,4.468042869E-3,4.525638744E-2,4.258603323E-3
2.088498437E0,6.318091881E-3,4.743804783E-2,3.089232836E-3
2.092468750E0,6.806783844E-3,5.131268129E-2,8.377580671E-4
2.096439062E0,4.066617228E-3,5.427974090E-2,-1.396263367E-3
2.100409375E0,2.303834539E-3,5.461135134E-2,-1.082104165E-3
2.104379687E0,-1.745329238E-3,5.454153940E-2,-1.047197584E-4
2.108350000E0,-5.672320258E-3,5.286602303E-2,4.363323096E-4
2.112321875E0,-9.704031050E-3,5.288347602E-2,0.000000000E0
2.116290625E0,-1.481784508E-2,5.092870817E-2,3.141592606E-4
2.120262500E0,-2.157226950E-2,4.815363511E-2,1.308996929E-3
2.124232812E0,-3.117158078E-2,4.473278672E-2,1.570796361E-3
2.128203125E0,-3.939208016E-2,4.066617042E-2,1.640609466E-3
2.132173437E0,-4.829325899E-2,3.885103017E-2,1.204277156E-3
2.136143750E0,-5.679301545E-2,3.492403775E-2,1.099557383E-3
2.140114062E0,-6.714281440E-2,2.864085324E-2,-4.363323096E-4
2.144085937E0,-7.571238279E-2,1.916371472E-2,-2.478367416E-3
2.148056250E0,-8.141960949E-2,5.113814492E-3,-4.066617228E-3
2.152026562E0,-8.560840040E-2,-1.193805225E-2,-5.550147034E-3
2.155996875E0,-8.580038697E-2,-2.933898382E-2,-5.480333697E-3
2.159967187E0,-8.328711241E-2,-4.335397854E-2,-5.602506921E-3
2.163937500E0,-7.525859773E-2,-5.183627829E-2,-5.340707488E-3
2.167909375E0,-6.262241304E-2,-5.691518635E-2,-6.475171540E-3
2.171879687E0,-4.789183289E-2,-5.626941472E-2,-7.365289610E-3
2.175848437E0,-3.125884756E-2,-5.595525727E-2,-8.203047328E-3
2.179820312E0,-1.396263391E-2,-5.270894244E-2,-9.337511845E-3
2.183790625E0,1.658062800E-3,-4.778711498E-2,-9.023352526E-3
2.187760937E0,1.387536712E-2,-4.274311289E-2,-1.014036313E-2
2.191731250E0,2.382374369E-2,-3.991568089E-2,-9.075712413E-3
2.195701562E0,3.153809905E-2,-3.633775562E-2,-8.203047328E-3
2.199671875E0,3.701843321E-2,-3.539527580E-2,-7.976154797E-3
2.203643750E0,3.920009360E-2,-3.228859231E-2,-8.517206647E-3
2.207614062E0,4.007275775E-2,-2.787290886E-2,-6.405358203E-3
2.211584375E0,3.818780556E-2,-2.220058814E-2,-5.393067375E-3
2.215554687E0,3.424336016E-2,-1.544616371E-2,-4.677482415E-3
2.219525000E0,2.869321220E-2,-8.429939859E-3,-3.438298590E-3
2.223495312E0,2.256710641E-2,1.570796303E-4,-3.124139272E-3
2.227467187E0,1.630137488E-2,9.337511845E-3,-2.286381321E-3
2.231435937E0,9.267698042E-3,1.743583940E-2,-1.308996929E-3
2.235407812E0,2.443460980E-3,2.572615258E-2,-6.108652451E-4
2.239378125E0,-2.007128671E-3,3.225368261E-2,-1.623156248E-3
2.243348437E0,-6.195918657E-3,3.846705705E-2,-1.745329238E-3
2.247318750E0,-9.389871731E-3,4.295255244E-2,-1.466076588E-3
2.251290625E0,-1.158898603E-2,4.803146049E-2,-2.460914198E-3
2.255259375E0,-1.139700040E-2,5.387831479E-2,-4.206243437E-3
2.259231250E0,-1.090830751E-2,5.766567960E-2,-5.742133129E-3
2.263201562E0,-8.063420653E-3,6.330309063E-2,-6.579891313E-3
2.267171875E0,-5.218534265E-3,6.628760695E-2,-9.354964830E-3
2.271142187E0,-1.605702913E-3,6.932447851E-2,-1.113520097E-2
2.275112500E0,2.617993858E-3,6.997025013E-2,-1.281071641E-2
2.279082812E0,7.487462368E-3,6.682865322E-2,-1.368338149E-2
2.283054687E0,1.117010694E-2,6.284930557E-2,-1.361356769E-2
2.287025000E0,1.619665511E-2,5.609488115E-2,-1.375319436E-2
2.290995312E0,1.900663599E-2,4.815363511E-2,-1.394518092E-2
2.294964062E0,2.171189524E-2,4.155628756E-2,-1.427679323E-2
2.298935937E0,2.406809106E-2,3.457497060E-2,-1.497492474E-2
2.302906250E0,2.497566119E-2,2.748893574E-2,-1.410226058E-2
2.306876562E0,2.460914291E-2,2.143264376E-2,-1.328195538E-2
2.310846875E0,2.436479554E-2,1.532399096E-2,-1.275835652E-2
2.314817187E0,2.145009674E-2,8.621926419E-3,-1.202531811E-2
2.318789062E0,1.827359758E-2,2.809980186E-3,-9.267698042E-3
2.322759375E0,1.654572040E-2,-1.710422686E-3,-6.143558770E-3
2.326729687E0,1.459095255E-2,-7.696901914E-3,-4.276056774E-3
2.330700000E0,1.242674422E-2,-1.258382387E-2,-3.787364578E-3
2.334670312E0,1.141445339E-2,-1.595230959E-2,-2.617993858E-3
2.338640625E0,9.791296907E-3,-1.909390278E-2,-1.396263367E-3
2.342612500E0,8.168140426E-3,-2.111848444E-2,-1.745329246E-5
2.346584375E0,6.981316954E-3,-2.343977243E-2,9.075712296E-4
2.350553125E0,6.667157635E-3,-2.405063622E-2,1.308996929E-3
2.354521875E0,6.894050632E-3,-2.452187613E-2,1.570796361E-3
2.358493750E0,6.352998316E-3,-2.614503168E-2,2.530727303E-3
2.362464062E0,5.148721393E-3,-2.731440216E-2,2.338741207E-3
2.366435937E0,4.537856206E-3,-2.778564207E-2,1.535889693E-3
2.370404687E0,2.879793290E-3,-2.834414691E-2,4.188790335E-4
2.374375000E0,1.396263367E-3,-2.939134464E-2,-1.570796303E-4
2.378346875E0,-1.535889693E-3,-2.907718532E-2,-1.815142459E-3
2.382317187E0,-4.869468510E-3,-2.703515068E-2,-4.502949305E-3
2.386287500E0,-9.494591504E-3,-2.378883772E-2,-6.562437862E-3
2.390257812E0,-1.462585945E-2,-2.083923109E-2,-9.494591504E-3
2.394228125E0,-2.106612362E-2,-1.720894687E-2,-1.162389293E-2
2.398198437E0,-2.787290886E-2,-1.308996975E-2,-1.427679323E-2
2.402168750E0,-3.401646763E-2,-9.320057929E-3,-1.768018492E-2
2.406139062E0,-3.953170776E-2,-5.619960371E-3,-1.932079531E-2
2.410110937E0,-4.668755829E-2,-1.954768784E-3,-2.261946723E-2
2.414081250E0,-4.989896342E-2,1.553343027E-3,-2.288126573E-2
2.418051562E0,-5.150466785E-2,4.118977115E-3,-2.413790300E-2
2.422021875E0,-5.311036855E-2,1.066396199E-2,-2.553416602E-2
2.425992187E0,-5.398303270E-2,1.553343050E-2,-2.574360557E-2
2.429964062E0,-5.256931856E-2,2.055997774E-2,-2.593559213E-2
2.433934375E0,-5.023057386E-2,2.593559213E-2,-2.689552307E-2
2.437904687E0,-4.646066576E-2,3.291691095E-2,-2.684316412E-2
2.441875000E0,-4.171336815E-2,3.939208016E-2,-2.713987045E-2
2.445845312E0,-3.626793995E-2,4.574507847E-2,-2.796017379E-2
2.449815625E0,-3.108431399E-2,5.208062381E-2,-2.637192421E-2
2.453785937E0,-2.415535599E-2,5.749114603E-2,-2.656391077E-2
2.457757812E0,-1.724385284E-2,6.206390634E-2,-2.750638872E-2
2.461728125E0,-9.267698042E-3,6.731735170E-2,-2.761110850E-2
2.465701562E0,-1.902408898E-3,7.035422325E-2,-2.628465928E-2
2.469668750E0,3.752457909E-3,7.293730974E-2,-2.623229846E-2
2.473639062E0,8.691739291E-3,7.527604699E-2,-2.698278986E-2
2.477609375E0,1.268854365E-2,7.709119469E-2,-2.701769583E-2
2.481581250E0,1.644100063E-2,7.770206034E-2,-2.717477642E-2
2.485551562E0,1.848303713E-2,7.833037525E-2,-2.843141370E-2
2.489520312E0,1.916371472E-2,7.953465730E-2,-3.040363453E-2
2.493492187E0,2.054252476E-2,7.820820063E-2,-3.181735054E-2
2.497462500E0,2.029817924E-2,7.559020817E-2,-3.356268257E-2
2.501432812E0,1.993165910E-2,7.431612164E-2,-3.309144080E-2
2.505403125E0,1.834340952E-2,7.353071868E-2,-3.448770568E-2
2.509373437E0,1.490511186E-2,7.316420227E-2,-3.605850041E-2
2.513343750E0,1.115265395E-2,7.157595456E-2,-3.780383244E-2
2.517315625E0,7.312929723E-3,7.099999487E-2,-3.827507049E-2
2.521285937E0,3.455751808E-3,6.995279342E-2,-3.960151970E-2
2.525256250E0,6.283185212E-4,6.771877408E-2,-4.040437192E-2
2.529226562E0,-3.089232836E-3,6.398376822E-2,-4.014257342E-2
2.533196875E0,-4.520402756E-3,6.119124219E-2,-3.947934881E-2
2.537167187E0,-5.201081280E-3,5.670574680E-2,-3.721041977E-2
2.541139062E0,-5.515240598E-3,5.087634921E-2,-3.525565192E-2
2.545109375E0,-5.602506921E-3,4.572762549E-2,-3.309144080E-2
2.549079687E0,-6.370451767E-3,3.972369432E-2,-3.071779385E-2
2.553050000E0,-6.283185445E-3,3.274237737E-2,-2.844886668E-2
2.557020312E0,-6.091198884E-3,2.715732343E-2,-2.740166895E-2
2.560990625E0,-6.352998316E-3,2.223549411E-2,-2.668608353E-2
2.564960937E0,-7.627088577E-3,1.780235767E-2,-2.679080330E-2
2.568931250E0,-7.504915819E-3,1.422443334E-2,-2.380629070E-2
2.572934375E0,-5.811946467E-3,1.164134592E-2,-2.153736353E-2
2.576873437E0,-4.485496320E-3,8.412486874E-3,-1.851794310E-2
2.580843750E0,-3.822271014E-3,4.869468510E-3,-1.623156108E-2
2.584814062E0,-1.850049011E-3,1.221730490E-3,-1.382300723E-2
2.588784375E0,-5.934119690E-4,-3.473205259E-3,-1.125737373E-2
2.592754687E0,9.424777818E-4,-7.260569837E-3,-9.372417815E-3
2.596726562E0,2.984513063E-3,-1.034980267E-2,-7.225662936E-3
2.600696875E0,3.682644805E-3,-1.462585945E-2,-5.305801053E-3
2.604665625E0,3.403391922E-3,-1.815142483E-2,-1.047197497E-3
2.608637500E0,3.490658477E-3,-2.221804112E-2,6.457717973E-4
2.612607812E0,2.146754880E-3,-2.659881860E-2,1.553343027E-3
2.616578125E0,-5.934119690E-4,-3.045599535E-2,1.483529806E-3
2.620548437E0,-2.356194425E-3,-3.415609151E-2,1.902408898E-3
2.624518750E0,-5.235987715E-3,-3.874630854E-2,2.024581889E-3
2.628489062E0,-8.691739291E-3,-4.249876738E-2,2.199114766E-3
2.632459375E0,-1.335176919E-2,-4.604178667E-2,1.204277156E-3
2.636429687E0,-1.953023486E-2,-4.906120524E-2,6.457717973E-4
2.640401562E0,-2.340486459E-2,-5.120795965E-2,4.886921961E-4
2.644371875E0,-2.802998759E-2,-5.342452973E-2,-8.901178953E-4
2.648342187E0,-3.118903376E-2,-5.595525727E-2,-2.146754880E-3
2.652312500E0,-3.516838327E-2,-5.797983706E-2,-4.136430100E-3
2.656284375E0,-3.832742944E-2,-5.955063552E-2,-4.956734832E-3
2.660254687E0,-3.974114731E-2,-6.101670861E-2,-4.869468510E-3
2.664225000E0,-4.146902263E-2,-6.230825558E-2,-6.352998316E-3
2.668195312E0,-4.221951589E-2,-6.414084882E-2,-7.644542027E-3
2.672165625E0,-4.227187485E-2,-6.506587565E-2,-9.337511845E-3
2.676135937E0,-4.063126445E-2,-6.366961449E-2,-1.068141498E-2
2.680106250E0,-3.944443911E-2,-6.330309063E-2,-1.162389293E-2
2.684076562E0,-3.792600334E-2,-6.229080260E-2,-1.293289009E-2
2.688046875E0,-3.799581900E-2,-5.977752805E-2,-1.432915311E-2
2.692018750E0,-3.665191308E-2,-5.595525727E-2,-1.574287005E-2
2.695989062E0,-3.464478627E-2,-5.255186185E-2,-1.731366664E-2
2.699959375E0,-3.471459821E-2,-4.729842395E-2,-1.968731359E-2
2.703934375E0,-3.368485346E-2,-4.232423380E-2,-1.925098151E-2
2.707900000E0,-3.342305496E-2,-3.726277873E-2,-1.944296807E-2
2.711870312E0,-3.139847144E-2,-3.127630055E-2,-1.902408898E-2
2.715842187E0,-2.905973233E-2,-2.624975145E-2,-1.907644793E-2
2.719810937E0,-2.665117756E-2,-2.148500271E-2,-1.757546514E-2
2.723781250E0,-2.420771681E-2,-1.932079531E-2,-1.764527895E-2
2.727753125E0,-2.131047100E-2,-1.605702937E-2,-1.916371472E-2
2.731723437E0,-1.905899495E-2,-1.219985168E-2,-1.940806210E-2
2.735693750E0,-1.651081443E-2,-8.779006079E-3,-1.827359758E-2
2.739665625E0,-1.432915311E-2,-5.637413356E-3,-1.947787404E-2
2.743634375E0,-1.197295822E-2,-2.862340072E-3,-2.010619268E-2
2.747606250E0,-1.104793418E-2,2.076941775E-3,-1.980948634E-2
2.751576562E0,-1.230457146E-2,4.101523664E-3,-2.289872058E-2
2.755546875E0,-1.233947743E-2,8.552113548E-3,-2.534218132E-2
2.759517187E0,-1.356120780E-2,1.377064735E-2,-2.644173801E-2
2.763487500E0,-1.628392190E-2,1.785471849E-2,-2.717477642E-2
2.767457812E0,-1.834340952E-2,2.042035200E-2,-2.843141370E-2
2.771428125E0,-1.902408898E-2,2.228785492E-2,-2.844886668E-2
2.775398437E0,-1.996656694E-2,2.323033288E-2,-2.769837528E-2
2.779368750E0,-1.991420612E-2,2.047271281E-2,-2.705260366E-2
2.783340625E0,-1.898918301E-2,2.019345947E-2,-2.658136375E-2
2.787310937E0,-1.694714651E-2,1.846558414E-2,-2.661627159E-2
2.791279687E0,-1.460840553E-2,1.816887781E-2,-2.617993951E-2
2.795251562E0,-1.324704941E-2,1.658062823E-2,-2.605776489E-2
2.799221875E0,-1.197295822E-2,1.677261479E-2,-2.617993951E-2
2.803192187E0,-1.045452245E-2,1.802925020E-2,-2.621484548E-2
2.807164062E0,-8.534659632E-3,1.895427518E-2,-2.621484548E-2
2.811132812E0,-8.342674002E-3,2.069960535E-2,-2.787290886E-2
2.815104687E0,-7.400196046E-3,2.192133479E-2,-2.710496262E-2
2.819075000E0,-8.342674002E-3,2.162462845E-2,-2.764601447E-2
2.823045312E0,-1.026253588E-2,2.364921197E-2,-2.705260366E-2
2.827015625E0,-1.061160211E-2,2.539454028E-2,-2.658136375E-2
2.830985937E0,-1.249655709E-2,2.555162087E-2,-2.677335031E-2
2.834957812E0,-1.464331243E-2,2.754129469E-2,-2.755874954E-2
2.838926562E0,-1.717403904E-2,2.700024284E-2,-2.837905288E-2
2.842898437E0,-1.902408898E-2,2.942625061E-2,-2.708750963E-2
2.846868750E0,-1.935570128E-2,2.885029279E-2,-2.644173801E-2
2.850837500E0,-1.914626174E-2,2.764601447E-2,-2.597049996E-2
2.854810937E0,-1.925098151E-2,2.687807009E-2,-2.555162087E-2
2.858779687E0,-1.776745170E-2,2.502802201E-2,-2.483603545E-2
2.862750000E0,-1.677261479E-2,2.124065720E-2,-2.630211227E-2
2.866721875E0,-1.530653704E-2,1.797689125E-2,-2.654645778E-2
2.870690625E0,-1.417207345E-2,1.713913307E-2,-2.584832534E-2
2.874660937E0,-1.312487572E-2,1.616174914E-2,-2.658136375E-2
2.878632812E0,-1.209513191E-2,1.651081443E-2,-2.616248466E-2
2.882603125E0,-1.258382387E-2,1.525417715E-2,-2.605776489E-2
2.886573437E0,-1.436406001E-2,1.460840553E-2,-2.647664398E-2
2.890545312E0,-1.467821933E-2,1.354375482E-2,-2.537708730E-2
2.894514062E0,-1.476548519E-2,1.462585945E-2,-2.525491454E-2
2.898485937E0,-1.553343050E-2,1.431170013E-2,-2.371902391E-2
2.902456250E0,-1.589994878E-2,1.272345055E-2,-2.164208330E-2
2.906426562E0,-1.644100063E-2,1.139700040E-2,-2.035053819E-2
2.910396875E0,-1.583013684E-2,1.090830751E-2,-1.867502369E-2
2.914368750E0,-1.371828746E-2,9.267698042E-3,-1.537635084E-2
2.918337500E0,-1.240929123E-2,6.579891313E-3,-1.404990070E-2
2.922309375E0,-1.055924222E-2,5.148721393E-3,-1.326450240E-2
2.926279687E0,-9.930923581E-3,3.996803891E-3,-1.080358773E-2
2.930248437E0,-7.958701812E-3,3.560471581E-3,-8.953538723E-3
2.934220312E0,-5.637413356E-3,1.937315450E-3,-8.325220086E-3
2.938190625E0,-3.979350906E-3,1.972222002E-3,-6.946410518E-3
2.942170312E0,-3.543018363E-3,9.250245057E-4,-7.801621687E-3
2.946131250E0,-2.984513063E-3,9.424777818E-4,-7.871435024E-3
2.950101562E0,-3.141592722E-3,5.061454722E-4,-8.185594343E-3
2.954073437E0,-4.084070213E-3,1.448623254E-3,-8.883725852E-3
2.958043750E0,-4.625122529E-3,1.535889693E-3,-8.447393775E-3
2.962014062E0,-5.218534265E-3,-5.235987483E-4,-1.000073645E-2
2.965982812E0,-6.422811653E-3,-1.745329246E-5,-1.054178830E-2
2.969954687E0,-5.986479111E-3,-1.692969352E-3,-1.024508290E-2
2.973925000E0,-4.974188283E-3,-1.518436475E-3,-9.861109778E-3
2.977895312E0,-3.804817796E-3,-3.595378250E-3,-9.913469665E-3
2.981867187E0,-1.850049011E-3,-4.433136433E-3,-8.866272867E-3
2.985837500E0,-2.792526793E-4,-4.799655639E-3,-7.400196046E-3
2.989806250E0,2.670353744E-3,-7.312929723E-3,-7.470009383E-3
2.993778125E0,3.752457909E-3,-7.958701812E-3,-5.672320258E-3
2.997748437E0,5.375613924E-3,-9.930923581E-3,-5.201081280E-3
3.001718750E0,7.766715251E-3,-1.134464052E-2,-4.485496320E-3
3.005690625E0,9.896016680E-3,-1.277581044E-2,-2.199114766E-3
3.009660937E0,9.843656793E-3,-1.420698036E-2,-1.291543595E-3
3.013631250E0,9.529497474E-3,-1.336922217E-2,7.330382941E-4
3.017601562E0,7.784168236E-3,-1.434660610E-2,1.117010717E-3
3.021571875E0,7.190756500E-3,-1.340412907E-2,3.019419499E-3
3.025542187E0,6.736970972E-3,-1.195550524E-2,2.617993858E-3
3.029512500E0,4.363323096E-3,-1.097812131E-2,3.263765713E-3
3.033482812E0,2.670353744E-3,-8.621926419E-3,3.281218931E-3
3.037453125E0,7.330382941E-4,-5.899212789E-3,2.391101094E-3
3.041423437E0,-5.235987919E-5,-3.211405827E-3,6.457717973E-4
3.045395312E0,-2.076941775E-3,1.570796303E-4,-8.726646047E-5
3.049365625E0,-3.647738136E-3,3.769911127E-3,-1.937315450E-3
3.053335937E0,-6.161012221E-3,6.352998316E-3,-4.084070213E-3
3.057306250E0,-7.574729156E-3,9.442231618E-3,-5.253441166E-3
3.061276562E0,-8.552113548E-3,1.129228063E-2,-6.894050632E-3
3.065248437E0,-9.861109778E-3,1.253146399E-2,-8.237954229E-3
3.069218750E0,-1.155408006E-2,1.420698036E-2,-9.791296907E-3
3.073189062E0,-1.274090353E-2,1.630137488E-2,-1.185078546E-2
3.077159375E0,-1.396263391E-2,1.806415804E-2,-1.284562331E-2
3.081129687E0,-1.322959550E-2,1.942551509E-2,-1.384046115E-2
3.085100000E0,-1.242674422E-2,2.022836544E-2,-1.562069636E-2
3.089070312E0,-9.965829551E-3,2.073451132E-2,-1.518436428E-2
3.093040625E0,-8.569566533E-3,2.071705833E-2,-1.460840553E-2
3.097012500E0,-5.654866807E-3,1.860520989E-2,-1.445132587E-2
3.100982812E0,-3.682644805E-3,1.670280099E-2,-1.336922217E-2
3.104953125E0,-1.361356815E-3,1.544616371E-2,-1.202531811E-2
3.108923437E0,-9.075712296E-4,1.422443334E-2,-1.092576142E-2
3.112893750E0,-1.692969352E-3,1.239183731E-2,-9.442231618E-3
3.116864062E0,-2.356194425E-3,1.026253588E-2,-6.789330859E-3
3.120834375E0,-2.216568217E-3,9.407324716E-3,-6.405358203E-3
3.124806250E0,-2.792526735E-3,7.382742595E-3,-4.485496320E-3
3.128776562E0,-4.136430100E-3,5.201081280E-3,-3.839724232E-3
3.132746875E0,-4.345869645E-3,2.373647876E-3,-2.775073517E-3
3.136717187E0,-5.742133129E-3,2.617993741E-4,-3.700098023E-3
3.140687500E0,-7.173303049E-3,-1.151917269E-3,-3.333578818E-3
3.144657812E0,-6.928957067E-3,-4.398229532E-3,-2.932153177E-3
3.148628125E0,-6.719517522E-3,-5.253441166E-3,-2.687806962E-3
3.152598437E0,-7.278022822E-3,-6.056292448E-3,-3.228859045E-3
3.156570312E0,-7.120943163E-3,-6.126105785E-3,-3.961897455E-3
3.160540625E0,-6.928957067E-3,-4.939281847E-3,-4.153883550E-3
3.164510937E0,-6.579891313E-3,-4.031710327E-3,-4.660028964E-3
3.168481250E0,-6.632251199E-3,-3.333578818E-3,-5.550147034E-3
3.172451562E0,-6.649704650E-3,-3.752457909E-3,-5.183627829E-3
3.176421875E0,-6.492624991E-3,-5.375613924E-3,-4.921828397E-3
3.180393750E0,-7.365289610E-3,-6.248278543E-3,-5.462880712E-3
3.184364062E0,-7.888888009E-3,-6.928957067E-3,-5.899212789E-3
3.188334375E0,-9.232792072E-3,-8.011061698E-3,-5.567600485E-3
3.192304687E0,-1.019272301E-2,-7.993607782E-3,-5.183627829E-3
3.196275000E0,-1.103048120E-2,-7.836528122E-3,-5.672320258E-3
3.200245312E0,-1.125737373E-2,-5.986479111E-3,-4.904375412E-3
3.204215625E0,-1.206022501E-2,-4.747295752E-3,-5.009094719E-3
3.208185937E0,-1.167625282E-2,-3.228859045E-3,-5.777040031E-3
3.212156250E0,-9.773843922E-3,-1.029744279E-3,-5.096361507E-3
3.216128125E0,-5.811946467E-3,2.967059845E-4,-4.747295752E-3
3.220098437E0,-3.263765713E-3,3.036872949E-3,-3.612831468E-3
3.224068750E0,-2.303834539E-3,5.567600485E-3,-3.612831468E-3
3.228039062E0,7.853981806E-4,6.667157635E-3,-3.316125600E-3
3.232009375E0,3.263765713E-3,7.574729156E-3,-2.478367416E-3
3.235979687E0,4.799655639E-3,7.801621687E-3,-3.176499158E-3
3.239951562E0,4.747295752E-3,8.011061698E-3,-2.303834539E-3
3.243921875E0,5.497787148E-3,7.609635592E-3,-2.827433404E-3
3.247892187E0,5.532693584E-3,7.365289610E-3,-1.902408898E-3
3.251862500E0,5.689773243E-3,5.934119225E-3,-1.518436475E-3
3.255832812E0,5.131267942E-3,4.660028964E-3,-1.867502346E-3
3.259804687E0,4.694935866E-3,3.438298590E-3,-1.797689125E-3
3.263775000E0,5.026548170E-3,2.513274085E-3,-1.797689125E-3
3.267743750E0,3.612831468E-3,1.204277156E-3,-8.901178953E-4
3.271715625E0,1.274090377E-3,-1.204277156E-3,-2.303834539E-3
3.275685937E0,-5.061454722E-4,-3.804817796E-3,-2.530727303E-3
3.279656250E0,-2.042035107E-3,-3.577925032E-3,-2.722713631E-3
3.283626562E0,-2.443460980E-3,-3.682644805E-3,-4.433136433E-3
3.287596875E0,-4.049163777E-3,-2.495820867E-3,-4.886921961E-3
3.291567187E0,-4.607669078E-3,-6.806784077E-4,-5.602506921E-3
3.295539062E0,-5.969026126E-3,2.181661548E-3,-5.794493016E-3
3.299512500E0,-5.270894151E-3,4.590216093E-3,-6.440265104E-3
3.303479687E0,-4.031710327E-3,5.829399452E-3,-7.068583276E-3
3.307450000E0,-3.403391922E-3,6.894050632E-3,-6.771877408E-3
3.311420312E0,-6.981316837E-4,7.470009383E-3,-4.886921961E-3
3.315390625E0,1.658062800E-3,6.265731994E-3,-4.241149873E-3
3.319362500E0,4.991641734E-3,5.654866807E-3,-3.036872949E-3
3.323332812E0,7.208209950E-3,5.201081280E-3,-3.473205259E-3
3.327301562E0,8.534659632E-3,2.670353744E-3,-3.577925032E-3
3.331273437E0,9.791296907E-3,2.303834539E-3,-2.862340072E-3
3.335243750E0,9.826203808E-3,2.356194425E-3,-2.967059612E-3
3.339214062E0,9.075712413E-3,2.687806962E-3,-3.752457909E-3
3.343185937E0,9.180432186E-3,3.508111695E-3,-3.944444004E-3
3.347154687E0,7.243116386E-3,5.393067375E-3,-4.904375412E-3
3.351125000E0,3.124139272E-3,6.632251199E-3,-5.759586580E-3
3.355096875E0,3.106686054E-3,9.215338156E-3,-5.672320258E-3
3.359067187E0,8.552113432E-4,9.581857361E-3,-6.719517522E-3
3.363037500E0,-1.378810150E-3,9.983283468E-3,-5.777040031E-3
3.367007812E0,-2.879793290E-3,8.883725852E-3,-5.829399452E-3
3.370978125E0,-3.403391922E-3,8.447393775E-3,-5.707226694E-3
3.374948437E0,-1.902408898E-3,7.574729156E-3,-5.218534265E-3
3.378920312E0,-5.934119690E-4,6.440265104E-3,-5.096361507E-3
3.382890625E0,1.239183708E-3,7.801621687E-3,-4.590216093E-3
3.386859375E0,2.914699726E-3,7.417649496E-3,-3.281218931E-3
3.390831250E0,7.417649496E-3,7.766715251E-3,-4.118977115E-3
3.394801562E0,9.948376566E-3,8.150687441E-3,-4.502949305E-3
3.398771875E0,1.331686229E-2,8.709193207E-3,-4.153883550E-3
3.402743750E0,1.750565320E-2,8.691739291E-3,-4.206243437E-3
3.406712500E0,1.876228862E-2,9.145525284E-3,-4.380776547E-3
3.410684375E0,2.164208330E-2,9.267698042E-3,-4.415682983E-3
3.414654687E0,2.209586836E-2,9.442231618E-3,-5.323254038E-3
3.418623437E0,2.129301615E-2,9.948376566E-3,-4.817108624E-3
3.422595312E0,1.884955540E-2,1.158898603E-2,-5.288347602E-3
3.426565625E0,1.548107062E-2,1.275835652E-2,-5.707226694E-3
3.430535937E0,1.160643995E-2,1.396263391E-2,-6.579891313E-3
3.434507812E0,7.574729156E-3,1.443387289E-2,-5.148721393E-3
3.438476562E0,3.368485486E-3,1.441641990E-2,-5.061454605E-3
3.442446875E0,-1.029744279E-3,1.485275198E-2,-4.153883550E-3
3.446417187E0,-4.136430100E-3,1.586504281E-2,-4.206243437E-3
3.450389062E0,-6.440265104E-3,1.448623277E-2,-3.176499158E-3
3.454359375E0,-7.347836159E-3,1.380555425E-2,-2.303834539E-3
3.458329687E0,-7.435102481E-3,1.319468953E-2,-1.169370604E-3
3.462301562E0,-5.201081280E-3,1.213003788E-2,9.250245057E-4
3.466270312E0,-3.263765713E-3,1.064650808E-2,4.188790335E-4
3.470242187E0,-5.061454722E-4,1.130973361E-2,1.326450263E-3
3.474212500E0,2.460914198E-3,1.014036313E-2,2.775073517E-3
3.478182812E0,7.452555932E-3,9.075712413E-3,3.612831468E-3
3.482153125E0,1.130973361E-2,8.953538723E-3,3.525565146E-3
3.486123437E0,1.352630183E-2,8.307767101E-3,4.694935866E-3
3.490093750E0,1.680752076E-2,7.086036727E-3,6.213372108E-3
3.494065625E0,1.963495463E-2,5.270894151E-3,6.911503617E-3
3.498034375E0,2.036799304E-2,3.595378250E-3,7.993607782E-3
3.502006250E0,2.024581842E-2,2.548180753E-3,9.040805511E-3
3.505976562E0,2.127556317E-2,9.250245057E-4,1.050688233E-2
3.509946875E0,1.944296807E-2,-2.338741207E-3,1.118756086E-2
3.513917187E0,1.729621366E-2,-4.101523664E-3,1.242674422E-2
3.517889062E0,1.644100063E-2,-6.370451767E-3,1.169370580E-2
3.521857812E0,1.485275198E-2,-9.512044489E-3,1.225221157E-2
3.525828125E0,1.279326342E-2,-1.169370580E-2,1.270599663E-2
3.529800000E0,1.179842558E-2,-1.286307629E-2,1.206022501E-2
3.533770312E0,1.048942842E-2,-1.438151300E-2,1.219985168E-2
3.537740625E0,9.704031050E-3,-1.462585945E-2,1.103048120E-2
3.541710937E0,9.634217247E-3,-1.392772701E-2,1.027998887E-2
3.545681250E0,9.773843922E-3,-1.420698036E-2,9.477137588E-3
3.549651562E0,7.557275705E-3,-1.261873078E-2,8.220500313E-3
3.553623437E0,8.779006079E-3,-9.791296907E-3,6.370451767E-3
3.557592187E0,6.998770405E-3,-6.649704650E-3,6.195918657E-3
3.561564062E0,4.415682983E-3,-4.468042869E-3,4.956734832E-3
3.565565625E0,3.298672382E-3,-3.159045940E-3,4.468042869E-3
3.569504687E0,1.658062800E-3,-2.216568217E-3,3.595378250E-3
3.573476562E0,7.679448463E-4,-1.204277156E-3,3.071779385E-3
3.577446875E0,5.410520826E-4,-3.490658419E-4,2.775073517E-3
3.581415625E0,2.286381321E-3,7.679448463E-4,3.455751808E-3
3.585387500E0,3.036872949E-3,1.500983140E-3,3.473205259E-3
3.589357812E0,3.543018363E-3,3.054326167E-3,2.879793290E-3
3.593328125E0,3.979350906E-3,4.206243437E-3,3.193952609E-3
3.597298437E0,4.380776547E-3,4.817108624E-3,3.717551241E-3
3.601268750E0,5.393067375E-3,5.724680144E-3,4.607669078E-3
3.605239062E0,4.904375412E-3,5.811946467E-3,5.427973811E-3
3.609210937E0,5.078908056E-3,4.642575979E-3,6.859143730E-3
3.613181250E0,4.677482415E-3,4.782202188E-3,7.836528122E-3
3.617150000E0,5.166174378E-3,3.455751808E-3,8.395033889E-3
3.621121875E0,4.694935866E-3,2.809980186E-3,8.831365965E-3
3.625092187E0,3.368485486E-3,1.448623254E-3,1.045452245E-2
3.629062500E0,3.019419499E-3,9.250245057E-4,1.117010694E-2
3.633034375E0,2.635447076E-3,2.146754880E-3,1.181587856E-2
3.637004687E0,2.234021435E-3,1.727875904E-3,1.333431527E-2
3.640973437E0,1.221730490E-3,2.513274085E-3,1.418952644E-2
3.644945312E0,8.028514567E-4,3.019419499E-3,1.560324337E-2
3.648915625E0,6.981316837E-4,3.159045940E-3,1.644100063E-2
3.652885937E0,2.617993858E-3,2.879793290E-3,1.710422710E-2
3.656857812E0,4.485496320E-3,2.216568217E-3,1.773254573E-2
3.660828125E0,6.178465672E-3,1.588249579E-3,1.925098151E-2
3.664796875E0,7.661995478E-3,2.024581889E-3,2.099631168E-2
3.668768750E0,9.267698042E-3,2.740166849E-3,2.160717547E-2
3.672739062E0,1.027998887E-2,2.478367416E-3,2.055997774E-2
3.676709375E0,1.235693134E-2,3.455751808E-3,2.132792398E-2
3.680679687E0,1.274090353E-2,6.283185445E-3,2.199114859E-2
3.684650000E0,1.404990070E-2,6.719517522E-3,2.200860158E-2
3.688620312E0,1.438151300E-2,6.824237294E-3,2.216568217E-2
3.692590625E0,1.492256485E-2,6.702064537E-3,2.251474746E-2
3.696560937E0,1.462585945E-2,4.869468510E-3,2.321287990E-2
3.700532812E0,1.394518092E-2,3.926991019E-3,2.384119667E-2
3.704503125E0,1.209513191E-2,9.948377265E-4,2.535963431E-2
3.708473437E0,1.012290921E-2,-3.228859045E-3,2.590068616E-2
3.712443750E0,8.098327555E-3,-5.550147034E-3,2.740166895E-2
3.716414062E0,5.305801053E-3,-6.894050632E-3,2.898991853E-2
3.720384375E0,3.979350906E-3,-6.806783844E-3,2.986258268E-2
3.724354687E0,2.879793290E-3,-4.363323096E-3,3.054326214E-2
3.728326562E0,1.692969352E-3,1.745329246E-5,3.042108938E-2
3.732296875E0,7.853981806E-4,4.328416660E-3,3.188716620E-2
3.736267187E0,-3.490658492E-5,8.761553094E-3,3.136356547E-2
3.740237500E0,-1.047197584E-4,1.457349956E-2,3.242821619E-2
3.744207812E0,2.111848444E-3,1.911135577E-2,3.166027367E-2
3.748179687E0,2.844886621E-3,2.254965343E-2,3.235840425E-2
3.752148437E0,6.038838997E-3,2.705260366E-2,3.419100121E-2
3.756120312E0,7.330382708E-3,2.898991853E-2,3.633775562E-2
3.760090625E0,1.038470864E-2,2.888519876E-2,3.900810704E-2
3.764060937E0,1.117010694E-2,2.555162087E-2,4.195771366E-2
3.768031250E0,1.288053021E-2,2.001892589E-2,4.392993823E-2
3.772001562E0,1.288053021E-2,1.211258490E-2,4.834562168E-2
3.775982812E0,1.392772701E-2,2.356194425E-3,5.101597309E-2
3.779942187E0,1.495747175E-2,-4.974188283E-3,5.501277745E-2
3.783912500E0,1.596976258E-2,-1.457349956E-2,5.907939374E-2
3.787884375E0,1.640609466E-2,-2.370157093E-2,6.239552051E-2
3.791854687E0,1.680752076E-2,-3.195697814E-2,6.520549953E-2
3.795825000E0,1.630137488E-2,-3.907792270E-2,6.775368005E-2
3.799795312E0,1.724385284E-2,-4.590215907E-2,6.962118298E-2
3.803765625E0,1.778490469E-2,-5.279621109E-2,7.220426947E-2
3.807735937E0,1.761037298E-2,-5.791002512E-2,7.545058429E-2
3.811707812E0,1.757546514E-2,-6.419321150E-2,7.794640213E-2
3.815678125E0,1.801179722E-2,-7.141887397E-2,8.222246170E-2
3.819648437E0,1.993165910E-2,-7.614871860E-2,8.527678996E-2
3.823618750E0,2.148500271E-2,-8.175121993E-2,8.864527196E-2
3.827589062E0,2.340486459E-2,-8.698721230E-2,9.222319722E-2
3.831560937E0,2.600540593E-2,-9.271188825E-2,9.496336430E-2
3.835531250E0,2.713987045E-2,-9.796532989E-2,9.883799404E-2
3.839500000E0,2.909463830E-2,-1.029395163E-1,1.030093357E-1
3.843471875E0,3.155555204E-2,-1.099557430E-1,1.060636565E-1
3.847442187E0,3.174753860E-2,-1.164658219E-1,1.100081056E-1
3.851412500E0,3.209660575E-2,-1.273392290E-1,1.133067757E-1
3.855382812E0,3.174753860E-2,-1.390503794E-1,1.182285994E-1
3.859353125E0,3.164282069E-2,-1.533969939E-1,1.229759008E-1
3.863323437E0,3.101450019E-2,-1.726305187E-1,1.285784096E-1
3.867295312E0,2.935643867E-2,-1.945169419E-1,1.335002333E-1
3.871265625E0,2.499311417E-2,-2.204001844E-1,1.382475346E-1
3.875235937E0,1.830850355E-2,-2.444508076E-1,1.408480704E-1
3.879206250E0,1.052433532E-2,-2.668433785E-1,1.425585002E-1
3.883176562E0,3.996803891E-3,-2.842617631E-1,1.422617882E-1
3.887146875E0,-4.625122529E-3,-2.937738299E-1,1.397834122E-1
3.891118750E0,-1.305506285E-2,-2.958158553E-1,1.358215213E-1
3.895090625E0,-1.991420612E-2,-2.903180718E-1,1.305680871E-1
3.899057812E0,-2.366666496E-2,-2.795493901E-1,1.243896186E-1
3.903029687E0,-2.464404888E-2,-2.659009099E-1,1.181064323E-1
3.907000000E0,-2.234021388E-2,-2.463881224E-1,1.125562862E-1
3.910970312E0,-1.872738265E-2,-2.239955515E-1,1.050862744E-1
3.914940625E0,-1.401499379E-2,-1.996307522E-1,9.817477316E-2
3.918910937E0,-9.773843922E-3,-1.746201962E-1,9.110618383E-2
3.922881250E0,-5.811946467E-3,-1.480737329E-1,8.473573625E-2
3.926853125E0,-2.670353744E-3,-1.230980754E-1,7.780677825E-2
3.930823437E0,-3.490658492E-5,-9.684831649E-2,7.255333662E-2
3.934793750E0,4.712388909E-4,-7.103490084E-2,6.801547855E-2
3.938764062E0,1.518436475E-3,-4.700171575E-2,6.501351297E-2
3.942734375E0,8.901178953E-4,-2.762856148E-2,6.122614816E-2
3.946704687E0,1.221730490E-4,-1.174606569E-2,6.084217876E-2
3.950676562E0,-6.981316983E-5,5.235987919E-5,6.044075266E-2
3.954646875E0,2.426007763E-3,7.347836159E-3,6.108652428E-2
3.958617187E0,5.480333697E-3,1.541125681E-2,6.171484292E-2
3.962587500E0,7.941247895E-3,2.640683204E-2,6.232570857E-2
3.966557812E0,9.930923581E-3,4.024729133E-2,6.309365481E-2
3.970528125E0,1.452113967E-2,5.560619012E-2,6.344271451E-2
3.974498437E0,1.768018492E-2,7.391469181E-2,6.202900037E-2
3.978468750E0,1.970476657E-2,9.222319722E-2,6.241297349E-2
3.982439062E0,2.127556317E-2,1.122246683E-1,6.159266829E-2
3.986410937E0,2.501056902E-2,1.311265826E-1,6.215117499E-2
3.990381250E0,2.703515068E-2,1.457000822E-1,6.078981608E-2
3.994351562E0,2.935643867E-2,1.582140923E-1,5.953317881E-2
3.998321875E0,3.403392062E-2,1.690176874E-1,5.949827284E-2
4.002292187E0,3.570943698E-2,1.773952693E-1,5.843362212E-2
4.006264062E0,3.810053691E-2,1.845336556E-1,5.695009232E-2
4.010234375E0,3.827507049E-2,1.907819360E-1,5.581562966E-2
4.014217187E0,3.757693991E-2,1.963146329E-1,5.386086181E-2
4.018175000E0,3.556980938E-2,2.019695044E-1,5.335471407E-2
4.022145312E0,2.918190509E-2,2.082701325E-1,5.050982907E-2
4.026115625E0,2.104867063E-2,2.139773667E-1,4.646066576E-2
4.030087500E0,1.200786512E-2,2.229832709E-1,4.105014354E-2
4.034056250E0,4.223696887E-3,2.331585288E-1,3.616322204E-2
4.038026562E0,-3.211405827E-3,2.451489419E-1,3.022910282E-2
4.041996875E0,-9.529497474E-3,2.612059712E-1,2.340486459E-2
4.045968750E0,-1.221730467E-2,2.780483961E-1,1.562069636E-2
4.049939062E0,-1.291543618E-2,2.964441776E-1,6.806783844E-3
4.053909375E0,-1.295034308E-2,3.170390427E-1,-1.500983140E-3
4.057879687E0,-1.130973361E-2,3.392745554E-1,-1.059414819E-2
4.061850000E0,-8.918632753E-3,3.622256219E-1,-2.078687213E-2
4.065821875E0,-4.084070213E-3,3.826808929E-1,-3.141592816E-2
4.069792187E0,-1.466076588E-3,3.994360566E-1,-4.352851212E-2
4.073762500E0,8.552113432E-4,4.092273414E-1,-5.616469681E-2
4.077732812E0,1.326450263E-3,4.132939577E-1,-6.880088151E-2
4.081703125E0,8.726646047E-5,4.158596098E-1,-7.887142897E-2
4.085673437E0,-2.775073517E-3,4.163657427E-1,-8.962265402E-2
4.089643750E0,-7.295476273E-3,4.169591665E-1,-9.859365225E-2
4.093614062E0,-1.164134592E-2,4.217762649E-1,-1.059065759E-1
4.097585937E0,-1.516691130E-2,4.299443960E-1,-1.115788966E-1
4.101556250E0,-1.670280099E-2,4.435230792E-1,-1.134987622E-1
4.105526562E0,-1.137954649E-2,4.582012892E-1,-1.138652787E-1
4.109496875E0,3.822271014E-3,4.776791632E-1,-1.079311594E-1
4.113467187E0,2.705260366E-2,4.984136820E-1,-1.027649865E-1
4.117437500E0,5.932373926E-2,5.170887113E-1,-9.615018964E-2
4.121407812E0,1.017352417E-1,5.341405869E-1,-8.480554819E-2
4.125379687E0,1.513375044E-1,5.491154790E-1,-6.424556673E-2
4.129350000E0,2.161939293E-1,5.580166578E-1,-3.419100121E-2
4.133318750E0,2.933374941E-1,5.546132922E-1,-5.253441166E-3
4.137290625E0,3.739542365E-1,5.356590152E-1,2.408554405E-2
4.141260937E0,4.653047621E-1,4.987976551E-1,5.672319978E-2
4.145231250E0,5.494471192E-1,4.580267668E-1,8.812167495E-2
4.149201562E0,6.382319927E-1,4.130670726E-1,1.160294861E-1
4.153171875E0,7.209954858E-1,3.680899441E-1,1.430122852E-1
4.157143750E0,8.046142459E-1,3.163060248E-1,1.813571602E-1
4.161114062E0,8.842012286E-1,2.549577057E-1,2.312561274E-1
4.165084375E0,9.502794147E-1,1.784773618E-1,2.719746530E-1
4.169054687E0,1.015816569E0,6.475171447E-2,3.059213161E-1
4.173025000E0,1.094897389E0,-1.081580520E-1,3.338814974E-1
4.176995312E0,1.186562061E0,-3.162711263E-1,3.562391400E-1
4.180965625E0,1.289972901E0,-5.420818329E-1,3.700447083E-1
4.184937500E0,1.388601422E0,-7.133509517E-1,3.750014305E-1
4.188907812E0,1.463249087E0,-8.020834923E-1,3.707253933E-1
4.192878125E0,1.508906960E0,-8.190481067E-1,3.581764698E-1
4.196848437E0,1.529100418E0,-7.836877108E-1,3.404264748E-1
4.200818750E0,1.526674390E0,-7.193549275E-1,3.183480501E-1
4.204790625E0,1.507685184E0,-6.449165940E-1,2.957285941E-1
4.208760937E0,1.477107048E0,-5.774596334E-1,2.671051919E-1
4.212729687E0,1.442654252E0,-5.172806978E-1,2.293886244E-1
4.216701562E0,1.407032132E0,-4.495444596E-1,1.829803139E-1
4.220671875E0,1.364620566E0,-3.564834893E-1,1.378984600E-1
4.224642187E0,1.312173486E0,-2.335948646E-1,9.436995536E-2
4.228612500E0,1.253024220E0,-8.264134079E-2,5.157447979E-2
4.232582812E0,1.191414118E0,7.560766488E-2,1.106538717E-2
4.236554687E0,1.122194290E0,2.403667420E-1,-3.064798191E-2
4.240523437E0,1.046202660E0,4.032757878E-1,-7.658504695E-2
4.244495312E0,9.694954753E-1,5.539674759E-1,-1.263443828E-1
4.248465625E0,8.850564361E-1,7.082546353E-1,-1.832770258E-1
4.252435937E0,8.011584878E-1,8.453502059E-1,-2.351831198E-1
4.256406250E0,7.195469141E-1,9.742253423E-1,-2.821150124E-1
4.260376562E0,6.408848763E-1,1.088823676E0,-3.278950155E-1
4.264346875E0,5.624323487E-1,1.188255072E0,-3.781081140E-1
4.268317187E0,4.864232540E-1,1.292119622E0,-4.022111297E-1
4.272289062E0,4.270122647E-1,1.391917586E0,-3.968878686E-1
4.276259375E0,3.796091080E-1,1.473232388E0,-3.814766109E-1
4.280229687E0,3.428699374E-1,1.517022729E0,-3.667635024E-1
4.284200000E0,3.168819845E-1,1.519850135E0,-3.572165370E-1
4.288170312E0,3.045250475E-1,1.492291451E0,-3.446501791E-1
4.292140625E0,3.064274490E-1,1.437959313E0,-3.308271468E-1
4.296110937E0,3.225717545E-1,1.359681249E0,-3.082775176E-1
4.300081250E0,3.481757343E-1,1.269430280E0,-2.852042615E-1
4.304053125E0,3.814766109E-1,1.160068035E0,-2.642952204E-1
4.308023437E0,4.205719829E-1,1.034788251E0,-2.421469837E-1
4.311993750E0,4.601385891E-1,9.033824205E-1,-2.219011635E-1
4.315964062E0,4.982914925E-1,7.665486336E-1,-2.054950595E-1
4.319934375E0,5.378929973E-1,6.298893094E-1,-1.921782047E-1
4.323906250E0,5.699023604E-1,5.049935579E-1,-1.834340990E-1
4.327875000E0,5.964837074E-1,3.953170776E-1,-1.765051484E-1
4.331846875E0,6.103242040E-1,3.014183640E-1,-1.727177799E-1
4.335815625E0,6.106209159E-1,2.281494439E-1,-1.759466380E-1
4.339787500E0,5.947558284E-1,1.759291887E-1,-1.852143407E-1
4.343757812E0,5.714905858E-1,1.486147791E-1,-1.971349418E-1
4.347728125E0,5.410346389E-1,1.371305138E-1,-2.142391652E-1
4.351698437E0,5.063025355E-1,1.424188614E-1,-2.331410795E-1
4.355670312E0,4.705931246E-1,1.599070728E-1,-2.549402416E-1
4.359640625E0,4.334350526E-1,1.864535213E-1,-2.788338065E-1
4.363610937E0,3.975510895E-1,2.173109502E-1,-3.017674387E-1
4.367581250E0,3.615449667E-1,2.528982162E-1,-3.249104917E-1
4.371553125E0,3.286803961E-1,2.822197378E-1,-3.467620015E-1
4.375521875E0,3.017499745E-1,3.073175848E-1,-3.673568964E-1
4.379492187E0,2.784672678E-1,3.266558349E-1,-3.847752810E-1
4.383464062E0,2.565982938E-1,3.464478552E-1,-3.971496820E-1
4.387432812E0,2.323731333E-1,3.674267232E-1,-4.054749012E-1
4.391404687E0,2.040988058E-1,3.835709989E-1,-4.090179205E-1
4.395375000E0,1.711120754E-1,3.951599896E-1,-4.090353549E-1
4.399345312E0,1.303237379E-1,4.026998281E-1,-4.045149684E-1
4.403315625E0,8.775515109E-2,4.052654505E-1,-3.950552642E-1
4.407285937E0,4.384266958E-2,4.006752372E-1,-3.826634288E-1
4.411257812E0,-2.356194425E-3,3.881786764E-1,-3.646865487E-1
4.415228125E0,-4.707153141E-2,3.688229620E-1,-3.423812389E-1
4.419198437E0,-9.304349869E-2,3.457148075E-1,-3.186447620E-1
4.423168750E0,-1.356120855E-1,3.226590157E-1,-2.918365002E-1
4.427139062E0,-1.798212677E-1,2.969328761E-1,-2.645221055E-1
4.431109375E0,-2.194925994E-1,2.745752037E-1,-2.385865152E-1
4.435079687E0,-2.609965205E-1,2.523222566E-1,-2.137504667E-1
4.439050000E0,-3.023608327E-1,2.299820334E-1,-1.922305673E-1
4.443021875E0,-3.397981524E-1,2.063851804E-1,-1.735206395E-1
4.446992187E0,-3.790855110E-1,1.859299242E-1,-1.576555967E-1
4.450962500E0,-4.164006412E-1,1.700474322E-1,-1.453859210E-1
4.454932812E0,-4.523195326E-1,1.617047489E-1,-1.372177899E-1
4.458903125E0,-4.890936017E-1,1.556135565E-1,-1.293812543E-1
4.462873437E0,-5.275955796E-1,1.502728462E-1,-1.232551485E-1
4.466843750E0,-5.657659173E-1,1.460142434E-1,-1.158025935E-1
4.470815625E0,-6.022083759E-1,1.378286481E-1,-1.076868176E-1
4.474785937E0,-6.376211047E-1,1.274264902E-1,-9.998991340E-2
4.478754687E0,-6.679200530E-1,1.117708832E-1,-9.241518378E-2
4.482726562E0,-6.886196733E-1,9.307841212E-2,-8.532914519E-2
4.486696875E0,-7.028964758E-1,6.307619810E-2,-8.121016622E-2
4.490667187E0,-7.052701116E-1,2.752384171E-2,-7.969173044E-2
4.494639062E0,-6.998595595E-1,-4.415682983E-3,-7.915068418E-2
4.498607812E0,-6.901729703E-1,-3.762929887E-2,-7.944738865E-2
4.502579687E0,-6.763499975E-1,-6.253514439E-2,-8.285077661E-2
4.506550000E0,-6.558947563E-1,-7.956956327E-2,-8.974482864E-2
4.510520312E0,-6.306921840E-1,-8.627162129E-2,-9.878563881E-2
4.514490625E0,-5.997300148E-1,-8.019787818E-2,-1.103222594E-1
4.518460937E0,-5.645616651E-1,-6.009168550E-2,-1.232726052E-1
4.522431250E0,-5.282937288E-1,-2.911209129E-2,-1.331162602E-1
4.526401562E0,-4.921828508E-1,1.130973361E-2,-1.415462047E-1
4.530373437E0,-4.579394758E-1,5.244714394E-2,-1.505171955E-1
4.534343750E0,-4.286877811E-1,9.536478668E-2,-1.608320922E-1
4.538312500E0,-4.031361639E-1,1.387711316E-1,-1.740616858E-1
4.542284375E0,-3.854908645E-1,1.750914305E-1,-1.933126599E-1
4.546254687E0,-3.721565604E-1,2.045700401E-1,-2.183581442E-1
4.550225000E0,-3.637266159E-1,2.259503305E-1,-2.462484986E-1
4.554196875E0,-3.560995162E-1,2.384643406E-1,-2.734232843E-1
4.558196875E0,-3.461511433E-1,2.408205271E-1,-2.990098000E-1
4.562137500E0,-3.330088258E-1,2.346595228E-1,-3.240378201E-1
4.566107812E0,-3.181386292E-1,2.246238738E-1,-3.468318284E-1
4.570078125E0,-3.022212088E-1,2.170316875E-1,-3.697828948E-1
4.574048437E0,-2.878397107E-1,2.169967890E-1,-3.876725435E-1
4.578018750E0,-2.803173363E-1,2.296155095E-1,-3.971496820E-1
4.581989062E0,-2.792526782E-1,2.556558251E-1,-3.967657089E-1
4.585960937E0,-2.833541930E-1,2.893930376E-1,-3.885277510E-1
4.589931250E0,-2.929884195E-1,3.197268546E-1,-3.741811514E-1
4.593901562E0,-3.029018939E-1,3.466049433E-1,-3.517885506E-1
4.597871875E0,-3.096912205E-1,3.674616218E-1,-3.236538470E-1
4.601842187E0,-3.111747503E-1,3.816336989E-1,-2.899864614E-1
4.605812500E0,-3.037222028E-1,3.844436705E-1,-2.481160015E-1
4.609782812E0,-2.894279361E-1,3.725056350E-1,-1.993689537E-1
4.613754687E0,-2.656914592E-1,3.450341523E-1,-1.422792375E-1
4.617723437E0,-2.363350391E-1,3.024830222E-1,-8.087855577E-2
4.621695312E0,-1.994562298E-1,2.379581928E-1,-1.909390278E-2
4.625665625E0,-1.576381326E-1,1.442340016E-1,4.021238536E-2
4.629635937E0,-1.157153323E-1,2.392846346E-2,8.773770183E-2
4.633606250E0,-7.497934252E-2,-1.259429604E-1,1.246688664E-1
4.637576562E0,-3.890338913E-2,-2.980847955E-1,1.475501359E-1
4.641546875E0,-1.504473854E-2,-4.697030187E-1,1.643401980E-1
4.645518750E0,-3.403391922E-3,-6.365913749E-1,1.750390679E-1
4.649489062E0,-8.639379404E-3,-7.720987797E-1,1.816015095E-1
4.653457812E0,-2.792526782E-2,-8.727344275E-1,1.845162064E-1
4.657429687E0,-5.148721114E-2,-9.619905949E-1,1.780584902E-1
4.661400000E0,-7.464773208E-2,-1.060130477E0,1.620538235E-1
4.665370312E0,-9.482374042E-2,-1.144709110E0,1.477944851E-1
4.669342187E0,-1.109331250E-1,-1.210281134E0,1.359436959E-1
4.673312500E0,-1.192059889E-1,-1.260790944E0,1.254891753E-1
4.677281250E0,-1.191012710E-1,-1.295941830E0,1.135860309E-1
4.681253125E0,-1.100430116E-1,-1.320446253E0,9.632471949E-2
4.685223437E0,-9.066985548E-2,-1.334513664E0,8.248426020E-2
4.689193750E0,-6.167993695E-2,-1.337288737E0,7.269296050E-2
4.693164062E0,-2.626720443E-2,-1.325211048E0,6.684610993E-2
4.697134375E0,7.487462368E-3,-1.296343327E0,6.080726907E-2
4.701104687E0,3.993313387E-2,-1.254019022E0,5.021312088E-2
4.705076562E0,6.990043819E-2,-1.199791670E0,3.794345632E-2
4.709046875E0,9.384635091E-2,-1.133277178E0,3.083996847E-2
4.713017187E0,1.131671518E-1,-1.060060620E0,2.687807009E-2
4.716987500E0,1.326624751E-1,-9.893398881E-1,2.403318323E-2
4.720957812E0,1.496270746E-1,-9.281311631E-1,1.879719645E-2
4.724928125E0,1.650383323E-1,-8.802742362E-1,1.185078546E-2
4.728900000E0,1.766098738E-1,-8.363268971E-1,1.003564335E-2
4.732870312E0,1.812698990E-1,-7.932695746E-1,1.151917316E-2
4.736840625E0,1.860869974E-1,-7.756766677E-1,1.583013684E-2
4.740810937E0,1.998227388E-1,-7.963762879E-1,1.815142483E-2
4.744781250E0,2.250951082E-1,-8.490503430E-1,2.326523885E-2
4.748751562E0,2.548529804E-1,-9.112887383E-1,3.406882659E-2
4.752721875E0,2.879269719E-1,-9.624618292E-1,5.630432069E-2
4.756692187E0,3.257308006E-1,-1.001819015E0,8.590510488E-2
4.760664062E0,3.726103306E-1,-1.051648140E0,1.182984188E-1
4.764634375E0,4.309043288E-1,-1.132037997E0,1.436231434E-1
4.768604687E0,5.073497295E-1,-1.252238870E0,1.634675413E-1
4.772575000E0,5.933945179E-1,-1.401883364E0,1.895427555E-1
4.776545312E0,6.785840392E-1,-1.566136241E0,2.267531753E-1
4.780515625E0,7.685557604E-1,-1.750652552E0,2.722888291E-1
4.784487500E0,8.660498261E-1,-1.931398749E0,3.233048022E-1
4.788456250E0,9.797929525E-1,-2.104308605E0,3.698701859E-1
4.792428125E0,1.128111005E0,-2.310484409E0,4.149869382E-1
4.796396875E0,1.281961799E0,-2.516328335E0,4.555134773E-1
4.800368750E0,1.417957783E0,-2.661714315E0,4.898615479E-1
4.804339062E0,1.557566762E0,-2.732452631E0,5.135631561E-1
4.808309375E0,1.692602873E0,-2.738386631E0,5.368981957E-1
4.812279687E0,1.819017053E0,-2.657211304E0,5.610535145E-1
4.816250000E0,1.920036674E0,-2.462537289E0,5.751907229E-1
4.820221875E0,1.996970773E0,-2.159652948E0,5.728519559E-1
4.824192187E0,2.041424274E0,-1.777548075E0,5.543340445E-1
4.828162500E0,2.047585249E0,-1.393069386E0,5.237733126E-1
4.832132812E0,2.025995731E0,-1.031210303E0,4.739616215E-1
4.836103125E0,1.953023434E0,-7.486764193E-1,4.072027802E-1
4.840073437E0,1.748802423E0,-6.243566275E-1,3.169692457E-1
4.844045312E0,1.339540243E0,-6.704682112E-1,2.052681744E-1
4.848015625E0,8.148069382E-1,-8.221373558E-1,8.857546002E-2
4.851984375E0,2.530203760E-1,-9.502619505E-1,-2.623229846E-2
4.855956250E0,-2.358463407E-1,-9.795137048E-1,-1.326450258E-1
4.859926562E0,-6.130294204E-1,-9.061051607E-1,-2.223025858E-1
4.863896875E0,-8.507083654E-1,-7.837924361E-1,-2.917143404E-1
4.867868750E0,-9.581333995E-1,-6.708871126E-1,-3.448770642E-1
4.871839062E0,-9.663888216E-1,-5.736896992E-1,-3.900461793E-1
4.875807812E0,-9.064890742E-1,-4.855855107E-1,-4.242720902E-1
4.879779687E0,-8.182801604E-1,-3.953519762E-1,-4.489859343E-1
4.883748437E0,-7.315547466E-1,-3.036523759E-1,-4.662646949E-1
4.887718750E0,-6.732432842E-1,-1.994736791E-1,-4.779933095E-1
4.891690625E0,-6.554758549E-1,-8.698721230E-2,-4.840670526E-1
4.895660937E0,-6.732782125E-1,2.902482450E-2,-4.945041239E-1
4.899632812E0,-7.186043859E-1,1.412320435E-1,-5.092870593E-1
4.903603125E0,-7.745247483E-1,2.362477630E-1,-5.263913274E-1
4.907573437E0,-8.318588138E-1,3.061830997E-1,-5.449965000E-1
4.911543750E0,-8.864178061E-1,3.500257730E-1,-5.620483756E-1
4.915514062E0,-9.340478778E-1,3.706381321E-1,-5.758190155E-1
4.919484375E0,-9.725149274E-1,3.731339276E-1,-5.863433480E-1
4.923454687E0,-1.005711079E0,3.663969636E-1,-5.937435627E-1
4.927426562E0,-1.037109494E0,3.578622937E-1,-5.961346626E-1
4.931396875E0,-1.071475029E0,3.530800939E-1,-5.925392509E-1
4.935367187E0,-1.107987404E0,3.539353311E-1,-5.810724497E-1
4.939337500E0,-1.146245003E0,3.604803085E-1,-5.630257726E-1
4.943307812E0,-1.192950010E0,3.719645739E-1,-5.357462764E-1
4.947278125E0,-1.243215442E0,3.802548945E-1,-4.997401237E-1
4.951248437E0,-1.294423461E0,3.848101795E-1,-4.594928324E-1
4.955218750E0,-1.339540243E0,3.824016452E-1,-4.149520397E-1
4.959190625E0,-1.371043444E0,3.626619577E-1,-3.657162786E-1
4.963160937E0,-1.381358266E0,3.206518888E-1,-3.113667369E-1
4.967129687E0,-1.372753859E0,2.667386830E-1,-2.509259880E-1
4.971101562E0,-1.343432307E0,2.095093280E-1,-1.820727438E-1
4.975071875E0,-1.294842362E0,1.590518504E-1,-1.055749655E-1
4.979042187E0,-1.226757050E0,1.066047102E-1,-1.771509275E-2
4.983014062E0,-1.139019370E0,3.668681905E-2,8.854055405E-2
4.986982812E0,-1.035032630E0,-6.147049740E-2,2.028596252E-1
4.990954687E0,-9.076235890E-1,-1.996307522E-1,3.125535548E-1
4.994925000E0,-7.507010102E-1,-3.811101019E-1,4.260872304E-1
4.998895312E0,-5.765869617E-1,-5.973040462E-1,5.392194986E-1
5.002865625E0,-3.725056350E-1,-8.093615174E-1,6.453354955E-1
5.006835937E0,-1.565211266E-1,-9.916437268E-1,7.464773059E-1
5.010806250E0,7.269296050E-2,-1.100447536E0,8.440586925E-1
5.014776562E0,2.867750525E-1,-1.091720939E0,9.206786156E-1
5.018748437E0,4.793372154E-1,-9.575225115E-1,9.858143330E-1
5.022718750E0,6.494719386E-1,-7.281513810E-1,1.038785100E0
5.026689062E0,7.858344913E-1,-5.128650069E-1,1.035050035E0
5.030659375E0,8.736420274E-1,-3.825063705E-1,9.950296283E-1
5.034629687E0,9.463000894E-1,-2.683618367E-1,8.961741924E-1
5.038600000E0,1.021261930E0,-1.547234356E-1,6.786363721E-1
5.042571875E0,1.064179659E0,-8.939576149E-2,3.980572522E-1
5.046542187E0,1.059414864E0,-5.401793867E-2,8.752825856E-2
5.050512500E0,9.952740073E-1,-6.567674130E-2,-1.942551434E-1
5.054482812E0,8.800997138E-1,-1.014559865E-1,-3.706206679E-1
5.058453125E0,7.238752842E-1,-1.063254550E-1,-4.319515228E-1
5.062423437E0,5.365490913E-1,-4.619886354E-2,-3.949331045E-1
5.066395312E0,3.359758854E-1,6.429792941E-2,-2.901260853E-1
5.070364062E0,1.246514171E-1,2.149372995E-1,-1.533271670E-1
5.074335937E0,-8.665559441E-2,3.739193380E-1,-9.058258496E-3
5.078306250E0,-2.886774540E-1,5.293234587E-1,1.206546128E-1
5.082276562E0,-4.698775411E-1,6.618114114E-1,2.205572575E-1
5.086246875E0,-6.354045868E-1,7.649254203E-1,3.002140820E-1
5.090217187E0,-7.578045130E-1,8.211250305E-1,3.575481474E-1
5.094187500E0,-8.671144843E-1,8.403062224E-1,4.037993848E-1
5.098159375E0,-9.465269446E-1,8.344419003E-1,4.383045435E-1
5.102129687E0,-9.931098223E-1,8.188910484E-1,4.558799863E-1
5.106100000E0,-1.009760261E0,8.092567921E-1,4.562465250E-1
5.110070312E0,-1.002359986E0,8.274780512E-1,4.364719391E-1
5.114040625E0,-9.779952168E-1,8.771151900E-1,4.055621624E-1
5.118010937E0,-9.365611076E-1,9.498081803E-1,3.717551231E-1
5.121981250E0,-8.851262927E-1,1.030494690E0,3.450166881E-1
5.125951562E0,-8.167617321E-1,1.111477971E0,3.278077245E-1
5.129921875E0,-7.242941856E-1,1.180156708E0,3.234618604E-1
5.133892187E0,-5.973913074E-1,1.222620606E0,3.366216421E-1
5.137864062E0,-4.530351162E-1,1.223632932E0,3.674441576E-1
5.141834375E0,-2.754129469E-1,1.179476023E0,4.169068038E-1
5.145804687E0,-1.009847522E-1,1.111670017E0,4.539077878E-1
5.149775000E0,7.323401421E-2,1.014053702E0,4.740837812E-1
5.153745312E0,2.530378401E-1,8.865225315E-1,4.865628779E-1
5.157717187E0,4.360181391E-1,7.540171146E-1,4.988500178E-1
5.161687500E0,5.972167850E-1,6.657209396E-1,5.139296651E-1
5.165657812E0,7.392516732E-1,6.106383204E-1,5.228657126E-1
5.169628125E0,8.595048189E-1,5.800252557E-1,5.226213932E-1
5.173598437E0,9.500176311E-1,5.733930469E-1,5.172981620E-1
5.177568750E0,1.013826847E0,5.882283449E-1,5.050633550E-1
5.181540625E0,1.054388285E0,6.358758211E-1,4.862138331E-1
5.185509375E0,1.068874478E0,7.097555995E-1,4.633849263E-1
5.189479687E0,1.063621044E0,7.935837507E-1,4.399625957E-1
5.193451562E0,1.038313866E0,8.787034750E-1,4.260174036E-1
5.197421875E0,9.966353774E-1,9.420065284E-1,4.154756367E-1
5.201392187E0,9.496511221E-1,9.582555890E-1,4.055097997E-1
5.205362500E0,9.000313878E-1,9.347459674E-1,3.920707703E-1
5.209332812E0,8.428718448E-1,8.888787031E-1,3.677932322E-1
5.213303125E0,7.748389244E-1,8.273907900E-1,3.382797241E-1
5.217275000E0,6.965609193E-1,7.505264878E-1,3.037919998E-1
5.221245312E0,6.069207788E-1,6.617066860E-1,2.630385756E-1
5.225215625E0,5.114513040E-1,5.587671399E-1,2.158274204E-1
5.229185937E0,4.088608325E-1,4.504869282E-1,1.660506278E-1
5.233156250E0,2.996381223E-1,3.373372257E-1,1.134638563E-1
5.237126562E0,1.849001795E-1,2.187246680E-1,6.045820564E-2
5.241098437E0,7.791149616E-2,1.108807698E-1,1.036725566E-2
5.245067187E0,-1.954768784E-2,1.167625282E-2,-3.775146976E-2
5.249039062E0,-1.021541208E-1,-8.082620054E-2,-8.190830052E-2
5.253009375E0,-1.572716236E-1,-1.600641459E-1,-1.229235381E-1
5.256979687E0,-1.886526346E-1,-2.068040669E-1,-1.625425071E-1
5.260950000E0,-1.956339478E-1,-2.081479728E-1,-1.948311031E-1
5.264920312E0,-1.778839529E-1,-1.681450158E-1,-2.229832709E-1
5.268890625E0,-1.330813617E-1,-8.504989743E-2,-2.485174239E-1
5.272860937E0,-6.326818466E-2,5.764822662E-2,-2.743133903E-1
5.276832812E0,2.837905288E-2,2.704911232E-1,-2.944195867E-1
5.280803125E0,1.222777665E-1,5.283111334E-1,-3.133563995E-1
5.284773437E0,2.160368562E-1,8.259246945E-1,-3.294483423E-1
5.288743750E0,3.083473146E-1,1.144499660E0,-3.483851850E-1
5.292714062E0,3.917216957E-1,1.443282604E0,-3.755773902E-1
5.296684375E0,4.730889499E-1,1.713354826E0,-4.055970609E-1
5.300656250E0,5.523967147E-1,1.940579176E0,-4.128401875E-1
5.304625000E0,6.229079962E-1,2.113960266E0,-4.017573297E-1
5.308596875E0,6.879564524E-1,2.221489906E0,-3.837979138E-1
5.312567187E0,7.404559255E-1,2.270603418E0,-3.654195964E-1
5.316537500E0,7.810872197E-1,2.253010511E0,-3.520328999E-1
5.320507812E0,8.077907562E-1,2.178153515E0,-3.387858570E-1
5.324478125E0,8.243713379E-1,2.067604303E0,-3.234269619E-1
5.328448437E0,8.326267600E-1,1.925935864E0,-3.039316237E-1
5.332418750E0,8.310036063E-1,1.767023683E0,-2.782229483E-1
5.336390625E0,8.219977021E-1,1.625634551E0,-2.514844835E-1
5.340360937E0,8.011410236E-1,1.490912557E0,-2.252521962E-1
5.344331250E0,7.716274858E-1,1.373591542E0,-1.940282583E-1
5.348301562E0,7.309613228E-1,1.276184797E0,-1.649685204E-1
5.352271875E0,6.891781688E-1,1.187399864E0,-1.361531317E-1
5.356243750E0,6.447246075E-1,1.100901365E0,-1.129751652E-1
5.360212500E0,6.004630923E-1,1.017980695E0,-9.716247767E-2
5.364182812E0,5.603030324E-1,9.338732958E-1,-8.368853480E-2
5.368154687E0,5.281715393E-1,8.528027534E-1,-7.792895287E-2
5.372125000E0,5.044350624E-1,7.855901718E-1,-7.431612164E-2
5.376095312E0,4.890587032E-1,7.302632332E-1,-7.382743061E-2
5.380065625E0,4.794943035E-1,6.923546791E-1,-7.972663641E-2
5.384035937E0,4.753404260E-1,6.758438349E-1,-8.848819137E-2
5.388007812E0,4.753055274E-1,6.754598618E-1,-9.800023586E-2
5.391978125E0,4.768064916E-1,6.847101450E-1,-1.090656221E-1
5.395948437E0,4.830722213E-1,6.996152401E-1,-1.241278127E-1
5.399918750E0,4.925319254E-1,7.178015709E-1,-1.413018554E-1
5.403889062E0,5.035798550E-1,7.371572852E-1,-1.626472324E-1
5.407859375E0,5.144357681E-1,7.602479458E-1,-1.840275228E-1
5.411829687E0,5.264611244E-1,7.856948376E-1,-2.055474222E-1
5.415801562E0,5.363571048E-1,8.120667934E-1,-2.241177261E-1
5.419771875E0,5.463054776E-1,8.321729898E-1,-2.408379763E-1
5.423742187E0,5.570392609E-1,8.511272669E-1,-2.557430863E-1
5.427712500E0,5.694660544E-1,8.658403754E-1,-2.680651248E-1
5.431682812E0,5.847551227E-1,8.752651811E-1,-2.754827738E-1
5.435653125E0,6.057339907E-1,8.720014095E-1,-2.777167857E-1
5.439623437E0,6.337814331E-1,8.563981652E-1,-2.764950693E-1
5.443593750E0,6.635567546E-1,8.395208120E-1,-2.733185589E-1
5.447565625E0,6.953740716E-1,8.215788603E-1,-2.670702934E-1
5.451535937E0,7.267202139E-1,7.964286208E-1,-2.606300116E-1
5.455506250E0,7.570191026E-1,7.611380816E-1,-2.527585924E-1
5.459476562E0,7.856948376E-1,7.187963724E-1,-2.438050359E-1
5.463446875E0,8.097280264E-1,6.693861485E-1,-2.348340452E-1
5.467417187E0,8.318064809E-1,6.140592098E-1,-2.263168395E-1
5.471387500E0,8.508130908E-1,5.530948639E-1,-2.206445187E-1
5.475359375E0,8.674984574E-1,4.848349988E-1,-2.167524397E-1
5.479329687E0,8.808851242E-1,4.157025218E-1,-2.166477144E-1
5.483300000E0,8.928056955E-1,3.475299478E-1,-2.178170830E-1
5.487270312E0,8.975704908E-1,2.842966914E-1,-2.218837142E-1
5.491239062E0,8.946034312E-1,2.348340452E-1,-2.282192558E-1
5.495210937E0,8.832936883E-1,1.986010075E-1,-2.354274690E-1
5.499181250E0,8.603251576E-1,1.778665036E-1,-2.461961508E-1
5.503151562E0,8.285950422E-1,1.756150275E-1,-2.652551532E-1
5.507121875E0,7.858519554E-1,1.900838017E-1,-2.858849168E-1
5.511092187E0,7.366161942E-1,2.182534188E-1,-3.064798117E-1
5.515064062E0,6.787760258E-1,2.606649101E-1,-3.292912543E-1
5.519034375E0,6.171833277E-1,3.093596101E-1,-3.508984447E-1
5.523004687E0,5.484173298E-1,3.609166443E-1,-3.720518351E-1
5.526975000E0,4.731587470E-1,4.085117579E-1,-3.902032673E-1
5.530945312E0,3.918089569E-1,4.483401775E-1,-4.075867534E-1
5.534917187E0,3.130946159E-1,4.793372154E-1,-4.253541827E-1
5.538885937E0,2.340137511E-1,5.032308102E-1,-4.434008896E-1
5.542857812E0,1.591914743E-1,5.213472843E-1,-4.581838250E-1
5.546828125E0,9.752900153E-2,5.317843556E-1,-4.677656889E-1
5.550829687E0,4.591961205E-2,5.340707302E-1,-4.741710424E-1
5.554768750E0,3.874630900E-3,5.263738632E-1,-4.808033109E-1
5.558739062E0,-3.295181692E-2,5.133885741E-1,-4.885525703E-1
5.562715625E0,-6.560692936E-2,4.989896417E-1,-4.943470657E-1
5.566681250E0,-9.998991340E-2,4.845557511E-1,-4.940503538E-1
5.570651562E0,-1.318421662E-1,4.729667604E-1,-4.923224747E-1
5.574621875E0,-1.600292325E-1,4.597197175E-1,-4.894426763E-1
5.578592187E0,-1.824218184E-1,4.470660985E-1,-4.875053763E-1
5.582562500E0,-1.954943240E-1,4.350407720E-1,-4.823217392E-1
5.586534375E0,-1.987580955E-1,4.234866798E-1,-4.754102230E-1
5.590503125E0,-1.913229972E-1,4.102221727E-1,-4.686383605E-1
5.594473437E0,-1.771858186E-1,3.891735077E-1,-4.576951265E-1
5.598445312E0,-1.610066295E-1,3.674267232E-1,-4.450415075E-1
5.602414062E0,-1.400801241E-1,3.414213061E-1,-4.294207990E-1
5.606385937E0,-1.197121367E-1,3.150668442E-1,-4.135906696E-1
5.610356250E0,-1.040041670E-1,2.887996435E-1,-3.974289298E-1
5.614326562E0,-9.178686142E-2,2.611536086E-1,-3.826634288E-1
5.618296875E0,-8.393288404E-2,2.360383272E-1,-3.703937829E-1
5.622268750E0,-8.368853480E-2,2.157925069E-1,-3.598170877E-1
5.626239062E0,-8.679522574E-2,2.002765238E-1,-3.502875865E-1
5.630209375E0,-9.407324344E-2,1.911135465E-1,-3.444756269E-1
5.634179687E0,-1.044055969E-1,1.848129183E-1,-3.419274390E-1
5.638150000E0,-1.126784533E-1,1.845162064E-1,-3.414038420E-1
5.642120312E0,-1.192059889E-1,1.823345423E-1,-3.430619240E-1
5.646092187E0,-1.236042157E-1,1.798212677E-1,-3.468143642E-1
5.650062500E0,-1.273217648E-1,1.757022887E-1,-3.526088595E-1
5.654032812E0,-1.300793886E-1,1.713040620E-1,-3.608991802E-1
5.658003125E0,-1.333606094E-1,1.673072577E-1,-3.678804934E-1
5.661973437E0,-1.405339092E-1,1.646019965E-1,-3.776718080E-1
5.665943750E0,-1.509884298E-1,1.649510711E-1,-3.861017227E-1
5.669914062E0,-1.648637950E-1,1.663996875E-1,-3.953868747E-1
5.673884375E0,-1.838355362E-1,1.687209755E-1,-4.018620551E-1
5.677854687E0,-2.068215162E-1,1.717578471E-1,-4.068537056E-1
5.681826562E0,-2.324080467E-1,1.687907875E-1,-4.140270054E-1
5.685796875E0,-2.581865489E-1,1.598721594E-1,-4.196644127E-1
5.689767187E0,-2.832669318E-1,1.441641897E-1,-4.236961305E-1
5.693737500E0,-3.105987906E-1,1.214051023E-1,-4.268551767E-1
5.697707812E0,-3.357838988E-1,9.272934496E-2,-4.327892959E-1
5.701678125E0,-3.587524295E-1,5.951572582E-2,-4.400673211E-1
5.705650000E0,-3.769387603E-1,2.631956525E-2,-4.479736686E-1
5.709618750E0,-3.887546360E-1,-1.448623254E-3,-4.560545385E-1
5.713589062E0,-3.922976553E-1,-1.788962446E-2,-4.607320130E-1
5.717560937E0,-3.914075494E-1,-2.007128671E-2,-4.612032473E-1
5.721531250E0,-3.889117241E-1,-8.290314116E-3,-4.538030624E-1
5.725503125E0,-3.875154555E-1,2.064724453E-2,-4.384790659E-1
5.729471875E0,-3.896971047E-1,5.605997518E-2,-4.153534472E-1
5.733442187E0,-3.952298164E-1,9.105382860E-2,-3.879517913E-1
5.737414062E0,-4.052654505E-1,1.131322384E-1,-3.570245504E-1
5.741384375E0,-4.196120501E-1,1.262571216E-1,-3.206693530E-1
5.745354687E0,-4.360007048E-1,1.301317513E-1,-2.839301527E-1
5.749325000E0,-4.535238147E-1,1.254193634E-1,-2.460565120E-1
5.753295312E0,-4.713436067E-1,1.088387296E-1,-2.065248042E-1
5.757265625E0,-4.868246913E-1,7.698646933E-2,-1.683719158E-1
5.761235937E0,-4.961447418E-1,2.426007576E-2,-1.289100200E-1
5.765207812E0,-5.014330745E-1,-5.387831479E-2,-9.498082101E-2
5.769176562E0,-5.017472506E-1,-1.546536237E-1,-6.476917118E-2
5.773148437E0,-5.024279356E-1,-2.629687488E-1,-4.242895544E-2
5.777118750E0,-5.054647923E-1,-3.786840737E-1,-2.727949619E-2
5.781089062E0,-5.115211010E-1,-4.847477376E-1,-1.790707745E-2
5.785059375E0,-5.218359828E-1,-5.717000365E-1,-1.260127686E-2
5.789029687E0,-5.365665555E-1,-6.428571343E-1,-9.128072299E-3
5.793000000E0,-5.584704280E-1,-6.985855103E-1,-3.106686054E-3
5.796971875E0,-5.856975913E-1,-7.365987301E-1,5.672320258E-3
5.800942187E0,-6.144955158E-1,-7.633721232E-1,1.956514083E-2
5.804912500E0,-6.436599493E-1,-7.757639289E-1,3.612831607E-2
5.808882812E0,-6.734004021E-1,-7.814013362E-1,5.249950290E-2
5.812853125E0,-7.014827132E-1,-7.848222256E-1,6.745697558E-2
5.816823437E0,-7.258300781E-1,-7.882605195E-1,7.993607968E-2
5.820795312E0,-7.445051074E-1,-7.936884761E-1,9.056513757E-2
5.824765625E0,-7.570540309E-1,-8.003556132E-1,9.409070015E-2
5.828734375E0,-7.642447948E-1,-8.075289130E-1,9.454448521E-2
5.832706250E0,-7.634244561E-1,-8.136026859E-1,9.587093443E-2
5.836676562E0,-7.537029982E-1,-8.225561976E-1,9.862855822E-2
5.840646875E0,-7.358307838E-1,-8.352796435E-1,9.740682691E-2
5.844618750E0,-7.085862160E-1,-8.592081070E-1,8.955284208E-2
5.848587500E0,-6.751456857E-1,-8.940623403E-1,6.914994121E-2
5.852559375E0,-6.364692450E-1,-9.302430153E-1,4.185299575E-2
5.856529687E0,-5.980545282E-1,-9.564229846E-1,1.558579039E-2
5.860500000E0,-5.638285875E-1,-9.668425918E-1,-6.283185445E-3
5.864470312E0,-5.303706527E-1,-9.630901217E-1,-1.998401992E-2
5.868440625E0,-4.970872104E-1,-9.478185177E-1,-3.122393973E-2
5.872410937E0,-4.678005874E-1,-9.159836769E-1,-3.790855035E-2
5.876381250E0,-4.451113045E-1,-8.720188737E-1,-3.876376152E-2
5.880353125E0,-4.334525168E-1,-8.081747293E-1,-3.415609151E-2
5.884323437E0,-4.304330945E-1,-7.353595495E-1,-2.888519876E-2
5.888293750E0,-4.383569062E-1,-6.471331716E-1,-2.209586836E-2
5.892264062E0,-4.536983371E-1,-5.599889159E-1,-1.429424621E-2
5.896234375E0,-4.650604427E-1,-4.998972118E-1,-1.752310619E-2
5.900206250E0,-4.732983708E-1,-4.565781355E-1,-2.335250564E-2
5.904176562E0,-4.780107737E-1,-4.103618264E-1,-2.487094142E-2
5.908145312E0,-4.703662395E-1,-3.608119190E-1,-1.490511186E-2
5.912117187E0,-4.441513717E-1,-3.222925067E-1,1.342158206E-2
5.916087500E0,-4.070456922E-1,-2.966012657E-1,5.379104614E-2
5.920057812E0,-3.643898368E-1,-2.760587335E-1,9.082693607E-2
5.924028125E0,-3.171437681E-1,-2.537185252E-1,1.250179410E-1
5.927998437E0,-2.643301189E-1,-2.093696892E-1,1.563640535E-1
5.931968750E0,-2.106786966E-1,-1.302539259E-1,1.818458587E-1
5.935940625E0,-1.536238790E-1,-1.399754081E-2,2.089508176E-1
5.939910937E0,-9.224065393E-2,1.152266338E-1,2.516764700E-1
5.943881250E0,-4.249876738E-2,2.305056304E-1,3.064623475E-1
5.947851562E0,4.450589418E-3,3.229557276E-1,3.695560098E-1
5.951821875E0,6.529276818E-2,3.123790324E-1,4.220031500E-1
5.955792187E0,1.460316926E-1,1.810429990E-1,4.574857056E-1
5.959762500E0,2.308197916E-1,-3.246312495E-3,4.969650507E-1
5.963734375E0,3.048391938E-1,-1.777792424E-1,5.426577926E-1
5.967703125E0,3.738146126E-1,-3.544938266E-1,5.822767615E-1
5.971675000E0,4.402418435E-1,-5.370901823E-1,6.063099504E-1
5.975645312E0,5.105611682E-1,-7.405083179E-1,6.136403084E-1
5.979615625E0,5.772327185E-1,-9.486387968E-1,6.048438549E-1
5.983585937E0,6.343399286E-1,-1.144656777E0,5.799903870E-1
5.987556250E0,6.840294600E-1,-1.330255032E0,5.420294404E-1
5.991526562E0,7.245211005E-1,-1.496183515E0,4.960051179E-1
5.995498437E0,7.573507428E-1,-1.633087158E0,4.445702732E-1
5.999468750E0,7.868467569E-1,-1.740459800E0,4.011988342E-1
6.003439062E0,8.152956367E-1,-1.826678991E0,3.572165370E-1
6.007409375E0,8.350702524E-1,-1.878864408E0,3.203028142E-1
6.011379687E0,8.403760195E-1,-1.871848106E0,2.926219106E-1
6.015350000E0,8.339357376E-1,-1.828738570E0,2.706307471E-1
6.019320312E0,8.179485798E-1,-1.750844479E0,2.737548947E-1
6.023292187E0,8.128347397E-1,-1.613644123E0,2.895675898E-1
6.027260937E0,8.181754351E-1,-1.427487373E0,2.452187538E-1
6.031232812E0,8.063246608E-1,-1.260773540E0,1.627519578E-1
6.035203125E0,7.704406977E-1,-1.125370860E0,6.370452046E-2
6.039173437E0,7.253588438E-1,-1.012500405E0,-2.235766686E-2
6.043145312E0,6.776415110E-1,-9.221272469E-1,-9.808750451E-2
6.047114062E0,6.307271123E-1,-8.367108107E-1,-1.638864130E-1
6.051084375E0,5.883854032E-1,-7.652047276E-1,-2.219709754E-1
6.055056250E0,5.497786999E-1,-7.123736143E-1,-2.762681544E-1
6.059026562E0,5.180486441E-1,-6.879040599E-1,-3.256435394E-1
6.062996875E0,4.948706627E-1,-6.818652153E-1,-3.639709651E-1
6.066967187E0,4.736300111E-1,-6.736621857E-1,-3.893131316E-1
6.070937500E0,4.676086009E-1,-6.788806915E-1,-4.081103504E-1
6.074909375E0,4.863708913E-1,-7.109249830E-1,-4.306076169E-1
6.078878125E0,5.249950290E-1,-7.604225278E-1,-4.521449804E-1
6.082850000E0,5.617341995E-1,-8.130616546E-1,-4.592833817E-1
6.086820312E0,5.721014738E-1,-8.742005229E-1,-4.524067938E-1
6.090790625E0,5.382421017E-1,-9.297369123E-1,-4.334525168E-1
6.094760937E0,4.622504413E-1,-9.762848020E-1,-4.030663371E-1
6.098731250E0,3.452086747E-1,-1.023181796E0,-3.609690070E-1
6.102701562E0,2.060012072E-1,-1.074093103E0,-3.168645203E-1
6.106671875E0,5.944591388E-2,-1.136139512E0,-2.776644230E-1
6.110643750E0,-6.756169349E-2,-1.215377450E0,-2.544864714E-1
6.114614062E0,-1.594009250E-1,-1.311004043E0,-2.523396909E-1
6.118584375E0,-2.193180770E-1,-1.401289940E0,-2.691123188E-1
6.122554687E0,-2.548006177E-1,-1.473633885E0,-2.944195867E-1
6.126525000E0,-2.744355798E-1,-1.511018753E0,-3.255562782E-1
6.130495312E0,-2.852566242E-1,-1.506638050E0,-3.580542803E-1
6.134487500E0,-2.969503105E-1,-1.452515364E0,-3.919835091E-1
6.138435937E0,-3.222575784E-1,-1.317566514E0,-4.110774100E-1
6.142407812E0,-3.679852188E-1,-1.121740580E0,-4.178492725E-1
6.146378125E0,-4.321784377E-1,-9.027366638E-1,-4.280245304E-1
6.150348437E0,-5.077686310E-1,-6.978175640E-1,-4.473802447E-1
6.154318750E0,-5.843711495E-1,-5.298121572E-1,-4.757592976E-1
6.158289062E0,-6.531545520E-1,-4.227536619E-1,-5.030562282E-1
6.162260937E0,-7.165274620E-1,-3.581241071E-1,-5.280842781E-1
6.166229687E0,-7.693411112E-1,-3.304606378E-1,-5.519254804E-1
6.170201562E0,-8.067435622E-1,-3.310714960E-1,-5.707750320E-1
6.174171875E0,-8.334994316E-1,-3.478092253E-1,-5.877396464E-1
6.178142187E0,-8.520697355E-1,-3.693465889E-1,-6.004456282E-1
6.182112500E0,-8.627685905E-1,-3.859620988E-1,-6.105161905E-1
6.186082812E0,-8.717396259E-1,-3.960151970E-1,-6.196267605E-1
6.190053125E0,-8.749684691E-1,-3.957708478E-1,-6.239551902E-1
6.194025000E0,-8.773246408E-1,-3.878819644E-1,-6.276378632E-1
6.197995312E0,-8.744797707E-1,-3.757344782E-1,-6.283010840E-1
6.201965625E0,-8.689121604E-1,-3.611260653E-1,-6.281788945E-1
6.205935937E0,-8.614421487E-1,-3.517362177E-1,-6.252816319E-1
6.209906250E0,-8.519650102E-1,-3.476346731E-1,-6.230127215E-1
6.213876562E0,-8.416675925E-1,-3.513696790E-1,-6.174625754E-1
6.217846875E0,-8.313003182E-1,-3.704112172E-1,-6.092420816E-1
6.221817187E0,-8.194320798E-1,-4.008148611E-1,-5.956634283E-1
6.225787500E0,-8.045793176E-1,-4.403814673E-1,-5.760110021E-1
6.229759375E0,-7.868642211E-1,-4.782202244E-1,-5.574930906E-1
6.233729687E0,-7.649428844E-1,-5.170014501E-1,-5.367062092E-1
6.237700000E0,-7.390596867E-1,-5.463927984E-1,-5.156400800E-1
6.241670312E0,-7.094239593E-1,-5.709146261E-1,-4.910134673E-1
6.245640625E0,-6.725102663E-1,-5.970073342E-1,-4.642750323E-1
6.249610937E0,-6.314077377E-1,-6.241297126E-1,-4.366813898E-1
6.253582812E0,-5.827654600E-1,-6.553013325E-1,-4.055446982E-1
6.257551562E0,-5.256757140E-1,-6.980269551E-1,-3.745650947E-1
6.261523437E0,-4.650255144E-1,-7.526732087E-1,-3.413514793E-1
6.265493750E0,-3.987728357E-1,-8.232194185E-1,-2.991319895E-1
6.269464062E0,-3.291167319E-1,-9.090547562E-1,-2.473131567E-1
6.273434375E0,-2.638414204E-1,-1.009690404E0,-1.797863692E-1
6.277404687E0,-2.034355700E-1,-1.113048792E0,-1.026951745E-1
6.281376562E0,-1.583537161E-1,-1.212829351E0,-2.207841538E-2
6.285346875E0,-1.259604096E-1,-1.320149541E0,7.506661117E-2
6.289317187E0,-1.125388294E-1,-1.403995156E0,1.803448647E-1
6.293287500E0,-1.199041158E-1,-1.447279334E0,2.915223539E-1
6.297257812E0,-1.442340016E-1,-1.434468627E0,3.965213597E-1
6.301228125E0,-1.707804650E-1,-1.366889477E0,4.836656451E-1
6.305198437E0,-1.869073063E-1,-1.245205164E0,5.440191031E-1
6.309170312E0,-1.712516993E-1,-1.078753114E0,5.859593749E-1
6.313140625E0,-1.239707395E-1,-8.851088285E-1,6.187017560E-1
6.317110937E0,-5.112069473E-2,-6.880087852E-1,6.567150354E-1
6.321081250E0,2.600540593E-2,-4.852713346E-1,7.035247684E-1
6.325051562E0,1.021017581E-1,-2.787639797E-1,7.643320560E-1
6.329021875E0,1.635024399E-1,-7.545058429E-2,8.424878716E-1
6.332993750E0,2.159495950E-1,1.144761443E-1,9.150412083E-1
6.336964062E0,2.561096251E-1,2.509783506E-1,9.464396834E-1
6.340932812E0,2.730742097E-1,3.514045775E-1,9.603150487E-1
6.344904687E0,2.631956637E-1,4.406781793E-1,9.664935470E-1
6.348875000E0,2.336646765E-1,5.104913712E-1,9.738064408E-1
6.352845312E0,1.992991418E-1,5.515589714E-1,9.901601672E-1
6.356815625E0,1.641482115E-1,5.831668377E-1,1.017143011E0
6.360785937E0,1.329940856E-1,6.274982095E-1,1.055801988E0
6.364756250E0,1.030616909E-1,7.046766877E-1,1.103065491E0
6.368728125E0,7.387978584E-2,8.062373996E-1,1.151952267E0
6.372698437E0,4.279547185E-2,9.269792438E-1,1.209425926E0
6.376668750E0,5.777040031E-3,1.041001678E0,1.274230003E0
6.380639062E0,-4.160865024E-2,1.118005514E0,1.347568750E0
6.384609375E0,-1.024682820E-1,1.150590897E0,1.419982433E0
6.388579687E0,-1.723687202E-1,1.136366367E0,1.485711575E0
6.392551562E0,-2.555860281E-1,1.036114693E0,1.540008664E0
6.396521875E0,-3.542669415E-1,8.758586049E-1,1.578894615E0
6.400492187E0,-4.662123621E-1,6.581462026E-1,1.594428062E0
6.404462500E0,-5.773199797E-1,4.088433683E-1,1.585108042E0
6.408432812E0,-6.687752604E-1,1.480039209E-1,1.547304153E0
6.412403125E0,-7.224790454E-1,-1.133765876E-1,1.460543871E0
6.416373437E0,-7.093890905E-1,-3.446850777E-1,1.316309810E0
6.420343750E0,-6.427524090E-1,-5.134060383E-1,1.114776731E0
6.424314062E0,-5.220454335E-1,-6.215466261E-1,8.511970639E-1
6.428285937E0,-3.864333630E-1,-6.437646747E-1,5.848598480E-1
6.432256250E0,-2.417630106E-1,-5.446474552E-1,3.550872207E-1
6.436226562E0,-9.717993438E-2,-3.780034184E-1,1.640958488E-1
6.440196875E0,5.042256042E-2,-1.595929116E-1,-7.330382941E-4
6.444167187E0,1.963844448E-1,1.092576087E-1,-1.395565271E-1
6.448137500E0,3.291167319E-1,3.959628344E-1,-2.502802014E-1
6.452109375E0,4.491081238E-1,7.142061591E-1,-3.228335381E-1
6.456079687E0,5.527806878E-1,1.058315277E0,-3.515267670E-1
6.460050000E0,6.373069882E-1,1.387973070E0,-3.425906897E-1
6.464020312E0,7.116056681E-1,1.714524150E0,-3.029367924E-1
6.467990625E0,7.764096856E-1,2.011963129E0,-2.347642332E-1
6.471962500E0,8.362047076E-1,2.291913986E0,-1.413018554E-1
6.475931250E0,8.925788403E-1,2.532786846E0,-2.947861142E-2
6.479901562E0,9.501921535E-1,2.724650860E0,1.082278639E-1
6.483873437E0,1.020127535E0,2.836282253E0,2.692170441E-1
6.487843750E0,1.101599455E0,2.804203033E0,3.937637210E-1
6.491814062E0,1.175566554E0,2.649392366E0,4.676260650E-1
6.495784375E0,1.233232141E0,2.421487331E0,5.195146799E-1
6.499754687E0,1.270704389E0,2.154172659E0,5.541245937E-1
6.503725000E0,1.283654809E0,1.844045043E0,5.747194886E-1
6.507696875E0,1.264438629E0,1.516708612E0,5.897293091E-1
6.511667187E0,1.211433053E0,1.162459135E0,6.061179638E-1
6.515642187E0,1.147431850E0,8.496786356E-1,6.257528663E-1
6.519607812E0,1.065732956E0,5.479984879E-1,6.669775844E-1
6.523578125E0,9.801419973E-1,2.634050846E-1,7.263536453E-1
6.527548437E0,8.944637775E-1,1.656317525E-2,7.865675092E-1
6.531520312E0,8.051029444E-1,-2.242399007E-1,8.254709244E-1
6.535489062E0,7.131938934E-1,-4.429820180E-1,8.390670419E-1
6.539459375E0,6.216513515E-1,-6.037617326E-1,8.380896449E-1
6.543462500E0,5.232496858E-1,-7.140141726E-1,8.181405663E-1
6.547401562E0,4.268377125E-1,-7.830943465E-1,7.793593407E-1
6.551371875E0,3.284011483E-1,-8.350876570E-1,7.206289768E-1
6.555342187E0,2.366491854E-1,-8.760505319E-1,6.515663266E-1
6.559312500E0,1.512851417E-1,-9.118646979E-1,5.680697560E-1
6.563282812E0,7.199483365E-2,-9.385159016E-1,4.698426425E-1
6.567254687E0,4.799655639E-3,-9.438391328E-1,3.736226261E-1
6.571225000E0,-5.530948564E-2,-9.128770232E-1,2.780658603E-1
6.575195312E0,-1.033409461E-1,-8.232368827E-1,1.893333197E-1
6.579165625E0,-1.403942853E-1,-6.475695372E-1,8.328711241E-2
6.583135937E0,-1.679879427E-1,-3.851941526E-1,-3.361504152E-2
6.587106250E0,-1.799958050E-1,-3.984586522E-2,-1.526464969E-1
6.591078125E0,-1.750041693E-1,3.659606278E-1,-2.634574473E-1
6.595046875E0,-1.560847908E-1,7.730063200E-1,-3.590316772E-1
6.599018750E0,-1.249481216E-1,1.179092050E0,-4.308170676E-1
6.602989062E0,-6.373942643E-2,1.596347928E0,-4.731413126E-1
6.606959375E0,2.612757869E-2,1.977318406E0,-4.984485805E-1
6.610929687E0,1.403593719E-1,2.319856644E0,-5.328664780E-1
6.614900000E0,2.715906799E-1,2.629006863E0,-5.611757040E-1
6.618870312E0,4.144633412E-1,2.899340868E0,-5.673367381E-1
6.622840625E0,5.865004659E-1,3.112829685E0,-5.511924028E-1
6.626812500E0,7.539997101E-1,3.245893478E0,-5.210680366E-1
6.630781250E0,9.423207045E-1,3.290416956E0,-4.806985855E-1
6.634753125E0,1.105910420E0,3.244916201E0,-4.377983809E-1
6.638723437E0,1.263216972E0,3.108483791E0,-3.952996135E-1
6.642693750E0,1.405129671E0,2.858255863E0,-3.559249938E-1
6.646664062E0,1.508365870E0,2.532280684E0,-3.301464915E-1
6.650634375E0,1.576241732E0,2.148063898E0,-3.125884533E-1
6.654604687E0,1.604760408E0,1.733303905E0,-2.931280434E-1
6.658576562E0,1.603468895E0,1.316536784E0,-2.576455176E-1
6.662546875E0,1.578283787E0,9.551139474E-1,-2.142217159E-1
6.666517187E0,1.537530303E0,6.425254941E-1,-1.727701426E-1
6.670487500E0,1.480405688E0,3.893131316E-1,-1.359262466E-1
6.674457812E0,1.409807205E0,1.973094642E-1,-1.025555432E-1
6.678428125E0,1.324547768E0,4.712389037E-2,-7.035422325E-2
6.682400000E0,1.223475814E0,-7.129669935E-2,-3.637266159E-2
6.686370312E0,1.117167830E0,-1.596801728E-1,-2.687806962E-3
6.690339062E0,1.005431771E0,-2.269975245E-1,3.513347730E-2
6.694310937E0,8.899084926E-1,-2.753955126E-1,7.255333662E-2
6.698281250E0,7.804588675E-1,-3.032160401E-1,1.103222594E-1
6.702251562E0,6.716899872E-1,-3.122917712E-1,1.452986598E-1
6.706221875E0,5.704433918E-1,-3.033556640E-1,1.780584902E-1
6.710192187E0,4.770683050E-1,-2.774026394E-1,2.081130594E-1
6.714162500E0,3.952472508E-1,-2.405238301E-1,2.341708243E-1
6.718134375E0,3.211929500E-1,-1.964193583E-1,2.576804161E-1
6.722104687E0,2.564412355E-1,-1.472883373E-1,2.745053768E-1
6.726075000E0,2.046224028E-1,-1.082627699E-1,2.814343274E-1
6.730045312E0,1.635548025E-1,-7.852236181E-2,2.814517915E-1
6.734015625E0,1.336049587E-1,-6.127851084E-2,2.743657529E-1
6.737987500E0,1.129926145E-1,-5.679301545E-2,2.649933398E-1
6.741956250E0,9.934414178E-2,-6.269222498E-2,2.545737326E-1
6.745926562E0,9.306095541E-2,-8.004079759E-2,2.428276539E-1
6.749898437E0,9.744173288E-2,-9.766862541E-2,2.263692021E-1
6.753873437E0,1.101826355E-1,-1.077042669E-1,2.080606967E-1
6.757839062E0,1.315803677E-1,-1.151219159E-1,1.935046464E-1
6.761809375E0,1.579173952E-1,-1.193107069E-1,1.787217110E-1
6.765779687E0,1.861742735E-1,-1.213003844E-1,1.647939831E-1
6.769750000E0,2.162637413E-1,-1.234820411E-1,1.524195969E-1
6.773721875E0,2.438399494E-1,-1.266061813E-1,1.421221644E-1
6.777692187E0,2.702991366E-1,-1.316327304E-1,1.350710243E-1
6.781662500E0,2.934596539E-1,-1.380729973E-1,1.282642484E-1
6.785632812E0,3.112271130E-1,-1.447052509E-1,1.213701963E-1
6.789603125E0,3.274586797E-1,-1.535191536E-1,1.134114936E-1
6.793573437E0,3.398156166E-1,-1.597325355E-1,1.041088924E-1
6.797543750E0,3.487691283E-1,-1.630137563E-1,9.520771354E-2
6.801515625E0,3.545461893E-1,-1.596452594E-1,8.370599151E-2
6.805485937E0,3.538131416E-1,-1.532050073E-1,6.881833076E-2
6.809456250E0,3.460987806E-1,-1.428028345E-1,5.094616115E-2
6.813426562E0,3.336895108E-1,-1.274439394E-1,2.926917188E-2
6.817396875E0,3.145083189E-1,-1.061160192E-1,4.188789986E-3
6.821367187E0,2.869146764E-1,-8.038986474E-2,-2.415535599E-2
6.825339062E0,2.577327788E-1,-5.380849913E-2,-4.946263134E-2
6.829307812E0,2.258979678E-1,-2.790781483E-2,-7.803367078E-2
6.833279687E0,1.957735866E-1,-8.045967668E-3,-1.049117446E-1
6.837250000E0,1.672898084E-1,6.440265104E-3,-1.277231872E-1
6.841220312E0,1.434486061E-1,1.427679323E-2,-1.509884298E-1
6.845190625E0,1.269901544E-1,1.617920212E-2,-1.749518067E-1
6.849160937E0,1.171464995E-1,1.350884791E-2,-1.968556792E-1
6.853131250E0,1.099033803E-1,1.160643995E-2,-2.171887755E-1
6.857103125E0,1.024508253E-1,1.457349956E-2,-2.343628109E-1
6.861073437E0,9.178686142E-2,2.181661502E-2,-2.501405776E-1
6.865043750E0,7.410667837E-2,3.422590718E-2,-2.641904950E-1
6.869014062E0,4.752531648E-2,5.492551252E-2,-2.761285305E-1
6.872989062E0,1.272345055E-2,8.110544831E-2,-2.861641943E-1
6.876954687E0,-2.310816012E-2,1.090132669E-1,-2.942101657E-1
6.880925000E0,-6.902777404E-2,1.463807672E-1,-3.011216521E-1
6.884896875E0,-1.186474785E-1,1.895427555E-1,-3.071255982E-1
6.888867187E0,-1.692271233E-1,2.409950644E-1,-3.106686175E-1
6.892837500E0,-2.180788964E-1,2.947686613E-1,-3.139847219E-1
6.896807812E0,-2.641032338E-1,3.485248089E-1,-3.178593516E-1
6.900778125E0,-3.007725775E-1,3.988077343E-1,-3.220306933E-1
6.904748437E0,-3.320314288E-1,4.439943135E-1,-3.267430961E-1
6.908718750E0,-3.570245504E-1,4.822693765E-1,-3.329389989E-1
6.912689062E0,-3.742334843E-1,5.110673308E-1,-3.386113346E-1
6.916660937E0,-3.886499107E-1,5.355717540E-1,-3.455053866E-1
6.920629687E0,-4.002389014E-1,5.583831668E-1,-3.525739610E-1
6.924601562E0,-4.094367921E-1,5.768138766E-1,-3.586302400E-1
6.928571875E0,-4.146902263E-1,5.911080837E-1,-3.647214472E-1
6.932542187E0,-4.180237949E-1,6.016150117E-1,-3.711268008E-1
6.936512500E0,-4.215842783E-1,6.118775010E-1,-3.773227334E-1
6.940482812E0,-4.246385992E-1,6.196616888E-1,-3.837455511E-1
6.944453125E0,-4.258777797E-1,6.295228004E-1,-3.882834017E-1
6.948425000E0,-4.253018200E-1,6.403787732E-1,-3.926292658E-1
6.952395312E0,-4.231899679E-1,6.489134431E-1,-3.961722851E-1
6.956365625E0,-4.176747501E-1,6.559645534E-1,-3.989124596E-1
6.960335937E0,-4.112693965E-1,6.597693563E-1,-4.002214372E-1
6.964306250E0,-4.040262699E-1,6.573084593E-1,-3.985982835E-1
6.968276562E0,-3.995756805E-1,6.485294700E-1,-3.957708478E-1
6.972248437E0,-3.984062970E-1,6.342002749E-1,-3.942873180E-1
6.976218750E0,-4.009719491E-1,6.156998277E-1,-3.907442987E-1
6.980189062E0,-4.099080265E-1,5.943369865E-1,-3.843913078E-1
6.984159375E0,-4.256508946E-1,5.669178367E-1,-3.741636872E-1
6.988129687E0,-4.484100044E-1,5.322381258E-1,-3.574957848E-1
6.992100000E0,-4.749738872E-1,4.920257628E-1,-3.346319795E-1
6.996071875E0,-5.014680028E-1,4.485845268E-1,-3.074572086E-1
7.000040625E0,-5.268974304E-1,3.940604329E-1,-2.773328125E-1
7.004010937E0,-5.475272536E-1,3.388905823E-1,-2.417804599E-1
7.007982812E0,-5.611931682E-1,2.838428915E-1,-2.070658654E-1
7.011953125E0,-5.627988577E-1,2.465975732E-1,-1.716705859E-1
7.015923437E0,-5.541943908E-1,2.301042080E-1,-1.338492930E-1
7.019893750E0,-5.362873077E-1,2.333505154E-1,-9.117600322E-2
7.023864062E0,-5.135456920E-1,2.405412793E-1,-5.414011329E-2
7.027834375E0,-4.880464077E-1,2.452711165E-1,-1.994911395E-2
7.031806250E0,-4.624249935E-1,2.412568629E-1,1.151917316E-2
7.035776562E0,-4.406956434E-1,2.260375917E-1,3.780383244E-2
7.039745312E0,-4.268900752E-1,1.892809570E-1,5.550146848E-2
7.043717187E0,-4.247956872E-1,1.298699528E-1,6.147049740E-2
7.047687500E0,-4.328241944E-1,5.401793867E-2,5.806710571E-2
7.051657812E0,-4.514817595E-1,-3.530801088E-2,4.693190381E-2
7.055628125E0,-4.825311899E-1,-1.343205422E-1,2.822197415E-2
7.059598437E0,-5.178915262E-1,-2.344849855E-1,-4.764748737E-3
7.063570312E0,-5.564633012E-1,-3.353126645E-1,-5.387831479E-2
7.067540625E0,-5.960299373E-1,-4.228583574E-1,-1.145459563E-1
7.071510937E0,-6.344969869E-1,-4.863185287E-1,-1.704314053E-1
7.075482812E0,-6.746221185E-1,-5.320810676E-1,-2.215870023E-1
7.079451562E0,-7.163878679E-1,-5.575628877E-1,-2.620262802E-1
7.083421875E0,-7.575427294E-1,-5.733755827E-1,-2.918365002E-1
7.087393750E0,-7.967427969E-1,-5.818578601E-1,-3.086265624E-1
7.091364062E0,-8.319460750E-1,-5.851216316E-1,-3.161838353E-1
7.095334375E0,-8.646011949E-1,-5.834286809E-1,-3.134785891E-1
7.099304687E0,-8.947779536E-1,-5.730439425E-1,-3.025353849E-1
7.103275000E0,-9.235933423E-1,-5.585926175E-1,-2.862863541E-1
7.107245312E0,-9.503666759E-1,-5.409647822E-1,-2.675938904E-1
7.111225000E0,-9.728465080E-1,-5.219232440E-1,-2.484127134E-1
7.115187500E0,-9.882054329E-1,-5.016075969E-1,-2.309245169E-1
7.119156250E0,-9.994279146E-1,-4.741885066E-1,-2.114640921E-1
7.123128125E0,-1.004768610E0,-4.414461255E-1,-1.896823794E-1
7.127098437E0,-1.000893950E0,-4.094193280E-1,-1.719498336E-1
7.131068750E0,-9.872280359E-1,-3.778812289E-1,-1.591914743E-1
7.135040625E0,-9.645562172E-1,-3.458893597E-1,-1.462411433E-1
7.139009375E0,-9.404183030E-1,-3.115063608E-1,-1.306902468E-1
7.142979687E0,-9.144129157E-1,-2.739294171E-1,-1.073551998E-1
7.146951562E0,-8.856498599E-1,-2.337344885E-1,-7.688175142E-2
7.150921875E0,-8.566250205E-1,-1.899790913E-1,-4.155628756E-2
7.154892187E0,-8.251218796E-1,-1.418429017E-1,3.141592606E-4
7.158862500E0,-7.914718986E-1,-9.646435082E-2,4.166100919E-2
7.162832812E0,-7.563558817E-1,-5.890486389E-2,7.997098565E-2
7.166803125E0,-7.182902694E-1,-2.893755957E-2,1.100081056E-1
7.170775000E0,-6.799104810E-1,-7.400196046E-3,1.315280050E-1
7.174745312E0,-6.399598718E-1,4.206243437E-3,1.452637464E-1
7.178715625E0,-5.994507670E-1,4.223696887E-3,1.539554894E-1
7.182685937E0,-5.537929535E-1,-4.188789986E-3,1.613382399E-1
7.186656250E0,-5.024628639E-1,-2.534218132E-2,1.710946262E-1
7.190626562E0,-4.469439089E-1,-5.675810575E-2,1.841671467E-1
7.194596875E0,-3.874281943E-1,-9.611528367E-2,2.024756521E-1
7.198567187E0,-3.222575784E-1,-1.385791451E-1,2.224596590E-1
7.202537500E0,-2.604031265E-1,-1.758593768E-1,2.419724464E-1
7.206509375E0,-1.984962970E-1,-2.005034238E-1,2.565459311E-1
7.210479687E0,-1.472708881E-1,-2.078338116E-1,2.686236203E-1
7.214450000E0,-1.110378429E-1,-1.904677749E-1,2.805093229E-1
7.218420312E0,-8.684758097E-2,-1.654572189E-1,2.951875329E-1
7.222390625E0,-7.316420227E-2,-1.506219208E-1,3.136182129E-1
7.226362500E0,-6.764896214E-2,-1.742536724E-1,3.503050208E-1
7.230339062E0,-5.644394830E-2,-2.710147202E-1,3.949854672E-1
7.234303125E0,-3.349286690E-2,-4.270995259E-1,4.428947568E-1
7.238273437E0,-6.579891313E-3,-6.178989410E-1,4.972442985E-1
7.242243750E0,1.909390278E-2,-8.079652786E-1,5.604775548E-1
7.246214062E0,4.265584797E-2,-9.811019301E-1,6.252816319E-1
7.250184375E0,6.986553222E-2,-1.151812553E0,6.881135106E-1
7.254154687E0,1.049466506E-1,-1.341529846E0,7.437720299E-1
7.258125000E0,1.502030343E-1,-1.539118648E0,7.905119658E-1
7.262096875E0,2.073451132E-1,-1.744980216E0,8.296422362E-1
7.266067187E0,2.738421559E-1,-1.971680999E0,8.636063933E-1
7.270037500E0,3.593632877E-1,-2.197474241E0,9.086009264E-1
7.274007812E0,4.632976353E-1,-2.460600138E0,9.342049360E-1
7.277978125E0,5.682094097E-1,-2.716273308E0,9.528974295E-1
7.281948437E0,6.697701216E-1,-2.930739403E0,9.645736814E-1
7.285920312E0,7.674736381E-1,-3.061674118E0,9.590409398E-1
7.289890625E0,8.486489058E-1,-3.111154079E0,9.369625449E-1
7.293860937E0,9.091070890E-1,-3.067782640E0,9.030682445E-1
7.297831250E0,9.429490566E-1,-2.940722704E0,8.537452817E-1
7.301801562E0,9.489180446E-1,-2.742086887E0,7.892204523E-1
7.305771875E0,9.226159453E-1,-2.482137442E0,7.072423100E-1
7.309743750E0,8.716523051E-1,-2.192500114E0,6.116506457E-1
7.313714062E0,7.939327955E-1,-1.847518325E0,5.120621324E-1
7.317682812E0,6.820223331E-1,-1.466670036E0,4.090004563E-1
7.321654687E0,5.468640327E-1,-1.058193088E0,2.929011583E-1
7.325625000E0,4.150393009E-1,-7.349581718E-1,1.610240787E-1
7.329595312E0,3.190985322E-1,-5.181882381E-1,2.722713538E-2
7.333565625E0,2.566157579E-1,-3.885451853E-1,-8.967501670E-2
7.337535937E0,2.209237814E-1,-3.189589083E-1,-1.818633080E-1
7.341506250E0,2.040813416E-1,-2.889218032E-1,-2.606998384E-1
7.345478125E0,2.082701325E-1,-2.976484597E-1,-3.271445036E-1
7.349446875E0,2.286381274E-1,-3.444930911E-1,-3.855955899E-1
7.353418750E0,2.619390190E-1,-4.326845706E-1,-4.342204630E-1
7.357389062E0,3.139847219E-1,-5.699721575E-1,-4.747819006E-1
7.361359375E0,3.688229620E-1,-7.229153514E-1,-4.936314821E-1
7.365329687E0,4.136779308E-1,-8.352447748E-1,-4.950800836E-1
7.369300000E0,4.524766207E-1,-8.909032941E-1,-4.873133898E-1
7.373271875E0,4.835085571E-1,-8.778831363E-1,-4.755149484E-1
7.377240625E0,5.070879459E-1,-8.050854802E-1,-4.652000666E-1
7.381212500E0,5.338613391E-1,-6.824935675E-1,-4.604004025E-1
7.385182812E0,5.658357143E-1,-5.086238384E-1,-4.553913176E-1
7.389153125E0,5.991540551E-1,-2.979975045E-1,-4.590390325E-1
7.393123437E0,6.311983466E-1,-6.014404446E-2,-4.741361439E-1
7.397093750E0,6.395758986E-1,1.562418789E-1,-4.949404597E-1
7.401065625E0,5.960299373E-1,3.225542903E-1,-5.227959156E-1
7.405035937E0,4.991816282E-1,4.097509384E-1,-5.502324700E-1
7.409006250E0,3.491182029E-1,4.096113145E-1,-5.804092288E-1
7.412976562E0,1.462236792E-1,3.244916201E-1,-6.107255816E-1
7.416946875E0,-7.606144994E-2,2.117782533E-1,-6.257005334E-1
7.420917187E0,-2.668433785E-1,1.033409461E-1,-6.459987164E-1
7.424889062E0,-4.285830557E-1,-1.401499379E-2,-6.782349348E-1
7.428859375E0,-5.360953212E-1,-1.236565784E-1,-7.217110991E-1
7.432828125E0,-5.921378732E-1,-2.255663574E-1,-7.651174068E-1
7.436800000E0,-6.061179638E-1,-3.086091280E-1,-8.020486236E-1
7.440770312E0,-5.898863673E-1,-3.731339276E-1,-8.261341453E-1
7.444740625E0,-5.622926950E-1,-4.067140818E-1,-8.372169733E-1
7.448710937E0,-5.374741554E-1,-3.947062194E-1,-8.380023837E-1
7.452681250E0,-5.267753005E-1,-3.290992677E-1,-8.275129795E-1
7.456651562E0,-5.315225720E-1,-2.294933498E-1,-8.097280264E-1
7.460621875E0,-5.499183536E-1,-1.132893190E-1,-7.873180509E-1
7.464593750E0,-5.801474452E-1,-8.203047328E-4,-7.617663741E-1
7.468567187E0,-6.137973666E-1,8.602727950E-2,-7.380822897E-1
7.472534375E0,-6.448467970E-1,1.374272257E-1,-7.132462263E-1
7.476504687E0,-6.740286946E-1,1.541474760E-1,-6.873455644E-1
7.480475000E0,-6.984807849E-1,1.398357749E-1,-6.626840830E-1
7.484446875E0,-7.176619172E-1,1.040390730E-1,-6.422462463E-1
7.488417187E0,-7.353072166E-1,5.522221699E-2,-6.278821826E-1
7.492385937E0,-7.475768924E-1,3.525565146E-3,-6.178290844E-1
7.496357812E0,-7.574030757E-1,-4.351105914E-2,-6.139893532E-1
7.500328125E0,-7.592182159E-1,-8.784241974E-2,-6.132912636E-1
7.504298437E0,-7.559369802E-1,-1.365720183E-1,-6.165724397E-1
7.508270312E0,-7.479957342E-1,-1.881290376E-1,-6.233094335E-1
7.512240625E0,-7.394436598E-1,-2.391973734E-1,-6.301860213E-1
7.516209375E0,-7.341902256E-1,-2.838428915E-1,-6.348286271E-1
7.520181250E0,-7.376459241E-1,-3.233222365E-1,-6.369578838E-1
7.524151562E0,-7.478736043E-1,-3.506366313E-1,-6.366088390E-1
7.528121875E0,-7.644018531E-1,-3.720343709E-1,-6.333450675E-1
7.532092187E0,-7.816631794E-1,-4.028918147E-1,-6.314426661E-1
7.536093750E0,-7.953465581E-1,-4.491604865E-1,-6.363470554E-1
7.540032812E0,-8.040208220E-1,-5.098804832E-1,-6.481803656E-1
7.544004687E0,-8.093091846E-1,-5.812295675E-1,-6.636090875E-1
7.547975000E0,-8.100771308E-1,-6.692290306E-1,-6.831393242E-1
7.551945312E0,-8.065166473E-1,-7.644193172E-1,-7.071899772E-1
7.555915625E0,-8.007745147E-1,-8.710065484E-1,-7.372445464E-1
7.559885937E0,-7.899360061E-1,-9.836850166E-1,-7.702312469E-1
7.563856250E0,-7.738789916E-1,-1.086991072E0,-8.029038310E-1
7.567832812E0,-7.525161505E-1,-1.171918750E0,-8.347735405E-1
7.571796875E0,-7.353595495E-1,-1.227926373E0,-8.673064709E-1
7.575768750E0,-7.233517170E-1,-1.248713255E0,-8.955109715E-1
7.579739062E0,-7.146425247E-1,-1.235012412E0,-9.207833409E-1
7.583709375E0,-7.123736143E-1,-1.175618887E0,-9.397201538E-1
7.587679687E0,-7.145028710E-1,-1.074302554E0,-9.433155656E-1
7.591650000E0,-7.176095843E-1,-9.416225553E-1,-9.236456752E-1
7.595620312E0,-7.164751291E-1,-7.764795423E-1,-8.753000498E-1
7.599592187E0,-7.032455206E-1,-5.842664242E-1,-7.945262194E-1
7.603562500E0,-6.782698631E-1,-3.928037882E-1,-6.963863969E-1
7.607532812E0,-6.407452822E-1,-2.038719058E-1,-5.821022391E-1
7.611503125E0,-5.960299373E-1,-2.789036185E-2,-4.568748474E-1
7.615473437E0,-5.565156937E-1,1.256113499E-1,-3.283313513E-1
7.619443750E0,-5.297946930E-1,2.434908897E-1,-2.085668445E-1
7.623414062E0,-5.160415173E-1,3.275110424E-1,-9.271188825E-2
7.627385937E0,-5.139819980E-1,3.662922382E-1,1.619665511E-2
7.631356250E0,-5.178042650E-1,3.664493263E-1,1.111076623E-1
7.635326562E0,-5.171759725E-1,3.402868509E-1,2.040813416E-1
7.639296875E0,-5.020962954E-1,3.027448058E-1,2.981371284E-1
7.643267187E0,-4.751484394E-1,2.667561173E-1,3.878470659E-1
7.647237500E0,-4.354421794E-1,2.453060299E-1,4.773300886E-1
7.651207812E0,-3.853512406E-1,2.430196404E-1,5.628337860E-1
7.655178125E0,-3.315078318E-1,2.628989518E-1,6.388603449E-1
7.659150000E0,-2.774026394E-1,3.021164834E-1,7.124259472E-1
7.663120312E0,-2.231228948E-1,3.628888428E-1,7.826231122E-1
7.667089062E0,-1.711644381E-1,4.418300986E-1,8.500102758E-1
7.671060937E0,-1.279675364E-1,5.349608660E-1,9.137845635E-1
7.675031250E0,-8.478809148E-2,6.410070658E-1,9.804037809E-1
7.679001562E0,-4.223696887E-2,7.488858700E-1,1.048785806E0
7.682973437E0,-2.234021435E-3,8.489804864E-1,1.115684271E0
7.686943750E0,3.647737950E-2,9.324421287E-1,1.182827115E0
7.690914062E0,7.246606797E-2,9.959022999E-1,1.253600240E0
7.694884375E0,1.044405028E-1,1.043898821E0,1.327148318E0
7.698854687E0,1.321912408E-1,1.080952168E0,1.393296361E0
7.702823437E0,1.471138000E-1,1.109418511E0,1.457664132E0
7.706795312E0,1.492082030E-1,1.119576335E0,1.513601899E0
7.710765625E0,1.405688226E-1,1.099662185E0,1.559783340E0
7.714735937E0,1.214400083E-1,1.052590609E0,1.597272992E0
7.718707812E0,9.615018964E-2,9.768258929E-1,1.620590568E0
7.722678125E0,6.515314430E-2,8.843408823E-1,1.627746463E0
7.726648437E0,3.433062509E-2,7.816282511E-1,1.615441799E0
7.730618750E0,2.059488557E-3,6.800326109E-1,1.583502293E0
7.734589062E0,-2.499311417E-2,5.826607347E-1,1.529711246E0
7.738559375E0,-4.757767543E-2,4.822868407E-1,1.461050034E0
7.742529687E0,-6.202900037E-2,3.876027167E-1,1.378827572E0
7.746500000E0,-6.927211583E-2,2.992716134E-1,1.290880442E0
7.750471875E0,-6.890559942E-2,2.160368562E-1,1.199913859E0
7.754442187E0,-5.586798862E-2,1.378460974E-1,1.093536019E0
7.758412500E0,-2.131047100E-2,7.847000659E-2,9.658826590E-1
7.762382812E0,2.982767671E-2,5.695009232E-2,8.339881301E-1
7.766353125E0,9.571385384E-2,8.007570356E-2,7.053049803E-1
7.770323437E0,1.712866127E-1,1.585108042E-1,5.932025313E-1
7.774293750E0,2.462484986E-1,2.754478753E-1,5.014854670E-1
7.778265625E0,3.242123723E-1,4.206767082E-1,4.319864511E-1
7.782235937E0,4.086513817E-1,5.708797574E-1,3.802548945E-1
7.786206250E0,4.869817793E-1,7.344868779E-1,3.591015041E-1
7.790176562E0,5.605474114E-1,8.963836432E-1,3.585779071E-1
7.794146875E0,6.274458766E-1,1.039378524E0,3.641629517E-1
7.798118750E0,7.049210072E-1,1.122421265E0,3.787015378E-1
7.802089062E0,7.895520329E-1,1.154151320E0,4.098905623E-1
7.806059375E0,8.819323182E-1,1.141934037E0,4.621282816E-1
7.810029687E0,9.715026021E-1,1.109680295E0,5.407553315E-1
7.814000000E0,1.054161429E0,1.048611283E0,6.311459541E-1
7.817970312E0,1.121792912E0,9.512568116E-1,7.090574503E-1
7.821940625E0,1.178865194E0,8.149291277E-1,7.686778903E-1
7.825912500E0,1.214679360E0,6.512346864E-1,7.979470491E-1
7.829881250E0,1.224488139E0,4.819901288E-1,7.971442342E-1
7.833853125E0,1.210316062E0,3.077364564E-1,7.722209096E-1
7.837823437E0,1.178463817E0,1.382998824E-1,7.249399424E-1
7.841793750E0,1.139455676E0,-1.499237865E-2,6.641501188E-1
7.845764062E0,1.101547122E0,-1.476024985E-1,5.880537629E-1
7.849734375E0,1.071352959E0,-2.432814389E-1,4.944692254E-1
7.853704687E0,1.052189231E0,-3.001268208E-1,3.865206242E-1
7.857676562E0,1.046883345E0,-3.244392574E-1,2.804045975E-1
7.861646875E0,1.058140755E0,-3.190287352E-1,1.745852828E-1
7.865615625E0,1.089382172E0,-2.995159626E-1,8.121016622E-2
7.869587500E0,1.141166091E0,-2.789559662E-1,-3.455751808E-3
7.873557812E0,1.198360562E0,-2.323731333E-1,-9.435249865E-2
7.877528125E0,1.245344758E0,-1.315803677E-1,-1.905899495E-1
7.881500000E0,1.275661111E0,1.148426626E-2,-2.701944113E-1
7.885470312E0,1.286429882E0,1.950056404E-1,-3.329564631E-1
7.889440625E0,1.270582199E0,4.198389649E-1,-3.875503540E-1
7.893410937E0,1.233930349E0,6.637661457E-1,-4.383394420E-1
7.897381250E0,1.182355881E0,9.267174602E-1,-4.917639792E-1
