"Time (s)","Gyroscope x (rad/s)","Gyroscope y (rad/s)","Gyroscope z (rad/s)"
9.194218700E-2,-9.232492447E-1,-3.571688890E0,1.109630913E-1
9.435510400E-2,-9.128645658E-1,-3.633997202E0,1.738821566E-1
9.676723900E-2,-8.994255662E-1,-3.682255507E0,2.398555428E-1
9.917859300E-2,-8.927060366E-1,-3.712187767E0,3.070506752E-1
1.015907290E-1,-8.865973949E-1,-3.741509438E0,3.846304715E-1
1.040036460E-1,-8.756018281E-1,-3.777550459E0,4.628211558E-1
1.064157810E-1,-8.523889780E-1,-3.825197935E0,5.397900939E-1
1.088271350E-1,-8.242892027E-1,-3.875899553E0,6.106504202E-1
1.112392710E-1,-7.906916142E-1,-3.917438507E0,6.747912169E-1
1.136521870E-1,-7.522071600E-1,-3.946149111E0,7.303799391E-1
1.160643230E-1,-7.149444222E-1,-3.960198879E0,7.755839229E-1
1.184756770E-1,-6.709621549E-1,-3.969972849E0,8.140683770E-1
1.208878120E-1,-6.172060370E-1,-3.988909483E0,8.501093984E-1
1.233007290E-1,-5.555087328E-1,-4.008456707E0,8.830960989E-1
1.257128640E-1,-4.889244735E-1,-4.020674229E0,9.166936278E-1
1.281242180E-1,-4.284488857E-1,-4.012122154E0,9.484586120E-1
1.305363540E-1,-3.783579767E-1,-3.982190132E0,9.710606337E-1
1.329492710E-1,-3.337648511E-1,-3.938818693E0,9.899974465E-1
1.353614060E-1,-2.989455462E-1,-3.889338732E0,1.003436446E0
1.377727600E-1,-2.769544125E-1,-3.835582495E0,1.015042901E0
1.401848960E-1,-2.708457708E-1,-3.784269810E0,1.024205804E0
1.425978120E-1,-2.836739421E-1,-3.747617960E0,1.032147050E0
1.450099480E-1,-3.087193966E-1,-3.741509438E0,1.037644863E0
1.474213020E-1,-3.294887841E-1,-3.765944004E0,1.039477348E0
1.498334370E-1,-3.496473134E-1,-3.784269810E0,1.040088296E0
1.522463540E-1,-3.887426555E-1,-3.773274422E0,1.031536222E0
1.546584890E-1,-4.473856688E-1,-3.753726721E0,1.010155916E0
1.570698430E-1,-5.072503686E-1,-3.751283169E0,9.869431257E-1
1.594819790E-1,-5.610064864E-1,-3.769609213E0,9.680063128E-1
1.618948960E-1,-6.141517162E-1,-3.798930645E0,9.545672536E-1
1.643070310E-1,-6.691295505E-1,-3.827030420E0,9.435716867E-1
1.667183850E-1,-7.228856683E-1,-3.855130196E0,9.319652915E-1
1.691305730E-1,-7.723656893E-1,-3.878343105E0,9.221914411E-1
1.715434890E-1,-8.206239939E-1,-3.880175591E0,9.148610830E-1
1.739556250E-1,-8.591084480E-1,-3.868569136E0,9.154719114E-1
1.763669790E-1,-8.920951486E-1,-3.855741024E0,9.240240455E-1
1.787790620E-1,-9.183623195E-1,-3.842302084E0,9.368522167E-1
1.811920310E-1,-9.379100204E-1,-3.820310831E0,9.521238208E-1
1.836041660E-1,-9.489055872E-1,-3.788545847E0,9.722823501E-1
1.860155210E-1,-9.507381916E-1,-3.759835243E0,9.991604090E-1
1.884276560E-1,-9.446295500E-1,-3.737844229E0,1.027260065E0
1.908405730E-1,-9.354665875E-1,-3.716463804E0,1.052916408E0
1.932527080E-1,-9.214166999E-1,-3.696305275E0,1.077350974E0
1.956640620E-1,-8.963712454E-1,-3.674925089E0,1.098120451E0
1.980761980E-1,-8.719366193E-1,-3.638273239E0,1.108505130E0
2.004891140E-1,-8.444477320E-1,-3.585128069E0,1.112781167E0
2.029012500E-1,-8.145153522E-1,-3.529539347E0,1.109115958E0
2.053126040E-1,-7.851938605E-1,-3.466620207E0,1.103618145E0
2.077247390E-1,-7.522071600E-1,-3.397592545E0,1.099342108E0
2.101377080E-1,-7.192204595E-1,-3.318180084E0,1.089568257E0
2.125497910E-1,-6.844011545E-1,-3.219219923E0,1.080405354E0
2.149611460E-1,-6.446949840E-1,-3.093992710E0,1.069409728E0
2.173732810E-1,-5.994909406E-1,-2.972430706E0,1.058414221E0
2.197862500E-1,-5.445131660E-1,-2.847203493E0,1.048640370E0
2.221983330E-1,-4.651007652E-1,-2.670663595E0,1.036423087E0
2.246096870E-1,-3.502582014E-1,-2.389054775E0,1.018707991E0
2.270218230E-1,-2.115918845E-1,-2.035364151E0,9.918299913E-1
2.294347910E-1,-8.025597036E-2,-1.704886317E0,9.570107460E-1
2.318468750E-1,2.725622617E-2,-1.467870712E0,9.234131575E-1
2.342582290E-1,1.127772853E-1,-1.311489344E0,8.940916657E-1
2.366703640E-1,1.842484623E-1,-1.183818698E0,8.708788157E-1
2.390833850E-1,2.520544231E-1,-1.064700007E0,8.537746072E-1
2.414954680E-1,3.216930032E-1,-9.266446233E-1,8.366703987E-1
2.439068230E-1,3.968293667E-1,-7.629328966E-1,8.134574890E-1
2.463189580E-1,4.768526554E-1,-5.839495063E-1,7.932989597E-1
2.487319270E-1,5.593194366E-1,-4.080204964E-1,7.792490721E-1
2.511440100E-1,6.356775165E-1,-2.687433362E-1,7.706969976E-1
2.535553640E-1,7.047052383E-1,-1.575659364E-1,7.651991844E-1
2.559675000E-1,7.688460350E-1,-5.310807750E-2,7.651991844E-1
2.583804680E-1,8.274890184E-1,5.440411717E-2,7.706969976E-1
2.607925520E-1,8.842994571E-1,1.698575467E-1,7.792490721E-1
2.632039060E-1,9.466076493E-1,2.669850290E-1,7.865794897E-1
2.656160410E-1,1.010137558E0,3.317366838E-1,7.926881313E-1
2.680290100E-1,1.068780541E0,4.062621891E-1,7.963532805E-1
2.704410930E-1,1.122536659E0,5.082766414E-1,7.951315641E-1
2.728524480E-1,1.168962359E0,6.322821379E-1,7.835251689E-1
2.752645830E-1,1.207446814E0,7.678941488E-1,7.658100724E-1
2.776775520E-1,1.237990022E0,8.955648541E-1,7.425972223E-1
2.800896350E-1,1.257537723E0,1.061109185E0,7.199952006E-1
2.825009890E-1,1.275863647E0,1.234594822E0,6.949497461E-1
2.849131250E-1,1.281972289E0,1.351880789E0,6.582978964E-1
2.873260930E-1,1.266700745E0,1.414799809E0,6.094287038E-1
2.897381770E-1,1.231270552E0,1.481994987E0,5.587269068E-1
2.921495310E-1,1.182401419E0,1.560796499E0,5.141338110E-1
2.945617180E-1,1.128034353E0,1.610887408E0,4.768710434E-1
2.969746870E-1,1.067558765E0,1.638987184E0,4.457169473E-1
2.993867710E-1,9.973093867E-1,1.693354130E0,4.212823808E-1
3.017981250E-1,9.209513068E-1,1.744055986E0,3.962369263E-1
3.042102600E-1,8.494801521E-1,1.766047120E0,3.699697256E-1
3.066232290E-1,7.749546766E-1,1.818581462E0,3.430916965E-1
3.090353120E-1,7.047052383E-1,1.899826407E0,3.186571002E-1
3.114466660E-1,6.381209493E-1,1.987790942E0,2.917790413E-1
3.138588020E-1,5.776453614E-1,2.088583469E0,2.679553330E-1
3.162717710E-1,5.306087732E-1,2.166163445E0,2.526836991E-1
3.186838540E-1,5.012872815E-1,2.102022648E0,2.465750426E-1
3.210952080E-1,4.737983346E-1,1.873559237E0,2.404664159E-1
3.235073430E-1,4.334812462E-1,1.539416313E0,2.264165282E-1
3.259203120E-1,3.730056286E-1,1.138689041E0,1.995384693E-1
3.283323960E-1,2.942040861E-1,7.434595227E-1,1.610540003E-1
3.307437500E-1,1.989092082E-1,3.946557343E-1,1.085196286E-1
3.331558850E-1,9.078615904E-2,1.038841605E-1,3.949191794E-2
3.355688540E-1,-2.649986930E-2,-1.111402214E-1,-4.419655353E-2
3.379809370E-1,-1.401207149E-1,-2.522499859E-1,-1.333827972E-1
3.403922910E-1,-2.464111745E-1,-3.487666249E-1,-2.317320108E-1
3.428044790E-1,-3.392626345E-1,-4.251247048E-1,-3.294703662E-1
3.452174480E-1,-4.143989980E-1,-4.959850013E-1,-4.241544008E-1
3.476295310E-1,-4.663224816E-1,-5.692887306E-1,-5.151732564E-1
3.500408850E-1,-4.950331151E-1,-6.609184742E-1,-6.049703360E-1
3.524530210E-1,-4.974765778E-1,-7.849239707E-1,-6.984326839E-1
3.548659890E-1,-4.748745859E-1,-9.229794145E-1,-7.949492931E-1
3.572780730E-1,-4.357792437E-1,-1.055537105E0,-8.914659023E-1
3.596894270E-1,-3.826340139E-1,-1.173434019E0,-9.898151755E-1
3.621015620E-1,-3.166606426E-1,-1.260787606E0,-1.089997053E0
3.645145310E-1,-2.439677119E-1,-1.314543724E0,-1.181015849E0
3.669266140E-1,-1.663878858E-1,-1.326150179E0,-1.251876116E0
3.693379680E-1,-8.392115682E-2,-1.299272060E0,-1.287306309E0
3.717501040E-1,6.486826111E-3,-1.272394061E0,-1.285473704E0
3.741630730E-1,1.085012332E-1,-1.274226665E0,-1.250043511E0
3.765751560E-1,2.245655358E-1,-1.300493836E0,-1.192622304E0
3.789865100E-1,3.497927785E-1,-1.331037045E0,-1.113820791E0
3.813986460E-1,4.792961180E-1,-1.355471611E0,-1.009973764E0
3.838116660E-1,6.094103456E-1,-1.387236595E0,-8.945202231E-1
3.862237500E-1,7.413570881E-1,-1.443436146E0,-8.163295388E-1
3.886351040E-1,8.665843606E-1,-1.502079129E0,-8.138861060E-1
3.910472390E-1,9.734857082E-1,-1.546672344E0,-8.633661270E-1
3.934602080E-1,1.063893557E0,-1.593098044E0,-9.250634909E-1
3.958722910E-1,1.156134129E0,-1.657238841E0,-9.757652879E-1
3.982836460E-1,1.257537723E0,-1.738483787E0,-9.934803843E-1
4.006957810E-1,1.364439011E0,-1.835611343E0,-9.812629819E-1
4.031087500E-1,1.475616455E0,-1.933960557E0,-9.556066990E-1
4.055208330E-1,1.581906915E0,-2.015205622E0,-9.391133785E-1
4.079321870E-1,1.676590919E0,-2.078735590E0,-9.385024905E-1
4.103443230E-1,1.759668589E0,-2.122107029E0,-9.446111321E-1
4.127572910E-1,1.823809266E0,-2.141043901E0,-9.543849826E-1
4.151693750E-1,1.867180705E0,-2.148374081E0,-9.580501914E-1
4.175807290E-1,1.887339234E0,-2.144098043E0,-9.641588330E-1
4.199928640E-1,1.886728406E0,-2.136156797E0,-9.702674747E-1
4.224058850E-1,1.860461235E0,-2.128826618E0,-9.745435119E-1
4.248179680E-1,1.808537722E0,-2.123939514E0,-9.855391383E-1
4.272293230E-1,1.732179642E0,-2.133713484E0,-9.965346456E-1
4.296414580E-1,1.627721786E0,-2.156315327E0,-1.006919384E0
4.320544270E-1,1.498829246E0,-2.195410728E0,-1.019136667E0
4.344665100E-1,1.351610899E0,-2.260773182E0,-1.035019159E0
4.368778640E-1,1.186066508E0,-2.324913979E0,-1.053345084E0
4.392900000E-1,1.007083178E0,-2.384778738E0,-1.065562367E0
4.417029680E-1,8.244346976E-1,-2.448308706E0,-1.080834031E0
4.441150520E-1,6.430078745E-1,-2.505119085E0,-1.099770904E0
4.465264060E-1,4.579158425E-1,-2.527110338E0,-1.105879545E0
4.489385410E-1,2.630499899E-1,-2.494734526E0,-1.075947165E0
4.513515100E-1,6.879502535E-2,-2.444032669E0,-1.025856256E0
4.537635930E-1,-1.132426634E-1,-2.404326439E0,-9.721000791E-1
4.561749480E-1,-2.830630839E-1,-2.359122515E0,-9.165113568E-1
4.585870830E-1,-4.467748106E-1,-2.290094852E0,-8.627552986E-1
4.610001040E-1,-5.994909406E-1,-2.195410728E0,-8.114426136E-1
4.634121870E-1,-7.338811755E-1,-2.083622456E0,-7.576865554E-1
4.658235410E-1,-8.475020528E-1,-1.965725541E0,-6.959891915E-1
4.682356770E-1,-9.372991323E-1,-1.844163418E0,-6.239071488E-1
4.706486460E-1,-1.003883481E0,-1.732375145E0,-5.499925613E-1
4.730607290E-1,-1.046033144E0,-1.643799782E0,-4.785213470E-1
4.754720830E-1,-1.073522091E0,-1.562554836E0,-4.131588340E-1
4.778842180E-1,-1.085739374E0,-1.494137883E0,-3.600136042E-1
4.802971870E-1,-1.082684994E0,-1.445879579E0,-3.135879040E-1
4.827092710E-1,-1.060693860E0,-1.423888445E0,-2.708273530E-1
4.851206250E-1,-1.025263786E0,-1.422666788E0,-2.305102944E-1
4.875327600E-1,-9.806705713E-1,-1.426331997E0,-1.895823479E-1
4.899457290E-1,-9.238601327E-1,-1.434273243E0,-1.486544162E-1
4.923578120E-1,-8.548324108E-1,-1.448323131E0,-1.113916636E-1
4.947691660E-1,-7.796960473E-1,-1.467870712E0,-8.084843308E-2
4.971813540E-1,-7.021162510E-1,-1.489251018E0,-6.007903069E-2
4.995943230E-1,-6.196495295E-1,-1.509409547E0,-4.236395657E-2
5.020064060E-1,-5.384044647E-1,-1.518572569E0,-2.037282661E-2
5.044177600E-1,-4.644898772E-1,-1.486196756E0,1.627905667E-2
5.068298960E-1,-4.015708268E-1,-1.386014938E0,7.980898768E-2
5.092428640E-1,-3.520907760E-1,-1.274837494E0,1.702169627E-1
5.116549480E-1,-3.099411130E-1,-1.291941762E0,2.789508998E-1
5.140663020E-1,-2.690131664E-1,-1.486196756E0,3.895173967E-1
5.164784370E-1,-2.274743617E-1,-1.752533674E0,5.129120350E-1
5.188914060E-1,-1.920442134E-1,-2.010318756E0,6.570761204E-1
5.213034890E-1,-1.621118337E-1,-2.246723413E0,8.128466606E-1
5.237148430E-1,-1.340120584E-1,-2.452584743E0,9.618976712E-1
5.261269790E-1,-1.016362309E-1,-2.645007133E0,1.104229093E0
5.285399480E-1,-7.048213482E-2,-2.812384129E0,1.236175895E0
5.309520830E-1,-3.688456863E-2,-2.940665722E0,1.355905294E0
5.333634370E-1,-2.326860704E-4,-3.021299839E0,1.448756814E0
5.357755730E-1,4.069525376E-2,-3.056730032E0,1.512286663E0
5.381885410E-1,8.406664431E-2,-3.044512749E0,1.547716856E0
5.406006250E-1,1.298815012E-1,-2.999919653E0,1.559934139E0
5.430119790E-1,1.738637537E-1,-2.930280924E0,1.550771117E0
5.454241140E-1,2.166242898E-1,-2.836207867E0,1.525114894E0
5.478370830E-1,2.551087439E-1,-2.729917288E0,1.486630440E0
5.502491660E-1,2.911497653E-1,-2.619961739E0,1.434095979E0
5.526605210E-1,3.192495406E-1,-2.508173466E0,1.367511749E0
5.550726560E-1,3.412406743E-1,-2.403104782E0,1.296651483E0
5.574856250E-1,3.522362411E-1,-2.313307762E0,1.225180268E0
5.598977600E-1,3.552905619E-1,-2.241836548E0,1.161039472E0
5.623091140E-1,3.497927785E-1,-2.185026169E0,1.110948563E0
5.647212500E-1,3.332994282E-1,-2.133102655E0,1.074907541E0
5.671342180E-1,3.125300407E-1,-2.083011627E0,1.056581616E0
5.695463020E-1,2.929823697E-1,-2.040862083E0,1.054138184E0
5.719576560E-1,2.734346986E-1,-2.002377510E0,1.060246825E0
5.743697910E-1,2.599956691E-1,-1.972445011E0,1.075518370E0
5.767827600E-1,2.502218485E-1,-1.949843049E0,1.096898675E0
5.791948430E-1,2.459457964E-1,-1.930295348E0,1.128663659E0
5.816061980E-1,2.520544231E-1,-1.929684520E0,1.172645926E0
5.840183330E-1,2.661043108E-1,-1.940069199E0,1.236786723E0
5.864313020E-1,2.905389071E-1,-1.965114594E0,1.350407600E0
5.888433850E-1,3.113082945E-1,-2.041472912E0,1.489684701E0
5.912547910E-1,3.278016448E-1,-2.134324312E0,1.639957428E0
5.936669270E-1,3.455167413E-1,-2.180139065E0,1.789008379E0
5.960798960E-1,3.675078452E-1,-2.188080311E0,1.926452994E0
5.984919790E-1,3.980510831E-1,-2.195410728E0,2.056567192E0
6.009033330E-1,4.359247088E-1,-2.221678019E0,2.187903166E0
6.033154680E-1,4.762417674E-1,-2.238171339E0,2.310076237E0
6.057284370E-1,5.147262812E-1,-2.238171339E0,2.410258055E0
6.081405210E-1,5.513781905E-1,-2.227175713E0,2.488448620E0
6.105518750E-1,5.855866075E-1,-2.213125944E0,2.540372133E0
6.129640100E-1,6.161298156E-1,-2.200908422E0,2.580078363E0
6.153769790E-1,6.430078745E-1,-2.198465109E0,2.607567310E0
6.177890620E-1,6.680533290E-1,-2.196632385E0,2.628947496E0
6.202004680E-1,6.912661791E-1,-2.188080311E0,2.646051645E0
6.226126040E-1,7.126464844E-1,-2.166089296E0,2.667432070E0
6.250255730E-1,7.358593345E-1,-2.152039289E0,2.699807882E0
6.274376560E-1,7.615156174E-1,-2.158148050E0,2.741346598E0
6.298490100E-1,7.847284675E-1,-2.183193445E0,2.795713663E0
6.322611460E-1,8.067196012E-1,-2.219234467E0,2.859854460E0
6.346741140E-1,8.305433393E-1,-2.268103600E0,2.928882122E0
6.370861980E-1,8.537561893E-1,-2.336520433E0,3.004018545E0
6.394975520E-1,8.775799274E-1,-2.414100409E0,3.085874319E0
6.419096870E-1,9.007927775E-1,-2.489847660E0,3.171395302E0
6.443226560E-1,9.221730828E-1,-2.563151360E0,3.255083799E0
6.467347390E-1,9.423316121E-1,-2.625459433E0,3.333274603E0
6.491461460E-1,9.612684250E-1,-2.664554834E0,3.399858713E0
6.515582810E-1,9.814269543E-1,-2.692043781E0,3.459112644E0
6.539712500E-1,1.000974536E0,-2.696319818E0,3.508592844E0
6.563833330E-1,1.019300461E0,-2.671885252E0,3.548298836E0
6.587946870E-1,1.032128692E0,-2.615074873E0,3.574566126E0
6.612068230E-1,1.038848162E0,-2.512449503E0,3.586172581E0
6.636197910E-1,1.042513371E0,-2.356068134E0,3.584339857E0
6.660318750E-1,1.038237333E0,-2.150817633E0,3.562348843E0
6.684432290E-1,1.029685140E0,-1.904639006E0,3.522642612E0
6.708553640E-1,1.018078804E0,-1.625473857E0,3.464610577E0
6.732683330E-1,1.007083178E0,-1.333480477E0,3.390695810E0
6.756804680E-1,9.924225211E-1,-1.056147933E0,3.310672522E0
6.780918230E-1,9.673770666E-1,-8.093585968E-1,3.234925270E0
6.805039580E-1,9.264491200E-1,-5.943341851E-1,3.172006369E0
6.829169270E-1,8.696386814E-1,-4.013009965E-1,3.125580549E0
6.853290100E-1,8.042761683E-1,-2.241501957E-1,3.101756811E0
6.877403640E-1,7.291398048E-1,-6.166018173E-2,3.097480774E0
6.901525000E-1,6.491165161E-1,8.983427286E-2,3.117639303E0
6.925654680E-1,5.690932274E-1,2.254462391E-1,3.157956362E0
6.949775520E-1,4.872373343E-1,3.402887881E-1,3.212323427E0
6.973889060E-1,4.096575379E-1,4.306967556E-1,3.278296709E0
6.998010410E-1,3.363537490E-1,4.978918731E-1,3.350378752E0
7.022140100E-1,2.636608481E-1,5.418741703E-1,3.424904346E0
7.046261460E-1,2.007418126E-1,5.608109832E-1,3.500040531E0
7.070375000E-1,1.463748515E-1,5.595892668E-1,3.574566126E0
7.094496350E-1,1.017817184E-1,5.461502075E-1,3.646648169E0
7.118626040E-1,6.940589100E-2,5.180504322E-1,3.716897488E0
7.142746870E-1,4.863649234E-2,4.740681648E-1,3.787147045E0
7.166860410E-1,4.130611569E-2,4.068730474E-1,3.853120327E0
7.190981770E-1,4.924735799E-2,3.305149674E-1,3.914817810E0
7.215111460E-1,6.879502535E-2,2.584329247E-1,3.975904226E0
7.239232290E-1,9.689480066E-2,1.863508970E-1,4.034547329E0
7.263345830E-1,1.347684115E-1,1.124362648E-1,4.096855640E0
7.287467180E-1,1.824158579E-1,3.913249820E-2,4.162828922E0
7.311597390E-1,2.361719608E-1,-2.806262113E-2,4.233078480E0
7.335718230E-1,2.990910113E-1,-9.403601289E-2,4.300273418E0
7.359831770E-1,3.803360164E-1,-1.545116156E-1,4.361360073E0
7.383953120E-1,4.737983346E-1,-2.082677186E-1,4.410840034E0
7.408082810E-1,5.709258318E-1,-2.546934485E-1,4.451767921E0
7.432203640E-1,6.607229710E-1,-2.846258283E-1,4.488419533E0
7.456317180E-1,7.401353717E-1,-3.029517531E-1,4.521406651E0
7.480438540E-1,8.061087728E-1,-3.170016408E-1,4.540954113E0
7.504568230E-1,8.629191518E-1,-3.383819163E-1,4.543397427E0
7.528689060E-1,9.105666280E-1,-3.615947664E-1,4.521406651E0
7.552802600E-1,9.527162910E-1,-3.939706087E-1,4.477424145E0
7.576924480E-1,9.814269543E-1,-4.434506595E-1,4.417559624E0
7.601054160E-1,9.930333495E-1,-5.033153296E-1,4.347920895E0
7.625175000E-1,9.857029915E-1,-5.595149398E-1,4.276449680E0
7.649288540E-1,9.582141042E-1,-6.028863192E-1,4.202535152E0
7.673409890E-1,9.203404784E-1,-6.334295273E-1,4.124344349E0
7.697539580E-1,8.702495694E-1,-6.480903029E-1,4.047986507E0
7.721660410E-1,8.109956980E-1,-6.438142657E-1,3.980791092E0
7.745773960E-1,7.456331253E-1,-6.187688112E-1,3.929478407E0
7.769895310E-1,6.778271794E-1,-5.711213350E-1,3.897713661E0
7.794025520E-1,6.045234203E-1,-5.002610087E-1,3.876333237E0
7.818146350E-1,5.238892436E-1,-4.061878920E-1,3.865948677E0
7.842259890E-1,4.340921044E-1,-2.919561863E-1,3.861672640E0
7.866381250E-1,3.302451074E-1,-1.630637199E-1,3.858007431E0
7.890510930E-1,2.190677524E-1,-2.378656901E-2,3.856785536E0
7.914631770E-1,1.005599946E-1,1.112145334E-1,3.858618259E0
7.938745310E-1,-2.100208588E-2,2.346092016E-1,3.858618259E0
7.962866660E-1,-1.364555210E-1,3.433431089E-1,3.861672640E0
7.986996350E-1,-2.433568537E-1,4.410814643E-1,3.867170334E0
8.011117180E-1,-3.331539631E-1,5.186613202E-1,3.884885311E0
8.035230730E-1,-4.143989980E-1,5.895216465E-1,3.903211355E0
8.059352600E-1,-4.828158319E-1,6.524406672E-1,3.927645922E0
8.083482290E-1,-5.377936363E-1,7.068076730E-1,3.957578182E0
8.107603120E-1,-5.866628289E-1,7.440704107E-1,4.005836964E0
8.131716660E-1,-6.514144540E-1,7.630072236E-1,4.068144798E0
8.155838020E-1,-7.412115932E-1,7.623963356E-1,4.115181446E0
8.179967710E-1,-8.291761279E-1,7.410160899E-1,4.137783527E0
8.204088540E-1,-9.140862823E-1,6.909251809E-1,4.140226841E0
8.228202080E-1,-9.916661382E-1,6.237300634E-1,4.125566006E0
8.252323430E-1,-1.055806994E0,5.522588491E-1,4.120068550E0
8.276453120E-1,-1.110784769E0,4.691812396E-1,4.124344349E0
8.300573960E-1,-1.148658395E0,3.677777052E-1,4.123733521E0
8.324688020E-1,-1.175536513E0,2.529351413E-1,4.126787663E0
8.348809370E-1,-1.207912326E0,1.087710708E-1,4.153666019E0
8.372939060E-1,-1.248229384E0,-7.265574485E-2,4.200091362E0
8.397059890E-1,-1.295265913E0,-2.687433362E-1,4.256290913E0
8.421173430E-1,-1.356352448E0,-4.410071969E-1,4.308214664E0
8.445294790E-1,-1.427823544E0,-5.790625811E-1,4.338757992E0
8.469424480E-1,-1.498072982E0,-6.865747571E-1,4.350364208E0
8.493545310E-1,-1.574431062E0,-7.079550624E-1,4.342422962E0
8.517658850E-1,-1.645291448E0,-6.994029284E-1,4.298440933E0
8.541780210E-1,-1.694771528E0,-6.810770035E-1,4.209865570E0
8.565910410E-1,-1.727147341E0,-6.273208857E-1,4.102963924E0
8.590031250E-1,-1.750360131E0,-5.650126934E-1,4.002171516E0
8.614144790E-1,-1.760133982E0,-4.746047556E-1,3.903822184E0
8.638266140E-1,-1.757079720E0,-3.609839082E-1,3.803640366E0
8.662395830E-1,-1.741808057E0,-2.320914418E-1,3.703458548E0
8.686516660E-1,-1.717984319E0,-7.632093132E-2,3.605720282E0
8.710630210E-1,-1.683165073E0,1.026624292E-1,3.512257814E0
8.734751560E-1,-1.638571858E0,2.877544165E-1,3.405967474E0
8.758881250E-1,-1.603752613E0,4.930049479E-1,3.255694628E0
8.783002600E-1,-1.571987629E0,6.945903301E-1,3.131689310E0
8.807116140E-1,-1.541444421E0,8.589129448E-1,3.049833298E0
8.831237500E-1,-1.503570795E0,9.890271425E-1,2.982638121E0
8.855367180E-1,-1.454090714E0,1.102648020E0,2.915443182E0
8.879488020E-1,-1.385673881E0,1.197942853E0,2.850691319E0
8.903601560E-1,-1.300152898E0,1.293848634E0,2.785939693E0
8.927722910E-1,-1.199360132E0,1.377537131E0,2.737070560E0
8.951852600E-1,-1.095513225E0,1.425184608E0,2.723020792E0
8.975973430E-1,-9.977747798E-1,1.414799809E0,2.727296829E0
9.000086980E-1,-9.165297747E-1,1.326835394E0,2.729740143E0
9.024208850E-1,-8.420042396E-1,1.216879725E0,2.694921017E0
9.048338540E-1,-7.632027268E-1,1.159458399E0,2.633834362E0
9.072459370E-1,-7.070031762E-1,1.122806549E0,2.600236893E0
9.096572910E-1,-6.978402138E-1,1.062941790E0,2.588019609E0
9.120694270E-1,-7.271617055E-1,9.890271425E-1,2.572747946E0
9.144823960E-1,-7.754200101E-1,9.426014423E-1,2.553200245E0
9.168944790E-1,-8.242892027E-1,9.334384799E-1,2.544037342E0
9.193058330E-1,-8.701040149E-1,9.340493083E-1,2.548313379E0
9.217179680E-1,-9.110319614E-1,9.285515547E-1,2.551367760E0
9.241309890E-1,-9.421860576E-1,9.193885922E-1,2.547091722E0
9.265430730E-1,-9.641771913E-1,9.175559878E-1,2.543426514E0
9.289544270E-1,-9.794487953E-1,9.316058755E-1,2.548313379E0
9.313665620E-1,-9.873900414E-1,9.468774796E-1,2.559309006E0
9.337795310E-1,-9.825031161E-1,9.444340467E-1,2.583132744E0
9.361916140E-1,-9.599011540E-1,9.468774796E-1,2.615508556E0
9.386029680E-1,-9.134754539E-1,9.590947628E-1,2.635056257E0
9.410151040E-1,-8.572759032E-1,9.761990309E-1,2.638110399E0
9.434280730E-1,-8.132936358E-1,9.871945381E-1,2.619173765E0
9.458402080E-1,-7.839720845E-1,9.847511053E-1,2.557476282E0
9.482515620E-1,-7.583158016E-1,9.896379709E-1,2.493946314E0
9.506636980E-1,-7.143335342E-1,1.007964015E0,2.466457605E0
9.530766660E-1,-6.556904912E-1,1.048281074E0,2.462792397E0
9.554887500E-1,-5.946040750E-1,1.146019340E0,2.462181568E0
9.579001040E-1,-5.347393155E-1,1.265138030E0,2.449964046E0
9.603122390E-1,-4.779289067E-1,1.352491617E0,2.426140547E0
9.627252080E-1,-4.229511023E-1,1.412967324E0,2.399262428E0
9.651372910E-1,-3.734710515E-1,1.456338644E0,2.374827862E0
9.675486460E-1,-3.319322467E-1,1.474053741E0,2.346117258E0
9.699608330E-1,-2.946695089E-1,1.470388532E0,2.311297894E0
9.723738020E-1,-2.653479874E-1,1.470388532E0,2.269148111E0
9.747858850E-1,-2.433568537E-1,1.483827591E0,2.217224598E0
9.771972390E-1,-2.293069512E-1,1.501542687E0,2.156749010E0
9.796093750E-1,-2.201439887E-1,1.521701217E0,2.093830109E0
9.820223430E-1,-2.140353471E-1,1.538805366E0,2.033354521E0
9.844344270E-1,-2.054832280E-1,1.546746612E0,1.972878695E0
9.868457810E-1,-1.981528550E-1,1.553466201E0,1.909959674E0
9.892579160E-1,-1.841029674E-1,1.566294312E0,1.850705743E0
9.916709370E-1,-1.669987589E-1,1.587063670E0,1.790840983E0
9.940830210E-1,-1.480619460E-1,1.606000543E0,1.730976224E0
9.964943750E-1,-1.303468794E-1,1.618828654E0,1.671111584E0
9.989065100E-1,-1.144643873E-1,1.624326468E0,1.610635877E0
1.001319479E0,-1.034688279E-1,1.628602505E0,1.550160289E0
1.003731562E0,-9.430585802E-2,1.632267714E0,1.488462925E0
1.006142916E0,-9.002980590E-2,1.628602505E0,1.420657039E0
1.008555052E0,-9.308412671E-2,1.622493863E0,1.346742392E0
1.010968073E0,-9.736017883E-2,1.617606997E0,1.269773364E0
1.013380156E0,-1.010253653E-1,1.612720013E0,1.191582680E0
1.015791510E0,-1.004144996E-1,1.607222199E0,1.114613771E0
1.018203646E0,-9.430585802E-2,1.607833147E0,1.037644863E0
1.020616614E0,-8.269942552E-2,1.615163445E0,9.612867832E-1
1.023028698E0,-7.231472433E-2,1.621272087E0,8.843178153E-1
1.025440052E0,-5.704310164E-2,1.622493863E0,8.073488474E-1
1.027852187E0,-4.665840417E-2,1.624937296E0,7.279364467E-1
1.030265156E0,-4.360407963E-2,1.629824281E0,6.424154043E-1
1.032677291E0,-4.116062075E-2,1.626769900E0,5.526182652E-1
1.035088646E0,-4.177148640E-2,1.621883035E0,4.597668350E-1
1.037500781E0,-4.299321398E-2,1.623104692E0,3.650828004E-1
1.039913750E0,-4.054975510E-2,1.634100318E0,2.728422582E-1
1.042325833E0,-3.505197540E-2,1.657313108E0,1.860994548E-1
1.044737187E0,-2.955419384E-2,1.698241115E0,1.054653078E-1
1.047149323E0,-1.978035830E-2,1.752608061E0,3.888105229E-2
1.049562291E0,-1.000652183E-2,1.813694477E0,-1.731850207E-2
1.051974427E0,4.043367226E-3,1.871726632E0,-5.946816504E-2
1.054385781E0,1.992584951E-2,1.925482750E0,-9.367659688E-2
1.056797916E0,3.397573903E-2,1.978017211E0,-1.278850138E-1
1.059210885E0,4.680389911E-2,2.040325165E0,-1.633151770E-1
1.061622968E0,5.963205919E-2,2.109963894E0,-1.999670565E-1
1.064034323E0,7.551454008E-2,2.179602385E0,-2.439493239E-1
1.066446458E0,9.445134550E-2,2.253516912E0,-2.958728075E-1
1.068859427E0,1.146098822E-1,2.332318544E0,-3.496289253E-1
1.071271510E0,1.341575533E-1,2.397680998E0,-4.052175879E-1
1.073682864E0,1.414879262E-1,2.451437235E0,-4.650823474E-1
1.076095052E0,1.396553367E-1,2.499695539E0,-5.249471068E-1
1.078508021E0,1.286597699E-1,2.541845083E0,-5.854226947E-1
1.080920104E0,1.085012332E-1,2.577275276E0,-6.489526033E-1
1.083331458E0,8.406664431E-2,2.598655462E0,-7.149260044E-1
1.085743593E0,6.268637627E-2,2.610261917E0,-7.821211219E-1
1.088156562E0,4.436044022E-2,2.616370678E0,-8.487054110E-1
1.090568646E0,3.580833599E-2,2.612705469E0,-9.049049616E-1
1.092980000E0,3.092141449E-2,2.602320671E0,-9.592719078E-1
1.095392187E0,2.542363293E-2,2.587660074E0,-1.008751988E0
1.097805156E0,2.664536051E-2,2.568723202E0,-1.050901651E0
1.100217239E0,3.275401145E-2,2.549786329E0,-1.088775277E0
1.102628593E0,4.313870892E-2,2.530238628E0,-1.120540261E0
1.105040729E0,5.657773465E-2,2.510080099E0,-1.144363999E0
1.107453698E0,7.184934616E-2,2.488089085E0,-1.161468148E0
1.109865781E0,8.773183078E-2,2.456324100E0,-1.171241999E0
1.112277135E0,9.872739762E-2,2.417228699E0,-1.177350640E0
1.114689323E0,9.872739762E-2,2.376911640E0,-1.182237625E0
1.117102291E0,9.445134550E-2,2.342092276E0,-1.187735319E0
1.119514375E0,9.322961420E-2,2.324988127E0,-1.188957095E0
1.121925729E0,9.567306936E-2,2.301775217E0,-1.192011476E0
1.124337864E0,9.200788289E-2,2.261458158E0,-1.199952722E0
1.126750833E0,7.551454008E-2,2.222362995E0,-1.213391662E0
1.129162916E0,6.146465242E-2,2.193652153E0,-1.231106758E0
1.131574271E0,4.985822365E-2,2.162498236E0,-1.257984757E0
1.133986406E0,4.008438811E-2,2.121570110E0,-1.297080159E0
1.136399427E0,3.153228015E-2,2.077588081E0,-1.347781897E0
1.138811510E0,2.786709182E-2,2.033605814E0,-1.399094582E0
1.141222864E0,2.236930840E-2,1.986569285E0,-1.441244245E0
1.143635000E0,9.890433867E-4,1.930369735E0,-1.479117870E0
1.146047968E0,-5.154532194E-2,1.858287692E0,-1.521878362E0
1.148460052E0,-1.230164990E-1,1.804531574E0,-1.568915009E0
1.150871406E0,-1.859355569E-1,1.794757724E0,-1.610453725E0
1.153283541E0,-2.458003014E-1,1.807585835E0,-1.643440485E0
1.155696562E0,-3.496473134E-1,1.779486060E0,-1.676427126E0
1.158108646E0,-5.109155774E-1,1.714734435E0,-1.733237624E0
1.160520000E0,-7.125009298E-1,1.678082585E0,-1.803487062E0
1.162932135E0,-8.945386410E-1,1.720843077E0,-1.878012538E0
1.165345104E0,-1.097956657E0,1.751386285E0,-1.954981446E0
1.167757187E0,-1.415606260E0,1.591339827E0,-2.080208540E0
1.170168541E0,-1.813890100E0,1.386089206E0,-2.286680937E0
1.172580677E0,-2.248214960E0,1.260251045E0,-2.491320610E0
1.174993646E0,-2.684372425E0,1.105091453E0,-2.627543449E0
1.177405781E0,-3.055778027E0,1.059276581E0,-2.706344843E0
1.179817135E0,-3.325780392E0,1.147851944E0,-2.754603148E0
1.182229271E0,-3.501098394E0,1.284074783E0,-2.768042326E0
1.184642239E0,-3.587230444E0,1.425184608E0,-2.753992319E0
1.187054323E0,-3.598225832E0,1.533307672E0,-2.713675261E0
1.189465677E0,-3.552411079E0,1.610276580E0,-2.647091150E0
1.191877812E0,-3.466890097E0,1.691521525E0,-2.573787212E0
1.194290781E0,-3.339219332E0,1.779486060E0,-2.495596647E0
1.196702916E0,-3.173063993E0,1.844848633E0,-2.394193172E0
1.199114271E0,-2.970257044E0,1.888830900E0,-2.264078856E0
1.201526406E0,-2.742404461E0,1.929147959E0,-2.118693113E0
1.203939375E0,-2.502334595E0,1.975573659E0,-1.972085714E0
1.206351458E0,-2.233554125E0,2.058651209E0,-1.819369435E0
1.208762812E0,-1.928732634E0,2.202815294E0,-1.659933805E0
1.211174948E0,-1.614137292E0,2.379355192E0,-1.501109004E0
1.213587916E0,-1.314202785E0,2.494197607E0,-1.334953785E0
1.216000052E0,-1.069856882E0,2.494808674E0,-1.176128983E0
1.218411406E0,-9.128645658E-1,2.377522469E0,-1.048458219E0
1.220823541E0,-8.407825232E-1,2.173493624E0,-9.641588330E-1
1.223236510E0,-8.493346572E-1,1.946863055E0,-9.360590577E-1
1.225648593E0,-9.171406031E-1,1.716567039E0,-9.714891911E-1
1.228059948E0,-1.022820234E0,1.502153516E0,-1.057621241E0
1.230472083E0,-1.138273716E0,1.331722260E0,-1.168187737E0
1.232885052E0,-1.237233758E0,1.211381912E0,-1.279975891E0
1.235297187E0,-1.306872368E0,1.120973945E0,-1.377714276E0
1.237708541E0,-1.345967770E0,1.042172432E0,-1.448574662E0
1.240120677E0,-1.355741501E0,9.682577252E-1,-1.495611191E0
1.242533646E0,-1.341080785E0,8.992300630E-1,-1.521267533E0
1.244945729E0,-1.304428935E0,8.320349455E-1,-1.525543571E0
1.247357083E0,-1.254338026E0,7.746136189E-1,-1.513326287E0
1.249769218E0,-1.196305871E0,7.251335979E-1,-1.488280773E0
1.252182239E0,-1.134608507E0,6.817622185E-1,-1.452850699E0
1.254594323E0,-1.075354695E0,6.396125555E-1,-1.405203223E0
1.257005677E0,-1.024652839E0,5.968520045E-1,-1.350225329E0
1.259417812E0,-9.831140041E-1,5.534806252E-1,-1.290971518E0
1.261830781E0,-9.507381916E-1,5.143852830E-1,-1.232328534E0
1.264242864E0,-9.281361699E-1,4.771225154E-1,-1.175518036E0
1.266654218E0,-9.153079987E-1,4.404706061E-1,-1.121762037E0
1.269066354E0,-9.061450362E-1,4.166468680E-1,-1.064951539E0
1.271479375E0,-9.037016034E-1,4.087056518E-1,-1.003254056E0
1.273891458E0,-9.091993570E-1,4.148142934E-1,-9.348373413E-1
1.276302812E0,-9.238601327E-1,4.313076437E-1,-8.645878434E-1
1.278714948E0,-9.458512664E-1,4.490227103E-1,-8.065557480E-1
1.281127916E0,-9.867792130E-1,4.630725980E-1,-7.692929506E-1
1.283540000E0,-1.038702726E0,4.746790230E-1,-7.473018169E-1
1.285951354E0,-1.093680620E0,4.844528735E-1,-7.192020416E-1
1.288363489E0,-1.143160582E0,4.838419855E-1,-6.862154007E-1
1.290776510E0,-1.196305871E0,4.600182772E-1,-6.562830210E-1
1.293188593E0,-1.251894593E0,4.142034352E-1,-6.294049621E-1
1.295599948E0,-1.319089651E0,3.555603921E-1,-6.080247164E-1
1.298012083E0,-1.412551999E0,2.816457748E-1,-5.945856571E-1
1.300425052E0,-1.513955474E0,2.321657389E-1,-5.884770155E-1
1.302837135E0,-1.589091897E0,2.401069850E-1,-5.713728070E-1
1.305248489E0,-1.632463217E0,2.853109539E-1,-5.402187109E-1
1.307660625E0,-1.655065298E0,3.567821383E-1,-5.102863312E-1
1.310073646E0,-1.667282581E0,4.557422101E-1,-4.870734811E-1
1.312485729E0,-1.686830282E0,5.528697371E-1,-4.675258100E-1
1.314897083E0,-1.724703789E0,6.170105338E-1,-4.424803555E-1
1.317309218E0,-1.773573041E0,6.469429135E-1,-4.076610506E-1
1.319722187E0,-1.832216024E0,6.359473467E-1,-3.465745747E-1
1.322134271E0,-1.912239313E0,5.669196248E-1,-2.482253611E-1
1.324545625E0,-2.019140720E0,5.003353953E-1,-1.382697225E-1
1.326957760E0,-2.150476456E0,4.526878893E-1,-2.831406891E-2
1.329370729E0,-2.298305750E0,4.105382264E-1,7.614380121E-2
1.331782864E0,-2.435139418E0,3.787732720E-1,1.854885817E-1
1.334194218E0,-2.538375616E0,3.922123015E-1,2.795617580E-1
1.336606354E0,-2.595796824E0,4.361945391E-1,3.498111963E-1
1.339019323E0,-2.606181622E0,4.813985527E-1,4.084542096E-1
1.341431406E0,-2.595185995E0,4.997244775E-1,4.585451186E-1
1.343842760E0,-2.577471018E0,4.716247022E-1,5.287945867E-1
1.346254896E0,-2.546316862E0,4.441357851E-1,6.033200622E-1
1.348667864E0,-2.504167318E0,4.392488599E-1,6.754021049E-1
1.351080000E0,-2.455909014E0,4.575748146E-1,7.505384684E-1
1.353491354E0,-2.383215904E0,5.149961114E-1,8.299508691E-1
1.355903489E0,-2.299527645E0,5.870781541E-1,9.075306654E-1
1.358316458E0,-2.248825788E0,6.249517798E-1,9.649519920E-1
1.360728541E0,-2.226223707E0,6.438885927E-1,9.875539541E-1
1.363139896E0,-2.209119558E0,6.622145176E-1,9.771692753E-1
1.365552031E0,-2.181630611E0,6.603819132E-1,9.454042912E-1
1.367965052E0,-2.145589590E0,6.426668763E-1,8.983677030E-1
1.370377135E0,-2.108937740E0,6.371690631E-1,8.311725855E-1
1.372788489E0,-2.077783585E0,6.280061007E-1,7.554253936E-1
1.375200625E0,-2.047851324E0,6.066258550E-1,6.766238213E-1
1.377613593E0,-2.000814676E0,6.078475714E-1,5.917136073E-1
1.380025677E0,-1.958054185E0,6.536624432E-1,5.031382442E-1
1.382437031E0,-1.942782521E0,7.159706354E-1,4.133411348E-1
1.384849218E0,-1.929954410E0,7.892743945E-1,3.259874582E-1
1.387262187E0,-1.930565238E0,8.302023411E-1,2.471859008E-1
1.389674271E0,-1.922013164E0,8.430305123E-1,1.714386940E-1
1.392085625E0,-1.862148404E0,9.083930254E-1,1.011892557E-1
1.394497760E0,-1.751581907E0,1.024457335E0,3.521586582E-2
1.396910729E0,-1.625132918E0,1.128915191E0,-2.159455419E-2
1.399322812E0,-1.521285892E0,1.164956212E0,-5.641384423E-2
1.401734166E0,-1.441873431E0,1.144186735E0,-6.007903069E-2
1.404146302E0,-1.375289202E0,1.136856437E0,-5.091606081E-2
1.406559323E0,-1.321533084E0,1.132580400E0,-3.442271426E-2
1.408971406E0,-1.255559683E0,1.137467265E0,-1.548590884E-2
1.411382760E0,-1.182255983E0,1.137467265E0,1.261386834E-2
1.413794896E0,-1.112006545E0,1.121584773E0,4.865489155E-2
1.416207864E0,-1.067413449E0,1.081267715E0,8.958282322E-2
1.418619948E0,-1.030761480E0,1.016516089E0,1.274564266E-1
1.421031302E0,-1.000829101E0,9.456557631E-1,1.696061045E-1
1.423443489E0,-9.770053625E-1,8.931213617E-1,2.068688571E-1
1.425856458E0,-9.641771913E-1,8.570804000E-1,2.349686325E-1
1.428268541E0,-9.599011540E-1,8.295914531E-1,2.667335868E-1
1.430679896E0,-9.544033408E-1,8.344783783E-1,2.954442203E-1
1.433092031E0,-9.318013787E-1,8.705193996E-1,2.997202873E-1
1.435505000E0,-9.128645658E-1,9.309949875E-1,2.832269371E-1
1.437917083E0,-8.823213577E-1,1.039728880E0,2.496293634E-1
1.440328437E0,-8.627736568E-1,1.136245608E0,1.964841485E-1
1.442740625E0,-8.212348819E-1,1.225431800E0,1.347868145E-1
1.445153593E0,-7.607592344E-1,1.316450596E0,7.064601779E-2
1.447565677E0,-6.844011545E-1,1.433125854E0,3.450896824E-3
1.449977031E0,-6.184277534E-1,1.509483933E0,-6.130076200E-2
1.452389166E0,-5.585630536E-1,1.538805366E0,-1.144459993E-1
1.454802135E0,-5.151916146E-1,1.522922873E0,-1.388805807E-1
1.457214218E0,-4.846484363E-1,1.460614681E0,-1.553739309E-1
1.459625573E0,-4.522725940E-1,1.397084832E0,-1.804193854E-1
1.462037760E0,-4.235619605E-1,1.323781013E0,-2.158495337E-1
1.464450729E0,-3.966839015E-1,1.255364180E0,-2.628861070E-1
1.466862812E0,-3.740819097E-1,1.189390779E0,-3.117552996E-1
1.469274166E0,-3.801905513E-1,1.065996051E0,-3.575701416E-1
1.471686302E0,-4.052360058E-1,8.876236081E-1,-3.984980881E-1
1.474099271E0,-4.363901019E-1,7.171923518E-1,-4.351499677E-1
1.476511354E0,-4.534943402E-1,5.479828119E-1,-4.577519596E-1
1.478922760E0,-4.589920938E-1,3.635016382E-1,-4.626388848E-1
1.481334896E0,-4.589920938E-1,1.839074343E-1,-4.669149518E-1
1.483747864E0,-4.437204897E-1,7.639524341E-2,-4.937930107E-1
1.486159948E0,-4.302814603E-1,2.569347434E-2,-5.249471068E-1
1.488571302E0,-4.284488857E-1,-3.294954076E-2,-5.487707853E-1
1.490983437E0,-4.327249229E-1,-1.148054153E-1,-5.725945234E-1
1.493396406E0,-4.424987733E-1,-1.899417788E-1,-5.958073735E-1
1.495808541E0,-4.602138400E-1,-2.333131731E-1,-6.190202832E-1
1.498219896E0,-4.877027571E-1,-2.430870086E-1,-6.410113573E-1
1.500632031E0,-5.237437487E-1,-2.430870086E-1,-6.666676998E-1
1.503045000E0,-5.665042996E-1,-2.498065233E-1,-6.929348707E-1
1.505457083E0,-6.043778658E-1,-2.669107318E-1,-7.094282508E-1
1.507868437E0,-6.379754543E-1,-2.779062986E-1,-7.167586088E-1
1.510280573E0,-6.691295505E-1,-2.803497612E-1,-7.167586088E-1
1.512693541E0,-7.008945346E-1,-2.730193734E-1,-7.124825716E-1
1.515105677E0,-7.344920635E-1,-2.595803738E-1,-7.112608552E-1
1.517517031E0,-7.699221969E-1,-2.412544042E-1,-7.124825716E-1
1.519929166E0,-8.132936358E-1,-2.149872333E-1,-7.143151760E-1
1.522342135E0,-8.652170897E-1,-2.076568455E-1,-7.069847584E-1
1.524754218E0,-9.214166999E-1,-2.174306810E-1,-6.959891915E-1
1.527165573E0,-9.770053625E-1,-2.314805686E-1,-6.813284755E-1
1.529577708E0,-1.036870122E0,-2.436978668E-1,-6.636133790E-1
1.531990729E0,-1.099789262E0,-2.540825903E-1,-6.355136037E-1
1.534402812E0,-1.164540887E0,-2.656890154E-1,-5.909204483E-1
1.536814166E0,-1.228070855E0,-2.791280448E-1,-5.353317857E-1
1.539226302E0,-1.301985502E0,-2.998974323E-1,-4.516433179E-1
1.541639271E0,-1.393004298E0,-3.279972076E-1,-3.398550749E-1
1.544051354E0,-1.490742683E0,-3.505991995E-1,-2.256233692E-1
1.546462708E0,-1.590924501E0,-3.573187292E-1,-1.126133949E-1
1.548874896E0,-1.690495372E0,-3.518209457E-1,-5.712073296E-3
1.551287864E0,-1.783957720E0,-3.438796997E-1,8.408503979E-2
1.553699948E0,-1.867646217E0,-3.408253789E-1,1.512801647E-1
1.556111302E0,-1.938506484E0,-3.524318039E-1,1.970950067E-1
1.558523437E0,-1.998982072E0,-3.829750419E-1,2.123666257E-1
1.560936406E0,-2.045407772E0,-4.342876673E-1,2.050362527E-1
1.563348489E0,-2.077783585E0,-4.856003225E-1,1.775473356E-1
1.565759843E0,-2.110770226E0,-4.849894345E-1,1.494475603E-1
1.568172031E0,-2.133983135E0,-4.520027637E-1,1.237912551E-1
1.570585000E0,-2.137037516E0,-4.306224883E-1,6.820256263E-2
1.572997083E0,-2.119933367E0,-4.098531008E-1,-3.879479831E-3
1.575408437E0,-2.095498800E0,-3.615947664E-1,-7.718324661E-2
1.577820573E0,-2.067399025E0,-3.157799244E-1,-1.217763722E-1
1.580233541E0,-2.033801317E0,-2.950105071E-1,-1.407131702E-1
1.582645625E0,-2.000814676E0,-2.974539697E-1,-1.480435580E-1
1.585057031E0,-1.975769281E0,-3.194451034E-1,-1.559847891E-1
1.587469166E0,-1.958665013E0,-3.518209457E-1,-1.633151770E-1
1.589882135E0,-1.944004297E0,-3.915271461E-1,-1.767541915E-1
1.592294218E0,-1.909184933E0,-4.232921004E-1,-2.262342274E-1
1.594705573E0,-1.862148404E0,-4.465049803E-1,-2.995380163E-1
1.597117708E0,-1.801061988E0,-4.727721512E-1,-3.703983128E-1
1.599530729E0,-1.732034206E0,-5.014827251E-1,-4.253761470E-1
1.601942812E0,-1.677056432E0,-5.448541641E-1,-4.351499677E-1
1.604354166E0,-1.644680619E0,-6.157144904E-1,-3.948329091E-1
1.606766302E0,-1.588480949E0,-6.713031530E-1,-3.740634918E-1
1.609179271E0,-1.512122869E0,-6.908508539E-1,-4.235435426E-1
1.611591354E0,-1.427212715E0,-6.676379442E-1,-5.139515400E-1
1.614002708E0,-1.330696106E0,-5.845603943E-1,-6.367353201E-1
1.616414843E0,-1.220740438E0,-4.520027637E-1,-7.479127049E-1
1.618827864E0,-1.097956657E0,-3.011191785E-1,-8.047231436E-1
1.621239948E0,-9.721184373E-1,-1.410725862E-1,-8.309903145E-1
1.623651302E0,-8.560541272E-1,1.469791122E-2,-8.291577101E-1
1.626063437E0,-7.589266300E-1,1.435903609E-1,-8.004470468E-1
1.628476406E0,-6.758490801E-1,2.486590892E-1,-7.570756674E-1
1.630888489E0,-5.994909406E-1,3.421213925E-1,-7.185912132E-1
1.633299843E0,-5.188568234E-1,4.465792477E-1,-6.947674751E-1
1.635712031E0,-4.302814603E-1,5.522588491E-1,-6.697220206E-1
1.638125000E0,-3.435386717E-1,6.408342719E-1,-6.135224700E-1
1.640537083E0,-2.580176294E-1,6.872599721E-1,-5.066211224E-1
1.642948437E0,-1.773834527E-1,6.750426888E-1,-3.508506417E-1
1.645360573E0,-1.156861186E-1,5.919650793E-1,-1.370479912E-1
1.647773541E0,-6.742780656E-2,4.429140687E-1,1.353976727E-1
1.650185677E0,-1.978035830E-2,2.639307082E-1,4.304453433E-1
1.652597031E0,3.275401145E-2,1.148797274E-1,7.035018802E-1
1.655009166E0,1.011708528E-1,3.058039211E-2,9.063089490E-1
1.657422135E0,1.750854850E-1,-6.071491167E-3,1.019318938E0
1.659834218E0,2.398371547E-1,-1.279100310E-2,1.073074937E0
1.662245573E0,2.954258323E-1,8.589262143E-3,1.089568257E0
1.664657708E0,3.369646370E-1,3.546730801E-2,1.139659166E0
1.667070677E0,3.791143000E-1,6.112362444E-2,1.185474038E0
1.669482812E0,4.347029924E-1,7.822784781E-2,1.192804456E0
1.671894166E0,4.994546473E-1,7.578438520E-2,1.196469665E0
1.674306302E0,5.617628694E-1,6.784313917E-2,1.198302269E0
1.676719271E0,6.124646664E-1,6.539967656E-2,1.219682455E0
1.679131354E0,6.521708369E-1,7.395179570E-2,1.251447439E0
1.681542708E0,6.882118583E-1,9.044513106E-2,1.254501820E0
1.683954843E0,7.285289168E-1,1.179340482E-1,1.234343290E0
1.686367812E0,7.712894678E-1,1.564185172E-1,1.209297776E0
1.688779948E0,8.134391308E-1,1.710792780E-1,1.233121514E0
1.691191302E0,8.580322862E-1,1.417577714E-1,1.304592729E0
1.693603437E0,9.099557400E-1,6.906487048E-2,1.377285600E0
1.696016406E0,9.197295904E-1,3.715589992E-5,1.504956365E0
1.698428489E0,9.044579864E-1,-2.439743280E-2,1.697989583E0
1.700839843E0,9.160643816E-1,-2.561916225E-2,1.893466234E0
1.703251979E0,9.508836865E-1,-2.256483771E-2,2.072449684E0
1.705665000E0,9.869247079E-1,-3.905818984E-2,2.240437508E0
1.708077083E0,1.032128692E0,-1.209140569E-1,2.417588234E0
1.710488437E0,1.046789408E0,-2.528608441E-1,2.619173765E0
1.712900573E0,1.029685140E0,-3.768664002E-1,2.844582796E0
1.715313541E0,1.027241707E0,-4.306224883E-1,3.063883305E0
1.717725625E0,1.026020050E0,-4.190160632E-1,3.278296709E0
1.720137031E0,1.026630878E0,-3.689251542E-1,3.482936382E0
1.722549166E0,1.034572124E0,-2.986757159E-1,3.657032967E0
1.724962135E0,1.045567632E0,-2.577477694E-1,3.799364328E0
1.727374218E0,1.049843669E0,-2.650781572E-1,3.895270109E0
1.729785573E0,1.022354841E0,-3.316624165E-1,3.919093847E0
1.732197708E0,9.722639918E-1,-4.581114054E-1,3.862283468E0
1.734610677E0,9.307251573E-1,-5.900581479E-1,3.744386435E0
1.737022760E0,8.916298151E-1,-7.012355328E-1,3.572122574E0
1.739434166E0,8.531453609E-1,-7.763718963E-1,3.364428759E0
1.741846302E0,8.177151680E-1,-8.295171261E-1,3.125580549E0
1.744259271E0,7.841176391E-1,-8.857166767E-1,2.864741325E0
1.746671354E0,7.431896925E-1,-9.437488317E-1,2.616119385E0
1.749082708E0,6.924878955E-1,-9.724594951E-1,2.402316809E0
1.751494843E0,6.423969865E-1,-9.675725698E-1,2.211116076E0
1.753907864E0,5.855866075E-1,-9.406945109E-1,2.026024103E0
1.756319948E0,5.336630940E-1,-8.783863187E-1,1.823216796E0
1.758731302E0,4.597484171E-1,-8.331823349E-1,1.601472974E0
1.761143437E0,3.736165166E-1,-8.093585968E-1,1.351018429E0
1.763556406E0,2.899280488E-1,-8.063042760E-1,1.078572750E0
1.765968489E0,1.982983500E-1,-8.209649920E-1,7.932989597E-1
1.768379843E0,1.036143154E-1,-8.209649920E-1,5.019164681E-1
1.770791979E0,7.097690832E-3,-7.824805379E-1,2.313034385E-1
1.773205000E0,-9.002980590E-2,-7.110093832E-1,6.505221128E-3
1.775617083E0,-1.841029674E-1,-6.407599449E-1,-1.749216020E-1
1.778028437E0,-2.720675170E-1,-5.625692606E-1,-3.251943290E-1
1.780440573E0,-3.527016342E-1,-4.898763597E-1,-4.467563927E-1
1.782853541E0,-4.308923185E-1,-4.263464510E-1,-5.322774649E-1
1.785265625E0,-5.115264654E-1,-3.768664002E-1,-5.750380158E-1
1.787677031E0,-5.976583958E-1,-3.151690662E-1,-5.890879035E-1
1.790089166E0,-6.923424006E-1,-2.498065233E-1,-5.909204483E-1
1.792502135E0,-7.894698977E-1,-1.972721517E-1,-5.909204483E-1
1.794914218E0,-8.878191113E-1,-1.685615033E-1,-5.878661275E-1
1.797325573E0,-9.855574965E-1,-1.502355635E-1,-5.835900903E-1
1.799737708E0,-1.078408957E0,-1.361856759E-1,-5.713728070E-1
1.802150677E0,-1.167595267E0,-1.227466464E-1,-5.554903150E-1
1.804562812E0,-1.248229384E0,-9.586860240E-2,-5.432730317E-1
1.806974166E0,-1.324587464E0,-3.844732419E-2,-5.328883529E-1
1.809386302E0,-1.396669507E0,4.951719940E-2,-5.090646148E-1
1.811799271E0,-1.471805811E0,1.582511216E-1,-4.522541761E-1
1.814211354E0,-1.551218271E0,2.529351413E-1,-3.655113876E-1
1.816622708E0,-1.635517597E0,3.335692883E-1,-2.641078532E-1
1.819034843E0,-1.725314736E0,4.019861221E-1,-1.468218267E-1
1.821447864E0,-1.818776965E0,4.575748146E-1,-1.426418126E-2
1.823859948E0,-1.912239313E0,4.923941195E-1,1.341759413E-1
1.826271302E0,-2.003258228E0,5.125526786E-1,2.905573249E-1
1.828683437E0,-2.090611696E0,5.308786035E-1,4.469386935E-1
1.831096406E0,-2.169413328E0,5.424850583E-1,6.057634950E-1
1.833508489E0,-2.246993065E0,5.479828119E-1,7.609231472E-1
1.835919896E0,-2.313577414E0,5.412633419E-1,9.032546282E-1
1.838332031E0,-2.370387793E0,5.156069994E-1,1.026649237E0
1.840745000E0,-2.424754858E0,4.783442318E-1,1.143324375E0
1.843157083E0,-2.471791506E0,4.313076437E-1,1.263664722E0
1.845568437E0,-2.519438744E0,3.775515258E-1,1.375452995E0
1.847980573E0,-2.567697048E0,3.164650500E-1,1.503123760E0
1.850393541E0,-2.612290382E0,2.297222763E-1,1.641790032E0
1.852805677E0,-2.651996374E0,1.203775108E-1,1.765795588E0
1.855217031E0,-2.673376799E0,1.591963880E-2,1.876362085E0
1.857629166E0,-2.655050755E0,-4.027991742E-2,1.977154732E0
1.860042135E0,-2.603127241E0,-5.432980508E-2,2.071228027E0
1.862454218E0,-2.538375616E0,-7.693179697E-2,2.175075054E0
1.864865573E0,-2.480954409E0,-1.386291385E-1,2.272813320E0
1.867277708E0,-2.420478821E0,-2.388109565E-1,2.359556198E0
1.869690729E0,-2.345342398E0,-3.774772584E-1,2.437746763E0
1.872102812E0,-2.252490997E0,-5.485193729E-1,2.510439873E0
1.874514166E0,-2.149254799E0,-7.568241954E-1,2.580689192E0
1.876926302E0,-2.035023212E0,-9.913962483E-1,2.660712481E0
1.879339271E0,-1.919569731E0,-1.240018249E0,2.745622635E0
1.881751354E0,-1.802283645E0,-1.490472794E0,2.833587170E0
1.884162708E0,-1.684997678E0,-1.741538167E0,2.941099405E0
1.886574896E0,-1.577485442E0,-1.989549279E0,3.051666021E0
1.888987864E0,-1.473027587E0,-2.200908422E0,3.156734705E0
1.891399948E0,-1.367347956E0,-2.361566067E0,3.261192560E0
1.893811302E0,-1.270220518E0,-2.457471609E0,3.363817692E0
1.896223437E0,-1.185921192E0,-2.471521616E0,3.459112644E0
1.898636406E0,-1.123002052E0,-2.398828745E0,3.551964045E0
1.901048541E0,-1.083906770E0,-2.199075937E0,3.647869825E0
1.903459896E0,-1.068635106E0,-1.881426215E0,3.738888741E0
1.905872031E0,-1.075965524E0,-1.498414040E0,3.829296589E0
1.908285000E0,-1.100400090E0,-1.077528238E0,3.908709049E0
1.910697083E0,-1.137051940E0,-6.688597202E-1,3.961854458E0
1.913108437E0,-1.185310245E0,-3.121147454E-1,3.973460674E0
1.915520573E0,-1.251894593E0,4.313210025E-3,3.947193623E0
1.917933593E0,-1.324587464E0,3.225737214E-1,3.899546146E0
1.920345677E0,-1.399112940E0,6.328930259E-1,3.830518484E0
1.922757031E0,-1.475471020E0,9.309949875E-1,3.723617077E0
1.925169166E0,-1.556105137E0,1.244368553E0,3.563570499E0
1.927582135E0,-1.644069672E0,1.562018275E0,3.378478527E0
1.929994218E0,-1.732034206E0,1.838739991E0,3.187277794E0
1.932405573E0,-1.816944361E0,2.107520342E0,2.980194807E0
1.934817760E0,-1.896967649E0,2.361639977E0,2.762726784E0
1.937230729E0,-1.978823543E0,2.537569046E0,2.531209230E0
1.939642812E0,-2.043575287E0,2.629198790E0,2.281976461E0
1.942054166E0,-2.092444420E0,2.668294191E0,2.020526409E0
1.944466302E0,-2.105272532E0,2.670126677E0,1.742582679E0
1.946879271E0,-2.088779211E0,2.646914005E0,1.434706926E0
1.949291406E0,-2.036244869E0,2.584605694E0,1.110337734E0
1.951702760E0,-1.959886789E0,2.483202219E0,8.042945266E-1
1.954114896E0,-1.862148404E0,2.361639977E0,5.196315646E-1
1.956527864E0,-1.741808057E0,2.227249861E0,2.484076470E-1
1.958939948E0,-1.589091897E0,2.097746611E0,-1.436020946E-3
1.961351302E0,-1.404610753E0,1.982293248E0,-2.323428988E-1
1.963763437E0,-1.214631796E0,1.849124670E0,-4.437020719E-1
1.966176458E0,-1.027096272E0,1.697019339E0,-6.355136037E-1
1.968588541E0,-8.316195607E-1,1.535140157E0,-8.138861060E-1
1.970999896E0,-6.422514915E-1,1.370206714E0,-9.739326835E-1
1.973412031E0,-4.492182732E-1,1.218101382E0,-1.121151090E0
1.975825000E0,-2.641262710E-1,1.057443976E0,-1.256763101E0
1.978237083E0,-8.086682856E-2,9.028952122E-1,-1.379546881E0
1.980648489E0,1.011708528E-1,7.617854476E-1,-1.498665452E0
1.983060625E0,2.813759446E-1,6.365582347E-1,-1.608621120E0
1.985473593E0,4.628027678E-1,5.186613202E-1,-1.715522528E0
1.987885677E0,6.368992329E-1,4.019861221E-1,-1.812039137E0
1.990297031E0,8.103848100E-1,2.932521999E-1,-1.902447104E0
1.992709166E0,9.881464243E-1,1.961247325E-1,-1.984913945E0
1.995122135E0,1.165297151E0,1.032732874E-1,-2.056995630E0
1.997534271E0,1.344891429E0,4.585200548E-2,-2.124190807E0
1.999945625E0,1.535481215E0,7.395179570E-2,-2.185277224E0
2.002357760E0,1.716907978E0,1.704684049E-1,-2.235368252E0
2.004770729E0,1.887950063E0,2.859218419E-1,-2.285459042E0
2.007182812E0,2.065711737E0,4.068730474E-1,-2.322721958E0
2.009594166E0,2.272794962E0,5.650870204E-1,-2.330052376E0
2.012006302E0,2.498203993E0,7.306313515E-1,-2.317224026E0
2.014419323E0,2.726667404E0,8.637998700E-1,-2.293400288E0
2.016831406E0,2.956352472E0,9.652034044E-1,-2.262857199E0
2.019242760E0,3.173820257E0,1.006742239E0,-2.226205349E0
2.021654896E0,3.372962236E0,1.005520463E0,-2.188331604E0
2.024067864E0,3.554999828E0,9.670360088E-1,-2.143738508E0
2.026479948E0,3.734594107E0,8.912888169E-1,-2.094869375E0
2.028891354E0,3.890364647E0,7.886635065E-1,-2.049665451E0
2.031303489E0,4.038805008E0,6.671014428E-1,-2.003239632E0
2.033716458E0,4.173194885E0,5.229373574E-1,-1.961090088E0
2.036128541E0,4.295979023E0,3.757189512E-1,-1.928714275E0
2.038539896E0,4.401658535E0,2.773697078E-1,-1.897560120E0
2.040952031E0,4.483514309E0,2.999717295E-1,-1.855410457E0
2.043365052E0,4.508559704E0,5.375981331E-1,-1.780884981E0
2.045777135E0,4.466410160E0,1.056222320E0,-1.656268597E0
2.048188489E0,4.382110596E0,1.660367489E0,-1.522489190E0
2.050600625E0,4.199462414E0,2.072700977E0,-1.413755298E0
2.053013593E0,3.691222668E0,1.971908450E0,-1.348392844E0
2.055425677E0,3.040040970E0,1.603557110E0,-1.295858383E0
2.057837031E0,2.449945688E0,1.179616928E0,-1.231717587E0
2.060249218E0,1.883063197E0,6.249517798E-1,-1.166355133E0
2.062662187E0,1.354665160E0,-2.806262113E-2,-1.104657769E0
2.065074271E0,9.258382320E-1,-6.603075862E-1,-1.042349577E0
2.067485625E0,6.155189872E-1,-1.179542661E0,-9.678239822E-1
2.069897760E0,4.340921044E-1,-1.525902867E0,-8.584792018E-1
2.072310729E0,3.491819203E-1,-1.715881824E0,-7.051521540E-1
2.074722864E0,3.320777118E-1,-1.772081375E0,-5.096754432E-1
2.077134218E0,3.650644124E-1,-1.736651182E0,-2.799903452E-1
2.079546354E0,4.249291420E-1,-1.608980536E0,-3.503357619E-2
2.081959323E0,4.799069762E-1,-1.412282109E0,2.062579840E-1
2.084371406E0,5.452695489E-1,-1.179542661E0,4.218932390E-1
2.086782760E0,6.314014196E-1,-9.150381684E-1,5.709442496E-1
2.089194896E0,7.438005805E-1,-6.487011909E-1,6.607413292E-1
2.091607916E0,8.934624195E-1,-4.171834588E-1,7.047235966E-1
2.094020000E0,1.062671900E0,-2.149872333E-1,7.102213502E-1
2.096431354E0,1.213555455E0,-6.837968528E-2,6.973932385E-1
2.098843489E0,1.341837049E0,7.395179570E-2,6.870085001E-1
2.101256458E0,1.457901359E0,2.346092016E-1,6.802890301E-1
2.103668541E0,1.559304953E0,3.848819137E-1,6.473023295E-1
2.106079896E0,1.618558764E0,5.473719835E-1,6.039308906E-1
2.108492083E0,1.649712920E0,7.532333732E-1,5.794963241E-1
2.110905052E0,1.662541032E0,9.853619337E-1,5.568943620E-1
2.113317135E0,1.652767181E0,1.222377419E0,5.489531159E-1
2.115728489E0,1.636884689E0,1.466112494E0,5.697224736E-1
2.118140625E0,1.617947936E0,1.681747794E0,5.984331369E-1
2.120553646E0,1.611839294E0,1.883333087E0,6.430262327E-1
2.122965729E0,1.654599786E0,2.100189924E0,7.175517678E-1
2.125377083E0,1.720573187E0,2.310938358E0,8.378921151E-1
2.127789218E0,1.777994514E0,2.505193233E0,1.011377692E0
2.130202187E0,1.803039908E0,2.682343960E0,1.194637060E0
2.132614271E0,1.790211797E0,2.831395149E0,1.357737899E0
2.135025625E0,1.747451186E0,2.926689863E0,1.473802209E0
2.137437812E0,1.682088733E0,2.949902773E0,1.540386438E0
2.139850781E0,1.603287220E0,2.902866125E0,1.547716856E0
2.142262864E0,1.487833738E0,2.789245367E0,1.489684701E0
2.144674218E0,1.341837049E0,2.622479200E0,1.375452995E0
2.147086354E0,1.183012247E0,2.416007042E0,1.219071627E0
2.149499323E0,1.020522237E0,2.182656765E0,1.032757878E0
2.151911458E0,8.543670774E-1,1.935867429E0,8.275074363E-1
2.154322812E0,6.851575375E-1,1.695186734E0,6.118721366E-1
2.156734948E0,5.098393559E-1,1.467945099E0,3.962369263E-1
2.159147916E0,3.369646370E-1,1.252920747E0,1.934298277E-1
2.161560000E0,1.744746268E-1,1.055000544E0,1.688992046E-2
2.163971354E0,2.786709182E-2,8.772389293E-1,-1.291067451E-1
2.166383489E0,-1.046905518E-1,7.257444859E-1,-2.427275777E-1
2.168796510E0,-2.213657200E-1,6.017389297E-1,-3.251943290E-1
2.171208593E0,-3.227692842E-1,5.076657534E-1,-3.838373423E-1
2.173619948E0,-4.058468640E-1,4.398597479E-1,-4.235435426E-1
2.176032083E0,-4.724311233E-1,4.001535177E-1,-4.479781389E-1
2.178445052E0,-5.243545771E-1,3.818275928E-1,-4.589737058E-1
2.180857135E0,-5.616173744E-1,3.830493093E-1,-4.608062804E-1
2.183268541E0,-5.866628289E-1,3.995426595E-1,-4.516433179E-1
2.185680677E0,-6.013235450E-1,4.282533228E-1,-4.351499677E-1
2.188093646E0,-6.043778658E-1,4.722355604E-1,-4.094936550E-1
2.190505729E0,-6.001018286E-1,5.241590738E-1,-3.777287006E-1
2.192917083E0,-6.007127166E-1,5.815804005E-1,-3.459637165E-1
2.195329218E0,-6.110973954E-1,6.353364587E-1,-3.184747994E-1
2.197742187E0,-6.202603579E-1,6.927577853E-1,-3.025923371E-1
2.200154323E0,-6.159843206E-1,7.568985820E-1,-3.025923371E-1
2.202565677E0,-6.031561494E-1,8.283697367E-1,-3.111444414E-1
2.204977812E0,-5.854410529E-1,9.004517794E-1,-3.251943290E-1
2.207390781E0,-5.634499192E-1,9.755880833E-1,-3.416876793E-1
2.209802864E0,-5.353501439E-1,1.047059298E0,-3.557375669E-1
2.212214218E0,-5.011417270E-1,1.113643527E0,-3.685657084E-1
2.214626406E0,-4.657116234E-1,1.178395271E0,-3.795612752E-1
2.217039375E0,-4.284488857E-1,1.235816479E0,-3.899459839E-1
2.219451458E0,-3.881317973E-1,1.284074783E0,-3.978872299E-1
2.221862812E0,-3.465929925E-1,1.323781013E0,-4.046067297E-1
2.224274948E0,-3.056650758E-1,1.348215580E0,-4.076610506E-1
2.226687916E0,-2.684023082E-1,1.354935169E0,-4.094936550E-1
2.229100052E0,-2.360264659E-1,1.343328714E0,-4.070501924E-1
2.231511406E0,-2.048723698E-1,1.315228939E0,-4.033850133E-1
2.233923541E0,-1.712748110E-1,1.275522709E0,-3.997198045E-1
2.236336510E0,-1.388989836E-1,1.224210024E0,-3.954437673E-1
2.238748593E0,-1.065231487E-1,1.163123608E0,-3.881133795E-1
2.241159948E0,-7.414732128E-2,1.089819789E0,-3.789504170E-1
2.243572083E0,-4.116062075E-2,1.006131411E0,-3.703983128E-1
2.245985104E0,-1.122825127E-2,9.187777042E-1,-3.642896712E-1
2.248397187E0,1.748239063E-2,8.265371323E-1,-3.587918878E-1
2.250808541E0,4.680389911E-2,7.349074483E-1,-3.551266789E-1
2.253220677E0,7.184934616E-2,6.469429135E-1,-3.514614999E-1
2.255633646E0,9.139701724E-2,5.669196248E-1,-3.508506417E-1
2.258045729E0,1.066686362E-1,4.972810447E-1,-3.508506417E-1
2.260457135E0,1.158316061E-1,4.386380017E-1,-3.514614999E-1
2.262869271E0,1.127772853E-1,3.952666223E-1,-3.508506417E-1
2.265282239E0,9.628393501E-2,3.616690636E-1,-3.508506417E-1
2.267694323E0,7.551454008E-2,3.341801465E-1,-3.520723581E-1
2.270105677E0,5.596686900E-2,3.127998710E-1,-3.569592834E-1
2.272517812E0,3.519747034E-2,2.877544165E-1,-3.661222458E-1
2.274930833E0,2.420190163E-2,2.645415664E-1,-3.746743798E-1
2.277342916E0,2.359103784E-2,2.425504476E-1,-3.887242675E-1
2.279754271E0,2.542363293E-2,2.126180828E-1,-4.107153714E-1
2.282166406E0,2.969968505E-2,1.808531135E-1,-4.382042885E-1
2.284579375E0,3.153228015E-2,1.765770614E-1,-4.718018472E-1
2.286991458E0,3.275401145E-2,1.973464638E-1,-5.133406520E-1
2.289402812E0,1.931498386E-2,2.553786039E-1,-5.554903150E-1
2.291815000E0,-2.833246253E-2,3.518952131E-1,-6.013051867E-1
2.294227968E0,-1.077448800E-1,4.783442318E-1,-6.495634913E-1
2.296640052E0,-2.067049593E-1,6.249517798E-1,-6.984326839E-1
2.299051406E0,-3.123845756E-1,7.788897157E-1,-7.473018169E-1
2.301463541E0,-4.339466691E-1,9.560404420E-1,-7.973927259E-1
2.303876562E0,-5.695586205E-1,1.137467265E0,-8.499271274E-1
2.306288646E0,-7.179987431E-1,1.339663506E0,-9.006288648E-1
2.308700000E0,-9.470729828E-1,1.621883035E0,-9.586610198E-1
2.311112135E0,-1.349632859E0,1.919374108E0,-1.050290823E0
2.313525104E0,-1.894524217E0,2.220530272E0,-1.188957095E0
2.315937187E0,-2.297694921E0,2.504582405E0,-1.303799629E0
2.318348541E0,-2.502334595E0,2.693339586E0,-1.365496993E0
2.320760729E0,-2.644666195E0,2.835060120E0,-1.425972581E0
2.323173698E0,-2.755843401E0,2.953567982E0,-1.474841833E0
2.325585781E0,-2.817540884E0,3.058025837E0,-1.502941608E0
2.327997135E0,-2.839531898E0,3.160040140E0,-1.516380548E0
2.330409271E0,-2.821206093E0,3.250448227E0,-1.520045757E0
2.332822239E0,-2.771725893E0,3.339023590E0,-1.522489190E0
2.335234375E0,-2.698422194E0,3.412938356E0,-1.520045757E0
2.337645729E0,-2.615344524E0,3.484409332E0,-1.520656586E0
2.340057864E0,-2.474234819E0,3.531445980E0,-1.524932742E0
2.342470833E0,-2.300749302E0,3.562600136E0,-1.538982630E0
2.344882916E0,-2.094276905E0,3.590699911E0,-1.526154399E0
2.347294271E0,-1.864591837E0,3.587645531E0,-1.505385041E0
2.349706458E0,-1.499905586E0,3.590699911E0,-1.470565677E0
2.352119427E0,-1.020376801E0,3.614523649E0,-1.402759790E0
2.354531510E0,-4.608246982E-1,3.660338402E0,-1.312351823E0
2.356942864E0,1.048360467E-1,3.717759848E0,-1.210948229E0
2.359355000E0,5.855866075E-1,3.725090027E0,-1.110155582E0
2.361767968E0,9.740965366E-1,3.654229879E0,-1.016693234E0
2.364180104E0,1.295411348E0,3.529613495E0,-9.305612445E-1
2.366591458E0,1.559915781E0,3.375675440E0,-8.560357690E-1
2.369003593E0,1.783492208E0,3.199746370E0,-7.876189351E-1
2.371416562E0,1.961864710E0,3.017708778E0,-7.308084965E-1
2.373828646E0,2.091367960E0,2.840558052E0,-6.837719083E-1
2.376240000E0,2.165893555E0,2.668905020E0,-6.513960958E-1
2.378652135E0,2.193993330E0,2.490532637E0,-6.275723577E-1
2.381065156E0,2.183608532E0,2.312160015E0,-6.098572612E-1
2.383477239E0,2.140848160E0,2.135620117E0,-5.951965451E-1
2.385888593E0,2.065711737E0,1.963356376E0,-5.848118067E-1
2.388300729E0,1.966140747E0,1.797811985E0,-5.756488442E-1
2.390713698E0,1.849465609E0,1.638987184E0,-5.677075982E-1
2.393125781E0,1.719351411E0,1.481994987E0,-5.615989566E-1
2.395537187E0,1.582517743E0,1.328667879E0,-5.561012030E-1
2.397949323E0,1.444462299E0,1.183282137E0,-5.530468822E-1
2.400362291E0,1.307628632E0,1.053778768E0,-5.524359941E-1
2.402774375E0,1.181790471E0,9.413797259E-1,-5.506033897E-1
2.405185729E0,1.068169713E0,8.546369076E-1,-5.487707853E-1
2.407597864E0,9.722639918E-1,8.008807898E-1,-5.457164645E-1
2.410010885E0,8.910189271E-1,7.849983573E-1,-5.426621437E-1
2.412422968E0,8.256564140E-1,8.002699614E-1,-5.359426737E-1
2.414834323E0,7.664025426E-1,8.393653035E-1,-5.280014277E-1
2.417246458E0,7.102029920E-1,8.949539661E-1,-5.200601816E-1
2.419659427E0,6.546143293E-1,9.597056508E-1,-5.115080476E-1
2.422071510E0,5.941386819E-1,1.034231186E0,-5.011233687E-1
2.424482916E0,5.263327360E-1,1.116697907E0,-4.913495183E-1
2.426895052E0,4.456985295E-1,1.207105875E0,-4.852408767E-1
2.429308021E0,3.552905619E-1,1.293848634E0,-4.797431231E-1
2.431720104E0,2.599956691E-1,1.370817661E0,-4.772996306E-1
2.434131458E0,1.616464704E-1,1.434958458E0,-4.760779142E-1
2.436543593E0,6.635156274E-2,1.483827591E0,-4.760779142E-1
2.438956614E0,-2.711073495E-2,1.514981627E0,-4.803539515E-1
2.441368698E0,-1.144643873E-1,1.522312045E0,-4.840191603E-1
2.443780052E0,-1.950985342E-1,1.507651329E0,-4.882951975E-1
2.446192187E0,-2.714566290E-1,1.472831964E0,-4.950147271E-1
2.448605156E0,-3.447604179E-1,1.424573660E0,-5.023450851E-1
2.451017239E0,-4.131772518E-1,1.365319848E0,-5.108972192E-1
2.453428593E0,-4.779289067E-1,1.298735619E0,-5.176166892E-1
2.455840781E0,-5.353501439E-1,1.233983874E0,-5.200601816E-1
2.458253750E0,-5.903279781E-1,1.177173495E0,-5.231145024E-1
2.460665833E0,-6.416406035E-1,1.134413004E0,-5.243362188E-1
2.463077187E0,-6.911206841E-1,1.105091453E0,-5.231145024E-1
2.465489323E0,-7.363246679E-1,1.088598132E0,-5.206710100E-1
2.467902291E0,-7.760308981E-1,1.082489491E0,-5.200601816E-1
2.470314427E0,-8.145153522E-1,1.087376356E0,-5.194492936E-1
2.472725781E0,-8.487237692E-1,1.096539378E0,-5.163949728E-1
2.475137916E0,-8.798778653E-1,1.110589266E0,-5.157841444E-1
2.477550885E0,-9.073668122E-1,1.124639153E0,-5.170058608E-1
2.479962968E0,-9.299687743E-1,1.139910698E0,-5.170058608E-1
2.482374323E0,-9.489055872E-1,1.154571533E0,-5.182275772E-1
2.484786510E0,-9.647880793E-1,1.167399645E0,-5.188384652E-1
2.487199479E0,-9.745619297E-1,1.180838704E0,-5.218927860E-1
2.489611562E0,-9.843357205E-1,1.196110249E0,-5.249471068E-1
2.492022916E0,-9.880009294E-1,1.210160136E0,-5.255579352E-1
2.494435052E0,-9.861683249E-1,1.220544934E0,-5.273905396E-1
2.496848021E0,-9.837248921E-1,1.232151270E0,-5.304448605E-1
2.499260156E0,-9.763944745E-1,1.244979501E0,-5.322774649E-1
2.501671510E0,-9.678424001E-1,1.257196784E0,-5.365535021E-1
2.504083646E0,-9.556251168E-1,1.265138030E0,-5.377752185E-1
2.506496614E0,-9.434077740E-1,1.273690104E0,-5.371643901E-1
2.508908698E0,-9.275253415E-1,1.282242179E0,-5.383861065E-1
2.511320052E0,-9.104211330E-1,1.291405201E0,-5.396078229E-1
2.513732187E0,-8.914843202E-1,1.301179051E0,-5.408295989E-1
2.516145208E0,-8.701040149E-1,1.312174559E0,-5.414404273E-1
2.518557291E0,-8.481128812E-1,1.321948409E0,-5.444947481E-1
2.520968646E0,-8.224565983E-1,1.333554864E0,-5.469382405E-1
2.523380781E0,-7.943568230E-1,1.343328714E0,-5.469382405E-1
2.525793750E0,-7.632027268E-1,1.351269960E0,-5.463273525E-1
2.528205885E0,-7.314377427E-1,1.360432863E0,-5.481599569E-1
2.530617239E0,-6.960076094E-1,1.370817661E0,-5.481599569E-1
2.533029375E0,-6.599665880E-1,1.383645773E0,-5.475490689E-1
2.535442343E0,-6.233146787E-1,1.397695661E0,-5.469382405E-1
2.537854427E0,-5.829976201E-1,1.408080339E0,-5.432730317E-1
2.540265781E0,-5.414588451E-1,1.417854190E0,-5.396078229E-1
2.542677968E0,-5.023635030E-1,1.430071473E0,-5.359426737E-1
2.545090937E0,-4.620464444E-1,1.442288756E0,-5.298340321E-1
2.547503021E0,-4.217293561E-1,1.449008346E0,-5.218927860E-1
2.549914375E0,-3.808014095E-1,1.455116987E0,-5.139515400E-1
2.552326510E0,-3.417060673E-1,1.458782077E0,-5.066211224E-1
2.554739479E0,-3.050541878E-1,1.460003853E0,-4.999016523E-1
2.557151614E0,-2.684023082E-1,1.455727816E0,-4.907386899E-1
2.559562968E0,-2.311395556E-1,1.449008346E0,-4.779105186E-1
2.561975104E0,-1.975419968E-1,1.445953965E0,-4.626388848E-1
2.564388073E0,-1.639444381E-1,1.442899585E0,-4.485889971E-1
2.566800156E0,-1.327903271E-1,1.441067100E0,-4.357608259E-1
2.569211510E0,-1.022470966E-1,1.438623548E0,-4.229326844E-1
2.571623646E0,-7.292558998E-2,1.436180115E0,-4.119371176E-1
2.574036666E0,-4.543667287E-2,1.437401891E0,-4.015524089E-1
2.576448750E0,-1.855862699E-2,1.438012719E0,-3.923894465E-1
2.578860104E0,8.319419809E-3,1.436790943E0,-3.826155961E-1
2.581272239E0,3.153228015E-2,1.433736682E0,-3.691765964E-1
2.583685208E0,5.474514142E-2,1.430682302E0,-3.569592834E-1
2.586097291E0,7.490367442E-2,1.433125854E0,-3.465745747E-1
2.588508698E0,9.200788289E-2,1.439234495E0,-3.355790377E-1
2.590920833E0,1.072795019E-1,1.448397398E0,-3.233617246E-1
2.593333802E0,1.176642030E-1,1.460003853E0,-3.141987622E-1
2.595745885E0,1.256054491E-1,1.471610308E0,-3.074792325E-1
2.598157239E0,1.317140907E-1,1.480162382E0,-2.989271283E-1
2.600569375E0,1.347684115E-1,1.485660195E0,-2.891533077E-1
2.602982396E0,1.335466802E-1,1.485660195E0,-2.787685990E-1
2.605394479E0,1.274380386E-1,1.487492800E0,-2.732708156E-1
2.607805833E0,1.207185239E-1,1.487492800E0,-2.665513158E-1
2.610217968E0,1.133881509E-1,1.487492800E0,-2.573883533E-1
2.612630937E0,1.023925841E-1,1.489325404E0,-2.488362193E-1
2.615043021E0,9.078615904E-2,1.499710083E0,-2.353972197E-1
2.617454427E0,7.979059219E-2,1.535751104E0,-2.182929963E-1
2.619866562E0,4.252784699E-2,1.554687858E0,-1.883606315E-1
2.622279531E0,-1.306084543E-2,1.531475067E0,-1.492652893E-1
2.624691614E0,-5.765396729E-2,1.506429553E0,-1.254415512E-1
2.627102968E0,-8.941894025E-2,1.500931740E0,-1.315502077E-1
2.629515104E0,-1.107992008E-1,1.493601441E0,-1.510978788E-1
2.631928125E0,-1.266816854E-1,1.470999360E0,-1.657586247E-1
2.634340208E0,-1.395098418E-1,1.434347510E0,-1.657586247E-1
2.636751562E0,-1.505054086E-1,1.398917437E0,-1.572065204E-1
2.639163698E0,-1.694422215E-1,1.365319848E0,-1.486544162E-1
2.641576666E0,-1.920442134E-1,1.331722260E0,-1.364371181E-1
2.643988802E0,-2.201439887E-1,1.307287693E0,-1.242198348E-1
2.646400156E0,-2.500763834E-1,1.281020522E0,-1.132242680E-1
2.648812291E0,-2.836739421E-1,1.249866366E0,-1.022287011E-1
2.651225260E0,-3.221584260E-1,1.219933987E0,-9.245486557E-2
2.653637343E0,-3.575885594E-1,1.188169003E0,-8.023756742E-2
2.656048698E0,-3.899644017E-1,1.156404138E0,-6.924200058E-2
2.658460833E0,-4.205076396E-1,1.124639153E0,-5.702470988E-2
2.660873854E0,-4.455530941E-1,1.094706774E0,-4.541827738E-2
2.663285937E0,-4.657116234E-1,1.067217827E0,-3.564444184E-2
2.665697291E0,-4.809832275E-1,1.037285447E0,-2.770320326E-2
2.668109427E0,-4.901462197E-1,1.007964015E0,-1.976196095E-2
2.670522396E0,-4.974765778E-1,9.853619337E-1,-1.182071865E-2
2.672934479E0,-5.005308986E-1,9.645925760E-1,-5.712073296E-3
2.675345885E0,-5.017526150E-1,9.444340467E-1,-8.251552936E-4
2.677758021E0,-5.017526150E-1,9.230537415E-1,2.840033034E-3
2.680170989E0,-4.986983240E-1,9.047278166E-1,7.726950571E-3
2.682583073E0,-4.938113987E-1,8.857910037E-1,1.444646157E-2
2.684994427E0,-4.883136153E-1,8.650215864E-1,2.238770388E-2
2.687406562E0,-4.834266901E-1,8.442522287E-1,3.032894619E-2
2.689819583E0,-4.809832275E-1,8.259262443E-1,3.460500017E-2
2.692231666E0,-4.736528695E-1,8.094329238E-1,3.704845905E-2
2.694643021E0,-4.632681608E-1,7.929396033E-1,4.193537682E-2
2.697055156E0,-4.510508776E-1,7.795005441E-1,4.437883571E-2
2.699468125E0,-4.370009899E-1,7.685049772E-1,4.743316025E-2
2.701880260E0,-4.235619605E-1,7.599529028E-1,5.109834671E-2
2.704291614E0,-4.064577520E-1,7.507899404E-1,5.720699579E-2
2.706703750E0,-3.869100809E-1,7.459030151E-1,6.148304790E-2
2.709116718E0,-3.673624098E-1,7.440704107E-1,6.514823437E-2
2.711528802E0,-3.472038507E-1,7.422378063E-1,6.820256263E-2
2.713940156E0,-3.252127469E-1,7.434595227E-1,7.186774909E-2
2.716352291E0,-3.007781506E-1,7.459030151E-1,7.431120425E-2
2.718765312E0,-2.775653005E-1,7.520116568E-1,7.858725637E-2
2.721177396E0,-2.512980998E-1,7.630072236E-1,8.347417414E-2
2.723588750E0,-2.219765782E-1,7.795005441E-1,9.080455452E-2
2.726000885E0,-1.914333403E-1,7.966047525E-1,9.630233794E-2
2.728413854E0,-1.621118337E-1,8.149306774E-1,9.996752441E-2
2.730825937E0,-1.321794689E-1,8.314240575E-1,1.011892557E-1
2.733237343E0,-1.022470966E-1,8.485282660E-1,1.036327109E-1
2.735649479E0,-7.170385867E-2,8.662433624E-1,1.091304943E-1
2.738062448E0,-4.299321398E-2,8.821258545E-1,1.115739495E-1
2.740474531E0,-1.672603376E-2,8.943431377E-1,1.134065464E-1
2.742885885E0,8.930284530E-3,9.022843838E-1,1.158500090E-1
2.745298073E0,3.336487338E-2,9.077821374E-1,1.182934642E-1
2.747711041E0,5.596686900E-2,9.145016670E-1,1.189043298E-1
2.750123125E0,7.734712958E-2,9.199994206E-1,1.201260611E-1
2.752534479E0,9.628393501E-2,9.236646295E-1,1.219586506E-1
2.754946614E0,1.146098822E-1,9.248863459E-1,1.244021133E-1
2.757359583E0,1.323249489E-1,9.236646295E-1,1.262347102E-1
2.759771718E0,1.457639784E-1,9.193885922E-1,1.292890310E-1
2.762183073E0,1.561486870E-1,9.120581746E-1,1.317324787E-1
2.764595208E0,1.677551121E-1,9.028952122E-1,1.341759413E-1
2.767008177E0,1.769180745E-1,8.943431377E-1,1.341759413E-1
2.769420260E0,1.836375892E-1,8.827366829E-1,1.353976727E-1
2.771831614E0,1.873027831E-1,8.705193996E-1,1.353976727E-1
2.774243802E0,1.903571039E-1,8.564695120E-1,1.372302622E-1
2.776656771E0,1.921896935E-1,8.418087363E-1,1.378411353E-1
2.779068854E0,1.934114248E-1,8.283697367E-1,1.384519935E-1
2.781480208E0,1.946331561E-1,8.137089610E-1,1.366194040E-1
2.783892343E0,1.934114248E-1,8.002699614E-1,1.347868145E-1
2.786305312E0,1.921896935E-1,7.904961109E-1,1.335650831E-1
2.788717448E0,1.921896935E-1,7.813331485E-1,1.292890310E-1
2.791128802E0,1.934114248E-1,7.746136189E-1,1.250129789E-1
2.793540937E0,1.928005666E-1,7.678941488E-1,1.189043298E-1
2.795953906E0,1.921896935E-1,7.617854476E-1,1.152391434E-1
2.798365989E0,1.928005666E-1,7.581202984E-1,1.127956808E-1
2.800777343E0,1.934114248E-1,7.556768060E-1,1.085196286E-1
2.803189531E0,1.909679621E-1,7.544550896E-1,1.030218452E-1
2.805602500E0,1.879136413E-1,7.575094104E-1,9.691320360E-2
2.808014583E0,1.873027831E-1,7.611746192E-1,9.324800968E-2
2.810425937E0,1.842484623E-1,7.678941488E-1,8.836109191E-2
2.812838073E0,1.818049997E-1,7.782788277E-1,8.103071898E-2
2.815251041E0,1.793615371E-1,7.886635065E-1,7.431120425E-2
2.817663177E0,1.738637537E-1,8.039351702E-1,6.759169698E-2
2.820074531E0,1.701985747E-1,8.228719234E-1,6.026131660E-2
2.822486666E0,1.683659703E-1,8.466956615E-1,4.987661541E-2
2.824899635E0,1.665333807E-1,8.784606457E-1,3.704845905E-2
2.827311718E0,1.634790599E-1,9.138907790E-1,2.238770388E-2
2.829723073E0,1.610355973E-1,9.535970092E-1,5.894355476E-3
2.832135260E0,1.604247391E-1,9.939141273E-1,-9.988125414E-3
2.834548229E0,1.616464704E-1,1.029955029E0,-2.281628549E-2
2.836960312E0,1.610355973E-1,1.061720014E0,-3.503357619E-2
2.839371666E0,1.592030078E-1,1.085543752E0,-4.114222527E-2
2.841783802E0,1.598138660E-1,1.100204587E0,-4.236395657E-2
2.844196771E0,1.573704034E-1,1.101426244E0,-3.686617315E-2
2.846608906E0,1.555378139E-1,1.092263341E0,-2.831406891E-2
2.849020260E0,1.530943513E-1,1.065996051E0,-1.243158430E-2
2.851432396E0,1.475965679E-1,1.022624731E0,7.726950571E-3
2.853845364E0,1.390444636E-1,9.566513300E-1,2.605289221E-2
2.856257448E0,1.298815012E-1,8.723520041E-1,4.376797378E-2
2.858668802E0,1.176642030E-1,7.697266936E-1,5.842872709E-2
2.861080989E0,1.011708528E-1,6.616036892E-1,6.698083133E-2
2.863493958E0,8.467750996E-2,5.534806252E-1,7.431120425E-2
2.865906041E0,6.757329404E-2,4.496335685E-1,8.103071898E-2
2.868317396E0,5.107995123E-2,3.537278175E-1,8.775023371E-2
2.870729531E0,3.214314580E-2,2.724828124E-1,9.324800968E-2
2.873142500E0,1.503893174E-2,2.052876949E-1,1.048544422E-1
2.875554635E0,-2.065280220E-3,1.509207338E-1,1.158500090E-1
2.877965989E0,-1.855862699E-2,1.099928021E-1,1.250129789E-1
2.880378125E0,-3.444110975E-2,7.822784781E-2,1.323433518E-1
2.882791093E0,-5.154532194E-2,5.562584102E-2,1.384519935E-1
2.885203177E0,-6.864953786E-2,4.035422206E-2,1.433389187E-1
2.887614531E0,-8.208855987E-2,2.813693322E-2,1.482258290E-1
2.890026718E0,-9.674931318E-2,2.447174676E-2,1.488367021E-1
2.892439687E0,-1.126317978E-1,2.874779887E-2,1.494475603E-1
2.894851771E0,-1.279034168E-1,3.852163255E-2,1.518910229E-1
2.897263125E0,-1.419533044E-1,5.134978890E-2,1.549453437E-1
2.899675260E0,-1.541706026E-1,6.784313917E-2,1.567779481E-1
2.902088229E0,-1.663878858E-1,8.861254156E-2,1.586105376E-1
2.904500364E0,-1.767725945E-1,1.118253917E-1,1.604431272E-1
2.906911718E0,-1.902116090E-1,1.429795027E-1,1.610540003E-1
2.909323854E0,-1.993745863E-1,1.723010093E-1,1.641083211E-1
2.911736823E0,-2.060941011E-1,2.028442472E-1,1.665517837E-1
2.914148906E0,-2.152570635E-1,2.364418060E-1,1.671626419E-1
2.916560260E0,-2.238091826E-1,2.682067454E-1,1.665517837E-1
2.918972396E0,-2.329721451E-1,2.999717295E-1,1.628865898E-1
2.921385416E0,-2.396916598E-1,3.305149674E-1,1.579996645E-1
2.923797500E0,-2.488546222E-1,3.580038548E-1,1.512801647E-1
2.926208854E0,-2.567958832E-1,3.793841302E-1,1.433389187E-1
2.928620989E0,-2.653479874E-1,3.977100849E-1,1.353976727E-1
2.931034010E0,-2.732892334E-1,4.154251516E-1,1.262347102E-1
2.933446093E0,-2.812304795E-1,4.300858974E-1,1.152391434E-1
2.935857448E0,-2.916151881E-1,4.459683895E-1,1.042435765E-1
2.938269583E0,-3.007781506E-1,4.581856728E-1,9.446974099E-2
2.940682552E0,-3.111628592E-1,4.697920978E-1,8.225245029E-2
2.943094635E0,-3.203258216E-1,4.795659482E-1,7.308948040E-2
2.945506041E0,-3.319322467E-1,4.893397987E-1,6.392650306E-2
2.947918177E0,-3.435386717E-1,5.033897161E-1,5.537439883E-2
2.950331146E0,-3.539233804E-1,5.168287158E-1,4.682229459E-2
2.952743229E0,-3.649189472E-1,5.327112079E-1,3.949191794E-2
2.955154583E0,-3.771362305E-1,5.498154163E-1,3.277240694E-2
2.957566718E0,-3.881317973E-1,5.675305128E-1,2.360943332E-2
2.959979739E0,-3.972947598E-1,5.882998705E-1,1.505732723E-2
2.962391823E0,-4.064577520E-1,6.078475714E-1,7.726950571E-3
2.964803177E0,-4.143989980E-1,6.304495335E-1,2.229169244E-3
2.967215312E0,-4.205076396E-1,6.536624432E-1,-3.879479831E-3
2.969628281E0,-4.253945351E-1,6.768752933E-1,-1.059899107E-2
2.972040364E0,-4.284488857E-1,6.994772553E-1,-1.670763642E-2
2.974451771E0,-4.315032065E-1,7.245227098E-1,-1.976196095E-2
2.976863906E0,-4.302814603E-1,7.501790524E-1,-2.281628549E-2
2.979276875E0,-4.308923185E-1,7.788897157E-1,-2.709233761E-2
2.981688958E0,-4.290597439E-1,8.069894910E-1,-2.831406891E-2
2.984100312E0,-4.235619605E-1,8.350892663E-1,-2.953579649E-2
2.986512448E0,-4.192858934E-1,8.644107580E-1,-3.320098668E-2
2.988925468E0,-4.064577520E-1,8.906779289E-1,-3.564444184E-2
2.991337552E0,-3.905752599E-1,9.145016670E-1,-3.564444184E-2
2.993748906E0,-3.722493052E-1,9.395471215E-1,-3.503357619E-2
2.996161041E0,-3.520907760E-1,9.627599716E-1,-3.503357619E-2
2.998574010E0,-3.300996423E-1,9.816967249E-1,-3.503357619E-2
3.000986146E0,-3.068867922E-1,1.001244426E0,-3.747703880E-2
3.003397500E0,-2.787870169E-1,1.020181298E0,-3.686617315E-2
3.005809635E0,-2.500763834E-1,1.039728880E0,-3.747703880E-2
3.008222604E0,-2.201439887E-1,1.056222320E0,-3.625530750E-2
3.010634687E0,-1.896007508E-1,1.065385222E0,-3.442271426E-2
3.013046041E0,-1.602792442E-1,1.072104812E0,-3.075752780E-2
3.015458229E0,-1.315685958E-1,1.075159073E0,-2.892493457E-2
3.017871198E0,-1.046905518E-1,1.075159073E0,-2.709233761E-2
3.020283281E0,-7.781250775E-2,1.072104812E0,-2.464887872E-2
3.022694635E0,-5.093445629E-2,1.065996051E0,-2.281628549E-2
3.025106771E0,-2.588900365E-2,1.057443976E0,-1.976196095E-2
3.027519739E0,-8.435507771E-4,1.047670126E0,-1.792936772E-2
3.029931875E0,2.481276728E-2,1.038507223E0,-1.670763642E-2
3.032343229E0,5.107995123E-2,1.031176805E0,-1.365331560E-2
3.034755364E0,7.979059219E-2,1.024457335E0,-1.304244995E-2
3.037168333E0,1.097229645E-1,1.018348694E0,-1.243158430E-2
3.039580416E0,1.341575533E-1,1.011018276E0,-1.365331560E-2
3.041991771E0,1.573704034E-1,1.003077030E0,-1.365331560E-2
3.044403958E0,1.799724102E-1,9.994118214E-1,-1.548590884E-2
3.046816927E0,2.007418126E-1,9.951357841E-1,-1.915109903E-2
3.049229010E0,2.160134166E-1,9.890271425E-1,-2.159455419E-2
3.051640364E0,2.300633043E-1,9.847511053E-1,-2.587061003E-2
3.054052500E0,2.416697443E-1,9.823076725E-1,-2.953579649E-2
3.056465521E0,2.526652813E-1,9.865837097E-1,-3.320098668E-2
3.058877604E0,2.636608481E-1,9.908597469E-1,-3.503357619E-2
3.061288958E0,2.740455568E-1,9.933031797E-1,-3.930963576E-2
3.063701093E0,2.795433402E-1,9.988009930E-1,-4.358568788E-2
3.066114062E0,2.850411236E-1,1.004298806E0,-4.541827738E-2
3.068526146E0,2.874845862E-1,1.012240052E0,-4.602914304E-2
3.070937500E0,2.917606235E-1,1.017737746E0,-4.480741918E-2
3.073349687E0,2.923715115E-1,1.021402955E0,-4.480741918E-2
3.075762656E0,2.893171608E-1,1.023846388E0,-4.602914304E-2
3.078174739E0,2.880954444E-1,1.026900768E0,-4.419655353E-2
3.080586093E0,2.856519818E-1,1.029955029E0,-4.236395657E-2
3.082998229E0,2.795433402E-1,1.030565977E0,-4.297482222E-2
3.085411250E0,2.722129524E-1,1.026900768E0,-4.541827738E-2
3.087823333E0,2.630499899E-1,1.020181298E0,-5.091606081E-2
3.090234687E0,2.520544231E-1,1.008574843E0,-5.763557553E-2
3.092646823E0,2.392262816E-1,9.951357841E-1,-6.618767977E-2
3.095059791E0,2.245655358E-1,9.798642397E-1,-7.412892580E-2
3.097471875E0,2.117373645E-1,9.603165388E-1,-8.268103004E-2
3.099883229E0,1.982983500E-1,9.438231587E-1,-9.245486557E-2
3.102295416E0,1.830267310E-1,9.273298383E-1,-1.022287011E-1
3.104708385E0,1.683659703E-1,9.126690626E-1,-1.113916636E-1
3.107120468E0,1.530943513E-1,9.016734958E-1,-1.193329096E-1
3.109531823E0,1.378227323E-1,8.949539661E-1,-1.248306930E-1
3.111943958E0,1.213293895E-1,8.937322497E-1,-1.309393346E-1
3.114356979E0,1.060577706E-1,8.980082870E-1,-1.388805807E-1
3.116769062E0,8.895356208E-2,9.035061002E-1,-1.437675059E-1
3.119180416E0,7.123848796E-2,9.138907790E-1,-1.474326849E-1
3.121592552E0,5.169081688E-2,9.297732711E-1,-1.541521996E-1
3.124005521E0,3.336487338E-2,9.468774796E-1,-1.602608413E-1
3.126417656E0,1.564979739E-2,9.688686132E-1,-1.645368934E-1
3.128829010E0,1.599908108E-3,9.920815229E-1,-1.675912291E-1
3.131241146E0,-1.244998071E-2,1.012240052E0,-1.694238186E-1
3.133654114E0,-2.527813986E-2,1.034231186E0,-1.743107438E-1
3.136066198E0,-3.260851279E-2,1.050724506E0,-1.798085123E-1
3.138477552E0,-3.932802752E-2,1.064163566E0,-1.846954376E-1
3.140889687E0,-4.482581094E-2,1.080045938E0,-1.914149523E-1
3.143302708E0,-5.032359064E-2,1.095317602E0,-1.987453252E-1
3.145714791E0,-5.215618387E-2,1.107534885E0,-2.036322355E-1
3.148126146E0,-5.582137406E-2,1.120363116E0,-2.097408921E-1
3.150538281E0,-6.131915748E-2,1.136245608E0,-2.121843547E-1
3.152951250E0,-6.437348574E-2,1.153960586E0,-2.152386755E-1
3.155363385E0,-6.681694090E-2,1.169843078E0,-2.195147276E-1
3.157774739E0,-7.170385867E-2,1.186336398E0,-2.225690484E-1
3.160186875E0,-7.842337340E-2,1.207105875E0,-2.256233692E-1
3.162599843E0,-8.392115682E-2,1.233373046E0,-2.292885482E-1
3.165011927E0,-9.125152975E-2,1.263916254E0,-2.298994362E-1
3.167423281E0,-9.797104448E-2,1.292016029E0,-2.311211526E-1
3.169835468E0,-1.022470966E-1,1.317672372E0,-2.305102944E-1
3.172248437E0,-1.046905518E-1,1.337220073E0,-2.274559736E-1
3.174660521E0,-1.034688279E-1,1.355545998E0,-2.256233692E-1
3.177071875E0,-9.919277579E-2,1.371428490E0,-2.225690484E-1
3.179484010E0,-9.369499236E-2,1.390976191E0,-2.164604068E-1
3.181897031E0,-8.636461198E-2,1.413578153E0,-2.072974294E-1
3.184309114E0,-7.781250775E-2,1.434347510E0,-1.993561834E-1
3.186720468E0,-7.109299302E-2,1.458782077E0,-1.901932210E-1
3.189132604E0,-6.254088879E-2,1.477718949E0,-1.791976541E-1
3.191545573E0,-5.337791517E-2,1.496655703E0,-1.700346768E-1
3.193957656E0,-4.482581094E-2,1.514370799E0,-1.614825726E-1
3.196369010E0,-3.566283733E-2,1.530253291E0,-1.517087370E-1
3.198781198E0,-2.711073495E-2,1.541248918E0,-1.413240433E-1
3.201194166E0,-2.100208588E-2,1.551022649E0,-1.339936703E-1
3.203606250E0,-1.611516811E-2,1.555909634E0,-1.266632825E-1
3.206017604E0,-1.183911599E-2,1.558353066E0,-1.199437827E-1
3.208429739E0,-1.000652183E-2,1.557742238E0,-1.144459993E-1
3.210842760E0,-1.122825127E-2,1.554077029E0,-1.107808053E-1
3.213254843E0,-1.306084543E-2,1.547968388E0,-1.083373427E-1
3.215666198E0,-1.611516811E-2,1.539416313E0,-1.052830219E-1
3.218078333E0,-2.405641042E-2,1.530864120E0,-1.040612906E-1
3.220491302E0,-3.199765086E-2,1.519868612E0,-1.046721637E-1
3.222903385E0,-4.177148640E-2,1.508872986E0,-1.071156114E-1
3.225314791E0,-5.032359064E-2,1.497266650E0,-1.052830219E-1
3.227726927E0,-5.826483294E-2,1.486881852E0,-1.046721637E-1
3.230139896E0,-6.620607525E-2,1.480162382E0,-1.040612906E-1
3.232551979E0,-7.536904514E-2,1.472831964E0,-1.052830219E-1
3.234963333E0,-8.392115682E-2,1.464279890E0,-1.046721637E-1
3.237375521E0,-9.247326106E-2,1.455116987E0,-1.052830219E-1
3.239788489E0,-1.016362309E-1,1.448397398E0,-1.065047532E-1
3.242200573E0,-1.089666113E-1,1.439234495E0,-1.071156114E-1
3.244611927E0,-1.150752530E-1,1.428849697E0,-1.058938801E-1
3.247024062E0,-1.211839020E-1,1.417854190E0,-1.046721637E-1
3.249437031E0,-1.242382228E-1,1.406247735E0,-1.022287011E-1
3.251849166E0,-1.279034168E-1,1.392197847E0,-1.003961116E-1
3.254260521E0,-1.321794689E-1,1.374482751E0,-9.856350720E-2
3.256672656E0,-1.346229315E-1,1.356767774E0,-9.734178334E-2
3.259085625E0,-1.376772523E-1,1.338441730E0,-9.550918639E-2
3.261497708E0,-1.419533044E-1,1.316450596E0,-9.550918639E-2
3.263909062E0,-1.425641626E-1,1.295681238E0,-9.489832073E-2
3.266321250E0,-1.431750357E-1,1.274911880E0,-9.306573123E-2
3.268734218E0,-1.431750357E-1,1.256585956E0,-9.306573123E-2
3.271146302E0,-1.407315731E-1,1.240703464E0,-9.306573123E-2
3.273557656E0,-1.382881105E-1,1.229097009E0,-9.245486557E-2
3.275969791E0,-1.346229315E-1,1.218712330E0,-9.306573123E-2
3.278382812E0,-1.334012002E-1,1.211381912E0,-9.612005204E-2
3.280794896E0,-1.315685958E-1,1.205273271E0,-9.550918639E-2
3.283206250E0,-1.309577376E-1,1.200997233E0,-9.673091769E-2
3.285618385E0,-1.303468794E-1,1.196110249E0,-9.428745508E-2
3.288031354E0,-1.334012002E-1,1.191223383E0,-9.184399992E-2
3.290443437E0,-1.370663792E-1,1.189390779E0,-8.878967166E-2
3.292854791E0,-1.388989836E-1,1.187558174E0,-8.756794780E-2
3.295266979E0,-1.376772523E-1,1.186336398E0,-8.940053731E-2
3.297679948E0,-1.358446628E-1,1.185725570E0,-9.001140296E-2
3.300092031E0,-1.340120584E-1,1.186947346E0,-8.940053731E-2
3.302503385E0,-1.309577376E-1,1.189390779E0,-8.390276134E-2
3.304915521E0,-1.315685958E-1,1.194888592E0,-7.901583612E-2
3.307328541E0,-1.321794689E-1,1.202218890E0,-7.779411227E-2
3.309740625E0,-1.321794689E-1,1.210771084E0,-7.962670177E-2
3.312151979E0,-1.321794689E-1,1.221155763E0,-8.451361954E-2
3.314564114E0,-1.321794689E-1,1.233983874E0,-9.123313427E-2
3.316977083E0,-1.327903271E-1,1.244368553E0,-9.795264900E-2
3.319389218E0,-1.334012002E-1,1.253531575E0,-1.016178280E-1
3.321800573E0,-1.352337897E-1,1.262083650E0,-1.034504324E-1
3.324212708E0,-1.413424462E-1,1.264527202E0,-1.010069698E-1
3.326625677E0,-1.517271399E-1,1.255975008E0,-9.673091769E-2
3.329037760E0,-1.676096171E-1,1.230318666E0,-9.001140296E-2
3.331449114E0,-1.804377884E-1,1.204662442E0,-8.207016438E-2
3.333861250E0,-1.859355569E-1,1.190001607E0,-7.657238096E-2
3.336274271E0,-1.877681613E-1,1.176562667E0,-7.290719450E-2
3.338686354E0,-1.908224821E-1,1.165567040E0,-6.924200058E-2
3.341097708E0,-1.944876760E-1,1.152738929E0,-6.374422461E-2
3.343509843E0,-1.981528550E-1,1.141132474E0,-5.702470988E-2
3.345922812E0,-2.012071759E-1,1.130136847E0,-5.030519515E-2
3.348334948E0,-2.048723698E-1,1.116086960E0,-4.358568788E-2
3.350746302E0,-2.134244740E-1,1.102648020E0,-3.930963576E-2
3.353158437E0,-2.207548469E-1,1.086765528E0,-3.320098668E-2
3.355571406E0,-2.262526304E-1,1.065996051E0,-2.587061003E-2
3.357983489E0,-2.341938764E-1,1.045226693E0,-1.915109903E-2
3.360394843E0,-2.439677119E-1,1.025068164E0,-1.182071865E-2
3.362807031E0,-2.537415624E-1,9.994118214E-1,-3.268614179E-3
3.365220000E0,-2.647371292E-1,9.713120461E-1,6.505221128E-3
3.367632083E0,-2.745109499E-1,9.419905543E-1,1.627905667E-2
3.370043437E0,-2.867282629E-1,9.126690626E-1,2.727462165E-2
3.372455573E0,-2.995564044E-1,8.839583993E-1,4.071364552E-2
3.374868593E0,-3.142171800E-1,8.570804000E-1,5.232007802E-2
3.377280677E0,-3.276561797E-1,8.308131695E-1,6.392650306E-2
3.379692031E0,-3.404843509E-1,8.076003194E-1,7.797639817E-2
3.382104166E0,-3.514799178E-1,7.904961109E-1,9.141542017E-2
3.384517135E0,-3.649189472E-1,7.801114321E-1,9.935665876E-2
3.386929218E0,-3.740819097E-1,7.715592980E-1,1.109630913E-1
3.389340625E0,-3.832448721E-1,7.654506564E-1,1.207369268E-1
3.391752760E0,-3.924078643E-1,7.593420148E-1,1.292890310E-1
3.394165729E0,-4.009599686E-1,7.544550896E-1,1.378411353E-1
3.396577812E0,-4.058468640E-1,7.495681643E-1,1.476149708E-1
3.398989166E0,-4.125663936E-1,7.465138435E-1,1.567779481E-1
3.401401302E0,-4.162315726E-1,7.434595227E-1,1.653300524E-1
3.403814323E0,-4.229511023E-1,7.373508811E-1,1.738821566E-1
3.406226406E0,-4.284488857E-1,7.324639559E-1,1.806016713E-1
3.408637760E0,-4.327249229E-1,7.300205231E-1,1.873211861E-1
3.411049896E0,-4.376118481E-1,7.269662023E-1,1.915972382E-1
3.413462864E0,-4.400553107E-1,7.239118814E-1,1.989276111E-1
3.415875000E0,-4.449422061E-1,7.202466726E-1,2.068688571E-1
3.418286354E0,-4.504399896E-1,7.184140682E-1,2.135883570E-1
3.420698489E0,-4.534943402E-1,7.147489190E-1,2.190861404E-1
3.423111458E0,-4.589920938E-1,7.123054266E-1,2.251947969E-1
3.425523541E0,-4.626573026E-1,7.092511058E-1,2.349686325E-1
3.427934896E0,-4.681550860E-1,7.061967850E-1,2.441315949E-1
3.430347083E0,-4.718202651E-1,7.049750686E-1,2.514619827E-1
3.432760052E0,-4.754854441E-1,7.043641806E-1,2.606249452E-1
3.435172135E0,-4.785397947E-1,7.043641806E-1,2.661227286E-1
3.437583489E0,-4.803723693E-1,7.043641806E-1,2.710096538E-1
3.439995625E0,-4.822049737E-1,7.025315762E-1,2.746748328E-1
3.442408646E0,-4.840375483E-1,7.019207478E-1,2.795617580E-1
3.444820729E0,-4.828158319E-1,6.958121061E-1,2.868921161E-1
3.447232083E0,-4.815941155E-1,6.903142929E-1,2.917790413E-1
3.449644218E0,-4.815941155E-1,6.866491437E-1,2.948333621E-1
3.452057187E0,-4.791506529E-1,6.799296141E-1,2.984985709E-1
3.454469271E0,-4.730420113E-1,6.707666516E-1,3.033854663E-1
3.456880677E0,-4.675442278E-1,6.597710848E-1,3.058289289E-1
3.459292812E0,-4.602138400E-1,6.444994211E-1,3.076615334E-1
3.461705781E0,-4.492182732E-1,6.310604215E-1,3.107158542E-1
3.464117864E0,-4.394444525E-1,6.176214218E-1,3.137701750E-1
3.466529218E0,-4.260054231E-1,6.005172133E-1,3.186571002E-1
3.468941354E0,-4.131772518E-1,5.846347213E-1,3.192679584E-1
3.471354375E0,-3.997382224E-1,5.669196248E-1,3.204896748E-1
3.473766458E0,-3.838557601E-1,5.473719835E-1,3.223222792E-1
3.476177812E0,-3.698058724E-1,5.296568871E-1,3.241548836E-1
3.478589948E0,-3.545342386E-1,5.082766414E-1,3.253766000E-1
3.481002916E0,-3.392626345E-1,4.875071943E-1,3.217114210E-1
3.483415052E0,-3.227692842E-1,4.691812396E-1,3.223222792E-1
3.485826406E0,-3.044433296E-1,4.496335685E-1,3.241548836E-1
3.488238541E0,-2.885608375E-1,4.325293601E-1,3.247657418E-1
3.490651510E0,-2.745109499E-1,4.190903306E-1,3.247657418E-1
3.493063593E0,-2.592393458E-1,4.056513011E-1,3.253766000E-1
3.495474948E0,-2.445785701E-1,3.940448761E-1,3.235440254E-1
3.497887135E0,-2.329721451E-1,3.879362345E-1,3.211005628E-1
3.500300104E0,-2.231983095E-1,3.836601973E-1,3.162136376E-1
3.502712187E0,-2.164787948E-1,3.842710555E-1,3.082723916E-1
3.505123541E0,-2.079266906E-1,3.848819137E-1,3.027746081E-1
3.507535677E0,-1.987637281E-1,3.861036301E-1,2.984985709E-1
3.509948698E0,-1.932659447E-1,3.916014135E-1,2.923898995E-1
3.512360781E0,-1.889898926E-1,4.001535177E-1,2.887247205E-1
3.514772135E0,-1.822703779E-1,4.080947638E-1,2.868921161E-1
3.517184271E0,-1.786051840E-1,4.221446514E-1,2.850595415E-1
3.519597239E0,-1.779943258E-1,4.404706061E-1,2.807834744E-1
3.522009323E0,-1.786051840E-1,4.624617398E-1,2.777291536E-1
3.524420729E0,-1.828812361E-1,4.905615151E-1,2.722313702E-1
3.526832864E0,-1.877681613E-1,5.198830366E-1,2.655118704E-1
3.529245833E0,-1.932659447E-1,5.498154163E-1,2.624575496E-1
3.531657916E0,-2.005963176E-1,5.785260797E-1,2.600140870E-1
3.534069271E0,-2.085375637E-1,6.060149670E-1,2.551271617E-1
3.536481406E0,-2.152570635E-1,6.322821379E-1,2.520728409E-1
3.538894427E0,-2.219765782E-1,6.597710848E-1,2.477967888E-1
3.541306510E0,-2.305286825E-1,6.897034645E-1,2.447424680E-1
3.543717864E0,-2.378590703E-1,7.165814638E-1,2.471859008E-1
3.546130000E0,-2.464111745E-1,7.440704107E-1,2.526836991E-1
3.548542968E0,-2.561850250E-1,7.727810144E-1,2.539054453E-1
3.550955052E0,-2.684023082E-1,8.014916778E-1,2.526836991E-1
3.553366458E0,-2.781761587E-1,8.265371323E-1,2.532945871E-1
3.555778593E0,-2.885608375E-1,8.521934748E-1,2.526836991E-1
3.558191562E0,-3.007781506E-1,8.802932501E-1,2.508511245E-1
3.560603646E0,-3.117737174E-1,9.108364582E-1,2.484076470E-1
3.563015000E0,-3.221584260E-1,9.401579499E-1,2.441315949E-1
3.565427187E0,-3.343757093E-1,9.694795012E-1,2.410772741E-1
3.567840156E0,-3.459821343E-1,1.000022769E0,2.386338115E-1
3.570252239E0,-3.563668430E-1,1.026900768E0,2.349686325E-1
3.572663593E0,-3.661406636E-1,1.048891902E0,2.313034385E-1
3.575075729E0,-3.746927679E-1,1.066606998E0,2.276382446E-1
3.577488698E0,-3.826340139E-1,1.078213453E0,2.233621925E-1
3.579900833E0,-3.893535435E-1,1.083711147E0,2.215296030E-1
3.582312187E0,-3.930187225E-1,1.083711147E0,2.209187448E-1
3.584724323E0,-3.954621851E-1,1.080045938E0,2.178644091E-1
3.587137291E0,-3.966839015E-1,1.072104812E0,2.141992301E-1
3.589549375E0,-3.966839015E-1,1.059276581E0,2.141992301E-1
3.591960781E0,-3.954621851E-1,1.042172432E0,2.129774988E-1
3.594372916E0,-3.924078643E-1,1.020181298E0,2.105340362E-1
3.596785885E0,-3.881317973E-1,9.975792170E-1,2.105340362E-1
3.599197968E0,-3.826340139E-1,9.731446505E-1,2.080905735E-1
3.601609323E0,-3.765253723E-1,9.468774796E-1,2.032036632E-1
3.604021458E0,-3.728601933E-1,9.187777042E-1,1.983167380E-1
3.606434479E0,-3.691949844E-1,8.882344961E-1,1.934298277E-1
3.608846562E0,-3.643080890E-1,8.576912284E-1,1.854885817E-1
3.611257916E0,-3.594211638E-1,8.289806247E-1,1.787690669E-1
3.613670052E0,-3.545342386E-1,8.027133942E-1,1.732712835E-1
3.616083021E0,-3.508690596E-1,7.788897157E-1,1.665517837E-1
3.618495156E0,-3.478147388E-1,7.550659776E-1,1.567779481E-1
3.620906510E0,-3.447604179E-1,7.330748439E-1,1.476149708E-1
3.623318646E0,-3.417060673E-1,7.159706354E-1,1.378411353E-1
3.625731614E0,-3.404843509E-1,7.013098598E-1,1.274564266E-1
3.628143698E0,-3.362083137E-1,6.903142929E-1,1.170717329E-1
3.630555052E0,-3.343757093E-1,6.835947633E-1,1.042435765E-1
3.632967239E0,-3.331539631E-1,6.805404425E-1,9.080455452E-2
3.635380208E0,-3.319322467E-1,6.835947633E-1,7.492206991E-2
3.637792291E0,-3.282670677E-1,6.872599721E-1,6.087218225E-2
3.640203646E0,-3.246018589E-1,6.915360093E-1,4.987661541E-2
3.642615781E0,-3.221584260E-1,6.988664269E-1,3.338327259E-2
3.645028802E0,-3.166606426E-1,7.061967850E-1,1.994424500E-2
3.647440885E0,-3.087193966E-1,7.129163146E-1,9.559545666E-3
3.649852239E0,-3.026107252E-1,7.190249562E-1,-8.251552936E-4
3.652264375E0,-2.965020835E-1,7.233009934E-1,-6.933800876E-3
3.654677343E0,-2.897825837E-1,7.263553143E-1,-1.182071865E-2
3.657089427E0,-2.818413377E-1,7.269662023E-1,-1.487504318E-2
3.659500833E0,-2.714566290E-1,7.239118814E-1,-1.609677449E-2
3.661912968E0,-2.604610622E-1,7.159706354E-1,-1.731850207E-2
3.664325937E0,-2.488546222E-1,7.025315762E-1,-1.792936772E-2
3.666738021E0,-2.366373390E-1,6.878708601E-1,-1.915109903E-2
3.669149375E0,-2.262526304E-1,6.750426888E-1,-2.220541984E-2
3.671561510E0,-2.134244740E-1,6.585493088E-1,-2.281628549E-2
3.673974531E0,-1.975419968E-1,6.414451003E-1,-2.342715114E-2
3.676386614E0,-1.810486466E-1,6.231191754E-1,-2.342715114E-2
3.678797968E0,-1.663878858E-1,6.035715342E-1,-2.525974438E-2
3.681210104E0,-1.498945504E-1,5.864673257E-1,-2.831406891E-2
3.683623073E0,-1.327903271E-1,5.724174380E-1,-3.136838973E-2
3.686035208E0,-1.138535291E-1,5.571457744E-1,-3.442271426E-2
3.688446562E0,-9.613844752E-2,5.418741703E-1,-3.992049396E-2
3.690858698E0,-8.086682856E-2,5.290459991E-1,-4.664000869E-2
3.693271666E0,-6.254088879E-2,5.143852830E-1,-4.847260565E-2
3.695683750E0,-4.482581094E-2,4.985027611E-1,-5.213779211E-2
3.698095104E0,-2.833246253E-2,4.813985527E-1,-5.641384423E-2
3.700507291E0,-1.000652183E-2,4.630725980E-1,-5.946816504E-2
3.702920260E0,8.930284530E-3,4.465792477E-1,-6.679854542E-2
3.705332343E0,2.969968505E-2,4.264207184E-1,-7.290719450E-2
3.707743698E0,5.107995123E-2,4.044295847E-1,-7.779411227E-2
3.710155833E0,7.123848796E-2,3.818275928E-1,-8.451361954E-2
3.712568854E0,9.200788289E-2,3.586147428E-1,-9.367659688E-2
3.714980937E0,1.146098822E-1,3.354018629E-1,-1.040612906E-1
3.717392291E0,1.384336054E-1,3.121890128E-1,-1.156677306E-1
3.719804427E0,1.628681868E-1,2.877544165E-1,-1.291067451E-1
3.722217396E0,1.848593205E-1,2.620981038E-1,-1.431566328E-1
3.724629479E0,2.074613124E-1,2.370526642E-1,-1.559847891E-1
3.727040885E0,2.294524461E-1,2.126180828E-1,-1.712564081E-1
3.729453021E0,2.520544231E-1,1.906269491E-1,-1.883606315E-1
3.731865989E0,2.746564150E-1,1.692466885E-1,-2.042431086E-1
3.734278073E0,2.954258323E-1,1.484772861E-1,-2.225690484E-1
3.736689427E0,3.143626153E-1,1.289296150E-1,-2.408950031E-1
3.739101614E0,3.339102864E-1,1.106036752E-1,-2.604426742E-1
3.741514583E0,3.516253829E-1,9.411032498E-2,-2.824337780E-1
3.743926666E0,3.723947704E-1,7.761697471E-2,-3.019814491E-1
3.746338021E0,3.931641877E-1,6.051275879E-2,-3.221400082E-1
3.748750156E0,4.114901125E-1,4.279768467E-2,-3.435202539E-1
3.751163125E0,4.310377836E-1,2.752606757E-2,-3.673439920E-1
3.753575260E0,4.499745965E-1,1.286531426E-2,-3.899459839E-1
3.755986614E0,4.689114094E-1,-3.017166862E-3,-4.125479758E-1
3.758398750E0,4.902916551E-1,-1.828878559E-2,-4.345391095E-1
3.760811718E0,5.116719604E-1,-3.478213400E-2,-4.565302432E-1
3.763223802E0,5.306087732E-1,-4.883202538E-2,-4.791322351E-1
3.765635156E0,5.513781905E-1,-6.104931980E-2,-5.053994060E-1
3.768047343E0,5.733693242E-1,-7.204487920E-2,-5.322774649E-1
3.770460312E0,5.941386819E-1,-8.242958039E-2,-5.579338074E-1
3.772872396E0,6.136863828E-1,-9.403601289E-2,-5.817574859E-1
3.775283750E0,6.368992329E-1,-1.099184901E-1,-6.049703360E-1
3.777695885E0,6.601120830E-1,-1.294661611E-1,-6.281832457E-1
3.780108854E0,6.814923286E-1,-1.502355635E-1,-6.501743793E-1
3.782520989E0,7.047052383E-1,-1.685615033E-1,-6.733872294E-1
3.784932343E0,7.266963720E-1,-1.856657267E-1,-6.972109675E-1
3.787344479E0,7.480766177E-1,-2.039916664E-1,-7.198129296E-1
3.789757448E0,7.682351470E-1,-2.217067331E-1,-7.436366677E-1
3.792169531E0,7.908371687E-1,-2.394218147E-1,-7.674604058E-1
3.794580937E0,8.134391308E-1,-2.559151649E-1,-7.918949723E-1
3.796993073E0,8.366519809E-1,-2.724085152E-1,-8.151078224E-1
3.799406041E0,8.604757190E-1,-2.901236117E-1,-8.389315605E-1
3.801818125E0,8.836885691E-1,-3.066169620E-1,-8.627552986E-1
3.804229479E0,9.075123072E-1,-3.218885660E-1,-8.871898651E-1
3.806641614E0,9.319468737E-1,-3.377710581E-1,-9.097918868E-1
3.809054635E0,9.539380074E-1,-3.512100875E-1,-9.305612445E-1
3.811466718E0,9.783726335E-1,-3.585404456E-1,-9.501089454E-1
3.813878073E0,1.002196312E0,-3.652599752E-1,-9.690457582E-1
3.816290208E0,1.022965670E0,-3.689251542E-1,-9.873716235E-1
3.818703177E0,1.043124199E0,-3.689251542E-1,-1.003254056E0
3.821115312E0,1.062061071E0,-3.640382290E-1,-1.017915010E0
3.823526666E0,1.079776049E0,-3.585404456E-1,-1.028299689E0
3.825938802E0,1.097491145E0,-3.499883413E-1,-1.039295197E0
3.828351771E0,1.111541033E0,-3.389927745E-1,-1.055788636E0
3.830763854E0,1.126812696E0,-3.292189538E-1,-1.072892785E0
3.833175208E0,1.136586547E0,-3.139473200E-1,-1.094883919E0
3.835587396E0,1.146360397E0,-2.931779325E-1,-1.113209844E0
3.838000364E0,1.153690696E0,-2.650781572E-1,-1.132146716E0
3.840412448E0,1.164075375E0,-2.363674939E-1,-1.148640037E0
3.842823802E0,1.173849225E0,-2.070459872E-1,-1.160857320E0
3.845235937E0,1.182401419E0,-1.783353388E-1,-1.169409394E0
3.847648958E0,1.191564322E0,-1.508464366E-1,-1.174296379E0
3.850061041E0,1.198283792E0,-1.282444298E-1,-1.176739812E0
3.852472396E0,1.204392552E0,-1.080859005E-1,-1.178572416E0
3.854884531E0,1.205614209E0,-8.853822947E-2,-1.176739812E0
3.857297500E0,1.203781605E0,-6.776882708E-2,-1.173685431E0
3.859709635E0,1.201949000E0,-4.333424196E-2,-1.171241999E0
3.862120989E0,1.197062135E0,-1.279100310E-2,-1.167576790E0
3.864533125E0,1.191564322E0,1.653050445E-2,-1.162079096E0
3.866946093E0,1.183623075E0,4.401941597E-2,-1.160246491E0
3.869358177E0,1.173849225E0,6.967572868E-2,-1.162689924E0
3.871769531E0,1.166518927E0,8.677995205E-2,-1.162079096E0
3.874181718E0,1.155523300E0,1.002189666E-1,-1.162079096E0
3.876594687E0,1.143916845E0,1.148797274E-1,-1.161468148E0
3.879006771E0,1.132921338E0,1.313730627E-1,-1.159635544E0
3.881418125E0,1.124980092E0,1.606945693E-1,-1.154137850E0
3.883830260E0,1.118871450E0,1.949030012E-1,-1.141309619E0
3.886243281E0,1.114595413E0,2.303331643E-1,-1.118707657E0
3.888655364E0,1.114595413E0,2.633198202E-1,-1.088775277E0
3.891066718E0,1.117038846E0,2.920304835E-1,-1.055177689E0
3.893478854E0,1.123758316E0,3.158541918E-1,-1.014860630E0
3.895891823E0,1.131699562E0,3.366236091E-1,-9.727109075E-1
3.898303906E0,1.140251756E0,3.573929965E-1,-9.323938489E-1
3.900715312E0,1.151858091E0,3.775515258E-1,-8.896332979E-1
3.903127448E0,1.162242889E0,3.977100849E-1,-8.444293141E-1
3.905540416E0,1.173849225E0,4.160360098E-1,-7.961710095E-1
3.907952500E0,1.186677456E0,4.270315766E-1,-7.479127049E-1
3.910363854E0,1.199505568E0,4.282533228E-1,-6.996544003E-1
3.912775989E0,1.213555455E0,4.160360098E-1,-6.532287002E-1
3.915189010E0,1.228216171E0,3.970991969E-1,-6.098572612E-1
3.917601093E0,1.247153044E0,3.677777052E-1,-5.670967698E-1
3.920012448E0,1.264868140E0,3.335692883E-1,-5.267796516E-1
3.922424583E0,1.287470102E0,2.944739461E-1,-4.870734811E-1
3.924837552E0,1.311904669E0,2.486590892E-1,-4.504216015E-1
3.927249687E0,1.339393616E0,1.973464638E-1,-4.156022966E-1
3.929661041E0,1.370547652E0,1.448120922E-1,-3.826155961E-1
3.932073177E0,1.403534412E0,9.594291449E-2,-3.539049625E-1
3.934486146E0,1.437132001E0,4.401941597E-2,-3.276377916E-1
3.936898229E0,1.477449059E0,-9.125815704E-3,-3.050357997E-1
3.939309583E0,1.518376946E0,-6.410363317E-2,-2.860989869E-1
3.941721771E0,1.561137438E0,-1.190814674E-1,-2.714382410E-1
3.944134739E0,1.605119705E0,-1.765027493E-1,-2.555557489E-1
3.946546823E0,1.646658540E0,-2.339240313E-1,-2.408950031E-1
3.948958177E0,1.685753942E0,-2.895127237E-1,-2.250125110E-1
3.951370312E0,1.720573187E0,-3.414362371E-1,-2.134060860E-1
3.953783333E0,1.752338171E0,-3.884728253E-1,-1.975235939E-1
3.956195416E0,1.781659603E0,-4.281790257E-1,-1.798085123E-1
3.958606771E0,1.806705117E0,-4.587222636E-1,-1.645368934E-1
3.961018906E0,1.823198438E0,-4.746047556E-1,-1.523196101E-1
3.963431875E0,1.833583117E0,-4.746047556E-1,-1.382697225E-1
3.965844010E0,1.837859154E0,-4.599440098E-1,-1.242198348E-1
3.968255364E0,1.834194064E0,-4.294007719E-1,-1.120025367E-1
3.970667500E0,1.825641870E0,-3.835859001E-1,-9.917438030E-2
3.973080468E0,1.810370326E0,-3.279972076E-1,-8.512448519E-2
3.975492552E0,1.790822625E0,-2.650781572E-1,-7.473978400E-2
3.977903906E0,1.767609715E0,-1.978830099E-1,-6.863114238E-2
3.980316041E0,1.738288283E0,-1.306878924E-1,-6.924200058E-2
3.982729062E0,1.705301523E0,-6.960141659E-2,-7.351806015E-2
3.985141146E0,1.669871449E0,-1.828878559E-2,-8.207016438E-2
3.987552500E0,1.629554391E0,2.019569091E-2,-9.001140296E-2
3.989964635E0,1.582517743E0,4.646287113E-2,-1.010069698E-1
3.992377604E0,1.533037663E0,5.440411717E-2,-1.107808053E-1
3.994789739E0,1.484168530E0,4.279768467E-2,-1.242198348E-1
3.997201093E0,1.430412412E0,1.775223203E-2,-1.388805807E-1
3.999613229E0,1.372380257E0,-2.317570336E-2,-1.498761475E-1
4.002026198E0,1.306406856E0,-7.632093132E-2,-1.639260352E-1
4.004438281E0,1.239211798E0,-1.453486532E-1,-1.779759228E-1
4.006849635E0,1.168351531E0,-2.223176062E-1,-1.908040792E-1
4.009261823E0,1.091993332E0,-3.017300367E-1,-2.042431086E-1
4.011674791E0,1.010137558E0,-3.793098629E-1,-2.170712650E-1
4.014086875E0,9.282817245E-1,-4.520027637E-1,-2.286776900E-1
4.016498229E0,8.439823985E-1,-5.173652172E-1,-2.427275777E-1
4.018910364E0,7.602939010E-1,-5.729539394E-1,-2.573883533E-1
4.021323385E0,6.772162914E-1,-6.199905276E-1,-2.720490992E-1
4.023735468E0,5.916952491E-1,-6.584749818E-1,-2.854881287E-1
4.026146823E0,5.086176395E-1,-6.896290779E-1,-2.970945537E-1
4.028558958E0,4.273726046E-1,-7.152854204E-1,-3.080901206E-1
4.030971927E0,3.491819203E-1,-7.330005169E-1,-3.166422248E-1
4.033384010E0,2.709912360E-1,-7.464395165E-1,-3.251943290E-1
4.035795416E0,1.958548874E-1,-7.537698746E-1,-3.325246871E-1
4.038207552E0,1.256054491E-1,-7.592676878E-1,-3.392442167E-1
4.040620521E0,5.718860030E-2,-7.623220086E-1,-3.459637165E-1
4.043032604E0,-7.563062478E-3,-7.580459714E-1,-3.545158207E-1
4.045443958E0,-6.681694090E-2,-7.501047254E-1,-3.624570668E-1
4.047856146E0,-1.236273646E-1,-7.384982705E-1,-3.703983128E-1
4.050269114E0,-1.786051840E-1,-7.201723456E-1,-3.777287006E-1
4.052681198E0,-2.286960930E-1,-6.994029284E-1,-3.838373423E-1
4.055092552E0,-2.787870169E-1,-6.761900783E-1,-3.905568421E-1
4.057504687E0,-3.246018589E-1,-6.493120193E-1,-3.948329091E-1
4.059917708E0,-3.679732680E-1,-6.181579232E-1,-3.991089463E-1
4.062329791E0,-4.082903266E-1,-5.851712227E-1,-4.033850133E-1
4.064741146E0,-4.424987733E-1,-5.521845222E-1,-4.064393342E-1
4.067153281E0,-4.754854441E-1,-5.167543888E-1,-4.125479758E-1
4.069566250E0,-5.048069358E-1,-4.807133973E-1,-4.162131548E-1
4.071978333E0,-5.280197859E-1,-4.465049803E-1,-4.156022966E-1
4.074389739E0,-5.457348824E-1,-4.165726006E-1,-4.156022966E-1
4.076801875E0,-5.579521656E-1,-3.884728253E-1,-4.137697220E-1
4.079214843E0,-5.683368444E-1,-3.567078710E-1,-4.119371176E-1
4.081626927E0,-5.750563741E-1,-3.237211704E-1,-4.101045132E-1
4.084038281E0,-5.762780905E-1,-2.943996489E-1,-4.052175879E-1
4.086450416E0,-5.713911653E-1,-2.662998736E-1,-3.984980881E-1
4.088863437E0,-5.616173744E-1,-2.400326878E-1,-3.911677003E-1
4.091275521E0,-5.469565988E-1,-2.137655020E-1,-3.795612752E-1
4.093686875E0,-5.286306739E-1,-1.881091744E-1,-3.710091710E-1
4.096099010E0,-5.048069358E-1,-1.642854512E-1,-3.594027460E-1
4.098511979E0,-4.797615111E-1,-1.398508698E-1,-3.465745747E-1
4.100924114E0,-4.516617358E-1,-1.154162735E-1,-3.313029706E-1
4.103335468E0,-4.198967516E-1,-9.220340848E-2,-3.141987622E-1
4.105747604E0,-3.838557601E-1,-7.265574485E-2,-2.977054119E-1
4.108160573E0,-3.484255970E-1,-5.555153638E-2,-2.812120616E-1
4.110572656E0,-3.087193966E-1,-3.905818984E-2,-2.628861070E-1
4.112984010E0,-2.665697336E-1,-2.561916225E-2,-2.433384359E-1
4.115396198E0,-2.256417722E-1,-1.340186782E-2,-2.237907797E-1
4.117809166E0,-1.841029674E-1,-3.017166862E-3,-2.042431086E-1
4.120221250E0,-1.425641626E-1,8.589262143E-3,-1.840845644E-1
4.122632604E0,-9.919277579E-2,1.897396334E-2,-1.602608413E-1
4.125044739E0,-5.582137406E-2,3.119125776E-2,-1.352154016E-1
4.127457760E0,-1.428257488E-2,4.340855032E-2,-1.126133949E-1
4.129869843E0,2.908881940E-2,5.440411717E-2,-8.756794780E-2
4.132281198E0,7.062762231E-2,6.539967656E-2,-6.130076200E-2
4.134693333E0,1.121664196E-1,7.273006439E-2,-3.381185234E-2
4.137106302E0,1.543160826E-1,8.006043732E-2,-6.933800876E-3
4.139518437E0,1.928005666E-1,8.494734764E-2,1.811165176E-2
4.141929791E0,2.288415879E-1,8.800168335E-2,4.376797378E-2
4.144341927E0,2.624391317E-1,9.044513106E-2,7.370033860E-2
4.146754896E0,2.923715115E-1,9.411032498E-2,1.018001139E-1
4.149166979E0,3.186386824E-1,9.838637710E-2,1.323433518E-1
4.151578333E0,3.406298161E-1,1.044950187E-1,1.628865898E-1
4.153990521E0,3.571231663E-1,1.124362648E-1,1.915972382E-1
4.156403489E0,3.717839122E-1,1.185449064E-1,2.215296030E-1
4.158815573E0,3.833903372E-1,1.270970106E-1,2.502402663E-1
4.161226927E0,3.901098669E-1,1.338165253E-1,2.777291536E-1
4.163639062E0,3.919424415E-1,1.393143088E-1,3.046072125E-1
4.166052083E0,3.925532997E-1,1.442012340E-1,3.308743834E-1
4.168464166E0,3.919424415E-1,1.496990174E-1,3.559198380E-1
4.170875521E0,3.846120834E-1,1.527533382E-1,3.785218298E-1
4.173287656E0,3.772816956E-1,1.515316069E-1,4.035672843E-1
4.175700625E0,3.662861288E-1,1.503098756E-1,4.255584180E-1
4.178112708E0,3.528470993E-1,1.423686296E-1,4.481604099E-1
4.180524114E0,3.357428908E-1,1.325947940E-1,4.701515436E-1
4.182936250E0,3.155843616E-1,1.228209585E-1,4.903100729E-1
4.185349218E0,2.942040861E-1,1.124362648E-1,5.104686022E-1
4.187761302E0,2.691586316E-1,1.014406979E-1,5.281836987E-1
4.190172656E0,2.410588712E-1,8.739081025E-2,5.471205115E-1
4.192584791E0,2.129590958E-1,7.273006439E-2,5.660573244E-1
4.194997812E0,1.811941415E-1,5.684757233E-2,5.819398165E-1
4.197409896E0,1.506509036E-1,3.913249820E-2,5.966005325E-1
4.199821250E0,1.188859344E-1,1.775223203E-2,6.137047410E-1
4.202233385E0,8.406664431E-2,-3.628032515E-3,6.283655167E-1
4.204646354E0,4.680389911E-2,-2.378656901E-2,6.399719119E-1
4.207058489E0,9.541149251E-3,-4.699942842E-2,6.528000832E-1
4.209469843E0,-2.833246253E-2,-7.082314789E-2,6.644065380E-1
4.211881979E0,-6.742780656E-2,-9.464687109E-2,6.723477840E-1
4.214294948E0,-1.083557457E-1,-1.160271466E-1,6.815107465E-1
4.216707031E0,-1.480619460E-1,-1.355748177E-1,6.912845969E-1
4.219118385E0,-1.902116090E-1,-1.526790261E-1,6.980040669E-1
4.221530573E0,-2.299178243E-1,-1.703941077E-1,7.047235966E-1
4.223943541E0,-2.720675170E-1,-1.856657267E-1,7.102213502E-1
4.226355625E0,-3.111628592E-1,-1.991047412E-1,7.163300514E-1
4.228766979E0,-3.490364552E-1,-2.119328976E-1,7.218278050E-1
4.231179114E0,-3.850774765E-1,-2.265936583E-1,7.273256183E-1
4.233592135E0,-4.211184978E-1,-2.382000834E-1,7.291581631E-1
4.236004218E0,-4.559377730E-1,-2.479739189E-1,7.291581631E-1
4.238415573E0,-4.870918989E-1,-2.601912320E-1,7.297690511E-1
4.240827708E0,-5.170242190E-1,-2.724085152E-1,7.285473347E-1
4.243240677E0,-5.451239944E-1,-2.858475447E-1,7.248821259E-1
4.245652760E0,-5.707803369E-1,-3.005082905E-1,7.206060886E-1
4.248064166E0,-5.946040750E-1,-3.133364618E-1,7.163300514E-1
4.250476302E0,-6.172060370E-1,-3.261646330E-1,7.102213502E-1
4.252889271E0,-6.398080587E-1,-3.402145207E-1,7.016692758E-1
4.255301354E0,-6.617991924E-1,-3.560969830E-1,6.949497461E-1
4.257712708E0,-6.825685501E-1,-3.701468706E-1,6.857867837E-1
4.260124896E0,-7.057814002E-1,-3.841967583E-1,6.735695004E-1
4.262537864E0,-7.265508175E-1,-4.037444293E-1,6.601305008E-1
4.264949948E0,-7.479310632E-1,-4.239029884E-1,6.436371207E-1
4.267361302E0,-7.705330849E-1,-4.471158385E-1,6.277546287E-1
4.269773437E0,-7.925242186E-1,-4.715504348E-1,6.094287038E-1
4.272186458E0,-8.151262403E-1,-4.947632849E-1,5.886592865E-1
4.274598541E0,-8.346738815E-1,-5.204195380E-1,5.703333616E-1
4.277009896E0,-8.548324108E-1,-5.442432761E-1,5.495639443E-1
4.279422031E0,-8.731583357E-1,-5.650126934E-1,5.269619823E-1
4.281835000E0,-8.872082233E-1,-5.851712227E-1,5.031382442E-1
4.284247083E0,-9.000363946E-1,-5.998319983E-1,4.793145061E-1
4.286658437E0,-9.085885286E-1,-6.114383936E-1,4.548799396E-1
4.289070625E0,-9.153079987E-1,-6.193796396E-1,4.280018806E-1
4.291483593E0,-9.177514911E-1,-6.260991693E-1,4.017347097E-1
4.293895677E0,-9.165297747E-1,-6.273208857E-1,3.766892552E-1
4.296307031E0,-9.098102450E-1,-6.230448484E-1,3.492003381E-1
4.298719166E0,-9.000363946E-1,-6.120492816E-1,3.198788166E-1
4.301132187E0,-8.878191113E-1,-5.931124687E-1,2.875030041E-1
4.303544271E0,-8.682714701E-1,-5.705105066E-1,2.551271617E-1
4.305955625E0,-8.450585604E-1,-5.424107313E-1,2.209187448E-1
4.308367760E0,-8.181805611E-1,-5.075914264E-1,1.848777235E-1
4.310780729E0,-7.888590097E-1,-4.709395468E-1,1.488367021E-1
4.313192864E0,-7.564831972E-1,-4.324550927E-1,1.134065464E-1
4.315604218E0,-7.210530639E-1,-3.909162879E-1,7.797639817E-2
4.318016354E0,-6.825685501E-1,-3.451014161E-1,4.376797378E-2
4.320429323E0,-6.422514915E-1,-2.943996489E-1,5.894355476E-3
4.322841406E0,-5.988801122E-1,-2.436978668E-1,-3.014666215E-2
4.325252760E0,-5.530652404E-1,-1.966612786E-1,-6.618767977E-2
4.327664948E0,-5.035852194E-1,-1.539007574E-1,-1.034504324E-1
4.330077916E0,-4.528834522E-1,-1.172488630E-1,-1.425457746E-1
4.332490000E0,-3.991273642E-1,-8.609476686E-2,-1.816411167E-1
4.334901354E0,-3.404843509E-1,-6.104931980E-2,-2.176821381E-1
4.337313489E0,-2.806196213E-1,-3.539299965E-2,-2.512796819E-1
4.339726510E0,-2.183113992E-1,-1.279100310E-2,-2.763251364E-1
4.342138593E0,-1.560031921E-1,1.530877315E-2,-2.958728075E-1
4.344549948E0,-9.247326106E-2,4.768460244E-2,-3.074792325E-1
4.346962083E0,-2.894332819E-2,8.372563124E-2,-3.129770160E-1
4.349375052E0,3.153228015E-2,1.258752793E-1,-3.172530830E-1
4.351787187E0,9.750566632E-2,1.710792780E-1,-3.160313368E-1
4.354198541E0,1.622573286E-1,2.242245078E-1,-3.160313368E-1
4.356610677E0,2.318959087E-1,2.816457748E-1,-3.111444414E-1
4.359023646E0,3.021453321E-1,3.408996463E-1,-3.025923371E-1
4.361435729E0,3.742273748E-1,4.025969803E-1,-2.915967703E-1
4.363847083E0,4.518072009E-1,4.642943144E-1,-2.781577408E-1
4.366259271E0,5.306087732E-1,5.290459991E-1,-2.598317862E-1
4.368672239E0,6.100211740E-1,5.925759673E-1,-2.396732569E-1
4.371084323E0,6.888227463E-1,6.506081223E-1,-2.189038545E-1
4.373495677E0,7.694568634E-1,7.061967850E-1,-1.963018626E-1
4.375907812E0,8.482584357E-1,7.575094104E-1,-1.749216020E-1
4.378320781E0,9.246165156E-1,8.045459986E-1,-1.572065204E-1
4.380732916E0,9.985311627E-1,8.436413407E-1,-1.413240433E-1
4.383144271E0,1.068169713E0,8.754063249E-1,-1.266632825E-1
4.385556406E0,1.133532166E0,8.992300630E-1,-1.138351262E-1
4.387969375E0,1.194007754E0,9.157233834E-1,-1.046721637E-1
4.390381510E0,1.248985648E0,9.199994206E-1,-9.612005204E-2
4.392792864E0,1.294800520E0,9.151124954E-1,-8.573535085E-2
4.395205000E0,1.336339235E0,8.973974586E-1,-7.290719450E-2
4.397617968E0,1.369325995E0,8.699085116E-1,-5.763557553E-2
4.400030052E0,1.395593166E0,8.283697367E-1,-3.808790445E-2
4.402441406E0,1.412086487E0,7.807222605E-1,-1.548590884E-2
4.404853541E0,1.417584300E0,7.257444859E-1,1.017040946E-2
4.407266562E0,1.404756069E0,6.817622185E-1,3.643759340E-2
4.409678646E0,1.352221727E0,6.909251809E-1,6.514823437E-2
4.412090000E0,1.250818253E0,7.709484696E-1,1.054653078E-1
4.414502135E0,1.102988958E0,9.120581746E-1,1.543344855E-1
4.416915104E0,9.233947992E-1,1.090430737E0,2.135883570E-1
4.419327239E0,7.266963720E-1,1.263916254E0,2.771182954E-1
4.421738593E0,5.306087732E-1,1.396473885E0,3.382047713E-1
4.424150729E0,3.418515325E-1,1.464890718E0,3.937934637E-1
4.426563698E0,1.671442389E-1,1.463669062E0,4.426626265E-1
4.428975781E0,7.097690832E-3,1.397695661E0,4.805362523E-1
4.431387135E0,-1.395098418E-1,1.269414067E0,5.092468858E-1
4.433799323E0,-2.720675170E-1,1.088598132E0,5.324597359E-1
4.436212291E0,-3.954621851E-1,8.686867952E-1,5.501748323E-1
4.438624375E0,-5.121372938E-1,6.206757426E-1,5.599486828E-1
4.441035729E0,-6.202603579E-1,3.537278175E-1,5.654464364E-1
4.443447864E0,-7.192204595E-1,8.433648944E-2,5.648355484E-1
4.445860885E0,-8.102393150E-1,-1.789462119E-1,5.617812276E-1
4.448272968E0,-8.933169246E-1,-4.190160632E-1,5.654464364E-1
4.450684323E0,-9.678424001E-1,-6.163253188E-1,5.782746077E-1
4.453096458E0,-1.032594085E0,-7.684306502E-1,6.027091742E-1
4.455509427E0,-1.090015411E0,-8.814406395E-1,6.314198375E-1
4.457921562E0,-1.143160582E0,-9.571878314E-1,6.540217996E-1
4.460332916E0,-1.189586401E0,-1.009722233E0,6.705151796E-1
4.462745052E0,-1.230514288E0,-1.043930650E0,6.827324629E-1
4.465158021E0,-1.267166138E0,-1.064089179E0,6.876193881E-1
4.467570104E0,-1.300763726E0,-1.071419597E0,6.894519925E-1
4.469981458E0,-1.331306934E0,-1.067754388E0,6.894519925E-1
4.472393593E0,-1.357574105E0,-1.057369709E0,6.863976717E-1
4.474806614E0,-1.378954411E0,-1.039043665E0,6.827324629E-1
4.477218698E0,-1.396058679E0,-1.010943890E0,6.784564257E-1
4.479630052E0,-1.410108566E0,-9.791789651E-1,6.754021049E-1
4.482042187E0,-1.423547506E0,-9.425271153E-1,6.711260676E-1
4.484455208E0,-1.436375737E0,-8.985448480E-1,6.686825752E-1
4.486867291E0,-1.444927812E0,-8.466213346E-1,6.637956500E-1
4.489278646E0,-1.453479886E0,-7.843131423E-1,6.540217996E-1
4.491690781E0,-1.457145095E0,-7.097876072E-1,6.393610835E-1
4.494103750E0,-1.456534266E0,-6.303752065E-1,6.222568750E-1
4.496515833E0,-1.452258229E0,-5.430215597E-1,5.990440249E-1
4.498927239E0,-1.441873431E0,-4.526136220E-1,5.733876824E-1
4.501339375E0,-1.424769282E0,-3.573187292E-1,5.452879071E-1
4.503752343E0,-1.400334716E0,-2.583586276E-1,5.141338110E-1
4.506164427E0,-1.371623993E0,-1.642854512E-1,4.805362523E-1
4.508575781E0,-1.338637352E0,-7.143401355E-2,4.457169473E-1
4.510987916E0,-1.300152898E0,1.591963880E-2,4.090650678E-1
4.513400937E0,-1.256170630E0,9.960810840E-2,3.705805838E-1
4.515813021E0,-1.209133983E0,1.820748448E-1,3.296526670E-1
4.518224375E0,-1.158432245E0,2.584329247E-1,2.862812579E-1
4.520636510E0,-1.108341336E0,3.286823630E-1,2.435207367E-1
4.523049479E0,-1.058250427E0,3.922123015E-1,2.025927901E-1
4.525461614E0,-1.006326914E0,4.514661729E-1,1.634974480E-1
4.527872968E0,-9.519599080E-1,5.052223206E-1,1.250129789E-1
4.530285104E0,-8.975929618E-1,5.583675504E-1,8.775023371E-2
4.532698073E0,-8.413934112E-1,6.127344966E-1,5.048748106E-2
4.535110156E0,-7.870264053E-1,6.634362340E-1,1.444646157E-2
4.537521562E0,-7.326594591E-1,7.086402178E-1,-1.915109903E-2
4.539933698E0,-6.795142293E-1,7.446812391E-1,-4.908347130E-2
4.542346666E0,-6.294233203E-1,7.727810144E-1,-7.657238096E-2
4.544758750E0,-5.756672621E-1,7.941613197E-1,-1.010069698E-1
4.547170104E0,-5.194677114E-1,8.057677150E-1,-1.248306930E-1
4.549582239E0,-4.657116234E-1,8.063786030E-1,-1.486544162E-1
4.551995260E0,-4.095120728E-1,7.947721481E-1,-1.718672812E-1
4.554407343E0,-3.557559848E-1,7.721701860E-1,-1.920258105E-1
4.556818698E0,-2.989455462E-1,7.385725975E-1,-2.072974294E-1
4.559230833E0,-2.421351224E-1,7.006990314E-1,-2.219581902E-1
4.561643802E0,-1.865464300E-1,6.658797264E-1,-2.347863317E-1
4.564055937E0,-1.297360063E-1,6.286169887E-1,-2.445601821E-1
4.566467291E0,-7.109299302E-2,5.895216465E-1,-2.531122863E-1
4.568879427E0,-1.061738655E-2,5.516480207E-1,-2.604426742E-1
4.571292396E0,4.741476476E-2,5.174396038E-1,-2.683838904E-1
4.573704479E0,1.066686362E-1,4.850637019E-1,-2.738816738E-1
4.576115833E0,1.647007912E-1,4.502444267E-1,-2.787685990E-1
4.578528021E0,2.202894837E-1,4.209229350E-1,-2.873207033E-1
4.580940989E0,2.752672732E-1,3.970991969E-1,-2.952619493E-1
4.583353073E0,3.290233910E-1,3.787732720E-1,-3.044249117E-1
4.585764427E0,3.803360164E-1,3.622799218E-1,-3.141987622E-1
4.588176562E0,4.273726046E-1,3.457865715E-1,-3.258051872E-1
4.590589583E0,4.719657302E-1,3.299040794E-1,-3.325246871E-1
4.593001666E0,5.098393559E-1,3.109672964E-1,-3.392442167E-1
4.595413021E0,5.446586609E-1,2.871435583E-1,-3.422985375E-1
4.597825156E0,5.721475482E-1,2.590437829E-1,-3.422985375E-1
4.600238125E0,5.923060775E-1,2.272788435E-1,-3.435202539E-1
4.602650208E0,6.075777411E-1,1.949030012E-1,-3.441311419E-1
4.605061614E0,6.197950244E-1,1.680249572E-1,-3.404659331E-1
4.607473750E0,6.277362704E-1,1.417577714E-1,-3.368007541E-1
4.609886718E0,6.283470988E-1,1.234318316E-1,-3.319138288E-1
4.612298802E0,6.142972112E-1,1.246535629E-1,-3.233617246E-1
4.614710156E0,5.806996822E-1,1.478664130E-1,-3.074792325E-1
4.617122343E0,5.281652808E-1,1.869617552E-1,-2.836555243E-1
4.619535312E0,4.597484171E-1,2.425504476E-1,-2.598317862E-1
4.621947396E0,3.797251582E-1,3.079129457E-1,-2.347863317E-1
4.624358750E0,2.911497653E-1,3.793841302E-1,-2.054648399E-1
4.626770885E0,1.964657456E-1,4.490227103E-1,-1.749216020E-1
4.629183854E0,1.048360467E-1,5.058331490E-1,-1.437675059E-1
4.631595989E0,1.748239063E-2,5.485936999E-1,-1.156677306E-1
4.634007343E0,-6.498435140E-2,5.705848336E-1,-9.062226862E-2
4.636419479E0,-1.431750357E-1,5.754717588E-1,-7.046373188E-2
4.638832448E0,-2.128136158E-1,5.571457744E-1,-5.397038907E-2
4.641244531E0,-2.781761587E-1,5.137743950E-1,-4.175309092E-2
4.643655937E0,-3.374300301E-1,4.435249269E-1,-3.381185234E-2
4.646068073E0,-3.893535435E-1,3.580038548E-1,-3.320098668E-2
4.648481041E0,-4.357792437E-1,2.657632828E-1,-3.869877011E-2
4.650893125E0,-4.742637277E-1,1.631380320E-1,-4.908347130E-2
4.653304479E0,-5.060286522E-1,6.173449010E-2,-6.130076200E-2
4.655716614E0,-5.316849947E-1,-3.294954076E-2,-6.985286623E-2
4.658129635E0,-5.512326360E-1,-1.105293632E-1,-7.351806015E-2
4.660541718E0,-5.652825236E-1,-1.648963243E-1,-7.535064965E-2
4.662953073E0,-5.732237697E-1,-1.978830099E-1,-7.229632884E-2
4.665365208E0,-5.756672621E-1,-2.094894499E-1,-6.496594846E-2
4.667778229E0,-5.744454861E-1,-1.942178309E-1,-5.763557553E-2
4.670190312E0,-5.726129413E-1,-1.612311304E-1,-4.786173999E-2
4.672601666E0,-5.658934116E-1,-1.166380048E-1,-3.992049396E-2
4.675013802E0,-5.585630536E-1,-5.921672285E-2,-3.869877011E-2
4.677426771E0,-5.494000316E-1,8.589262143E-3,-4.053135961E-2
4.679838854E0,-5.384044647E-1,8.494734764E-2,-4.236395657E-2
4.682250260E0,-5.261871815E-1,1.686358154E-1,-4.725087434E-2
4.684662396E0,-5.164133906E-1,2.572111785E-1,-4.847260565E-2
4.687075364E0,-5.035852194E-1,3.543386757E-1,-4.725087434E-2
4.689487448E0,-4.846484363E-1,4.563530982E-1,-4.480741918E-2
4.691898802E0,-4.583812356E-1,5.577566624E-1,-3.808790445E-2
4.694310989E0,-4.235619605E-1,6.683231592E-1,-2.525974438E-2
4.696723958E0,-3.801905513E-1,7.941613197E-1,-8.766397834E-3
4.699136041E0,-3.264344633E-1,9.279406667E-1,1.566819288E-2
4.701547396E0,-2.684023082E-1,1.064163566E0,4.010278359E-2
4.703959531E0,-2.060941011E-1,1.189390779E0,5.781786144E-2
4.706372500E0,-1.431750357E-1,1.302400708E0,7.370033860E-2
4.708784635E0,-8.453202248E-2,1.400139093E0,8.836109191E-2
4.711195989E0,-2.894332819E-2,1.477108121E0,1.042435765E-1
4.713608125E0,2.114757895E-2,1.535140157E0,1.195151955E-1
4.716021093E0,6.451897323E-2,1.573624730E0,1.366194040E-1
4.718433177E0,1.017817184E-1,1.595004916E0,1.500584334E-1
4.720844531E0,1.317140907E-1,1.598670125E0,1.616648585E-1
4.723256718E0,1.573704034E-1,1.584620237E0,1.751038879E-1
4.725669687E0,1.787506789E-1,1.557742238E0,1.867103130E-1
4.728081771E0,1.946331561E-1,1.520479441E0,1.946515590E-1
4.730493125E0,2.050178647E-1,1.473442912E0,2.007602006E-1
4.732905260E0,2.117373645E-1,1.419686794E0,2.074797153E-1
4.735318281E0,2.092939168E-1,1.367152452E0,2.068688571E-1
4.737730364E0,1.995200813E-1,1.316450596E0,2.001493424E-1
4.740141718E0,1.750854850E-1,1.273079276E0,1.903755069E-1
4.742553854E0,1.402661949E-1,1.239481688E0,1.806016713E-1
4.744966823E0,9.445134550E-2,1.216268778E0,1.732712835E-1
4.747378958E0,4.374957457E-2,1.200997233E0,1.671626419E-1
4.749790312E0,-1.183911599E-2,1.197942853E0,1.604431272E-1
4.752202448E0,-6.742780656E-2,1.200386405E0,1.555562168E-1
4.754615416E0,-1.242382228E-1,1.210771084E0,1.500584334E-1
4.757027500E0,-1.816595048E-1,1.230318666E0,1.427280456E-1
4.759438854E0,-2.348047346E-1,1.252309799E0,1.360085458E-1
4.761851041E0,-2.830630839E-1,1.272468328E0,1.317324787E-1
4.764264010E0,-3.246018589E-1,1.285907388E0,1.274564266E-1
4.766676093E0,-3.594211638E-1,1.294459462E0,1.244021133E-1
4.769087448E0,-3.881317973E-1,1.296292067E0,1.237912551E-1
4.771499583E0,-4.131772518E-1,1.291405201E0,1.213477850E-1
4.773912604E0,-4.296706021E-1,1.274300933E0,1.225695238E-1
4.776324687E0,-4.382227063E-1,1.245590329E0,1.244021133E-1
4.778736041E0,-4.431096315E-1,1.213825345E0,1.250129789E-1
4.781148177E0,-4.431096315E-1,1.176562667E0,1.244021133E-1
4.783561146E0,-4.394444525E-1,1.133191228E0,1.250129789E-1
4.785973281E0,-4.351683855E-1,1.088598132E0,1.250129789E-1
4.788384635E0,-4.315032065E-1,1.045837522E0,1.256238371E-1
4.790796771E0,-4.260054231E-1,1.001855254E0,1.262347102E-1
4.793209739E0,-4.211184978E-1,9.584839344E-1,1.268455684E-1
4.795621823E0,-4.150098562E-1,9.132799506E-1,1.298998892E-1
4.798033177E0,-4.082903266E-1,8.711302876E-1,1.353976727E-1
4.800445312E0,-4.027925432E-1,8.369218111E-1,1.390628666E-1
4.802858333E0,-3.991273642E-1,8.088220358E-1,1.427280456E-1
4.805270416E0,-4.015708268E-1,7.886635065E-1,1.470040977E-1
4.807681771E0,-4.027925432E-1,7.721701860E-1,1.518910229E-1
4.810093906E0,-4.058468640E-1,7.636180520E-1,1.561670750E-1
4.812506927E0,-4.119555354E-1,7.642289400E-1,1.622757316E-1
4.814919010E0,-4.186750352E-1,7.691158652E-1,1.689952314E-1
4.817330364E0,-4.272271395E-1,7.788897157E-1,1.769364774E-1
4.819742500E0,-4.363901019E-1,7.911069989E-1,1.860994548E-1
4.822155468E0,-4.455530941E-1,8.063786030E-1,1.958732903E-1
4.824567552E0,-4.565486610E-1,8.228719234E-1,2.068688571E-1
4.826978958E0,-4.657116234E-1,8.357000947E-1,2.178644091E-1
4.829391093E0,-4.718202651E-1,8.466956615E-1,2.282491177E-1
4.831804062E0,-4.815941155E-1,8.595238328E-1,2.386338115E-1
4.834216146E0,-4.901462197E-1,8.705193996E-1,2.496293634E-1
4.836627500E0,-4.956440032E-1,8.815149665E-1,2.587923706E-1
4.839039635E0,-5.005308986E-1,8.900670409E-1,2.685661912E-1
4.841452656E0,-5.023635030E-1,8.961757421E-1,2.758965790E-1
4.843864739E0,-5.035852194E-1,8.986191750E-1,2.838377953E-1
4.846276093E0,-5.035852194E-1,8.980082870E-1,2.954442203E-1
4.848688229E0,-5.029743314E-1,8.955648541E-1,3.070506752E-1
4.851101198E0,-5.017526150E-1,8.888453245E-1,3.186571002E-1
4.853513333E0,-4.980874360E-1,8.747954369E-1,3.327069879E-1
4.855924687E0,-4.932005405E-1,8.583021164E-1,3.461460173E-1
4.858336823E0,-4.858701527E-1,8.363109827E-1,3.595850170E-1
4.860749791E0,-4.767071903E-1,8.112655282E-1,3.699697256E-1
4.863161875E0,-4.644898772E-1,7.856091857E-1,3.815761507E-1
4.865573281E0,-4.516617358E-1,7.617854476E-1,3.901282549E-1
4.867985416E0,-4.339466691E-1,7.373508811E-1,4.005129635E-1
4.870398385E0,-4.180641770E-1,7.165814638E-1,4.084542096E-1
4.872810468E0,-4.003491104E-1,6.976447105E-1,4.163954556E-1
4.875221823E0,-3.832448721E-1,6.811513305E-1,4.231149554E-1
4.877633958E0,-3.710275888E-1,6.622145176E-1,4.286127388E-1
4.880046979E0,-3.618646264E-1,6.402233839E-1,4.347213805E-1
4.882459062E0,-3.557559848E-1,6.194540262E-1,4.377757013E-1
4.884870416E0,-3.527016342E-1,5.956302881E-1,4.420517683E-1
4.887282552E0,-3.539233804E-1,5.718065500E-1,4.444952309E-1
4.889695521E0,-3.575885594E-1,5.498154163E-1,4.451060891E-1
4.892107604E0,-3.563668430E-1,5.308786035E-1,4.481604099E-1
4.894519010E0,-3.557559848E-1,5.168287158E-1,4.530473351E-1
4.896931146E0,-3.551450968E-1,5.076657534E-1,4.585451186E-1
4.899344114E0,-3.545342386E-1,5.027788281E-1,4.646537602E-1
4.901756198E0,-3.545342386E-1,4.997244775E-1,4.689298272E-1
4.904167552E0,-3.563668430E-1,4.978918731E-1,4.713732600E-1
4.906579739E0,-3.569777012E-1,4.966701567E-1,4.750384688E-1
4.908992708E0,-3.606428802E-1,5.009462237E-1,4.768710434E-1
4.911404791E0,-3.612537682E-1,5.052223206E-1,4.793145061E-1
4.913816146E0,-3.624754846E-1,5.076657534E-1,4.793145061E-1
4.916228281E0,-3.630863428E-1,5.131635070E-1,4.793145061E-1
4.918641302E0,-3.649189472E-1,5.192722082E-1,4.787036479E-1
4.921053385E0,-3.673624098E-1,5.278242826E-1,4.774819314E-1
4.923464739E0,-3.691949844E-1,5.375981331E-1,4.744276106E-1
4.925876875E0,-3.685841262E-1,5.424850583E-1,4.701515436E-1
4.928289843E0,-3.698058724E-1,5.449284911E-1,4.664863646E-1
4.930701927E0,-3.722493052E-1,5.498154163E-1,4.622102976E-1
4.933113333E0,-3.734710515E-1,5.553132296E-1,4.585451186E-1
