"Time (s)","Gyroscope x (rad/s)","Gyroscope y (rad/s)","Gyroscope z (rad/s)"
5.118223900E-2,8.917787671E-1,2.614597231E-2,2.333586812E-1
5.250000000E-2,8.917787671E-1,2.614597231E-2,2.333586812E-1
5.500000000E-2,8.733612299E-1,5.464068800E-2,2.383568734E-1
1.350000000E-1,-8.057696372E-2,1.528309464E0,4.971271157E-1
1.375000000E-1,-8.773314208E-2,1.522351146E0,4.987065196E-1
1.400000000E-1,-9.911631048E-2,1.521191239E0,4.991427660E-1
1.425000000E-1,-1.140947491E-1,1.519378066E0,4.961504340E-1
1.450000000E-1,-1.317982227E-1,1.514384151E0,4.928153753E-1
1.475000000E-1,-1.468523443E-1,1.510381222E0,4.887832999E-1
1.500000000E-1,-1.621679962E-1,1.508211017E0,4.830769897E-1
1.525000000E-1,-1.776829213E-1,1.507041693E0,4.780725539E-1
1.550000000E-1,-1.970594525E-1,1.509201646E0,4.732956886E-1
1.575000000E-1,-2.125086933E-1,1.513922691E0,4.684334695E-1
1.600000000E-1,-2.294052988E-1,1.519181490E0,4.633096755E-1
1.625000000E-1,-2.449033260E-1,1.523342133E0,4.583227336E-1
1.650000000E-1,-2.622699142E-1,1.527754188E0,4.516226053E-1
1.675000000E-1,-2.795273364E-1,1.525815725E0,4.440533519E-1
1.700000000E-1,-2.958890796E-1,1.521238446E0,4.364360571E-1
1.725000000E-1,-3.155758381E-1,1.515720487E0,4.280992746E-1
1.750000000E-1,-3.340448141E-1,1.501836061E0,4.200984538E-1
1.775000000E-1,-3.517301381E-1,1.487085223E0,4.119177759E-1
1.800000000E-1,-3.691606522E-1,1.473554492E0,4.040473700E-1
1.825000000E-1,-3.881756067E-1,1.454876661E0,3.977602720E-1
1.850000000E-1,-4.058758616E-1,1.437854290E0,3.926130533E-1
1.875000000E-1,-4.221954048E-1,1.422197104E0,3.886432648E-1
1.900000000E-1,-4.394024611E-1,1.405725837E0,3.825760782E-1
1.925000000E-1,-4.556527436E-1,1.385718465E0,3.731985688E-1
1.950000000E-1,-4.714760780E-1,1.356633067E0,3.608253002E-1
1.975000000E-1,-4.864980280E-1,1.327298284E0,3.528807759E-1
2.000000000E-1,-5.027057528E-1,1.297554970E0,3.442825973E-1
2.025000000E-1,-5.233528018E-1,1.268693805E0,3.373285532E-1
2.050000000E-1,-5.443234444E-1,1.245598555E0,3.290567100E-1
2.075000000E-1,-5.624392033E-1,1.226362705E0,3.210900724E-1
2.100000000E-1,-5.804032683E-1,1.213734627E0,3.140829504E-1
2.125000000E-1,-5.995275974E-1,1.201546550E0,3.067269921E-1
2.150000000E-1,-6.152876019E-1,1.200139761E0,2.981936932E-1
2.175000000E-1,-6.285271049E-1,1.207479954E0,2.903824449E-1
2.200000000E-1,-6.366137862E-1,1.218810201E0,2.833669186E-1
2.225000000E-1,-6.422116756E-1,1.230371952E0,2.753040195E-1
2.250000000E-1,-6.491652727E-1,1.243446589E0,2.673386633E-1
2.275000000E-1,-6.530445218E-1,1.261501670E0,2.604511082E-1
2.300000000E-1,-6.567344666E-1,1.282255173E0,2.527565658E-1
2.325000000E-1,-6.616128683E-1,1.296682119E0,2.485127598E-1
2.350000000E-1,-6.624879837E-1,1.313314795E0,2.455340773E-1
2.375000000E-1,-6.607655287E-1,1.328703403E0,2.446555346E-1
2.400000000E-1,-6.571165919E-1,1.345427752E0,2.416058481E-1
2.425000000E-1,-6.590285301E-1,1.365664840E0,2.359987199E-1
2.450000000E-1,-6.621824503E-1,1.374872565E0,2.310057729E-1
2.475000000E-1,-6.639249921E-1,1.379522085E0,2.243634313E-1
2.500000000E-1,-6.679363847E-1,1.382817268E0,2.183983028E-1
2.525000000E-1,-6.723078489E-1,1.381989956E0,2.135569900E-1
2.550000000E-1,-6.798402071E-1,1.380190492E0,2.090473026E-1
2.575000000E-1,-6.922461390E-1,1.373092651E0,2.061281353E-1
2.600000000E-1,-7.031971216E-1,1.361486554E0,2.021606266E-1
2.625000000E-1,-7.149861455E-1,1.353229642E0,1.984922886E-1
2.650000000E-1,-7.262316942E-1,1.349202991E0,1.960134804E-1
2.675000000E-1,-7.374027371E-1,1.343038678E0,1.940302253E-1
2.700000000E-1,-7.520461082E-1,1.337167978E0,1.903196871E-1
2.725000000E-1,-7.657669187E-1,1.325841427E0,1.887791753E-1
2.750000000E-1,-7.831417322E-1,1.315943837E0,1.876939237E-1
2.775000000E-1,-7.943601608E-1,1.304890513E0,1.895062029E-1
2.800000000E-1,-8.095953465E-1,1.298745990E0,1.895895302E-1
2.825000000E-1,-8.250989318E-1,1.296309829E0,1.882606447E-1
2.850000000E-1,-8.385795951E-1,1.298214197E0,1.863131970E-1
2.875000000E-1,-8.510746360E-1,1.297829866E0,1.833033413E-1
2.900000000E-1,-8.678144813E-1,1.296040893E0,1.805415452E-1
2.925000000E-1,-8.816153407E-1,1.300445199E0,1.792104095E-1
2.950000000E-1,-8.944788575E-1,1.310790181E0,1.755851507E-1
2.975000000E-1,-9.071616530E-1,1.317131639E0,1.721116900E-1
3.000000000E-1,-9.211986661E-1,1.323842764E0,1.691916734E-1
3.025000000E-1,-9.336382151E-1,1.330277920E0,1.643139124E-1
3.050000000E-1,-9.474320412E-1,1.334434867E0,1.613648385E-1
3.075000000E-1,-9.606532454E-1,1.335275650E0,1.588094831E-1
3.100000000E-1,-9.701342583E-1,1.336607456E0,1.546642631E-1
3.125000000E-1,-9.807945490E-1,1.334410310E0,1.517848670E-1
3.150000000E-1,-9.901224971E-1,1.331440330E0,1.491547823E-1
3.175000000E-1,-9.975846410E-1,1.325912595E0,1.477931738E-1
3.200000000E-1,-1.003571510E0,1.315170765E0,1.460001320E-1
3.225000000E-1,-1.008239627E0,1.298133254E0,1.468779743E-1
3.250000000E-1,-1.010285378E0,1.279215097E0,1.493493021E-1
3.275000000E-1,-1.008632064E0,1.256311655E0,1.518374085E-1
3.300000000E-1,-1.006458521E0,1.234570503E0,1.529248953E-1
3.325000000E-1,-9.981400371E-1,1.210227132E0,1.537915766E-1
3.350000000E-1,-9.894853830E-1,1.182928920E0,1.549914628E-1
3.375000000E-1,-9.742370844E-1,1.154587507E0,1.541535258E-1
3.400000000E-1,-9.573408365E-1,1.117266297E0,1.542284340E-1
3.425000000E-1,-9.429748654E-1,1.080654383E0,1.501595378E-1
3.450000000E-1,-9.231894612E-1,1.051715374E0,1.435313672E-1
3.475000000E-1,-8.976511955E-1,1.027462363E0,1.342370063E-1
3.500000000E-1,-8.699456453E-1,1.004510045E0,1.232214123E-1
3.525000000E-1,-8.432334661E-1,9.831846356E-1,1.095212102E-1
3.550000000E-1,-8.115345240E-1,9.591956139E-1,9.548863024E-2
3.575000000E-1,-7.834799886E-1,9.310714602E-1,7.821360230E-2
3.600000000E-1,-7.537826300E-1,9.047703743E-1,6.177718565E-2
3.625000000E-1,-7.225416899E-1,8.763716817E-1,4.648907855E-2
3.650000000E-1,-6.891229749E-1,8.447790146E-1,2.796327136E-2
3.675000000E-1,-6.563050747E-1,8.101400137E-1,1.096152328E-2
3.700000000E-1,-6.231004000E-1,7.709483504E-1,-6.111932918E-3
3.725000000E-1,-5.875819921E-1,7.314904928E-1,-2.433163300E-2
3.750000000E-1,-5.491393805E-1,7.061461806E-1,-4.448662326E-2
3.775000000E-1,-5.153399706E-1,6.868457198E-1,-6.573604792E-2
3.800000000E-1,-4.820626974E-1,6.484951377E-1,-8.519776165E-2
3.825000000E-1,-4.487844706E-1,6.026771069E-1,-1.037883833E-1
3.850000000E-1,-4.165308475E-1,5.664166212E-1,-1.232141256E-1
3.875000000E-1,-3.806348443E-1,5.366515517E-1,-1.395690739E-1
3.900000000E-1,-3.470893502E-1,5.133242011E-1,-1.556963176E-1
3.925000000E-1,-3.123444021E-1,4.967291355E-1,-1.713674963E-1
3.950000000E-1,-2.819202840E-1,4.846311212E-1,-1.859829724E-1
3.975000000E-1,-2.510801852E-1,4.708344638E-1,-1.988970339E-1
4.000000000E-1,-2.229069024E-1,4.596521556E-1,-2.115046084E-1
4.025000000E-1,-1.934886873E-1,4.509133101E-1,-2.229490876E-1
4.050000000E-1,-1.638585627E-1,4.442808330E-1,-2.322355360E-1
4.075000000E-1,-1.346072257E-1,4.405535460E-1,-2.410099953E-1
4.100000000E-1,-1.035133526E-1,4.347048998E-1,-2.489795387E-1
4.125000000E-1,-7.441339642E-2,4.280612171E-1,-2.541623712E-1
4.150000000E-1,-4.478802904E-2,4.177089334E-1,-2.593424618E-1
4.175000000E-1,-8.669395000E-3,4.068384767E-1,-2.589785159E-1
4.200000000E-1,2.482914180E-2,3.927461207E-1,-2.577668130E-1
4.225000000E-1,5.867084116E-2,3.759350479E-1,-2.561993599E-1
4.250000000E-1,9.911005944E-2,3.519611061E-1,-2.524955273E-1
4.275000000E-1,1.349415034E-1,3.391210437E-1,-2.516194284E-1
4.300000000E-1,1.686280966E-1,3.278855681E-1,-2.526941001E-1
4.325000000E-1,2.052570432E-1,3.053382933E-1,-2.533585429E-1
4.350000000E-1,2.442380786E-1,2.667839825E-1,-2.529878318E-1
4.375000000E-1,2.752780914E-1,2.246928513E-1,-2.535572052E-1
4.400000000E-1,3.129964769E-1,1.854699403E-1,-2.588720620E-1
4.425000000E-1,3.605954349E-1,1.749955118E-1,-2.698009610E-1
4.450000000E-1,4.186204076E-1,1.897064000E-1,-2.844880521E-1
4.475000000E-1,4.656380713E-1,1.708896011E-1,-2.945856750E-1
4.500000000E-1,5.051177740E-1,1.183395088E-1,-3.007459342E-1
4.525000000E-1,5.328888893E-1,4.987388477E-2,-3.064451218E-1
4.550000000E-1,5.595429540E-1,-2.258702740E-2,-3.134527504E-1
4.575000000E-1,5.883060098E-1,-7.172440737E-2,-3.242250979E-1
4.600000000E-1,6.173451543E-1,-9.837621450E-2,-3.395259082E-1
4.625000000E-1,6.517347693E-1,-1.158771068E-1,-3.544514477E-1
4.650000000E-1,6.864840388E-1,-1.309837550E-1,-3.680704534E-1
4.675000000E-1,7.205420136E-1,-1.445666105E-1,-3.827636242E-1
4.700000000E-1,7.544078231E-1,-1.658508480E-1,-3.978213072E-1
4.725000000E-1,7.862508893E-1,-1.875059754E-1,-4.131984413E-1
4.750000000E-1,8.205379248E-1,-2.028853893E-1,-4.286540449E-1
4.775000000E-1,8.591744304E-1,-2.205311954E-1,-4.452124536E-1
4.800000000E-1,8.990659714E-1,-2.411417812E-1,-4.637370110E-1
4.825000000E-1,9.345245957E-1,-2.632254660E-1,-4.782156646E-1
4.850000000E-1,9.724406600E-1,-2.884930670E-1,-4.915091991E-1
4.875000000E-1,1.013384223E0,-3.161809444E-1,-5.058358312E-1
4.900000000E-1,1.052329063E0,-3.479112089E-1,-5.240746737E-1
4.925000000E-1,1.091725111E0,-3.821649849E-1,-5.453388691E-1
4.950000000E-1,1.128957152E0,-4.182057679E-1,-5.685856342E-1
4.975000000E-1,1.163297534E0,-4.602451324E-1,-5.974678397E-1
5.000000000E-1,1.198122144E0,-5.076944232E-1,-6.297993660E-1
5.025000000E-1,1.234098911E0,-5.613137484E-1,-6.652773619E-1
5.050000000E-1,1.268303633E0,-6.194073558E-1,-7.082296014E-1
5.075000000E-1,1.302410722E0,-6.813082695E-1,-7.571988106E-1
5.100000000E-1,1.335194230E0,-7.532979846E-1,-8.130199313E-1
5.125000000E-1,1.376028061E0,-8.400734663E-1,-8.742474914E-1
5.150000000E-1,1.416857362E0,-9.319744110E-1,-9.406059384E-1
5.175000000E-1,1.452204347E0,-1.018686175E0,-1.014920592E0
5.200000000E-1,1.485457897E0,-1.102708578E0,-1.093117952E0
5.225000000E-1,1.515277863E0,-1.182807088E0,-1.175658584E0
5.250000000E-1,1.541760445E0,-1.260671377E0,-1.263950467E0
5.275000000E-1,1.567774177E0,-1.341970086E0,-1.360126734E0
5.300000000E-1,1.592031360E0,-1.426879168E0,-1.465547800E0
5.325000000E-1,1.610281229E0,-1.512375116E0,-1.578707337E0
5.350000000E-1,1.626139283E0,-1.603610516E0,-1.696338534E0
5.375000000E-1,1.632970929E0,-1.694523454E0,-1.813124657E0
5.400000000E-1,1.636682749E0,-1.790155649E0,-1.932768583E0
5.425000000E-1,1.627518058E0,-1.877809167E0,-2.054458618E0
5.450000000E-1,1.608424425E0,-1.959515691E0,-2.175971508E0
5.475000000E-1,1.584189653E0,-2.038617611E0,-2.297140598E0
5.500000000E-1,1.546968699E0,-2.110480070E0,-2.417384148E0
5.525000000E-1,1.498689055E0,-2.177574158E0,-2.533735991E0
5.550000000E-1,1.442114353E0,-2.232923508E0,-2.649900913E0
5.575000000E-1,1.373916268E0,-2.266892433E0,-2.760111332E0
5.600000000E-1,1.306387901E0,-2.295524120E0,-2.863212347E0
5.625000000E-1,1.225571394E0,-2.306114674E0,-2.961236715E0
5.650000000E-1,1.137561440E0,-2.301895857E0,-3.048620701E0
5.675000000E-1,1.046169639E0,-2.276295185E0,-3.124053001E0
5.700000000E-1,9.428252578E-1,-2.218973875E0,-3.191588879E0
5.725000000E-1,8.384723663E-1,-2.145874739E0,-3.248458385E0
5.750000000E-1,7.386944890E-1,-2.076060772E0,-3.287675142E0
5.775000000E-1,6.424231529E-1,-2.004934311E0,-3.303823233E0
5.800000000E-1,5.530530810E-1,-1.926744103E0,-3.296248674E0
5.825000000E-1,4.801157117E-1,-1.839060068E0,-3.267899275E0
5.850000000E-1,4.154400826E-1,-1.736080170E0,-3.199888706E0
5.875000000E-1,3.700339496E-1,-1.609633565E0,-3.066099882E0
5.900000000E-1,3.705251515E-1,-1.475056648E0,-2.865663528E0
5.925000000E-1,4.092420936E-1,-1.307018399E0,-2.613766193E0
5.950000000E-1,4.827814996E-1,-1.109259844E0,-2.326057673E0
5.975000000E-1,5.834953189E-1,-9.003968239E-1,-2.016392231E0
6.000000000E-1,7.041108012E-1,-6.866562963E-1,-1.700200438E0
6.025000000E-1,8.431799412E-1,-4.851326346E-1,-1.391132116E0
6.050000000E-1,1.000836968E0,-3.030772209E-1,-1.102075934E0
6.075000000E-1,1.178913116E0,-1.555176824E-1,-8.447738886E-1
6.100000000E-1,1.370904684E0,-5.360849574E-2,-6.221591234E-1
6.125000000E-1,1.564285755E0,8.954985999E-3,-4.294645190E-1
6.150000000E-1,1.759783745E0,3.638307750E-2,-2.728280425E-1
6.175000000E-1,1.951601028E0,4.154808074E-2,-1.549055576E-1
6.200000000E-1,2.137843609E0,2.989838086E-2,-7.335823774E-2
6.225000000E-1,2.314076900E0,3.150414443E-3,-2.228705026E-2
6.250000000E-1,2.474376678E0,-3.672280908E-2,6.347100716E-3
6.275000000E-1,2.620661497E0,-8.525931090E-2,2.499951236E-2
6.300000000E-1,2.746965647E0,-1.381052881E-1,4.078404233E-2
6.325000000E-1,2.865190506E0,-1.823321134E-1,5.607615784E-2
6.350000000E-1,2.963968992E0,-2.026936859E-1,7.005506009E-2
6.375000000E-1,3.038179636E0,-2.086154073E-1,7.428912818E-2
6.400000000E-1,3.086809158E0,-2.076471001E-1,6.712235510E-2
6.425000000E-1,3.113494635E0,-2.152497619E-1,5.528147146E-2
6.450000000E-1,3.117923021E0,-2.354462594E-1,4.155365005E-2
6.475000000E-1,3.102039814E0,-2.655845582E-1,2.909485064E-2
6.500000000E-1,3.069836617E0,-3.094164133E-1,1.215470210E-2
6.525000000E-1,3.017733574E0,-3.726654351E-1,-6.599354092E-3
6.550000000E-1,2.946446657E0,-4.614012539E-1,-2.002314664E-2
6.575000000E-1,2.858846188E0,-5.720050335E-1,-3.863692656E-2
6.600000000E-1,2.752918720E0,-6.674121022E-1,-7.506919652E-2
6.625000000E-1,2.641090393E0,-7.448384762E-1,-1.256842613E-1
6.650000000E-1,2.525663614E0,-8.252196908E-1,-1.895739436E-1
6.675000000E-1,2.398331404E0,-9.246861339E-1,-2.622076571E-1
6.700000000E-1,2.265427589E0,-1.048352718E0,-3.253746629E-1
6.725000000E-1,2.128758669E0,-1.184105515E0,-3.752846122E-1
6.750000000E-1,1.986045718E0,-1.334583163E0,-4.107680619E-1
6.775000000E-1,1.838167906E0,-1.482521415E0,-4.334352314E-1
6.800000000E-1,1.682963490E0,-1.614001870E0,-4.465494752E-1
6.825000000E-1,1.527007580E0,-1.726590991E0,-4.519775212E-1
6.850000000E-1,1.367690563E0,-1.815100670E0,-4.510633945E-1
6.875000000E-1,1.204982281E0,-1.874595642E0,-4.460169077E-1
6.900000000E-1,1.038174748E0,-1.898994565E0,-4.301395118E-1
6.925000000E-1,8.665930629E-1,-1.892709851E0,-4.047378600E-1
6.950000000E-1,7.001770735E-1,-1.860093117E0,-3.717762530E-1
6.975000000E-1,5.336140990E-1,-1.796725392E0,-3.350624442E-1
7.000000000E-1,3.660203218E-1,-1.703858376E0,-3.074235916E-1
7.025000000E-1,2.080840766E-1,-1.598820090E0,-2.844125330E-1
7.050000000E-1,5.878675357E-2,-1.493601441E0,-2.725801170E-1
7.075000000E-1,-8.350800723E-2,-1.395479918E0,-2.722688913E-1
7.100000000E-1,-2.201192081E-1,-1.294736743E0,-2.836046815E-1
7.125000000E-1,-3.509717882E-1,-1.196854353E0,-3.002846241E-1
7.150000000E-1,-4.777586460E-1,-1.101027846E0,-3.289735913E-1
7.175000000E-1,-5.927882195E-1,-1.018003702E0,-3.698780537E-1
7.200000000E-1,-6.924155354E-1,-9.363837838E-1,-4.188138247E-1
7.225000000E-1,-7.684319019E-1,-8.630264997E-1,-4.669272006E-1
7.250000000E-1,-8.253101707E-1,-8.020123839E-1,-5.082679987E-1
7.275000000E-1,-8.585479259E-1,-7.622601390E-1,-5.389794111E-1
7.300000000E-1,-8.709869981E-1,-7.425107956E-1,-5.563103557E-1
7.325000000E-1,-8.584381342E-1,-7.461685538E-1,-5.584833026E-1
7.350000000E-1,-8.251479864E-1,-7.701346278E-1,-5.490872860E-1
7.375000000E-1,-7.785476446E-1,-8.103402257E-1,-5.338212252E-1
7.400000000E-1,-7.140969634E-1,-8.661968112E-1,-5.120861530E-1
7.425000000E-1,-6.452590823E-1,-9.221817851E-1,-4.881556630E-1
7.450000000E-1,-5.732328892E-1,-9.754015803E-1,-4.646157026E-1
7.475000000E-1,-4.974957705E-1,-1.017840385E0,-4.397807419E-1
7.500000000E-1,-4.102796614E-1,-1.052494645E0,-4.111222923E-1
7.525000000E-1,-3.235050738E-1,-1.074605107E0,-3.798365593E-1
7.550000000E-1,-2.335413843E-1,-1.087081313E0,-3.425615728E-1
7.575000000E-1,-1.424619257E-1,-1.087717414E0,-3.023002446E-1
7.600000000E-1,-5.380607769E-2,-1.077144146E0,-2.562450469E-1
7.625000000E-1,3.112103976E-2,-1.060585380E0,-2.047160864E-1
7.650000000E-1,1.124135628E-1,-1.032261729E0,-1.499990970E-1
7.675000000E-1,1.933753043E-1,-9.949880838E-1,-9.775412083E-2
7.700000000E-1,2.737661302E-1,-9.480363727E-1,-4.766273126E-2
7.725000000E-1,3.468267322E-1,-8.911519051E-1,-1.270835754E-3
7.750000000E-1,4.148464501E-1,-8.226901889E-1,3.920315579E-2
7.775000000E-1,4.805143476E-1,-7.527732849E-1,7.607919723E-2
7.800000000E-1,5.385827422E-1,-6.731021404E-1,1.031856537E-1
7.825000000E-1,5.885644555E-1,-5.879381299E-1,1.242185980E-1
7.850000000E-1,6.326872706E-1,-4.996351600E-1,1.414573342E-1
7.875000000E-1,6.713734269E-1,-4.078548849E-1,1.515228301E-1
7.900000000E-1,6.996858716E-1,-3.277923465E-1,1.593126506E-1
7.925000000E-1,7.207081914E-1,-2.640841305E-1,1.697616577E-1
7.950000000E-1,7.294056416E-1,-2.163151801E-1,1.799519062E-1
7.975000000E-1,7.263572812E-1,-1.819728166E-1,1.897616982E-1
8.000000000E-1,7.131825089E-1,-1.716802716E-1,2.004925311E-1
8.025000000E-1,6.848769188E-1,-1.760541350E-1,2.091722935E-1
8.050000000E-1,6.509737372E-1,-1.918860525E-1,2.209752202E-1
8.075000000E-1,6.100941300E-1,-2.184737921E-1,2.347687036E-1
8.100000000E-1,5.637767911E-1,-2.487101406E-1,2.554239631E-1
8.125000000E-1,5.136896968E-1,-2.815133929E-1,2.791503966E-1
8.150000000E-1,4.624447227E-1,-3.133032918E-1,3.055558503E-1
8.175000000E-1,4.086180031E-1,-3.478339612E-1,3.359454870E-1
8.200000000E-1,3.553315103E-1,-3.835444152E-1,3.677499890E-1
8.225000000E-1,2.988388836E-1,-4.185628593E-1,4.038842022E-1
8.250000000E-1,2.450927049E-1,-4.548184872E-1,4.399885237E-1
8.275000000E-1,1.906167269E-1,-4.918707907E-1,4.755361676E-1
8.300000000E-1,1.341958791E-1,-5.243937969E-1,5.079666376E-1
8.325000000E-1,7.790981233E-2,-5.605168343E-1,5.325658917E-1
8.350000000E-1,2.383328788E-2,-5.916786194E-1,5.534442663E-1
8.375000000E-1,-3.014383465E-2,-6.172255874E-1,5.709609985E-1
8.400000000E-1,-8.783261478E-2,-6.380932331E-1,5.815972686E-1
8.425000000E-1,-1.461196989E-1,-6.521078348E-1,5.886932015E-1
8.450000000E-1,-2.022133470E-1,-6.593533754E-1,5.967386961E-1
8.475000000E-1,-2.586560249E-1,-6.648554206E-1,6.050835252E-1
8.500000000E-1,-3.111317158E-1,-6.680902243E-1,6.160019636E-1
8.525000000E-1,-3.605433106E-1,-6.681410670E-1,6.306285262E-1
8.550000000E-1,-4.076443017E-1,-6.658270359E-1,6.452552080E-1
8.575000000E-1,-4.498010874E-1,-6.647874713E-1,6.598815918E-1
8.600000000E-1,-4.894937873E-1,-6.683840752E-1,6.722173095E-1
8.625000000E-1,-5.258876085E-1,-6.647915244E-1,6.800235510E-1
8.650000000E-1,-5.597761869E-1,-6.503825188E-1,6.856657863E-1
8.675000000E-1,-5.906501412E-1,-6.289269328E-1,6.876704097E-1
8.700000000E-1,-6.178526878E-1,-6.088186502E-1,6.878025532E-1
8.725000000E-1,-6.438857913E-1,-5.881040096E-1,6.876472235E-1
8.750000000E-1,-6.711139083E-1,-5.685541630E-1,6.866642833E-1
8.775000000E-1,-6.973145604E-1,-5.542024970E-1,6.829102039E-1
8.800000000E-1,-7.232190371E-1,-5.328194499E-1,6.732449532E-1
8.825000000E-1,-7.433634996E-1,-5.088871717E-1,6.607387662E-1
8.850000000E-1,-7.623069882E-1,-4.846222401E-1,6.461147070E-1
8.875000000E-1,-7.772662640E-1,-4.637454748E-1,6.307592392E-1
8.900000000E-1,-7.912436128E-1,-4.460479915E-1,6.143537164E-1
8.925000000E-1,-7.981168032E-1,-4.330705106E-1,5.931562185E-1
8.950000000E-1,-7.997899652E-1,-4.227627218E-1,5.679246783E-1
8.975000000E-1,-7.990725636E-1,-4.178592265E-1,5.353966951E-1
9.000000000E-1,-7.911014557E-1,-4.188173413E-1,4.943587780E-1
9.025000000E-1,-7.807450891E-1,-4.217730761E-1,4.454284310E-1
9.050000000E-1,-7.661998272E-1,-4.290376902E-1,3.893260062E-1
9.075000000E-1,-7.496201396E-1,-4.392577112E-1,3.287904859E-1
9.100000000E-1,-7.317042947E-1,-4.486053884E-1,2.651623189E-1
9.125000000E-1,-7.051121593E-1,-4.541379511E-1,1.990711391E-1
9.150000000E-1,-6.759582758E-1,-4.502710104E-1,1.315569878E-1
9.175000000E-1,-6.426900625E-1,-4.375297725E-1,6.552778929E-2
9.200000000E-1,-6.057069302E-1,-4.203965962E-1,5.283155013E-3
9.225000000E-1,-5.653787851E-1,-3.942136168E-1,-4.798635840E-2
9.250000000E-1,-5.190042853E-1,-3.643618822E-1,-9.009830654E-2
9.275000000E-1,-4.677979648E-1,-3.308740258E-1,-1.210527122E-1
9.300000000E-1,-4.157021046E-1,-2.962548435E-1,-1.352517754E-1
9.325000000E-1,-3.596225083E-1,-2.620986700E-1,-1.330931038E-1
9.350000000E-1,-3.020543754E-1,-2.283557653E-1,-1.179383919E-1
9.375000000E-1,-2.428784519E-1,-1.948993504E-1,-8.800632507E-2
9.400000000E-1,-1.811832637E-1,-1.656949371E-1,-4.767442122E-2
9.425000000E-1,-1.181638539E-1,-1.342731267E-1,-3.093854059E-3
9.450000000E-1,-5.306031927E-2,-1.048253179E-1,4.251977056E-2
9.475000000E-1,1.275584195E-2,-7.691267878E-2,8.530168235E-2
9.500000000E-1,8.070211112E-2,-5.097085238E-2,1.229415536E-1
9.525000000E-1,1.466893703E-1,-3.205676749E-2,1.558384001E-1
9.550000000E-1,2.131697536E-1,-1.913949102E-2,1.871413738E-1
9.575000000E-1,2.735460997E-1,-1.549935713E-2,2.151063085E-1
9.600000000E-1,3.316063583E-1,-2.232506499E-2,2.394963652E-1
9.625000000E-1,3.829422593E-1,-3.330178186E-2,2.644234598E-1
9.650000000E-1,4.259195030E-1,-4.935945943E-2,2.862587273E-1
9.675000000E-1,4.660739005E-1,-7.013179362E-2,3.055373430E-1
9.700000000E-1,4.987830818E-1,-9.012924880E-2,3.224363625E-1
9.725000000E-1,5.232287049E-1,-1.041015685E-1,3.360703886E-1
9.750000000E-1,5.428038239E-1,-1.137048528E-1,3.457477689E-1
9.775000000E-1,5.551487803E-1,-1.156505197E-1,3.530132473E-1
9.800000000E-1,5.577383637E-1,-1.111493856E-1,3.586985469E-1
9.825000000E-1,5.551365614E-1,-1.071893200E-1,3.628463149E-1
9.850000000E-1,5.444124937E-1,-9.916811436E-2,3.692467809E-1
9.875000000E-1,5.233780742E-1,-8.768481016E-2,3.795822263E-1
9.900000000E-1,4.924620986E-1,-7.791722566E-2,3.926410079E-1
9.925000000E-1,4.481471479E-1,-7.011316717E-2,4.098351896E-1
9.950000000E-1,3.884674609E-1,-7.203125209E-2,4.322568476E-1
9.975000000E-1,3.165385425E-1,-8.405556530E-2,4.561897814E-1
1.000000000E0,2.341176271E-1,-1.067935973E-1,4.850102067E-1
1.002500000E0,1.447938681E-1,-1.359563321E-1,5.106093884E-1
1.005000000E0,4.785786569E-2,-1.617005765E-1,5.302711725E-1
1.007500000E0,-5.518940091E-2,-1.983343810E-1,5.503810048E-1
1.010000000E0,-1.597891301E-1,-2.473675758E-1,5.732654929E-1
1.012500000E0,-2.602554560E-1,-3.100655973E-1,6.009629965E-1
1.015000000E0,-3.580903709E-1,-3.836022615E-1,6.296572685E-1
1.017500000E0,-4.543314874E-1,-4.613855183E-1,6.567576528E-1
1.020000000E0,-5.467451811E-1,-5.369766355E-1,6.827763319E-1
1.022500000E0,-6.333591938E-1,-6.086322665E-1,7.061392665E-1
1.025000000E0,-7.141470909E-1,-6.694324613E-1,7.230188251E-1
1.027500000E0,-7.921884060E-1,-7.222806811E-1,7.295882106E-1
1.030000000E0,-8.639916778E-1,-7.667902112E-1,7.248923779E-1
1.032500000E0,-9.285890460E-1,-7.991732955E-1,7.110430002E-1
1.035000000E0,-9.859414697E-1,-8.241425753E-1,6.942762733E-1
1.037500000E0,-1.034593225E0,-8.455378413E-1,6.759241819E-1
1.040000000E0,-1.078699350E0,-8.575746417E-1,6.551811099E-1
1.042500000E0,-1.114848018E0,-8.602157235E-1,6.366953254E-1
1.045000000E0,-1.141436219E0,-8.511694074E-1,6.179506183E-1
1.047500000E0,-1.162047148E0,-8.325599432E-1,5.992068052E-1
1.050000000E0,-1.174959898E0,-7.969629765E-1,5.770068765E-1
1.052500000E0,-1.178582311E0,-7.439935803E-1,5.552094579E-1
1.055000000E0,-1.178218007E0,-6.806141734E-1,5.302284956E-1
1.057500000E0,-1.172258258E0,-6.053151488E-1,5.016655922E-1
1.060000000E0,-1.160208821E0,-5.227702856E-1,4.749079347E-1
1.062500000E0,-1.139825225E0,-4.322053790E-1,4.471311867E-1
1.065000000E0,-1.116964459E0,-3.380626440E-1,4.224535227E-1
1.067500000E0,-1.093306303E0,-2.505655885E-1,4.026246369E-1
1.070000000E0,-1.068851233E0,-1.690315753E-1,3.885668218E-1
1.072500000E0,-1.043355942E0,-9.760088474E-2,3.784601390E-1
1.075000000E0,-1.017778754E0,-3.774305806E-2,3.760901093E-1
1.077500000E0,-9.919160604E-1,1.252707094E-2,3.793491125E-1
1.080000000E0,-9.656949639E-1,5.558435991E-2,3.871108294E-1
1.082500000E0,-9.440836310E-1,9.168690443E-2,4.000065029E-1
1.085000000E0,-9.219790697E-1,1.166978404E-1,4.171284735E-1
1.087500000E0,-9.022322893E-1,1.303368509E-1,4.406926632E-1
1.090000000E0,-8.887562156E-1,1.357452720E-1,4.674973488E-1
1.092500000E0,-8.737522960E-1,1.350834668E-1,4.964997768E-1
1.095000000E0,-8.574489951E-1,1.323935986E-1,5.265187025E-1
1.097500000E0,-8.424457312E-1,1.304151267E-1,5.548180938E-1
1.100000000E0,-8.271552324E-1,1.269360483E-1,5.808560252E-1
1.102500000E0,-8.114412427E-1,1.229701415E-1,6.064195633E-1
1.105000000E0,-7.958499193E-1,1.172918901E-1,6.263048053E-1
1.107500000E0,-7.796854973E-1,1.004331559E-1,6.449193358E-1
1.110000000E0,-7.623726130E-1,6.705307961E-2,6.615113616E-1
1.112500000E0,-7.488872409E-1,2.825389802E-2,6.706765890E-1
1.115000000E0,-7.351167798E-1,-7.077764254E-3,6.725775599E-1
1.117500000E0,-7.197527885E-1,-3.418713063E-2,6.696970463E-1
1.120000000E0,-6.957749724E-1,-5.444662645E-2,6.630377769E-1
1.122500000E0,-6.663461328E-1,-6.881506741E-2,6.549905539E-1
1.125000000E0,-6.299751997E-1,-7.586063445E-2,6.468142271E-1
1.127500000E0,-5.819137096E-1,-8.629047871E-2,6.405968070E-1
1.130000000E0,-5.345399380E-1,-1.019105315E-1,6.362729073E-1
1.132500000E0,-4.816144407E-1,-1.118620336E-1,6.328168511E-1
1.135000000E0,-4.289093912E-1,-1.220196784E-1,6.299720407E-1
1.137500000E0,-3.762194812E-1,-1.289144307E-1,6.285853982E-1
1.140000000E0,-3.197337091E-1,-1.353906840E-1,6.265909672E-1
1.142500000E0,-2.647361755E-1,-1.465297788E-1,6.255694032E-1
1.145000000E0,-2.157661915E-1,-1.636078954E-1,6.224610209E-1
1.147500000E0,-1.690192670E-1,-1.821737140E-1,6.181154251E-1
1.150000000E0,-1.277236491E-1,-1.932790875E-1,6.134617925E-1
1.152500000E0,-8.703508228E-2,-1.930560470E-1,6.110245585E-1
1.155000000E0,-4.781846330E-2,-1.837453842E-1,6.123473048E-1
1.157500000E0,-1.334032323E-2,-1.754151434E-1,6.170413494E-1
1.160000000E0,1.215827838E-2,-1.624098867E-1,6.228446364E-1
1.162500000E0,2.514725924E-2,-1.374933124E-1,6.248741150E-1
1.165000000E0,3.184279054E-2,-1.067434996E-1,6.255230904E-1
1.167500000E0,3.275973350E-2,-7.011508197E-2,6.316989064E-1
1.170000000E0,3.257551417E-2,-3.222055733E-2,6.445547342E-1
1.172500000E0,2.022340521E-2,9.033157490E-3,6.577362418E-1
1.175000000E0,-7.256364916E-5,5.182893574E-2,6.690618396E-1
1.177500000E0,-2.502345480E-2,9.098891914E-2,6.759396791E-1
1.180000000E0,-5.426624790E-2,1.298177838E-1,6.775512695E-1
1.182500000E0,-9.067153931E-2,1.656951308E-1,6.766300797E-1
1.185000000E0,-1.309641451E-1,1.972777247E-1,6.711977124E-1
1.187500000E0,-1.715004444E-1,2.272266001E-1,6.628946662E-1
1.190000000E0,-2.057415992E-1,2.577248514E-1,6.539762616E-1
1.192500000E0,-2.396188825E-1,2.929987907E-1,6.407991052E-1
1.195000000E0,-2.648859322E-1,3.286442459E-1,6.299580932E-1
1.197500000E0,-2.844674587E-1,3.615382910E-1,6.179839373E-1
1.200000000E0,-2.937636077E-1,3.912671208E-1,6.067490578E-1
1.202500000E0,-2.955516875E-1,4.181308150E-1,5.979061127E-1
1.205000000E0,-2.955516875E-1,4.353640676E-1,5.876666307E-1
1.207500000E0,-2.928991318E-1,4.387074411E-1,5.727044940E-1
1.210000000E0,-2.838660479E-1,4.402230680E-1,5.572056174E-1
1.212500000E0,-2.699871957E-1,4.477010965E-1,5.421859622E-1
1.215000000E0,-2.517909110E-1,4.610026777E-1,5.242288709E-1
1.217500000E0,-2.321444303E-1,4.762746096E-1,5.072584748E-1
1.220000000E0,-2.148544639E-1,4.926428497E-1,4.931419194E-1
1.222500000E0,-1.951926947E-1,5.040267110E-1,4.812102914E-1
1.225000000E0,-1.764021367E-1,5.095194578E-1,4.714296460E-1
1.227500000E0,-1.601209193E-1,5.086053014E-1,4.640709758E-1
1.230000000E0,-1.480709761E-1,4.989249110E-1,4.596666098E-1
1.232500000E0,-1.398417950E-1,4.806185663E-1,4.563800097E-1
1.235000000E0,-1.386012435E-1,4.544290602E-1,4.547626972E-1
1.237500000E0,-1.395862252E-1,4.225263894E-1,4.563404918E-1
1.240000000E0,-1.440814584E-1,3.910772204E-1,4.585190415E-1
1.242500000E0,-1.552688628E-1,3.639828563E-1,4.617037773E-1
1.245000000E0,-1.665664315E-1,3.391653597E-1,4.667225182E-1
1.247500000E0,-1.772333980E-1,3.225947618E-1,4.736494720E-1
1.250000000E0,-1.858602762E-1,3.146449029E-1,4.834129214E-1
1.252500000E0,-1.889483035E-1,3.112436533E-1,4.957834482E-1
1.255000000E0,-1.936326325E-1,3.205478787E-1,5.091238618E-1
1.257500000E0,-1.929680258E-1,3.314039409E-1,5.256512761E-1
1.260000000E0,-1.900920272E-1,3.458016515E-1,5.409436226E-1
1.262500000E0,-1.883178055E-1,3.676145375E-1,5.558010340E-1
1.265000000E0,-1.849641204E-1,3.942343593E-1,5.676227808E-1
1.267500000E0,-1.805632412E-1,4.191503525E-1,5.803067088E-1
1.270000000E0,-1.759253889E-1,4.375701845E-1,5.922734737E-1
1.272500000E0,-1.761952639E-1,4.583985209E-1,6.020357013E-1
1.275000000E0,-1.746819615E-1,4.727007747E-1,6.126741171E-1
1.277500000E0,-1.703904122E-1,4.873903394E-1,6.215014458E-1
1.280000000E0,-1.648672074E-1,5.052626133E-1,6.290194988E-1
1.282500000E0,-1.603450030E-1,5.262773037E-1,6.358662248E-1
1.285000000E0,-1.515338868E-1,5.477227569E-1,6.415190697E-1
1.287500000E0,-1.419255883E-1,5.724632740E-1,6.450744867E-1
1.290000000E0,-1.310891658E-1,5.914297700E-1,6.492986083E-1
1.292500000E0,-1.210324913E-1,6.061519384E-1,6.555712819E-1
1.295000000E0,-1.125787869E-1,6.156381369E-1,6.625604630E-1
1.297500000E0,-1.041498333E-1,6.230273843E-1,6.676599383E-1
1.300000000E0,-1.014420688E-1,6.275402904E-1,6.733581424E-1
1.302500000E0,-9.286810458E-2,6.265498400E-1,6.809386611E-1
1.305000000E0,-8.653756976E-2,6.302922964E-1,6.841039062E-1
1.307500000E0,-7.947289944E-2,6.398906708E-1,6.864720583E-1
1.310000000E0,-7.524371147E-2,6.502854228E-1,6.863506436E-1
1.312500000E0,-7.620265335E-2,6.551214457E-1,6.821775436E-1
1.315000000E0,-7.983542979E-2,6.493244171E-1,6.747574806E-1
1.317500000E0,-8.620783687E-2,6.319268346E-1,6.647871137E-1
1.320000000E0,-9.652306139E-2,6.099924445E-1,6.531425118E-1
1.322500000E0,-1.106466502E-1,5.808297992E-1,6.421121955E-1
1.325000000E0,-1.273282915E-1,5.472968817E-1,6.299332976E-1
1.327500000E0,-1.436419636E-1,5.158354044E-1,6.192988157E-1
1.330000000E0,-1.626661271E-1,4.889984429E-1,6.082504988E-1
1.332500000E0,-1.792256385E-1,4.669759870E-1,5.963919163E-1
1.335000000E0,-1.949714571E-1,4.569831491E-1,5.839082599E-1
1.337500000E0,-2.084326297E-1,4.524971247E-1,5.724979043E-1
1.340000000E0,-2.230567336E-1,4.540848434E-1,5.602250695E-1
1.342500000E0,-2.343895584E-1,4.576379657E-1,5.464149714E-1
1.345000000E0,-2.415614128E-1,4.616032839E-1,5.344488025E-1
1.347500000E0,-2.482095063E-1,4.726320803E-1,5.222093463E-1
1.350000000E0,-2.580983341E-1,4.808388948E-1,5.099827051E-1
1.352500000E0,-2.678893209E-1,4.880293608E-1,4.985477924E-1
1.355000000E0,-2.741656601E-1,4.961445630E-1,4.871273339E-1
1.357500000E0,-2.830631733E-1,5.061332583E-1,4.772807062E-1
1.360000000E0,-2.899758518E-1,5.209100842E-1,4.662410915E-1
1.362500000E0,-2.982231081E-1,5.359375477E-1,4.570737183E-1
1.365000000E0,-3.048721850E-1,5.553532839E-1,4.505576789E-1
1.367500000E0,-3.123172224E-1,5.779604912E-1,4.435122907E-1
1.370000000E0,-3.213587105E-1,6.017603278E-1,4.348683357E-1
1.372500000E0,-3.274887204E-1,6.231829524E-1,4.272841811E-1
1.375000000E0,-3.371520042E-1,6.465871334E-1,4.190343618E-1
1.377500000E0,-3.490224183E-1,6.681245565E-1,4.136930704E-1
1.380000000E0,-3.556971848E-1,6.916393638E-1,4.076131284E-1
1.382500000E0,-3.631191850E-1,7.146608829E-1,4.006867409E-1
1.385000000E0,-3.721623421E-1,7.274264693E-1,3.944144845E-1
1.387500000E0,-3.801398575E-1,7.368835211E-1,3.889887035E-1
1.390000000E0,-3.865590990E-1,7.431885600E-1,3.827304244E-1
1.392500000E0,-3.929202557E-1,7.426258922E-1,3.777908683E-1
1.395000000E0,-4.002214074E-1,7.378236055E-1,3.728469908E-1
1.397500000E0,-4.060150981E-1,7.289291024E-1,3.690172136E-1
1.400000000E0,-4.085685313E-1,7.215484977E-1,3.655194640E-1
1.402500000E0,-4.131483734E-1,7.155659795E-1,3.623434901E-1
1.405000000E0,-4.142712951E-1,7.050892711E-1,3.584872782E-1
1.407500000E0,-4.159360230E-1,6.982744932E-1,3.559093177E-1
1.410000000E0,-4.174583554E-1,6.926726699E-1,3.553410172E-1
1.412500000E0,-4.160161912E-1,6.904305220E-1,3.517526090E-1
1.415000000E0,-4.147861004E-1,6.831868291E-1,3.488368988E-1
1.417500000E0,-4.181773961E-1,6.778949499E-1,3.476839662E-1
1.420000000E0,-4.198212326E-1,6.772301197E-1,3.464420736E-1
1.422500000E0,-4.206813574E-1,6.806317568E-1,3.462855816E-1
1.425000000E0,-4.202035069E-1,6.812211871E-1,3.476741612E-1
1.427500000E0,-4.235275686E-1,6.808306575E-1,3.496685922E-1
1.430000000E0,-4.253635406E-1,6.856980324E-1,3.538953662E-1
1.432500000E0,-4.280451834E-1,6.927123666E-1,3.593747020E-1
1.435000000E0,-4.306152761E-1,7.004831433E-1,3.658626080E-1
1.437500000E0,-4.359341860E-1,7.078394890E-1,3.718463778E-1
1.440000000E0,-4.412531853E-1,7.161147594E-1,3.778302372E-1
1.442500000E0,-4.465721548E-1,7.265946269E-1,3.818128705E-1
1.445000000E0,-4.507259429E-1,7.437896729E-1,3.844048977E-1
1.447500000E0,-4.558439851E-1,7.619417906E-1,3.854714334E-1
1.450000000E0,-4.614636600E-1,7.788642645E-1,3.851707578E-1
1.452500000E0,-4.697609246E-1,7.994569540E-1,3.851707578E-1
1.455000000E0,-4.759791195E-1,8.191173077E-1,3.841054142E-1
1.457500000E0,-4.788664877E-1,8.428035975E-1,3.852456808E-1
1.460000000E0,-4.803895950E-1,8.669041991E-1,3.874892294E-1
1.462500000E0,-4.853131175E-1,8.948016167E-1,3.893111944E-1
1.465000000E0,-4.899958670E-1,9.274105430E-1,3.948689103E-1
1.467500000E0,-4.928650260E-1,9.586205482E-1,3.981788754E-1
1.470000000E0,-4.963780046E-1,9.832173586E-1,3.959954381E-1
1.472500000E0,-5.033372045E-1,1.000003815E0,3.879252374E-1
1.475000000E0,-5.086939335E-1,1.003865480E0,3.806616366E-1
1.477500000E0,-5.177749991E-1,1.003224373E0,3.713492453E-1
1.480000000E0,-5.298564434E-1,9.947796464E-1,3.654823601E-1
1.482500000E0,-5.476860404E-1,9.836601019E-1,3.614939451E-1
1.485000000E0,-5.688608289E-1,9.735909700E-1,3.566063941E-1
1.487500000E0,-5.928490162E-1,9.646959901E-1,3.533016741E-1
1.490000000E0,-6.131388545E-1,9.594377279E-1,3.486483991E-1
1.492500000E0,-6.327877045E-1,9.568873048E-1,3.444744647E-1
1.495000000E0,-6.531313062E-1,9.563524723E-1,3.391840160E-1
1.497500000E0,-6.711442471E-1,9.581038952E-1,3.325682282E-1
1.500000000E0,-6.843760610E-1,9.607630968E-1,3.263060153E-1
1.502500000E0,-6.966279745E-1,9.672236443E-1,3.192766011E-1
1.505000000E0,-7.114748955E-1,9.723346829E-1,3.125881553E-1
1.507500000E0,-7.207376957E-1,9.700443745E-1,3.055710793E-1
1.510000000E0,-7.286635637E-1,9.703832269E-1,2.966024876E-1
1.512500000E0,-7.320979834E-1,9.705770016E-1,2.879596651E-1
1.515000000E0,-7.325561047E-1,9.663932920E-1,2.772954106E-1
1.517500000E0,-7.345505953E-1,9.574909210E-1,2.646634877E-1
1.520000000E0,-7.325264215E-1,9.454940557E-1,2.533709407E-1
1.522500000E0,-7.274768949E-1,9.314060807E-1,2.419971079E-1
1.525000000E0,-7.198936939E-1,9.201731086E-1,2.318942398E-1
1.527500000E0,-7.082552314E-1,9.107351899E-1,2.231824994E-1
1.530000000E0,-6.969621181E-1,9.020801187E-1,2.152074873E-1
1.532500000E0,-6.813503504E-1,8.988749385E-1,2.065647542E-1
1.535000000E0,-6.581826806E-1,8.925566077E-1,1.980471313E-1
1.537500000E0,-6.358064413E-1,8.902866244E-1,1.905394346E-1
1.540000000E0,-6.145772338E-1,8.883033991E-1,1.845225096E-1
1.542500000E0,-5.906438828E-1,8.874799013E-1,1.800746769E-1
1.545000000E0,-5.691339970E-1,8.825249672E-1,1.738231182E-1
1.547500000E0,-5.477634072E-1,8.683737516E-1,1.684075147E-1
1.550000000E0,-5.283675790E-1,8.521355987E-1,1.617401689E-1
1.552500000E0,-5.103490949E-1,8.237276673E-1,1.589401960E-1
1.555000000E0,-4.910795987E-1,7.863359451E-1,1.541438699E-1
1.557500000E0,-4.756552279E-1,7.555444837E-1,1.491179764E-1
1.560000000E0,-4.530530572E-1,7.314442992E-1,1.409066617E-1
1.562500000E0,-4.295500517E-1,7.087986469E-1,1.320720911E-1
1.565000000E0,-4.037710726E-1,6.916736364E-1,1.221977025E-1
1.567500000E0,-3.759694397E-1,6.818280816E-1,1.091400385E-1
1.570000000E0,-3.464051187E-1,6.736466289E-1,9.475566447E-2
1.572500000E0,-3.187208474E-1,6.603331566E-1,8.346333355E-2
1.575000000E0,-2.897706628E-1,6.351163983E-1,6.993534416E-2
1.577500000E0,-2.616324425E-1,6.053326130E-1,5.579710379E-2
1.580000000E0,-2.377449572E-1,5.731577277E-1,4.210114107E-2
1.582500000E0,-2.144731432E-1,5.443372726E-1,2.902789973E-2
1.585000000E0,-1.927338690E-1,5.267353058E-1,1.564894989E-2
1.587500000E0,-1.745807976E-1,5.268236399E-1,1.370123122E-3
1.590000000E0,-1.551944613E-1,5.297499299E-1,-1.284323353E-2
1.592500000E0,-1.394335479E-1,5.273336768E-1,-3.119909577E-2
1.595000000E0,-1.221915036E-1,5.176275373E-1,-4.969505221E-2
1.597500000E0,-9.909180552E-2,5.044872165E-1,-7.162144780E-2
1.600000000E0,-7.709116489E-2,4.877497554E-1,-9.126444161E-2
1.602500000E0,-5.538272858E-2,4.641316831E-1,-1.101107895E-1
1.605000000E0,-3.727207333E-2,4.300807416E-1,-1.264620870E-1
1.607500000E0,-1.831993274E-2,3.911871612E-1,-1.420869678E-1
1.610000000E0,-5.042292178E-3,3.571606576E-1,-1.567130387E-1
1.612500000E0,6.648863666E-3,3.343541622E-1,-1.717687994E-1
1.615000000E0,2.146951109E-2,3.207221329E-1,-1.863227338E-1
1.617500000E0,3.510776535E-2,3.097235262E-1,-1.972822100E-1
1.620000000E0,4.715215415E-2,3.017458916E-1,-2.095421106E-1
1.622500000E0,5.802825093E-2,2.920659184E-1,-2.204710990E-1
1.625000000E0,6.709210575E-2,2.797309756E-1,-2.287950814E-1
1.627500000E0,7.760778069E-2,2.654924095E-1,-2.374372929E-1
1.630000000E0,8.645308018E-2,2.484970242E-1,-2.455011010E-1
1.632500000E0,9.516070783E-2,2.352484018E-1,-2.536564469E-1
1.635000000E0,1.064381674E-1,2.205638289E-1,-2.601263225E-1
1.637500000E0,1.174337119E-1,2.032793611E-1,-2.672860622E-1
1.640000000E0,1.296857297E-1,1.868499964E-1,-2.742189765E-1
1.642500000E0,1.449755728E-1,1.673888713E-1,-2.811143696E-1
1.645000000E0,1.570861191E-1,1.491963118E-1,-2.872461081E-1
1.647500000E0,1.722975969E-1,1.282204837E-1,-2.936666906E-1
1.650000000E0,1.843669713E-1,1.088384613E-1,-2.972714305E-1
1.652500000E0,1.969072521E-1,9.311452508E-2,-3.008472919E-1
1.655000000E0,2.058675438E-1,8.254764974E-2,-3.058062792E-1
1.657500000E0,2.156081796E-1,7.907917351E-2,-3.111246824E-1
1.660000000E0,2.302288711E-1,7.675001025E-2,-3.156132400E-1
1.662500000E0,2.515518367E-1,8.410714567E-2,-3.209809065E-1
1.665000000E0,2.747620940E-1,1.024741530E-1,-3.308415115E-1
1.667500000E0,3.030680120E-1,1.097729206E-1,-3.378368914E-1
1.670000000E0,3.273281455E-1,8.815013617E-2,-3.414334059E-1
1.672500000E0,3.444404900E-1,4.225027934E-2,-3.442085087E-1
1.675000000E0,3.592391014E-1,-1.192635112E-2,-3.478294015E-1
1.677500000E0,3.836301267E-1,-5.069331452E-2,-3.548863232E-1
1.680000000E0,4.178043902E-1,-7.618831843E-2,-3.635289967E-1
1.682500000E0,4.543776512E-1,-9.252832830E-2,-3.709701300E-1
1.685000000E0,4.938695729E-1,-1.048913449E-1,-3.797487617E-1
1.687500000E0,5.358853340E-1,-1.200541705E-1,-3.917154372E-1
1.690000000E0,5.779049397E-1,-1.349276751E-1,-4.036821127E-1
1.692500000E0,6.175372005E-1,-1.585672647E-1,-4.144594073E-1
1.695000000E0,6.603248715E-1,-1.888597012E-1,-4.270743132E-1
1.697500000E0,7.026039362E-1,-2.232393622E-1,-4.428850710E-1
1.700000000E0,7.470012307E-1,-2.619425654E-1,-4.579154253E-1
1.702500000E0,7.910305262E-1,-2.994435728E-1,-4.748943448E-1
1.705000000E0,8.379130363E-1,-3.371967077E-1,-4.956061542E-1
1.707500000E0,8.860255480E-1,-3.752135932E-1,-5.173746943E-1
1.710000000E0,9.365001321E-1,-4.132599235E-1,-5.420751572E-1
1.712500000E0,9.886302948E-1,-4.497118890E-1,-5.722702742E-1
1.715000000E0,1.041524887E0,-4.866514206E-1,-6.034296155E-1
1.717500000E0,1.092751026E0,-5.248252153E-1,-6.383476853E-1
1.720000000E0,1.142932773E0,-5.606333613E-1,-6.792417765E-1
1.722500000E0,1.193765998E0,-5.944351554E-1,-7.244756222E-1
1.725000000E0,1.245252371E0,-6.271587014E-1,-7.768353224E-1
1.727500000E0,1.299060345E0,-6.637371778E-1,-8.385487795E-1
1.730000000E0,1.347173214E0,-7.046786547E-1,-9.092505574E-1
1.732500000E0,1.396462679E0,-7.541570067E-1,-9.878838658E-1
1.735000000E0,1.443763256E0,-8.084165454E-1,-1.073747158E0
1.737500000E0,1.483415723E0,-8.681901693E-1,-1.166877151E0
1.740000000E0,1.521131277E0,-9.265800714E-1,-1.267766953E0
1.742500000E0,1.558563590E0,-9.870772362E-1,-1.378265858E0
1.745000000E0,1.590051770E0,-1.043005943E0,-1.498546004E0
1.747500000E0,1.621349216E0,-1.092075586E0,-1.627058983E0
1.750000000E0,1.643024206E0,-1.131672621E0,-1.764222026E0
1.752500000E0,1.658685923E0,-1.168452382E0,-1.907604098E0
1.755000000E0,1.665578961E0,-1.201331615E0,-2.053883076E0
1.757500000E0,1.660154700E0,-1.241899014E0,-2.201132536E0
1.760000000E0,1.648221016E0,-1.289376378E0,-2.345786572E0
1.762500000E0,1.628067613E0,-1.339674234E0,-2.485416412E0
1.765000000E0,1.605130315E0,-1.388867140E0,-2.618871689E0
1.767500000E0,1.572763443E0,-1.434498310E0,-2.748779774E0
1.770000000E0,1.533483386E0,-1.487333775E0,-2.873680592E0
1.772500000E0,1.487243772E0,-1.539786816E0,-2.993585825E0
1.775000000E0,1.430450439E0,-1.585346341E0,-3.107633591E0
1.777500000E0,1.368868232E0,-1.617389321E0,-3.210185289E0
1.780000000E0,1.305212140E0,-1.623576999E0,-3.294521332E0
1.782500000E0,1.239968419E0,-1.594183207E0,-3.364512444E0
1.785000000E0,1.177476883E0,-1.534449220E0,-3.415249348E0
1.787500000E0,1.122826457E0,-1.469077349E0,-3.442112684E0
1.790000000E0,1.073420882E0,-1.402820110E0,-3.446528673E0
1.792500000E0,1.029234290E0,-1.333458066E0,-3.436420441E0
1.795000000E0,9.848712087E-1,-1.245903611E0,-3.394971371E0
1.797500000E0,9.560181499E-1,-1.139517665E0,-3.295839310E0
1.800000000E0,9.492652416E-1,-1.016170740E0,-3.152387619E0
1.802500000E0,9.688104391E-1,-8.692991734E-1,-2.973775148E0
1.805000000E0,1.018515587E0,-6.991925836E-1,-2.760893345E0
1.807500000E0,1.090898156E0,-5.132457018E-1,-2.526199102E0
1.810000000E0,1.184072971E0,-3.467825353E-1,-2.269315481E0
1.812500000E0,1.290000081E0,-2.027714103E-1,-2.002064466E0
1.815000000E0,1.412984729E0,-7.358356565E-2,-1.736727357E0
1.817500000E0,1.555840015E0,4.424294084E-2,-1.482074857E0
1.820000000E0,1.710842848E0,1.469347775E-1,-1.239989281E0
1.822500000E0,1.875870824E0,2.398310602E-1,-1.021582127E0
1.825000000E0,2.047486782E0,3.179095984E-1,-8.281991482E-1
1.827500000E0,2.211787462E0,3.727624118E-1,-6.606153250E-1
1.830000000E0,2.373063803E0,3.803333342E-1,-5.131114721E-1
1.832500000E0,2.521179438E0,3.344608545E-1,-3.822468519E-1
1.835000000E0,2.648758173E0,2.500326037E-1,-2.685480714E-1
1.837500000E0,2.753125668E0,1.424951702E-1,-1.726789474E-1
1.840000000E0,2.832594156E0,3.683816642E-2,-9.000544250E-2
1.842500000E0,2.894378424E0,-5.221233517E-2,-1.522558555E-2
1.845000000E0,2.931518555E0,-1.144094542E-1,5.350970477E-2
1.847500000E0,2.946918011E0,-1.489774138E-1,1.081280857E-1
1.850000000E0,2.932598352E0,-1.890989095E-1,1.345051229E-1
1.852500000E0,2.901405334E0,-2.481817752E-1,1.458226591E-1
1.855000000E0,2.857045174E0,-3.286095560E-1,1.565155685E-1
1.857500000E0,2.798722506E0,-4.175752401E-1,1.678785831E-1
1.860000000E0,2.734707832E0,-5.115307570E-1,1.798450351E-1
1.862500000E0,2.668919325E0,-6.112105250E-1,1.921371073E-1
1.865000000E0,2.607725859E0,-7.101774216E-1,1.997332424E-1
1.867500000E0,2.544522762E0,-7.932505012E-1,1.960505545E-1
1.870000000E0,2.476800919E0,-8.630543351E-1,1.813370883E-1
1.872500000E0,2.412060499E0,-9.325364232E-1,1.597861499E-1
1.875000000E0,2.334937096E0,-9.998618364E-1,1.292612404E-1
1.877500000E0,2.244971275E0,-1.066605687E0,8.764010668E-2
1.880000000E0,2.145764112E0,-1.138261318E0,3.581917658E-2
1.882500000E0,2.037962198E0,-1.216299057E0,-1.808989234E-2
1.885000000E0,1.921351671E0,-1.300119162E0,-6.656464934E-2
1.887500000E0,1.796713471E0,-1.383890271E0,-1.105308309E-1
1.890000000E0,1.664178491E0,-1.462702394E0,-1.481884271E-1
1.892500000E0,1.527972937E0,-1.533402681E0,-1.734081805E-1
1.895000000E0,1.388132572E0,-1.596321464E0,-1.889003366E-1
1.897500000E0,1.243730068E0,-1.656462789E0,-1.990418583E-1
1.900000000E0,1.099686861E0,-1.717051864E0,-2.039643973E-1
1.902500000E0,9.565390944E-1,-1.770826936E0,-2.053409815E-1
1.905000000E0,8.102887273E-1,-1.808338165E0,-2.082109898E-1
1.907500000E0,6.676627398E-1,-1.823217392E0,-2.154301554E-1
1.910000000E0,5.295305252E-1,-1.814292073E0,-2.302798927E-1
1.912500000E0,3.871788979E-1,-1.768168449E0,-2.507781982E-1
1.915000000E0,2.407130748E-1,-1.691012979E0,-2.744642794E-1
1.917500000E0,9.841623902E-2,-1.589668155E0,-3.000910580E-1
1.920000000E0,-4.101499915E-2,-1.475135326E0,-3.235185444E-1
1.922500000E0,-1.752607077E-1,-1.355532885E0,-3.436536789E-1
1.925000000E0,-2.980040610E-1,-1.235204220E0,-3.594395816E-1
1.927500000E0,-4.131602943E-1,-1.107564330E0,-3.694175482E-1
1.930000000E0,-5.187223554E-1,-9.797500968E-1,-3.765585423E-1
1.932500000E0,-6.136279106E-1,-8.537338376E-1,-3.840152025E-1
1.935000000E0,-6.999478340E-1,-7.306573391E-1,-3.878555596E-1
1.937500000E0,-7.799203396E-1,-6.117176414E-1,-3.916361928E-1
1.940000000E0,-8.446630239E-1,-5.070625544E-1,-3.959453106E-1
1.942500000E0,-8.956980705E-1,-4.187183082E-1,-4.012637734E-1
1.945000000E0,-9.312701821E-1,-3.520998955E-1,-4.061576724E-1
1.947500000E0,-9.521640539E-1,-3.177705407E-1,-4.096743762E-1
1.950000000E0,-9.588602781E-1,-3.186918795E-1,-4.107736647E-1
1.952500000E0,-9.491089582E-1,-3.486092687E-1,-4.050560892E-1
1.955000000E0,-9.297231436E-1,-3.915074170E-1,-3.962380588E-1
1.957500000E0,-9.007105827E-1,-4.444388151E-1,-3.829264343E-1
1.960000000E0,-8.643189073E-1,-5.062655807E-1,-3.641600907E-1
1.962500000E0,-8.172282577E-1,-5.703639388E-1,-3.428931236E-1
1.965000000E0,-7.632126212E-1,-6.366759539E-1,-3.147998154E-1
1.967500000E0,-7.019653320E-1,-6.957885623E-1,-2.813848257E-1
1.970000000E0,-6.298726201E-1,-7.484557629E-1,-2.423097640E-1
1.972500000E0,-5.493954420E-1,-7.963241339E-1,-1.968592405E-1
1.975000000E0,-4.679061472E-1,-8.282269239E-1,-1.466808915E-1
1.977500000E0,-3.782036901E-1,-8.496951461E-1,-9.603609890E-2
1.980000000E0,-2.890673578E-1,-8.545686603E-1,-4.465009272E-2
1.982500000E0,-1.964975893E-1,-8.467211723E-1,7.658889052E-3
1.985000000E0,-1.031680033E-1,-8.293476701E-1,5.603887513E-2
1.987500000E0,-1.064975187E-2,-8.033856750E-1,1.060282513E-1
1.990000000E0,7.959237695E-2,-7.670046091E-1,1.521146446E-1
1.992500000E0,1.680389792E-1,-7.229779363E-1,1.939972937E-1
1.995000000E0,2.556271553E-1,-6.761569381E-1,2.330548018E-1
1.997500000E0,3.365470469E-1,-6.256245971E-1,2.681165636E-1
2.000000000E0,4.112533033E-1,-5.769587755E-1,2.960161269E-1
2.002500000E0,4.790494740E-1,-5.288325548E-1,3.159464002E-1
2.005000000E0,5.380773544E-1,-4.822962582E-1,3.287062347E-1
2.007500000E0,5.907315016E-1,-4.352284372E-1,3.377484083E-1
2.010000000E0,6.315912008E-1,-3.953194022E-1,3.414829075E-1
2.012500000E0,6.636537910E-1,-3.625642359E-1,3.438789546E-1
2.015000000E0,6.897427440E-1,-3.394040465E-1,3.438970149E-1
2.017500000E0,7.126209140E-1,-3.218221068E-1,3.441495895E-1
2.020000000E0,7.225916386E-1,-3.097681701E-1,3.412630856E-1
2.022500000E0,7.294986248E-1,-3.054509759E-1,3.383101821E-1
2.025000000E0,7.336825728E-1,-3.051773012E-1,3.342427611E-1
2.027500000E0,7.341072559E-1,-3.062237501E-1,3.308757544E-1
2.030000000E0,7.333710790E-1,-3.072271645E-1,3.292399943E-1
2.032500000E0,7.286178470E-1,-3.013550937E-1,3.289851844E-1
2.035000000E0,7.234085202E-1,-2.875135839E-1,3.310289681E-1
2.037500000E0,7.156404853E-1,-2.688172162E-1,3.365750313E-1
2.040000000E0,6.985324621E-1,-2.455136329E-1,3.445717990E-1
2.042500000E0,6.799946427E-1,-2.278148681E-1,3.558732867E-1
2.045000000E0,6.559407711E-1,-2.101472020E-1,3.683232665E-1
2.047500000E0,6.262591481E-1,-1.958018392E-1,3.790448010E-1
2.050000000E0,5.950312018E-1,-1.836102158E-1,3.846381009E-1
2.052500000E0,5.627996922E-1,-1.748706847E-1,3.841451406E-1
2.055000000E0,5.307881236E-1,-1.682227105E-1,3.797867000E-1
2.057500000E0,4.986749887E-1,-1.615746766E-1,3.710956872E-1
2.060000000E0,4.665403366E-1,-1.642019898E-1,3.660863936E-1
2.062500000E0,4.373511374E-1,-1.784051806E-1,3.636695147E-1
2.065000000E0,4.075571299E-1,-1.941542178E-1,3.627984524E-1
2.067500000E0,3.742856979E-1,-2.158396542E-1,3.653313220E-1
2.070000000E0,3.386792541E-1,-2.514550388E-1,3.712126315E-1
2.072500000E0,3.017380238E-1,-2.836828530E-1,3.757770956E-1
2.075000000E0,2.642817497E-1,-2.973236740E-1,3.826438785E-1
2.077500000E0,2.230486572E-1,-2.972779572E-1,3.856126964E-1
2.080000000E0,1.788549274E-1,-2.995767891E-1,3.887509704E-1
2.082500000E0,1.323186606E-1,-3.091552556E-1,3.959041834E-1
2.085000000E0,8.212112635E-2,-3.175278604E-1,4.037469327E-1
2.087500000E0,2.993333712E-2,-3.125494421E-1,4.069071710E-1
2.090000000E0,-2.473604493E-2,-2.958538532E-1,4.054565132E-1
2.092500000E0,-8.101452887E-2,-2.752201855E-1,4.025921524E-1
2.095000000E0,-1.368580461E-1,-2.554534972E-1,3.991498649E-1
2.097500000E0,-1.897369623E-1,-2.340450734E-1,3.979549706E-1
2.100000000E0,-2.430023700E-1,-2.151343077E-1,3.915055692E-1
2.102500000E0,-2.939779162E-1,-1.991670579E-1,3.805943131E-1
2.105000000E0,-3.451170027E-1,-1.822399646E-1,3.625429869E-1
2.107500000E0,-3.897629082E-1,-1.665997356E-1,3.422838151E-1
2.110000000E0,-4.308874905E-1,-1.510447413E-1,3.162514567E-1
2.112500000E0,-4.703326523E-1,-1.386347264E-1,2.870000899E-1
2.115000000E0,-5.028789043E-1,-1.269371063E-1,2.559809387E-1
2.117500000E0,-5.277068019E-1,-1.123628691E-1,2.204912007E-1
2.120000000E0,-5.449495316E-1,-1.012271941E-1,1.843744367E-1
2.122500000E0,-5.578109026E-1,-9.056482464E-2,1.482321769E-1
2.125000000E0,-5.652341247E-1,-8.678092808E-2,1.153756157E-1
2.127500000E0,-5.695212483E-1,-8.533613384E-2,8.105765283E-2
2.130000000E0,-5.671807528E-1,-8.419860154E-2,5.244666338E-2
2.132500000E0,-5.618876219E-1,-8.592931181E-2,2.912800945E-2
2.135000000E0,-5.538583398E-1,-8.888220042E-2,8.864402771E-3
2.137500000E0,-5.407316089E-1,-9.087661654E-2,-9.169952944E-3
2.140000000E0,-5.317346454E-1,-8.624266088E-2,-2.447235025E-2
2.142500000E0,-5.146964788E-1,-8.012584597E-2,-3.717908263E-2
2.145000000E0,-4.974292815E-1,-6.740725785E-2,-4.817444831E-2
2.147500000E0,-4.812825918E-1,-5.429171398E-2,-5.919428170E-2
2.150000000E0,-4.635346830E-1,-4.283433408E-2,-6.840215623E-2
2.152500000E0,-4.397022128E-1,-3.695548698E-2,-7.366643101E-2
2.155000000E0,-4.144580066E-1,-3.699216247E-2,-7.399424911E-2
2.157500000E0,-3.886485696E-1,-4.152784497E-2,-7.305601239E-2
2.160000000E0,-3.629319668E-1,-4.964678362E-2,-6.518127769E-2
2.162500000E0,-3.390617371E-1,-5.609412491E-2,-5.599942803E-2
2.165000000E0,-3.118025959E-1,-6.174445525E-2,-4.403311387E-2
2.167500000E0,-2.890607119E-1,-6.194842979E-2,-3.113684244E-2
2.170000000E0,-2.690991461E-1,-5.871290714E-2,-1.651780866E-2
2.172500000E0,-2.544734776E-1,-4.881605878E-2,2.236128785E-4
2.175000000E0,-2.395191491E-1,-3.882904351E-2,1.916678064E-2
2.177500000E0,-2.269934118E-1,-2.650025487E-2,4.075004905E-2
2.180000000E0,-2.162846476E-1,-1.189576276E-2,6.513214856E-2
2.182500000E0,-2.066097260E-1,-3.165697446E-3,9.030682594E-2
2.185000000E0,-2.018929422E-1,4.796033725E-3,1.175476015E-1
2.187500000E0,-1.985286474E-1,7.502380293E-3,1.486657262E-1
2.190000000E0,-1.923530549E-1,-2.618578263E-3,1.812411100E-1
2.192500000E0,-1.882640570E-1,-1.656731218E-2,2.136282772E-1
2.195000000E0,-1.833624691E-1,-3.865729272E-2,2.458592206E-1
2.197500000E0,-1.769545674E-1,-6.862905622E-2,2.802444994E-1
2.200000000E0,-1.744270474E-1,-1.027451903E-1,3.149456680E-1
2.202500000E0,-1.717678308E-1,-1.372022927E-1,3.501802683E-1
2.205000000E0,-1.713218093E-1,-1.715208590E-1,3.841501772E-1
2.207500000E0,-1.782475114E-1,-2.000615448E-1,4.140357971E-1
2.210000000E0,-1.840721965E-1,-2.269476205E-1,4.447530508E-1
2.212500000E0,-1.928084344E-1,-2.476973385E-1,4.726200700E-1
2.215000000E0,-2.101341039E-1,-2.616582215E-1,4.988594651E-1
2.217500000E0,-2.294187099E-1,-2.782836556E-1,5.232304335E-1
2.220000000E0,-2.519839108E-1,-2.919379473E-1,5.461497903E-1
2.222500000E0,-2.718665004E-1,-2.989609241E-1,5.630452037E-1
2.225000000E0,-2.962054908E-1,-2.977786660E-1,5.779296160E-1
2.227500000E0,-3.185936213E-1,-2.948946059E-1,5.916850567E-1
2.230000000E0,-3.377110958E-1,-2.921170890E-1,6.041980386E-1
2.232500000E0,-3.566473126E-1,-2.876350284E-1,6.143202186E-1
2.235000000E0,-3.721673191E-1,-2.839499414E-1,6.220514774E-1
2.237500000E0,-3.874133229E-1,-2.788827121E-1,6.269562840E-1
2.240000000E0,-4.013738036E-1,-2.756333947E-1,6.275022030E-1
2.242500000E0,-4.096957445E-1,-2.698080242E-1,6.268374324E-1
2.245000000E0,-4.238903522E-1,-2.616988420E-1,6.243754625E-1
2.247500000E0,-4.340010285E-1,-2.550508082E-1,6.192901731E-1
2.250000000E0,-4.435379207E-1,-2.471507788E-1,6.116544008E-1
2.252500000E0,-4.528451562E-1,-2.370036244E-1,6.023471951E-1
2.255000000E0,-4.615615904E-1,-2.262937576E-1,5.909725428E-1
2.257500000E0,-4.686841667E-1,-2.121428400E-1,5.770117044E-1
2.260000000E0,-4.758379459E-1,-1.968767196E-1,5.629700422E-1
2.262500000E0,-4.808667898E-1,-1.794327646E-1,5.466966033E-1
2.265000000E0,-4.843172133E-1,-1.609006524E-1,5.285381675E-1
2.267500000E0,-4.883656204E-1,-1.386580616E-1,5.075654984E-1
2.270000000E0,-4.871548712E-1,-1.213222817E-1,4.872022271E-1
2.272500000E0,-4.832758009E-1,-1.024435386E-1,4.639797807E-1
2.275000000E0,-4.805110991E-1,-8.050501347E-2,4.381431639E-1
2.277500000E0,-4.729233384E-1,-6.024312228E-2,4.119701982E-1
2.280000000E0,-4.690358937E-1,-4.039390758E-2,3.838748932E-1
2.282500000E0,-4.615452290E-1,-2.008647658E-2,3.563164473E-1
2.285000000E0,-4.486310780E-1,-1.655789325E-3,3.265984058E-1
2.287500000E0,-4.369951785E-1,1.645881496E-2,2.957681417E-1
2.290000000E0,-4.224852026E-1,3.287031502E-2,2.667852938E-1
2.292500000E0,-4.054934680E-1,4.860052839E-2,2.360577583E-1
2.295000000E0,-3.887020648E-1,6.504931301E-2,2.064842135E-1
2.297500000E0,-3.686981797E-1,7.705312222E-2,1.808705926E-1
2.300000000E0,-3.442078233E-1,8.704575151E-2,1.552486718E-1
2.302500000E0,-3.213197887E-1,9.706560522E-2,1.341647655E-1
2.305000000E0,-2.971126735E-1,1.012858152E-1,1.164898723E-1
2.307500000E0,-2.737349272E-1,1.031316891E-1,1.020516381E-1
2.310000000E0,-2.528153658E-1,1.007203385E-1,9.592266381E-2
2.312500000E0,-2.389722019E-1,9.796026349E-2,9.553410113E-2
2.315000000E0,-2.246420085E-1,8.574853092E-2,9.835783392E-2
2.317500000E0,-2.191083431E-1,7.471317053E-2,1.039373800E-1
2.320000000E0,-2.193837464E-1,6.288718432E-2,1.092578098E-1
2.322500000E0,-2.241719067E-1,5.491124466E-2,1.165691018E-1
2.325000000E0,-2.364057153E-1,4.560893774E-2,1.246764064E-1
2.327500000E0,-2.494251728E-1,3.430803865E-2,1.339830160E-1
2.330000000E0,-2.709318697E-1,2.618268877E-2,1.422313601E-1
2.332500000E0,-2.928619385E-1,1.754606515E-2,1.507424563E-1
2.335000000E0,-3.195511699E-1,9.946851991E-3,1.589821279E-1
2.337500000E0,-3.471128941E-1,2.935983503E-5,1.680194587E-1
2.340000000E0,-3.761996031E-1,-1.050235145E-2,1.778543890E-1
2.342500000E0,-4.080973864E-1,-1.941169798E-2,1.845395714E-1
2.345000000E0,-4.384720922E-1,-3.015937097E-2,1.914471239E-1
2.347500000E0,-4.667920470E-1,-4.056987166E-2,1.995419115E-1
2.350000000E0,-4.995650649E-1,-4.256898165E-2,2.066203654E-1
2.352500000E0,-5.270875096E-1,-4.818468168E-2,2.114285380E-1
2.355000000E0,-5.579511523E-1,-4.812550545E-2,2.159858495E-1
2.357500000E0,-5.838845968E-1,-4.741531238E-2,2.189241946E-1
2.360000000E0,-6.108537912E-1,-4.319959134E-2,2.231399417E-1
2.362500000E0,-6.332040429E-1,-3.813190013E-2,2.263742238E-1
2.365000000E0,-6.540649533E-1,-2.740777656E-2,2.290336490E-1
2.367500000E0,-6.715133190E-1,-1.697137393E-2,2.313103378E-1
2.370000000E0,-6.830507517E-1,-3.546602326E-3,2.353635430E-1
2.372500000E0,-6.934964061E-1,8.642733097E-3,2.409680337E-1
2.375000000E0,-7.031723261E-1,2.459605969E-2,2.459409386E-1
2.377500000E0,-7.082033753E-1,4.130520672E-2,2.529661357E-1
2.380000000E0,-7.150512934E-1,5.705621094E-2,2.602775395E-1
2.382500000E0,-7.107237577E-1,6.540392339E-2,2.709091306E-1
2.385000000E0,-7.110872269E-1,7.712613046E-2,2.822081447E-1
2.387500000E0,-7.082642317E-1,8.954526484E-2,2.927601337E-1
2.390000000E0,-7.027601600E-1,9.677339345E-2,3.032351732E-1
2.392500000E0,-7.014583945E-1,1.020906940E-1,3.152492642E-1
2.395000000E0,-6.976616979E-1,1.043308973E-1,3.274045289E-1
2.397500000E0,-6.948524714E-1,1.006387249E-1,3.387042582E-1
2.400000000E0,-6.900177598E-1,9.514820576E-2,3.485020399E-1
2.402500000E0,-6.846680045E-1,8.706680685E-2,3.570754528E-1
2.405000000E0,-6.791175604E-1,7.776004076E-2,3.643559515E-1
2.407500000E0,-6.745918989E-1,6.735994667E-2,3.688816428E-1
2.410000000E0,-6.687852740E-1,5.258258805E-2,3.717091978E-1
2.412500000E0,-6.645987630E-1,3.643408790E-2,3.720985651E-1
2.415000000E0,-6.627929807E-1,1.823475026E-2,3.694193959E-1
2.417500000E0,-6.595244408E-1,-1.711959019E-3,3.621863723E-1
2.420000000E0,-6.573574543E-1,-2.313697152E-2,3.512275219E-1
2.422500000E0,-6.517056227E-1,-4.445412382E-2,3.392786086E-1
2.425000000E0,-6.475085616E-1,-6.438499689E-2,3.230959773E-1
2.427500000E0,-6.437302232E-1,-7.953281701E-2,3.021924198E-1
2.430000000E0,-6.403666735E-1,-8.794176579E-2,2.746564448E-1
2.432500000E0,-6.398346424E-1,-9.574155509E-2,2.490796596E-1
2.435000000E0,-6.462575197E-1,-1.116965190E-1,2.304650843E-1
2.437500000E0,-6.549009681E-1,-1.226303130E-1,2.126363665E-1
2.440000000E0,-6.611184478E-1,-1.230978370E-1,1.976499856E-1
2.442500000E0,-6.616680026E-1,-1.162619740E-1,1.900676191E-1
2.445000000E0,-6.623473167E-1,-1.005375087E-1,1.856162101E-1
2.447500000E0,-6.564487815E-1,-8.531310409E-2,1.847015768E-1
2.450000000E0,-6.477363110E-1,-6.750436127E-2,1.839232892E-1
2.452500000E0,-6.396788359E-1,-4.393471032E-2,1.830459982E-1
2.455000000E0,-6.312496066E-1,-1.957882568E-2,1.812642664E-1
2.457500000E0,-6.215499640E-1,4.991955124E-3,1.799347997E-1
2.460000000E0,-6.116795540E-1,3.035180829E-2,1.766988933E-1
2.462500000E0,-6.002429724E-1,6.144917011E-2,1.763625443E-1
2.465000000E0,-5.903130174E-1,8.882441372E-2,1.765705496E-1
2.467500000E0,-5.790129304E-1,1.114091277E-1,1.775753051E-1
2.470000000E0,-5.681850314E-1,1.357047856E-1,1.789047420E-1
2.472500000E0,-5.574778914E-1,1.605747491E-1,1.803771108E-1
2.475000000E0,-5.467880964E-1,1.861461252E-1,1.822219640E-1
2.477500000E0,-5.388240218E-1,2.073986977E-1,1.825575233E-1
2.480000000E0,-5.303058624E-1,2.248058915E-1,1.850928962E-1
2.482500000E0,-5.213975906E-1,2.402256727E-1,1.850194782E-1
2.485000000E0,-5.091671944E-1,2.529264390E-1,1.871458888E-1
2.487500000E0,-4.971878827E-1,2.618937790E-1,1.901407093E-1
2.490000000E0,-4.892100394E-1,2.736592293E-1,1.921351701E-1
2.492500000E0,-4.769076705E-1,2.807981968E-1,1.941297054E-1
2.495000000E0,-4.676792920E-1,2.858061194E-1,1.961242110E-1
2.497500000E0,-4.560594857E-1,2.874836028E-1,1.974641681E-1
2.500000000E0,-4.452649653E-1,2.794174850E-1,1.962909251E-1
2.502500000E0,-4.387831688E-1,2.558515072E-1,1.970187426E-1
2.505000000E0,-4.294569790E-1,2.349670678E-1,1.962627321E-1
2.507500000E0,-4.099421203E-1,2.222266197E-1,1.975744963E-1
2.510000000E0,-3.825707138E-1,2.176840752E-1,2.013916969E-1
2.512500000E0,-3.533358872E-1,2.139041424E-1,2.045942545E-1
2.515000000E0,-3.294194341E-1,2.100178450E-1,2.036575675E-1
2.517500000E0,-3.005631566E-1,2.034210116E-1,1.977772713E-1
2.520000000E0,-2.695289254E-1,1.958946288E-1,1.895860434E-1
2.522500000E0,-2.355166376E-1,1.876696944E-1,1.810755134E-1
2.525000000E0,-2.012917548E-1,1.829010993E-1,1.734644324E-1
2.527500000E0,-1.608411968E-1,1.789463162E-1,1.680780649E-1
2.530000000E0,-1.196374074E-1,1.747403443E-1,1.609567553E-1
2.532500000E0,-7.820881158E-2,1.647679061E-1,1.562781334E-1
2.535000000E0,-4.031768069E-2,1.521888226E-1,1.525712460E-1
2.537500000E0,-2.115189563E-3,1.399971247E-1,1.535470933E-1
2.540000000E0,3.333756328E-2,1.304692626E-1,1.562060863E-1
2.542500000E0,6.144476309E-2,1.315084845E-1,1.604030728E-1
2.545000000E0,8.663749695E-2,1.374573708E-1,1.697433889E-1
2.547500000E0,1.097495407E-1,1.392988265E-1,1.822708547E-1
2.550000000E0,1.319385767E-1,1.399504542E-1,1.988634020E-1
2.552500000E0,1.512513608E-1,1.419272125E-1,2.184479237E-1
2.555000000E0,1.682109386E-1,1.455915868E-1,2.377423644E-1
2.557500000E0,1.849504262E-1,1.490354985E-1,2.605272233E-1
2.560000000E0,1.971989274E-1,1.566782445E-1,2.855585814E-1
2.562500000E0,2.098067701E-1,1.696151942E-1,3.075905144E-1
2.565000000E0,2.267598510E-1,1.830776483E-1,3.330180049E-1
2.567500000E0,2.386335880E-1,1.950442642E-1,3.600455225E-1
2.570000000E0,2.492320836E-1,2.057200372E-1,3.851128519E-1
2.572500000E0,2.620428503E-1,2.118445635E-1,4.085271657E-1
2.575000000E0,2.705405653E-1,2.181858271E-1,4.304663837E-1
2.577500000E0,2.765240967E-1,2.206276059E-1,4.518177807E-1
2.580000000E0,2.820814252E-1,2.206783593E-1,4.715754986E-1
2.582500000E0,2.849082053E-1,2.142739147E-1,4.902974069E-1
2.585000000E0,2.804451287E-1,2.024974823E-1,5.087552667E-1
2.587500000E0,2.718502581E-1,1.892007142E-1,5.258354545E-1
2.590000000E0,2.598829567E-1,1.763260663E-1,5.417918563E-1
2.592500000E0,2.409571707E-1,1.620527208E-1,5.549971461E-1
2.595000000E0,2.123202831E-1,1.476293057E-1,5.672160983E-1
2.597500000E0,1.840107888E-1,1.319597065E-1,5.747143030E-1
2.600000000E0,1.505012363E-1,1.149957925E-1,5.802794695E-1
2.602500000E0,1.147160903E-1,9.532398731E-2,5.860952139E-1
2.605000000E0,7.776777446E-2,7.376956940E-2,5.896344185E-1
2.607500000E0,3.918896243E-2,5.553809553E-2,5.913468599E-1
2.610000000E0,5.774963647E-3,3.775223345E-2,5.935046077E-1
2.612500000E0,-2.666679583E-2,1.933527738E-2,5.977887511E-1
2.615000000E0,-5.682902783E-2,-2.537017281E-4,6.016318202E-1
2.617500000E0,-8.076072484E-2,-1.704128645E-2,6.055110693E-1
2.620000000E0,-1.005943939E-1,-3.744887188E-2,6.085252762E-1
2.622500000E0,-1.188883930E-1,-5.132235959E-2,6.072589755E-1
2.625000000E0,-1.327490509E-1,-6.765894592E-2,6.038932800E-1
2.627500000E0,-1.448757201E-1,-8.376888186E-2,5.976369381E-1
2.630000000E0,-1.539564580E-1,-1.014583930E-1,5.873396993E-1
2.632500000E0,-1.623831987E-1,-1.166303903E-1,5.779494643E-1
2.635000000E0,-1.616979837E-1,-1.157264262E-1,5.714386702E-1
2.637500000E0,-1.559516490E-1,-9.679463506E-2,5.641098619E-1
2.640000000E0,-1.518611014E-1,-7.113107294E-2,5.499873161E-1
2.642500000E0,-1.559946984E-1,-4.732920229E-2,5.337659717E-1
2.645000000E0,-1.595844328E-1,-1.355926879E-2,5.151509047E-1
2.647500000E0,-1.650330573E-1,3.296810389E-2,5.002554059E-1
2.650000000E0,-1.665185243E-1,8.826011419E-2,4.865618348E-1
2.652500000E0,-1.661119014E-1,1.472936571E-1,4.763055742E-1
2.655000000E0,-1.619969308E-1,2.036529332E-1,4.683209062E-1
2.657500000E0,-1.607851684E-1,2.658600807E-1,4.613866806E-1
2.660000000E0,-1.592129469E-1,3.257533014E-1,4.560680091E-1
2.662500000E0,-1.549780071E-1,3.803021610E-1,4.544258714E-1
2.665000000E0,-1.549257487E-1,4.324649870E-1,4.530697763E-1
2.667500000E0,-1.556962878E-1,4.822208881E-1,4.551699460E-1
2.670000000E0,-1.580797434E-1,5.315307975E-1,4.584940672E-1
2.672500000E0,-1.623024344E-1,5.834769011E-1,4.644238651E-1
2.675000000E0,-1.614384502E-1,6.392840147E-1,4.716047347E-1
2.677500000E0,-1.621032655E-1,6.980785728E-1,4.800220132E-1
2.680000000E0,-1.600739062E-1,7.500038743E-1,4.913237691E-1
2.682500000E0,-1.597041637E-1,8.051819801E-1,5.026254058E-1
2.685000000E0,-1.544102728E-1,8.601588607E-1,5.170562863E-1
2.687500000E0,-1.484272033E-1,9.154980183E-1,5.302711129E-1
2.690000000E0,-1.409212351E-1,9.725739360E-1,5.445215702E-1
2.692500000E0,-1.302276999E-1,1.028568268E0,5.568868518E-1
2.695000000E0,-1.125893891E-1,1.078493476E0,5.698984861E-1
2.697500000E0,-9.359478205E-2,1.128664374E0,5.811313391E-1
2.700000000E0,-7.165683061E-2,1.179764748E0,5.914796591E-1
2.702500000E0,-5.175355449E-2,1.236390233E0,6.031331420E-1
2.705000000E0,-2.905538678E-2,1.291047454E0,6.145592332E-1
2.707500000E0,-5.843412131E-3,1.347000599E0,6.217608452E-1
2.710000000E0,1.646676846E-2,1.403640628E0,6.234365106E-1
2.712500000E0,3.604348376E-2,1.455791950E0,6.222674251E-1
2.715000000E0,5.307327956E-2,1.498084068E0,6.172366738E-1
2.717500000E0,6.624045968E-2,1.534990668E0,6.080797315E-1
2.720000000E0,7.113140076E-2,1.565951109E0,5.942021012E-1
2.722500000E0,7.496169955E-2,1.590536237E0,5.757461786E-1
2.725000000E0,7.389464974E-2,1.610379100E0,5.535393357E-1
2.727500000E0,6.386162341E-2,1.623382807E0,5.294046998E-1
2.730000000E0,5.268568546E-2,1.631535649E0,5.061361790E-1
2.732500000E0,3.973748535E-2,1.636199713E0,4.818758667E-1
2.735000000E0,3.072106652E-2,1.632705927E0,4.620163739E-1
2.737500000E0,1.478343457E-2,1.625620604E0,4.405144453E-1
2.740000000E0,5.173459067E-4,1.619332194E0,4.200147390E-1
2.742500000E0,-1.245997753E-2,1.614332676E0,4.017188847E-1
2.745000000E0,-2.404187061E-2,1.619512320E0,3.829619288E-1
2.747500000E0,-4.021533579E-2,1.633261561E0,3.623466790E-1
2.750000000E0,-5.479466543E-2,1.653129578E0,3.400522172E-1
2.752500000E0,-6.826800108E-2,1.679324985E0,3.189118803E-1
2.755000000E0,-8.821804821E-2,1.709778070E0,3.022843599E-1
2.757500000E0,-1.035088077E-1,1.737913132E0,2.883166671E-1
2.760000000E0,-1.170415804E-1,1.768180847E0,2.792008221E-1
2.762500000E0,-1.270733625E-1,1.791023016E0,2.717665434E-1
2.765000000E0,-1.363313049E-1,1.792961478E0,2.612088323E-1
2.767500000E0,-1.403391808E-1,1.776651978E0,2.549721599E-1
2.770000000E0,-1.450825483E-1,1.751270056E0,2.530675828E-1
2.772500000E0,-1.526893675E-1,1.719992757E0,2.559444606E-1
2.775000000E0,-1.616729945E-1,1.685938478E0,2.616890669E-1
2.777500000E0,-1.742725074E-1,1.646018863E0,2.665853798E-1
2.780000000E0,-1.878898591E-1,1.607804298E0,2.709172368E-1
2.782500000E0,-2.011855990E-1,1.571812630E0,2.755707204E-1
2.785000000E0,-2.116685510E-1,1.530943632E0,2.802989483E-1
2.787500000E0,-2.238416225E-1,1.496463060E0,2.856172919E-1
2.790000000E0,-2.351169586E-1,1.458895564E0,2.916135490E-1
2.792500000E0,-2.479150593E-1,1.421002746E0,2.973192930E-1
2.795000000E0,-2.586093545E-1,1.379168987E0,3.009691834E-1
2.797500000E0,-2.725130320E-1,1.337457776E0,3.058253527E-1
2.800000000E0,-2.878035307E-1,1.290916920E0,3.104742467E-1
2.802500000E0,-3.030940294E-1,1.246050239E0,3.139961958E-1
2.805000000E0,-3.226420283E-1,1.204500914E0,3.159894943E-1
2.807500000E0,-3.471800983E-1,1.167142749E0,3.172497153E-1
2.810000000E0,-3.691153228E-1,1.129902601E0,3.175947070E-1
2.812500000E0,-3.903305531E-1,1.092353940E0,3.165257275E-1
2.815000000E0,-4.136922657E-1,1.056858897E0,3.152038455E-1
2.817500000E0,-4.403666854E-1,1.027494431E0,3.118489981E-1
2.820000000E0,-4.653030634E-1,1.000492692E0,3.052008748E-1
2.822500000E0,-4.880665541E-1,9.815579653E-1,2.994700074E-1
2.825000000E0,-5.107705593E-1,9.666938782E-1,2.926214635E-1
2.827500000E0,-5.361293554E-1,9.552057385E-1,2.816040814E-1
2.830000000E0,-5.624196529E-1,9.518214464E-1,2.702821493E-1
2.832500000E0,-5.849552155E-1,9.514007568E-1,2.596453130E-1
2.835000000E0,-6.055951715E-1,9.487374425E-1,2.471946329E-1
2.837500000E0,-6.316290498E-1,9.478070140E-1,2.337124646E-1
2.840000000E0,-6.565449834E-1,9.486196637E-1,2.203879952E-1
2.842500000E0,-6.795558333E-1,9.557394385E-1,2.073063850E-1
2.845000000E0,-7.000805140E-1,9.624526501E-1,1.959569007E-1
2.847500000E0,-7.188203335E-1,9.674070477E-1,1.871327013E-1
2.850000000E0,-7.389113307E-1,9.704537988E-1,1.775114089E-1
2.852500000E0,-7.526267171E-1,9.746789336E-1,1.675395370E-1
2.855000000E0,-7.705436945E-1,9.851107001E-1,1.582826227E-1
2.857500000E0,-7.825954556E-1,9.961487651E-1,1.513254195E-1
2.860000000E0,-7.906180620E-1,1.010419369E0,1.456521004E-1
2.862500000E0,-7.992566824E-1,1.025044799E0,1.434274614E-1
2.865000000E0,-8.072500825E-1,1.036225915E0,1.415731013E-1
2.867500000E0,-8.129155040E-1,1.045647860E0,1.396080554E-1
2.870000000E0,-8.195635080E-1,1.049797177E0,1.399137080E-1
2.872500000E0,-8.257736564E-1,1.053542614E0,1.397029459E-1
2.875000000E0,-8.353996277E-1,1.055048823E0,1.397197396E-1
2.877500000E0,-8.476669788E-1,1.052414894E0,1.413754225E-1
2.880000000E0,-8.561856151E-1,1.054648876E0,1.426431686E-1
2.882500000E0,-8.644230962E-1,1.056238532E0,1.459383816E-1
2.885000000E0,-8.736646175E-1,1.059364676E0,1.495598257E-1
2.887500000E0,-8.866344690E-1,1.066512346E0,1.572031081E-1
2.890000000E0,-8.974986076E-1,1.071971178E0,1.661430150E-1
2.892500000E0,-9.116123319E-1,1.076818943E0,1.763091981E-1
2.895000000E0,-9.252181649E-1,1.083260536E0,1.875654906E-1
2.897500000E0,-9.394806027E-1,1.090552807E0,2.003578991E-1
2.900000000E0,-9.520747066E-1,1.098687410E0,2.127745748E-1
2.902500000E0,-9.595733285E-1,1.107462049E0,2.257775366E-1
2.905000000E0,-9.687898755E-1,1.120444417E0,2.407542318E-1
2.907500000E0,-9.781259894E-1,1.138468742E0,2.540134490E-1
2.910000000E0,-9.776635170E-1,1.152429581E0,2.684367895E-1
2.912500000E0,-9.791706800E-1,1.168917537E0,2.817328274E-1
2.915000000E0,-9.740133286E-1,1.183526754E0,2.943724096E-1
2.917500000E0,-9.685421586E-1,1.197128296E0,3.041379750E-1
2.920000000E0,-9.580005407E-1,1.211754084E0,3.145849705E-1
2.922500000E0,-9.434655905E-1,1.227630854E0,3.218070865E-1
2.925000000E0,-9.251781106E-1,1.238907218E0,3.298879862E-1
2.927500000E0,-9.039044380E-1,1.254416823E0,3.335013688E-1
2.930000000E0,-8.829116821E-1,1.267254710E0,3.323785067E-1
2.932500000E0,-8.606515527E-1,1.274840593E0,3.284807801E-1
2.935000000E0,-8.319214582E-1,1.276741743E0,3.243475556E-1
2.937500000E0,-8.023519516E-1,1.268938422E0,3.184515536E-1
2.940000000E0,-7.747653723E-1,1.256142378E0,3.101973534E-1
2.942500000E0,-7.452582717E-1,1.240138292E0,3.011463881E-1
2.945000000E0,-7.133031487E-1,1.223861933E0,2.891190052E-1
2.947500000E0,-6.808686256E-1,1.200942397E0,2.744572461E-1
2.950000000E0,-6.486857533E-1,1.171626568E0,2.558105588E-1
2.952500000E0,-6.157057881E-1,1.131510019E0,2.360106111E-1
2.955000000E0,-5.840715170E-1,1.085867405E0,2.151135504E-1
2.957500000E0,-5.517534614E-1,1.036839962E0,1.916943192E-1
2.960000000E0,-5.197257996E-1,9.936277270E-1,1.637611836E-1
2.962500000E0,-4.904744625E-1,9.480135441E-1,1.346456707E-1
2.965000000E0,-4.574958980E-1,8.976176977E-1,1.028643921E-1
2.967500000E0,-4.257215858E-1,8.504052758E-1,6.962946802E-2
2.970000000E0,-3.907604814E-1,8.119550943E-1,3.425813094E-2
2.972500000E0,-3.553842306E-1,7.838647962E-1,-2.293089405E-3
2.975000000E0,-3.165877163E-1,7.592668533E-1,-3.754555434E-2
2.977500000E0,-2.743132710E-1,7.362671494E-1,-7.475711405E-2
2.980000000E0,-2.328355312E-1,7.106298208E-1,-1.112064421E-1
2.982500000E0,-1.925210357E-1,6.825888157E-1,-1.460490227E-1
2.985000000E0,-1.517251283E-1,6.519056559E-1,-1.811429560E-1
2.987500000E0,-1.111635864E-1,6.227905154E-1,-2.157212943E-1
2.990000000E0,-7.035481185E-2,5.871971846E-1,-2.477336526E-1
2.992500000E0,-2.991271764E-2,5.407710075E-1,-2.760432959E-1
2.995000000E0,6.335500628E-3,4.941755235E-1,-3.025498688E-1
2.997500000E0,4.210277274E-2,4.555519223E-1,-3.245095611E-1
3.000000000E0,7.658261806E-2,4.265521169E-1,-3.486041427E-1
3.002500000E0,1.071363539E-1,4.006519318E-1,-3.691859841E-1
3.005000000E0,1.372702569E-1,3.787824810E-1,-3.888320625E-1
3.007500000E0,1.634862870E-1,3.584747910E-1,-4.050036967E-1
3.010000000E0,1.838025749E-1,3.577196002E-1,-4.231082797E-1
3.012500000E0,2.171341628E-1,3.811735213E-1,-4.410601258E-1
3.015000000E0,2.443350703E-1,3.959972560E-1,-4.508753717E-1
3.017500000E0,2.680666745E-1,4.075634778E-1,-4.587189555E-1
3.020000000E0,2.877508104E-1,4.048065543E-1,-4.617347717E-1
3.022500000E0,3.008750379E-1,3.881322443E-1,-4.611875415E-1
3.025000000E0,3.163940012E-1,3.668229580E-1,-4.597006440E-1
3.027500000E0,3.281106949E-1,3.455244899E-1,-4.566620886E-1
3.030000000E0,3.414591551E-1,3.264023364E-1,-4.482586980E-1
3.032500000E0,3.586832285E-1,3.137102425E-1,-4.387962520E-1
3.035000000E0,3.814858496E-1,3.070999682E-1,-4.271527529E-1
3.037500000E0,4.088014960E-1,2.976792753E-1,-4.156349897E-1
3.040000000E0,4.369178116E-1,2.802350819E-1,-3.999148607E-1
3.042500000E0,4.671109617E-1,2.543285191E-1,-3.864595294E-1
3.045000000E0,5.026813149E-1,2.187537551E-1,-3.734947443E-1
3.047500000E0,5.368779898E-1,1.765007675E-1,-3.631578684E-1
3.050000000E0,5.777444243E-1,1.167614534E-1,-3.523175716E-1
3.052500000E0,6.149681211E-1,5.130799487E-2,-3.441598415E-1
3.055000000E0,6.504992247E-1,-1.978296787E-2,-3.380068243E-1
3.057500000E0,6.896438599E-1,-9.676074237E-2,-3.330286145E-1
3.060000000E0,7.321762443E-1,-1.571228802E-1,-3.312758207E-1
3.062500000E0,7.748290300E-1,-2.009900659E-1,-3.337869346E-1
3.065000000E0,8.206695318E-1,-2.374422550E-1,-3.399131894E-1
3.067500000E0,8.659598231E-1,-2.748259902E-1,-3.475546837E-1
3.070000000E0,9.113889337E-1,-3.184831440E-1,-3.632951379E-1
3.072500000E0,9.561960697E-1,-3.662154973E-1,-3.836378753E-1
3.075000000E0,1.000559568E0,-4.162535667E-1,-4.073448777E-1
3.077500000E0,1.046957850E0,-4.661138356E-1,-4.360862672E-1
3.080000000E0,1.094148874E0,-5.140095949E-1,-4.695248306E-1
3.082500000E0,1.143380404E0,-5.557842255E-1,-5.081914663E-1
3.085000000E0,1.190344691E0,-5.956717134E-1,-5.545340180E-1
3.087500000E0,1.238019109E0,-6.327732801E-1,-6.071215868E-1
3.090000000E0,1.289017439E0,-6.660584211E-1,-6.684527397E-1
3.092500000E0,1.339944124E0,-6.969856620E-1,-7.357085943E-1
3.095000000E0,1.392940879E0,-7.291875482E-1,-8.112519383E-1
3.097500000E0,1.445059776E0,-7.638278008E-1,-8.951507211E-1
3.100000000E0,1.496984363E0,-8.003919721E-1,-9.844443202E-1
3.102500000E0,1.544127464E0,-8.396927118E-1,-1.074876904E0
3.105000000E0,1.586488128E0,-8.829971552E-1,-1.168798447E0
3.107500000E0,1.624379873E0,-9.300701618E-1,-1.263406157E0
3.110000000E0,1.657762647E0,-9.749760628E-1,-1.360372663E0
3.112500000E0,1.682621241E0,-1.021501303E0,-1.461782694E0
3.115000000E0,1.698999763E0,-1.066432714E0,-1.565767407E0
3.117500000E0,1.708090067E0,-1.115166545E0,-1.677645326E0
3.120000000E0,1.703616261E0,-1.164285541E0,-1.794672489E0
3.122500000E0,1.689300299E0,-1.229118705E0,-1.918667912E0
3.125000000E0,1.660038710E0,-1.302718163E0,-2.047775984E0
3.127500000E0,1.614586949E0,-1.384551167E0,-2.179600239E0
3.130000000E0,1.557704210E0,-1.466861129E0,-2.313764334E0
3.132500000E0,1.492906332E0,-1.546642184E0,-2.446058512E0
3.135000000E0,1.418373942E0,-1.621598482E0,-2.576507568E0
3.137500000E0,1.331727624E0,-1.691905737E0,-2.704467535E0
3.140000000E0,1.236335635E0,-1.750385046E0,-2.825716734E0
3.142500000E0,1.133658290E0,-1.801007748E0,-2.939467907E0
3.145000000E0,1.026538849E0,-1.837270617E0,-3.043877125E0
3.147500000E0,9.188225269E-1,-1.859156728E0,-3.140361786E0
3.150000000E0,8.115999699E-1,-1.876361251E0,-3.229072571E0
3.152500000E0,7.006905079E-1,-1.884360909E0,-3.308682680E0
3.155000000E0,5.904256105E-1,-1.893940687E0,-3.373165607E0
3.157500000E0,4.912680089E-1,-1.910639763E0,-3.420715094E0
3.160000000E0,4.017098546E-1,-1.941116214E0,-3.441093683E0
3.162500000E0,3.244395554E-1,-1.983254671E0,-3.438198090E0
3.165000000E0,2.641231716E-1,-2.015900850E0,-3.410742283E0
3.167500000E0,2.266041189E-1,-2.014955521E0,-3.361296177E0
3.170000000E0,2.035055310E-1,-1.987890720E0,-3.294704914E0
3.172500000E0,1.974847168E-1,-1.937205672E0,-3.202332020E0
3.175000000E0,2.168419808E-1,-1.852697730E0,-3.058375359E0
3.177500000E0,2.813967764E-1,-1.734532833E0,-2.859746933E0
3.180000000E0,3.868012726E-1,-1.558669329E0,-2.620708227E0
3.182500000E0,5.297601819E-1,-1.336076856E0,-2.353908539E0
3.185000000E0,6.992226839E-1,-1.083961606E0,-2.064774513E0
3.187500000E0,8.904281855E-1,-8.088728786E-1,-1.766666770E0
3.190000000E0,1.108264208E0,-5.108651519E-1,-1.467407942E0
3.192500000E0,1.339836001E0,-1.969398856E-1,-1.179656744E0
3.195000000E0,1.581534147E0,1.160074919E-1,-9.130895734E-1
3.197500000E0,1.823421717E0,4.064812660E-1,-6.756803393E-1
3.200000000E0,2.064703465E0,6.494880319E-1,-4.833164513E-1
3.202500000E0,2.290647268E0,8.360041380E-1,-3.219032586E-1
3.205000000E0,2.503976583E0,9.644122720E-1,-1.837375164E-1
3.207500000E0,2.702120304E0,1.038197637E0,-7.791764289E-2
3.210000000E0,2.881338120E0,1.061088204E0,1.916202251E-3
3.212500000E0,3.038058281E0,1.041107535E0,6.210244820E-2
3.215000000E0,3.169274092E0,9.869795442E-1,1.054326743E-1
3.217500000E0,3.274913788E0,9.015522003E-1,1.334352940E-1
3.220000000E0,3.344277143E0,8.040357828E-1,1.486652941E-1
3.222500000E0,3.386996031E0,7.026935220E-1,1.518079937E-1
3.225000000E0,3.402360916E0,6.039482355E-1,1.462359577E-1
3.227500000E0,3.385260105E0,5.173991919E-1,1.309307069E-1
3.230000000E0,3.336552143E0,4.495375454E-1,1.104047745E-1
3.232500000E0,3.261987925E0,3.897728324E-1,8.379133791E-2
3.235000000E0,3.159110546E0,3.245159984E-1,5.075918883E-2
3.237500000E0,3.021595001E0,2.566982806E-1,1.207540184E-2
3.240000000E0,2.862426519E0,1.806073189E-1,-3.210496530E-2
3.242500000E0,2.692722797E0,1.017873511E-1,-8.043329418E-2
3.245000000E0,2.511722326E0,1.361068245E-2,-1.354483068E-1
3.247500000E0,2.328418970E0,-9.525924921E-2,-1.940104514E-1
3.250000000E0,2.144785643E0,-2.372966707E-1,-2.460147291E-1
3.252500000E0,1.962594271E0,-4.059384167E-1,-2.913634777E-1
3.255000000E0,1.788451910E0,-5.842627883E-1,-3.336574435E-1
3.257500000E0,1.616520643E0,-7.558789253E-1,-3.711867034E-1
3.260000000E0,1.446864724E0,-9.171395898E-1,-4.000080824E-1
3.262500000E0,1.285640597E0,-1.075979948E0,-4.253367782E-1
3.265000000E0,1.127975106E0,-1.223906517E0,-4.463097453E-1
3.267500000E0,9.710988402E-1,-1.352944255E0,-4.597276747E-1
3.270000000E0,8.174830675E-1,-1.448041320E0,-4.663446844E-1
3.272500000E0,6.733965874E-1,-1.511498451E0,-4.676205218E-1
3.275000000E0,5.320547819E-1,-1.541090846E0,-4.593133926E-1
3.277500000E0,3.942235112E-1,-1.537646770E0,-4.425095916E-1
3.280000000E0,2.635400593E-1,-1.502091885E0,-4.197615683E-1
3.282500000E0,1.392337680E-1,-1.447156191E0,-3.922314644E-1
3.285000000E0,2.609089389E-2,-1.381470680E0,-3.627145588E-1
3.287500000E0,-6.792470813E-2,-1.315786242E0,-3.318690062E-1
3.290000000E0,-1.457684636E-1,-1.255915642E0,-3.059127629E-1
3.292500000E0,-2.092320472E-1,-1.208005548E0,-2.868816853E-1
3.295000000E0,-2.599581480E-1,-1.173629761E0,-2.750028074E-1
3.297500000E0,-2.963387668E-1,-1.148069620E0,-2.711054683E-1
3.300000000E0,-3.220035136E-1,-1.136580825E0,-2.697649598E-1
3.302500000E0,-3.351831436E-1,-1.138174057E0,-2.689529657E-1
3.305000000E0,-3.331909478E-1,-1.153345346E0,-2.689529657E-1
3.307500000E0,-3.176508248E-1,-1.182039618E0,-2.684299052E-1
3.310000000E0,-2.892606556E-1,-1.220572591E0,-2.662096620E-1
3.312500000E0,-2.547044754E-1,-1.265765548E0,-2.611031234E-1
3.315000000E0,-2.121088356E-1,-1.317064166E0,-2.511915863E-1
3.317500000E0,-1.649724394E-1,-1.369956613E0,-2.393710166E-1
3.320000000E0,-1.162781566E-1,-1.418465257E0,-2.267535627E-1
3.322500000E0,-6.874072552E-2,-1.455588102E0,-2.148739547E-1
3.325000000E0,-1.954524219E-2,-1.476422071E0,-2.019414306E-1
3.327500000E0,2.965023927E-2,-1.481267810E0,-1.888599545E-1
3.330000000E0,7.865562290E-2,-1.466366291E0,-1.769131571E-1
3.332500000E0,1.300918460E-1,-1.428469777E0,-1.577318311E-1
3.335000000E0,1.808111817E-1,-1.369812965E0,-1.383503824E-1
3.337500000E0,2.281185389E-1,-1.293785691E0,-1.168265864E-1
3.340000000E0,2.794653773E-1,-1.197693110E0,-8.875206113E-2
3.342500000E0,3.278727531E-1,-1.088057756E0,-5.762511864E-2
3.345000000E0,3.756156266E-1,-9.750410914E-1,-2.213922516E-2
3.347500000E0,4.273431897E-1,-8.645564914E-1,1.711544581E-2
3.350000000E0,4.703902006E-1,-7.517741323E-1,5.774791911E-2
3.352500000E0,5.143157244E-1,-6.446520090E-1,9.896507114E-2
3.355000000E0,5.587821603E-1,-5.479748249E-1,1.398127824E-1
3.357500000E0,6.021568775E-1,-4.639281631E-1,1.748411208E-1
3.360000000E0,6.479308605E-1,-3.934501708E-1,2.073694021E-1
3.362500000E0,6.895425916E-1,-3.286438882E-1,2.338512689E-1
3.365000000E0,7.272346020E-1,-2.710749805E-1,2.549905479E-1
3.367500000E0,7.601456046E-1,-2.183866352E-1,2.709500492E-1
3.370000000E0,7.900679708E-1,-1.753623486E-1,2.799938917E-1
3.372500000E0,8.156447411E-1,-1.408167332E-1,2.792323828E-1
3.375000000E0,8.273853064E-1,-1.137270108E-1,2.699930370E-1
3.377500000E0,8.284292817E-1,-9.919729829E-2,2.590143979E-1
3.380000000E0,8.225144744E-1,-9.964761883E-2,2.516013086E-1
3.382500000E0,8.060964942E-1,-1.161239594E-1,2.463062555E-1
3.385000000E0,7.853363156E-1,-1.463932097E-1,2.479384989E-1
3.387500000E0,7.588149309E-1,-1.887990534E-1,2.557056546E-1
3.390000000E0,7.297360301E-1,-2.394293845E-1,2.720809281E-1
3.392500000E0,6.958326101E-1,-2.966033220E-1,2.960122824E-1
3.395000000E0,6.599753499E-1,-3.510329425E-1,3.243717849E-1
3.397500000E0,6.203703284E-1,-4.017892480E-1,3.562303483E-1
3.400000000E0,5.801336765E-1,-4.492851496E-1,3.871219456E-1
3.402500000E0,5.386853814E-1,-4.942480624E-1,4.185982049E-1
3.405000000E0,4.967351854E-1,-5.379561186E-1,4.470834136E-1
3.407500000E0,4.540043473E-1,-5.761020184E-1,4.703055620E-1
3.410000000E0,4.064675570E-1,-6.037232280E-1,4.881583154E-1
3.412500000E0,3.579368591E-1,-6.282951832E-1,5.012928843E-1
3.415000000E0,3.100965023E-1,-6.521516442E-1,5.116100907E-1
3.417500000E0,2.633735538E-1,-6.707489491E-1,5.203377008E-1
3.420000000E0,2.150092125E-1,-6.868918538E-1,5.258010626E-1
3.422500000E0,1.662696898E-1,-7.016322613E-1,5.292016268E-1
3.425000000E0,1.174151823E-1,-7.112461925E-1,5.302073956E-1
3.427500000E0,6.983072311E-2,-7.184693217E-1,5.286983848E-1
3.430000000E0,2.095920034E-2,-7.224787474E-1,5.280972719E-1
3.432500000E0,-2.751983888E-2,-7.224263549E-1,5.243640542E-1
3.435000000E0,-7.199122757E-2,-7.113733888E-1,5.203840137E-1
3.437500000E0,-1.144972071E-1,-6.837719083E-1,5.142464042E-1
3.440000000E0,-1.573628485E-1,-6.475171447E-1,5.128902197E-1
3.442500000E0,-1.957841814E-1,-6.110269427E-1,5.172801018E-1
3.445000000E0,-2.310177833E-1,-5.771214366E-1,5.219331980E-1
3.447500000E0,-2.677107453E-1,-5.420875549E-1,5.226685405E-1
3.450000000E0,-2.937307656E-1,-5.240987539E-1,5.239418149E-1
3.452500000E0,-3.187969625E-1,-5.041406751E-1,5.195153952E-1
3.455000000E0,-3.424092233E-1,-4.719486535E-1,5.092305541E-1
3.457500000E0,-3.617883325E-1,-4.340026379E-1,4.945003986E-1
3.460000000E0,-3.751762509E-1,-3.970499635E-1,4.797306061E-1
3.462500000E0,-3.894175589E-1,-3.660121560E-1,4.639517367E-1
3.465000000E0,-3.997946978E-1,-3.351875842E-1,4.427426457E-1
3.467500000E0,-4.052817225E-1,-2.928580046E-1,4.188096821E-1
3.470000000E0,-4.048353434E-1,-2.451100051E-1,3.955776095E-1
3.472500000E0,-4.004570842E-1,-1.944102794E-1,3.732630610E-1
3.475000000E0,-3.968618512E-1,-1.402165145E-1,3.480739594E-1
3.477500000E0,-3.883774281E-1,-9.134258330E-2,3.203647137E-1
3.480000000E0,-3.758607209E-1,-4.294957966E-2,2.923394740E-1
3.482500000E0,-3.609379828E-1,3.600979690E-3,2.623525858E-1
3.485000000E0,-3.453972936E-1,4.054634273E-2,2.307584137E-1
3.487500000E0,-3.276644051E-1,7.196424901E-2,2.013053596E-1
3.490000000E0,-3.164873719E-1,1.005495638E-1,1.730518341E-1
3.492500000E0,-3.036764264E-1,1.183372289E-1,1.498377025E-1
3.495000000E0,-2.910040319E-1,1.284326911E-1,1.288758218E-1
3.497500000E0,-2.799256742E-1,1.306388080E-1,1.091551706E-1
3.500000000E0,-2.699517310E-1,1.253771633E-1,9.350603819E-2
3.502500000E0,-2.600805163E-1,1.103630736E-1,8.105029911E-2
3.505000000E0,-2.473997921E-1,9.118270129E-2,6.816083938E-2
3.507500000E0,-2.354333252E-1,6.881460547E-2,5.507953838E-2
3.510000000E0,-2.204109877E-1,4.008518904E-2,4.508923367E-2
3.512500000E0,-2.017968446E-1,5.344693083E-3,4.161458835E-2
3.515000000E0,-1.813613623E-1,-3.231788799E-2,4.053066671E-2
3.517500000E0,-1.609361768E-1,-7.417779416E-2,4.227317125E-2
3.520000000E0,-1.431496292E-1,-1.129263565E-1,4.567555711E-2
3.522500000E0,-1.222103387E-1,-1.548130363E-1,5.299244076E-2
3.525000000E0,-1.034635976E-1,-1.965947002E-1,6.170101091E-2
3.527500000E0,-8.488427848E-2,-2.327978313E-1,7.226749510E-2
3.530000000E0,-6.789062917E-2,-2.644871473E-1,8.373194933E-2
3.532500000E0,-5.340273306E-2,-2.921206951E-1,9.750451893E-2
3.535000000E0,-4.343067110E-2,-3.112537563E-1,1.147894189E-1
3.537500000E0,-3.388591856E-2,-3.272567391E-1,1.329289228E-1
3.540000000E0,-2.295388654E-2,-3.357805312E-1,1.540487409E-1
3.542500000E0,-1.266405080E-2,-3.403337598E-1,1.821293980E-1
3.545000000E0,-1.362387324E-3,-3.397517204E-1,2.115889937E-1
3.547500000E0,1.036222745E-2,-3.358833492E-1,2.447083145E-1
3.550000000E0,2.399443462E-2,-3.285697699E-1,2.820768654E-1
3.552500000E0,3.826475516E-2,-3.280137479E-1,3.215637803E-1
3.555000000E0,5.384209007E-2,-3.351714313E-1,3.658323288E-1
3.557500000E0,6.560759246E-2,-3.537410796E-1,4.132065177E-1
3.560000000E0,7.548438758E-2,-3.727735281E-1,4.560571313E-1
3.562500000E0,8.551894128E-2,-3.896066248E-1,4.963967800E-1
3.565000000E0,9.264843166E-2,-4.060276151E-1,5.382788181E-1
3.567500000E0,9.946128726E-2,-4.285402298E-1,5.797466636E-1
3.570000000E0,1.007720605E-1,-4.522047341E-1,6.219870448E-1
3.572500000E0,1.002657041E-1,-4.789312482E-1,6.601857543E-1
3.575000000E0,9.143419564E-2,-5.086136460E-1,6.941984892E-1
3.577500000E0,7.721916586E-2,-5.397230387E-1,7.245640755E-1
3.580000000E0,5.670443550E-2,-5.741100907E-1,7.514515519E-1
3.582500000E0,3.125384450E-2,-6.032681465E-1,7.732473016E-1
3.585000000E0,2.118567703E-3,-6.269267201E-1,7.928749919E-1
3.587500000E0,-3.104948997E-2,-6.501948833E-1,8.085338473E-1
3.590000000E0,-6.792964786E-2,-6.728412509E-1,8.209456801E-1
3.592500000E0,-1.095872521E-1,-6.843423843E-1,8.258499503E-1
3.595000000E0,-1.551885158E-1,-6.900767684E-1,8.270123601E-1
3.597500000E0,-2.007975131E-1,-6.925616264E-1,8.234085441E-1
3.600000000E0,-2.477369010E-1,-6.838783622E-1,8.139361143E-1
3.602500000E0,-2.946701646E-1,-6.723089218E-1,7.991718650E-1
3.605000000E0,-3.421378136E-1,-6.548891068E-1,7.798919678E-1
3.607500000E0,-3.900072873E-1,-6.286986470E-1,7.566275001E-1
3.610000000E0,-4.323011935E-1,-6.003811955E-1,7.304389477E-1
3.612500000E0,-4.773775041E-1,-5.643782020E-1,7.030545473E-1
3.615000000E0,-5.155935287E-1,-5.270287395E-1,6.756567955E-1
3.617500000E0,-5.505325198E-1,-4.884705544E-1,6.498529315E-1
3.620000000E0,-5.844661593E-1,-4.483335614E-1,6.235380769E-1
3.622500000E0,-6.125010252E-1,-4.145838618E-1,5.971667767E-1
3.625000000E0,-6.340734959E-1,-3.851830661E-1,5.753365755E-1
3.627500000E0,-6.536275148E-1,-3.585460782E-1,5.543381572E-1
3.630000000E0,-6.702969670E-1,-3.416349292E-1,5.361962318E-1
3.632500000E0,-6.827390194E-1,-3.284661770E-1,5.225930214E-1
3.635000000E0,-6.930264831E-1,-3.225787878E-1,5.089815259E-1
3.637500000E0,-6.997405887E-1,-3.175394833E-1,4.981721044E-1
3.640000000E0,-7.050589919E-1,-3.158456385E-1,4.913067818E-1
3.642500000E0,-7.055934668E-1,-3.171841204E-1,4.834911823E-1
3.645000000E0,-7.061755061E-1,-3.183465600E-1,4.776745737E-1
3.647500000E0,-7.054012418E-1,-3.148374259E-1,4.728245437E-1
3.650000000E0,-6.995090246E-1,-3.178281486E-1,4.673549235E-1
3.652500000E0,-6.935543418E-1,-3.141999841E-1,4.608580470E-1
3.655000000E0,-6.837947965E-1,-3.103855252E-1,4.541391730E-1
3.657500000E0,-6.770569086E-1,-3.053545654E-1,4.457841814E-1
3.660000000E0,-6.728008986E-1,-3.020740449E-1,4.340848923E-1
3.662500000E0,-6.659420729E-1,-2.980346680E-1,4.206061959E-1
3.665000000E0,-6.585050225E-1,-2.969461381E-1,4.080994725E-1
3.667500000E0,-6.528134346E-1,-2.959081531E-1,3.942201436E-1
3.670000000E0,-6.473354697E-1,-2.950838506E-1,3.809240758E-1
3.672500000E0,-6.431783438E-1,-2.985668182E-1,3.649646342E-1
3.675000000E0,-6.425593495E-1,-3.000874221E-1,3.509578705E-1
3.677500000E0,-6.424861550E-1,-3.011212647E-1,3.375124931E-1
3.680000000E0,-6.408190727E-1,-3.034531474E-1,3.255459964E-1
3.682500000E0,-6.397894025E-1,-3.081424534E-1,3.160120845E-1
3.685000000E0,-6.382938623E-1,-3.103695512E-1,3.062729239E-1
3.687500000E0,-6.404180527E-1,-3.122990727E-1,2.987899482E-1
3.690000000E0,-6.422510743E-1,-3.106468022E-1,2.913157642E-1
3.692500000E0,-6.463405490E-1,-3.046491444E-1,2.835310400E-1
3.695000000E0,-6.490205526E-1,-2.964220941E-1,2.775686979E-1
3.697500000E0,-6.540914178E-1,-2.821219862E-1,2.725544274E-1
3.700000000E0,-6.581033468E-1,-2.607225776E-1,2.662504017E-1
3.702500000E0,-6.612638235E-1,-2.373811007E-1,2.651345730E-1
3.705000000E0,-6.674714684E-1,-2.063177526E-1,2.631317675E-1
3.707500000E0,-6.730498075E-1,-1.701588035E-1,2.630164623E-1
3.710000000E0,-6.786807775E-1,-1.324812174E-1,2.671415806E-1
3.712500000E0,-6.837788820E-1,-9.073063731E-2,2.725000083E-1
3.715000000E0,-6.886444688E-1,-4.884388298E-2,2.835732400E-1
3.717500000E0,-6.959174275E-1,-1.005264930E-2,2.972216904E-1
3.720000000E0,-7.015964985E-1,1.797106117E-2,3.165119588E-1
3.722500000E0,-7.093523145E-1,3.674142808E-2,3.398872614E-1
3.725000000E0,-7.206704617E-1,4.147800803E-2,3.651493788E-1
3.727500000E0,-7.316870689E-1,3.460892290E-2,3.897155225E-1
3.730000000E0,-7.474961281E-1,1.754341274E-2,4.122074842E-1
3.732500000E0,-7.662194967E-1,-4.504806828E-3,4.318300486E-1
3.735000000E0,-7.821747661E-1,-2.889064141E-2,4.482091367E-1
3.737500000E0,-7.981300354E-1,-5.351165310E-2,4.651499987E-1
3.740000000E0,-8.136091828E-1,-6.972704828E-2,4.770084321E-1
3.742500000E0,-8.216001391E-1,-8.213142306E-2,4.840935767E-1
3.745000000E0,-8.276664019E-1,-9.214487672E-2,4.874175489E-1
3.747500000E0,-8.313302994E-1,-9.636905789E-2,4.890422225E-1
3.750000000E0,-8.310710788E-1,-9.306507558E-2,4.914021790E-1
3.752500000E0,-8.245295286E-1,-8.766442537E-2,4.938362837E-1
3.755000000E0,-8.178401589E-1,-8.305220306E-2,4.940398932E-1
3.757500000E0,-8.062028289E-1,-8.405931294E-2,4.940332770E-1
3.760000000E0,-7.951720953E-1,-8.137542754E-2,4.924328029E-1
3.762500000E0,-7.796682715E-1,-7.598727942E-2,4.859078526E-1
3.765000000E0,-7.634470463E-1,-6.814276427E-2,4.800577760E-1
3.767500000E0,-7.451726794E-1,-5.551664531E-2,4.710837901E-1
3.770000000E0,-7.266810536E-1,-3.903627023E-2,4.627038538E-1
3.772500000E0,-7.072303891E-1,-1.777055115E-2,4.528758824E-1
3.775000000E0,-6.857194901E-1,2.759296447E-3,4.430199862E-1
3.777500000E0,-6.671251059E-1,2.567994781E-2,4.350423515E-1
3.780000000E0,-6.490190029E-1,5.007238686E-2,4.266051948E-1
3.782500000E0,-6.322667003E-1,7.425740361E-2,4.186133444E-1
3.785000000E0,-6.161284447E-1,9.477479011E-2,4.118737876E-1
3.787500000E0,-6.021858454E-1,1.144507825E-1,4.078482389E-1
3.790000000E0,-5.898371339E-1,1.290033460E-1,4.038230479E-1
3.792500000E0,-5.774153471E-1,1.345527619E-1,3.989107311E-1
3.795000000E0,-5.671312213E-1,1.361944973E-1,3.966465294E-1
3.797500000E0,-5.598717332E-1,1.322590709E-1,3.910357058E-1
3.800000000E0,-5.561922789E-1,1.269406527E-1,3.852900565E-1
3.802500000E0,-5.499166846E-1,1.176909581E-1,3.810876012E-1
3.805000000E0,-5.473237634E-1,1.095305458E-1,3.758856654E-1
3.807500000E0,-5.435100794E-1,9.868399054E-2,3.698675036E-1
3.810000000E0,-5.384323597E-1,8.807008713E-2,3.632080853E-1
3.812500000E0,-5.338644385E-1,8.230908215E-2,3.507974446E-1
3.815000000E0,-5.281391740E-1,8.634749055E-2,3.306251466E-1
3.817500000E0,-5.182538629E-1,9.512725472E-2,3.014965653E-1
3.820000000E0,-5.029664636E-1,1.287936866E-1,2.547466457E-1
3.822500000E0,-4.719492197E-1,1.901195943E-1,2.145111114E-1
3.825000000E0,-4.298270941E-1,2.453729361E-1,1.971838027E-1
3.827500000E0,-3.835973740E-1,2.921676338E-1,1.915035397E-1
3.830000000E0,-3.372872472E-1,3.292382658E-1,1.912774295E-1
3.832500000E0,-2.911691964E-1,3.580808342E-1,1.929135919E-1
3.835000000E0,-2.434899062E-1,3.756411374E-1,1.944297552E-1
3.837500000E0,-2.016101331E-1,3.832539320E-1,1.993257105E-1
3.840000000E0,-1.654547304E-1,3.807249367E-1,2.048743665E-1
3.842500000E0,-1.297553927E-1,3.700386584E-1,2.097620517E-1
3.845000000E0,-9.684704244E-2,3.544163406E-1,2.169087976E-1
3.847500000E0,-6.872026622E-2,3.352053761E-1,2.229603678E-1
3.850000000E0,-4.322328418E-2,3.113879859E-1,2.291395217E-1
3.852500000E0,-2.426745743E-2,2.721655071E-1,2.450557798E-1
3.855000000E0,-9.301140904E-3,2.241045535E-1,2.668660879E-1
3.857500000E0,3.483478911E-3,1.798567623E-1,2.862094045E-1
3.860000000E0,1.350655966E-2,1.359797120E-1,3.098526895E-1
3.862500000E0,2.273686044E-2,1.020815223E-1,3.310492337E-1
3.865000000E0,2.910302207E-2,8.387298882E-2,3.509596586E-1
3.867500000E0,3.474631906E-2,7.530046254E-2,3.728981912E-1
3.870000000E0,4.423268512E-2,7.577475160E-2,3.969464898E-1
3.872500000E0,5.757259205E-2,8.146250993E-2,4.267065823E-1
3.875000000E0,7.286308706E-2,9.450172633E-2,4.602036476E-1
3.877500000E0,8.815357089E-2,1.067597121E-1,4.953391552E-1
3.880000000E0,1.017725766E-1,1.220501885E-1,5.285793543E-1
3.882500000E0,1.164825559E-1,1.366347373E-1,5.613388419E-1
3.885000000E0,1.256247759E-1,1.452770233E-1,5.959749222E-1
3.887500000E0,1.296136081E-1,1.522300243E-1,6.265793443E-1
3.890000000E0,1.294654012E-1,1.572973579E-1,6.540874243E-1
3.892500000E0,1.268982887E-1,1.598076820E-1,6.791610122E-1
3.895000000E0,1.278757006E-1,1.572321206E-1,7.030323148E-1
3.897500000E0,1.224424168E-1,1.498044431E-1,7.229187489E-1
3.900000000E0,1.155924425E-1,1.319503635E-1,7.404587269E-1
3.902500000E0,1.085950956E-1,1.025454178E-1,7.538352013E-1
3.905000000E0,9.828125685E-2,8.276446909E-2,7.586706877E-1
3.907500000E0,9.327270836E-2,7.892217487E-2,7.652820945E-1
3.910000000E0,8.858660609E-2,8.250561357E-2,7.679088712E-1
3.912500000E0,8.739273995E-2,8.372778445E-2,7.654374838E-1
3.915000000E0,8.047080040E-2,9.104062617E-2,7.566579580E-1
3.917500000E0,7.518395036E-2,1.005061120E-1,7.457363009E-1
3.920000000E0,7.184829563E-2,1.163470522E-1,7.304341197E-1
3.922500000E0,7.092538476E-2,1.305680424E-1,7.143433690E-1
3.925000000E0,6.826617569E-2,1.483849585E-1,6.942664981E-1
3.927500000E0,6.560695171E-2,1.661996990E-1,6.736575365E-1
3.930000000E0,6.493300945E-2,1.836230308E-1,6.510633826E-1
3.932500000E0,6.877291948E-2,1.970680356E-1,6.287179589E-1
3.935000000E0,6.866871566E-2,2.096811086E-1,6.067614555E-1
3.937500000E0,6.982920319E-2,2.260143757E-1,5.872216821E-1
3.940000000E0,6.871052831E-2,2.443569601E-1,5.672775507E-1
3.942500000E0,6.878203154E-2,2.613964081E-1,5.468084216E-1
3.945000000E0,6.730370224E-2,2.840753794E-1,5.286688209E-1
3.947500000E0,5.829964951E-2,3.175255954E-1,5.122003555E-1
3.950000000E0,5.193882436E-2,3.518700600E-1,4.972478151E-1
3.952500000E0,4.757308587E-2,3.892771602E-1,4.870769083E-1
3.955000000E0,4.285059124E-2,4.321318865E-1,4.766354859E-1
3.957500000E0,3.436821327E-2,4.839183092E-1,4.652665555E-1
3.960000000E0,2.544552088E-2,5.369983315E-1,4.582666755E-1
3.962500000E0,1.783645339E-2,5.900344849E-1,4.519148767E-1
3.965000000E0,1.318698283E-2,6.392577887E-1,4.469809830E-1
3.967500000E0,6.122482009E-3,6.908637285E-1,4.412460625E-1
3.970000000E0,9.960867465E-4,7.374883294E-1,4.378296733E-1
3.972500000E0,1.107442193E-3,7.796755433E-1,4.419855177E-1
3.975000000E0,-1.766795758E-3,8.134591579E-1,4.436801374E-1
3.977500000E0,-7.152744569E-3,8.398487568E-1,4.470717013E-1
3.980000000E0,-9.662181139E-3,8.579370379E-1,4.517252743E-1
3.982500000E0,-1.001408789E-2,8.761211634E-1,4.528203905E-1
3.985000000E0,-1.152862236E-2,8.944364786E-1,4.539999068E-1
3.987500000E0,-1.134369615E-2,9.115365148E-1,4.572689235E-1
3.990000000E0,-1.089229435E-2,9.291141033E-1,4.596354067E-1
3.992500000E0,-8.554289117E-3,9.514410496E-1,4.612862170E-1
3.995000000E0,-6.842364557E-3,9.780513048E-1,4.657973647E-1
3.997500000E0,-7.785445079E-3,9.958309531E-1,4.692721367E-1
4.000000000E0,-1.338785701E-2,1.006990671E0,4.698659480E-1
4.002500000E0,-2.086547390E-2,1.010962367E0,4.688659012E-1
4.005000000E0,-3.369776905E-2,1.007238388E0,4.640770257E-1
4.007500000E0,-5.436676741E-2,9.957050681E-1,4.578922093E-1
4.010000000E0,-7.617992163E-2,9.841023088E-1,4.511188269E-1
4.012500000E0,-9.728471935E-2,9.767676592E-1,4.421494305E-1
4.015000000E0,-1.210536137E-1,9.767618179E-1,4.325562418E-1
4.017500000E0,-1.482048333E-1,9.809252620E-1,4.214822054E-1
4.020000000E0,-1.689224541E-1,9.815900922E-1,4.108453095E-1
4.022500000E0,-1.962697357E-1,9.856968522E-1,4.011918604E-1
4.025000000E0,-2.169554383E-1,9.884431362E-1,3.933146000E-1
4.027500000E0,-2.342403382E-1,9.939796925E-1,3.873364329E-1
4.030000000E0,-2.479710281E-1,9.979225397E-1,3.841045201E-1
4.032500000E0,-2.605580688E-1,9.992963672E-1,3.850353956E-1
4.035000000E0,-2.729732394E-1,9.990698099E-1,3.875624835E-1
4.037500000E0,-2.831718326E-1,1.002378941E0,3.897759616E-1
4.040000000E0,-2.910740972E-1,1.006957173E0,3.920839429E-1
4.042500000E0,-2.991722524E-1,1.010764599E0,3.955284953E-1
4.045000000E0,-3.087615967E-1,1.021606803E0,3.973037899E-1
4.047500000E0,-3.200830519E-1,1.032928228E0,3.995530009E-1
4.050000000E0,-3.304020762E-1,1.045329809E0,3.992059231E-1
4.052500000E0,-3.386428654E-1,1.057559490E0,4.004579186E-1
4.055000000E0,-3.515184820E-1,1.075664639E0,4.011510015E-1
4.057500000E0,-3.585069776E-1,1.092414260E0,4.011510015E-1
4.060000000E0,-3.618730903E-1,1.103373051E0,4.028656483E-1
4.062500000E0,-3.636763692E-1,1.114959717E0,4.047645032E-1
4.065000000E0,-3.656933010E-1,1.125849724E0,4.038143754E-1
4.067500000E0,-3.747040927E-1,1.142882943E0,4.027812183E-1
4.070000000E0,-3.816018999E-1,1.159477592E0,3.994572163E-1
4.072500000E0,-3.894408941E-1,1.175239086E0,3.956623077E-1
4.075000000E0,-4.004380107E-1,1.180058718E0,3.909297884E-1
4.077500000E0,-4.146584570E-1,1.180173516E0,3.841368258E-1
4.080000000E0,-4.246086478E-1,1.178852558E0,3.761635721E-1
4.082500000E0,-4.382574856E-1,1.182586432E0,3.679172695E-1
4.085000000E0,-4.537493587E-1,1.178654075E0,3.557478786E-1
4.087500000E0,-4.647828043E-1,1.178840995E0,3.449712396E-1
4.090000000E0,-4.741058052E-1,1.184159398E0,3.356718719E-1
4.092500000E0,-4.844543636E-1,1.193641067E0,3.254975677E-1
4.095000000E0,-4.934473336E-1,1.205810905E0,3.190316856E-1
4.097500000E0,-5.026720166E-1,1.228749037E0,3.137427270E-1
4.100000000E0,-5.129826665E-1,1.259945750E0,3.114220202E-1
4.102500000E0,-5.247882605E-1,1.288349986E0,3.083044291E-1
4.105000000E0,-5.326953530E-1,1.309866428E0,3.034402132E-1
4.107500000E0,-5.407680869E-1,1.316513419E0,3.002110720E-1
4.110000000E0,-5.497738123E-1,1.302456856E0,2.949132323E-1
4.112500000E0,-5.572972298E-1,1.283698082E0,2.898384631E-1
4.115000000E0,-5.709033012E-1,1.269394279E0,2.839089930E-1
4.117500000E0,-5.901822448E-1,1.250565529E0,2.836158276E-1
4.120000000E0,-6.100974679E-1,1.234928131E0,2.839626968E-1
4.122500000E0,-6.298062205E-1,1.220987797E0,2.844128013E-1
4.125000000E0,-6.444280148E-1,1.210416794E0,2.855607271E-1
4.127500000E0,-6.576622128E-1,1.206733346E0,2.859240472E-1
4.130000000E0,-6.699051857E-1,1.208653331E0,2.888225913E-1
4.132500000E0,-6.823094487E-1,1.214652896E0,2.925843894E-1
4.135000000E0,-6.896513700E-1,1.219438195E0,2.952849269E-1
4.137500000E0,-6.957669854E-1,1.230520368E0,2.979893386E-1
4.140000000E0,-6.994917989E-1,1.243379474E0,3.032621741E-1
4.142500000E0,-7.025927901E-1,1.256220818E0,3.092454076E-1
4.145000000E0,-7.034181952E-1,1.268592000E0,3.158024848E-1
4.147500000E0,-7.081879973E-1,1.281049728E0,3.222770691E-1
4.150000000E0,-7.107394338E-1,1.291183591E0,3.291766644E-1
4.152500000E0,-7.151658535E-1,1.302661777E0,3.375919163E-1
4.155000000E0,-7.194349766E-1,1.314633369E0,3.473367393E-1
4.157500000E0,-7.265786529E-1,1.322260618E0,3.568131626E-1
4.160000000E0,-7.356368303E-1,1.329927206E0,3.670863509E-1
4.162500000E0,-7.441359162E-1,1.338194847E0,3.764228821E-1
4.165000000E0,-7.446287274E-1,1.337523818E0,3.867291212E-1
4.167500000E0,-7.454585433E-1,1.336524129E0,3.960411847E-1
4.170000000E0,-7.438169122E-1,1.335632801E0,4.027597904E-1
4.172500000E0,-7.397862673E-1,1.328916550E0,4.074552357E-1
4.175000000E0,-7.357286215E-1,1.316240907E0,4.091985226E-1
4.177500000E0,-7.288768291E-1,1.302462459E0,4.103673100E-1
4.180000000E0,-7.246740460E-1,1.283363819E0,4.098602533E-1
4.182500000E0,-7.176552415E-1,1.256030083E0,4.087159932E-1
4.185000000E0,-7.135781050E-1,1.222271919E0,4.047570229E-1
4.187500000E0,-7.104107738E-1,1.187155962E0,4.009629488E-1
4.190000000E0,-7.054411173E-1,1.156313419E0,3.953557611E-1
4.192500000E0,-6.995681524E-1,1.134461761E0,3.889515996E-1
4.195000000E0,-6.947514415E-1,1.119256973E0,3.816485405E-1
4.197500000E0,-6.861521006E-1,1.103966713E0,3.708594143E-1
4.200000000E0,-6.827325225E-1,1.088960886E0,3.604116142E-1
4.202500000E0,-6.779895425E-1,1.076418996E0,3.502708375E-1
4.205000000E0,-6.753482819E-1,1.069330096E0,3.385199904E-1
4.207500000E0,-6.751999259E-1,1.056775689E0,3.249986172E-1
4.210000000E0,-6.745350957E-1,1.044559836E0,3.092199564E-1
4.212500000E0,-6.796468496E-1,1.033808112E0,2.929438353E-1
4.215000000E0,-6.817283034E-1,1.029195309E0,2.750659585E-1
4.217500000E0,-6.814960837E-1,1.032687545E0,2.550341785E-1
4.220000000E0,-6.819967031E-1,1.046199679E0,2.357029468E-1
4.222500000E0,-6.825572252E-1,1.064453602E0,2.164714038E-1
4.225000000E0,-6.822493672E-1,1.084877253E0,1.984664500E-1
4.227500000E0,-6.801149249E-1,1.112064838E0,1.764232069E-1
4.230000000E0,-6.779999733E-1,1.145063996E0,1.581120193E-1
4.232500000E0,-6.750532389E-1,1.176399469E0,1.421567202E-1
4.235000000E0,-6.705244184E-1,1.206227541E0,1.267269850E-1
4.237500000E0,-6.641191244E-1,1.239788532E0,1.099855229E-1
4.240000000E0,-6.529462934E-1,1.254512072E0,9.509185702E-2
4.242500000E0,-6.445809007E-1,1.259688973E0,7.820091397E-2
4.245000000E0,-6.316784620E-1,1.255561471E0,6.131569669E-2
4.247500000E0,-6.206439734E-1,1.237116456E0,4.655709490E-2
4.250000000E0,-6.064299941E-1,1.205343485E0,3.100303374E-2
4.252500000E0,-5.890179873E-1,1.173560023E0,1.385990344E-2
4.255000000E0,-5.673717856E-1,1.142842293E0,-3.561724210E-3
4.257500000E0,-5.426377654E-1,1.113814235E0,-2.082407475E-2
4.260000000E0,-5.187361240E-1,1.087513089E0,-4.050853103E-2
4.262500000E0,-4.884995818E-1,1.059591770E0,-5.900398269E-2
4.265000000E0,-4.557835162E-1,1.027478814E0,-7.957311720E-2
4.267500000E0,-4.247219861E-1,9.911603332E-1,-1.000282168E-1
4.270000000E0,-3.878006041E-1,9.519863725E-1,-1.231425330E-1
4.272500000E0,-3.538934588E-1,9.168621898E-1,-1.459126025E-1
4.275000000E0,-3.207137287E-1,8.765751719E-1,-1.647326350E-1
4.277500000E0,-2.843205929E-1,8.342233896E-1,-1.838109344E-1
4.280000000E0,-2.484217584E-1,7.984299064E-1,-2.045816630E-1
4.282500000E0,-2.125223726E-1,7.660338283E-1,-2.241423428E-1
4.285000000E0,-1.781697273E-1,7.389806509E-1,-2.418748885E-1
4.287500000E0,-1.450274736E-1,7.202677131E-1,-2.588571906E-1
4.290000000E0,-1.117105708E-1,6.975110173E-1,-2.762358487E-1
4.292500000E0,-8.055445552E-2,6.707312465E-1,-2.900091708E-1
4.295000000E0,-5.247931927E-2,6.402522922E-1,-3.036632836E-1
4.297500000E0,-2.455755882E-2,6.157748103E-1,-3.170697391E-1
4.300000000E0,3.363935975E-3,5.958448052E-1,-3.286785483E-1
4.302500000E0,3.203563765E-2,5.805544853E-1,-3.423495889E-1
4.305000000E0,6.433056295E-2,5.678002834E-1,-3.522524238E-1
4.307500000E0,9.202967584E-2,5.599893928E-1,-3.608948290E-1
4.310000000E0,1.196608692E-1,5.511597991E-1,-3.697761595E-1
4.312500000E0,1.437333524E-1,5.439240932E-1,-3.794543743E-1
4.315000000E0,1.688521802E-1,5.352636576E-1,-3.894264102E-1
4.317500000E0,1.985077262E-1,5.275347233E-1,-3.983528614E-1
4.320000000E0,2.246697396E-1,5.227248073E-1,-4.057049453E-1
4.322500000E0,2.523623109E-1,5.207992196E-1,-4.136137962E-1
4.325000000E0,2.789531648E-1,5.224632621E-1,-4.189308584E-1
4.327500000E0,3.090197444E-1,5.260893703E-1,-4.251417816E-1
4.330000000E0,3.430747092E-1,5.287753344E-1,-4.326583445E-1
4.332500000E0,3.769190311E-1,5.320388675E-1,-4.389436543E-1
4.335000000E0,4.115041792E-1,5.312346816E-1,-4.449269176E-1
4.337500000E0,4.548126161E-1,5.214675665E-1,-4.514428079E-1
4.340000000E0,4.995950758E-1,5.125845075E-1,-4.576523900E-1
4.342500000E0,5.443383455E-1,4.987215102E-1,-4.653757513E-1
4.345000000E0,5.973622203E-1,4.757237434E-1,-4.710745513E-1
4.347500000E0,6.586722732E-1,4.478802681E-1,-4.769736230E-1
4.350000000E0,7.216134071E-1,4.172940552E-1,-4.831790924E-1
4.352500000E0,7.880061865E-1,3.830785751E-1,-4.905357361E-1
4.355000000E0,8.551027179E-1,3.511193395E-1,-4.985134006E-1
4.357500000E0,9.261597991E-1,3.119527400E-1,-5.101165175E-1
4.360000000E0,1.001956820E0,2.640984654E-1,-5.222900510E-1
4.362500000E0,1.076064825E0,2.142026871E-1,-5.380016565E-1
4.365000000E0,1.150822639E0,1.598194093E-1,-5.567333102E-1
4.367500000E0,1.226886749E0,1.036489606E-1,-5.793298483E-1
4.370000000E0,1.303836465E0,4.536009207E-2,-6.058523655E-1
4.372500000E0,1.375899792E0,-1.386179402E-2,-6.381632686E-1
4.375000000E0,1.444456577E0,-7.244646549E-2,-6.754150391E-1
4.377500000E0,1.513041973E0,-1.332682073E-1,-7.183332443E-1
4.380000000E0,1.586240530E0,-1.969500035E-1,-7.693792582E-1
4.382500000E0,1.652949810E0,-2.584725916E-1,-8.282803297E-1
4.385000000E0,1.716106057E0,-3.223859966E-1,-8.913381696E-1
4.387500000E0,1.776745915E0,-3.905630112E-1,-9.605951905E-1
4.390000000E0,1.839998722E0,-4.649728537E-1,-1.038547277E0
4.392500000E0,1.898469925E0,-5.424488187E-1,-1.129709601E0
4.395000000E0,1.956857324E0,-6.309563518E-1,-1.232683182E0
4.397500000E0,2.008295536E0,-7.250313759E-1,-1.348801017E0
4.400000000E0,2.047096491E0,-8.160894513E-1,-1.479584336E0
4.402500000E0,2.080336332E0,-8.971768618E-1,-1.619540215E0
4.405000000E0,2.100539207E0,-9.631863832E-1,-1.770054817E0
4.407500000E0,2.108950853E0,-1.021894097E0,-1.933642268E0
4.410000000E0,2.097124577E0,-1.074925900E0,-2.103167295E0
4.412500000E0,2.068221092E0,-1.117150068E0,-2.275326967E0
4.415000000E0,2.028411150E0,-1.157905817E0,-2.448782682E0
4.417500000E0,1.970272779E0,-1.195962429E0,-2.615968704E0
4.420000000E0,1.903105974E0,-1.230596185E0,-2.770631790E0
4.422500000E0,1.828409553E0,-1.253033400E0,-2.914641380E0
4.425000000E0,1.743810177E0,-1.260342240E0,-3.050799370E0
4.427500000E0,1.650509953E0,-1.259637713E0,-3.179157734E0
4.430000000E0,1.546234012E0,-1.252891541E0,-3.298641205E0
4.432500000E0,1.435715199E0,-1.249819994E0,-3.411106825E0
4.435000000E0,1.317773700E0,-1.252780199E0,-3.514697313E0
4.437500000E0,1.199030161E0,-1.262865782E0,-3.607612848E0
4.440000000E0,1.090927958E0,-1.269403100E0,-3.692078114E0
4.442500000E0,9.880756140E-1,-1.274529219E0,-3.771600008E0
4.445000000E0,8.923956752E-1,-1.273829937E0,-3.846688271E0
4.447500000E0,8.085369468E-1,-1.267961383E0,-3.910990477E0
4.450000000E0,7.348585129E-1,-1.275618553E0,-3.950723171E0
4.452500000E0,6.678689718E-1,-1.302089095E0,-3.960858822E0
4.455000000E0,6.062723398E-1,-1.337548256E0,-3.939303160E0
4.457500000E0,5.557156801E-1,-1.355702281E0,-3.882943392E0
4.460000000E0,5.129241347E-1,-1.338254571E0,-3.777931213E0
4.462500000E0,4.928325117E-1,-1.314534545E0,-3.605950594E0
4.465000000E0,4.989553392E-1,-1.274529815E0,-3.372108936E0
4.467500000E0,5.418694615E-1,-1.194439054E0,-3.089472532E0
4.470000000E0,6.274775267E-1,-1.081866860E0,-2.765324116E0
4.472500000E0,7.333412766E-1,-9.715570807E-1,-2.415949821E0
4.475000000E0,8.513674736E-1,-8.621935248E-1,-2.052174568E0
4.477500000E0,9.936552048E-1,-7.299718857E-1,-1.682684541E0
4.480000000E0,1.158914566E0,-5.647420883E-1,-1.308063865E0
4.482500000E0,1.347481608E0,-3.985616267E-1,-9.357517958E-1
4.485000000E0,1.557498097E0,-2.474552244E-1,-5.773937702E-1
4.487500000E0,1.790158272E0,-1.205508262E-1,-2.437796146E-1
4.490000000E0,2.045715570E0,-1.843446866E-2,5.102110282E-2
4.492500000E0,2.311924934E0,6.214129180E-2,2.942911983E-1
4.495000000E0,2.568762541E0,1.119124144E-1,4.721550047E-1
4.497500000E0,2.809478283E0,1.239453778E-1,5.822825432E-1
4.500000000E0,3.036888361E0,1.016828939E-1,6.240740418E-1
4.502500000E0,3.236246586E0,6.403276324E-2,6.241229177E-1
4.505000000E0,3.404525042E0,1.736125350E-2,6.076759696E-1
4.507500000E0,3.537568092E0,-1.820657775E-2,5.891894102E-1
4.510000000E0,3.638138294E0,-1.379494276E-2,5.379157662E-1
4.512500000E0,3.713272810E0,2.358182520E-2,4.610278606E-1
4.515000000E0,3.755262613E0,5.930688232E-2,3.715614676E-1
4.517500000E0,3.763815641E0,8.008766919E-2,2.774019539E-1
4.520000000E0,3.735853910E0,1.012362763E-1,1.807355732E-1
4.522500000E0,3.680069208E0,1.103772298E-1,8.766303957E-2
4.525000000E0,3.592475414E0,9.890417755E-2,-9.150382131E-3
4.527500000E0,3.476944447E0,5.405674502E-2,-1.079945415E-1
4.530000000E0,3.337570906E0,-3.773294762E-2,-1.956800818E-1
4.532500000E0,3.180620432E0,-1.635045409E-1,-2.699755430E-1
4.535000000E0,3.009069920E0,-3.119757175E-1,-3.259154260E-1
4.537500000E0,2.820570946E0,-4.797729254E-1,-3.701863587E-1
4.540000000E0,2.624546289E0,-6.708749533E-1,-4.022314250E-1
4.542500000E0,2.423957825E0,-8.792800903E-1,-4.233659506E-1
4.545000000E0,2.212938547E0,-1.090430140E0,-4.337685108E-1
4.547500000E0,1.996388435E0,-1.296826601E0,-4.350319207E-1
4.550000000E0,1.772770882E0,-1.481261611E0,-4.213691354E-1
4.552500000E0,1.549913287E0,-1.631129026E0,-3.960554600E-1
4.555000000E0,1.323052287E0,-1.743146658E0,-3.647883236E-1
4.557500000E0,1.094365001E0,-1.821348190E0,-3.295311928E-1
4.560000000E0,8.656546474E-1,-1.861829758E0,-2.924369276E-1
4.562500000E0,6.327136159E-1,-1.876305223E0,-2.566737235E-1
4.565000000E0,4.081472158E-1,-1.873643160E0,-2.256952226E-1
4.567500000E0,1.960639656E-1,-1.856369138E0,-2.013576329E-1
4.570000000E0,1.034392044E-2,-1.827141047E0,-1.874745488E-1
4.572500000E0,-1.577763259E-1,-1.795525193E0,-1.855713129E-1
4.575000000E0,-3.111569285E-1,-1.756737113E0,-1.928437352E-1
4.577500000E0,-4.578242302E-1,-1.706035018E0,-2.101929486E-1
4.580000000E0,-6.030697823E-1,-1.649627566E0,-2.459946424E-1
4.582500000E0,-7.421984076E-1,-1.598844051E0,-2.949316502E-1
4.585000000E0,-8.730138540E-1,-1.546482086E0,-3.527285159E-1
4.587500000E0,-9.963316917E-1,-1.489638090E0,-4.171240628E-1
4.590000000E0,-1.096239567E0,-1.429224133E0,-4.825728536E-1
4.592500000E0,-1.177870631E0,-1.361743927E0,-5.453758836E-1
4.595000000E0,-1.239140511E0,-1.287673354E0,-5.999667048E-1
4.597500000E0,-1.270848870E0,-1.222178221E0,-6.384170651E-1
4.600000000E0,-1.278694749E0,-1.175815701E0,-6.599908471E-1
4.602500000E0,-1.260965943E0,-1.152733922E0,-6.640436053E-1
4.605000000E0,-1.223502874E0,-1.142596483E0,-6.528900862E-1
4.607500000E0,-1.166036725E0,-1.141971827E0,-6.302471161E-1
4.610000000E0,-1.090025187E0,-1.153760791E0,-5.957628489E-1
4.612500000E0,-1.004637003E0,-1.165653944E0,-5.511736870E-1
4.615000000E0,-9.093073606E-1,-1.174021721E0,-4.981964231E-1
4.617500000E0,-8.046381474E-1,-1.179649115E0,-4.357189238E-1
4.620000000E0,-6.904349923E-1,-1.178385019E0,-3.656547368E-1
4.622500000E0,-5.716180801E-1,-1.163274407E0,-2.931923270E-1
4.625000000E0,-4.500834048E-1,-1.139673471E0,-2.203546762E-1
4.627500000E0,-3.235517442E-1,-1.104129434E0,-1.477324069E-1
4.630000000E0,-1.936731339E-1,-1.051327109E0,-7.420343906E-2
4.632500000E0,-6.227559596E-2,-9.875502586E-1,-7.889382541E-4
4.635000000E0,7.578354329E-2,-9.183357954E-1,7.433389127E-2
4.637500000E0,2.152267843E-1,-8.435130119E-1,1.489532888E-1
4.640000000E0,3.574732244E-1,-7.642456293E-1,2.225742638E-1
4.642500000E0,4.994718432E-1,-6.784142256E-1,2.913010120E-1
4.645000000E0,6.386484504E-1,-5.914580822E-1,3.498366177E-1
4.647500000E0,7.769275904E-1,-5.116720796E-1,4.011998177E-1
4.650000000E0,9.014866352E-1,-4.288554192E-1,4.404899180E-1
4.652500000E0,1.012413502E0,-3.574273884E-1,4.681584835E-1
4.655000000E0,1.111609936E0,-3.054780066E-1,4.922782481E-1
4.657500000E0,1.198930025E0,-2.811954021E-1,5.158688426E-1
4.660000000E0,1.270805836E0,-2.809123397E-1,5.470317602E-1
4.662500000E0,1.328171611E0,-2.944989800E-1,5.771732330E-1
4.665000000E0,1.371656656E0,-3.171518743E-1,6.059669852E-1
4.667500000E0,1.399863124E0,-3.423777819E-1,6.288184524E-1
4.670000000E0,1.411134124E0,-3.643077910E-1,6.438752413E-1
4.672500000E0,1.401830077E0,-3.789366782E-1,6.538488865E-1
4.675000000E0,1.384212613E0,-3.887839913E-1,6.589594483E-1
4.677500000E0,1.347050428E0,-3.933643699E-1,6.609538198E-1
4.680000000E0,1.294478655E0,-3.998844028E-1,6.624155045E-1
4.682500000E0,1.231421232E0,-4.029915333E-1,6.639761925E-1
4.685000000E0,1.154420257E0,-4.070468247E-1,6.628958583E-1
4.687500000E0,1.067059278E0,-4.080349207E-1,6.636047363E-1
4.690000000E0,9.703231454E-1,-4.145998061E-1,6.653572917E-1
4.692500000E0,8.678655624E-1,-4.235346913E-1,6.653572917E-1
4.695000000E0,7.585178018E-1,-4.298876822E-1,6.660470366E-1
4.697500000E0,6.442431211E-1,-4.362465441E-1,6.664226651E-1
4.700000000E0,5.278976560E-1,-4.423038363E-1,6.631478071E-1
4.702500000E0,4.037097692E-1,-4.434639812E-1,6.569951177E-1
4.705000000E0,2.823747694E-1,-4.424584806E-1,6.459511518E-1
4.707500000E0,1.578786969E-1,-4.392375648E-1,6.305717826E-1
4.710000000E0,3.811150417E-2,-4.382735193E-1,6.095336676E-1
4.712500000E0,-7.572476566E-2,-4.392439127E-1,5.909191966E-1
4.715000000E0,-1.840712726E-1,-4.469262958E-1,5.726411939E-1
4.717500000E0,-2.854807675E-1,-4.585005045E-1,5.575034618E-1
4.720000000E0,-3.791730702E-1,-4.699343145E-1,5.416040421E-1
4.722500000E0,-4.598706365E-1,-4.813000262E-1,5.233178735E-1
4.725000000E0,-5.313364267E-1,-4.906072021E-1,5.037062764E-1
4.727500000E0,-5.903205872E-1,-4.973916113E-1,4.836984873E-1
4.730000000E0,-6.383820772E-1,-4.976215959E-1,4.579968750E-1
4.732500000E0,-6.722012162E-1,-4.932406545E-1,4.287455082E-1
4.735000000E0,-6.919094324E-1,-4.869376123E-1,3.994941115E-1
4.737500000E0,-6.992724538E-1,-4.754819870E-1,3.716242611E-1
4.740000000E0,-6.997862458E-1,-4.614141583E-1,3.419378102E-1
4.742500000E0,-6.896838546E-1,-4.462264776E-1,3.119325340E-1
4.745000000E0,-6.671808958E-1,-4.313102365E-1,2.833459973E-1
4.747500000E0,-6.373955607E-1,-4.169709682E-1,2.524785995E-1
4.750000000E0,-6.036298871E-1,-3.996680975E-1,2.212119997E-1
4.752500000E0,-5.669801831E-1,-3.839870393E-1,1.904438585E-1
4.755000000E0,-5.252228379E-1,-3.732498586E-1,1.582384855E-1
4.757500000E0,-4.791121781E-1,-3.661762178E-1,1.254502833E-1
4.760000000E0,-4.350153208E-1,-3.602152169E-1,9.467873722E-2
4.762500000E0,-3.921007216E-1,-3.568466604E-1,6.476256251E-2
4.765000000E0,-3.510655761E-1,-3.562152684E-1,3.547816351E-2
4.767500000E0,-3.122764230E-1,-3.553335071E-1,9.130988270E-3
4.770000000E0,-2.769708335E-1,-3.537451625E-1,-1.139732357E-2
4.772500000E0,-2.418419719E-1,-3.541777432E-1,-2.929417416E-2
4.775000000E0,-2.121538967E-1,-3.506255746E-1,-4.369175062E-2
4.777500000E0,-1.820137650E-1,-3.461944759E-1,-5.232996121E-2
4.780000000E0,-1.587430090E-1,-3.391973078E-1,-5.535066500E-2
4.782500000E0,-1.345991045E-1,-3.298902512E-1,-5.324772373E-2
4.785000000E0,-1.098511964E-1,-3.208903372E-1,-4.373320192E-2
4.787500000E0,-8.812687546E-2,-3.104898930E-1,-2.803649195E-2
4.790000000E0,-6.880182028E-2,-2.966027856E-1,-5.513712764E-3
4.792500000E0,-5.282697082E-2,-2.864596248E-1,1.860986836E-2
4.795000000E0,-3.548370302E-2,-2.773388624E-1,4.853744060E-2
4.797500000E0,-2.452329174E-2,-2.691554725E-1,8.200652897E-2
4.800000000E0,-1.554991025E-2,-2.583127916E-1,1.164858937E-1
4.802500000E0,-9.068793617E-3,-2.496760786E-1,1.540516168E-1
4.805000000E0,-5.477965809E-3,-2.435272187E-1,1.949037015E-1
4.807500000E0,-5.675523542E-3,-2.364119142E-1,2.361215502E-1
4.810000000E0,-9.279418737E-3,-2.337376922E-1,2.779026031E-1
4.812500000E0,-1.690383814E-2,-2.327336073E-1,3.191334307E-1
4.815000000E0,-2.754070051E-2,-2.312591970E-1,3.598312736E-1
4.817500000E0,-4.244768247E-2,-2.292162329E-1,4.019517004E-1
4.820000000E0,-6.188973784E-2,-2.263944596E-1,4.421304762E-1
4.822500000E0,-8.047383279E-2,-2.296272367E-1,4.818296731E-1
4.825000000E0,-1.028268412E-1,-2.395158261E-1,5.218841434E-1
4.827500000E0,-1.291157156E-1,-2.509982884E-1,5.574824810E-1
4.830000000E0,-1.585925668E-1,-2.641415894E-1,5.897895098E-1
4.832500000E0,-1.894353032E-1,-2.797409296E-1,6.229223013E-1
4.835000000E0,-2.256327420E-1,-2.932088971E-1,6.512108445E-1
4.837500000E0,-2.631808221E-1,-3.050280511E-1,6.756355762E-1
4.840000000E0,-3.014516830E-1,-3.187116981E-1,6.967056394E-1
4.842500000E0,-3.409528732E-1,-3.272903860E-1,7.131754756E-1
4.845000000E0,-3.816529214E-1,-3.348209560E-1,7.277188301E-1
4.847500000E0,-4.276104271E-1,-3.385594785E-1,7.370339632E-1
4.850000000E0,-4.754525125E-1,-3.392264843E-1,7.426789403E-1
4.852500000E0,-5.199130177E-1,-3.375242949E-1,7.456449866E-1
4.855000000E0,-5.653364062E-1,-3.351901770E-1,7.430326343E-1
4.857500000E0,-6.120859385E-1,-3.297158778E-1,7.377141714E-1
4.860000000E0,-6.600643396E-1,-3.220463395E-1,7.302161455E-1
4.862500000E0,-7.065557241E-1,-3.090863526E-1,7.205801010E-1
4.865000000E0,-7.509803772E-1,-2.919182777E-1,7.070100904E-1
4.867500000E0,-7.965927124E-1,-2.715317011E-1,6.910184622E-1
4.870000000E0,-8.386678696E-1,-2.452190220E-1,6.753315926E-1
4.872500000E0,-8.758728504E-1,-2.102599740E-1,6.569445133E-1
4.875000000E0,-9.096329212E-1,-1.758151799E-1,6.348810196E-1
4.877500000E0,-9.381880760E-1,-1.377663910E-1,6.124012470E-1
4.880000000E0,-9.635634422E-1,-9.788705409E-2,5.843241811E-1
4.882500000E0,-9.792448282E-1,-6.198839843E-2,5.538742542E-1
4.885000000E0,-9.864262342E-1,-2.715190314E-2,5.189073086E-1
4.887500000E0,-9.864364862E-1,2.507572528E-3,4.791551232E-1
4.890000000E0,-9.768874049E-1,2.340468206E-2,4.375421107E-1
4.892500000E0,-9.564902782E-1,3.662529960E-2,3.914278746E-1
4.895000000E0,-9.275222421E-1,3.922983631E-2,3.442268074E-1
4.897500000E0,-8.906427026E-1,2.670244128E-2,2.946642935E-1
4.900000000E0,-8.467959762E-1,3.494654549E-3,2.476812750E-1
4.902500000E0,-7.961452603E-1,-3.169237450E-2,2.022792995E-1
4.905000000E0,-7.381998897E-1,-7.780087739E-2,1.637854874E-1
4.907500000E0,-6.813695431E-1,-1.320395172E-1,1.308881044E-1
4.910000000E0,-6.308858395E-1,-1.813368052E-1,1.059022844E-1
4.912500000E0,-5.765822530E-1,-2.332937121E-1,9.316796064E-2
4.915000000E0,-5.262783766E-1,-2.783425152E-1,8.841893077E-2
4.917500000E0,-4.848194420E-1,-3.094057143E-1,9.493179619E-2
4.920000000E0,-4.518059492E-1,-3.282354474E-1,1.057915241E-1
4.922500000E0,-4.236785471E-1,-3.378394246E-1,1.203933805E-1
4.925000000E0,-4.025698900E-1,-3.393374979E-1,1.398373544E-1
4.927500000E0,-3.881487250E-1,-3.343911171E-1,1.606320441E-1
4.930000000E0,-3.768470883E-1,-3.272297680E-1,1.795495152E-1
4.932500000E0,-3.737107515E-1,-3.113819957E-1,2.006330639E-1
4.935000000E0,-3.704566658E-1,-2.899684012E-1,2.205072343E-1
4.937500000E0,-3.688393235E-1,-2.637736499E-1,2.391214669E-1
4.940000000E0,-3.675097227E-1,-2.312696427E-1,2.572267056E-1
4.942500000E0,-3.706795275E-1,-1.886916906E-1,2.728076875E-1
4.945000000E0,-3.741979003E-1,-1.401035935E-1,2.842242420E-1
4.947500000E0,-3.736949563E-1,-8.837894350E-2,2.944563925E-1
4.950000000E0,-3.768847883E-1,-2.812461928E-2,2.967192233E-1
4.952500000E0,-3.755572438E-1,3.025051206E-2,2.949399650E-1
4.955000000E0,-3.809535205E-1,7.750849426E-2,2.959761024E-1
4.957500000E0,-3.971266150E-1,1.126818806E-1,3.038754761E-1
4.960000000E0,-4.140746593E-1,1.414324194E-1,3.143483400E-1
4.962500000E0,-4.283946753E-1,1.772824526E-1,3.262199163E-1
4.965000000E0,-4.403610528E-1,2.161055356E-1,3.405806124E-1
4.967500000E0,-4.541500509E-1,2.562935352E-1,3.528472185E-1
4.970000000E0,-4.699372053E-1,2.956851125E-1,3.663036525E-1
4.972500000E0,-4.839620888E-1,3.354412317E-1,3.792512417E-1
4.975000000E0,-4.943906367E-1,3.730669022E-1,3.892033696E-1
4.977500000E0,-5.060526729E-1,4.047536850E-1,3.996477127E-1
4.980000000E0,-5.229442120E-1,4.266174138E-1,4.111216664E-1
4.982500000E0,-5.401442051E-1,4.370405972E-1,4.184724092E-1
4.985000000E0,-5.585197806E-1,4.394459724E-1,4.206909239E-1
4.987500000E0,-5.745227337E-1,4.307788312E-1,4.205004573E-1
4.990000000E0,-5.940727592E-1,4.140643477E-1,4.158878922E-1
4.992500000E0,-6.129958630E-1,3.892076015E-1,4.043706357E-1
4.995000000E0,-6.314004064E-1,3.564327359E-1,3.881955743E-1
4.997500000E0,-6.463387012E-1,3.171705008E-1,3.677032292E-1
5.000000000E0,-6.648377776E-1,2.772822380E-1,3.428019583E-1
5.002500000E0,-6.783370972E-1,2.353160530E-1,3.180193305E-1
5.005000000E0,-6.936275363E-1,1.994341761E-1,2.889662087E-1
5.007500000E0,-7.075262666E-1,1.608141661E-1,2.624053657E-1
5.010000000E0,-7.206374407E-1,1.247662455E-1,2.398382425E-1
5.012500000E0,-7.323914170E-1,9.165907651E-2,2.175786197E-1
5.015000000E0,-7.406408191E-1,6.083647162E-2,1.982392222E-1
5.017500000E0,-7.445617318E-1,3.332632408E-2,1.816191375E-1
5.020000000E0,-7.422734499E-1,7.587932982E-3,1.697575152E-1
5.022500000E0,-7.296224236E-1,-1.582656987E-2,1.619050503E-1
5.025000000E0,-7.143747211E-1,-4.598690569E-2,1.635218710E-1
5.027500000E0,-7.025083899E-1,-8.390930295E-2,1.705094427E-1
5.030000000E0,-6.975539327E-1,-1.311512589E-1,1.745205522E-1
5.032500000E0,-6.972938180E-1,-1.646224707E-1,1.738761812E-1
5.035000000E0,-6.914756298E-1,-1.579697728E-1,1.705521643E-1
5.037500000E0,-6.798265576E-1,-1.283291578E-1,1.695758998E-1
5.040000000E0,-6.637256742E-1,-9.056037664E-2,1.741780639E-1
5.042500000E0,-6.466386914E-1,-4.886972904E-2,1.823589355E-1
5.045000000E0,-6.220478415E-1,-3.467435716E-3,1.902015358E-1
5.047500000E0,-5.881428719E-1,4.871378094E-2,2.011696249E-1
5.050000000E0,-5.533111691E-1,1.034895927E-1,2.129346579E-1
5.052500000E0,-5.125916600E-1,1.612385213E-1,2.239613533E-1
5.055000000E0,-4.690703750E-1,2.204849869E-1,2.362825572E-1
5.057500000E0,-4.228718579E-1,2.783229053E-1,2.465816587E-1
5.060000000E0,-3.722029030E-1,3.311098218E-1,2.572185397E-1
5.062500000E0,-3.139461875E-1,3.772562146E-1,2.673227489E-1
5.065000000E0,-2.541027963E-1,4.245436788E-1,2.796764076E-1
5.067500000E0,-1.850402057E-1,4.657989740E-1,2.979107201E-1
5.070000000E0,-1.096012592E-1,5.006820560E-1,3.178548217E-1
5.072500000E0,-2.971169725E-2,5.286571980E-1,3.387673795E-1
5.075000000E0,4.836194590E-2,5.483564734E-1,3.634701371E-1
5.077500000E0,1.222918704E-1,5.559427142E-1,3.851446211E-1
5.080000000E0,1.864479333E-1,5.484921932E-1,4.032849669E-1
5.082500000E0,2.395782620E-1,5.272592902E-1,4.197353125E-1
5.085000000E0,2.830131650E-1,4.958836436E-1,4.332138300E-1
5.087500000E0,3.138438761E-1,4.571888745E-1,4.478038251E-1
5.090000000E0,3.353042901E-1,4.066009223E-1,4.626476467E-1
5.092500000E0,3.472224176E-1,3.459757566E-1,4.749580324E-1
5.095000000E0,3.496884108E-1,2.785561681E-1,4.867461324E-1
5.097500000E0,3.397141397E-1,2.045855969E-1,4.986683726E-1
5.100000000E0,3.208834529E-1,1.281331778E-1,5.068745017E-1
5.102500000E0,2.928329706E-1,5.382449552E-2,5.133903623E-1
5.105000000E0,2.556039691E-1,-1.085152291E-2,5.185030699E-1
5.107500000E0,2.177624702E-1,-5.995777994E-2,5.226935148E-1
5.110000000E0,1.761352569E-1,-9.284660965E-2,5.282383561E-1
