"Time (s)","Gyroscope x (rad/s)","Gyroscope y (rad/s)","Gyroscope z (rad/s)"
0.000000000E0,2.964831889E-1,-5.538824797E-1,8.803705871E-2
2.391510000E-3,2.964831889E-1,-5.538824797E-1,8.803705871E-2
4.783021000E-3,2.964831889E-1,-5.538824797E-1,8.803705871E-2
7.174531000E-3,2.964831889E-1,-5.538824797E-1,8.803705871E-2
9.564635000E-3,2.964831889E-1,-5.538824797E-1,8.803705871E-2
1.195578100E-2,2.964831889E-1,-5.538824797E-1,8.803705871E-2
1.434619800E-2,2.964831889E-1,-5.538824797E-1,8.803705871E-2
1.673739600E-2,2.964831889E-1,-5.538824797E-1,8.803705871E-2
1.912937500E-2,2.964831889E-1,-5.538824797E-1,8.803705871E-2
2.152046900E-2,2.964831889E-1,-5.538824797E-1,8.803705871E-2
2.391088500E-2,2.964831889E-1,-5.538824797E-1,8.803705871E-2
2.630208300E-2,2.964831889E-1,-5.538824797E-1,8.803705871E-2
2.869406300E-2,2.964831889E-1,-5.538824797E-1,8.803705871E-2
3.108515600E-2,2.964831889E-1,-5.538824797E-1,8.803705871E-2
3.347557300E-2,2.964831889E-1,-5.538824797E-1,8.803705871E-2
3.586677100E-2,2.964831889E-1,-5.538824797E-1,8.803705871E-2
3.825869800E-2,2.964831889E-1,-5.538824797E-1,8.803705871E-2
4.064984400E-2,2.964831889E-1,-5.538824797E-1,8.803705871E-2
4.304020800E-2,2.964831889E-1,-5.538824797E-1,8.803705871E-2
4.543145800E-2,2.964831889E-1,-5.538824797E-1,8.803705871E-2
4.782338500E-2,2.964831889E-1,-5.538824797E-1,8.803705871E-2
5.021458300E-2,2.964831889E-1,-5.538824797E-1,8.803705871E-2
5.260489600E-2,2.964831889E-1,-5.538824797E-1,8.803705871E-2
5.499614600E-2,2.964831889E-1,-5.538824797E-1,8.803705871E-2
5.738807300E-2,2.964831889E-1,-5.538824797E-1,8.803705871E-2
5.977916700E-2,2.964831889E-1,-5.538824797E-1,8.803705871E-2
6.216958300E-2,2.964831889E-1,-5.538824797E-1,8.803705871E-2
6.456078100E-2,2.964831889E-1,-5.538824797E-1,8.803705871E-2
6.695276000E-2,2.964831889E-1,-5.538824797E-1,8.803705871E-2
6.934385400E-2,2.964831889E-1,-5.538824797E-1,8.803705871E-2
7.173427100E-2,2.964831889E-1,-5.538824797E-1,8.803705871E-2
7.412546900E-2,2.964831889E-1,-5.538824797E-1,8.803705871E-2
7.651744800E-2,2.964831889E-1,-5.538824797E-1,8.803705871E-2
7.890854200E-2,2.964831889E-1,-5.538824797E-1,8.803705871E-2
8.129895800E-2,2.964831889E-1,-5.538824797E-1,8.803705871E-2
8.369015600E-2,-8.433903456E-1,-2.154634297E-1,-7.977167964E-1
8.608208300E-2,-8.910377622E-1,-1.665942669E-1,-8.099340796E-1
8.847328100E-2,-9.337983131E-1,-1.128381640E-1,-8.197079301E-1
9.086364600E-2,-9.753370881E-1,-6.152552739E-2,-8.331469297E-1
9.325484400E-2,-1.010767221E0,-5.325976759E-3,-8.429207802E-1
9.564677100E-2,-1.043753982E0,4.843011871E-2,-8.514729142E-1
9.803796900E-2,-1.074297190E0,1.046296805E-1,-8.624684811E-1
1.004282810E-1,-1.101175189E0,1.596074998E-1,-8.685771227E-1
1.028195310E-1,-1.126831532E0,2.096984088E-1,-8.673553467E-1
1.052114580E-1,-1.151266098E0,2.500154674E-1,-8.612467051E-1
1.076026560E-1,-1.174479008E0,2.866673768E-1,-8.502511382E-1
1.099929690E-1,-1.195248365E0,3.208757937E-1,-8.294817805E-1
1.123842190E-1,-1.218461275E0,3.477538228E-1,-8.038254380E-1
1.147761460E-1,-1.239230633E0,3.746318817E-1,-7.720604539E-1
1.171672400E-1,-1.266108751E0,3.917360902E-1,-7.366303205E-1
1.195576560E-1,-1.291765094E0,4.027316570E-1,-6.938697696E-1
1.219488540E-1,-1.324751735E0,4.125055075E-1,-6.450006366E-1
1.243408330E-1,-1.362625360E0,4.149489403E-1,-5.839141607E-1
1.267319270E-1,-1.404164195E0,4.125055075E-1,-5.154972672E-1
1.291223440E-1,-1.445702910E0,4.100620449E-1,-4.434152544E-1
1.315135420E-1,-1.487241745E0,4.198358655E-1,-3.774418533E-1
1.339055210E-1,-1.527558804E0,4.454921782E-1,-3.175771236E-1
1.362966150E-1,-1.561767220E0,4.894744456E-1,-2.625992894E-1
1.386870310E-1,-1.591088772E0,5.554478168E-1,-2.100649327E-1
1.410782290E-1,-1.614301562E0,6.360819936E-1,-1.624174863E-1
1.434701560E-1,-1.628962398E0,7.252682447E-1,-1.184352189E-1
1.458613540E-1,-1.632627606E0,8.205631375E-1,-7.567468286E-2
1.482517190E-1,-1.631405830E0,9.256318808E-1,-3.413588181E-2
1.506429170E-1,-1.624075413E0,1.035587549E0,1.294270158E-3
1.530348440E-1,-1.610636473E0,1.155317068E0,2.450712770E-2
1.554260420E-1,-1.593532205E0,1.279933453E0,4.405479878E-2
1.578163540E-1,-1.570319295E0,1.394775987E0,5.749382824E-2
1.602076040E-1,-1.542219520E0,1.508396864E0,6.604593247E-2
1.625995310E-1,-1.506789446E0,1.612243891E0,6.604593247E-2
1.649907290E-1,-1.465250611E0,1.698986650E0,6.360246986E-2
1.673810420E-1,-1.422490120E0,1.774733901E0,6.115901470E-2
1.697722920E-1,-1.383394718E0,1.838263869E0,5.382863432E-2
1.721642190E-1,-1.350408077E0,1.888354659E0,4.649826139E-2
1.745553130E-1,-1.325973511E0,1.920119643E0,2.695059031E-2
1.769457290E-1,-1.300317168E0,1.934780478E0,7.253885269E-5
1.793369270E-1,-1.280769467E0,1.929893494E0,-3.291415423E-2
1.817289060E-1,-1.261221766E0,1.910345793E0,-6.834430993E-2
1.841200000E-1,-1.247782826E0,1.876137376E0,-1.013310105E-1
1.865104170E-1,-1.229456782E0,1.840707302E0,-1.355394274E-1
1.889016150E-1,-1.206243992E0,1.807720542E0,-1.673043966E-1
1.912935940E-1,-1.185474515E0,1.766181827E0,-1.905172616E-1
1.936846880E-1,-1.169592142E0,1.714869142E0,-2.039562762E-1
1.960751040E-1,-1.159818292E0,1.650117517E0,-2.100649327E-1
1.984663020E-1,-1.157374740E0,1.582922339E0,-2.051780075E-1
2.008582290E-1,-1.158596516E0,1.518170714E0,-1.954041719E-1
2.032494270E-1,-1.161039948E0,1.463192821E0,-1.880737990E-1
2.056397400E-1,-1.161039948E0,1.413101912E0,-1.795216948E-1
2.080309900E-1,-1.153709650E0,1.374006629E0,-1.758565009E-1
2.104229170E-1,-1.134161949E0,1.348350286E0,-1.746347845E-1
2.128141150E-1,-1.107283831E0,1.331246138E0,-1.721913218E-1
2.152044270E-1,-1.074297190E0,1.322693944E0,-1.587522924E-1
2.175956770E-1,-1.042532206E0,1.320250511E0,-1.428698152E-1
2.199876040E-1,-1.007102132E0,1.327580929E0,-1.208786815E-1
2.223786980E-1,-9.777805805E-1,1.341019988E0,-1.025527418E-1
2.247691150E-1,-9.484590888E-1,1.376450062E0,-8.911371231E-2
2.271603130E-1,-9.081419706E-1,1.436314821E0,-8.544851840E-2
2.295522920E-1,-8.727118373E-1,1.501066446E0,-8.544851840E-2
2.319433850E-1,-8.470554948E-1,1.563374639E0,-8.911371231E-2
2.343338020E-1,-8.385034204E-1,1.597583055E0,-9.644408524E-2
2.367250000E-1,-8.494989872E-1,1.604913473E0,-1.123265773E-1
2.391169790E-1,-8.580510616E-1,1.628126383E0,-1.355394274E-1
2.415080730E-1,-8.519424200E-1,1.664778233E0,-1.575305611E-1
2.438984900E-1,-8.372817039E-1,1.701430082E0,-1.734130532E-1
2.462896880E-1,-8.128470778E-1,1.728308201E0,-1.880737990E-1
2.486816670E-1,-7.920777202E-1,1.733195066E0,-2.002910972E-1
2.510727600E-1,-7.871907949E-1,1.727086425E0,-2.063997388E-1
2.534631250E-1,-7.994080782E-1,1.719756007E0,-2.210604995E-1
2.558543750E-1,-8.226209283E-1,1.698986650E0,-2.406081706E-1
2.582463020E-1,-8.470554948E-1,1.673330307E0,-2.601558268E-1
2.606375000E-1,-8.690466285E-1,1.652560949E0,-2.821469605E-1
2.630278130E-1,-8.849291205E-1,1.640343666E0,-3.053598404E-1
2.654190630E-1,-8.959246874E-1,1.634235024E0,-3.297944069E-1
2.678109900E-1,-9.069202542E-1,1.628126383E0,-3.481203616E-1
2.702020830E-1,-9.179158211E-1,1.620795965E0,-3.676680326E-1
2.725925000E-1,-9.337983131E-1,1.598804832E0,-3.884374201E-1
2.749837500E-1,-9.423503876E-1,1.575591922E0,-4.055416286E-1
2.773756770E-1,-9.411286712E-1,1.549935699E0,-4.153154790E-1
2.797667710E-1,-9.252461791E-1,1.532831430E0,-4.214241207E-1
2.821571880E-1,-8.983681798E-1,1.520614147E0,-4.250892997E-1
2.845483850E-1,-8.617162704E-1,1.513283730E0,-4.263110459E-1
2.869403650E-1,-8.238426447E-1,1.510840297E0,-4.287545085E-1
2.893314580E-1,-7.835255861E-1,1.519392371E0,-4.336414337E-1
2.917218750E-1,-7.419868112E-1,1.532831430E0,-4.360848665E-1
2.941130730E-1,-7.028914690E-1,1.546270490E0,-4.324196875E-1
2.965050520E-1,-6.686829925E-1,1.557265997E0,-4.238675833E-1
2.988961460E-1,-6.344745755E-1,1.574370265E0,-4.116503000E-1
3.012865630E-1,-5.953792334E-1,1.584144115E0,-4.006547332E-1
3.036777600E-1,-5.611708164E-1,1.595139623E0,-3.921026289E-1
3.060696880E-1,-5.281841159E-1,1.608578682E0,-3.786635995E-1
3.084608850E-1,-4.976409674E-1,1.624461174E0,-3.749983907E-1
3.108511980E-1,-4.768715501E-1,1.618352532E0,-3.762201369E-1
3.132424480E-1,-4.658759832E-1,1.593917966E0,-3.798853159E-1
3.156343750E-1,-4.622108042E-1,1.545048714E0,-4.006547332E-1
3.180255730E-1,-4.695411921E-1,1.486405730E0,-4.263110459E-1
3.204158850E-1,-4.732063711E-1,1.425319314E0,-4.519673586E-1
3.228071350E-1,-4.744280875E-1,1.365454555E0,-4.739584923E-1
3.251990630E-1,-4.658759832E-1,1.306811452E0,-4.898409843E-1
3.275901560E-1,-4.536587000E-1,1.242059827E0,-5.020582676E-1
3.299805730E-1,-4.365544915E-1,1.178529859E0,-5.142755508E-1
3.323717710E-1,-4.170068204E-1,1.116221666E0,-5.228276253E-1
3.347637500E-1,-3.913505077E-1,1.062465668E0,-5.301580429E-1
3.371548440E-1,-3.546985984E-1,1.017261624E0,-5.374884009E-1
3.395452600E-1,-3.094946146E-1,9.867183566E-1,-5.435970426E-1
3.419364580E-1,-2.581819892E-1,9.598402977E-1,-5.472622514E-1
3.443284380E-1,-1.946520358E-1,9.366274476E-1,-5.460405350E-1
3.467195310E-1,-1.262351871E-1,9.146363139E-1,-5.497057438E-1
3.491099480E-1,-5.293142796E-2,8.950886130E-1,-5.484839678E-1
3.515011460E-1,2.037233859E-2,8.730974793E-1,-5.435970426E-1
3.538930730E-1,9.367609769E-2,8.486629128E-1,-5.423753262E-1
3.562842710E-1,1.645364165E-1,8.193414211E-1,-5.374884009E-1
3.586745830E-1,2.305098027E-1,7.887981534E-1,-5.326014757E-1
3.610658330E-1,2.928179801E-1,7.582549453E-1,-5.264928341E-1
3.634577600E-1,3.490175605E-1,7.240465283E-1,-5.191624761E-1
3.658489580E-1,4.003301859E-1,6.886163354E-1,-5.106103420E-1
3.682392710E-1,4.443124533E-1,6.568513513E-1,-4.971713424E-1
3.706305210E-1,4.772991538E-1,6.226429343E-1,-4.873975217E-1
3.730224480E-1,5.053989887E-1,5.884345174E-1,-4.776236713E-1
3.754135420E-1,5.249466300E-1,5.591130257E-1,-4.702933133E-1
3.778039580E-1,5.383856893E-1,5.322349668E-1,-4.629629254E-1
3.801951560E-1,5.444943309E-1,5.114656091E-1,-4.531890750E-1
3.825871350E-1,5.469377637E-1,4.943613708E-1,-4.409717917E-1
3.849782290E-1,5.408291221E-1,4.784788787E-1,-4.287545085E-1
3.873686460E-1,5.273901224E-1,4.650398493E-1,-4.140937328E-1
3.897598440E-1,5.115076303E-1,4.589312077E-1,-4.006547332E-1
3.921518230E-1,4.895164371E-1,4.503791034E-1,-3.884374201E-1
3.945429170E-1,4.638601243E-1,4.430487156E-1,-3.713332117E-1
3.969333330E-1,4.369820654E-1,4.454921782E-1,-3.530072868E-1
3.993245310E-1,4.088822901E-1,4.540442824E-1,-3.383465111E-1
4.017164580E-1,3.807825148E-1,4.601529539E-1,-3.212423027E-1
4.041076560E-1,3.514609933E-1,4.760354161E-1,-3.004729152E-1
4.064979690E-1,3.233612180E-1,4.919179082E-1,-2.809252441E-1
4.088892190E-1,2.964831889E-1,5.126873255E-1,-2.625992894E-1
4.112811460E-1,2.671616673E-1,5.334567428E-1,-2.381647080E-1
4.136723440E-1,2.415053695E-1,5.566695929E-1,-2.186170369E-1
4.160626560E-1,2.158490568E-1,5.847693682E-1,-1.966259032E-1
4.184539060E-1,1.914144605E-1,6.092039347E-1,-1.709695905E-1
4.208458330E-1,1.657581478E-1,6.287515759E-1,-1.465349942E-1
4.232369270E-1,1.413235515E-1,6.531862020E-1,-1.221004128E-1
4.256273440E-1,1.193324178E-1,6.702904105E-1,-9.766581655E-2
4.280185940E-1,9.978474677E-2,6.825076938E-1,-6.956604123E-2
4.304105210E-1,7.779362053E-2,6.971684694E-1,-4.024453089E-2
4.328016150E-1,6.191113964E-2,7.118291855E-1,-1.092302427E-2
4.351920310E-1,4.358519986E-2,7.216030359E-1,1.595502347E-2
4.375832290E-1,2.770271525E-2,7.289333940E-1,4.405479878E-2
4.399752080E-1,1.426369138E-2,7.313768864E-1,7.215456665E-2
4.423663020E-1,8.246677462E-4,7.423724532E-1,9.781089425E-2
4.447567190E-1,-7.727438118E-3,7.423724532E-1,1.234672070E-1
4.471479170E-1,-1.139262691E-2,7.448158860E-1,1.503452510E-1
4.495398440E-1,-1.383608580E-2,7.472593784E-1,1.760015786E-1
4.519310420E-1,-1.383608580E-2,7.509245276E-1,2.004361600E-1
4.543213540E-1,-7.727438118E-3,7.521463037E-1,2.224272788E-1
4.567126040E-1,8.246677462E-4,7.509245276E-1,2.444184124E-1
4.591045310E-1,1.548542082E-2,7.448158860E-1,2.676312923E-1
4.614957290E-1,2.892444469E-2,7.374855280E-1,2.920658588E-1
4.638860420E-1,5.213730410E-2,7.301551700E-1,3.189439178E-1
4.662772920E-1,7.901535183E-2,7.252682447E-1,3.482654095E-1
4.686692190E-1,1.095585823E-1,7.154943943E-1,3.751434684E-1
4.710603130E-1,1.437670141E-1,6.996119022E-1,3.995780647E-1
4.734507290E-1,1.791971773E-1,6.849511862E-1,4.240126610E-1
4.758419790E-1,2.134055942E-1,6.678469181E-1,4.460037947E-1
4.782339060E-1,2.512792349E-1,6.482992768E-1,4.667731822E-1
4.806250000E-1,2.867093384E-1,6.299733520E-1,4.875425696E-1
4.830154170E-1,3.245829642E-1,6.165342927E-1,5.058684945E-1
4.854066150E-1,3.649000227E-1,5.994300842E-1,5.205292702E-1
4.877985940E-1,4.027736485E-1,5.835475922E-1,5.339683294E-1
4.901896880E-1,4.382038116E-1,5.701085925E-1,5.486290455E-1
4.925801040E-1,4.724122286E-1,5.542261004E-1,5.608463287E-1
4.949713020E-1,5.041772723E-1,5.407871008E-1,5.693984628E-1
4.973632290E-1,5.310552716E-1,5.273481011E-1,5.779505372E-1
4.997544270E-1,5.506029725E-1,5.200176835E-1,5.816157460E-1
5.021447400E-1,5.664854646E-1,5.065786242E-1,5.828374624E-1
5.045359900E-1,5.762592554E-1,4.992482960E-1,5.803940296E-1
5.069279170E-1,5.811461806E-1,4.894744456E-1,5.791723132E-1
5.093191150E-1,5.835896730E-1,4.772571623E-1,5.706201792E-1
5.117094270E-1,5.811461806E-1,4.674833119E-1,5.620681047E-1
5.141006770E-1,5.750375390E-1,4.564877450E-1,5.486290455E-1
5.164926040E-1,5.677071810E-1,4.479356408E-1,5.351900458E-1
5.188838020E-1,5.603768229E-1,4.406052828E-1,5.180858374E-1
5.212741150E-1,5.506029725E-1,4.308314323E-1,4.948729277E-1
5.236653130E-1,5.383856893E-1,4.198358655E-1,4.655514359E-1
5.260572920E-1,5.188379884E-1,3.990664780E-1,4.313430190E-1
5.284483850E-1,4.944033623E-1,3.673014939E-1,3.922476768E-1
5.308388020E-1,4.638601243E-1,3.233192563E-1,3.494871557E-1
5.332300000E-1,4.272082448E-1,2.658979595E-1,2.981745303E-1
5.356219790E-1,3.795607686E-1,1.938159168E-1,2.505270839E-1
5.380130730E-1,3.258046806E-1,1.107383221E-1,1.979926974E-1
5.404034900E-1,2.610530257E-1,1.544342190E-2,1.442366093E-1
5.427946880E-1,1.877492815E-1,-7.985147834E-2,9.658916295E-2
5.451866150E-1,1.071151271E-1,-1.788115501E-1,5.382863432E-2
5.475778130E-1,1.915060915E-2,-2.741064429E-1,7.402919233E-3
5.499681250E-1,-7.736601681E-2,-3.645144403E-1,-3.657934442E-2
5.523593750E-1,-1.812130213E-1,-4.439268410E-1,-8.056160808E-2
5.547513020E-1,-2.911686897E-1,-4.976829290E-1,-1.208786815E-1
5.571425000E-1,-4.011243284E-1,-5.331131220E-1,-1.538653672E-1
5.595328130E-1,-5.049712658E-1,-5.404434800E-1,-1.819651574E-1
5.619240630E-1,-6.027096510E-1,-5.221175551E-1,-2.051780075E-1
5.643159900E-1,-6.833437681E-1,-4.744700789E-1,-2.222822309E-1
5.667070830E-1,-7.444302440E-1,-4.060532451E-1,-2.369429767E-1
5.690975000E-1,-7.884125113E-1,-3.205321729E-1,-2.528254688E-1
5.714886980E-1,-8.128470778E-1,-2.252372801E-1,-2.638210058E-1
5.738806770E-1,-8.152905703E-1,-1.201685369E-1,-2.748165727E-1
5.762717710E-1,-7.981863618E-1,-1.387808472E-2,-2.845904231E-1
5.786621880E-1,-7.615344524E-1,9.485584497E-2,-2.931425273E-1
5.810533850E-1,-7.163304687E-1,1.999245733E-1,-3.041380942E-1
5.834453650E-1,-6.564657092E-1,2.915542722E-1,-3.126901984E-1
5.858364580E-1,-5.868271589E-1,3.758535981E-1,-3.212423027E-1
5.882268750E-1,-5.123016238E-1,4.454921782E-1,-3.261292279E-1
5.906180730E-1,-4.328892827E-1,4.919179082E-1,-3.261292279E-1
5.930100000E-1,-3.510334194E-1,5.175742507E-1,-3.224640489E-1
5.954011980E-1,-2.667340934E-1,5.249046087E-1,-3.175771236E-1
5.977915100E-1,-1.860999316E-1,5.151307583E-1,-3.114684820E-1
6.001827600E-1,-1.054657996E-1,4.919179082E-1,-3.029163778E-1
6.025746880E-1,-2.971856855E-2,4.601529539E-1,-2.919208109E-1
6.049658850E-1,3.869828209E-2,4.271662533E-1,-2.735948563E-1
6.073561980E-1,1.022282094E-1,3.966230154E-1,-2.503820062E-1
6.097474480E-1,1.584277749E-1,3.721884191E-1,-2.259474099E-1
6.121393750E-1,2.072969526E-1,3.563059270E-1,-2.002910972E-1
6.145305730E-1,2.488357574E-1,3.440886438E-1,-1.734130532E-1
6.169208850E-1,2.830441594E-1,3.440886438E-1,-1.477567255E-1
6.193121350E-1,3.123656511E-1,3.477538228E-1,-1.221004128E-1
6.217040630E-1,3.343567848E-1,3.575276732E-1,-9.522235394E-2
6.240951560E-1,3.490175605E-1,3.697449565E-1,-7.078777254E-2
6.264855730E-1,3.563479185E-1,3.795188069E-1,-4.390971735E-2
6.288767710E-1,3.575696647E-1,3.868491650E-1,-1.580994204E-2
6.312687500E-1,3.526827395E-1,3.868491650E-1,1.473329216E-2
6.336598440E-1,3.441306353E-1,3.856274486E-1,4.771999270E-2
6.360502600E-1,3.343567848E-1,3.782970607E-1,8.192840219E-2
6.384414580E-1,3.209177852E-1,3.685232401E-1,1.210237443E-1
6.408333850E-1,3.087004721E-1,3.538624644E-1,1.588973552E-1
6.432245830E-1,2.977049053E-1,3.416451812E-1,1.918840557E-1
6.456148960E-1,2.891528010E-1,3.233192563E-1,2.248707414E-1
6.480061460E-1,2.818224430E-1,3.086584806E-1,2.554139793E-1
6.503980730E-1,2.781572342E-1,2.976629436E-1,2.859572172E-1
6.527892710E-1,2.744920552E-1,2.842239141E-1,3.128352761E-1
6.551795830E-1,2.732703090E-1,2.756718099E-1,3.348264098E-1
6.575708330E-1,2.696051300E-1,2.671197057E-1,3.531523347E-1
6.599627600E-1,2.647182047E-1,2.585676014E-1,3.714782894E-1
6.623538540E-1,2.622747421E-1,2.597893178E-1,3.898042142E-1
6.647442710E-1,2.598313093E-1,2.646762431E-1,4.105736315E-1
6.671354690E-1,2.573878467E-1,2.768935263E-1,4.337864816E-1
6.695274480E-1,2.573878467E-1,2.915542722E-1,4.631080031E-1
6.719185420E-1,2.598313093E-1,3.086584806E-1,4.924294949E-1
6.743089580E-1,2.671616673E-1,3.306496143E-1,5.290814042E-1
6.767001560E-1,2.818224430E-1,3.465321064E-1,5.706201792E-1
6.790921350E-1,3.050352931E-1,3.550842106E-1,6.182676554E-1
6.814832290E-1,3.306916058E-1,3.648580313E-1,6.708019972E-1
6.838736460E-1,3.612348437E-1,3.685232401E-1,7.245581150E-1
6.862648440E-1,3.991084695E-1,3.660797775E-1,7.807576656E-1
6.886567710E-1,4.418689907E-1,3.538624644E-1,8.381789327E-1
6.910479690E-1,4.882946908E-1,3.404234648E-1,8.919350505E-1
6.934382810E-1,5.383856893E-1,3.172105849E-1,9.444693923E-1
6.958295310E-1,5.896983147E-1,2.793369889E-1,9.957820177E-1
6.982214580E-1,6.446761489E-1,2.304678112E-1,1.038542628E0
7.006126560E-1,6.996539831E-1,1.754899770E-1,1.069085956E0
7.030029690E-1,7.497448921E-1,1.192904264E-1,1.089855313E0
7.053942190E-1,8.022792339E-1,5.942568555E-2,1.095963955E0
7.077861460E-1,8.523701429E-1,5.669586360E-3,1.082524896E0
7.101772400E-1,8.975741267E-1,-3.342575580E-2,1.055646896E0
7.125676560E-1,9.427781105E-1,-5.908207968E-2,1.017773271E0
7.149588540E-1,9.855386615E-1,-7.740801573E-2,9.640170336E-1
7.173508330E-1,1.028299212E0,-8.107319474E-2,8.980436921E-1
7.197419270E-1,1.064951062E0,-6.885591149E-2,8.198530078E-1
7.221323440E-1,1.097937703E0,-5.419515073E-2,7.294449806E-1
7.245235420E-1,1.128481030E0,-3.098229319E-2,6.353718638E-1
7.269155210E-1,1.157802463E0,-6.547704339E-3,5.400769711E-1
7.293066150E-1,1.181015372E0,2.033034153E-2,4.508906901E-1
7.316969790E-1,1.204228163E0,4.843011871E-2,3.641479015E-1
7.340882290E-1,1.223775864E0,8.141681552E-2,2.798485756E-1
7.364801560E-1,1.240880132E0,1.070731282E-1,1.992144287E-1
7.388713540E-1,1.248210430E0,1.058514118E-1,1.246889383E-1
7.412616670E-1,1.234771490E0,7.286471128E-2,6.360246986E-2
7.436529170E-1,1.200563073E0,2.277380042E-2,1.595502347E-2
7.460448440E-1,1.162689447E0,-2.976056933E-2,-1.458821259E-2
7.484360420E-1,1.123594046E0,-5.908207968E-2,-3.291415423E-2
7.508263540E-1,1.093050838E0,-6.519071758E-2,-5.368355289E-2
7.532176040E-1,1.053955436E0,-7.740801573E-2,-7.323123515E-2
7.556095310E-1,1.007529736E0,-1.116164327E-1,-7.811814547E-2
7.580006250E-1,9.525519609E-1,-1.690377295E-1,-6.590084732E-2
7.603910420E-1,8.926872015E-1,-2.289024591E-1,-4.390971735E-2
7.627822400E-1,8.340442181E-1,-2.899889350E-1,-1.947513036E-2
7.651742190E-1,7.790663838E-1,-3.437450230E-1,6.181187928E-3
7.675653130E-1,7.289754748E-1,-3.913924694E-1,2.817231789E-2
7.699557290E-1,6.898801327E-1,-4.231574535E-1,4.283306748E-2
7.723469270E-1,6.544499397E-1,-4.439268410E-1,5.627209693E-2
7.747389060E-1,6.190198064E-1,-4.500355124E-1,7.093285024E-2
7.771300000E-1,5.884765983E-1,-4.427051246E-1,8.681532741E-2
7.795203650E-1,5.615985394E-1,-4.231574535E-1,1.051412672E-1
7.819116150E-1,5.371639132E-1,-3.975011408E-1,1.283541322E-1
7.843035420E-1,5.115076303E-1,-3.730665445E-1,1.552321762E-1
7.866947400E-1,4.821860492E-1,-3.388581276E-1,1.882188618E-1
7.890850520E-1,4.504210949E-1,-2.985410392E-1,2.260924876E-1
7.914763020E-1,4.186561108E-1,-2.570022345E-1,2.627443671E-1
7.938682290E-1,3.881129026E-1,-2.264589965E-1,2.945093215E-1
7.962594270E-1,3.624565601E-1,-1.995809674E-1,3.201656342E-1
7.986497400E-1,3.392437100E-1,-1.714811772E-1,3.433785141E-1
8.010409380E-1,3.099222183E-1,-1.568204314E-1,3.678131104E-1
8.034329170E-1,2.793789804E-1,-1.543769687E-1,3.922476768E-1
8.058240100E-1,2.378401905E-1,-1.690377295E-1,4.191257358E-1
8.082144270E-1,1.791971773E-1,-2.117982507E-1,4.460037947E-1
8.106056250E-1,1.083368585E-1,-2.789933681E-1,4.618862569E-1
8.129976040E-1,3.136790171E-2,-3.571840525E-1,4.655514359E-1
8.153886980E-1,-4.804451019E-2,-4.427051246E-1,4.594427943E-1
8.177791150E-1,-1.250134706E-1,-5.208957791E-1,4.521124363E-1
8.201703130E-1,-1.873216629E-1,-5.722084641E-1,4.447820485E-1
8.225622400E-1,-2.276387364E-1,-5.856474638E-1,4.460037947E-1
8.249534380E-1,-2.484081388E-1,-5.660997629E-1,4.472255111E-1
8.273437500E-1,-2.508516014E-1,-5.257827044E-1,4.447820485E-1
8.297350000E-1,-2.386343032E-1,-4.683614373E-1,4.435603321E-1
8.321269270E-1,-2.129779756E-1,-4.072749615E-1,4.313430190E-1
8.345181250E-1,-1.824347526E-1,-3.425233066E-1,4.142388105E-1
8.369084380E-1,-1.457828581E-1,-2.863237560E-1,3.922476768E-1
8.392996880E-1,-1.079092547E-1,-2.264589965E-1,3.690348268E-1
8.416916150E-1,-7.003564388E-2,-1.775898337E-1,3.421567678E-1
8.440827080E-1,-3.216202557E-2,-1.372727603E-1,3.152787387E-1
8.464731250E-1,8.155044168E-3,-1.006208658E-1,2.920658588E-1
8.488643230E-1,4.969384521E-2,-6.519071758E-2,2.749616504E-1
8.512563020E-1,9.367609769E-2,-4.075612873E-2,2.615226209E-1
8.536473960E-1,1.388801038E-1,-2.853883803E-2,2.493053377E-1
8.560378130E-1,1.804188937E-1,-2.853883803E-2,2.468618751E-1
8.584290100E-1,2.072969526E-1,-6.519071758E-2,2.529705167E-1
8.608209900E-1,2.170707881E-1,-1.323858351E-1,2.712964714E-1
8.632120830E-1,2.109621316E-1,-2.337893844E-1,2.920658588E-1
8.656024480E-1,1.938579232E-1,-3.694013357E-1,2.981745303E-1
8.679936980E-1,1.730885208E-1,-5.062350631E-1,3.006179631E-1
8.703856250E-1,1.510973871E-1,-6.394035816E-1,3.030614257E-1
8.727768230E-1,1.315497160E-1,-7.676851749E-1,3.055048883E-1
8.751671350E-1,1.107803136E-1,-8.947449923E-1,3.128352761E-1
8.775583850E-1,8.634572476E-2,-1.010809302E0,3.201656342E-1
8.799503130E-1,6.191113964E-2,-1.110991120E0,3.287177682E-1
8.823415100E-1,3.747655079E-2,-1.187960029E0,3.360481262E-1
8.847318230E-1,2.037233859E-2,-1.236829162E0,3.458219767E-1
8.871230730E-1,4.489855841E-3,-1.257598639E0,3.543740809E-1
8.895150000E-1,-8.949168026E-3,-1.263707280E0,3.653696477E-1
8.919060940E-1,-1.872300357E-2,-1.249046445E0,3.775869310E-1
8.942965100E-1,-3.094029985E-2,-1.220946670E0,3.849173188E-1
8.966877080E-1,-3.949240223E-2,-1.183073044E0,3.898042142E-1
8.990796880E-1,-4.804451019E-2,-1.136647344E0,3.983563185E-1
9.014707810E-1,-6.148353592E-2,-1.091443419E0,4.032432437E-1
9.038611980E-1,-8.225294203E-2,-1.064565301E0,4.056867063E-1
9.062523960E-1,-1.127961725E-1,-1.051126361E0,4.032432437E-1
9.086443230E-1,-1.531132311E-1,-1.049904585E0,3.983563185E-1
9.110355210E-1,-1.983172297E-1,-1.051126361E0,3.983563185E-1
9.134258330E-1,-2.447429448E-1,-1.063343644E0,4.032432437E-1
9.158170830E-1,-2.826165855E-1,-1.079226136E0,4.032432437E-1
9.182090100E-1,-3.204901814E-1,-1.104882360E0,3.971346021E-1
9.206002080E-1,-3.559203446E-1,-1.141534328E0,3.824738562E-1
9.229905210E-1,-3.901287615E-1,-1.187960029E0,3.678131104E-1
9.253817710E-1,-4.206719995E-1,-1.234385729E0,3.519306183E-1
9.277736980E-1,-4.438848495E-1,-1.285698414E0,3.372698724E-1
9.301647920E-1,-4.695411921E-1,-1.329680681E0,3.201656342E-1
9.325552080E-1,-4.866454005E-1,-1.369997740E0,3.079483509E-1
9.349464060E-1,-4.988626540E-1,-1.407871366E0,2.945093215E-1
9.373383850E-1,-4.976409674E-1,-1.445744872E0,2.798485756E-1
9.397294790E-1,-4.939757586E-1,-1.478731632E0,2.639660835E-1
9.421198960E-1,-4.842019379E-1,-1.511718273E0,2.517488003E-1
9.445110940E-1,-4.683194458E-1,-1.534931183E0,2.444184124E-1
9.469030730E-1,-4.438848495E-1,-1.560587525E0,2.419749498E-1
9.492941670E-1,-4.145633578E-1,-1.587465525E0,2.395315170E-1
9.516845830E-1,-3.815766573E-1,-1.620452285E0,2.431966960E-1
9.540757810E-1,-3.449247777E-1,-1.657104135E0,2.444184124E-1
9.564677080E-1,-3.082728982E-1,-1.697421193E0,2.456401587E-1
9.588589060E-1,-2.703992724E-1,-1.738960028E0,2.493053377E-1
9.612492190E-1,-2.313039154E-1,-1.780498743E0,2.566357255E-1
9.636404690E-1,-1.860999316E-1,-1.813485503E0,2.700747252E-1
9.660323960E-1,-1.396742165E-1,-1.844028711E0,2.847355008E-1
9.684235940E-1,-8.469639719E-2,-1.870906830E0,3.042831719E-1
9.708139060E-1,-2.483165078E-2,-1.885567546E0,3.274960220E-1
9.732051040E-1,2.892444469E-2,-1.896563053E0,3.470436931E-1
9.755970830E-1,8.023707569E-2,-1.895341396E0,3.714782894E-1
9.779881770E-1,1.303279847E-1,-1.875793695E0,3.946911395E-1
9.803785940E-1,1.755319834E-1,-1.851359129E0,4.166822731E-1
9.827697920E-1,2.146273255E-1,-1.819594145E0,4.350082278E-1
9.851617710E-1,2.476140112E-1,-1.781720519E0,4.533341527E-1
9.875528650E-1,2.708268762E-1,-1.742625237E0,4.679949284E-1
9.899432810E-1,2.867093384E-1,-1.714525461E0,4.753252864E-1
9.923344790E-1,2.879310846E-1,-1.703529835E0,4.789904952E-1
9.947264060E-1,2.842658758E-1,-1.692534328E0,4.802122116E-1
9.971176040E-1,2.830441594E-1,-1.665656209E0,4.863208532E-1
9.995079170E-1,2.830441594E-1,-1.625339150E0,4.936512113E-1
1.001899167E0,2.891528010E-1,-1.572804809E0,5.022033453E-1
1.004291094E0,2.977049053E-1,-1.515383482E0,5.131989121E-1
1.006682292E0,3.111439347E-1,-1.454297066E0,5.205292702E-1
1.009072604E0,3.294698894E-1,-1.395654082E0,5.241944790E-1
1.011463854E0,3.453523517E-1,-1.338232756E0,5.254161954E-1
1.013855781E0,3.661217690E-1,-1.279589772E0,5.254161954E-1
1.016246875E0,3.868911564E-1,-1.213616371E0,5.290814042E-1
1.018637292E0,4.064388275E-1,-1.152529836E0,5.303031206E-1
1.021028490E0,4.272082448E-1,-1.098773718E0,5.290814042E-1
1.023420469E0,4.491993487E-1,-1.049904585E0,5.266379118E-1
1.025811563E0,4.699687660E-1,-1.012030959E0,5.217509866E-1
1.028201979E0,4.931816161E-1,-9.766008258E-1,5.131989121E-1
1.030593177E0,5.176162720E-1,-9.460576177E-1,5.083119869E-1
1.032985104E0,5.408291221E-1,-9.289534092E-1,5.022033453E-1
1.035376302E0,5.628202558E-1,-9.155144095E-1,4.960947037E-1
1.037766667E0,5.848113894E-1,-9.106274843E-1,4.899860620E-1
1.040157865E0,6.104677320E-1,-9.008536339E-1,4.863208532E-1
1.042549792E0,6.336805820E-1,-8.984102011E-1,4.875425696E-1
1.044940990E0,6.556717157E-1,-8.910798430E-1,4.850991368E-1
1.047331302E0,6.813279986E-1,-8.923015594E-1,4.838774204E-1
1.049722552E0,7.082060575E-1,-8.825277090E-1,4.838774204E-1
1.052114479E0,7.387493253E-1,-8.690887094E-1,4.863208532E-1
1.054505573E0,7.692925334E-1,-8.507627249E-1,4.875425696E-1
1.056895990E0,8.022792339E-1,-8.324368000E-1,4.863208532E-1
1.059287240E0,8.340442181E-1,-8.116673827E-1,4.863208532E-1
1.061679167E0,8.682526350E-1,-7.896762490E-1,4.863208532E-1
1.064070260E0,9.024610519E-1,-7.615764737E-1,4.863208532E-1
1.066460677E0,9.342260361E-1,-7.334766984E-1,4.814339280E-1
1.068851875E0,9.647692442E-1,-7.065986991E-1,4.826556444E-1
1.071243854E0,9.928690195E-1,-6.833857894E-1,4.802122116E-1
1.073634948E0,1.014860153E0,-6.577295065E-1,4.741035700E-1
1.076025313E0,1.035629511E0,-6.394035816E-1,4.704383612E-1
1.078416563E0,1.052733779E0,-6.174124479E-1,4.655514359E-1
1.080808490E0,1.069837928E0,-6.015299559E-1,4.618862569E-1
1.083199688E0,1.082055330E0,-5.856474638E-1,4.582210779E-1
1.085590000E0,1.094272614E0,-5.734301805E-1,4.533341527E-1
1.087981250E0,1.101602912E0,-5.612128973E-1,4.496689737E-1
1.090373177E0,1.106489897E0,-5.563259721E-1,4.472255111E-1
1.092764375E0,1.112598538E0,-5.575476885E-1,4.447820485E-1
1.095154688E0,1.113820195E0,-5.624346137E-1,4.423385859E-1
1.097545938E0,1.112598538E0,-5.722084641E-1,4.398951232E-1
1.099937865E0,1.108933330E0,-5.880908966E-1,4.386734068E-1
1.102328958E0,1.102824688E0,-6.064168811E-1,4.350082278E-1
1.104719375E0,1.094272614E0,-6.259645224E-1,4.313430190E-1
1.107110573E0,1.083276987E0,-6.491773725E-1,4.288995564E-1
1.109502552E0,1.068616271E0,-6.809423566E-1,4.288995564E-1
1.111893646E0,1.051512003E0,-7.102638483E-1,4.276778400E-1
1.114284063E0,1.038073063E0,-7.346984744E-1,4.276778400E-1
1.116675260E0,1.023412228E0,-7.518026829E-1,4.288995564E-1
1.119067188E0,1.005086303E0,-7.725720406E-1,4.264560938E-1
1.121458385E0,9.794300199E-1,-8.006718159E-1,4.203474522E-1
1.123848698E0,9.488867521E-1,-8.287716508E-1,4.069084525E-1
1.126239948E0,9.146783352E-1,-8.605365753E-1,3.922476768E-1
1.128631875E0,8.816916347E-1,-8.837494254E-1,3.727000058E-1
1.131023073E0,8.474832177E-1,-9.008536339E-1,3.507088721E-1
1.133413385E0,8.132748008E-1,-9.167361259E-1,3.238308430E-1
1.135804635E0,7.754011750E-1,-9.338403344E-1,2.945093215E-1
1.138196563E0,7.338624001E-1,-9.607184529E-1,2.627443671E-1
1.140587656E0,6.837714911E-1,-9.900398850E-1,2.334228456E-1
1.142978073E0,6.373457313E-1,-1.013252735E0,2.089882642E-1
1.145369271E0,5.933635235E-1,-1.023026586E0,1.808884889E-1
1.147761250E0,5.493812561E-1,-1.042574167E0,1.564539075E-1
1.150152344E0,5.029554963E-1,-1.065787077E0,1.259106696E-1
1.152542760E0,4.589731991E-1,-1.092665076E0,9.292396903E-2
1.154933958E0,4.186561108E-1,-1.118321419E0,5.505036563E-2
1.157325885E0,3.783390522E-1,-1.141534328E0,1.717675477E-2
1.159717083E0,3.453523517E-1,-1.167190671E0,-1.947513036E-2
1.162107396E0,3.135873973E-1,-1.183073044E0,-5.612701550E-2
1.164498646E0,2.842658758E-1,-1.191625237E0,-9.888754785E-2
1.166890573E0,2.537226379E-1,-1.201399088E0,-1.367611587E-1
1.169281771E0,2.231794298E-1,-1.207507730E0,-1.746347845E-1
1.171672083E0,1.938579232E-1,-1.209951162E0,-2.149518430E-1
1.174063333E0,1.596495062E-1,-1.209951162E0,-2.589341104E-1
1.176455260E0,1.229976043E-1,-1.212394595E0,-3.004729152E-1
1.178846354E0,8.512399346E-2,-1.214838028E0,-3.444551826E-1
1.181236771E0,4.358519986E-2,-1.217281580E0,-3.823287785E-1
1.183627969E0,-3.970616963E-4,-1.224611878E0,-4.189806581E-1
1.186019948E0,-4.926623777E-2,-1.229498863E0,-4.544108212E-1
1.188411042E0,-9.691368788E-2,-1.231942296E0,-4.849540591E-1
1.190801458E0,-1.421176791E-1,-1.218503237E0,-5.118321180E-1
1.193192656E0,-1.824347526E-1,-1.189181805E0,-5.350449681E-1
1.195584635E0,-2.056476027E-1,-1.128095269E0,-5.558143854E-1
1.197975729E0,-2.374125719E-1,-1.080447793E0,-5.790272355E-1
1.200366094E0,-2.691775560E-1,-1.031578660E0,-6.010183692E-1
1.202757344E0,-3.009425104E-1,-9.900398850E-1,-6.266746521E-1
1.205149271E0,-3.351509273E-1,-9.497228265E-1,-6.498875022E-1
1.207540469E0,-3.718028367E-1,-9.081840515E-1,-6.706569195E-1
1.209930781E0,-4.011243284E-1,-8.593148589E-1,-6.889828444E-1
1.212322031E0,-4.438848495E-1,-8.251064420E-1,-7.085305452E-1
1.214713958E0,-4.866454005E-1,-7.957849503E-1,-7.231913209E-1
1.217105156E0,-5.318493247E-1,-7.664633989E-1,-7.341868877E-1
1.219495469E0,-5.807185173E-1,-7.420288324E-1,-7.451824546E-1
1.221886719E0,-6.295876503E-1,-7.188159823E-1,-7.561780214E-1
1.224278646E0,-6.772351265E-1,-6.821640730E-1,-7.659518123E-1
1.226669740E0,-7.261043191E-1,-6.552860141E-1,-7.769473791E-1
1.229060156E0,-7.810821533E-1,-6.381818056E-1,-7.903864384E-1
1.231451354E0,-8.372817039E-1,-6.247428060E-1,-7.989385128E-1
1.233843333E0,-8.934812546E-1,-6.076385975E-1,-8.111557961E-1
1.236234427E0,-9.435721636E-1,-5.917561054E-1,-8.270382881E-1
1.238624844E0,-9.887761474E-1,-5.648780465E-1,-8.404773474E-1
1.241016042E0,-1.029093146E0,-5.331131220E-1,-8.551380634E-1
1.243407969E0,-1.070631981E0,-4.964612126E-1,-8.697988391E-1
1.245799167E0,-1.110949039E0,-4.598093033E-1,-8.893464804E-1
1.248189479E0,-1.147601008E0,-4.256009161E-1,-9.064506888E-1
1.250580729E0,-1.186696291E0,-3.889490366E-1,-9.259983897E-1
1.252972656E0,-1.222126484E0,-3.559623361E-1,-9.455460310E-1
1.255363854E0,-1.256334901E0,-3.107583523E-1,-9.687589407E-1
1.257754167E0,-1.288099885E0,-2.643326223E-1,-9.907500744E-1
1.260145365E0,-1.316199660E0,-2.142417133E-1,-1.007854223E0
1.262537344E0,-1.343077660E0,-1.665942669E-1,-1.021293163E0
1.264928438E0,-1.372399211E0,-1.201685369E-1,-1.029845238E0
1.267318854E0,-1.400498986E0,-7.862974703E-2,-1.027401805E0
1.269710052E0,-1.429820418E0,-4.442131519E-2,-1.013962865E0
1.272102031E0,-1.459141970E0,-1.876500249E-2,-9.870848656E-1
1.274493125E0,-1.490906954E0,-1.660786569E-3,-9.516546726E-1
1.276883542E0,-1.522671938E0,2.004399896E-3,-9.101158977E-1
1.279274740E0,-1.554436922E0,2.004399896E-3,-8.649119139E-1
1.281666667E0,-1.586201787E0,5.669586360E-3,-8.123775721E-1
1.284057865E0,-1.616745114E0,1.666515321E-2,-7.512910962E-1
1.286448177E0,-1.643623114E0,3.376936540E-2,-6.840959787E-1
1.288839427E0,-1.671722889E0,6.431260705E-2,-6.144573689E-1
1.291231354E0,-1.698600888E0,1.131817847E-1,-5.338232517E-1
1.293622552E0,-1.723035574E0,1.657161415E-1,-4.495238960E-1
1.296012865E0,-1.748691797E0,2.182505131E-1,-3.640028536E-1
1.298404115E0,-1.771904707E0,2.707848847E-1,-2.833687067E-1
1.300796042E0,-1.790230632E0,3.269844353E-1,-2.137301266E-1
1.303187135E0,-1.802447915E0,3.868491650E-1,-1.550870985E-1
1.305577552E0,-1.802447915E0,4.601529539E-1,-1.037744731E-1
1.307968750E0,-1.793895841E0,5.456740260E-1,-5.490528420E-2
1.310360729E0,-1.773126483E0,6.446340680E-1,-1.214475371E-2
1.312751823E0,-1.737696290E0,7.631418705E-1,4.405479878E-2
1.315142240E0,-1.685161948E0,8.889799714E-1,7.826322317E-2
1.317533438E0,-1.632627606E0,1.025813699E0,8.192840219E-2
1.319925365E0,-1.586201787E0,1.168756127E0,7.948495448E-2
1.322316563E0,-1.549549937E0,1.311698437E0,7.459802926E-2
1.324706875E0,-1.510454655E0,1.441201687E0,6.848938763E-2
1.327098125E0,-1.475024462E0,1.552379131E0,6.604593247E-2
1.329490052E0,-1.443259478E0,1.637900233E0,6.482420117E-2
1.331881250E0,-1.420046568E0,1.686769366E0,6.971111894E-2
1.334271563E0,-1.407829285E0,1.708760500E0,7.581976056E-2
1.336662813E0,-1.400498986E0,1.716090918E0,7.948495448E-2
1.339054740E0,-1.399277210E0,1.709982276E0,7.826322317E-2
1.341445833E0,-1.401720643E0,1.686769366E0,7.215456665E-2
1.343836250E0,-1.404164195E0,1.650117517E0,6.360246986E-2
1.346227448E0,-1.406607628E0,1.601248264E0,5.505036563E-2
1.348619427E0,-1.404164195E0,1.547492146E0,4.527653009E-2
1.351010521E0,-1.389503360E0,1.504731655E0,4.038961232E-2
1.353400938E0,-1.362625360E0,1.472966671E0,4.527653009E-2
1.355792135E0,-1.329638600E0,1.452197313E0,5.138517916E-2
1.358184063E0,-1.288099885E0,1.441201687E0,6.238073856E-2
1.360575260E0,-1.241674185E0,1.442423463E0,7.948495448E-2
1.362965573E0,-1.196470141E0,1.464414597E0,9.658916295E-2
1.365356823E0,-1.146379232E0,1.509618640E0,1.100281775E-1
1.367748750E0,-1.095066547E0,1.569483280E0,1.222454756E-1
1.370139948E0,-1.048640847E0,1.642787099E0,1.344627738E-1
1.372530260E0,-1.020541072E0,1.703873515E0,1.320193112E-1
1.374921510E0,-1.007102132E0,1.755186200E0,1.149151027E-1
1.377313438E0,-9.912195802E-1,1.808942318E0,9.658916295E-2
1.379704531E0,-9.680067301E-1,1.873693943E0,6.848938763E-2
1.382094948E0,-9.374635220E-1,1.932336926E0,3.794615716E-2
1.384486146E0,-9.203592539E-1,1.970210552E0,1.228983700E-2
1.386878125E0,-9.252461791E-1,1.981206179E0,-4.814377055E-3
1.389269219E0,-9.240244627E-1,1.992201686E0,-3.657934442E-2
1.391659635E0,-9.093637466E-1,1.989758253E0,-7.689641416E-2
1.394050833E0,-8.885943294E-1,1.982427835E0,-1.025527418E-1
1.396442760E0,-8.775987625E-1,1.972654104E0,-1.208786815E-1
1.398833958E0,-8.763770461E-1,1.951884627E0,-1.355394274E-1
1.401224271E0,-8.873726130E-1,1.928671837E0,-1.502001882E-1
1.403615521E0,-9.093637466E-1,1.895685077E0,-1.673043966E-1
1.406007448E0,-9.386852384E-1,1.862698436E0,-1.856303364E-1
1.408398646E0,-9.606763721E-1,1.837042093E0,-2.039562762E-1
1.410788958E0,-9.594546556E-1,1.837042093E0,-2.173953056E-1
1.413180208E0,-9.264679551E-1,1.873693943E0,-2.259474099E-1
1.415572135E0,-8.751552701E-1,1.931115270E0,-2.344995141E-1
1.417963229E0,-8.104036450E-1,1.986093044E0,-2.503820062E-1
1.420353646E0,-7.480954528E-1,2.012970924E0,-2.699296772E-1
1.422744844E0,-6.906741261E-1,2.025188208E0,-2.906990647E-1
1.425136823E0,-6.320311427E-1,2.028853416E0,-3.090250194E-1
1.427527917E0,-5.746098757E-1,2.027631760E0,-3.187988400E-1
1.429918333E0,-5.135233998E-1,2.032518625E0,-3.212423027E-1
1.432309531E0,-4.561021626E-1,2.039849043E0,-3.224640489E-1
1.434701458E0,-3.974591494E-1,2.043514252E0,-3.249075115E-1
1.437092656E0,-3.412595987E-1,2.041070700E0,-3.297944069E-1
1.439482969E0,-2.838383019E-1,2.028853416E0,-3.346813321E-1
1.441874219E0,-2.313039154E-1,2.023966551E0,-3.346813321E-1
1.444266146E0,-1.848782003E-1,2.031296968E0,-3.249075115E-1
1.446657344E0,-1.494480520E-1,2.044735909E0,-3.175771236E-1
1.449047656E0,-1.299003810E-1,2.031296968E0,-3.236857653E-1
1.451438854E0,-1.201265529E-1,2.004418850E0,-3.432334363E-1
1.453830833E0,-1.213482842E-1,1.951884627E0,-3.701114953E-1
1.456221927E0,-1.286786497E-1,1.873693943E0,-3.982112706E-1
1.458612344E0,-1.421176791E-1,1.785729408E0,-4.263110459E-1
1.461003542E0,-1.567784250E-1,1.701430082E0,-4.458587170E-1
1.463395521E0,-1.628870815E-1,1.628126383E0,-4.592977464E-1
1.465786615E0,-1.616653502E-1,1.563374639E0,-4.715150297E-1
1.468177031E0,-1.616653502E-1,1.501066446E0,-4.800671339E-1
1.470568229E0,-1.592218876E-1,1.437536597E0,-4.861757755E-1
1.472960208E0,-1.592218876E-1,1.376450062E0,-4.922844172E-1
1.475351302E0,-1.531132311E-1,1.316585302E0,-4.971713424E-1
1.477741667E0,-1.396742165E-1,1.262829185E0,-4.996147752E-1
1.480132917E0,-1.250134706E-1,1.209073186E0,-5.008365512E-1
1.482524844E0,-1.018006131E-1,1.158982277E0,-5.020582676E-1
1.484916042E0,-7.614429295E-2,1.107669592E0,-4.996147752E-1
1.487306354E0,-4.804451019E-2,1.055135250E0,-4.935061634E-1
1.489697552E0,-1.627954468E-2,9.940487146E-1,-4.922844172E-1
1.492089531E0,2.159406804E-2,9.329622388E-1,-4.922844172E-1
1.494480625E0,5.824595317E-2,8.730974793E-1,-4.886192381E-1
1.496871042E0,9.978474677E-2,8.059023619E-1,-4.849540591E-1
1.499262240E0,1.413235515E-1,7.399289608E-1,-4.825105965E-1
1.501654219E0,1.816406250E-1,6.702904105E-1,-4.800671339E-1
1.504045313E0,2.195142359E-1,6.067605019E-1,-4.764019549E-1
1.506435729E0,2.598313093E-1,5.530043840E-1,-4.702933133E-1
1.508826927E0,2.977049053E-1,5.029134750E-1,-4.641846418E-1
1.511218854E0,3.306916058E-1,4.479356408E-1,-4.592977464E-1
1.513610052E0,3.600131273E-1,4.015099406E-1,-4.568542838E-1
1.516000365E0,3.844476938E-1,3.489755690E-1,-4.507456422E-1
1.518391615E0,4.076605737E-1,3.013281226E-1,-4.434152544E-1
1.520783542E0,4.235430360E-1,2.597893178E-1,-4.336414337E-1
1.523174740E0,4.357603490E-1,2.182505131E-1,-4.238675833E-1
1.525565052E0,4.467559159E-1,1.828203499E-1,-4.128720164E-1
1.527956250E0,4.491993487E-1,1.534988582E-1,-4.055416286E-1
1.530348229E0,4.491993487E-1,1.278425306E-1,-3.982112706E-1
1.532739323E0,4.491993487E-1,1.070731282E-1,-3.896591663E-1
1.535129740E0,4.491993487E-1,9.241238236E-2,-3.823287785E-1
1.537520938E0,4.467559159E-1,8.141681552E-2,-3.713332117E-1
1.539912917E0,4.430907071E-1,7.897335291E-2,-3.640028536E-1
1.542304010E0,4.357603490E-1,8.508200943E-2,-3.530072868E-1
1.544694427E0,4.272082448E-1,9.241238236E-2,-3.420117199E-1
1.547085625E0,4.198778570E-1,1.082948595E-1,-3.285726905E-1
1.549477552E0,4.076605737E-1,1.241773516E-1,-3.126901984E-1
1.551868750E0,3.966650069E-1,1.498336643E-1,-2.919208109E-1
1.554259063E0,3.856694400E-1,1.754899770E-1,-2.711513937E-1
1.556650313E0,3.722304106E-1,2.048114836E-1,-2.503820062E-1
1.559042240E0,3.551262021E-1,2.280243486E-1,-2.283908725E-1
1.561433438E0,3.392437100E-1,2.561241090E-1,-2.088432014E-1
1.563823750E0,3.196960390E-1,2.830021679E-1,-1.880737990E-1
1.566214948E0,2.964831889E-1,3.074367642E-1,-1.697478592E-1
1.568606927E0,2.720485926E-1,3.306496143E-1,-1.502001882E-1
1.570998021E0,2.500574887E-1,3.550842106E-1,-1.306525171E-1
1.573388438E0,2.244011611E-1,3.758535981E-1,-1.074396521E-1
1.575779635E0,1.987448484E-1,4.027316570E-1,-8.300507069E-2
1.578171615E0,1.755319834E-1,4.283879697E-1,-5.857047066E-2
1.580562708E0,1.498756558E-1,4.552660286E-1,-3.291415423E-2
1.582953073E0,1.266628057E-1,4.797006249E-1,-4.814377055E-3
1.585344323E0,1.034499332E-1,5.065786242E-1,2.939404547E-2
1.587736250E0,8.145880699E-2,5.334567428E-1,5.871555209E-2
1.590127448E0,5.946768075E-2,5.591130257E-1,8.437186480E-2
1.592517760E0,3.992000967E-2,5.872128010E-1,1.124716401E-1
1.594909010E0,2.281579748E-2,6.140908599E-1,1.417931467E-1
1.597300938E0,8.155044168E-3,6.421906352E-1,1.650060117E-1
1.599692031E0,-4.062249791E-3,6.678469181E-1,1.943275183E-1
1.602082448E0,-1.383608580E-2,6.935032606E-1,2.199838459E-1
1.604473646E0,-1.750127412E-2,7.179378271E-1,2.493053377E-1
1.606865625E0,-1.750127412E-2,7.423724532E-1,2.798485756E-1
1.609256719E0,-1.627954468E-2,7.643635869E-1,3.067266345E-1
1.611647135E0,-1.139262691E-2,7.802460790E-1,3.336046636E-1
1.614038333E0,-5.283979233E-3,7.936850786E-1,3.617044389E-1
1.616430260E0,4.489855841E-3,8.022372127E-1,3.873607516E-1
1.618821458E0,1.792887971E-2,8.046806455E-1,4.130170941E-1
1.621211771E0,3.503309190E-2,7.997937202E-1,4.362299442E-1
1.623603021E0,5.824595317E-2,7.997937202E-1,4.582210779E-1
1.625994948E0,8.756745607E-2,8.071240783E-1,4.789904952E-1
1.628386146E0,1.242193356E-1,8.156762123E-1,4.997598529E-1
1.630776458E0,1.669798791E-1,8.278934956E-1,5.144206285E-1
1.633167708E0,2.158490568E-1,8.474411964E-1,5.303031206E-1
1.635559635E0,2.696051300E-1,8.669888377E-1,5.437421203E-1
1.637950729E0,3.245829642E-1,8.853147626E-1,5.559594035E-1
1.640341146E0,3.807825148E-1,9.024189711E-1,5.693984628E-1
1.642732344E0,4.345386028E-1,9.146363139E-1,5.791723132E-1
1.645124323E0,4.846295118E-1,9.195232391E-1,5.877243876E-1
1.647515417E0,5.273901224E-1,9.170797467E-1,5.950547457E-1
1.649905833E0,5.689288974E-1,9.060841799E-1,5.999416709E-1
1.652297031E0,6.006938815E-1,8.865365386E-1,5.999416709E-1
1.654688958E0,6.239067316E-1,8.608801961E-1,5.974982381E-1
1.657080156E0,6.422326565E-1,8.327804208E-1,5.877243876E-1
1.659470469E0,6.532282233E-1,7.973502874E-1,5.742853880E-1
1.661861719E0,6.568934321E-1,7.545897365E-1,5.486290455E-1
1.664253646E0,6.556717157E-1,7.057205439E-1,5.119771957E-1
1.666644740E0,6.422326565E-1,6.531862020E-1,4.679949284E-1
1.669035156E0,6.239067316E-1,5.957649350E-1,4.166822731E-1
1.671426406E0,5.994721651E-1,5.407871008E-1,3.665913641E-1
1.673818333E0,5.725941062E-1,4.809223413E-1,3.116135299E-1
1.676209427E0,5.408291221E-1,4.210576117E-1,2.566357255E-1
1.678599844E0,5.078424215E-1,3.575276732E-1,1.955492496E-1
1.680991042E0,4.650818408E-1,2.878890932E-1,1.307975799E-1
1.683382969E0,4.137692153E-1,2.121418715E-1,5.871555209E-2
1.685774167E0,3.539044559E-1,1.315077245E-1,-9.701294824E-3
1.688164531E0,2.854876220E-1,4.720838740E-2,-7.445295155E-2
1.690555729E0,2.097404003E-1,-4.808650911E-2,-1.318742484E-1
1.692947656E0,1.229976043E-1,-1.507117748E-1,-1.831868887E-1
1.695338854E0,3.014617413E-2,-2.692195475E-1,-2.320560664E-1
1.697729167E0,-6.392699480E-2,-3.901707530E-1,-2.760383189E-1
1.700120417E0,-1.567784250E-1,-5.086784959E-1,-3.163554072E-1
1.702512344E0,-2.435212135E-1,-6.088603139E-1,-3.517855406E-1
1.704903438E0,-3.204901814E-1,-6.931596398E-1,-3.896591663E-1
1.707293854E0,-3.876852989E-1,-7.603547573E-1,-4.250892997E-1
1.709685052E0,-4.487717748E-1,-8.128891587E-1,-4.605194628E-1
1.712077031E0,-4.964192212E-1,-8.495410085E-1,-4.996147752E-1
1.714468125E0,-5.367362499E-1,-8.776407838E-1,-5.313797593E-1
1.716858542E0,-5.660577416E-1,-8.996319175E-1,-5.570361018E-1
1.719249740E0,-5.929358006E-1,-9.069623351E-1,-5.778055191E-1
1.721641667E0,-6.137052178E-1,-8.935232759E-1,-5.912445188E-1
1.724032865E0,-6.271442175E-1,-8.556496501E-1,-5.997966528E-1
1.726423177E0,-6.332528591E-1,-7.884545326E-1,-5.985748768E-1
1.728814427E0,-6.405832171E-1,-6.907162070E-1,-5.961314440E-1
1.731206354E0,-6.466919184E-1,-5.648780465E-1,-5.936879516E-1
1.733597552E0,-6.528005600E-1,-4.121618867E-1,-5.839141607E-1
1.735987865E0,-6.564657092E-1,-2.423414886E-1,-5.729185939E-1
1.738379115E0,-6.576874256E-1,-5.908207968E-2,-5.582578182E-1
1.740771042E0,-6.552439928E-1,1.290642619E-1,-5.435970426E-1
1.743162135E0,-6.528005600E-1,3.111019433E-1,-5.252711177E-1
1.745552552E0,-6.491353512E-1,4.809223413E-1,-5.093886256E-1
1.747943750E0,-6.442484260E-1,6.116473675E-1,-4.910627007E-1
1.750335729E0,-6.405832171E-1,7.069422603E-1,-4.715150297E-1
1.752726823E0,-6.381397843E-1,7.631418705E-1,-4.470804334E-1
1.755117240E0,-6.344745755E-1,7.826895118E-1,-4.214241207E-1
1.757508438E0,-6.308094263E-1,7.851329446E-1,-3.933243454E-1
1.759900365E0,-6.247007847E-1,7.704722285E-1,-3.640028536E-1
1.762291563E0,-6.173703671E-1,7.435941696E-1,-3.310161531E-1
1.764681875E0,-6.027096510E-1,7.240465283E-1,-3.029163778E-1
1.767073125E0,-5.831619501E-1,7.020553946E-1,-2.711513937E-1
1.769465052E0,-5.575056672E-1,6.776207685E-1,-2.393864393E-1
1.771856250E0,-5.245189667E-1,6.482992768E-1,-2.063997388E-1
1.774246563E0,-4.890888631E-1,6.201995015E-1,-1.770782322E-1
1.776637813E0,-4.475500584E-1,5.945431590E-1,-1.428698152E-1
1.779029740E0,-4.060112536E-1,5.701085925E-1,-1.062179208E-1
1.781420833E0,-3.608072698E-1,5.468957424E-1,-6.834430993E-2
1.783811250E0,-3.192684650E-1,5.200176835E-1,-3.169242665E-2
1.786202448E0,-2.765079141E-1,4.955830872E-1,1.294270158E-3
1.788594427E0,-2.349691093E-1,4.662615955E-1,3.428096324E-2
1.790985521E0,-1.970954984E-1,4.369400740E-1,6.848938763E-2
1.793375885E0,-1.604436189E-1,4.100620449E-1,9.903261065E-2
1.795767135E0,-1.286786497E-1,3.807405233E-1,1.307975799E-1
1.798159063E0,-9.813541919E-2,3.477538228E-1,1.601190865E-1
1.800550260E0,-6.881391257E-2,3.123236895E-1,1.882188618E-1
1.802940573E0,-4.071413353E-2,2.756718099E-1,2.138751894E-1
1.805331823E0,-1.017089747E-2,2.426850945E-1,2.370880544E-1
1.807723750E0,1.792887971E-2,2.109201401E-1,2.615226209E-1
1.810114844E0,4.725038633E-2,1.852638125E-1,2.847355008E-1
1.812505260E0,7.779362053E-2,1.718247980E-1,3.030614257E-1
1.814896458E0,1.071151271E-1,1.608292311E-1,3.189439178E-1
1.817288438E0,1.388801038E-1,1.522771269E-1,3.384915888E-1
1.819679531E0,1.669798791E-1,1.498336643E-1,3.543740809E-1
1.822069948E0,1.938579232E-1,1.461684704E-1,3.665913641E-1
1.824461146E0,2.207359672E-1,1.339511871E-1,3.788086474E-1
1.826853073E0,2.463922948E-1,1.205121577E-1,3.910259604E-1
1.829244271E0,2.708268762E-1,1.046296805E-1,4.044649899E-1
1.831634583E0,2.977049053E-1,8.996891975E-2,4.191257358E-1
1.834025833E0,3.245829642E-1,8.141681552E-2,4.337864816E-1
1.836417760E0,3.526827395E-1,7.164297998E-2,4.435603321E-1
1.838808958E0,3.795607686E-1,6.431260705E-2,4.484472275E-1
1.841199271E0,4.064388275E-1,5.209530517E-2,4.521124363E-1
1.843590521E0,4.357603490E-1,3.987801448E-2,4.521124363E-1
1.845982448E0,4.638601243E-1,2.399552986E-2,4.521124363E-1
1.848373542E0,4.944033623E-1,6.891317666E-3,4.594427943E-1
1.850763958E0,5.286118388E-1,-6.547704339E-3,4.753252864E-1
1.853155156E0,5.664854646E-1,-1.754327118E-2,4.912077785E-1
1.855547135E0,6.104677320E-1,-2.487364411E-2,5.070902705E-1
1.857938229E0,6.630020738E-1,-3.220402449E-2,5.205292702E-1
1.860328646E0,7.240885496E-1,-4.564304650E-2,5.303031206E-1
1.862719844E0,7.863967419E-1,-5.908207968E-2,5.327465534E-1
1.865111771E0,8.548135757E-1,-7.252109051E-2,5.303031206E-1
1.867502969E0,9.207869768E-1,-8.962531388E-2,5.241944790E-1
1.869893281E0,9.830951691E-1,-1.103947163E-1,5.107554197E-1
1.872284531E0,1.045403361E0,-1.226119995E-1,4.936512113E-1
1.874676458E0,1.101602912E0,-1.397162080E-1,4.753252864E-1
1.877067552E0,1.149250388E0,-1.543769687E-1,4.569993317E-1
1.879457969E0,1.192010880E0,-1.604856104E-1,4.337864816E-1
1.881849219E0,1.224997640E0,-1.507117748E-1,4.105736315E-1
1.884241146E0,1.250653982E0,-1.311641037E-1,3.873607516E-1
1.886632240E0,1.266536474E0,-9.451222420E-2,3.580392599E-1
1.889022656E0,1.275088549E0,-4.442131519E-2,3.274960220E-1
1.891413854E0,1.277531981E0,1.055650413E-2,2.969527841E-1
1.893805781E0,1.272645116E0,6.919951737E-2,2.651878297E-1
1.896196979E0,1.259206057E0,1.266207993E-1,2.334228456E-1
1.898587292E0,1.243323565E0,1.779334396E-1,2.004361600E-1
1.900978542E0,1.223775864E0,2.219156921E-1,1.698929220E-1
1.903370469E0,1.199341297E0,2.597893178E-1,1.405714154E-1
1.905761667E0,1.172463298E0,2.878890932E-1,1.149151027E-1
1.908151979E0,1.140698314E0,3.086584806E-1,1.014760733E-1
1.910543229E0,1.102824688E0,3.220975101E-1,9.292396903E-2
1.912935156E0,1.062507629E0,3.184323311E-1,8.803705871E-2
1.915326250E0,1.017303586E0,3.001063764E-1,8.559359610E-2
1.917716667E0,9.733213782E-1,2.707848847E-1,9.170223773E-2
1.920107865E0,9.415563941E-1,2.536806464E-1,1.039195359E-1
1.922499844E0,9.268956184E-1,2.573458552E-1,1.161368340E-1
1.924890938E0,9.073479772E-1,2.341329902E-1,1.246889383E-1
1.927281354E0,8.706960678E-1,1.718247980E-1,1.430148780E-1
1.929672552E0,8.181617260E-1,7.897335291E-2,1.674494743E-1
1.932064479E0,7.595186830E-1,-3.098229319E-2,1.992144287E-1
1.934455677E0,6.984322071E-1,-1.409379393E-1,2.322011292E-1
1.936845990E0,6.410109401E-1,-2.496718764E-1,2.700747252E-1
1.939237240E0,5.921417475E-1,-3.486319482E-1,3.067266345E-1
1.941629167E0,5.506029725E-1,-4.341530204E-1,3.470436931E-1
1.944020260E0,5.188379884E-1,-5.013481379E-1,3.836955726E-1
1.946410677E0,4.968467951E-1,-5.489955544E-1,4.203474522E-1
1.948801875E0,4.797425866E-1,-5.844257474E-1,4.435603321E-1
1.951193854E0,4.663035870E-1,-6.039733887E-1,4.631080031E-1
1.953584948E0,4.540862739E-1,-6.222993731E-1,4.814339280E-1
1.955975365E0,4.430907071E-1,-6.357383728E-1,4.997598529E-1
1.958366563E0,4.296516776E-1,-6.430687308E-1,5.217509866E-1
1.960758542E0,4.137692153E-1,-6.589512229E-1,5.437421203E-1
1.963149635E0,3.954432607E-1,-6.711685061E-1,5.584028959E-1
1.965540000E0,3.771173358E-1,-6.797206402E-1,5.718418956E-1
1.967931250E0,3.587913811E-1,-6.711685061E-1,5.828374624E-1
1.970323177E0,3.465740979E-1,-6.467339396E-1,5.950547457E-1
1.972714375E0,3.368002474E-1,-6.271862388E-1,6.036068797E-1
1.975104688E0,3.196960390E-1,-6.235210896E-1,6.109372377E-1
1.977495938E0,2.928179801E-1,-6.357383728E-1,6.255980134E-1
1.979887865E0,2.586095631E-1,-6.687250733E-1,6.329283714E-1
1.982278958E0,2.231794298E-1,-7.053769231E-1,6.268197298E-1
1.984669375E0,1.853058189E-1,-7.383636236E-1,6.109372377E-1
1.987060573E0,1.474322081E-1,-7.689068913E-1,5.889461040E-1
1.989452552E0,1.058933958E-1,-7.994500995E-1,5.608463287E-1
1.991843646E0,6.191113964E-2,-8.312150836E-1,5.315248370E-1
1.994234063E0,1.792887971E-2,-8.556496501E-1,5.022033453E-1
1.996625260E0,-1.627954468E-2,-8.776407838E-1,4.728818536E-1
1.999017188E0,-4.071413353E-2,-8.947449923E-1,4.435603321E-1
2.001408385E0,-5.537488684E-2,-9.020754099E-1,4.154605567E-1
2.003798698E0,-5.904007331E-2,-8.984102011E-1,3.898042142E-1
2.006189948E0,-5.293142796E-2,-8.947449923E-1,3.702565432E-1
2.008581875E0,-3.704894707E-2,-8.849712014E-1,3.568175435E-1
2.010972969E0,-1.627954468E-2,-8.849712014E-1,3.531523347E-1
2.013363385E0,2.046397189E-3,-8.898580670E-1,3.494871557E-1
2.015754583E0,1.915060915E-2,-9.069623351E-1,3.470436931E-1
2.018146563E0,4.114173725E-2,-9.265099764E-1,3.482654095E-1
2.020537656E0,6.191113964E-2,-9.448359013E-1,3.446002305E-1
2.022928073E0,8.023707569E-2,-9.631618857E-1,3.372698724E-1
2.025319271E0,1.010064781E-1,-9.790443778E-1,3.299394846E-1
2.027711198E0,1.181106940E-1,-9.900398850E-1,3.226090968E-1
2.030102396E0,1.315497160E-1,-1.005922318E0,3.213873804E-1
2.032492708E0,1.364366412E-1,-1.025470018E0,3.238308430E-1
2.034883958E0,1.303279847E-1,-1.056013227E0,3.238308430E-1
2.037275885E0,1.156672314E-1,-1.096330285E0,3.274960220E-1
2.039667083E0,8.268053830E-2,-1.151308179E0,3.238308430E-1
2.042057396E0,3.625481948E-2,-1.214838028E0,3.262743056E-1
2.044448594E0,-1.750127412E-2,-1.275924563E0,3.336046636E-1
2.046840573E0,-7.858774811E-2,-1.327237129E0,3.421567678E-1
2.049231667E0,-1.421176791E-1,-1.365110755E0,3.470436931E-1
2.051622083E0,-2.056476027E-1,-1.396875739E0,3.531523347E-1
2.054013281E0,-2.679558098E-1,-1.420088649E0,3.629261851E-1
2.056405260E0,-3.314857483E-1,-1.438414574E0,3.751434684E-1
2.058796354E0,-3.986808658E-1,-1.457962275E0,3.812521100E-1
2.061186771E0,-4.622108042E-1,-1.475066423E0,3.873607516E-1
2.063577969E0,-5.220754743E-1,-1.487283707E0,3.922476768E-1
2.065969896E0,-5.794967413E-1,-1.508053184E0,3.934694231E-1
2.068361094E0,-6.332528591E-1,-1.528822541E0,3.995780647E-1
2.070751406E0,-6.809003353E-1,-1.549591899E0,4.056867063E-1
2.073142656E0,-7.248826027E-1,-1.574026465E0,4.105736315E-1
2.075534583E0,-7.603127360E-1,-1.604569793E0,4.117953479E-1
2.077925677E0,-7.798603773E-1,-1.629004359E0,4.056867063E-1
2.080316094E0,-7.835255861E-1,-1.648552060E0,4.007997811E-1
2.082707292E0,-7.737517357E-1,-1.660769343E0,3.898042142E-1
2.085099271E0,-7.456519604E-1,-1.672986627E0,3.812521100E-1
2.087490365E0,-7.004479766E-1,-1.674208283E0,3.812521100E-1
2.089880781E0,-6.369180679E-1,-1.672986627E0,3.849173188E-1
2.092271979E0,-5.562838912E-1,-1.670543194E0,3.934694231E-1
2.094663906E0,-4.634325206E-1,-1.674208283E0,4.044649899E-1
2.097055104E0,-3.571420610E-1,-1.680316925E0,4.215691984E-1
2.099445417E0,-2.447429448E-1,-1.697421193E0,4.411168694E-1
2.101836667E0,-1.299003810E-1,-1.723077536E0,4.606645405E-1
2.104228594E0,-1.383608580E-2,-1.736516595E0,4.838774204E-1
2.106619792E0,9.734129161E-2,-1.748733878E0,5.046467781E-1
2.109010104E0,1.914144605E-1,-1.754842520E0,5.180858374E-1
2.111401354E0,2.647182047E-1,-1.751177311E0,5.266379118E-1
2.113793281E0,3.233612180E-1,-1.741403461E0,5.315248370E-1
2.116184375E0,3.649000227E-1,-1.730407834E0,5.315248370E-1
2.118574792E0,3.881129026E-1,-1.727964401E0,5.278596282E-1
2.120965990E0,3.978867233E-1,-1.731629610E0,5.193075538E-1
2.123357969E0,3.978867233E-1,-1.734073043E0,5.107554197E-1
2.125749063E0,3.929997981E-1,-1.738960028E0,5.034250617E-1
2.128139427E0,3.844476938E-1,-1.741403461E0,4.985381365E-1
2.130530677E0,3.746738732E-1,-1.731629610E0,4.985381365E-1
2.132922604E0,3.636783063E-1,-1.724299192E0,4.948729277E-1
2.135313802E0,3.526827395E-1,-1.719412327E0,4.887642860E-1
2.137704115E0,3.416871727E-1,-1.715747118E0,4.814339280E-1
2.140095365E0,3.319133222E-1,-1.705973268E0,4.716600776E-1
2.142487292E0,3.294698894E-1,-1.685203910E0,4.643297195E-1
2.144878385E0,3.343567848E-1,-1.655882359E0,4.606645405E-1
2.147268802E0,3.404654264E-1,-1.625339150E0,4.582210779E-1
2.149660000E0,3.502392769E-1,-1.592352509E0,4.569993317E-1
2.152051979E0,3.673434854E-1,-1.554478884E0,4.606645405E-1
2.154443073E0,3.868911564E-1,-1.515383482E0,4.631080031E-1
2.156833490E0,4.088822901E-1,-1.477509856E0,4.618862569E-1
2.159224688E0,4.345386028E-1,-1.438414574E0,4.618862569E-1
2.161616615E0,4.626383781E-1,-1.393210530E0,4.618862569E-1
2.164007813E0,4.944033623E-1,-1.346784830E0,4.667731822E-1
2.166398125E0,5.225031972E-1,-1.307689548E0,4.692166448E-1
2.168789375E0,5.493812561E-1,-1.272259355E0,4.704383612E-1
2.171181302E0,5.750375390E-1,-1.242937803E0,4.704383612E-1
2.173572396E0,6.006938815E-1,-1.213616371E0,4.704383612E-1
2.175962813E0,6.214632988E-1,-1.183073044E0,4.716600776E-1
2.178354010E0,6.410109401E-1,-1.157416821E0,4.692166448E-1
2.180745990E0,6.605586410E-1,-1.130538702E0,4.704383612E-1
2.183137083E0,6.825497150E-1,-1.097552061E0,4.704383612E-1
2.185527500E0,7.033191323E-1,-1.064565301E0,4.692166448E-1
2.187918698E0,7.253102660E-1,-1.030356884E0,4.692166448E-1
2.190310677E0,7.497448921E-1,-9.949268103E-1,4.716600776E-1
2.192701771E0,7.741794586E-1,-9.521662593E-1,4.716600776E-1
2.195092135E0,7.961705923E-1,-9.106274843E-1,4.741035700E-1
2.197483385E0,8.218268752E-1,-8.690887094E-1,4.753252864E-1
2.199875313E0,8.450397849E-1,-8.287716508E-1,4.741035700E-1
2.202266510E0,8.706960678E-1,-7.884545326E-1,4.716600776E-1
2.204656823E0,8.951306939E-1,-7.518026829E-1,4.679949284E-1
2.207048021E0,9.183435440E-1,-7.188159823E-1,4.667731822E-1
2.209440000E0,9.415563941E-1,-6.821640730E-1,4.618862569E-1
2.211831094E0,9.611040354E-1,-6.552860141E-1,4.569993317E-1
2.214221510E0,9.843169451E-1,-6.308514476E-1,4.521124363E-1
2.216612708E0,1.006308079E0,-6.003082395E-1,4.472255111E-1
2.219004688E0,1.029520869E0,-5.722084641E-1,4.423385859E-1
2.221395781E0,1.053955436E0,-5.453304052E-1,4.386734068E-1
2.223786198E0,1.079611778E0,-5.221175551E-1,4.325647652E-1
2.226177396E0,1.101602912E0,-5.001264215E-1,4.227909148E-1
2.228569323E0,1.126037478E0,-4.818004370E-1,4.179039896E-1
2.230960521E0,1.148028612E0,-4.695831537E-1,4.130170941E-1
2.233350833E0,1.171241522E0,-4.585875869E-1,4.032432437E-1
2.235742083E0,1.192010880E0,-4.488137662E-1,3.934694231E-1
2.238134010E0,1.211558580E0,-4.475920200E-1,3.885824978E-1
2.240525104E0,1.224997640E0,-4.488137662E-1,3.775869310E-1
2.242915521E0,1.238436699E0,-4.524789453E-1,3.702565432E-1
2.245306719E0,1.250653982E0,-4.585875869E-1,3.617044389E-1
2.247698698E0,1.262871265E0,-4.695831537E-1,3.568175435E-1
2.250089792E0,1.272645116E0,-4.830222130E-1,3.519306183E-1
2.252480208E0,1.277531981E0,-4.940177798E-1,3.458219767E-1
2.254871406E0,1.278753757E0,-5.086784959E-1,3.384915888E-1
2.257263333E0,1.278753757E0,-5.233392715E-1,3.299394846E-1
2.259654531E0,1.271423340E0,-5.367782712E-1,3.262743056E-1
2.262044844E0,1.265314698E0,-5.477738380E-1,3.213873804E-1
2.264436094E0,1.250653982E0,-5.612128973E-1,3.152787387E-1
2.266828021E0,1.232327938E0,-5.783171058E-1,3.079483509E-1
2.269219115E0,1.210336804E0,-5.893126726E-1,3.018397093E-1
2.271609531E0,1.185902238E0,-6.064168811E-1,2.945093215E-1
2.274000729E0,1.159024239E0,-6.186341643E-1,2.859572172E-1
2.276392708E0,1.129702687E0,-6.308514476E-1,2.786268592E-1
2.278783802E0,1.095494270E0,-6.455122232E-1,2.725181878E-1
2.281174219E0,1.057620645E0,-6.613947153E-1,2.651878297E-1
2.283565417E0,1.017303586E0,-6.748337150E-1,2.590791881E-1
2.285957344E0,9.769865274E-1,-6.882727146E-1,2.505270839E-1
2.288348542E0,9.342260361E-1,-6.980465651E-1,2.444184124E-1
2.290738854E0,8.902437687E-1,-7.163724899E-1,2.370880544E-1
2.293130104E0,8.413745761E-1,-7.371419072E-1,2.309793830E-1
2.295522031E0,7.949488759E-1,-7.554678321E-1,2.236490250E-1
2.297913229E0,7.460796833E-1,-7.799024582E-1,2.199838459E-1
2.300303542E0,6.972104907E-1,-8.043370247E-1,2.150969207E-1
2.302694792E0,6.495630741E-1,-8.312150836E-1,2.114317268E-1
2.305086719E0,6.031373143E-1,-8.556496501E-1,2.102099955E-1
2.307477813E0,5.579333305E-1,-8.800842762E-1,2.102099955E-1
2.309868229E0,5.151728392E-1,-9.032971263E-1,2.065448165E-1
2.312259427E0,4.760774076E-1,-9.265099764E-1,2.016578913E-1
2.314651406E0,4.382038116E-1,-9.472793937E-1,1.967709661E-1
2.317042500E0,4.027736485E-1,-9.582749009E-1,1.906623244E-1
2.319432917E0,3.771173358E-1,-9.521662593E-1,1.821102202E-1
2.321824115E0,3.490175605E-1,-9.570532441E-1,1.686711907E-1
2.324216042E0,3.160308599E-1,-9.656053185E-1,1.503452510E-1
2.326607240E0,2.830441594E-1,-9.729357362E-1,1.320193112E-1
2.328997552E0,2.476140112E-1,-9.766008258E-1,1.075847298E-1
2.331388802E0,2.097404003E-1,-9.827095866E-1,8.559359610E-2
2.333780729E0,1.694233268E-1,-9.912616611E-1,5.871555209E-2
2.336171823E0,1.254410744E-1,-1.002257109E0,3.428096324E-2
2.338562240E0,7.901535183E-2,-1.014474392E0,4.959456623E-3
2.340953438E0,3.258963302E-2,-1.024248242E0,-2.069685981E-2
2.343345417E0,-1.627954468E-2,-1.037687302E0,-4.879663512E-2
2.345736510E0,-6.392699480E-2,-1.054791451E0,-7.933987677E-2
2.348126927E0,-1.115744486E-1,-1.067008853E0,-1.086613834E-1
2.350518125E0,-1.580001563E-1,-1.080447793E0,-1.355394274E-1
2.352910052E0,-1.958737671E-1,-1.084113002E0,-1.636392176E-1
2.355301250E0,-2.325256467E-1,-1.080447793E0,-1.905172616E-1
2.357691563E0,-2.691775560E-1,-1.079226136E0,-2.186170369E-1
2.360082813E0,-3.009425104E-1,-1.079226136E0,-2.442733347E-1
2.362474740E0,-3.314857483E-1,-1.079226136E0,-2.687079310E-1
2.364865833E0,-3.620289862E-1,-1.078004360E0,-2.919208109E-1
2.367256250E0,-3.913505077E-1,-1.073117495E0,-3.151336610E-1
2.369647448E0,-4.194502831E-1,-1.068230510E0,-3.395682573E-1
2.372039427E0,-4.451065958E-1,-1.049904585E0,-3.603376448E-1
2.374430521E0,-4.719846249E-1,-1.038909078E0,-3.847722411E-1
2.376820938E0,-5.013061166E-1,-1.025470018E0,-4.092068374E-1
2.379212135E0,-5.306276083E-1,-1.009587526E0,-4.336414337E-1
2.381604063E0,-5.599491000E-1,-9.888182282E-1,-4.605194628E-1
2.383995260E0,-5.892705917E-1,-9.558314681E-1,-4.825105965E-1
2.386385573E0,-6.161486506E-1,-9.167361259E-1,-5.057234168E-1
2.388776823E0,-6.479136348E-1,-8.849712014E-1,-5.277145505E-1
2.391168750E0,-6.833437681E-1,-8.446540833E-1,-5.509274602E-1
2.393559948E0,-7.138870358E-1,-7.872328162E-1,-5.704751015E-1
2.395950260E0,-7.432085276E-1,-7.249246240E-1,-5.875793099E-1
2.398341458E0,-7.700865865E-1,-6.626164317E-1,-6.010183692E-1
2.400733438E0,-7.994080782E-1,-6.039733887E-1,-6.181225777E-1
2.403124531E0,-8.287295699E-1,-5.538824797E-1,-6.327832937E-1
2.405514948E0,-8.617162704E-1,-5.111219883E-1,-6.523309946E-1
2.407906146E0,-8.983681798E-1,-4.781352878E-1,-6.718786359E-1
2.410298125E0,-9.362417459E-1,-4.524789453E-1,-6.902046204E-1
2.412689219E0,-9.753370881E-1,-4.280443788E-1,-7.097522616E-1
2.415079583E0,-1.013210773E0,-4.036097825E-1,-7.256347537E-1
2.417470833E0,-1.053527832E0,-3.791751862E-1,-7.427389622E-1
2.419862760E0,-1.092623115E0,-3.608492315E-1,-7.598431706E-1
2.422253958E0,-1.128053308E0,-3.400798440E-1,-7.745039463E-1
2.424644271E0,-1.165926933E0,-3.193104565E-1,-7.940515876E-1
2.427035469E0,-1.203800559E0,-2.973193228E-1,-8.099340796E-1
2.429427448E0,-1.238008976E0,-2.789933681E-1,-8.258165717E-1
2.431818542E0,-1.270995617E0,-2.631108761E-1,-8.404773474E-1
2.434208958E0,-1.305204034E0,-2.460066676E-1,-8.551380634E-1
2.436600156E0,-1.343077660E0,-2.325676680E-1,-8.685771227E-1
2.438992135E0,-1.377286077E0,-2.264589965E-1,-8.807944059E-1
2.441383229E0,-1.415159702E0,-2.215721011E-1,-8.844595551E-1
2.443773594E0,-1.448146462E0,-2.240155339E-1,-8.771291971E-1
2.446164844E0,-1.484798312E0,-2.227938175E-1,-8.588032722E-1
2.448556771E0,-1.516563296E0,-2.289024591E-1,-8.307034969E-1
2.450947969E0,-1.550771713E0,-2.325676680E-1,-7.928298712E-1
2.453338281E0,-1.584980130E0,-2.215721011E-1,-7.415172458E-1
2.455729531E0,-1.622853756E0,-2.032461464E-1,-6.804307699E-1
2.458121458E0,-1.659505606E0,-1.678159982E-1,-6.205660105E-1
2.460512552E0,-1.702266097E0,-1.201685369E-1,-5.582578182E-1
2.462902969E0,-1.741361499E0,-4.930824041E-2,-4.922844172E-1
2.465294167E0,-1.778013349E0,4.354320094E-2,-4.275327623E-1
2.467686146E0,-1.808556557E0,1.522771269E-1,-3.603376448E-1
2.470077240E0,-1.837878108E0,2.695631683E-1,-2.906990647E-1
2.472467656E0,-1.862312675E0,3.966230154E-1,-2.271691412E-1
2.474858854E0,-1.879416943E0,5.224611759E-1,-1.685261279E-1
2.477250781E0,-1.892855883E0,6.531862020E-1,-1.196569502E-1
2.479641979E0,-1.898964524E0,7.863547206E-1,-8.300507069E-2
2.482032292E0,-1.906294942E0,9.256318808E-1,-5.490528420E-2
2.484423542E0,-1.911181808E0,1.075904608E0,-3.047069535E-2
2.486815469E0,-1.909960151E0,1.229842544E0,-7.257835940E-3
2.489206563E0,-1.906294942E0,1.387445688E0,7.402919233E-3
2.491596979E0,-1.895299435E0,1.537718415E0,2.084194124E-2
2.493988177E0,-1.884303808E0,1.678217292E0,3.550269455E-2
2.496380156E0,-1.869643092E0,1.799168468E0,4.405479878E-2
2.498771250E0,-1.857425809E0,1.900572062E0,5.138517916E-2
2.501161667E0,-1.841543317E0,1.978762746E0,4.894171655E-2
2.503552865E0,-1.823217392E0,2.042292356E0,4.405479878E-2
2.505944792E0,-1.801226258E0,2.083831310E0,3.061577678E-2
2.508335990E0,-1.776791573E0,2.108265877E0,1.351156458E-2
2.510726302E0,-1.747470140E0,2.113152742E0,-2.370918170E-3
2.513117552E0,-1.714483380E0,2.092383385E0,-1.336648315E-2
2.515509479E0,-1.675388098E0,2.054509878E0,-2.069685981E-2
2.517900677E0,-1.635071039E0,1.993423462E0,-2.191858925E-2
2.520290990E0,-1.589866996E0,1.921341419E0,-1.458821259E-2
2.522682188E0,-1.537332654E0,1.840707302E0,3.737729043E-3
2.525074167E0,-1.478689671E0,1.760073185E0,2.450712770E-2
2.527465260E0,-1.418824911E0,1.680660725E0,5.138517916E-2
2.529855677E0,-1.361403584E0,1.598804832E0,7.826322317E-2
2.532246875E0,-1.299095392E0,1.521835923E0,1.026978046E-1
2.534638854E0,-1.239230633E0,1.460749388E0,1.222454756E-1
2.537029948E0,-1.183031082E0,1.404549837E0,1.381279528E-1
2.539420313E0,-1.129274964E0,1.355680704E0,1.466800719E-1
2.541811563E0,-1.079184055E0,1.315363646E0,1.515669823E-1
2.544203490E0,-1.027871490E0,1.288485527E0,1.527887136E-1
2.546594688E0,-9.790022969E-1,1.284820318E0,1.601190865E-1
2.548985000E0,-9.301331043E-1,1.294594169E0,1.674494743E-1
2.551376250E0,-8.824856877E-1,1.316585302E0,1.760015786E-1
2.553768177E0,-8.360599279E-1,1.350793719E0,1.796667576E-1
2.556159271E0,-7.871907949E-1,1.404549837E0,1.808884889E-1
2.558549688E0,-7.383216023E-1,1.469301462E0,1.760015786E-1
2.560940885E0,-6.931176186E-1,1.548713923E0,1.662277430E-1
2.563332865E0,-6.540222764E-1,1.644008875E0,1.564539075E-1
2.565723958E0,-6.185920835E-1,1.747855783E0,1.417931467E-1
2.568114375E0,-5.807185173E-1,1.863920093E0,1.283541322E-1
2.570505573E0,-5.465101004E-1,1.990980029E0,1.136933714E-1
2.572897500E0,-5.135233998E-1,2.114374638E0,9.903261065E-2
2.575288698E0,-4.951975048E-1,2.236547470E0,7.704149187E-2
2.577679010E0,-4.890888631E-1,2.333064079E0,4.894171655E-2
2.580070260E0,-5.061929822E-1,2.411254883E0,2.206367254E-2
2.582462188E0,-5.428448915E-1,2.477228165E0,7.253885269E-5
2.584853281E0,-6.088182926E-1,2.540758133E0,-1.214475371E-2
2.587243698E0,-6.918959022E-1,2.618948698E0,-3.535761312E-2
2.589634896E0,-7.529823780E-1,2.697139502E0,-7.445295155E-2
2.592026875E0,-8.067384362E-1,2.765556335E0,-1.245438606E-1
2.594417969E0,-8.592728376E-1,2.764334679E0,-1.880737990E-1
2.596808385E0,-9.105854630E-1,2.703248024E0,-2.540471852E-1
2.599199583E0,-9.631198049E-1,2.617727041E0,-3.163554072E-1
2.601591510E0,-1.004658580E0,2.523653984E0,-3.664462864E-1
2.603982708E0,-1.025428057E0,2.446684837E0,-4.067633748E-1
2.606373021E0,-1.032758355E0,2.375824690E0,-4.324196875E-1
2.608764271E0,-1.030314922E0,2.313516378E0,-4.397500753E-1
2.611156198E0,-1.032758355E0,2.265868902E0,-4.421935380E-1
2.613547292E0,-1.031536698E0,2.226773739E0,-4.385283291E-1
2.615937708E0,-1.021762848E0,2.193786860E0,-4.385283291E-1
2.618328906E0,-1.003436923E0,2.155913353E0,-4.458587170E-1
2.620720885E0,-9.777805805E-1,2.116817951E0,-4.580760002E-1
2.623111979E0,-9.509025216E-1,2.065505266E0,-4.764019549E-1
2.625502396E0,-9.130288959E-1,2.009305716E0,-4.935061634E-1
2.627893594E0,-8.519424200E-1,1.965323687E0,-5.020582676E-1
2.630285521E0,-7.590910196E-1,1.934780478E0,-4.947278500E-1
2.632676719E0,-6.552439928E-1,1.916454554E0,-4.849540591E-1
2.635067031E0,-5.660577416E-1,1.887133002E0,-4.800671339E-1
2.637458281E0,-4.988626540E-1,1.835820317E0,-4.825105965E-1
2.639850208E0,-4.438848495E-1,1.773512125E0,-4.886192381E-1
2.642241302E0,-3.889070451E-1,1.709982276E0,-4.947278500E-1
2.644631719E0,-3.351509273E-1,1.636678457E0,-4.971713424E-1
2.647022917E0,-2.765079141E-1,1.554822564E0,-5.020582676E-1
2.649414896E0,-2.227518111E-1,1.472966671E0,-5.057234168E-1
2.651805990E0,-1.653305292E-1,1.397219539E0,-5.167189837E-1
2.654196406E0,-9.935715050E-2,1.331246138E0,-5.252711177E-1
2.656587604E0,-2.849683911E-2,1.264050961E0,-5.277145505E-1
2.658979531E0,3.625481948E-2,1.190747261E0,-5.289363265E-1
2.661370729E0,9.978474677E-2,1.115000010E0,-5.313797593E-1
2.663761042E0,1.584277749E-1,1.034365773E0,-5.350449681E-1
2.666152292E0,2.109621316E-1,9.537316561E-1,-5.387101769E-1
2.668544219E0,2.622747421E-1,8.706540465E-1,-5.460405350E-1
2.670935417E0,3.074787557E-1,7.936850786E-1,-5.545926094E-1
2.673325729E0,3.465740979E-1,7.203813195E-1,-5.607012510E-1
2.675716927E0,3.807825148E-1,6.446340680E-1,-5.631447434E-1
2.678108906E0,4.076605737E-1,5.725520253E-1,-5.643664598E-1
2.680500000E0,4.272082448E-1,5.078004003E-1,-5.655881763E-1
2.682890417E0,4.406472445E-1,4.454921782E-1,-5.631447434E-1
2.685281615E0,4.528645575E-1,3.929578066E-1,-5.594795346E-1
2.687673594E0,4.601949155E-1,3.477538228E-1,-5.558143854E-1
2.690064688E0,4.699687660E-1,3.098802269E-1,-5.484839678E-1
2.692455052E0,4.772991538E-1,2.756718099E-1,-5.423753262E-1
2.694846302E0,4.858512580E-1,2.500154674E-1,-5.326014757E-1
2.697238229E0,4.944033623E-1,2.243591547E-1,-5.228276253E-1
2.699629323E0,5.029554963E-1,2.072549462E-1,-5.142755508E-1
2.702019740E0,5.127293468E-1,1.889290065E-1,-5.032799840E-1
2.704410938E0,5.200597048E-1,1.681596041E-1,-4.959496260E-1
2.706802917E0,5.249466300E-1,1.522771269E-1,-4.886192381E-1
2.709194010E0,5.273901224E-1,1.388380975E-1,-4.800671339E-1
2.711584427E0,5.273901224E-1,1.192904264E-1,-4.727367759E-1
2.713975625E0,5.249466300E-1,1.034079492E-1,-4.666281044E-1
2.716367552E0,5.200597048E-1,8.874718845E-2,-4.592977464E-1
2.718758750E0,5.139510632E-1,7.530817389E-2,-4.434152544E-1
2.721149063E0,5.066207051E-1,7.042124867E-2,-4.287545085E-1
2.723540313E0,4.980685413E-1,5.942568555E-2,-4.128720164E-1
2.725932240E0,4.895164371E-1,5.576049536E-2,-3.945460916E-1
2.728323438E0,4.797425866E-1,5.698222294E-2,-3.749983907E-1
2.730713750E0,4.675253034E-1,5.942568555E-2,-3.578941822E-1
2.733105000E0,4.565297365E-1,6.919951737E-2,-3.407899737E-1
2.735496927E0,4.430907071E-1,8.386027813E-2,-3.236857653E-1
2.737888021E0,4.284299612E-1,9.974275529E-2,-3.041380942E-1
2.740278438E0,4.125474691E-1,1.180686951E-1,-2.882556021E-1
2.742669635E0,3.942215443E-1,1.425032914E-1,-2.723731399E-1
2.745061563E0,3.697869480E-1,1.644944251E-1,-2.577123642E-1
2.747452760E0,3.453523517E-1,1.925942004E-1,-2.418299019E-1
2.749843073E0,3.172525764E-1,2.145853192E-1,-2.259474099E-1
2.752234323E0,2.867093384E-1,2.439068258E-1,-2.076214701E-1
2.754626250E0,2.561661005E-1,2.707848847E-1,-1.844086051E-1
2.757017448E0,2.231794298E-1,3.001063764E-1,-1.636392176E-1
2.759407760E0,1.877492815E-1,3.282061517E-1,-1.404263526E-1
2.761799010E0,1.535408497E-1,3.526407480E-1,-1.159917563E-1
2.764190938E0,1.217758805E-1,3.807405233E-1,-9.277890623E-2
2.766582031E0,9.001091123E-2,4.088402987E-1,-6.712257862E-2
2.768972448E0,6.068940833E-2,4.369400740E-1,-3.902279958E-2
2.771363646E0,3.381136432E-2,4.601529539E-1,-1.214475371E-2
2.773755625E0,1.182023250E-2,4.894744456E-1,1.351156458E-2
2.776146719E0,-6.505708676E-3,5.126873255E-1,4.161134362E-2
2.778537135E0,-2.360992134E-2,5.371218920E-1,6.971111894E-2
2.780928333E0,-3.582721576E-2,5.603347421E-1,9.658916295E-2
2.783320260E0,-4.437932000E-2,5.786606669E-1,1.246889383E-1
2.785711458E0,-5.170970038E-2,5.896562338E-1,1.527887136E-1
2.788101771E0,-5.415315554E-2,5.957649350E-1,1.808884889E-1
2.790493021E0,-5.293142796E-2,5.969866514E-1,2.089882642E-1
2.792884948E0,-4.804451019E-2,5.982083678E-1,2.334228456E-1
2.795276042E0,-3.949240223E-2,6.018735766E-1,2.578574419E-1
2.797666458E0,-2.727510966E-2,6.018735766E-1,2.835137546E-1
2.800057656E0,-8.949168026E-3,5.982083678E-1,3.055048883E-1
2.802449635E0,1.304196194E-2,5.969866514E-1,3.250525594E-1
2.804840729E0,4.480692744E-2,6.006518006E-1,3.446002305E-1
2.807231146E0,7.901535183E-2,6.067605019E-1,3.665913641E-1
2.809622344E0,1.168889627E-1,6.055387259E-1,3.800303936E-1
2.812014271E0,1.547625810E-1,5.994300842E-1,3.959128857E-1
2.814405469E0,1.963013858E-1,5.872128010E-1,4.081301689E-1
2.816795781E0,2.366184592E-1,5.664433837E-1,4.142388105E-1
2.819187031E0,2.744920552E-1,5.383436680E-1,4.203474522E-1
2.821578958E0,3.099222183E-1,5.065786242E-1,4.264560938E-1
2.823970052E0,3.429088891E-1,4.650398493E-1,4.313430190E-1
2.826360469E0,3.685652316E-1,4.198358655E-1,4.313430190E-1
2.828751667E0,3.893346190E-1,3.758535981E-1,4.313430190E-1
2.831143646E0,4.052171111E-1,3.257626891E-1,4.288995564E-1
2.833534740E0,4.186561108E-1,2.744500637E-1,4.252343774E-1
2.835925156E0,4.247647822E-1,2.255808860E-1,4.191257358E-1
2.838316354E0,4.247647822E-1,1.815986335E-1,4.056867063E-1
2.840708281E0,4.198778570E-1,1.315077245E-1,3.885824978E-1
2.843099479E0,4.039953649E-1,8.141681552E-2,3.690348268E-1
2.845489792E0,3.807825148E-1,3.132590652E-2,3.470436931E-1
2.847881042E0,3.539044559E-1,-2.365192026E-2,3.189439178E-1
2.850272969E0,3.221395016E-1,-7.862974703E-2,2.920658588E-1
2.852664063E0,2.842658758E-1,-1.323858351E-1,2.615226209E-1
2.855054479E0,2.439488322E-1,-1.910288483E-1,2.273142040E-1
2.857445677E0,2.011882961E-1,-2.533370554E-1,1.918840557E-1
2.859837656E0,1.572060436E-1,-3.229756355E-1,1.576756239E-1
2.862228750E0,1.120020449E-1,-3.901707530E-1,1.234672070E-1
2.864619167E0,6.435459107E-2,-4.573658705E-1,9.170223773E-2
2.867010365E0,2.037233859E-2,-5.282261968E-1,5.871555209E-2
2.869402292E0,-2.116646245E-2,-5.978647470E-1,3.061577678E-2
2.871793490E0,-6.026180461E-2,-6.626164317E-1,-3.592647612E-3
2.874183802E0,-9.691368788E-2,-7.163724899E-1,-4.390971735E-2
2.876575052E0,-1.335655600E-1,-7.615764737E-1,-9.277890623E-2
2.878966979E0,-1.689957231E-1,-8.043370247E-1,-1.428698152E-1
2.881358073E0,-2.093127966E-1,-8.373237252E-1,-1.941824555E-1
2.883748490E0,-2.557385266E-1,-8.580931425E-1,-2.442733347E-1
2.886139688E0,-3.021642566E-1,-8.678669333E-1,-2.894773483E-1
2.888531667E0,-3.498117030E-1,-8.617582917E-1,-3.285726905E-1
2.890922760E0,-3.962374032E-1,-8.409889340E-1,-3.615593910E-1
2.893313177E0,-4.353327453E-1,-8.043370247E-1,-3.896591663E-1
2.895704375E0,-4.658759832E-1,-7.615764737E-1,-4.128720164E-1
2.898096302E0,-4.854236543E-1,-7.065986991E-1,-4.324196875E-1
2.900487500E0,-4.939757586E-1,-6.418470144E-1,-4.507456422E-1
2.902877813E0,-4.964192212E-1,-5.660997629E-1,-4.654063880E-1
2.905269063E0,-4.915322959E-1,-4.830222130E-1,-4.776236713E-1
2.907660990E0,-4.805367589E-1,-3.926142156E-1,-4.861757755E-1
2.910052083E0,-4.634325206E-1,-2.985410392E-1,-4.861757755E-1
2.912442500E0,-4.402196705E-1,-2.020244300E-1,-4.849540591E-1
2.914833698E0,-4.182285368E-1,-1.091729850E-1,-4.812888801E-1
2.917225677E0,-3.937939405E-1,-1.509980857E-2,-4.751802087E-1
2.919616771E0,-3.669159114E-1,7.530817389E-2,-4.666281044E-1
2.922007188E0,-3.400378525E-1,1.510553956E-1,-4.592977464E-1
2.924398385E0,-3.168250024E-1,2.243591547E-1,-4.470804334E-1
2.926790313E0,-2.911686897E-1,2.854456306E-1,-4.360848665E-1
2.929181510E0,-2.679558098E-1,3.379800022E-1,-4.226458669E-1
2.931571823E0,-2.459646761E-1,3.868491650E-1,-4.079850912E-1
2.933963073E0,-2.264170051E-1,4.247227907E-1,-3.908808827E-1
2.936355000E0,-2.068693340E-1,4.613746703E-1,-3.737766743E-1
2.938746094E0,-1.873216629E-1,4.894744456E-1,-3.554507494E-1
2.941136510E0,-1.726609021E-1,5.151307583E-1,-3.359030485E-1
2.943527708E0,-1.641087979E-1,5.334567428E-1,-3.139119446E-1
2.945919688E0,-1.616653502E-1,5.407871008E-1,-2.931425273E-1
2.948310781E0,-1.665522605E-1,5.542261004E-1,-2.650427520E-1
2.950701198E0,-1.726609021E-1,5.639999509E-1,-2.381647080E-1
2.953092396E0,-1.775478274E-1,5.811041594E-1,-2.100649327E-1
2.955484323E0,-1.738826334E-1,6.079822183E-1,-1.831868887E-1
2.957875521E0,-1.653305292E-1,6.421906352E-1,-1.575305611E-1
2.960265833E0,-1.470045894E-1,6.812859774E-1,-1.355394274E-1
2.962657083E0,-1.262351871E-1,7.179378271E-1,-1.123265773E-1
2.965049010E0,-1.030223370E-1,7.460376024E-1,-8.911371231E-2
2.967440104E0,-8.225294203E-2,7.643635869E-1,-6.590084732E-2
2.969830521E0,-6.392699480E-2,7.716939449E-1,-3.902279958E-2
2.972221719E0,-4.804451019E-2,7.704722285E-1,-1.336648315E-2
2.974613698E0,-3.338375688E-2,7.643635869E-1,1.106810570E-2
2.977004792E0,-1.994473301E-2,7.497028112E-1,3.672442585E-2
2.979395208E0,-4.062249791E-3,7.313768864E-1,6.482420117E-2
2.981786406E0,1.670715027E-2,7.081640363E-1,9.292396903E-2
2.984178333E0,4.114173725E-2,6.788424850E-1,1.198020130E-1
2.986569531E0,7.046324015E-2,6.580731273E-1,1.540104449E-1
2.988959844E0,1.022282094E-1,6.287515759E-1,1.857754141E-1
2.991351094E0,1.352149099E-1,5.945431590E-1,2.138751894E-1
2.993743021E0,1.694233268E-1,5.566695929E-1,2.456401587E-1
2.996134115E0,2.036317587E-1,5.200176835E-1,2.725181878E-1
2.998524531E0,2.353967279E-1,4.845875204E-1,2.993962467E-1
3.000915729E0,2.696051300E-1,4.516008496E-1,3.287177682E-1
3.003307708E0,3.001483679E-1,4.247227907E-1,3.580392599E-1
3.005698802E0,3.355785310E-1,4.027316570E-1,3.922476768E-1
3.008089167E0,3.697869480E-1,3.905143738E-1,4.276778400E-1
3.010480417E0,4.003301859E-1,3.697449565E-1,4.631080031E-1
3.012872344E0,4.320951402E-1,3.355365396E-1,4.960947037E-1
3.015263542E0,4.650818408E-1,3.098802269E-1,5.278596282E-1
3.017653854E0,5.029554963E-1,2.830021679E-1,5.584028959E-1
3.020045104E0,5.408291221E-1,2.536806464E-1,5.852809548E-1
3.022437031E0,5.811461806E-1,2.170287818E-1,6.036068797E-1
3.024828125E0,6.214632988E-1,1.754899770E-1,6.146024466E-1
3.027218542E0,6.605586410E-1,1.315077245E-1,6.194893718E-1
3.029609740E0,6.996539831E-1,8.263854682E-2,6.207110882E-1
3.032001719E0,7.350841165E-1,3.010417707E-2,6.182676554E-1
3.034392813E0,7.631838918E-1,-3.098229319E-2,6.109372377E-1
3.036783177E0,7.876184583E-1,-9.451222420E-2,6.036068797E-1
3.039174427E0,8.047226667E-1,-1.690377295E-1,5.938330293E-1
3.041566354E0,8.218268752E-1,-2.447849512E-1,5.852809548E-1
3.043957552E0,8.340442181E-1,-3.119800687E-1,5.718418956E-1
3.046347865E0,8.487049341E-1,-3.669579029E-1,5.547376871E-1
3.048739115E0,8.682526350E-1,-3.975011408E-1,5.241944790E-1
3.051131042E0,8.914654851E-1,-4.084966779E-1,4.838774204E-1
3.053522135E0,9.171217680E-1,-4.036097825E-1,4.313430190E-1
3.055912552E0,9.525519609E-1,-3.791751862E-1,3.653696477E-1
3.058303750E0,9.892038107E-1,-3.413015604E-1,2.908441424E-1
3.060695729E0,1.029520869E0,-2.960975766E-1,2.150969207E-1
3.063086823E0,1.073503137E0,-2.411197722E-1,1.405714154E-1
3.065477188E0,1.110155106E0,-1.898071170E-1,7.704149187E-2
3.067868438E0,1.145585179E0,-1.446031332E-1,2.084194124E-2
3.070260365E0,1.161467671E0,-9.817741811E-2,-2.436204813E-2
3.072651563E0,1.154137254E0,-5.052996427E-2,-4.757490754E-2
3.075041875E0,1.132146239E0,-2.120845765E-2,-5.246182531E-2
3.077433125E0,1.104046345E0,-6.547704339E-3,-4.146626219E-2
3.079825052E0,1.068616271E0,-8.991166949E-3,-1.825340092E-2
3.082216146E0,1.031964421E0,-1.998673379E-2,9.846374393E-3
3.084606563E0,9.904255867E-1,-4.075612873E-2,3.305923194E-2
3.086997760E0,9.415563941E-1,-6.274725497E-2,4.894171655E-2
3.089389740E0,8.914654851E-1,-7.862974703E-2,6.482420117E-2
3.091780833E0,8.389310837E-1,-8.351665735E-2,7.948495448E-2
3.094171250E0,7.925053835E-1,-6.641244888E-2,9.170223773E-2
3.096562448E0,7.497448921E-1,-2.853883803E-2,1.075847298E-1
3.098954375E0,7.130929828E-1,2.155207098E-2,1.271324009E-1
3.101345573E0,6.788845658E-1,8.141681552E-2,1.552321762E-1
3.103735885E0,6.495630741E-1,1.461684704E-1,1.857754141E-1
3.106127135E0,6.214632988E-1,2.048114836E-1,2.089882642E-1
3.108519063E0,5.958069563E-1,2.439068258E-1,2.334228456E-1
3.110910156E0,5.701506138E-1,2.768935263E-1,2.639660835E-1
3.113300573E0,5.469377637E-1,3.111019433E-1,3.128352761E-1
3.115691771E0,5.310552716E-1,3.379800022E-1,3.580392599E-1
3.118083698E0,5.127293468E-1,3.233192563E-1,3.885824978E-1
3.120474896E0,4.882946908E-1,2.695631683E-1,3.995780647E-1
3.122865208E0,4.589731991E-1,1.925942004E-1,4.056867063E-1
3.125256458E0,4.223213196E-1,1.095165908E-1,4.203474522E-1
3.127648385E0,3.844476938E-1,2.643898875E-2,4.411168694E-1
3.130039479E0,3.502392769E-1,-5.786034837E-2,4.655514359E-1
3.132429896E0,3.245829642E-1,-1.311641037E-1,4.912077785E-1
3.134821094E0,3.025918305E-1,-2.044678628E-1,5.205292702E-1
3.137213073E0,2.806006968E-1,-2.802151144E-1,5.388551950E-1
3.139604167E0,2.659399509E-1,-3.461884856E-1,5.547376871E-1
3.141994583E0,2.500574887E-1,-3.938359320E-1,5.767288208E-1
3.144385781E0,2.231794298E-1,-4.512572289E-1,5.987199545E-1
3.146777760E0,1.791971773E-1,-5.221175551E-1,6.219328046E-1
3.149168854E0,1.254410744E-1,-5.880908966E-1,6.414805055E-1
3.151559219E0,7.290670276E-2,-6.394035816E-1,6.573629975E-1
3.153950469E0,2.403752692E-2,-6.736119986E-1,6.671367884E-1
3.156342396E0,-1.872300357E-2,-6.858292818E-1,6.646933556E-1
3.158733490E0,-5.170970038E-2,-6.809423566E-1,6.512542963E-1
3.161123906E0,-7.736601681E-2,-6.601729393E-1,6.365935802E-1
3.163515104E0,-9.813541919E-2,-6.222993731E-1,6.182676554E-1
3.165907083E0,-1.115744486E-1,-5.722084641E-1,5.950547457E-1
3.168298177E0,-1.213482842E-1,-5.160089135E-1,5.730636120E-1
3.170688594E0,-1.262351871E-1,-4.549224377E-1,5.474073291E-1
3.173079792E0,-1.201265529E-1,-3.962793946E-1,5.254161954E-1
3.175471719E0,-1.018006131E-1,-3.376363814E-1,5.022033453E-1
3.177862917E0,-7.980947942E-2,-2.899889350E-1,4.765470028E-1
3.180253229E0,-4.804451019E-2,-2.545587718E-1,4.521124363E-1
3.182644479E0,-1.139262691E-2,-2.362328470E-1,4.276778400E-1
3.185036406E0,2.403752692E-2,-2.423414886E-1,4.117953479E-1
3.187427500E0,6.068940833E-2,-2.667760849E-1,4.007997811E-1
3.189817917E0,9.734129161E-2,-3.083148897E-1,3.946911395E-1
3.192209115E0,1.364366412E-1,-3.620709777E-1,3.885824978E-1
3.194601094E0,1.730885208E-1,-4.341530204E-1,3.836955726E-1
3.196992188E0,2.060752213E-1,-5.123437047E-1,3.824738562E-1
3.199382604E0,2.341749966E-1,-6.003082395E-1,3.836955726E-1
3.201773802E0,2.549443841E-1,-6.980465651E-1,3.885824978E-1
3.204165729E0,2.696051300E-1,-7.933414578E-1,3.983563185E-1
3.206556927E0,2.769355178E-1,-8.776407838E-1,4.032432437E-1
3.208947240E0,2.806006968E-1,-9.436141849E-1,4.081301689E-1
3.211338490E0,2.781572342E-1,-9.924833179E-1,4.130170941E-1
3.213730417E0,2.732703090E-1,-1.024248242E0,4.179039896E-1
3.216121510E0,2.634964883E-1,-1.045017719E0,4.203474522E-1
3.218511927E0,2.476140112E-1,-1.062121868E0,4.264560938E-1
3.220903125E0,2.256228924E-1,-1.064565301E0,4.252343774E-1
3.223295104E0,1.963013858E-1,-1.059678435E0,4.276778400E-1
3.225686198E0,1.633146852E-1,-1.049904585E0,4.325647652E-1
3.228076615E0,1.205541492E-1,-1.043795943E0,4.411168694E-1
3.230467813E0,6.924151629E-2,-1.043795943E0,4.545558989E-1
3.232859740E0,1.182023250E-2,-1.048682809E0,4.728818536E-1
3.235250938E0,-5.415315554E-2,-1.062121868E0,4.948729277E-1
3.237641250E0,-1.274569184E-1,-1.091443419E0,5.131989121E-1
3.240032500E0,-2.044258714E-1,-1.129317045E0,5.303031206E-1
3.242424427E0,-2.850600481E-1,-1.181851387E0,5.400769711E-1
3.244815521E0,-3.656941652E-1,-1.239272714E0,5.437421203E-1
3.247205938E0,-4.402196705E-1,-1.304024339E0,5.376334786E-1
3.249597135E0,-5.086364746E-1,-1.376106381E0,5.254161954E-1
3.251989115E0,-5.685012341E-1,-1.446966648E0,5.107554197E-1
3.254380208E0,-6.161486506E-1,-1.512940049E0,4.973164201E-1
3.256770625E0,-6.503570676E-1,-1.580135226E0,4.838774204E-1
3.259161823E0,-6.711264849E-1,-1.631447792E0,4.716600776E-1
3.261553750E0,-6.735699177E-1,-1.674208283E0,4.631080031E-1
3.263944948E0,-6.576874256E-1,-1.702308059E0,4.557776153E-1
3.266335260E0,-6.259225011E-1,-1.729186177E0,4.472255111E-1
3.268726510E0,-5.819402337E-1,-1.754842520E0,4.423385859E-1
3.271118438E0,-5.257406831E-1,-1.764616370E0,4.398951232E-1
3.273509531E0,-4.499935210E-1,-1.752398968E0,4.496689737E-1
3.275899948E0,-3.571420610E-1,-1.731629610E0,4.679949284E-1
3.278291146E0,-2.532950640E-1,-1.713303685E0,4.850991368E-1
3.280683073E0,-1.457828581E-1,-1.696199417E0,5.022033453E-1
3.283074271E0,-4.071413353E-2,-1.682760477E0,5.156423450E-1
3.285464583E0,6.191113964E-2,-1.648552060E0,5.290814042E-1
3.287855833E0,1.559843123E-1,-1.605791450E0,5.412986875E-1
3.290247760E0,2.317315340E-1,-1.560587525E0,5.510725379E-1
3.292638958E0,2.964831889E-1,-1.517826915E0,5.584028959E-1
3.295029271E0,3.465740979E-1,-1.472622991E0,5.620681047E-1
3.297420469E0,3.820042312E-1,-1.431084156E0,5.596246123E-1
3.299812448E0,4.039953649E-1,-1.396875739E0,5.571811795E-1
3.302203542E0,4.149909317E-1,-1.373662949E0,5.510725379E-1
3.304593958E0,4.125474691E-1,-1.360223889E0,5.461856127E-1
3.306985156E0,4.076605737E-1,-1.350450039E0,5.425204039E-1
3.309377083E0,3.991084695E-1,-1.332124114E0,5.449638367E-1
3.311768281E0,3.917780817E-1,-1.323572040E0,5.425204039E-1
3.314158594E0,3.832259774E-1,-1.316241622E0,5.425204039E-1
3.316549844E0,3.746738732E-1,-1.315019846E0,5.400769711E-1
3.318941771E0,3.697869480E-1,-1.318685055E0,5.351900458E-1
3.321332865E0,3.673434854E-1,-1.324793696E0,5.241944790E-1
3.323723281E0,3.673434854E-1,-1.338232756E0,5.119771957E-1
3.326114479E0,3.697869480E-1,-1.354115248E0,4.973164201E-1
3.328506458E0,3.758955896E-1,-1.371219397E0,4.875425696E-1
3.330897552E0,3.917780817E-1,-1.373662949E0,4.814339280E-1
3.333287969E0,4.137692153E-1,-1.376106381E0,4.789904952E-1
3.335679167E0,4.369820654E-1,-1.374884605E0,4.838774204E-1
3.338071094E0,4.711904824E-1,-1.371219397E0,4.887642860E-1
3.340462292E0,5.041772723E-1,-1.367554188E0,4.948729277E-1
3.342852604E0,5.371639132E-1,-1.362667322E0,4.985381365E-1
3.345243854E0,5.713723898E-1,-1.360223889E0,5.009816289E-1
3.347635781E0,6.031373143E-1,-1.356558681E0,5.058684945E-1
3.350026875E0,6.324588656E-1,-1.351671815E0,5.046467781E-1
3.352417292E0,6.642237902E-1,-1.348006606E0,5.083119869E-1
3.354808490E0,6.923235655E-1,-1.337010980E0,5.107554197E-1
3.357200469E0,7.216451168E-1,-1.322350264E0,5.119771957E-1
3.359591563E0,7.473013997E-1,-1.306467772E0,5.168640614E-1
3.361981979E0,7.692925334E-1,-1.289363503E0,5.168640614E-1
3.364373177E0,7.925053835E-1,-1.266150713E0,5.156423450E-1
3.366765104E0,8.144965172E-1,-1.242937803E0,5.168640614E-1
3.369156302E0,8.328224421E-1,-1.212394595E0,5.205292702E-1
3.371546615E0,8.523701429E-1,-1.180629611E0,5.241944790E-1
3.373937865E0,8.755829930E-1,-1.143977761E0,5.278596282E-1
3.376329792E0,8.951306939E-1,-1.104882360E0,5.351900458E-1
3.378720885E0,9.159000516E-1,-1.064565301E0,5.425204039E-1
3.381111302E0,9.403346777E-1,-1.025470018E0,5.498507619E-1
3.383502500E0,9.672126770E-1,-9.875964522E-1,5.571811795E-1
3.385894427E0,9.965342283E-1,-9.497228265E-1,5.669549704E-1
3.388285625E0,1.023412228E0,-9.155144095E-1,5.718418956E-1
3.390675938E0,1.053955436E0,-8.837494254E-1,5.779505372E-1
3.393067188E0,1.085720420E0,-8.458758593E-1,5.840591788E-1
3.395459115E0,1.115041971E0,-8.116673827E-1,5.913895965E-1
3.397850313E0,1.140698314E0,-7.774589658E-1,5.987199545E-1
3.400240625E0,1.162689447E0,-7.493591905E-1,6.072720885E-1
3.402631823E0,1.184680581E0,-7.285898328E-1,6.146024466E-1
3.405023802E0,1.201784730E0,-7.114855647E-1,6.231545210E-1
3.407414896E0,1.212780356E0,-6.931596398E-1,6.292632222E-1
3.409805313E0,1.217667222E0,-6.833857894E-1,6.353718638E-1
3.412196510E0,1.220110655E0,-6.772771478E-1,6.402587891E-1
3.414588438E0,1.217667222E0,-6.711685061E-1,6.463674307E-1
3.416979635E0,1.212780356E0,-6.797206402E-1,6.500325799E-1
3.419369948E0,1.204228163E0,-6.931596398E-1,6.549195051E-1
3.421761198E0,1.185902238E0,-7.102638483E-1,6.598064303E-1
3.424153125E0,1.163911104E0,-7.420288324E-1,6.634716392E-1
3.426544219E0,1.137033105E0,-7.762372494E-1,6.683585644E-1
3.428934635E0,1.107711554E0,-8.189978004E-1,6.744672060E-1
3.431325833E0,1.074724913E0,-8.629800677E-1,6.793541312E-1
3.433717813E0,1.039294720E0,-9.045188427E-1,6.842409968E-1
3.436108906E0,1.017303586E0,-9.362838268E-1,6.891279221E-1
3.438499323E0,9.892038107E-1,-9.656053185E-1,6.903496981E-1
3.440890521E0,9.586606026E-1,-9.973702431E-1,6.854627728E-1
3.443282448E0,9.281173348E-1,-1.025470018E0,6.732454300E-1
3.445673646E0,8.963524103E-1,-1.049904585E0,6.573629975E-1
3.448063958E0,8.658091426E-1,-1.068230510E0,6.353718638E-1
3.450455208E0,8.364876509E-1,-1.071895719E0,6.109372377E-1
3.452847135E0,8.047226667E-1,-1.067008853E0,5.828374624E-1
3.455238229E0,7.717359662E-1,-1.056013227E0,5.461856127E-1
3.457628646E0,7.387493253E-1,-1.035243869E0,5.070902705E-1
3.460019844E0,7.033191323E-1,-1.004700541E0,4.655514359E-1
3.462411823E0,6.678889990E-1,-9.704921842E-1,4.166822731E-1
3.464802917E0,6.263501644E-1,-9.301751852E-1,3.665913641E-1
3.467193281E0,5.848113894E-1,-8.959667683E-1,3.152787387E-1
3.469584531E0,5.359421968E-1,-8.629800677E-1,2.664095461E-1
3.471976458E0,4.858512580E-1,-8.373237252E-1,2.175403833E-1
3.474367656E0,4.296516776E-1,-8.202195168E-1,1.662277430E-1
3.476757969E0,3.722304106E-1,-8.128891587E-1,1.161368340E-1
3.479149219E0,3.160308599E-1,-8.141108751E-1,6.604593247E-2
3.481541146E0,2.573878467E-1,-8.202195168E-1,1.473329216E-2
3.483932240E0,2.036317587E-1,-8.336585164E-1,-3.902279958E-2
3.486322656E0,1.498756558E-1,-8.519845009E-1,-9.277890623E-2
3.488713854E0,9.978474677E-2,-8.751973510E-1,-1.477567255E-1
3.491105781E0,5.335903540E-2,-8.923015594E-1,-2.002910972E-1
3.493496979E0,1.548542082E-2,-8.996319175E-1,-2.491602600E-1
3.495887292E0,-1.994473301E-2,-9.057405591E-1,-2.919208109E-1
3.498278542E0,-5.170970038E-2,-9.008536339E-1,-3.322378695E-1
3.500670469E0,-8.469639719E-2,-8.947449923E-1,-3.688897491E-1
3.503061563E0,-1.176830903E-1,-8.910798430E-1,-3.957678080E-1
3.505451979E0,-1.543349624E-1,-8.874146342E-1,-4.202024043E-1
3.507843177E0,-1.909868568E-1,-8.874146342E-1,-4.421935380E-1
3.510235156E0,-2.313039154E-1,-8.861929178E-1,-4.666281044E-1
3.512626250E0,-2.728427351E-1,-8.813059926E-1,-4.849540591E-1
3.515016615E0,-3.082728982E-1,-8.788625002E-1,-5.069451928E-1
3.517407865E0,-3.424813151E-1,-8.690887094E-1,-5.277145505E-1
3.519799792E0,-3.705810905E-1,-8.446540833E-1,-5.460405350E-1
3.522190990E0,-3.889070451E-1,-8.031153083E-1,-5.680316687E-1
3.524581302E0,-4.157850742E-1,-7.933414578E-1,-5.912445188E-1
3.526972552E0,-4.451065958E-1,-7.799024582E-1,-6.120139360E-1
3.529364479E0,-4.756498337E-1,-7.701286077E-1,-6.327832937E-1
3.531755573E0,-5.086364746E-1,-7.627982497E-1,-6.523309946E-1
3.534145990E0,-5.355145335E-1,-7.383636236E-1,-6.743221283E-1
3.536537188E0,-5.697229505E-1,-7.224811316E-1,-6.987566948E-1
3.538929167E0,-6.088182926E-1,-7.127073407E-1,-7.195261121E-1
3.541320260E0,-6.491353512E-1,-7.029334903E-1,-7.439606786E-1
3.543710625E0,-6.882306933E-1,-6.846075654E-1,-7.647300959E-1
3.546101875E0,-7.285477519E-1,-6.662815809E-1,-7.854995131E-1
3.548493802E0,-7.688648105E-1,-6.406252980E-1,-8.038254380E-1
3.550885000E0,-8.079601526E-1,-6.125255227E-1,-8.233731389E-1
3.553275313E0,-8.446120620E-1,-5.746518970E-1,-8.416990638E-1
3.555666510E0,-8.812639713E-1,-5.416651964E-1,-8.575815558E-1
3.558058490E0,-9.203592539E-1,-5.111219883E-1,-8.710205555E-1
3.560449583E0,-9.557894468E-1,-4.793570042E-1,-8.795726895E-1
3.562840000E0,-9.912195802E-1,-4.488137662E-1,-8.869030476E-1
3.565231198E0,-1.029093146E0,-4.243791699E-1,-8.942334056E-1
3.567623125E0,-1.064523339E0,-3.950576782E-1,-8.978986144E-1
3.570014323E0,-1.099953532E0,-3.645144403E-1,-9.027855396E-1
3.572404635E0,-1.132940173E0,-3.290842772E-1,-9.101158977E-1
3.574795885E0,-1.162261724E0,-2.924323976E-1,-9.211114645E-1
3.577187813E0,-1.190361500E0,-2.508935928E-1,-9.308853149E-1
3.579579010E0,-1.212352633E0,-2.008026838E-1,-9.431025982E-1
3.581969323E0,-1.233121991E0,-1.543769687E-1,-9.589850903E-1
3.584360521E0,-1.251447916E0,-1.091729850E-1,-9.736458063E-1
3.586752500E0,-1.266108751E0,-6.274725497E-2,-9.870848656E-1
3.589143594E0,-1.275882602E0,-1.265635341E-2,-9.993020892E-1
3.591534010E0,-1.286878109E0,3.010417707E-2,-1.005410671E0
3.593925208E0,-1.297873735E0,7.530817389E-2,-9.993020892E-1
3.596317135E0,-1.314977884E0,1.082948595E-1,-9.858631492E-1
3.598708333E0,-1.338190794E0,1.315077245E-1,-9.577633739E-1
3.601098646E0,-1.365068793E0,1.473902017E-1,-9.125593901E-1
3.603489896E0,-1.402942419E0,1.498336643E-1,-8.502511382E-1
3.605881823E0,-1.444481254E0,1.412815601E-1,-7.818343043E-1
3.608272917E0,-1.492128611E0,1.388380975E-1,-7.073088288E-1
3.610663333E0,-1.545884728E0,1.388380975E-1,-6.291181445E-1
3.613054531E0,-1.605749488E0,1.486119330E-1,-5.521491766E-1
3.615446510E0,-1.672944665E0,1.669378728E-1,-4.764019549E-1
3.617837604E0,-1.742583156E0,2.011463046E-1,-4.055416286E-1
3.620227969E0,-1.809778333E0,2.549023926E-1,-3.407899737E-1
3.622619219E0,-1.869643092E0,3.343148232E-1,-2.906990647E-1
3.625011146E0,-1.923399210E0,4.296097159E-1,-2.491602600E-1
3.627402344E0,-1.964937925E0,5.554478168E-1,-2.186170369E-1
3.629792656E0,-1.994259477E0,6.996119022E-1,-1.990693659E-1
3.632183854E0,-2.008920431E0,8.730974793E-1,-1.917389929E-1
3.634575833E0,-2.010142088E0,1.068574309E0,-1.917389929E-1
3.636966927E0,-1.999146461E0,1.273824811E0,-1.905172616E-1
3.639357344E0,-1.982042193E0,1.482740521E0,-1.831868887E-1
3.641748542E0,-1.958829284E0,1.686769366E0,-1.697478592E-1
3.644140469E0,-1.933172941E0,1.872472286E0,-1.563088298E-1
3.646531667E0,-1.902629733E0,2.039849043E0,-1.440915316E-1
3.648921979E0,-1.865977883E0,2.185234785E0,-1.416480839E-1
3.651313229E0,-1.823217392E0,2.319625139E0,-1.440915316E-1
3.653705156E0,-1.773126483E0,2.433245897E0,-1.489784569E-1
3.656096250E0,-1.715705156E0,2.532206059E0,-1.563088298E-1
3.658486667E0,-1.650953531E0,2.614061832E0,-1.673043966E-1
3.660877865E0,-1.581314921E0,2.669039726E0,-1.721913218E-1
3.663269844E0,-1.505567670E0,2.691030741E0,-1.685261279E-1
3.665660938E0,-1.429820418E0,2.673926592E0,-1.538653672E-1
3.668051354E0,-1.354073286E0,2.626279116E0,-1.330959797E-1
3.670442552E0,-1.274660826E0,2.539536476E0,-1.049961895E-1
3.672834479E0,-1.201357007E0,2.432024240E0,-6.956604123E-2
3.675225677E0,-1.131718516E0,2.312294722E0,-3.657934442E-2
3.677615990E0,-1.064523339E0,2.184013128E0,-3.592647612E-3
3.680007240E0,-1.000993490E0,2.052066326E0,2.450712770E-2
3.682399167E0,-9.472373128E-1,1.914011002E0,4.649826139E-2
3.684790260E0,-8.983681798E-1,1.783285975E0,6.238073856E-2
3.687180677E0,-8.617162704E-1,1.637900233E0,7.581976056E-2
3.689571875E0,-8.519424200E-1,1.464414597E0,8.803705871E-2
3.691963802E0,-8.385034204E-1,1.312920094E0,9.048052132E-2
3.694355000E0,-8.213992119E-1,1.206629634E0,9.414570034E-2
3.696745313E0,-7.920777202E-1,1.145543218E0,9.781089425E-2
3.699136563E0,-7.493171692E-1,1.135769367E0,1.002543420E-1
3.701528490E0,-6.906741261E-1,1.163869143E0,1.014760733E-1
3.703919688E0,-6.295876503E-1,1.221290469E0,9.658916295E-2
3.706310000E0,-5.611708164E-1,1.289707303E0,8.925879002E-2
3.708701198E0,-4.915322959E-1,1.369119763E0,8.437186480E-2
3.711093177E0,-4.304458499E-1,1.443645239E0,7.826322317E-2
3.713484271E0,-3.779114783E-1,1.515727282E0,6.848938763E-2
3.715874688E0,-3.412595987E-1,1.582922339E0,5.382863432E-2
3.718265885E0,-3.180467188E-1,1.645230532E0,3.672442585E-2
3.720657813E0,-3.046076894E-1,1.709982276E0,1.473329216E-2
3.723049010E0,-2.960555851E-1,1.774733901E0,-7.257835940E-3
3.725439323E0,-2.923904061E-1,1.846815944E0,-2.680550888E-2
3.727830573E0,-2.923904061E-1,1.921341419E0,-4.757490754E-2
3.730222500E0,-2.972773314E-1,1.997088671E0,-6.101393327E-2
3.732613594E0,-3.021642566E-1,2.075279236E0,-7.567468286E-2
3.735004010E0,-3.180467188E-1,2.155913353E0,-8.422678709E-2
3.737395208E0,-3.632507324E-1,2.232882261E0,-8.422678709E-2
3.739787188E0,-3.962374032E-1,2.312294722E0,-1.098831147E-1
3.742178281E0,-4.426631331E-1,2.385598421E0,-1.428698152E-1
3.744568646E0,-4.878671169E-1,2.425915480E0,-1.795216948E-1
3.746959896E0,-5.147451162E-1,2.428359032E0,-2.125083953E-1
3.749351823E0,-5.367362499E-1,2.402702808E0,-2.454950809E-1
3.751743021E0,-5.672794580E-1,2.358720541E0,-2.797034979E-1
3.754133333E0,-5.978227258E-1,2.298855782E0,-3.139119446E-1
3.756524531E0,-6.247007847E-1,2.232882261E0,-3.432334363E-1
3.758916510E0,-6.405832171E-1,2.159578562E0,-3.701114953E-1
3.761307604E0,-6.576874256E-1,2.096048594E0,-3.872157037E-1
3.763698021E0,-6.686829925E-1,2.041070700E0,-3.969895244E-1
3.766089219E0,-6.784568429E-1,1.993423462E0,-4.055416286E-1
3.768481146E0,-6.870089769E-1,1.955549836E0,-4.055416286E-1
3.770872344E0,-6.870089769E-1,1.922563195E0,-4.043199122E-1
3.773262656E0,-6.833437681E-1,1.896906853E0,-3.982112706E-1
3.775653906E0,-6.784568429E-1,1.873693943E0,-3.957678080E-1
3.778045833E0,-6.723482013E-1,1.838263869E0,-3.969895244E-1
3.780436927E0,-6.699047685E-1,1.797946692E0,-4.055416286E-1
3.782827344E0,-6.637961268E-1,1.753964424E0,-4.202024043E-1
3.785218542E0,-6.576874256E-1,1.701430082E0,-4.458587170E-1
3.787610521E0,-6.466919184E-1,1.640343666E0,-4.727367759E-1
3.790001615E0,-6.295876503E-1,1.571926832E0,-4.971713424E-1
3.792391979E0,-6.063748002E-1,1.499844790E0,-5.154972672E-1
3.794783229E0,-5.782750249E-1,1.427762747E0,-5.277145505E-1
3.797175156E0,-5.440666080E-1,1.358124137E0,-5.313797593E-1
3.799566354E0,-5.013061166E-1,1.292150736E0,-5.350449681E-1
3.801956667E0,-4.573238790E-1,1.222512126E0,-5.399318933E-1
3.804347917E0,-4.108981788E-1,1.151651859E0,-5.435970426E-1
3.806739844E0,-3.644724488E-1,1.080791593E0,-5.484839678E-1
3.809130938E0,-3.217119277E-1,1.006265998E0,-5.558143854E-1
3.811521354E0,-2.813948393E-1,9.341839552E-1,-5.619230270E-1
3.813912552E0,-2.447429448E-1,8.657671213E-1,-5.655881763E-1
3.816304479E0,-2.105345279E-1,7.936850786E-1,-5.716968179E-1
3.818695677E0,-1.714391857E-1,7.301551700E-1,-5.753620267E-1
3.821085990E0,-1.335655600E-1,6.666252017E-1,-5.790272355E-1
3.823477240E0,-9.813541919E-2,6.079822183E-1,-5.851358771E-1
3.825869167E0,-6.270526350E-2,5.468957424E-1,-5.851358771E-1
3.828260260E0,-3.216202557E-2,4.919179082E-1,-5.839141607E-1
3.830650677E0,-3.970616963E-4,4.454921782E-1,-5.875793099E-1
3.833041875E0,3.747655079E-2,4.186141491E-1,-5.888010859E-1
3.835433854E0,7.779362053E-2,3.966230154E-1,-5.802489519E-1
3.837824948E0,1.193324178E-1,3.758535981E-1,-5.668099523E-1
3.840215365E0,1.608712226E-1,3.599711359E-1,-5.545926094E-1
3.842606563E0,2.036317587E-1,3.465321064E-1,-5.387101769E-1
3.844998490E0,2.415053695E-1,3.318713605E-1,-5.228276253E-1
3.847389688E0,2.793789804E-1,3.208757937E-1,-5.093886256E-1
3.849780000E0,3.160308599E-1,3.135454059E-1,-4.935061634E-1
3.852171250E0,3.526827395E-1,3.098802269E-1,-4.812888801E-1
3.854563177E0,3.868911564E-1,3.135454059E-1,-4.654063880E-1
3.856954271E0,4.210995734E-1,3.172105849E-1,-4.544108212E-1
3.859344688E0,4.491993487E-1,3.233192563E-1,-4.434152544E-1
3.861735885E0,4.760774076E-1,3.306496143E-1,-4.287545085E-1
3.864127813E0,5.005120039E-1,3.404234648E-1,-4.116503000E-1
3.866519010E0,5.249466300E-1,3.587493896E-1,-3.969895244E-1
3.868909323E0,5.457160473E-1,3.721884191E-1,-3.786635995E-1
3.871300573E0,5.640419722E-1,3.831839859E-1,-3.627811074E-1
3.873692500E0,5.762592554E-1,3.929578066E-1,-3.517855406E-1
3.876083594E0,5.823679566E-1,3.941795528E-1,-3.493420780E-1
3.878474010E0,5.774810314E-1,3.892926276E-1,-3.456768990E-1
3.880865208E0,5.652637482E-1,3.795188069E-1,-3.407899737E-1
3.883257188E0,5.469377637E-1,3.709667027E-1,-3.322378695E-1
3.885648281E0,5.225031972E-1,3.648580313E-1,-3.151336610E-1
3.888038698E0,4.956250787E-1,3.599711359E-1,-2.955859900E-1
3.890429896E0,4.675253034E-1,3.587493896E-1,-2.760383189E-1
3.892821823E0,4.382038116E-1,3.648580313E-1,-2.540471852E-1
3.895213021E0,4.125474691E-1,3.685232401E-1,-2.320560664E-1
3.897603333E0,3.893346190E-1,3.758535981E-1,-2.088432014E-1
3.899994583E0,3.673434854E-1,3.844057024E-1,-1.868520677E-1
3.902386510E0,3.502392769E-1,3.941795528E-1,-1.648609340E-1
3.904777604E0,3.343567848E-1,4.088402987E-1,-1.404263526E-1
3.907168021E0,3.209177852E-1,4.198358655E-1,-1.184352189E-1
3.909559219E0,3.074787557E-1,4.283879697E-1,-9.155717492E-2
3.911951146E0,2.989266515E-1,4.357183576E-1,-6.590084732E-2
3.914342344E0,2.879310846E-1,4.454921782E-1,-4.024453089E-2
3.916732656E0,2.793789804E-1,4.503791034E-1,-1.336648315E-2
3.919123906E0,2.696051300E-1,4.552660286E-1,1.595502347E-2
3.921515833E0,2.610530257E-1,4.577094913E-1,4.649826139E-2
3.923906927E0,2.525009215E-1,4.625963867E-1,7.459802926E-2
3.926297344E0,2.463922948E-1,4.638181329E-1,1.039195359E-1
3.928688542E0,2.402836382E-1,4.662615955E-1,1.332410425E-1
3.931080521E0,2.329532653E-1,4.674833119E-1,1.650060117E-1
3.933471615E0,2.317315340E-1,4.723702371E-1,1.979926974E-1
3.935862031E0,2.305098027E-1,4.784788787E-1,2.334228456E-1
3.938253229E0,2.317315340E-1,4.797006249E-1,2.664095461E-1
3.940645156E0,2.353967279E-1,4.845875204E-1,2.981745303E-1
3.943036354E0,2.439488322E-1,4.894744456E-1,3.311612010E-1
3.945426667E0,2.549443841E-1,4.980265498E-1,3.665913641E-1
3.947817917E0,2.659399509E-1,5.065786242E-1,4.032432437E-1
3.950209844E0,2.818224430E-1,5.090221167E-1,4.362299442E-1
3.952600938E0,3.025918305E-1,5.187959671E-1,4.631080031E-1
3.954991354E0,3.245829642E-1,5.261263251E-1,4.912077785E-1
3.957382552E0,3.453523517E-1,5.359001756E-1,5.168640614E-1
3.959774479E0,3.697869480E-1,5.432305336E-1,5.400769711E-1
3.962165677E0,3.954432607E-1,5.517826676E-1,5.608463287E-1
3.964555990E0,4.259864986E-1,5.603347421E-1,5.840591788E-1
3.966947240E0,4.540862739E-1,5.652216673E-1,6.023851633E-1
3.969339167E0,4.858512580E-1,5.664433837E-1,6.146024466E-1
3.971730260E0,5.163945556E-1,5.664433837E-1,6.304849386E-1
3.974120677E0,5.469377637E-1,5.639999509E-1,6.439239383E-1
3.976511875E0,5.787027478E-1,5.554478168E-1,6.524760723E-1
3.978903854E0,6.080242395E-1,5.444523096E-1,6.598064303E-1
3.981294948E0,6.349022985E-1,5.334567428E-1,6.622498631E-1
3.983685365E0,6.605586410E-1,5.151307583E-1,6.561412215E-1
3.986076563E0,6.801062822E-1,4.980265498E-1,6.488108635E-1
3.988468490E0,6.972104907E-1,4.772571623E-1,6.402587891E-1
3.990859688E0,7.106495500E-1,4.528225660E-1,6.255980134E-1
3.993250000E0,7.167581916E-1,4.259445071E-1,6.072720885E-1
3.995641250E0,7.204233408E-1,3.966230154E-1,5.791723132E-1
3.998033177E0,7.167581916E-1,3.575276732E-1,5.510725379E-1
4.000424271E0,7.057626247E-1,3.123236895E-1,5.193075538E-1
4.002814688E0,6.862149239E-1,2.585676014E-1,4.875425696E-1
4.005205885E0,6.642237902E-1,1.987028420E-1,4.521124363E-1
4.007597813E0,6.361240149E-1,1.351729184E-1,4.166822731E-1
4.009989010E0,6.068025231E-1,7.408644259E-2,3.800303936E-1
4.012379323E0,5.787027478E-1,1.788688451E-2,3.397133052E-1
4.014770573E0,5.420508385E-1,-4.075612873E-2,2.981745303E-1
4.017162500E0,5.005120039E-1,-1.079512537E-1,2.493053377E-1
4.019553594E0,4.430907071E-1,-1.898071170E-1,1.833319515E-1
4.021944010E0,3.758955896E-1,-2.826585472E-1,1.124716401E-1
4.024335208E0,2.977049053E-1,-3.706230819E-1,4.771999270E-2
4.026727188E0,2.158490568E-1,-4.475920200E-1,-7.257835940E-3
4.029118281E0,1.266628057E-1,-5.099002123E-1,-5.612701550E-2
4.031508646E0,3.258963302E-2,-5.636563301E-1,-1.037744731E-1
4.033899896E0,-6.637045741E-2,-6.039733887E-1,-1.575305611E-1
4.036291823E0,-1.653305292E-1,-6.186341643E-1,-2.125083953E-1
4.038683021E0,-2.642906308E-1,-6.125255227E-1,-2.735948563E-1
4.041073333E0,-3.559203446E-1,-5.856474638E-1,-3.273509443E-1
4.043464583E0,-4.426631331E-1,-5.343348384E-1,-3.835505247E-1
4.045856510E0,-5.208537579E-1,-4.671397209E-1,-4.336414337E-1
4.048247604E0,-5.941575170E-1,-3.852838278E-1,-4.751802087E-1
4.050638021E0,-6.576874256E-1,-2.924323976E-1,-5.106103420E-1
4.053029219E0,-7.138870358E-1,-1.800332814E-1,-5.387101769E-1
4.055421146E0,-7.615344524E-1,-5.908207968E-2,-5.631447434E-1
4.057812344E0,-8.030732870E-1,7.652989030E-2,-5.765837431E-1
4.060202656E0,-8.409468532E-1,2.194722444E-1,-5.839141607E-1
4.062593906E0,-8.751552701E-1,3.648580313E-1,-5.912445188E-1
4.064985833E0,-9.020333290E-1,5.102438331E-1,-5.912445188E-1
4.067377031E0,-9.264679551E-1,6.544079185E-1,-5.875793099E-1
4.069767344E0,-9.460155964E-1,7.949067950E-1,-5.814706683E-1
4.072158542E0,-9.594546556E-1,9.244101048E-1,-5.729185939E-1
4.074550521E0,-9.704501629E-1,1.039252758E0,-5.631447434E-1
4.076941615E0,-9.777805805E-1,1.129660726E0,-5.509274602E-1
4.079332031E0,-9.741153717E-1,1.201742768E0,-5.362666845E-1
4.081723229E0,-9.631198049E-1,1.249390244E0,-5.203841925E-1
4.084115156E0,-9.435721636E-1,1.268937945E0,-5.008365512E-1
4.086506354E0,-9.154723883E-1,1.270159602E0,-4.800671339E-1
4.088896667E0,-8.763770461E-1,1.246946812E0,-4.592977464E-1
4.091287917E0,-8.299512863E-1,1.205407977E0,-4.299762249E-1
4.093679844E0,-7.749734521E-1,1.145543218E0,-3.957678080E-1
4.096070938E0,-7.126652598E-1,1.080791593E0,-3.566724658E-1
4.098461354E0,-6.442484260E-1,1.006265998E0,-3.090250194E-1
4.100852552E0,-5.733880997E-1,9.354056716E-1,-2.577123642E-1
4.103244479E0,-5.049712658E-1,8.669888377E-1,-2.076214701E-1
4.105635677E0,-4.389979541E-1,8.095675707E-1,-1.563088298E-1
4.108025990E0,-3.766897321E-1,7.533680201E-1,-1.049961895E-1
4.110417240E0,-3.217119277E-1,7.057205439E-1,-5.734873936E-2
4.112809167E0,-2.765079141E-1,6.690686941E-1,-1.092302427E-2
4.115200260E0,-2.410777658E-1,6.470775604E-1,3.061577678E-2
4.117590677E0,-2.093127966E-1,6.360819936E-1,7.459802926E-2
4.119981875E0,-1.824347526E-1,6.397471428E-1,1.112499088E-1
4.122373854E0,-1.580001563E-1,6.556296349E-1,1.491235197E-1
4.124764948E0,-1.360090226E-1,6.837294102E-1,1.906623244E-1
4.127155313E0,-1.152396351E-1,7.252682447E-1,2.309793830E-1
4.129546563E0,-9.447023273E-2,7.765808702E-1,2.700747252E-1
4.131938490E0,-7.125737518E-2,8.364456296E-1,3.006179631E-1
4.134329688E0,-5.293142796E-2,8.950886130E-1,3.238308430E-1
4.136720000E0,-3.949240223E-2,9.549533725E-1,3.409350514E-1
4.139111198E0,-2.605338022E-2,1.012374640E0,3.543740809E-1
4.141503177E0,-1.505781524E-2,1.066130757E0,3.641479015E-1
4.143894271E0,-5.283979233E-3,1.112556577E0,3.702565432E-1
4.146284688E0,3.268126631E-3,1.158982277E0,3.763652146E-1
4.148675885E0,1.059850305E-2,1.199299335E0,3.739217520E-1
4.151067813E0,1.915060915E-2,1.224955678E0,3.653696477E-1
4.153459010E0,3.014617413E-2,1.237172961E0,3.543740809E-1
4.155849323E0,4.236346856E-2,1.239616394E0,3.446002305E-1
4.158240573E0,5.946768075E-2,1.228620768E0,3.372698724E-1
4.160632500E0,8.145880699E-2,1.199299335E0,3.360481262E-1
4.163023594E0,1.034499332E-1,1.152873635E0,3.348264098E-1
4.165414010E0,1.315497160E-1,1.095452309E0,3.372698724E-1
4.167805208E0,1.633146852E-1,1.027035475E0,3.311612010E-1
4.170197135E0,2.060752213E-1,9.573968053E-1,3.323829472E-1
4.172588333E0,2.598313093E-1,8.828713298E-1,3.311612010E-1
4.174978646E0,3.245829642E-1,8.120110035E-1,3.262743056E-1
4.177369896E0,4.003301859E-1,7.399289608E-1,3.067266345E-1
4.179761823E0,4.785208702E-1,6.580731273E-1,2.798485756E-1
4.182152917E0,5.603768229E-1,5.713303089E-1,2.444184124E-1
4.184543333E0,6.458978653E-1,4.797006249E-1,2.077665329E-1
4.186934531E0,7.338624001E-1,3.819622695E-1,1.796667576E-1
4.189326510E0,8.267138004E-1,2.830021679E-1,1.613408178E-1
4.191717604E0,9.171217680E-1,1.962593794E-1,1.515669823E-1
4.194108021E0,1.008751512E0,1.217338890E-1,1.527887136E-1
4.196499219E0,1.094272614E0,5.576049536E-2,1.613408178E-1
4.198891146E0,1.173684955E0,9.334776551E-3,1.747798473E-1
4.201282344E0,1.244545341E0,-2.731710672E-2,1.931057870E-1
4.203672656E0,1.306853533E0,-5.175169557E-2,2.102099955E-1
4.206063906E0,1.359387875E0,-7.129935920E-2,2.212055624E-1
4.208455833E0,1.396039724E0,-9.206876159E-2,2.273142040E-1
4.210846927E0,1.419252634E0,-1.042860597E-1,2.334228456E-1
4.213237344E0,1.431469917E0,-1.116164327E-1,2.346445918E-1
4.215628542E0,1.436356783E0,-1.128381640E-1,2.346445918E-1
4.218020469E0,1.437578559E0,-1.128381640E-1,2.346445918E-1
4.220411667E0,1.436356783E0,-9.695568681E-2,2.383097708E-1
4.222801979E0,1.426582932E0,-7.374282181E-2,2.456401587E-1
4.225193229E0,1.413143992E0,-4.564304650E-2,2.578574419E-1
4.227585156E0,1.389931083E0,-2.365192026E-2,2.712964714E-1
4.229976250E0,1.360609531E0,-1.660786569E-3,2.945093215E-1
4.232366667E0,1.326401114E0,2.277380042E-2,3.226090968E-1
4.234757865E0,1.288527608E0,5.331703648E-2,3.458219767E-1
4.237149844E0,1.257984281E0,9.241238236E-2,3.629261851E-1
4.239540938E0,1.226219296E0,1.180686951E-1,3.775869310E-1
4.241931302E0,1.196897864E0,1.278425306E-1,3.959128857E-1
4.244322552E0,1.165132880E0,1.302859932E-1,4.154605567E-1
4.246714479E0,1.129702687E0,1.192904264E-1,4.362299442E-1
4.249105677E0,1.094272614E0,9.974275529E-2,4.606645405E-1
4.251495990E0,1.052733779E0,6.553433090E-2,4.875425696E-1
4.253887188E0,1.011194944E0,2.766071819E-2,5.119771957E-1
4.256279167E0,9.684344530E-1,-1.632153988E-2,5.388551950E-1
4.258670260E0,9.195652604E-1,-7.007762790E-2,5.730636120E-1
4.261060677E0,8.706960678E-1,-1.128381640E-1,6.048285961E-1
4.263451875E0,8.267138004E-1,-1.519335061E-1,6.317066550E-1
4.265843802E0,7.851750255E-1,-1.910288483E-1,6.573629975E-1
4.268235000E0,7.436361909E-1,-2.276807427E-1,6.805758476E-1
4.270625313E0,7.057626247E-1,-2.643326223E-1,7.025669813E-1
4.273016563E0,6.715542078E-1,-2.985410392E-1,7.221146226E-1
4.275408490E0,6.385675073E-1,-3.327494562E-1,7.367753983E-1
4.277799583E0,6.031373143E-1,-3.767317235E-1,7.441057563E-1
4.280190000E0,5.615985394E-1,-4.317095578E-1,7.477709651E-1
4.282581198E0,5.102859139E-1,-4.940177798E-1,7.379971147E-1
4.284973125E0,4.626383781E-1,-5.416651964E-1,7.233363390E-1
4.287364323E0,4.272082448E-1,-5.367782712E-1,7.062321305E-1
4.289754635E0,3.905563354E-1,-5.135654211E-1,6.830192804E-1
4.292145885E0,3.392437100E-1,-5.111219883E-1,6.561412215E-1
4.294537813E0,2.744920552E-1,-5.208957791E-1,6.329283714E-1
4.296928906E0,2.097404003E-1,-5.331131220E-1,6.158241630E-1
4.299319323E0,1.486539394E-1,-5.502173305E-1,6.060503125E-1
4.301710521E0,8.878918737E-2,-5.734301805E-1,5.889461040E-1
4.304102500E0,4.236346856E-2,-5.978647470E-1,5.657332540E-1
4.306493594E0,5.711585749E-3,-6.198558807E-1,5.437421203E-1
4.308884010E0,-1.505781524E-2,-6.394035816E-1,5.193075538E-1
4.311275208E0,-1.994473301E-2,-6.577295065E-1,5.009816289E-1
4.313667135E0,-8.949168026E-3,-6.675033569E-1,4.863208532E-1
4.316058333E0,1.792887971E-2,-6.760554314E-1,4.741035700E-1
4.318448646E0,5.702422187E-2,-6.919379234E-1,4.655514359E-1
4.320839844E0,1.058933958E-1,-7.127073407E-1,4.606645405E-1
4.323231823E0,1.633146852E-1,-7.444722652E-1,4.545558989E-1
4.325622917E0,2.158490568E-1,-7.823458910E-1,4.557776153E-1
4.328013333E0,2.659399509E-1,-8.385454416E-1,4.594427943E-1
4.330404531E0,3.025918305E-1,-9.179578424E-1,4.667731822E-1
4.332796458E0,3.221395016E-1,-1.005922318E0,4.728818536E-1
4.335187656E0,3.282481432E-1,-1.093886852E0,4.789904952E-1
4.337577969E0,3.209177852E-1,-1.184294820E0,4.850991368E-1
4.339969219E0,3.025918305E-1,-1.280811429E0,4.863208532E-1
4.342361146E0,2.781572342E-1,-1.371219397E0,4.838774204E-1
4.344752240E0,2.415053695E-1,-1.450631857E0,4.826556444E-1
4.347142656E0,2.036317587E-1,-1.519048691E0,4.765470028E-1
4.349533854E0,1.620929539E-1,-1.571583033E0,4.679949284E-1
4.351925781E0,1.229976043E-1,-1.611900091E0,4.557776153E-1
4.354316979E0,8.145880699E-2,-1.635113001E0,4.447820485E-1
4.356707292E0,4.358519986E-2,-1.643665075E0,4.337864816E-1
4.359098542E0,2.046397189E-3,-1.642443419E0,4.227909148E-1
4.361490469E0,-4.315759242E-2,-1.646108508E0,4.179039896E-1
4.363881563E0,-9.447023273E-2,-1.643665075E0,4.179039896E-1
4.366271979E0,-1.531132311E-1,-1.643665075E0,4.203474522E-1
4.368663177E0,-2.141997069E-1,-1.643665075E0,4.240126610E-1
4.371055156E0,-2.777296603E-1,-1.652217150E0,4.215691984E-1
4.373446250E0,-3.363726735E-1,-1.650995493E0,4.240126610E-1
4.375836667E0,-3.962374032E-1,-1.647330284E0,4.264560938E-1
4.378227865E0,-4.487717748E-1,-1.637556434E0,4.276778400E-1
4.380619792E0,-4.939757586E-1,-1.622895718E0,4.325647652E-1
4.383010990E0,-5.306276083E-1,-1.608235002E0,4.350082278E-1
4.385401302E0,-5.587273836E-1,-1.596017599E0,4.313430190E-1
4.387792500E0,-5.746098757E-1,-1.587465525E0,4.252343774E-1
4.390184479E0,-5.831619501E-1,-1.592352509E0,4.203474522E-1
4.392575573E0,-5.843836665E-1,-1.603348017E0,4.093518853E-1
4.394965990E0,-5.758315921E-1,-1.616787076E0,4.044649899E-1
4.397357188E0,-5.599491000E-1,-1.630226016E0,4.032432437E-1
4.399749115E0,-5.281841159E-1,-1.647330284E0,4.093518853E-1
4.402140313E0,-4.927540421E-1,-1.666877985E0,4.142388105E-1
4.404530625E0,-4.536587000E-1,-1.696199417E0,4.166822731E-1
4.406921875E0,-4.047895074E-1,-1.713303685E0,4.179039896E-1
4.409313802E0,-3.498117030E-1,-1.729186177E0,4.179039896E-1
4.411704896E0,-2.936121523E-1,-1.741403461E0,4.166822731E-1
4.414095313E0,-2.325256467E-1,-1.746290326E0,4.130170941E-1
4.416486510E0,-1.665522605E-1,-1.756064177E0,4.020215273E-1
4.418878438E0,-9.447023273E-2,-1.768281460E0,3.946911395E-1
4.421269635E0,-1.872300357E-2,-1.778055310E0,3.885824978E-1
4.423659948E0,5.580249056E-2,-1.790272593E0,3.812521100E-1
4.426051198E0,1.315497160E-1,-1.786607385E0,3.812521100E-1
4.428443125E0,1.950796545E-1,-1.784163952E0,3.898042142E-1
4.430834219E0,2.500574887E-1,-1.780498743E0,3.922476768E-1
4.433224635E0,3.001483679E-1,-1.775611877E0,3.946911395E-1
4.435615833E0,3.416871727E-1,-1.764616370E0,3.995780647E-1
4.438007813E0,3.685652316E-1,-1.758507609E0,4.020215273E-1
4.440398906E0,3.881129026E-1,-1.756064177E0,4.032432437E-1
4.442789271E0,4.015519023E-1,-1.748733878E0,3.995780647E-1
4.445180521E0,4.088822901E-1,-1.737738252E0,3.959128857E-1
4.447572448E0,4.113257527E-1,-1.724299192E0,3.946911395E-1
4.449963646E0,4.174343944E-1,-1.705973268E0,3.959128857E-1
4.452353958E0,4.186561108E-1,-1.680316925E0,3.971346021E-1
4.454745156E0,4.198778570E-1,-1.655882359E0,3.959128857E-1
4.457137135E0,4.259864986E-1,-1.626560926E0,4.007997811E-1
4.459528229E0,4.333168864E-1,-1.594795942E0,4.007997811E-1
4.461918646E0,4.394255280E-1,-1.570361376E0,4.007997811E-1
4.464309844E0,4.467559159E-1,-1.552035451E0,4.007997811E-1
4.466701771E0,4.565297365E-1,-1.533709407E0,3.995780647E-1
4.469092969E0,4.699687660E-1,-1.506831408E0,4.007997811E-1
4.471483281E0,4.870729744E-1,-1.479953408E0,4.044649899E-1
4.473874531E0,5.029554963E-1,-1.451853633E0,4.117953479E-1
4.476266458E0,5.237249136E-1,-1.422532082E0,4.191257358E-1
4.478657552E0,5.457160473E-1,-1.385880232E0,4.313430190E-1
4.481047969E0,5.689288974E-1,-1.350450039E0,4.435603321E-1
4.483439167E0,5.945852399E-1,-1.313798189E0,4.594427943E-1
4.485831094E0,6.214632988E-1,-1.286920071E0,4.679949284E-1
4.488222292E0,6.458978653E-1,-1.258820295E0,4.741035700E-1
4.490612604E0,6.678889990E-1,-1.233163953E0,4.838774204E-1
4.493003854E0,6.911018491E-1,-1.203842521E0,4.887642860E-1
4.495395781E0,7.155364156E-1,-1.168412328E0,4.960947037E-1
4.497786875E0,7.399710417E-1,-1.134203911E0,5.022033453E-1
4.500177292E0,7.680708170E-1,-1.097552061E0,5.070902705E-1
4.502568490E0,7.912836671E-1,-1.063343644E0,5.095337033E-1
4.504960469E0,8.120530844E-1,-1.035243869E0,5.070902705E-1
4.507351563E0,8.340442181E-1,-1.005922318E0,5.083119869E-1
4.509741927E0,8.560353518E-1,-9.753791690E-1,5.034250617E-1
4.512133177E0,8.792482018E-1,-9.460576177E-1,5.046467781E-1
4.514525104E0,9.036827683E-1,-9.130709767E-1,5.070902705E-1
4.516916198E0,9.268956184E-1,-8.825277090E-1,5.083119869E-1
4.519306615E0,9.513302445E-1,-8.519845009E-1,5.119771957E-1
4.521697813E0,9.794300199E-1,-8.214412332E-1,5.144206285E-1
4.524089792E0,1.006308079E0,-7.933414578E-1,5.168640614E-1
4.526480885E0,1.036851287E0,-7.713503242E-1,5.205292702E-1
4.528871250E0,1.071059704E0,-7.530243993E-1,5.254161954E-1
4.531262500E0,1.101602912E0,-7.346984744E-1,5.290814042E-1
4.533654427E0,1.130924463E0,-7.237029076E-1,5.315248370E-1
4.536045625E0,1.159024239E0,-7.127073407E-1,5.364117622E-1
4.538435938E0,1.188345790E0,-7.090421319E-1,5.412986875E-1
4.540827188E0,1.215223789E0,-6.980465651E-1,5.437421203E-1
4.543219115E0,1.238436699E0,-6.956031322E-1,5.510725379E-1
4.545610208E0,1.260427713E0,-6.956031322E-1,5.522942543E-1
4.548000625E0,1.278753757E0,-7.004900575E-1,5.547376871E-1
4.550391823E0,1.298301339E0,-7.053769231E-1,5.608463287E-1
4.552783750E0,1.311740398E0,-7.151507735E-1,5.681767464E-1
4.555174948E0,1.323957682E0,-7.224811316E-1,5.730636120E-1
4.557565260E0,1.334953308E0,-7.310332656E-1,5.755071044E-1
4.559956510E0,1.341061950E0,-7.408071160E-1,5.828374624E-1
4.562348438E0,1.344727159E0,-7.518026829E-1,5.865026712E-1
4.564739531E0,1.344727159E0,-7.689068913E-1,5.877243876E-1
4.567129948E0,1.341061950E0,-7.860110998E-1,5.865026712E-1
4.569521146E0,1.330066323E0,-8.043370247E-1,5.865026712E-1
4.571913073E0,1.317849040E0,-8.251064420E-1,5.865026712E-1
4.574304271E0,1.298301339E0,-8.495410085E-1,5.877243876E-1
4.576694583E0,1.275088549E0,-8.751973510E-1,5.889461040E-1
4.579085833E0,1.248210430E0,-9.045188427E-1,5.865026712E-1
4.581477760E0,1.214002013E0,-9.313969016E-1,5.877243876E-1
4.583868854E0,1.176128387E0,-9.570532441E-1,5.828374624E-1
4.586259271E0,1.133367896E0,-9.827095866E-1,5.816157460E-1
4.588650469E0,1.090607405E0,-1.002257109E0,5.803940296E-1
4.591042448E0,1.044181705E0,-1.015696168E0,5.779505372E-1
4.593433542E0,9.916473031E-1,-1.027913451E0,5.755071044E-1
4.595823906E0,9.415563941E-1,-1.031578660E0,5.657332540E-1
4.598215156E0,8.853568435E-1,-1.030356884E0,5.571811795E-1
4.600607083E0,8.279355764E-1,-1.030356884E0,5.449638367E-1
4.602998177E0,7.729577422E-1,-1.019361377E0,5.339683294E-1
4.605388594E0,7.143146992E-1,-1.003478885E0,5.193075538E-1
4.607779792E0,6.544499397E-1,-9.875964522E-1,4.997598529E-1
4.610171771E0,5.945852399E-1,-9.717139602E-1,4.753252864E-1
4.612562865E0,5.359421968E-1,-9.497228265E-1,4.496689737E-1
4.614953281E0,4.760774076E-1,-9.277316928E-1,4.191257358E-1
4.617344479E0,4.210995734E-1,-9.045188427E-1,3.885824978E-1
4.619736406E0,3.661217690E-1,-8.849712014E-1,3.507088721E-1
4.622127604E0,3.135873973E-1,-8.678669333E-1,3.128352761E-1
4.624517917E0,2.659399509E-1,-8.532062173E-1,2.712964714E-1
4.626909115E0,2.195142359E-1,-8.458758593E-1,2.260924876E-1
4.629301094E0,1.828623563E-1,-8.238847256E-1,1.808884889E-1
4.631692188E0,1.462104768E-1,-8.116673827E-1,1.356845051E-1
4.634082604E0,1.107803136E-1,-8.104456663E-1,8.559359610E-2
4.636473802E0,7.535015792E-2,-8.104456663E-1,2.939404547E-2
4.638865729E0,4.114173725E-2,-8.202195168E-1,-2.558377758E-2
4.641256927E0,9.376773611E-3,-8.361020088E-1,-8.300507069E-2
4.643647240E0,-1.994473301E-2,-8.495410085E-1,-1.367611587E-1
4.646038490E0,-4.804451019E-2,-8.617582917E-1,-1.892955303E-1
4.648430417E0,-7.125737518E-2,-8.617582917E-1,-2.369429767E-1
4.650821510E0,-9.447023273E-2,-8.739756346E-1,-2.797034979E-1
4.653211927E0,-1.176830903E-1,-8.886363506E-1,-3.200205863E-1
4.655603125E0,-1.433394104E-1,-9.032971263E-1,-3.542290032E-1
4.657995052E0,-1.689957231E-1,-9.167361259E-1,-3.908808827E-1
4.660386250E0,-1.958737671E-1,-9.240665436E-1,-4.177589417E-1
4.662776563E0,-2.141997069E-1,-9.289534092E-1,-4.458587170E-1
4.665167813E0,-2.374125719E-1,-9.460576177E-1,-4.739584923E-1
4.667559740E0,-2.606254518E-1,-9.656053185E-1,-4.996147752E-1
4.669950833E0,-2.862817645E-1,-9.839312434E-1,-5.191624761E-1
4.672341250E0,-3.094946146E-1,-9.888182282E-1,-5.387101769E-1
4.674732448E0,-3.314857483E-1,-9.937050343E-1,-5.582578182E-1
4.677124427E0,-3.559203446E-1,-1.001035452E0,-5.753620267E-1
4.679515521E0,-3.815766573E-1,-1.012030959E0,-5.875793099E-1
4.681905885E0,-4.096764326E-1,-1.020583034E0,-6.022400856E-1
4.684297135E0,-4.377762079E-1,-1.024248242E0,-6.120139360E-1
4.686689063E0,-4.707629085E-1,-1.031578660E0,-6.230095029E-1
4.689080156E0,-5.135233998E-1,-1.067008853E0,-6.474440694E-1
4.691470573E0,-5.636143088E-1,-1.099995494E0,-6.657699943E-1
4.693861771E0,-6.112617254E-1,-1.107325912E0,-6.804307699E-1
4.696253750E0,-6.552439928E-1,-1.110991120E0,-6.926480532E-1
4.698644844E0,-6.943393350E-1,-1.104882360E0,-7.024219036E-1
4.701035260E0,-7.334346771E-1,-1.091443419E0,-7.134174705E-1
4.703426458E0,-7.713083029E-1,-1.078004360E0,-7.256347537E-1
4.705818385E0,-7.994080782E-1,-1.042574167E0,-7.354086041E-1
4.708209479E0,-8.213992119E-1,-9.814878106E-1,-7.451824546E-1
4.710599896E0,-8.385034204E-1,-9.142926931E-1,-7.500693202E-1
4.712991094E0,-8.494989872E-1,-8.409889340E-1,-7.512910962E-1
4.715383073E0,-8.629379869E-1,-7.701286077E-1,-7.573997378E-1
4.717774167E0,-8.824856877E-1,-7.114855647E-1,-7.635083795E-1
4.720164583E0,-9.105854630E-1,-6.675033569E-1,-7.720604539E-1
4.722555781E0,-9.399069548E-1,-6.308514476E-1,-7.842777967E-1
4.724947708E0,-9.716719389E-1,-5.990864635E-1,-8.013820052E-1
4.727338906E0,-1.004658580E0,-5.685432553E-1,-8.160427213E-1
4.729729219E0,-1.038866997E0,-5.392217636E-1,-8.282600045E-1
4.732120417E0,-1.069410324E0,-5.062350631E-1,-8.429207802E-1
4.734512396E0,-1.099953532E0,-4.695831537E-1,-8.575815558E-1
4.736903490E0,-1.129274964E0,-4.353747368E-1,-8.685771227E-1
4.739293906E0,-1.157374740E0,-3.987228572E-1,-8.759074807E-1
4.741685104E0,-1.187918067E0,-3.620709777E-1,-8.820161223E-1
4.744077031E0,-1.214796066E0,-3.266408145E-1,-8.869030476E-1
4.746468229E0,-1.246561050E0,-2.960975766E-1,-8.893464804E-1
4.748858542E0,-1.278326035E0,-2.728847265E-1,-8.856813312E-1
4.751249792E0,-1.310091019E0,-2.496718764E-1,-8.746857643E-1
4.753641719E0,-1.339412451E0,-2.325676680E-1,-8.539163470E-1
4.756032813E0,-1.369955659E0,-2.252372801E-1,-8.245948553E-1
4.758423229E0,-1.399277210E0,-2.215721011E-1,-7.793908715E-1
4.760814427E0,-1.431042194E0,-2.289024591E-1,-7.256347537E-1
4.763206354E0,-1.466472387E0,-2.472284138E-1,-6.486657858E-1
4.765597552E0,-1.503124237E0,-2.765499055E-1,-5.704751015E-1
4.767987865E0,-1.545884728E0,-2.899889350E-1,-4.971713424E-1
4.770379115E0,-1.595975637E0,-2.618891597E-1,-4.336414337E-1
4.772771042E0,-1.647288322E0,-1.971375048E-1,-3.823287785E-1
