"Time (s)","Gyroscope x (rad/s)","Gyroscope y (rad/s)","Gyroscope z (rad/s)"
0.000000000E0,-1.049362183E0,-6.236114502E-1,2.410430908E-1
4.821778000E-3,-1.049362183E0,-6.236114502E-1,2.410430908E-1
9.735108000E-3,-1.049362183E0,-6.236114502E-1,2.410430908E-1
1.461792000E-2,-1.049362183E0,-6.236114502E-1,2.410430908E-1
1.950073300E-2,-1.049362183E0,-6.236114502E-1,2.410430908E-1
2.438354500E-2,-1.049362183E0,-6.236114502E-1,2.410430908E-1
2.926635800E-2,-1.049362183E0,-6.236114502E-1,2.410430908E-1
3.414917000E-2,-1.049362183E0,-6.236114502E-1,2.410430908E-1
3.903198300E-2,-1.049362183E0,-6.236114502E-1,2.410430908E-1
4.388427800E-2,-1.049362183E0,-6.236114502E-1,2.410430908E-1
4.879760800E-2,-1.049362183E0,-6.236114502E-1,2.410430908E-1
5.368042000E-2,-1.049362183E0,-6.236114502E-1,2.410430908E-1
5.853271500E-2,-1.049362183E0,-6.236114502E-1,2.410430908E-1
6.341552800E-2,-1.049362183E0,-6.236114502E-1,2.410430908E-1
6.829834000E-2,-1.049362183E0,-6.236114502E-1,2.410430908E-1
7.318115300E-2,-1.049362183E0,-6.236114502E-1,2.410430908E-1
7.806396500E-2,-1.049362183E0,-6.236114502E-1,2.410430908E-1
8.294677800E-2,-1.049362183E0,-6.236114502E-1,2.410430908E-1
8.782959000E-2,-2.378631592E0,-2.651718140E0,-1.786193848E-1
9.271240300E-2,-2.208801270E0,-2.246093750E0,-3.612670898E-1
9.759521500E-2,-2.018814087E0,-1.633392334E0,-4.736633301E-1
1.024780280E-1,-1.830673218E0,-1.286422729E0,-6.074523926E-1
1.073608400E-1,-1.619308472E0,-1.253433228E0,-7.180175781E-1
1.122436530E-1,-1.435440063E0,-1.351165771E0,-7.949829102E-1
1.171264650E-1,-1.313262939E0,-1.514266968E0,-8.230895996E-1
1.220092780E-1,-1.238739014E0,-1.775726318E0,-7.821655273E-1
1.268920900E-1,-1.212463379E0,-2.131866455E0,-6.807556152E-1
1.317749030E-1,-1.223464966E0,-2.474563599E0,-5.738525391E-1
1.366577150E-1,-1.232025146E0,-2.671875000E0,-4.706115723E-1
1.415405280E-1,-1.216751099E0,-2.725006104E0,-3.588256836E-1
1.464233400E-1,-1.189254761E0,-2.710968018E0,-2.885742188E-1
1.512756350E-1,-1.155044556E0,-2.663314819E0,-2.757415771E-1
1.561584480E-1,-1.104354858E0,-2.593078613E0,-2.934570312E-1
1.610412600E-1,-1.043258667E0,-2.495330811E0,-3.252258301E-1
1.659240730E-1,-9.968261719E-1,-2.373764038E0,-3.624877930E-1
1.708068850E-1,-9.766845703E-1,-2.230819702E0,-4.083099365E-1
1.756896980E-1,-9.840087891E-1,-2.076263428E0,-4.553375244E-1
1.805725100E-1,-1.010269165E0,-1.930892944E0,-5.164337158E-1
1.854553230E-1,-1.042037964E0,-1.827026367E0,-5.964508057E-1
1.903381350E-1,-1.056701660E0,-1.792221069E0,-6.862487793E-1
1.952209480E-1,-1.031036377E0,-1.843536377E0,-7.742156982E-1
2.001037600E-1,-9.559020996E-1,-1.973648071E0,-8.688964844E-1
2.049865730E-1,-8.917694092E-1,-1.880798340E0,-9.764099121E-1
2.098693850E-1,-9.772796631E-1,-1.040847778E0,-1.124862671E0
2.147521980E-1,-1.126953125E0,-3.511657715E-1,-1.318496704E0
2.196350100E-1,-1.273559570E0,2.163238525E-1,-1.460830688E0
2.245178230E-1,-1.169097900E0,3.458251953E-1,-1.590942383E0
2.294006350E-1,-9.058074951E-1,2.212066650E-1,-1.686248779E0
2.342834480E-1,-6.364288330E-1,1.430053711E-1,-1.789489746E0
2.391662600E-1,-3.706970215E-1,1.063537598E-1,-1.914718628E0
2.440490730E-1,-1.354980469E-1,1.051330566E-1,-1.999023438E0
2.489013670E-1,1.109313965E-2,1.454467773E-1,-2.022232056E0
2.537841800E-1,6.118774414E-2,1.197967529E-1,-2.008789062E0
2.586669920E-1,4.042053223E-2,-1.397705078E-2,-1.983139038E0
2.635498050E-1,-1.882934570E-2,-2.265472412E-1,-1.973968506E0
2.684326170E-1,-1.177978516E-1,-3.945465088E-1,-1.983139038E0
2.733154300E-1,-2.851715088E-1,-4.623565674E-1,-2.022827148E0
2.781982420E-1,-5.081329346E-1,-4.348602295E-1,-2.066818237E0
2.830810550E-1,-7.390441895E-1,-3.126983643E-1,-2.048492432E0
2.879638670E-1,-9.638519287E-1,-1.269836426E-1,-1.947708130E0
2.928466800E-1,-1.176437378E0,2.450561523E-2,-1.796203613E0
2.977294920E-1,-1.357864380E0,1.008605957E-1,-1.620880127E0
3.026123050E-1,-1.504470825E0,1.295623779E-1,-1.425399780E0
3.074951170E-1,-1.646194458E0,1.362915039E-1,-1.191436768E0
3.123779300E-1,-1.724380493E0,1.601104736E-1,-9.043273926E-1
3.172607420E-1,-1.578384399E0,1.973724365E-1,-5.512542725E-1
3.221435550E-1,-1.428726196E0,1.387329102E-1,-2.739105225E-1
3.270263670E-1,-1.287002563E0,-2.069091797E-2,-1.108093262E-1
3.319091800E-1,-1.116561890E0,-2.595367432E-1,-2.896118164E-2
3.367919920E-1,-9.174194336E-1,-5.661926270E-1,-1.429748535E-2
3.416748050E-1,-7.274475098E-1,-9.828186035E-1,-7.537841797E-2
3.465271000E-1,-5.655670166E-1,-1.542373657E0,-2.201538086E-1
3.514099120E-1,-4.262847900E-1,-2.245483398E0,-4.015808105E-1
3.562927250E-1,-2.870025635E-1,-3.009078979E0,-5.683441162E-1
3.611755370E-1,-1.269531250E-1,-3.729278564E0,-6.752624512E-1
3.660583500E-1,6.118774414E-2,-4.356643677E0,-6.960296631E-1
3.709411620E-1,2.688751221E-1,-4.897888184E0,-6.251678467E-1
3.758239750E-1,4.759674072E-1,-5.348098755E0,-4.767303467E-1
3.807067870E-1,6.580047607E-1,-5.702392578E0,-2.629089355E-1
3.855896000E-1,8.033905029E-1,-5.973632812E0,5.249023438E-3
3.904724120E-1,9.041900635E-1,-6.176437378E0,3.155670166E-1
3.953552250E-1,9.597778320E-1,-6.339538574E0,6.509399414E-1
4.002380370E-1,9.799346924E-1,-6.473922729E0,9.869079590E-1
4.051208500E-1,9.890899658E-1,-6.563735962E0,1.301513672E0
4.100036620E-1,1.004364014E0,-6.597930908E0,1.582504272E0
4.148864750E-1,1.028793335E0,-6.602203369E0,1.825027466E0
4.197692870E-1,1.066070557E0,-6.601608276E0,2.030273438E0
4.246521000E-1,1.118606567E0,-6.619308472E0,2.193374634E0
4.295349120E-1,1.190673828E0,-6.694442749E0,2.325942993E0
4.344177250E-1,1.298812866E0,-6.817230225E0,2.443222046E0
4.393005370E-1,1.460083008E0,-6.936965942E0,2.555633545E0
4.441528320E-1,1.675094604E0,-7.033493042E0,2.684524536E0
4.490356450E-1,1.936553955E0,-7.102508545E0,2.844558716E0
4.539184570E-1,2.224273682E0,-7.142837524E0,3.024780273E0
4.588012700E-1,2.497940063E0,-7.142837524E0,3.186660767E0
4.636840820E-1,2.708694458E0,-7.113510132E0,3.296005249E0
4.685668950E-1,2.830261230E0,-7.089065552E0,3.352813721E0
4.734497070E-1,2.863845825E0,-7.062805176E0,3.355865479E0
4.783325200E-1,2.825378418E0,-6.990112305E0,3.305175781E0
4.832153320E-1,2.721527100E0,-6.906417847E0,3.219039917E0
4.880981450E-1,2.561477661E0,-6.863662720E0,3.127410889E0
4.929809570E-1,2.410598755E0,-6.761032104E0,3.074264526E0
4.978637700E-1,2.304916382E0,-6.591827393E0,3.074859619E0
5.027465820E-1,2.251159668E0,-6.392669678E0,3.123123169E0
5.076293950E-1,2.249938965E0,-6.184982300E0,3.203155518E0
5.125122070E-1,2.295745850E0,-5.965072632E0,3.291732788E0
5.173950200E-1,2.374542236E0,-5.687744141E0,3.368087769E0
5.222778320E-1,2.460067749E0,-5.346878052E0,3.402297974E0
5.271606450E-1,2.520553589E0,-4.963241577E0,3.395568848E0
5.320434570E-1,2.533370972E0,-4.549682617E0,3.372360229E0
5.368957520E-1,2.482681274E0,-4.090927124E0,3.341827393E0
5.417785650E-1,2.373321533E0,-3.580841064E0,3.292953491E0
5.466613770E-1,2.218170166E0,-3.028625488E0,3.215972900E0
5.515441900E-1,2.030624390E0,-2.457458496E0,3.096862793E0
5.564270020E-1,1.822311401E0,-1.891174316E0,2.939865112E0
5.613098150E-1,1.617065430E0,-1.351776123E0,2.755386353E0
5.661926270E-1,1.459457397E0,-8.826293945E-1,2.548904419E0
5.710754400E-1,1.367218018E0,-5.362701416E-1,2.321060181E0
5.759582520E-1,1.320190430E0,-3.719482422E-1,2.076095581E0
5.808410650E-1,1.320190430E0,-3.572845459E-1,1.827468872E0
5.857238770E-1,1.358062744E0,-4.373016357E-1,1.585571289E0
5.906066900E-1,1.412429810E0,-5.973510742E-1,1.361984253E0
5.954895020E-1,1.469238281E0,-8.471984863E-1,1.156738281E0
6.003723150E-1,1.525436401E0,-1.155685425E0,9.753112793E-1
6.052551270E-1,1.585296631E0,-1.433639526E0,8.329772949E-1
6.101379400E-1,1.642105103E0,-1.617507935E0,7.578277588E-1
6.150207520E-1,1.681213379E0,-1.684707642E0,7.621154785E-1
6.199035650E-1,1.701370239E0,-1.656600952E0,8.195343018E-1
6.247863770E-1,1.711151123E0,-1.572311401E0,8.879547119E-1
6.296386720E-1,1.725814819E0,-1.483123779E0,9.447631836E-1
6.345214850E-1,1.758178711E0,-1.426910400E0,9.759216309E-1
6.394042970E-1,1.808273315E0,-1.410430908E0,9.795837402E-1
6.442871100E-1,1.887680054E0,-1.436080933E0,9.649200439E-1
6.491699220E-1,1.997039795E0,-1.483718872E0,9.490356445E-1
6.540527350E-1,2.141189575E0,-1.535659790E0,9.368133545E-1
6.589355470E-1,2.317138672E0,-1.584518433E0,9.404907227E-1
6.638183600E-1,2.513214111E0,-1.651107788E0,9.667510986E-1
6.687011720E-1,2.716033936E0,-1.750671387E0,1.018676758E0
6.735839850E-1,2.915161133E0,-1.868576050E0,1.084045410E0
6.784667970E-1,3.103317261E0,-1.966323853E0,1.150024414E0
6.833496100E-1,3.265808105E0,-2.007247925E0,1.192779541E0
6.882324220E-1,3.396545410E0,-2.000534058E0,1.215988159E0
6.931152350E-1,3.494888306E0,-1.977310181E0,1.224548340E0
6.979980470E-1,3.552307129E0,-1.934555054E0,1.215377808E0
7.028808600E-1,3.576736450E0,-1.902175903E0,1.204376221E0
7.077636720E-1,3.566360474E0,-1.897293091E0,1.190933228E0
7.126464850E-1,3.516876221E0,-1.944931030E0,1.141464233E0
7.175292970E-1,3.444793701E0,-2.064056396E0,1.024169922E0
7.224121100E-1,3.360488892E0,-2.220443726E0,8.451843262E-1
7.272644050E-1,3.259094238E0,-2.404312134E0,6.411590576E-1
7.321472170E-1,3.133255005E0,-2.590621948E0,4.572906494E-1
7.370300300E-1,2.965866089E0,-2.719512939E0,3.106842041E-1
7.419128420E-1,2.774063110E0,-2.707305908E0,1.988830566E-1
7.467956550E-1,2.592620850E0,-2.521591187E0,1.298522949E-1
7.516784670E-1,2.445404053E0,-2.189895630E0,1.127471924E-1
7.565612800E-1,2.326904297E0,-1.768997192E0,1.359710693E-1
7.614440920E-1,2.242599487E0,-1.329177856E0,1.836242676E-1
7.663269050E-1,2.205947876E0,-9.357757568E-1,2.373809814E-1
7.712097170E-1,2.223663330E0,-6.346130371E-1,2.752532959E-1
7.760925300E-1,2.289627075E0,-4.501342773E-1,2.978515625E-1
7.809753420E-1,2.398986816E0,-3.939361572E-1,3.161773682E-1
7.858581550E-1,2.534591675E0,-4.366912842E-1,3.455047607E-1
7.907409670E-1,2.664718628E0,-5.539855957E-1,3.974151611E-1
7.956237800E-1,2.738021851E0,-7.409057617E-1,4.517974854E-1
8.005065920E-1,2.720916748E0,-9.712066650E-1,4.841613770E-1
8.053894050E-1,2.610946655E0,-1.199050903E0,4.908905029E-1
8.102722170E-1,2.413635254E0,-1.385986328E0,4.756164551E-1
8.151550300E-1,2.140594482E0,-1.506332397E0,4.414062500E-1
8.200378420E-1,1.811325073E0,-1.575363159E0,3.882598877E-1
8.248901370E-1,1.494293213E0,-1.693252563E0,3.265686035E-1
8.297729500E-1,1.253601074E0,-1.910720825E0,2.801361084E-1
8.346557620E-1,1.056900024E0,-2.070159912E0,2.557067871E-1
8.395385750E-1,9.145660400E-1,-2.133087158E0,2.386016846E-1
8.444213870E-1,8.247680664E-1,-2.115356445E0,2.123260498E-1
8.493042000E-1,7.557525635E-1,-1.995635986E0,1.836242676E-1
8.541870120E-1,6.860961914E-1,-1.791000366E0,1.579589844E-1
8.590698250E-1,6.109771729E-1,-1.577194214E0,1.164245605E-1
8.639526370E-1,5.285034180E-1,-1.406753540E0,5.654907227E-2
8.688354500E-1,4.503173828E-1,-1.290695190E0,-8.193969727E-3
8.737182620E-1,4.014434814E-1,-1.234481812E0,-6.195068359E-2
8.786010750E-1,3.990020752E-1,-1.227157593E0,-9.858703613E-2
8.834838870E-1,4.460296631E-1,-1.252212524E0,-1.101989746E-1
8.883667000E-1,5.285034180E-1,-1.274200439E0,-9.736633301E-2
8.932495120E-1,6.183013916E-1,-1.264419556E0,-6.071472168E-2
8.981323250E-1,6.989288330E-1,-1.208221436E0,-1.246643066E-2
9.030151370E-1,7.661285400E-1,-1.119644165E0,3.700256348E-2
9.078979500E-1,8.211059570E-1,-1.023132324E0,7.794189453E-2
9.127807620E-1,8.712005615E-1,-9.516601562E-1,1.115264893E-1
9.176330570E-1,9.280090332E-1,-9.510498047E-1,1.439208984E-1
9.225158690E-1,9.927673340E-1,-1.032287598E0,1.756744385E-1
9.273986820E-1,1.070953369E0,-1.188064575E0,2.043914795E-1
9.322814940E-1,1.171752930E0,-1.401870728E0,2.294311523E-1
9.371643070E-1,1.311630249E0,-1.652328491E0,2.630310059E-1
9.420471190E-1,1.496734619E0,-1.932113647E0,3.058013916E-1
9.469299320E-1,1.708084106E0,-2.237548828E0,3.455047607E-1
9.518127440E-1,1.917007446E0,-2.550308228E0,3.619842529E-1
9.566955570E-1,2.105758667E0,-2.827636719E0,3.589324951E-1
9.615783690E-1,2.254821777E0,-3.042663574E0,3.540496826E-1
9.664611820E-1,2.352554321E0,-3.180725098E0,3.626098633E-1
9.713439940E-1,2.399597168E0,-3.230819702E0,3.937530518E-1
9.762268070E-1,2.404479980E0,-3.183776855E0,4.395751953E-1
9.811096190E-1,2.383102417E0,-3.059768677E0,4.878387451E-1
9.859924320E-1,2.347061157E0,-2.900955200E0,5.446319580E-1
9.908752440E-1,2.303070068E0,-2.750061035E0,6.185607910E-1
9.957580570E-1,2.260314941E0,-2.640716553E0,6.924743652E-1
1.000640869E0,2.232208252E0,-2.568023682E0,7.462310791E-1
1.005523682E0,2.229766846E0,-2.501434326E0,7.712707520E-1
1.010406494E0,2.258483887E0,-2.425689697E0,7.663879395E-1
1.015258789E0,2.317733765E0,-2.343826294E0,7.327880859E-1
1.020141602E0,2.389205933E0,-2.271133423E0,6.753692627E-1
1.025024414E0,2.453353882E0,-2.230209351E0,6.063385010E-1
1.029907227E0,2.495498657E0,-2.217376709E0,5.305938721E-1
1.034790039E0,2.505279541E0,-2.194778442E0,4.346923828E-1
1.039672852E0,2.475341797E0,-2.139801025E0,3.167877197E-1
1.044555664E0,2.401428223E0,-2.073211670E0,1.933898926E-1
1.049438477E0,2.284149170E0,-2.032897949E0,9.626770020E-2
1.054321289E0,2.133865356E0,-2.056716919E0,4.129028320E-2
1.059204102E0,1.965866089E0,-2.169738770E0,2.662658691E-2
1.064086914E0,1.803985596E0,-2.316345215E0,4.922485352E-2
1.068969727E0,1.668991089E0,-2.430572510E0,1.060485840E-1
1.073852539E0,1.574920654E0,-2.506317139E0,1.933898926E-1
1.078735352E0,1.529098511E0,-2.575347900E0,2.984619141E-1
1.083618164E0,1.526046753E0,-2.637664795E0,4.047546387E-1
1.088500977E0,1.552322388E0,-2.674926758E0,4.976043701E-1
1.093383789E0,1.588363647E0,-2.675537109E0,5.623626709E-1
1.098266602E0,1.601791382E0,-2.653549194E0,6.093902588E-1
1.103149414E0,1.568817139E0,-2.623001099E0,6.484832764E-1
1.108032227E0,1.494888306E0,-2.586959839E0,6.765899658E-1
1.112884522E0,1.387985229E0,-2.547866821E0,6.936950684E-1
1.117767334E0,1.254821777E0,-2.495330811E0,7.016296387E-1
1.122650147E0,1.113708496E0,-2.429962158E0,6.955261230E-1
1.127532959E0,9.860382080E-1,-2.339553833E0,6.692657471E-1
1.132415772E0,8.864593506E-1,-2.210052490E0,6.179504395E-1
1.137298584E0,8.211059570E-1,-2.059783936E0,5.421905518E-1
1.142181397E0,7.875061035E-1,-1.916229248E0,4.456787109E-1
1.147064209E0,7.814025879E-1,-1.797103882E0,3.436737061E-1
1.151947022E0,8.046112061E-1,-1.716461182E0,2.410430908E-1
1.156829834E0,8.577575684E-1,-1.667587280E0,1.384124756E-1
1.161712647E0,9.457244873E-1,-1.618118286E0,3.578186035E-2
1.166595459E0,1.067886353E0,-1.542984009E0,-6.561279297E-2
1.171478272E0,1.212677002E0,-1.452575684E0,-1.529693604E-1
1.176361084E0,1.361114502E0,-1.381103516E0,-2.177124023E-1
1.181243897E0,1.497955322E0,-1.346282959E0,-2.647552490E-1
1.186126709E0,1.603027344E0,-1.337722778E0,-2.965240479E-1
1.191009522E0,1.667160034E0,-1.346893311E0,-3.062896729E-1
1.195892334E0,1.687942505E0,-1.375000000E0,-2.989654541E-1
1.200775147E0,1.668991089E0,-1.422027588E0,-2.836914062E-1
1.205657959E0,1.625015259E0,-1.491668701E0,-2.684173584E-1
1.210510254E0,1.576141357E0,-1.583908081E0,-2.537536621E-1
1.215393067E0,1.533386230E0,-1.682876587E0,-2.342071533E-1
1.220275879E0,1.496734619E0,-1.772048950E0,-2.067260742E-1
1.225158692E0,1.457015991E0,-1.853302002E0,-1.767883301E-1
1.230041504E0,1.414871216E0,-1.951660156E0,-1.535644531E-1
1.234924317E0,1.369064331E0,-2.076889038E0,-1.437988281E-1
1.239807129E0,1.317138672E0,-2.222885132E0,-1.474609375E-1
1.244689942E0,1.269485474E0,-2.359710693E0,-1.505279541E-1
1.249572754E0,1.248718262E0,-2.445236206E0,-1.431884766E-1
1.254455567E0,1.257873535E0,-2.467834473E0,-1.395263672E-1
1.259338379E0,1.285980225E0,-2.433013916E0,-1.535644531E-1
1.264221192E0,1.311630249E0,-2.360931396E0,-1.859588623E-1
1.269104004E0,1.326904297E0,-2.233261108E0,-2.213745117E-1
1.273986817E0,1.342788696E0,-2.006637573E0,-2.494812012E-1
1.278869629E0,1.367218018E0,-1.635223389E0,-2.702484131E-1
1.283752442E0,1.399597168E0,-1.150802612E0,-2.855224609E-1
1.288635254E0,1.411209106E0,-6.541595459E-1,-2.934570312E-1
1.293518067E0,1.371505737E0,-2.399902344E-1,-3.032379150E-1
1.298400879E0,1.273147583E0,4.039001465E-2,-3.154449463E-1
1.303283692E0,1.141204834E0,1.876068115E-1,-3.264465332E-1
1.308135987E0,1.002532959E0,2.547912598E-1,-3.331756592E-1
1.313018799E0,8.608093262E-1,2.871856689E-1,-3.246154785E-1
1.317901612E0,7.190856934E-1,2.877807617E-1,-2.861328125E-1
1.322784424E0,5.840911865E-1,2.529754639E-1,-2.213745117E-1
1.327667237E0,4.686431885E-1,1.906585693E-1,-1.425781250E-1
1.332550049E0,3.598937988E-1,9.291076660E-2,-6.071472168E-2
1.337432862E0,2.438354492E-1,-5.368041992E-2,2.050781250E-2
1.342315674E0,1.247100830E-1,-2.369384766E-1,9.931945801E-2
1.347198487E0,1.475524902E-2,-4.311981201E-1,1.750640869E-1
1.352081299E0,-7.685852051E-2,-6.254577637E-1,2.434844971E-1
1.356964112E0,-1.428375244E-1,-8.191070557E-1,2.978515625E-1
1.361846924E0,-1.831512451E-1,-1.008468628E0,3.308410645E-1
1.366729737E0,-1.849822998E-1,-1.196014404E0,3.424377441E-1
1.371612549E0,-1.379547119E-1,-1.328567505E0,3.455047607E-1
1.376495362E0,4.164123535E-2,-1.227783203E0,3.088378906E-1
1.381378174E0,3.366851807E-1,-8.795776367E-1,2.031707764E-1
1.386260987E0,5.633239746E-1,-5.008392334E-1,1.402435303E-1
1.391143799E0,6.842651367E-1,-1.624145508E-1,1.671295166E-1
1.396026612E0,7.447509766E-1,1.509552002E-1,2.416534424E-1
1.400878907E0,7.838439941E-1,4.337768555E-1,2.990722656E-1
1.405761719E0,8.345489502E-1,6.585845947E-1,3.149566650E-1
1.410644532E0,9.310607910E-1,8.125305176E-1,3.051757812E-1
1.415527344E0,1.099655151E0,9.053802490E-1,3.002929688E-1
1.420410157E0,1.326293945E0,9.078216553E-1,3.173980713E-1
1.425292969E0,1.574920654E0,7.862548828E-1,3.503875732E-1
1.430175782E0,1.820495605E0,5.492401123E-1,3.870391846E-1
1.435058594E0,2.061782837E0,2.383117676E-1,4.304046631E-1
1.439941407E0,2.293304443E0,-9.765625000E-2,4.817199707E-1
1.444824219E0,2.483276367E0,-4.715118408E-1,5.360870361E-1
1.449707032E0,2.595062256E0,-8.899536133E-1,5.635833740E-1
1.454589844E0,2.640884399E0,-1.263198853E0,5.348663330E-1
1.459472657E0,2.643341064E0,-1.535034180E0,5.116577148E-1
1.464355469E0,2.579803467E0,-1.665771484E0,5.336456299E-1
1.469238282E0,2.459472656E0,-1.583908081E0,5.672454834E-1
1.474121094E0,2.258483887E0,-1.338348389E0,6.026763916E-1
1.479003907E0,1.979309082E0,-1.007858276E0,6.625366211E-1
1.483886719E0,1.644561768E0,-6.553802490E-1,7.389068604E-1
1.488769532E0,1.309188843E0,-3.389587402E-1,8.195343018E-1
1.493652344E0,1.040405273E0,-9.950256348E-2,9.075012207E-1
1.498504639E0,8.388214111E-1,4.771423340E-2,9.936218262E-1
1.503387451E0,6.622772217E-1,1.546173096E-1,1.072433472E0
1.508270264E0,4.979553223E-1,2.908477783E-1,1.151245117E0
1.513153076E0,3.794403076E-1,4.777679443E-1,1.227600098E0
1.518035889E0,3.085784912E-1,6.304931641E-1,1.241027832E0
1.522918701E0,2.737731934E-1,7.410583496E-1,1.211715698E0
1.527801514E0,3.061370850E-1,8.467407227E-1,1.217208862E0
1.532684326E0,4.399108887E-1,9.176025391E-1,1.239807129E0
1.537567139E0,6.647186279E-1,8.943786621E-1,1.209274292E0
1.542449951E0,9.072418213E-1,8.045806885E-1,1.112136841E0
1.547332764E0,1.117385864E0,6.469726562E-1,1.027832031E0
1.552215576E0,1.269485474E0,3.439941406E-1,9.856872559E-1
1.557098389E0,1.353179932E0,-9.765625000E-2,9.789733887E-1
1.561981201E0,1.343399048E0,-6.706542969E-1,9.789733887E-1
1.566864014E0,1.291473389E0,-1.216156006E0,9.649200439E-1
1.571746826E0,1.257873535E0,-1.609573364E0,9.258270264E-1
1.576629639E0,1.245651245E0,-1.836196899E0,8.854980469E-1
1.581512451E0,1.222442627E0,-1.922332764E0,8.812408447E-1
1.586395264E0,1.175415039E0,-1.756790161E0,9.013824463E-1
1.591278076E0,1.093551636E0,-1.400039673E0,8.916168213E-1
1.596130371E0,9.713745117E-1,-9.999237061E-1,8.470306396E-1
1.601013184E0,8.009490967E-1,-6.303405762E-1,7.810516357E-1
1.605895996E0,5.376586914E-1,-3.487243652E-1,6.753692627E-1
1.610778809E0,1.809082031E-1,-1.526336670E-1,5.263214111E-1
1.615661621E0,-1.764373779E-1,4.222106934E-2,3.607635498E-1
1.620544434E0,-4.745483398E-1,2.480773926E-1,1.933898926E-1
1.625427246E0,-6.877288818E-1,4.075164795E-1,3.884887695E-2
1.630310059E0,-8.184661865E-1,5.174713135E-1,-1.114196777E-1
1.635192871E0,-8.844451904E-1,6.365966797E-1,-2.659759521E-1
1.640075684E0,-9.155883789E-1,8.119201660E-1,-4.174652100E-1
1.644958496E0,-9.436950684E-1,1.048324585E0,-5.597991943E-1
1.649841309E0,-9.369659424E-1,1.243194580E0,-6.239471436E-1
1.654724121E0,-6.669616699E-1,8.888854980E-1,-2.467346191E-2
1.659606934E0,-3.096008301E-1,3.042907715E-1,7.333984375E-1
1.664489746E0,6.607055664E-2,-2.906951904E-1,6.808624268E-1
1.669372559E0,2.108459473E-1,-6.205749512E-1,4.737854004E-1
1.674255371E0,1.815338135E-1,-6.755523682E-1,3.711547852E-1
1.679138184E0,9.844970703E-2,-6.052856445E-1,2.721862793E-1
1.684020996E0,-4.020690918E-2,-4.483032227E-1,1.469573975E-1
1.688903809E0,-2.387390137E-1,-2.613830566E-1,2.296447754E-2
1.693756104E0,-4.177246094E-1,-1.178283691E-1,-9.187316895E-2
1.698638916E0,-4.959259033E-1,-3.230285645E-2,-1.889953613E-1
1.703521729E0,-4.372711182E-1,-2.069091797E-2,-2.421417236E-1
1.708404541E0,-2.784576416E-1,-7.872009277E-2,-2.531433105E-1
1.713287354E0,-9.213256836E-2,-1.520385742E-1,-2.879638672E-1
1.718170166E0,6.973266602E-2,-1.514129639E-1,-4.034271240E-1
1.723052979E0,1.558685303E-1,-5.551147461E-2,-5.543060303E-1
1.727935791E0,1.326599121E-1,1.845550537E-1,-7.455139160E-1
1.732818604E0,8.651733398E-3,6.488189697E-1,-9.721374512E-1
1.737701416E0,-2.234802246E-1,1.235855103E0,-1.142578125E0
1.742584229E0,-5.637207031E-1,1.733108521E0,-1.218322754E0
1.747467041E0,-9.339141846E-1,1.995162964E0,-1.240310669E0
1.752349854E0,-1.247894287E0,1.998840332E0,-1.265960693E0
1.757232666E0,-1.458648682E0,1.831466675E0,-1.314834595E0
1.762115479E0,-1.562500000E0,1.612152100E0,-1.361267090E0
1.766998291E0,-1.595489502E0,1.401397705E0,-1.382644653E0
1.771881104E0,-1.608322144E0,1.232192993E0,-1.378967285E0
1.776763916E0,-1.623580933E0,1.097808838E0,-1.368591309E0
1.781646729E0,-1.649246216E0,9.982299805E-1,-1.374710083E0
1.786499024E0,-1.699340820E0,9.499664307E-1,-1.400360107E0
1.791381836E0,-1.778747559E0,9.420318604E-1,-1.424179077E0
1.796264649E0,-1.878936768E0,9.970092773E-1,-1.446166992E0
1.801147461E0,-1.979110718E0,1.116744995E0,-1.468780518E0
1.806030274E0,-2.048141479E0,1.226089478E0,-1.499313354E0
1.810913086E0,-2.064025879E0,1.273727417E0,-1.543304443E0
1.815795899E0,-2.007217407E0,1.231582642E0,-1.608047485E0
1.820678711E0,-1.877105713E0,1.116134644E0,-1.692962646E0
1.825561524E0,-1.707275391E0,9.963989258E-1,-1.791931152E0
1.830444336E0,-1.514236450E0,9.945678711E-1,-1.899444580E0
1.835327149E0,-1.314483643E0,1.194320679E0,-1.997177124E0
1.840209961E0,-1.135498047E0,1.573059082E0,-2.064376831E0
1.845092774E0,-9.901123047E-1,2.000671387E0,-2.085144043E0
1.849975586E0,-8.673400879E-1,2.370239258E0,-2.061325073E0
1.854858399E0,-7.292633057E-1,2.646362305E0,-1.995346069E0
1.859741211E0,-5.447998047E-1,2.832672119E0,-1.884780884E0
1.864624024E0,-3.279266357E-1,2.883377075E0,-1.722900391E0
1.869506836E0,-1.098480225E-1,2.778915405E0,-1.517639160E0
1.874389649E0,8.256530762E-2,2.585891724E0,-1.274520874E0
1.879272461E0,2.554473877E-1,2.359252930E0,-1.011230469E0
1.884124756E0,4.283142090E-1,2.124053955E0,-7.662811279E-1
1.889007569E0,6.030273438E-1,1.869338989E0,-5.708007812E-1
1.893890381E0,7.478027344E-1,1.600540161E0,-4.425201416E-1
1.898773194E0,8.388214111E-1,1.365371704E0,-3.887634277E-1
1.903656006E0,8.760833740E-1,1.237075806E0,-3.991394043E-1
1.908538819E0,8.852386475E-1,1.240142822E0,-4.345703125E-1
1.913421631E0,8.589782715E-1,1.348266602E0,-4.926147461E-1
1.918304444E0,7.881164551E-1,1.535186768E0,-5.683441162E-1
1.923187256E0,6.488494873E-1,1.730056763E0,-6.386108398E-1
1.928070069E0,4.747467041E-1,1.894378662E0,-6.984710693E-1
1.932952881E0,3.092041016E-1,1.968292236E0,-7.284088135E-1
1.937835694E0,1.967926025E-1,1.995788574E0,-7.271881104E-1
1.942718506E0,1.632080078E-1,2.028762817E0,-7.064056396E-1
1.947601319E0,1.919097900E-1,2.081909180E0,-6.789245605E-1
1.952484131E0,2.652130127E-1,2.122238159E0,-6.398315430E-1
1.957366944E0,3.898315430E-1,2.117950439E0,-5.848541260E-1
1.962249756E0,5.621032715E-1,2.004943848E0,-5.292510986E-1
1.967132569E0,7.618560791E-1,1.825347900E0,-4.852752686E-1
1.972015381E0,9.493865967E-1,1.643920898E0,-4.296875000E-1
1.976867676E0,1.077072144E0,1.473495483E0,-3.612670898E-1
1.981750489E0,1.139373779E0,1.292663574E0,-2.781982422E-1
1.986633301E0,1.140594482E0,1.101470947E0,-1.700744629E-1
1.991516114E0,1.075836182E0,9.169769287E-1,-7.583618164E-3
1.996398926E0,9.499969482E-1,7.080688477E-1,2.013397217E-1
2.001281739E0,8.076629639E-1,5.303039551E-1,3.858184814E-1
2.006164551E0,6.146392822E-1,3.238372803E-1,5.452575684E-1
2.011047364E0,4.093780518E-1,1.185760498E-1,7.419586182E-1
2.015930176E0,2.664337158E-1,-2.618408203E-2,9.808044434E-1
2.020823457E0,1.992340088E-1,-1.825714111E-1,1.273406982E0
2.025706269E0,1.424255371E-1,-4.201965332E-1,1.559906006E0
2.030589082E0,1.033325195E-1,-6.040649414E-1,1.788986206E0
2.035471894E0,8.927917480E-2,-6.101837158E-1,1.986907959E0
2.040354707E0,8.256530762E-2,-4.556274414E-1,2.189712524E0
2.045237519E0,4.591369629E-2,-2.564849854E-1,2.368698120E0
2.050120332E0,-1.318359375E-1,-2.839660645E-1,2.311889648E0
2.055003144E0,-3.865814209E-1,-3.823242188E-1,2.041275024E0
2.059885957E0,-5.350189209E-1,-3.029174805E-1,1.737060547E0
2.064768769E0,-5.539550781E-1,-1.557006836E-1,1.385208130E0
2.069651582E0,-4.910278320E-1,-3.901672363E-2,1.007690430E0
2.074503876E0,-4.097900391E-1,-2.069091797E-2,6.600952148E-1
2.079386689E0,-3.151092529E-1,-6.344604492E-2,3.247222900E-1
2.084269501E0,-1.575012207E-1,-1.740264893E-1,-3.921508789E-3
2.089152314E0,5.752563477E-2,-3.279571533E-1,-2.751312256E-1
2.094035126E0,3.116455078E-1,-4.983978271E-1,-4.492340088E-1
2.098917939E0,5.376586914E-1,-7.164764404E-1,-4.663391113E-1
2.103800751E0,6.989288330E-1,-9.082794189E-1,-3.374481201E-1
2.108683564E0,7.862854004E-1,-9.797515869E-1,-1.114196777E-1
2.113566376E0,7.899627686E-1,-8.746948242E-1,1.274108887E-1
2.118449189E0,6.995391846E-1,-6.376800537E-1,3.021240234E-1
2.123332001E0,5.352172852E-1,-2.821502686E-1,3.998565674E-1
2.128214814E0,4.521331787E-1,2.021789551E-2,4.786682129E-1
2.133097626E0,5.181121826E-1,1.002502441E-1,5.470886230E-1
2.137980439E0,6.549530029E-1,1.289367676E-2,6.173400879E-1
2.142863251E0,7.966766357E-1,-2.191162109E-2,6.796417236E-1
2.147746064E0,8.956298828E-1,1.381225586E-1,7.529449463E-1
2.152628876E0,9.518280029E-1,3.983459473E-1,8.683929443E-1
2.157511689E0,9.952087402E-1,6.359863281E-1,9.997406006E-1
2.162394501E0,1.031860352E0,8.406219482E-1,1.142684937E0
2.167277314E0,1.036743164E0,1.019607544E0,1.336334229E0
2.172129609E0,1.005584717E0,1.110015869E0,1.634445190E0
2.177012421E0,9.744262695E-1,1.128341675E0,2.023559570E0
2.181895234E0,9.689331055E-1,1.087417603E0,2.536087036E0
2.186778046E0,9.463348389E-1,8.204650879E-1,3.173217773E0
2.191660859E0,9.218902588E-1,3.439941406E-1,3.785308838E0
2.196543671E0,9.029693604E-1,-1.911315918E-1,4.214752197E0
2.201426484E0,9.054107666E-1,-6.004028320E-1,4.533020020E0
2.206309296E0,9.738311768E-1,-9.431152344E-1,4.876937866E0
2.211192109E0,1.150970459E0,-1.390258789E0,5.278274536E0
2.216074921E0,1.378219604E0,-2.007247925E0,5.624649048E0
2.220957734E0,1.606689453E0,-2.646820068E0,5.853713989E0
2.225840546E0,1.819869995E0,-3.152008057E0,5.921524048E0
2.230723359E0,1.924957275E0,-3.507537842E0,5.917861938E0
2.235606171E0,1.869964600E0,-3.685302734E0,5.902587891E0
2.240488984E0,1.787506104E0,-3.668197632E0,5.732772827E0
2.245371796E0,1.651885986E0,-3.297409058E0,5.404724121E0
2.250254609E0,1.485122681E0,-2.641326904E0,4.917251587E0
2.255137421E0,1.338516235E0,-1.923553467E0,4.297836304E0
2.260020234E0,1.227951050E0,-1.350555420E0,3.658859253E0
2.264903046E0,1.177856445E0,-9.003448486E-1,3.042495728E0
2.269755341E0,1.149749756E0,-5.655975342E-1,2.448120117E0
2.274638154E0,1.092941284E0,-3.450622559E-1,1.905670166E0
2.279520966E0,9.835968018E-1,-8.361816406E-2,1.406585693E0
2.284403779E0,8.033905029E-1,1.863861084E-1,9.343719482E-1
2.289286591E0,5.657653809E-1,4.967041016E-1,6.240539551E-1
2.294169404E0,3.287506104E-1,8.394012451E-1,3.644409180E-1
2.299052216E0,1.167755127E-1,1.159500122E0,8.099365234E-2
2.303935029E0,-8.419799805E-2,1.354980469E0,-1.309661865E-1
2.308817841E0,-3.041076660E-1,1.301223755E0,-1.999969482E-1
2.313700654E0,-5.478363037E-1,1.053207397E0,-1.828918457E-1
2.318583466E0,-7.970733643E-1,7.746429443E-1,-1.499023438E-1
2.323466279E0,-1.018814087E0,5.504608154E-1,-9.309387207E-2
2.328349091E0,-1.207580566E0,3.617095947E-1,4.312133789E-2
2.333231904E0,-1.364578247E0,1.668395996E-1,3.509979248E-1
2.338114716E0,-1.431167603E0,3.305053711E-2,7.456207275E-1
2.342997529E0,-1.423217773E0,-4.635620117E-2,9.960784912E-1
2.347880341E0,-1.327926636E0,-1.233062744E-1,1.192169189E0
2.352763154E0,-1.144668579E0,-1.562957764E-1,1.333267212E0
2.357645966E0,-9.168090820E-1,-1.349334717E-1,1.388870239E0
2.362498261E0,-6.254272461E-1,-1.770019531E-3,1.352218628E0
2.367381074E0,-2.802734375E-1,3.617095947E-1,1.274017334E0
2.372263886E0,9.722900391E-2,4.985351562E-1,1.222106934E0
2.377146699E0,5.181121826E-1,3.959045410E-1,1.369934082E0
2.382029511E0,9.848175049E-1,1.332397461E-1,1.601455688E0
2.386912324E0,1.432586670E0,-1.715850830E-1,1.689422607E0
2.391795136E0,1.793609619E0,-3.572845459E-1,1.644821167E0
2.396677949E0,2.042846680E0,-4.122619629E-1,1.508590698E0
2.401560761E0,2.178466797E0,-3.768310547E-1,1.302124023E0
2.406443574E0,2.218780518E0,-3.249053955E-1,9.991302490E-1
2.411326386E0,2.071563721E0,-1.404113770E-1,6.423797607E-1
2.416209199E0,1.377609253E0,1.210174561E-1,3.326721191E-1
2.421092011E0,5.630493164E-2,1.253051758E-1,1.610260010E-1
2.425974824E0,-1.246673584E0,-1.941833496E-1,1.628417969E-1
2.430857636E0,-1.908248901E0,-7.109680176E-1,2.703704834E-1
2.435740449E0,-2.015762329E0,-1.191726685E0,3.332824707E-1
2.440623261E0,-1.966888428E0,-1.361557007E0,3.613891602E-1
2.445506074E0,-1.934524536E0,-1.294357300E0,4.132995605E-1
2.450388886E0,-1.932678223E0,-1.022521973E0,4.414062500E-1
2.455271699E0,-1.918640137E0,-6.730957031E-1,4.316253662E-1
2.460123994E0,-1.852050781E0,-4.201965332E-1,4.426269531E-1
2.465006806E0,-1.737823486E0,-2.925262451E-1,5.073852539E-1
2.469889619E0,-1.567993164E0,-1.825714111E-1,5.990142822E-1
2.474772431E0,-1.318771362E0,-2.252197266E-2,6.576538086E-1
2.479655244E0,-9.730072021E-1,1.540069580E-1,7.071380615E-1
2.484538056E0,-6.186981201E-1,3.122253418E-1,7.553863525E-1
2.489420869E0,-3.389282227E-1,4.716644287E-1,7.059173584E-1
2.494303681E0,-2.222595215E-1,7.263946533E-1,5.238647461E-1
2.499186494E0,-2.167510986E-1,9.108734131E-1,2.813568115E-1
2.504069306E0,-2.491302490E-1,9.066009521E-1,1.318359375E-2
2.508952119E0,-3.022766113E-1,7.893066406E-1,-2.708587646E-1
2.513834931E0,-3.224334717E-1,5.309143066E-1,-5.152130127E-1
2.518717744E0,-2.595062256E-1,1.521759033E-1,-6.667022705E-1
2.523600556E0,-6.770324707E-2,-2.228851318E-1,-7.131347656E-1
2.528483369E0,2.316131592E-1,-3.554534912E-1,-6.886901855E-1
2.533366181E0,4.955139160E-1,-8.605957031E-2,-6.172180176E-1
2.538248994E0,6.274566650E-1,3.513183594E-1,-4.834442139E-1
2.543131806E0,6.720581055E-1,5.907745361E-1,-3.276672363E-1
2.548014619E0,6.812133789E-1,5.901794434E-1,-2.623138428E-1
2.552897431E0,7.025909424E-1,4.093475342E-1,-3.429412842E-1
2.557749726E0,7.734527588E-1,1.723327637E-1,-5.420837402E-1
2.562632539E0,9.445037842E-1,-1.129302979E-1,-8.188171387E-1
2.567515351E0,1.182128906E0,-3.896636963E-1,-1.028945923E0
2.572398164E0,1.337905884E0,-4.116516113E-1,-1.050323486E0
2.577280976E0,1.362945557E0,-2.558746338E-1,-8.120880127E-1
2.582163789E0,1.254211426E0,-3.413391113E-2,-3.056793213E-1
2.587046601E0,1.004364014E0,2.718963623E-1,3.369445801E-1
2.591929414E0,6.201324463E-1,7.465515137E-1,9.062805176E-1
2.596812226E0,3.318023682E-1,1.024505615E0,1.217819214E0
2.601695039E0,2.792663574E-1,1.034271240E0,1.239807129E0
2.606577851E0,3.769989014E-1,1.032440186E0,1.077331543E0
2.611460664E0,4.973449707E-1,1.117355347E0,9.123840332E-1
2.616343476E0,5.779876709E-1,1.143005371E0,8.378601074E-1
2.621226289E0,6.213531494E-1,9.682922363E-1,8.390808105E-1
2.626109101E0,6.476287842E-1,6.427001953E-1,8.714599609E-1
2.630991914E0,6.781616211E-1,3.079528809E-1,9.038391113E-1
2.635874726E0,7.196960449E-1,6.298828125E-2,8.952789307E-1
2.640757539E0,7.661285400E-1,-1.129302979E-1,8.323669434E-1
2.645640351E0,8.003387451E-1,-3.145141602E-1,7.321777344E-1
2.650523164E0,8.577575684E-1,-6.389007568E-1,6.692657471E-1
2.655375459E0,8.705902100E-1,-7.989349365E-1,6.765899658E-1
2.660258271E0,8.223266602E-1,-6.889801025E-1,7.254638672E-1
2.665141084E0,7.526855469E-1,-4.147033691E-1,8.170928955E-1
2.670023896E0,6.567840576E-1,-8.728027344E-2,8.977203369E-1
2.674906709E0,5.724792480E-1,1.265258789E-1,9.117736816E-1
2.679789521E0,5.272827148E-1,1.851654053E-1,8.879547119E-1
2.684672334E0,5.156707764E-1,1.876068115E-1,8.574066162E-1
2.689555146E0,5.291137695E-1,1.857757568E-1,8.439636230E-1
2.694437959E0,5.523223877E-1,1.986083984E-1,8.519134521E-1
2.699320771E0,5.779876709E-1,2.297515869E-1,8.659515381E-1
2.704203584E0,6.060791016E-1,2.920684814E-1,8.739013672E-1
2.709086396E0,6.109771729E-1,4.142303467E-1,8.164825439E-1
2.713969209E0,5.798034668E-1,5.303039551E-1,7.327880859E-1
2.718852021E0,5.468292236E-1,5.755157471E-1,6.881866455E-1
2.723734834E0,6.097412109E-1,3.830871582E-1,6.778106689E-1
2.728617646E0,6.922149658E-1,2.095947266E-1,7.181396484E-1
2.733500459E0,7.215423584E-1,1.613311768E-1,7.944946289E-1
2.738383271E0,7.129821777E-1,2.108154297E-1,8.586273193E-1
2.743266084E0,6.860961914E-1,2.841186523E-1,8.653564453E-1
2.748148896E0,6.439514160E-1,3.061065674E-1,7.712707520E-1
2.753001191E0,5.755310059E-1,3.232116699E-1,6.075592041E-1
2.757884003E0,4.606933594E-1,3.806457520E-1,4.291839600E-1
2.762766816E0,3.104248047E-1,4.307403564E-1,2.831878662E-1
2.767649628E0,1.705322266E-1,4.209594727E-1,1.927795410E-1
2.772532441E0,7.095336914E-2,3.977508545E-1,1.439208984E-1
2.777415253E0,1.327514648E-3,3.647613525E-1,1.237487793E-1
2.782298066E0,-6.219482422E-2,3.348236084E-1,1.158142090E-1
2.787180878E0,-1.300201416E-1,2.896270752E-1,1.145935059E-1
2.792063691E0,-1.813201904E-1,2.389221191E-1,1.145935059E-1
2.796946503E0,-2.075958252E-1,2.059326172E-1,1.231536865E-1
2.801829316E0,-2.179718018E-1,1.894378662E-1,1.451416016E-1
2.806712128E0,-2.301940918E-1,1.876068115E-1,2.056121826E-1
2.811594941E0,-2.576904297E-1,2.095947266E-1,2.850341797E-1
2.816477753E0,-2.931213379E-1,2.541961670E-1,3.418273926E-1
2.821360566E0,-3.224334717E-1,2.706756592E-1,3.852081299E-1
2.826243378E0,-3.346557617E-1,2.578582764E-1,4.218597412E-1
2.831126191E0,-3.254852295E-1,2.346496582E-1,4.389648438E-1
2.836009003E0,-3.169403076E-1,1.619567871E-1,4.316253662E-1
2.840891816E0,-3.102264404E-1,6.848144531E-2,4.151458740E-1
2.845774628E0,-3.010559082E-1,-3.901672363E-2,4.285888672E-1
2.850626923E0,-2.692871094E-1,-2.063903809E-1,4.750061035E-1
2.855509736E0,-2.069854736E-1,-3.988189697E-1,5.104370117E-1
2.860392548E0,-1.428375244E-1,-5.606994629E-1,5.330352783E-1
2.865275361E0,-1.361236572E-1,-6.822662354E-1,5.434112549E-1
2.870158173E0,-1.733856201E-1,-6.773834229E-1,5.299835205E-1
2.875040986E0,-2.265319824E-1,-5.552062988E-1,4.945526123E-1
2.879923798E0,-2.912750244E-1,-4.232635498E-1,4.328460693E-1
2.884806611E0,-3.578643799E-1,-3.078002930E-1,3.589324951E-1
2.889689423E0,-4.146728516E-1,-2.015075684E-1,2.844085693E-1
2.894572236E0,-4.555969238E-1,-1.288146973E-1,2.318725586E-1
2.899455048E0,-4.794311523E-1,-1.086578369E-1,1.995086670E-1
2.904337861E0,-5.001983643E-1,-1.239318848E-1,1.946105957E-1
2.909220673E0,-5.087432861E-1,-1.709594727E-1,2.337188721E-1
2.914103486E0,-4.916381836E-1,-2.473297119E-1,2.874755859E-1
2.918986298E0,-4.611053467E-1,-3.365173340E-1,3.290100098E-1
2.923869111E0,-4.482727051E-1,-3.676605225E-1,3.571014404E-1
2.928751923E0,-4.891967773E-1,-3.285675049E-1,3.907012939E-1
2.933634736E0,-5.502777100E-1,-2.803039551E-1,4.224700928E-1
2.938517548E0,-5.667877197E-1,-2.705383301E-1,4.401855469E-1
2.943369843E0,-5.160827637E-1,-3.475036621E-1,4.395751953E-1
2.948252656E0,-3.670349121E-1,-5.900268555E-1,4.334716797E-1
2.953135468E0,-8.847045898E-2,-8.972930908E-1,4.383544922E-1
2.958018281E0,2.413940430E-1,-1.034133911E0,4.756164551E-1
2.962901093E0,4.240417480E-1,-9.858703613E-1,5.318145752E-1
2.967783906E0,4.173278809E-1,-7.580108643E-1,5.776214600E-1
2.972666718E0,2.688751221E-1,-4.953460693E-1,5.953521729E-1
2.977549531E0,4.469299316E-2,-2.509918213E-1,5.538024902E-1
2.982432343E0,-1.953735352E-1,-3.291320801E-2,4.615631104E-1
2.987315156E0,-3.926849365E-1,1.527862549E-1,3.448944092E-1
2.992197968E0,-5.185241699E-1,2.865600586E-1,2.434844971E-1
2.997080781E0,-5.667877197E-1,3.745269775E-1,1.995086670E-1
3.001963593E0,-5.374603271E-1,4.301147461E-1,2.221069336E-1
3.006846406E0,-4.525604248E-1,4.282989502E-1,3.070220947E-1
3.011729218E0,-3.218231201E-1,3.757476807E-1,4.340667725E-1
3.016612031E0,-1.507873535E-1,2.749633789E-1,5.837402344E-1
3.021494843E0,3.797912598E-2,1.124572754E-1,7.486724854E-1
3.026377656E0,1.974029541E-1,1.892089844E-3,9.160461426E-1
3.031260468E0,3.140869141E-1,-3.962707520E-2,1.041275024E0
3.036143281E0,3.886108398E-1,-2.252197266E-2,1.101760864E0
3.040995576E0,4.283142090E-1,5.569458008E-3,1.101760864E0
3.045878388E0,4.441986084E-1,3.488159180E-2,1.049224854E0
3.050761201E0,4.527587891E-1,7.031250000E-2,9.502563477E-1
3.055644013E0,4.564208984E-1,1.277465820E-1,7.902069092E-1
3.060526826E0,4.539794922E-1,1.937103271E-1,5.709075928E-1
3.065409638E0,4.289245605E-1,2.523498535E-1,3.088378906E-1
3.070292451E0,3.769989014E-1,3.244323730E-1,3.150939941E-2
3.075175263E0,3.208007812E-1,3.739166260E-1,-1.963348389E-1
3.080058076E0,2.829284668E-1,3.971252441E-1,-3.215637207E-1
3.084940888E0,2.933197021E-1,3.782043457E-1,-3.600463867E-1
3.089823701E0,3.605041504E-1,3.110046387E-1,-3.551635742E-1
3.094706513E0,4.588623047E-1,1.918792725E-1,-3.313293457E-1
3.099589326E0,5.614776611E-1,5.566406250E-2,-2.940826416E-1
3.104472138E0,6.555633545E-1,-3.840637207E-2,-2.427673340E-1
3.109354951E0,7.184753418E-1,-5.795288086E-2,-1.688537598E-1
3.114237763E0,7.429046631E-1,3.738403320E-3,-7.354736328E-2
3.119120576E0,7.355804443E-1,1.155242920E-1,3.028869629E-2
3.124003388E0,7.252044678E-1,2.309722900E-1,1.133728027E-1
3.128886201E0,7.160339355E-1,2.963409424E-1,1.640625000E-1
3.133769013E0,6.940460205E-1,3.055114746E-1,1.860656738E-1
3.138621308E0,6.549530029E-1,2.963409424E-1,1.952209473E-1
3.143504121E0,6.030273438E-1,2.853393555E-1,2.172088623E-1
3.148386933E0,5.535430908E-1,2.786254883E-1,2.483673096E-1
3.153269746E0,5.309448242E-1,2.938995361E-1,2.483673096E-1
3.158152558E0,5.248413086E-1,3.000030518E-1,1.555175781E-1
3.163035371E0,4.741363525E-1,3.061065674E-1,1.379394531E-2
3.167918183E0,3.837280273E-1,3.342132568E-1,-1.034851074E-1
3.172800996E0,2.872009277E-1,3.959045410E-1,-1.480712891E-1
3.177683808E0,2.236785889E-1,4.533386230E-1,-1.554107666E-1
3.182566621E0,2.053527832E-1,4.808197021E-1,-1.670074463E-1
3.187449433E0,2.114562988E-1,4.527282715E-1,-1.969451904E-1
3.192332246E0,2.285614014E-1,3.873596191E-1,-2.403106689E-1
3.197215058E0,2.383422852E-1,3.097839355E-1,-2.763519287E-1
3.202097871E0,2.456665039E-1,2.450256348E-1,-2.653656006E-1
3.206980683E0,2.450561523E-1,1.986083984E-1,-1.975555420E-1
3.211863496E0,2.364959717E-1,1.558380127E-1,-8.087158203E-2
3.216746308E0,2.187805176E-1,1.106414795E-1,1.586914062E-3
3.221629121E0,1.864166260E-1,6.909179688E-2,2.906799316E-2
3.226511933E0,1.509857178E-1,6.115722656E-2,4.617309570E-2
3.231394746E0,1.344757080E-1,6.787109375E-2,6.083679199E-2
3.236247041E0,1.216583252E-1,6.909179688E-2,6.938171387E-2
3.241129853E0,9.967041016E-2,7.031250000E-2,7.977294922E-2
3.246012666E0,6.912231445E-2,5.810546875E-2,6.144714355E-2
3.250895478E0,2.391052246E-2,3.672790527E-2,2.050781250E-2
3.255778291E0,-3.044128418E-2,2.389526367E-2,-1.370239258E-2
3.260661103E0,-9.030151367E-2,4.348754883E-3,-2.345275879E-2
3.265543916E0,-1.917114258E-1,-1.343078613E-1,-2.102661133E-2
3.270426728E0,-2.674560547E-1,-2.082366943E-1,-1.673889160E-2
3.275309541E0,-2.686767578E-1,-1.569213867E-1,-4.531860352E-3
3.280192353E0,-2.833404541E-1,-1.520385742E-1,3.456115723E-2
3.285075166E0,-3.230438232E-1,-2.106781006E-1,1.200866699E-1
3.289957978E0,-3.572540283E-1,-2.742004395E-1,2.398223877E-1
3.294840791E0,-3.945159912E-1,-3.578948975E-1,3.143463135E-1
3.299723603E0,-4.910278320E-1,-3.945465088E-1,3.235015869E-1
3.304606416E0,-6.009979248E-1,-3.994293213E-1,2.911376953E-1
3.309489228E0,-6.828460693E-1,-3.737792969E-1,2.263793945E-1
3.314372041E0,-7.347717285E-1,-3.597259521E-1,1.139678955E-1
3.319254853E0,-7.805786133E-1,-3.890533447E-1,-2.529907227E-2
3.324137666E0,-8.251800537E-1,-4.379272461E-1,-1.358642578E-1
3.329020478E0,-8.618316650E-1,-4.812927246E-1,-1.615142822E-1
3.333872773E0,-8.642730713E-1,-4.959411621E-1,-1.120300293E-1
3.338755585E0,-8.428955078E-1,-5.387115479E-1,-4.728698730E-2
3.343638398E0,-8.227386475E-1,-6.254577637E-1,-2.285766602E-2
3.348521210E0,-7.720336914E-1,-6.425628662E-1,-1.480102539E-3
3.353404023E0,-6.333618164E-1,-5.142822266E-1,7.305908203E-2
3.358286835E0,-4.275054932E-1,-3.188018799E-1,1.506347656E-1
3.363169648E0,-2.442474365E-1,-2.100677490E-1,1.787261963E-1
3.368052460E0,-1.336822510E-1,-1.648559570E-1,1.842346191E-1
3.372935273E0,-8.663940430E-2,-1.330871582E-1,1.860656738E-1
3.377818085E0,-7.502746582E-2,-9.582519531E-2,2.135467529E-1
3.382700898E0,-7.380676270E-2,-7.749938965E-2,2.618103027E-1
3.387583710E0,-6.526184082E-2,-8.605957031E-2,2.954101562E-1
3.392466523E0,-2.677917480E-2,-1.129302979E-1,3.106842041E-1
3.397349335E0,3.857421875E-2,-1.184234619E-1,3.063964844E-1
3.402232148E0,1.137084961E-1,-8.972167969E-2,2.660827637E-1
3.407114960E0,1.613616943E-1,-5.795288086E-2,1.836242676E-1
3.411997773E0,1.558685303E-1,-2.252197266E-2,1.066436768E-1
3.416880585E0,9.661865234E-2,1.533508301E-2,8.648681641E-2
3.421763398E0,1.658630371E-2,5.442810059E-2,7.487487793E-2
3.426615693E0,-3.654479980E-2,1.082000732E-1,5.778503418E-2
3.431498505E0,-5.242919922E-2,1.350708008E-1,4.251098633E-2
3.436381318E0,-6.097412109E-2,1.222381592E-1,3.700256348E-2
3.441264130E0,-6.709289551E-2,1.136779785E-1,4.373168945E-2
3.446146943E0,-6.648254395E-2,9.291076660E-2,5.717468262E-2
3.451029755E0,-7.197570801E-2,4.222106934E-2,5.839538574E-2
3.455912568E0,-9.947204590E-2,-1.519775391E-2,3.578186035E-2
3.460795380E0,-1.471252441E-1,-5.429077148E-2,-1.429748535E-2
3.465678193E0,-1.776580811E-1,-7.749938965E-2,-6.683349609E-2
3.470561005E0,-1.513824463E-1,-1.013183594E-1,-9.980773926E-2
3.475443818E0,-7.075500488E-2,-1.178283691E-1,-1.138610840E-1
3.480326630E0,5.690002441E-2,-8.911132812E-2,-1.291351318E-1
3.485209443E0,1.888580322E-1,8.010864258E-3,-1.566314697E-1
3.490092255E0,2.951354980E-1,9.169006348E-2,-1.718902588E-1
3.494975068E0,3.733367920E-1,1.259002686E-1,-1.761779785E-1
3.499857880E0,4.124298096E-1,1.643981934E-1,-1.847381592E-1
3.504740693E0,3.776092529E-1,1.747741699E-1,-1.859588623E-1
3.509623505E0,3.366851807E-1,1.747741699E-1,-1.609039307E-1
3.514506318E0,3.085784912E-1,1.582946777E-1,-1.120300293E-1
3.519389130E0,2.823181152E-1,9.231567383E-2,-4.544067383E-2
3.524241425E0,2.670440674E-1,4.893493652E-2,3.028869629E-2
3.529124238E0,2.584991455E-1,5.015563965E-2,8.648681641E-2
3.534007050E0,2.401733398E-1,6.481933594E-2,1.029815674E-1
3.538889863E0,2.132873535E-1,6.848144531E-2,9.931945801E-2
3.543772675E0,1.772460938E-1,9.536743164E-2,8.282470703E-2
3.548655488E0,1.332550049E-1,1.619567871E-1,7.365417480E-2
3.553538300E0,6.118774414E-2,2.547912598E-1,5.778503418E-2
3.558421113E0,-5.364990234E-2,3.507080078E-1,1.623535156E-2
3.563303925E0,-1.862030029E-1,3.855285645E-1,-5.522155762E-2
3.568186738E0,-3.230438232E-1,3.751373291E-1,-1.334228516E-1
3.573069550E0,-4.623260498E-1,3.018493652E-1,-2.012176514E-1
3.577952363E0,-6.150360107E-1,1.882171631E-1,-2.281036377E-1
3.582835175E0,-8.050231934E-1,3.977966309E-2,-1.773986816E-1
3.587717988E0,-9.992675781E-1,-9.887695312E-2,-4.972839355E-2
3.592600800E0,-1.161148071E0,-2.137298584E-1,7.731628418E-2
3.597483613E0,-1.266845703E0,-3.291778564E-1,1.255950928E-1
3.602366425E0,-1.270507812E0,-3.639984131E-1,4.251098633E-2
3.607249238E0,-1.131835938E0,-1.391906738E-1,-2.714691162E-1
3.612132050E0,-9.626312256E-1,1.558380127E-1,-7.247314453E-1
3.616984345E0,-8.056335449E-1,4.270629883E-1,-1.093704224E0
3.621867158E0,-6.565856934E-1,6.365966797E-1,-1.232971191E0
3.626749970E0,-5.227966309E-1,7.153930664E-1,-1.152954102E0
3.631632783E0,-3.883972168E-1,6.249847412E-1,-9.660339355E-1
3.636515595E0,-2.369079590E-1,4.252319336E-1,-7.387847900E-1
3.641398408E0,-8.602905273E-2,1.613311768E-1,-5.170440674E-1
3.646281220E0,3.369140625E-2,-8.299255371E-2,-3.270568848E-1
3.651164033E0,1.106719971E-1,-2.583160400E-1,-1.926727295E-1
3.656046845E0,1.680908203E-1,-3.670501709E-1,-1.028747559E-1
3.660929658E0,2.090148926E-1,-4.220428467E-1,-4.362487793E-2
3.665812470E0,2.377166748E-1,-4.556274414E-1,-2.467346191E-2
3.670695283E0,2.426147461E-1,-4.550323486E-1,-3.872680664E-2
3.675578095E0,2.151184082E-1,-4.531860352E-1,-8.515930176E-2
3.680460908E0,1.479187012E-1,-4.397430420E-1,-1.535644531E-1
3.685343720E0,5.752563477E-2,-4.257049561E-1,-2.146606445E-1
3.690226533E0,-4.203796387E-2,-4.354705811E-1,-2.494812012E-1
3.695109345E0,-1.330566406E-1,-4.263000488E-1,-2.861328125E-1
3.699992158E0,-2.314147949E-1,-2.534332275E-1,-2.342071533E-1
3.704874970E0,-2.888336182E-1,1.082000732E-1,1.196289062E-2
3.709757783E0,-2.680664062E-1,1.301879883E-1,-6.622314453E-2
3.714610078E0,-2.735748291E-1,-1.422576904E-1,-1.963348389E-1
3.719492890E0,-3.151092529E-1,-1.416473389E-1,-2.238159180E-1
3.724375703E0,-3.633575439E-1,-1.770019531E-3,-2.403106689E-1
3.729258515E0,-3.682556152E-1,2.877807617E-2,-1.945037842E-1
3.734141328E0,-3.383178711E-1,4.039001465E-2,-1.425781250E-1
3.739024140E0,-2.650146484E-1,2.816772461E-2,-1.230316162E-1
3.743906953E0,-1.464996338E-1,-2.252197266E-2,-1.395263672E-1
3.748789765E0,-3.654479980E-2,-4.389953613E-2,-1.767883301E-1
3.753672578E0,2.391052246E-2,-4.267883301E-2,-2.281036377E-1
3.758555390E0,4.591369629E-2,-4.818725586E-2,-2.787933350E-1
3.763438203E0,4.591369629E-2,-6.283569336E-2,-3.307342529E-1
3.768321015E0,3.308105469E-2,-1.031646729E-1,-3.973083496E-1
3.773203828E0,3.158569336E-3,-1.819610596E-1,-5.078735352E-1
3.778086640E0,-5.303955078E-2,-2.833709717E-1,-5.830078125E-1
3.782969453E0,-1.190185547E-1,-3.450622559E-1,-5.909576416E-1
3.787852265E0,-1.862030029E-1,-3.291778564E-1,-5.420837402E-1
3.792735078E0,-2.375183105E-1,-2.876434326E-1,-4.638977051E-1
3.797617890E0,-2.619476318E-1,-2.503814697E-1,-3.704376221E-1
3.802500703E0,-2.631683350E-1,-2.564849854E-1,-2.299346924E-1
3.807383515E0,-2.521820068E-1,-3.566741943E-1,-7.110595703E-2
3.812235810E0,-2.149200439E-1,-5.020599365E-1,6.083679199E-2
3.817118623E0,-1.483459473E-1,-6.126251221E-1,1.268157959E-1
3.822001435E0,-9.580993652E-2,-6.572265625E-1,1.329193115E-1
3.826884248E0,-1.061859131E-1,-6.718750000E-1,9.870910645E-2
3.831767060E0,-1.825408936E-1,-6.560058594E-1,8.404541016E-2
3.836649873E0,-2.802734375E-1,-5.888061523E-1,1.097106934E-1
3.841532685E0,-3.871765137E-1,-4.990081787E-1,7.672119141E-2
3.846415498E0,-4.659881592E-1,-2.968139648E-1,-2.090454102E-3
3.851298310E0,-5.038604736E-1,-7.322692871E-2,-8.149719238E-2
3.856181123E0,-4.751434326E-1,2.877807617E-2,-1.291351318E-1
3.861063935E0,-3.737487793E-1,-2.252197266E-2,-1.236419678E-1
3.865946748E0,-2.124786377E-1,-1.874694824E-1,-6.071472168E-2
3.870829560E0,-6.097412109E-2,-3.200225830E-1,-2.700805664E-3
3.875712373E0,3.369140625E-2,-3.664398193E-1,-3.750610352E-2
3.880595185E0,7.095336914E-2,-4.049377441E-1,-1.609039307E-1
3.885477998E0,8.012390137E-2,-4.366912842E-1,-2.855224609E-1
3.890360810E0,9.722900391E-2,-4.257049561E-1,-3.154449463E-1
3.895243623E0,1.314392090E-1,-3.731689453E-1,-2.195434570E-1
3.900126435E0,1.803131104E-1,-2.729797363E-1,-6.254577637E-2
3.905009248E0,2.352752686E-1,-1.434783936E-1,1.072692871E-1
3.909861543E0,2.957611084E-1,-1.029968262E-2,2.825775146E-1
3.914744355E0,3.507385254E-1,8.865356445E-2,4.352874756E-1
3.919627168E0,3.965454102E-1,-1.458740234E-2,5.214233398E-1
3.924509980E0,4.655761719E-1,-4.684600830E-1,5.202026367E-1
3.929392793E0,4.533538818E-1,-7.335815430E-1,5.360870361E-1
3.934275605E0,4.063262939E-1,-8.465881348E-1,5.592956543E-1
3.939158418E0,3.947143555E-1,-1.042068481E0,5.421905518E-1
3.944041230E0,3.654022217E-1,-1.161178589E0,4.933319092E-1
3.948924043E0,3.061370850E-1,-1.187454224E0,4.566802979E-1
3.953806855E0,2.230682373E-1,-1.161178589E0,4.212493896E-1
3.958689668E0,1.051635742E-1,-1.108047485E0,3.760375977E-1
3.963572480E0,-4.388427734E-2,-1.019470215E0,3.015136719E-1
3.968455293E0,-2.057495117E-1,-8.704071045E-1,2.104949951E-1
3.973338105E0,-3.560333252E-1,-6.413421631E-1,1.133728027E-1
3.978220918E0,-4.727020264E-1,-3.750000000E-1,3.700256348E-2
3.983103730E0,-5.356292725E-1,-1.172027588E-1,-1.370239258E-2
3.987986543E0,-5.362396240E-1,1.576690674E-1,-3.811645508E-2
3.992869355E0,-4.158935547E-1,6.017761230E-1,3.334045410E-2
3.997752168E0,-1.593322754E-1,1.339096069E0,2.465362549E-1
4.002634980E0,1.068115234E-4,1.744094849E0,3.326721191E-1
4.007487275E0,7.171630859E-4,1.849166870E0,3.424377441E-1
4.012370087E0,-6.097412109E-2,1.767929077E0,3.968200684E-1
4.017252900E0,-4.203796387E-2,1.519302368E0,5.434112549E-1
4.022135712E0,-1.028442383E-2,1.271286011E0,6.405487061E-1
4.027018525E0,8.866882324E-2,1.157669067E0,7.046966553E-1
4.031901337E0,2.035217285E-1,1.049545288E0,7.132415771E-1
4.036784150E0,2.603302002E-1,1.036102295E0,6.417694092E-1
4.041666962E0,3.183593750E-1,1.100250244E0,5.837402344E-1
4.046549775E0,3.177490234E-1,1.137512207E0,5.244903564E-1
4.051432587E0,2.652130127E-1,1.062973022E0,4.450683594E-1
4.056315400E0,2.035217285E-1,9.176025391E-1,3.674926758E-1
4.061198212E0,1.515808105E-1,7.239532471E-1,3.045806885E-1
4.066081025E0,1.173858643E-1,5.376281738E-1,2.557067871E-1
4.070963837E0,1.039428711E-1,3.855285645E-1,2.086639404E-1
4.075846650E0,1.057739258E-1,2.767944336E-1,1.506347656E-1
4.080729462E0,1.088256836E-1,2.163238525E-1,9.197998047E-2
4.085612275E0,1.082153320E-1,1.973724365E-1,4.983520508E-2
4.090495087E0,1.015014648E-1,2.150878906E-1,2.601623535E-2
4.095377900E0,8.988952637E-2,2.535705566E-1,1.318359375E-2
4.100230195E0,7.707214355E-2,3.067321777E-1,4.028320312E-3
4.105113007E0,6.851196289E-2,3.568115234E-1,-2.090454102E-3
4.109995820E0,6.484985352E-2,3.904113770E-1,-1.551818848E-2
4.114878632E0,6.301879883E-2,4.111938477E-1,-2.896118164E-2
4.119761445E0,6.546020508E-2,4.203491211E-1,-4.177856445E-2
4.124644257E0,6.851196289E-2,4.319610596E-1,-5.033874512E-2
4.129527070E0,6.912231445E-2,4.405059814E-1,-5.949401855E-2
4.134409882E0,6.607055664E-2,4.484405518E-1,-6.866455078E-2
4.139292695E0,6.118774414E-2,4.466247559E-1,-7.598876953E-2
4.144175507E0,5.630493164E-2,4.392852783E-1,-8.149719238E-2
4.149058320E0,4.347229004E-2,4.117889404E-1,-9.187316895E-2
4.153941132E0,2.209472656E-2,3.659820557E-1,-1.028747559E-1
4.158823945E0,-5.035400391E-4,3.195495605E-1,-1.053161621E-1
4.163706757E0,-1.150512695E-2,2.841186523E-1,-9.799194336E-2
4.168589570E0,-1.150512695E-2,2.480773926E-1,-9.187316895E-2
4.173472382E0,-4.165649414E-3,2.065429688E-1,-8.699035645E-2
4.178355195E0,1.068115234E-4,1.509552002E-1,-8.699035645E-2
4.183238007E0,3.158569336E-3,9.536743164E-2,-6.744384766E-2
4.188120820E0,1.843261719E-2,1.026916504E-1,-3.079223633E-2
4.192973115E0,4.347229004E-2,9.841918945E-2,-7.583618164E-3
4.197855927E0,7.217407227E-2,7.276916504E-2,1.501464844E-2
4.202738740E0,9.600830078E-2,6.237792969E-2,3.700256348E-2
4.207621552E0,1.106719971E-1,6.726074219E-2,5.288696289E-2
4.212504365E0,1.088256836E-1,5.381774902E-2,5.717468262E-2
4.217387177E0,9.478759766E-2,1.777648926E-2,5.717468262E-2
4.222269990E0,7.707214355E-2,-8.483886719E-3,5.900573730E-2
4.227152802E0,6.668090820E-2,-1.580810547E-2,5.717468262E-2
4.232035615E0,6.240844727E-2,-1.824951172E-2,5.349731445E-2
4.236918427E0,5.690002441E-2,-2.618408203E-2,4.678344727E-2
4.241801240E0,4.713439941E-2,-4.023742676E-2,3.945922852E-2
4.246684052E0,3.002929688E-2,-5.917358398E-2,2.967834473E-2
4.251566865E0,1.171875000E-2,-7.688903809E-2,1.623535156E-2
4.256449677E0,-4.165649414E-3,-8.789062500E-2,3.402709961E-3
4.261332490E0,-1.211547852E-2,-9.155273438E-2,-1.063537598E-2
4.266215302E0,-1.211547852E-2,-9.094238281E-2,-2.345275879E-2
4.271098115E0,-1.150512695E-2,-8.789062500E-2,-3.506469727E-2
4.275980927E0,-1.150512695E-2,-8.239746094E-2,-4.484558105E-2
4.280863740E0,-1.394653320E-2,-7.749938965E-2,-5.216979980E-2
4.285746552E0,-1.638793945E-2,-6.956481934E-2,-5.949401855E-2
4.290629365E0,-1.699829102E-2,-6.344604492E-2,-6.500244141E-2
4.295481660E0,-1.577758789E-2,-5.917358398E-2,-6.988525391E-2
4.300364472E0,-1.150512695E-2,-5.917358398E-2,-7.171630859E-2
4.305247285E0,-6.607055664E-3,-5.978393555E-2,-7.232666016E-2
4.310130097E0,7.171630859E-4,-6.039428711E-2,-7.049560547E-2
4.315012910E0,6.210327148E-3,-6.039428711E-2,-6.805419922E-2
4.319895722E0,1.171875000E-2,-5.673217773E-2,-6.254577637E-2
4.324778535E0,1.721191406E-2,-5.245971680E-2,-5.766296387E-2
4.329661347E0,2.268981934E-2,-4.940795898E-2,-5.339050293E-2
4.334544160E0,2.575683594E-2,-4.757690430E-2,-4.789733887E-2
4.339426972E0,2.880859375E-2,-4.695129395E-2,-4.362487793E-2
4.344309785E0,2.941894531E-2,-4.695129395E-2,-3.872680664E-2
4.349192597E0,2.636718750E-2,-4.757690430E-2,-3.628540039E-2
4.354075410E0,2.331542969E-2,-4.879760742E-2,-3.384399414E-2
4.358958222E0,1.902770996E-2,-5.001831055E-2,-3.323364258E-2
4.363841035E0,1.293945312E-2,-5.062866211E-2,-3.323364258E-2
4.368723847E0,6.820678711E-3,-5.062866211E-2,-3.384399414E-2
4.373606660E0,1.068115234E-4,-4.879760742E-2,-3.384399414E-2
4.378489472E0,-6.011962891E-3,-4.389953613E-2,-3.506469727E-2
4.383372285E0,-1.028442383E-2,-4.023742676E-2,-3.750610352E-2
4.388255097E0,-1.455688477E-2,-3.474426270E-2,-3.994750977E-2
4.393107392E0,-1.821899414E-2,-2.740478516E-2,-4.362487793E-2
4.397990205E0,-1.760864258E-2,-2.191162109E-2,-4.666137695E-2
4.402873017E0,-1.638793945E-2,-1.763916016E-2,-4.911804199E-2
4.407755830E0,-1.516723633E-2,-1.397705078E-2,-5.094909668E-2
4.412638642E0,-1.272583008E-2,-1.092529297E-2,-5.155944824E-2
4.417521455E0,-1.272583008E-2,-4.806518555E-3,-5.155944824E-2
4.422404267E0,-1.211547852E-2,-5.493164062E-4,-5.216979980E-2
4.427287080E0,-1.211547852E-2,3.112792969E-3,-5.216979980E-2
4.432169892E0,-1.394653320E-2,6.790161133E-3,-5.094909668E-2
4.437052705E0,-1.455688477E-2,8.621215820E-3,-4.972839355E-2
4.441935517E0,-1.638793945E-2,9.231567383E-3,-4.850769043E-2
4.446818330E0,-1.943969727E-2,8.010864258E-3,-4.606628418E-2
4.451701142E0,-2.188110352E-2,6.790161133E-3,-4.299926758E-2
4.456583955E0,-2.127075195E-2,3.738403320E-3,-3.933715820E-2
4.461466767E0,-2.066040039E-2,1.892089844E-3,-3.628540039E-2
4.466349580E0,-1.943969727E-2,-1.770019531E-3,-3.323364258E-2
4.471232392E0,-1.516723633E-2,-3.585815430E-3,-3.079223633E-2
4.476115205E0,-1.089477539E-2,-6.042480469E-3,-2.651977539E-2
4.480998017E0,-4.791259766E-3,-8.483886719E-3,-2.285766602E-2
4.485880830E0,-5.035400391E-4,-1.092529297E-2,-1.858520508E-2
4.490733125E0,4.379272461E-3,-1.274108887E-2,-1.492309570E-2
4.495615937E0,8.651733398E-3,-1.519775391E-2,-1.124572754E-2
4.500498750E0,1.353454590E-2,-1.641845703E-2,-5.752563477E-3
4.505381562E0,1.599121094E-2,-1.763916016E-2,-2.090454102E-3
4.510264375E0,1.965332031E-2,-1.702880859E-2,1.586914062E-3
4.515147187E0,2.391052246E-2,-1.702880859E-2,5.249023438E-3
4.520030000E0,2.575683594E-2,-1.580810547E-2,8.300781250E-3
4.524912812E0,2.636718750E-2,-1.336669922E-2,1.135253906E-2
4.529795625E0,2.697753906E-2,-9.078979492E-3,1.440429688E-2
4.534678437E0,2.575683594E-2,-5.416870117E-3,1.684570312E-2
4.539561250E0,2.331542969E-2,-5.493164062E-4,1.928710938E-2
4.544444062E0,2.024841309E-2,4.348754883E-3,2.113342285E-2
4.549326875E0,1.780700684E-2,7.400512695E-3,2.296447754E-2
4.554209687E0,1.538085938E-2,1.167297363E-2,2.296447754E-2
4.559092500E0,1.109313965E-2,1.472473145E-2,2.235412598E-2
4.563975312E0,8.651733398E-3,2.021789551E-2,2.296447754E-2
4.568858125E0,5.599975586E-3,2.572631836E-2,2.296447754E-2
4.573740937E0,1.327514648E-3,3.060913086E-2,2.174377441E-2
4.578623750E0,-1.113891602E-3,3.672790527E-2,1.928710938E-2
4.583506562E0,-4.165649414E-3,4.283142090E-2,1.684570312E-2
4.588358857E0,-7.827758789E-3,4.649353027E-2,1.379394531E-2
4.593241669E0,-1.272583008E-2,4.893493652E-2,1.135253906E-2
4.598124482E0,-1.699829102E-2,5.015563965E-2,7.080078125E-3
4.603007294E0,-2.066040039E-2,5.076599121E-2,1.586914062E-3
4.607890107E0,-2.433776855E-2,5.076599121E-2,-2.090454102E-3
4.612772919E0,-2.555847168E-2,5.076599121E-2,-6.973266602E-3
4.617655732E0,-2.615356445E-2,5.259704590E-2,-1.002502441E-2
4.622538544E0,-2.615356445E-2,5.320739746E-2,-1.185607910E-2
4.627421357E0,-2.555847168E-2,5.810546875E-2,-1.370239258E-2
4.632304169E0,-2.433776855E-2,6.115722656E-2,-1.492309570E-2
4.637186982E0,-2.249145508E-2,6.176757812E-2,-1.614379883E-2
4.642069794E0,-2.005004883E-2,6.237792969E-2,-1.736450195E-2
4.646952607E0,-1.699829102E-2,6.054687500E-2,-1.614379883E-2
4.651835419E0,-1.638793945E-2,5.810546875E-2,-1.795959473E-2
4.656718232E0,-1.455688477E-2,5.320739746E-2,-1.736450195E-2
4.661601044E0,-1.150512695E-2,4.832458496E-2,-1.673889160E-2
4.666483857E0,-7.827758789E-3,4.222106934E-2,-1.614379883E-2
4.671366669E0,-6.607055664E-3,3.550720215E-2,-1.614379883E-2
4.676249482E0,-3.555297852E-3,2.816772461E-2,-1.370239258E-2
4.681132294E0,7.171630859E-4,2.084350586E-2,-1.370239258E-2
4.685984589E0,3.768920898E-3,1.289367676E-2,-1.246643066E-2
4.690867402E0,6.210327148E-3,8.010864258E-3,-1.185607910E-2
4.695750214E0,8.651733398E-3,1.892089844E-3,-1.063537598E-2
4.700633027E0,1.109313965E-2,-2.990722656E-3,-8.804321289E-3
4.705515839E0,1.293945312E-2,-6.637573242E-3,-8.193969727E-3
4.710398652E0,1.416015625E-2,-8.483886719E-3,-6.362915039E-3
4.715281464E0,1.721191406E-2,-9.704589844E-3,-5.142211914E-3
4.720164277E0,1.843261719E-2,-9.078979492E-3,-3.921508789E-3
4.725047089E0,2.024841309E-2,-8.483886719E-3,-3.921508789E-3
4.729929902E0,2.268981934E-2,-8.483886719E-3,-4.531860352E-3
4.734812714E0,2.391052246E-2,-7.858276367E-3,-3.921508789E-3
4.739695527E0,2.575683594E-2,-5.416870117E-3,-3.921508789E-3
4.744578339E0,2.697753906E-2,-3.585815430E-3,-4.531860352E-3
4.749461152E0,2.758789062E-2,-1.144409180E-3,-3.921508789E-3
4.754343964E0,2.819824219E-2,1.296997070E-3,-5.142211914E-3
4.759226777E0,2.697753906E-2,5.569458008E-3,-5.142211914E-3
4.764109589E0,2.636718750E-2,9.231567383E-3,-5.752563477E-3
4.768992402E0,2.575683594E-2,1.411437988E-2,-5.752563477E-3
4.773875214E0,2.391052246E-2,1.962280273E-2,-5.142211914E-3
4.778727509E0,2.209472656E-2,2.267456055E-2,-5.142211914E-3
4.783610322E0,2.087402344E-2,2.694702148E-2,-3.921508789E-3
4.788493134E0,1.843261719E-2,3.182983398E-2,-3.921508789E-3
4.793375947E0,1.721191406E-2,3.244018555E-2,-3.921508789E-3
4.798258759E0,1.538085938E-2,3.550720215E-2,-3.921508789E-3
4.803141572E0,1.293945312E-2,3.610229492E-2,-3.311157227E-3
4.808024384E0,1.109313965E-2,3.855895996E-2,-2.700805664E-3
4.812907197E0,9.277343750E-3,3.977966309E-2,-1.480102539E-3
4.817790009E0,6.820678711E-3,4.161071777E-2,-8.544921875E-4
4.822672822E0,6.210327148E-3,4.466247559E-2,3.662109375E-4
4.827555634E0,5.599975586E-3,4.710388184E-2,1.586914062E-3
4.832438447E0,4.379272461E-3,4.893493652E-2,1.586914062E-3
4.837321259E0,3.768920898E-3,5.259704590E-2,1.586914062E-3
4.842204072E0,3.768920898E-3,5.505371094E-2,2.807617188E-3
4.847086884E0,3.158569336E-3,5.749511719E-2,4.028320312E-3
4.851969697E0,1.327514648E-3,5.932617188E-2,3.402709961E-3
4.856852509E0,1.068115234E-4,6.176757812E-2,4.638671875E-3
4.861735322E0,-1.724243164E-3,6.542968750E-2,4.028320312E-3
4.866618134E0,-2.334594727E-3,6.848144531E-2,5.859375000E-3
4.871500947E0,-3.555297852E-3,7.398986816E-2,6.469726562E-3
4.876353242E0,-4.165649414E-3,7.704162598E-2,7.080078125E-3
4.881236054E0,-4.791259766E-3,8.375549316E-2,8.911132812E-3
4.886118867E0,-5.386352539E-3,8.987426758E-2,1.196289062E-2
4.891001679E0,-6.011962891E-3,9.658813477E-2,1.440429688E-2
4.895884492E0,-5.386352539E-3,1.026916504E-1,1.623535156E-2
4.900767304E0,-6.011962891E-3,1.051330566E-1,1.684570312E-2
4.905650117E0,-6.011962891E-3,1.069793701E-1,1.684570312E-2
4.910532929E0,-2.944946289E-3,1.075744629E-1,1.745605469E-2
4.915415742E0,-5.035400391E-4,1.063537598E-1,1.684570312E-2
4.920298554E0,1.327514648E-3,1.051330566E-1,1.869201660E-2
4.925181367E0,4.379272461E-3,1.039123535E-1,1.928710938E-2
4.930064179E0,8.056640625E-3,1.026916504E-1,1.928710938E-2
4.934946992E0,1.109313965E-2,1.026916504E-1,1.928710938E-2
4.939829804E0,1.171875000E-2,1.051330566E-1,1.928710938E-2
4.944712617E0,1.353454590E-2,1.039123535E-1,1.684570312E-2
4.949595429E0,1.475524902E-2,1.033020020E-1,1.501464844E-2
4.954478242E0,1.538085938E-2,1.045227051E-1,1.318359375E-2
4.959361054E0,1.599121094E-2,1.014709473E-1,8.911132812E-3
4.964243867E0,1.721191406E-2,9.902954102E-2,7.080078125E-3
4.969126679E0,1.843261719E-2,9.536743164E-2,5.249023438E-3
4.973978974E0,1.780700684E-2,9.413146973E-2,9.613037109E-4
4.978861787E0,1.780700684E-2,9.231567383E-2,-1.480102539E-3
4.983744599E0,1.780700684E-2,8.865356445E-2,-2.090454102E-3
4.988627412E0,1.780700684E-2,8.497619629E-2,-2.090454102E-3
4.993510224E0,1.721191406E-2,8.192443848E-2,-3.921508789E-3
4.998393037E0,1.780700684E-2,7.704162598E-2,-3.311157227E-3
5.003275849E0,1.780700684E-2,7.031250000E-2,-3.311157227E-3
5.008158662E0,1.721191406E-2,6.298828125E-2,-4.531860352E-3
5.013041474E0,1.780700684E-2,5.566406250E-2,-5.752563477E-3
5.017924287E0,1.721191406E-2,4.954528809E-2,-6.973266602E-3
5.022807099E0,1.475524902E-2,3.916931152E-2,-8.193969727E-3
5.027689912E0,1.475524902E-2,3.060913086E-2,-1.063537598E-2
5.032572724E0,1.353454590E-2,2.267456055E-2,-1.185607910E-2
5.037455537E0,1.171875000E-2,1.472473145E-2,-1.307678223E-2
5.042338349E0,1.049804688E-2,8.010864258E-3,-1.614379883E-2
5.047221162E0,8.056640625E-3,2.517700195E-3,-1.551818848E-2
5.052103974E0,6.820678711E-3,-1.770019531E-3,-1.614379883E-2
5.056986787E0,4.379272461E-3,-4.806518555E-3,-1.492309570E-2
5.061869599E0,1.937866211E-3,-4.806518555E-3,-1.614379883E-2
5.066752412E0,-5.035400391E-4,-7.263183594E-3,-1.370239258E-2
5.071604707E0,-3.555297852E-3,-9.078979492E-3,-1.185607910E-2
5.076487519E0,-4.791259766E-3,-1.029968262E-2,-1.063537598E-2
5.081370332E0,-6.011962891E-3,-1.214599609E-2,-9.414672852E-3
5.086253144E0,-7.232666016E-3,-1.458740234E-2,-8.804321289E-3
5.091135957E0,-8.453369141E-3,-1.885986328E-2,-7.583618164E-3
5.096018769E0,-7.827758789E-3,-2.130126953E-2,-6.362915039E-3
5.100901582E0,-7.827758789E-3,-2.374267578E-2,-5.752563477E-3
5.105784394E0,-6.607055664E-3,-2.680969238E-2,-6.973266602E-3
5.110667207E0,-4.791259766E-3,-3.108215332E-2,-6.362915039E-3
5.115550019E0,-2.334594727E-3,-3.718566895E-2,-7.583618164E-3
5.120432832E0,-5.035400391E-4,-4.267883301E-2,-8.804321289E-3
5.125315644E0,1.327514648E-3,-4.818725586E-2,-9.414672852E-3
5.130198457E0,3.158569336E-3,-5.184936523E-2,-8.804321289E-3
5.135081269E0,3.158569336E-3,-5.245971680E-2,-1.002502441E-2
5.139964082E0,3.768920898E-3,-5.368041992E-2,-9.414672852E-3
5.144846894E0,2.548217773E-3,-5.245971680E-2,-8.804321289E-3
5.149729707E0,2.548217773E-3,-4.940795898E-2,-9.414672852E-3
5.154612519E0,1.937866211E-3,-4.635620117E-2,-8.804321289E-3
5.159495332E0,7.171630859E-4,-4.267883301E-2,-8.804321289E-3
5.164347626E0,1.068115234E-4,-3.901672363E-2,-7.583618164E-3
5.169230439E0,-1.724243164E-3,-3.596496582E-2,-7.583618164E-3
5.174113251E0,-3.555297852E-3,-2.984619141E-2,-6.362915039E-3
5.178996064E0,-5.386352539E-3,-2.680969238E-2,-6.362915039E-3
5.183878876E0,-7.232666016E-3,-2.374267578E-2,-5.752563477E-3
5.188761689E0,-9.048461914E-3,-2.069091797E-2,-5.752563477E-3
5.193644501E0,-9.674072266E-3,-1.763916016E-2,-5.752563477E-3
5.198527314E0,-1.211547852E-2,-1.519775391E-2,-6.362915039E-3
5.203410126E0,-1.272583008E-2,-1.152038574E-2,-5.142211914E-3
5.208292939E0,-1.577758789E-2,-7.858276367E-3,-4.531860352E-3
5.213175751E0,-1.943969727E-2,-4.211425781E-3,-2.700805664E-3
5.218058564E0,-2.310180664E-2,6.713867188E-4,-2.090454102E-3
5.222941376E0,-2.738952637E-2,5.569458008E-3,-2.593994141E-4
5.227824189E0,-3.044128418E-2,9.841918945E-3,9.613037109E-4
5.232707001E0,-3.227233887E-2,1.596069336E-2,3.402709961E-3
5.237589814E0,-3.349304199E-2,1.840209961E-2,2.807617188E-3
5.242472626E0,-3.349304199E-2,1.962280273E-2,3.402709961E-3
5.247355439E0,-3.471374512E-2,2.145385742E-2,2.807617188E-3
5.252238251E0,-3.471374512E-2,2.145385742E-2,3.402709961E-3
5.257121064E0,-3.410339355E-2,2.206420898E-2,4.638671875E-3
5.261973359E0,-3.349304199E-2,1.962280273E-2,4.638671875E-3
5.266856171E0,-3.227233887E-2,1.899719238E-2,4.638671875E-3
5.271738984E0,-3.105163574E-2,1.718139648E-2,4.638671875E-3
5.276621796E0,-2.983093262E-2,1.533508301E-2,5.249023438E-3
5.281504609E0,-2.861022949E-2,1.411437988E-2,4.638671875E-3
5.286387421E0,-2.861022949E-2,1.472473145E-2,7.690429688E-3
5.291270234E0,-2.861022949E-2,1.533508301E-2,8.300781250E-3
5.296153046E0,-2.738952637E-2,1.777648926E-2,1.013183594E-2
5.301035859E0,-2.799987793E-2,2.084350586E-2,1.074218750E-2
5.305918671E0,-2.983093262E-2,2.450561523E-2,1.135253906E-2
5.310801484E0,-3.166198730E-2,2.633666992E-2,1.074218750E-2
5.315684296E0,-3.288269043E-2,2.633666992E-2,1.013183594E-2
5.320567109E0,-3.410339355E-2,2.816772461E-2,1.013183594E-2
5.325449921E0,-3.532409668E-2,2.755737305E-2,1.013183594E-2
5.330332734E0,-3.471374512E-2,2.816772461E-2,9.521484375E-3
5.335215546E0,-3.532409668E-2,2.450561523E-2,7.690429688E-3
5.340098359E0,-3.288269043E-2,2.084350586E-2,7.690429688E-3
5.344981171E0,-3.105163574E-2,1.596069336E-2,5.859375000E-3
5.349863984E0,-2.615356445E-2,1.106262207E-2,4.028320312E-3
5.354746796E0,-2.249145508E-2,4.959106445E-3,4.028320312E-3
5.359599091E0,-1.821899414E-2,6.713867188E-4,4.028320312E-3
5.364481904E0,-1.455688477E-2,-2.365112305E-3,2.807617188E-3
5.369364716E0,-1.028442383E-2,-4.806518555E-3,2.807617188E-3
5.374247529E0,-6.011962891E-3,-6.042480469E-3,1.586914062E-3
5.379130341E0,-3.555297852E-3,-6.042480469E-3,3.662109375E-4
5.384013154E0,-1.113891602E-3,-5.416870117E-3,-2.593994141E-4
5.388895966E0,1.068115234E-4,-4.211425781E-3,-1.480102539E-3
5.393778779E0,1.327514648E-3,-5.416870117E-3,-2.700805664E-3
5.398661591E0,3.158569336E-3,-6.042480469E-3,-3.921508789E-3
5.403544404E0,4.379272461E-3,-8.483886719E-3,-4.531860352E-3
5.408427216E0,4.989624023E-3,-9.078979492E-3,-6.973266602E-3
5.413310029E0,5.599975586E-3,-9.704589844E-3,-7.583618164E-3
5.418192841E0,6.210327148E-3,-1.092529297E-2,-8.804321289E-3
5.423075654E0,6.820678711E-3,-1.152038574E-2,-8.804321289E-3
5.427958466E0,8.056640625E-3,-1.336669922E-2,-9.414672852E-3
5.432841279E0,8.651733398E-3,-1.152038574E-2,-8.804321289E-3
5.437724091E0,7.431030273E-3,-9.078979492E-3,-5.752563477E-3
5.442606904E0,6.820678711E-3,-6.637573242E-3,-5.752563477E-3
5.447489716E0,5.599975586E-3,-4.211425781E-3,-3.921508789E-3
5.452342011E0,3.768920898E-3,-1.770019531E-3,-3.921508789E-3
5.457224824E0,1.937866211E-3,-1.144409180E-3,-3.311157227E-3
5.462107636E0,1.937866211E-3,-2.990722656E-3,-5.142211914E-3
5.466990449E0,1.937866211E-3,-4.211425781E-3,-5.752563477E-3
5.471873261E0,3.158569336E-3,-7.263183594E-3,-6.973266602E-3
5.476756074E0,4.379272461E-3,-1.092529297E-2,-6.973266602E-3
5.481638886E0,4.989624023E-3,-1.274108887E-2,-8.804321289E-3
5.486521699E0,4.989624023E-3,-1.580810547E-2,-1.063537598E-2
5.491404511E0,4.989624023E-3,-1.763916016E-2,-1.063537598E-2
5.496287324E0,4.989624023E-3,-1.947021484E-2,-1.124572754E-2
5.501170136E0,6.820678711E-3,-1.885986328E-2,-1.370239258E-2
5.506052949E0,9.277343750E-3,-1.824951172E-2,-1.429748535E-2
5.510935761E0,1.049804688E-2,-1.580810547E-2,-1.492309570E-2
5.515818574E0,1.171875000E-2,-1.274108887E-2,-1.429748535E-2
5.520701386E0,1.231384277E-2,-7.263183594E-3,-1.551818848E-2
5.525584199E0,1.231384277E-2,-2.365112305E-3,-1.429748535E-2
5.530467011E0,1.171875000E-2,3.112792969E-3,-1.551818848E-2
5.535349824E0,1.171875000E-2,8.010864258E-3,-1.429748535E-2
5.540232636E0,1.231384277E-2,1.350402832E-2,-1.429748535E-2
5.545115449E0,1.231384277E-2,1.718139648E-2,-1.370239258E-2
5.549967744E0,1.353454590E-2,1.962280273E-2,-1.370239258E-2
5.554850556E0,1.599121094E-2,2.084350586E-2,-1.492309570E-2
5.559733369E0,1.658630371E-2,1.777648926E-2,-1.551818848E-2
5.564616181E0,1.658630371E-2,1.472473145E-2,-1.736450195E-2
5.569498994E0,1.843261719E-2,9.231567383E-3,-1.918029785E-2
5.574381806E0,1.902770996E-2,3.738403320E-3,-2.040100098E-2
5.579264619E0,1.902770996E-2,-1.144409180E-3,-2.285766602E-2
5.584147431E0,1.902770996E-2,-4.211425781E-3,-2.285766602E-2
5.589030244E0,1.780700684E-2,-5.416870117E-3,-2.285766602E-2
5.593913056E0,1.599121094E-2,-5.416870117E-3,-2.285766602E-2
5.598795869E0,1.416015625E-2,-1.144409180E-3,-2.162170410E-2
5.603678681E0,1.231384277E-2,6.713867188E-4,-2.102661133E-2
5.608561494E0,9.872436523E-3,2.517700195E-3,-1.980590820E-2
5.613444306E0,9.872436523E-3,2.517700195E-3,-1.918029785E-2
5.618327119E0,7.431030273E-3,1.892089844E-3,-1.918029785E-2
5.623209931E0,7.431030273E-3,6.713867188E-4,-1.858520508E-2
5.628092744E0,7.431030273E-3,7.629394531E-5,-1.858520508E-2
5.632975556E0,4.989624023E-3,-5.416870117E-3,-1.918029785E-2
5.637858369E0,3.768920898E-3,-9.704589844E-3,-1.980590820E-2
5.642741181E0,1.937866211E-3,-1.274108887E-2,-1.980590820E-2
5.647593476E0,-1.113891602E-3,-1.580810547E-2,-1.858520508E-2
5.652476289E0,-3.555297852E-3,-1.763916016E-2,-1.673889160E-2
5.657359101E0,-6.607055664E-3,-1.824951172E-2,-1.736450195E-2
5.662241914E0,-8.453369141E-3,-2.008056641E-2,-1.492309570E-2
5.667124726E0,-1.028442383E-2,-2.191162109E-2,-1.370239258E-2
5.672007539E0,-1.028442383E-2,-2.130126953E-2,-1.246643066E-2
5.676890351E0,-1.150512695E-2,-1.947021484E-2,-1.185607910E-2
5.681773164E0,-1.028442383E-2,-1.763916016E-2,-1.124572754E-2
5.686655976E0,-9.674072266E-3,-1.702880859E-2,-1.063537598E-2
5.691538789E0,-1.028442383E-2,-1.641845703E-2,-9.414672852E-3
5.696421601E0,-1.028442383E-2,-1.641845703E-2,-8.193969727E-3
5.701304414E0,-1.028442383E-2,-1.641845703E-2,-7.583618164E-3
5.706187226E0,-1.028442383E-2,-1.702880859E-2,-7.583618164E-3
5.711070039E0,-1.089477539E-2,-2.008056641E-2,-1.002502441E-2
5.715952851E0,-1.028442383E-2,-2.435302734E-2,-1.063537598E-2
5.720835664E0,-9.674072266E-3,-2.618408203E-2,-1.307678223E-2
5.725718476E0,-9.048461914E-3,-2.740478516E-2,-1.370239258E-2
5.730601289E0,-8.453369141E-3,-2.740478516E-2,-1.370239258E-2
5.735484101E0,-6.607055664E-3,-2.740478516E-2,-1.614379883E-2
5.740366914E0,-3.555297852E-3,-2.558898926E-2,-1.918029785E-2
5.745219209E0,-1.113891602E-3,-2.496337891E-2,-2.345275879E-2
5.750102021E0,1.327514648E-3,-2.374267578E-2,-2.407836914E-2
5.754984834E0,4.379272461E-3,-2.191162109E-2,-2.711486816E-2
5.759867646E0,7.431030273E-3,-1.824951172E-2,-3.018188477E-2
5.764750459E0,1.049804688E-2,-1.336669922E-2,-3.018188477E-2
5.769633271E0,1.475524902E-2,-7.858276367E-3,-2.896118164E-2
5.774516084E0,1.902770996E-2,-2.990722656E-3,-2.833557129E-2
5.779398896E0,2.391052246E-2,-1.770019531E-3,-2.529907227E-2
5.784281709E0,2.697753906E-2,-5.493164062E-4,-2.467346191E-2
5.789164521E0,3.125000000E-2,-3.585815430E-3,-2.345275879E-2
5.794047334E0,3.430175781E-2,-6.042480469E-3,-2.345275879E-2
5.798930146E0,3.675842285E-2,-1.152038574E-2,-2.223205566E-2
5.803812959E0,3.735351562E-2,-1.641845703E-2,-2.223205566E-2
5.808695771E0,3.919982910E-2,-2.130126953E-2,-2.040100098E-2
5.813578584E0,3.735351562E-2,-2.435302734E-2,-1.795959473E-2
5.818461396E0,3.675842285E-2,-2.740478516E-2,-1.673889160E-2
5.823344209E0,3.613281250E-2,-2.740478516E-2,-1.551818848E-2
5.828227021E0,3.491210938E-2,-2.984619141E-2,-1.429748535E-2
5.833109834E0,3.369140625E-2,-3.108215332E-2,-1.246643066E-2
5.837992646E0,3.186035156E-2,-2.925109863E-2,-1.063537598E-2
5.842844941E0,2.880859375E-2,-2.740478516E-2,-6.973266602E-3
5.847727753E0,2.819824219E-2,-2.496337891E-2,-3.921508789E-3
5.852610566E0,2.575683594E-2,-2.252197266E-2,-1.480102539E-3
5.857493378E0,2.331542969E-2,-2.008056641E-2,-2.593994141E-4
5.862376191E0,2.146911621E-2,-1.702880859E-2,2.182006836E-3
5.867259003E0,1.965332031E-2,-1.519775391E-2,9.613037109E-4
5.872141816E0,1.721191406E-2,-1.641845703E-2,-2.593994141E-4
5.877024628E0,1.599121094E-2,-1.519775391E-2,-1.480102539E-3
5.881907441E0,1.353454590E-2,-1.702880859E-2,-2.090454102E-3
5.886790253E0,1.049804688E-2,-1.947021484E-2,-3.311157227E-3
5.891673066E0,8.056640625E-3,-2.191162109E-2,-4.531860352E-3
5.896555878E0,4.379272461E-3,-2.374267578E-2,-7.583618164E-3
5.901438691E0,3.158569336E-3,-2.496337891E-2,-9.414672852E-3
5.906321503E0,-5.035400391E-4,-2.558898926E-2,-1.185607910E-2
5.911204316E0,-2.944946289E-3,-2.008056641E-2,-1.307678223E-2
5.916087128E0,-6.607055664E-3,-1.580810547E-2,-1.370239258E-2
5.920969941E0,-1.028442383E-2,-1.092529297E-2,-1.492309570E-2
5.925852753E0,-1.272583008E-2,-4.806518555E-3,-1.429748535E-2
5.930735566E0,-1.638793945E-2,-1.144409180E-3,-1.370239258E-2
5.935587861E0,-1.821899414E-2,2.517700195E-3,-1.246643066E-2
5.940470673E0,-1.943969727E-2,6.790161133E-3,-1.246643066E-2
5.945353486E0,-2.127075195E-2,9.841918945E-3,-1.124572754E-2
5.950236298E0,-2.005004883E-2,9.841918945E-3,-1.185607910E-2
5.955119111E0,-1.943969727E-2,8.010864258E-3,-1.370239258E-2
5.960001923E0,-1.760864258E-2,2.517700195E-3,-1.492309570E-2
5.964884736E0,-1.516723633E-2,-4.211425781E-3,-1.673889160E-2
5.969767548E0,-1.272583008E-2,-1.092529297E-2,-1.980590820E-2
5.974650361E0,-1.211547852E-2,-1.702880859E-2,-2.102661133E-2
5.979533173E0,-8.453369141E-3,-2.374267578E-2,-2.285766602E-2
5.984415986E0,-6.607055664E-3,-2.925109863E-2,-2.407836914E-2
5.989298798E0,-5.386352539E-3,-3.657531738E-2,-2.589416504E-2
5.994181611E0,-3.555297852E-3,-4.145812988E-2,-2.711486816E-2
5.999064423E0,-1.113891602E-3,-4.757690430E-2,-2.774047852E-2
6.003947236E0,1.937866211E-3,-5.245971680E-2,-2.833557129E-2
6.008830048E0,4.379272461E-3,-5.368041992E-2,-2.955627441E-2
6.013712861E0,4.989624023E-3,-5.490112305E-2,-2.896118164E-2
6.018595673E0,4.989624023E-3,-5.551147461E-2,-2.896118164E-2
6.023478486E0,7.431030273E-3,-5.612182617E-2,-2.955627441E-2
6.028361298E0,7.431030273E-3,-5.673217773E-2,-2.896118164E-2
6.033213593E0,8.651733398E-3,-5.795288086E-2,-2.896118164E-2
6.038096406E0,9.872436523E-3,-5.612182617E-2,-2.589416504E-2
6.042979218E0,9.872436523E-3,-5.551147461E-2,-2.467346191E-2
6.047862031E0,8.651733398E-3,-5.429077148E-2,-2.162170410E-2
6.052744843E0,9.277343750E-3,-5.123901367E-2,-1.980590820E-2
6.057627656E0,8.651733398E-3,-5.001831055E-2,-1.918029785E-2
6.062510468E0,8.056640625E-3,-4.879760742E-2,-1.858520508E-2
6.067393281E0,7.431030273E-3,-4.757690430E-2,-1.736450195E-2
6.072276093E0,7.431030273E-3,-4.757690430E-2,-1.795959473E-2
6.077158906E0,6.210327148E-3,-4.635620117E-2,-1.673889160E-2
6.082041718E0,4.379272461E-3,-4.267883301E-2,-1.673889160E-2
6.086924531E0,2.548217773E-3,-3.901672363E-2,-1.614379883E-2
6.091807343E0,1.937866211E-3,-3.535461426E-2,-1.614379883E-2
6.096690156E0,1.327514648E-3,-3.413391113E-2,-1.673889160E-2
6.101572968E0,1.327514648E-3,-3.352355957E-2,-1.918029785E-2
6.106455781E0,1.937866211E-3,-3.718566895E-2,-2.102661133E-2
6.111338593E0,3.768920898E-3,-4.573059082E-2,-2.407836914E-2
6.116221406E0,6.210327148E-3,-5.551147461E-2,-2.589416504E-2
6.121104218E0,8.651733398E-3,-6.344604492E-2,-2.651977539E-2
6.125987031E0,9.872436523E-3,-6.956481934E-2,-2.774047852E-2
6.130839326E0,1.231384277E-2,-7.322692871E-2,-2.955627441E-2
6.135722138E0,1.353454590E-2,-7.688903809E-2,-3.079223633E-2
6.140604951E0,1.538085938E-2,-7.566833496E-2,-3.140258789E-2
6.145487763E0,1.293945312E-2,-7.261657715E-2,-3.018188477E-2
6.150370576E0,1.049804688E-2,-6.590270996E-2,-2.833557129E-2
6.155253388E0,8.056640625E-3,-5.734252930E-2,-2.589416504E-2
6.160136201E0,4.989624023E-3,-4.695129395E-2,-2.467346191E-2
6.165019013E0,1.327514648E-3,-3.657531738E-2,-2.223205566E-2
6.169901826E0,-2.334594727E-3,-2.984619141E-2,-2.345275879E-2
6.174784638E0,-6.011962891E-3,-2.252197266E-2,-2.407836914E-2
6.179667451E0,-7.827758789E-3,-1.763916016E-2,-2.407836914E-2
6.184550263E0,-9.674072266E-3,-1.641845703E-2,-2.589416504E-2
6.189433076E0,-1.028442383E-2,-1.763916016E-2,-2.711486816E-2
6.194315888E0,-1.150512695E-2,-1.824951172E-2,-2.774047852E-2
6.199198701E0,-9.674072266E-3,-2.130126953E-2,-3.018188477E-2
6.204081513E0,-6.011962891E-3,-2.435302734E-2,-3.140258789E-2
6.208964326E0,-3.555297852E-3,-2.925109863E-2,-3.323364258E-2
6.213847138E0,1.068115234E-4,-3.413391113E-2,-3.567504883E-2
6.218729951E0,4.379272461E-3,-3.840637207E-2,-3.567504883E-2
6.223612763E0,9.872436523E-3,-4.206848145E-2,-3.750610352E-2
6.228465058E0,1.599121094E-2,-4.450988770E-2,-3.994750977E-2
6.233347871E0,2.087402344E-2,-4.635620117E-2,-3.994750977E-2
6.238230683E0,2.636718750E-2,-4.879760742E-2,-3.994750977E-2
6.243113496E0,3.247070312E-2,-4.879760742E-2,-3.933715820E-2
6.247996308E0,3.613281250E-2,-4.513549805E-2,-3.689575195E-2
6.252879121E0,4.164123535E-2,-4.023742676E-2,-3.445434570E-2
6.257761933E0,4.652404785E-2,-3.413391113E-2,-3.140258789E-2
6.262644746E0,5.201721191E-2,-2.740478516E-2,-2.774047852E-2
6.267527558E0,5.567932129E-2,-2.191162109E-2,-2.529907227E-2
6.272410371E0,6.118774414E-2,-2.069091797E-2,-2.407836914E-2
6.277293183E0,6.607055664E-2,-2.069091797E-2,-2.529907227E-2
6.282175996E0,6.973266602E-2,-2.496337891E-2,-2.896118164E-2
6.287058808E0,7.400512695E-2,-3.108215332E-2,-3.262329102E-2
6.291941621E0,7.829284668E-2,-3.962707520E-2,-3.750610352E-2
6.296824433E0,8.195495605E-2,-4.635620117E-2,-4.240417480E-2
6.301707246E0,8.378601074E-2,-5.612182617E-2,-4.728698730E-2
6.306590058E0,8.683776855E-2,-5.673217773E-2,-5.155944824E-2
6.311472871E0,8.805847168E-2,-5.673217773E-2,-5.522155762E-2
6.316355683E0,9.111022949E-2,-5.429077148E-2,-5.400085449E-2
6.321238496E0,9.234619141E-2,-4.450988770E-2,-5.400085449E-2
6.326090791E0,9.234619141E-2,-3.413391113E-2,-5.339050293E-2
6.330973603E0,9.111022949E-2,-2.618408203E-2,-5.522155762E-2
6.335856416E0,8.866882324E-2,-2.008056641E-2,-5.522155762E-2
6.340739228E0,8.683776855E-2,-1.336669922E-2,-5.400085449E-2
6.345622041E0,8.439636230E-2,-7.263183594E-3,-5.400085449E-2
6.350504853E0,8.317565918E-2,-5.493164062E-4,-5.033874512E-2
6.355387666E0,8.073425293E-2,6.790161133E-3,-4.666137695E-2
6.360270478E0,7.829284668E-2,1.350402832E-2,-4.421997070E-2
6.365153291E0,7.585144043E-2,1.899719238E-2,-4.177856445E-2
6.370036103E0,7.217407227E-2,2.389526367E-2,-3.872680664E-2
6.374918916E0,6.790161133E-2,2.694702148E-2,-3.323364258E-2
6.379801728E0,6.423950195E-2,3.182983398E-2,-2.833557129E-2
6.384684541E0,5.874633789E-2,3.672790527E-2,-2.345275879E-2
6.389567353E0,5.018615723E-2,4.344177246E-2,-1.795959473E-2
6.394450166E0,4.164123535E-2,5.015563965E-2,-1.185607910E-2
6.399332978E0,3.186035156E-2,5.688476562E-2,-6.973266602E-3
6.404215791E0,2.087402344E-2,6.237792969E-2,-1.480102539E-3
6.409098603E0,9.277343750E-3,6.542968750E-2,2.807617188E-3
6.413981416E0,-1.113891602E-3,6.848144531E-2,4.638671875E-3
6.418864228E0,-1.089477539E-2,6.726074219E-2,5.249023438E-3
6.423716523E0,-2.005004883E-2,6.481933594E-2,4.638671875E-3
6.428599335E0,-2.555847168E-2,5.810546875E-2,1.586914062E-3
6.433482148E0,-3.044128418E-2,5.015563965E-2,-2.700805664E-3
6.438364960E0,-3.349304199E-2,4.283142090E-2,-6.362915039E-3
6.443247773E0,-3.654479980E-2,3.672790527E-2,-1.246643066E-2
6.448130585E0,-3.959655762E-2,2.816772461E-2,-1.673889160E-2
6.453013398E0,-4.020690918E-2,2.206420898E-2,-2.223205566E-2
6.457896210E0,-3.898620605E-2,1.655578613E-2,-2.589416504E-2
6.462779023E0,-3.715515137E-2,8.621215820E-3,-3.018188477E-2
6.467661835E0,-3.593444824E-2,3.112792969E-3,-3.262329102E-2
6.472544648E0,-3.349304199E-2,1.296997070E-3,-3.323364258E-2
6.477427460E0,-3.166198730E-2,-1.144409180E-3,-3.140258789E-2
6.482310273E0,-2.861022949E-2,7.629394531E-5,-2.896118164E-2
6.487193085E0,-2.615356445E-2,4.959106445E-3,-2.529907227E-2
6.492075898E0,-2.188110352E-2,1.045227051E-2,-2.223205566E-2
6.496958710E0,-1.638793945E-2,1.106262207E-2,-1.918029785E-2
6.501841523E0,-1.028442383E-2,1.045227051E-2,-1.551818848E-2
6.506724335E0,-3.555297852E-3,4.959106445E-3,-1.307678223E-2
6.511607148E0,6.210327148E-3,-1.770019531E-3,-1.063537598E-2
6.516489960E0,1.538085938E-2,-1.214599609E-2,-1.002502441E-2
6.521342255E0,2.391052246E-2,-2.313232422E-2,-1.002502441E-2
6.526225068E0,3.186035156E-2,-3.413391113E-2,-1.002502441E-2
6.531107880E0,4.042053223E-2,-4.389953613E-2,-1.063537598E-2
6.535990693E0,4.774475098E-2,-5.368041992E-2,-1.185607910E-2
6.540873505E0,5.262756348E-2,-6.100463867E-2,-1.551818848E-2
6.545756318E0,5.812072754E-2,-6.529235840E-2,-1.795959473E-2
6.550639130E0,6.179809570E-2,-6.773376465E-2,-2.223205566E-2
6.555521943E0,6.668090820E-2,-6.651306152E-2,-2.162170410E-2
6.560404755E0,6.973266602E-2,-6.529235840E-2,-2.345275879E-2
6.565287568E0,7.278442383E-2,-6.100463867E-2,-2.345275879E-2
6.570170380E0,7.278442383E-2,-5.429077148E-2,-2.407836914E-2
6.575053193E0,7.095336914E-2,-4.695129395E-2,-2.529907227E-2
6.579936005E0,6.973266602E-2,-3.901672363E-2,-2.467346191E-2
6.584818818E0,6.668090820E-2,-3.047180176E-2,-2.529907227E-2
6.589701630E0,6.240844727E-2,-2.313232422E-2,-2.651977539E-2
6.594584443E0,5.567932129E-2,-1.824951172E-2,-2.833557129E-2
6.599467255E0,4.957580566E-2,-1.641845703E-2,-3.201293945E-2
6.604350068E0,4.101562500E-2,-1.885986328E-2,-3.445434570E-2
6.609232880E0,3.186035156E-2,-2.252197266E-2,-3.811645508E-2
6.614115693E0,2.268981934E-2,-2.740478516E-2,-3.994750977E-2
6.618967988E0,1.353454590E-2,-3.413391113E-2,-4.362487793E-2
6.623850800E0,4.379272461E-3,-3.840637207E-2,-4.484558105E-2
6.628733613E0,-4.791259766E-3,-4.145812988E-2,-4.606628418E-2
6.633616425E0,-1.394653320E-2,-4.267883301E-2,-4.606628418E-2
6.638499238E0,-2.249145508E-2,-4.145812988E-2,-4.484558105E-2
6.643382050E0,-2.922058105E-2,-3.779602051E-2,-4.362487793E-2
6.648264863E0,-3.471374512E-2,-3.169250488E-2,-4.240417480E-2
6.653147675E0,-3.654479980E-2,-2.558898926E-2,-4.055786133E-2
6.658030488E0,-3.532409668E-2,-2.008056641E-2,-3.872680664E-2
6.662913300E0,-3.166198730E-2,-1.641845703E-2,-3.567504883E-2
6.667796113E0,-2.249145508E-2,-1.580810547E-2,-3.323364258E-2
6.672678925E0,-1.333618164E-2,-1.641845703E-2,-2.896118164E-2
6.677561738E0,-2.944946289E-3,-2.008056641E-2,-2.651977539E-2
6.682444550E0,8.056640625E-3,-2.313232422E-2,-2.407836914E-2
6.687327363E0,1.780700684E-2,-3.230285645E-2,-2.285766602E-2
6.692210175E0,3.125000000E-2,-3.169250488E-2,-1.858520508E-2
6.697092988E0,4.469299316E-2,-4.023742676E-2,-1.673889160E-2
6.701975800E0,5.690002441E-2,-4.695129395E-2,-1.307678223E-2
6.706858613E0,6.973266602E-2,-5.123901367E-2,-1.307678223E-2
6.711710908E0,8.012390137E-2,-5.734252930E-2,-1.307678223E-2
6.716593720E0,8.805847168E-2,-6.834411621E-2,-1.673889160E-2
6.721476533E0,9.661865234E-2,-7.383728027E-2,-1.980590820E-2
6.726359345E0,1.033325195E-1,-7.933044434E-2,-2.467346191E-2
6.731242158E0,1.082153320E-1,-8.911132812E-2,-2.955627441E-2
6.736124970E0,1.106719971E-1,-9.460449219E-2,-3.262329102E-2
6.741007783E0,1.100463867E-1,-9.704589844E-2,-3.567504883E-2
6.745890595E0,1.082153320E-1,-9.460449219E-2,-3.750610352E-2
6.750773408E0,1.045532227E-1,-9.094238281E-2,-3.933715820E-2
6.755656220E0,9.783935547E-2,-8.361816406E-2,-4.055786133E-2
6.760539033E0,8.927917480E-2,-6.956481934E-2,-3.994750977E-2
6.765421845E0,7.768249512E-2,-5.551147461E-2,-3.872680664E-2
6.770304658E0,6.301879883E-2,-3.901672363E-2,-3.750610352E-2
6.775187470E0,4.652404785E-2,-1.947021484E-2,-3.689575195E-2
6.780070283E0,2.697753906E-2,1.296997070E-3,-3.567504883E-2
6.784953095E0,3.768920898E-3,2.206420898E-2,-3.323364258E-2
6.789835908E0,-1.821899414E-2,4.100036621E-2,-2.955627441E-2
6.794718720E0,-4.142761230E-2,5.627441406E-2,-2.774047852E-2
6.799601533E0,-6.343078613E-2,6.359863281E-2,-2.651977539E-2
6.804484345E0,-8.114624023E-2,6.420898438E-2,-2.651977539E-2
6.809336640E0,-9.396362305E-2,5.993652344E-2,-3.079223633E-2
6.814219453E0,-1.019134521E-1,4.832458496E-2,-3.384399414E-2
6.819102265E0,-1.080169678E-1,3.977966309E-2,-3.628540039E-2
6.823985078E0,-1.104583740E-1,2.021789551E-2,-3.811645508E-2
6.828867890E0,-1.129150391E-1,6.179809570E-3,-3.933715820E-2
6.833750703E0,-1.153564453E-1,7.629394531E-5,-4.055786133E-2
6.838633515E0,-1.208496094E-1,-2.365112305E-3,-3.811645508E-2
6.843516328E0,-1.293945312E-1,1.892089844E-3,-3.201293945E-2
6.848399140E0,-1.428375244E-1,1.596069336E-2,-2.285766602E-2
6.853281953E0,-1.611633301E-1,4.039001465E-2,-1.063537598E-2
6.858164765E0,-1.874389648E-1,7.948303223E-2,7.690429688E-3
6.863047578E0,-2.228546143E-1,1.277465820E-1,3.028869629E-2
6.867930390E0,-2.680664062E-1,1.759948730E-1,5.532836914E-2
6.872813203E0,-3.157196045E-1,2.242584229E-1,8.038330078E-2
6.877696015E0,-3.633575439E-1,2.657928467E-1,1.017608643E-1
6.882578828E0,-4.097900391E-1,3.048858643E-1,1.170349121E-1
6.887461640E0,-4.476623535E-1,3.409423828E-1,1.268157959E-1
6.892344453E0,-4.678192139E-1,3.604888916E-1,1.445159912E-1
6.897227265E0,-4.598846436E-1,3.598632812E-1,1.591796875E-1
6.902110078E0,-4.531555176E-1,3.604888916E-1,1.555175781E-1
6.906962373E0,-4.464416504E-1,3.617095947E-1,1.530761719E-1
6.911845185E0,-4.421691895E-1,3.336029053E-1,1.512451172E-1
6.916727998E0,-4.415588379E-1,2.810668945E-1,1.481933594E-1
6.921610810E0,-4.458312988E-1,2.041015625E-1,1.310882568E-1
6.926493623E0,-4.415588379E-1,1.625518799E-1,1.170349121E-1
6.931376435E0,-4.336090088E-1,1.234588623E-1,9.809875488E-2
6.936259248E0,-4.220123291E-1,7.948303223E-2,8.282470703E-2
6.941142060E0,-4.110107422E-1,4.283142090E-2,7.487487793E-2
6.946024873E0,-3.969573975E-1,2.267456055E-2,6.571960449E-2
6.950907685E0,-3.816833496E-1,3.244018555E-2,6.083679199E-2
6.955790498E0,-3.737487793E-1,6.115722656E-2,7.121276855E-2
6.960673310E0,-3.737487793E-1,9.475708008E-2,9.626770020E-2
6.965556123E0,-3.822937012E-1,1.393432617E-1,1.243743896E-1
6.970438935E0,-3.945159912E-1,1.924896240E-1,1.481933594E-1
6.975321748E0,-4.073486328E-1,2.523498535E-1,1.640625000E-1
6.980204560E0,-4.171295166E-1,2.969512939E-1,1.787261963E-1
6.985087373E0,-4.262847900E-1,3.219909668E-1,2.007293701E-1
6.989970185E0,-4.348297119E-1,3.390960693E-1,2.208862305E-1
6.994852998E0,-4.391174316E-1,3.507080078E-1,2.318725586E-1
6.999735810E0,-4.391174316E-1,3.555908203E-1,2.337188721E-1
7.004588105E0,-4.336090088E-1,3.513183594E-1,2.288208008E-1
7.009470918E0,-4.262847900E-1,3.348236084E-1,2.135467529E-1
7.014353730E0,-4.140625000E-1,3.091735840E-1,1.946105957E-1
7.019236543E0,-3.969573975E-1,2.761840820E-1,1.714019775E-1
7.024119355E0,-3.798522949E-1,2.401428223E-1,1.506347656E-1
7.029002168E0,-3.603057861E-1,2.047119141E-1,1.268157959E-1
7.033884980E0,-3.432006836E-1,1.778411865E-1,1.054229736E-1
7.038767793E0,-3.291473389E-1,1.356811523E-1,9.016418457E-2
7.043650605E0,-3.102264404E-1,8.009338379E-2,7.183837891E-2
7.048533418E0,-2.888336182E-1,2.511596680E-2,5.044555664E-2
7.053416230E0,-2.644042969E-1,-2.862548828E-2,3.395080566E-2
7.058299043E0,-2.381286621E-1,-7.505798340E-2,3.395080566E-2
7.063181855E0,-2.210235596E-1,-1.013183594E-1,2.662658691E-2
7.068064668E0,-2.167510986E-1,-1.166076660E-1,1.684570312E-2
7.072947480E0,-2.234802246E-1,-1.379699707E-1,8.911132812E-3
7.077830293E0,-2.320251465E-1,-1.569213867E-1,1.586914062E-3
7.082713105E0,-2.387390137E-1,-1.770782471E-1,-6.362915039E-3
7.087595918E0,-2.375183105E-1,-1.899108887E-1,-7.583618164E-3
7.092478730E0,-2.283630371E-1,-1.966247559E-1,-8.193969727E-3
7.097361543E0,-2.130889893E-1,-1.941833496E-1,-1.480102539E-3
7.102213837E0,-2.008666992E-1,-1.837921143E-1,1.013183594E-2
7.107096650E0,-1.898803711E-1,-1.703643799E-1,1.806640625E-2
7.111979462E0,-1.819305420E-1,-1.593627930E-1,2.723693848E-2
7.116862275E0,-1.770477295E-1,-1.550750732E-1,3.334045410E-2
7.121745087E0,-1.727752686E-1,-1.550750732E-1,3.700256348E-2
7.126627900E0,-1.697082520E-1,-1.599731445E-1,3.823852539E-2
7.131510712E0,-1.660461426E-1,-1.642456055E-1,3.578186035E-2
7.136393525E0,-1.629943848E-1,-1.691436768E-1,3.211975098E-2
7.141276337E0,-1.593322754E-1,-1.770782471E-1,2.479553223E-2
7.146159150E0,-1.538391113E-1,-1.868438721E-1,1.869201660E-2
7.151041962E0,-1.507873535E-1,-2.008972168E-1,1.013183594E-2
7.155924775E0,-1.501617432E-1,-2.112884521E-1,2.182006836E-3
7.160807587E0,-1.520080566E-1,-2.106781006E-1,-5.142211914E-3
7.165690400E0,-1.532287598E-1,-2.057800293E-1,-1.002502441E-2
7.170573212E0,-1.532287598E-1,-1.947937012E-1,-1.492309570E-2
7.175456025E0,-1.538391113E-1,-1.844024658E-1,-1.980590820E-2
7.180338837E0,-1.532287598E-1,-1.728057861E-1,-2.285766602E-2
7.185221650E0,-1.556701660E-1,-1.575317383E-1,-3.018188477E-2
7.190104462E0,-1.568908691E-1,-1.459197998E-1,-3.811645508E-2
7.194956757E0,-1.568908691E-1,-1.312561035E-1,-4.484558105E-2
7.199839570E0,-1.562805176E-1,-1.159820557E-1,-5.583190918E-2
7.204722382E0,-1.581115723E-1,-1.025390625E-1,-6.500244141E-2
7.209605195E0,-1.605529785E-1,-9.155273438E-2,-7.354736328E-2
7.214488007E0,-1.642150879E-1,-8.299255371E-2,-8.454895020E-2
7.219370820E0,-1.752166748E-1,-7.810974121E-2,-9.309387207E-2
7.224253632E0,-1.880493164E-1,-7.749938965E-2,-1.047058105E-1
7.229136445E0,-1.984252930E-1,-7.444763184E-2,-1.144714355E-1
7.234019257E0,-2.106475830E-1,-7.261657715E-2,-1.236419678E-1
7.238902070E0,-2.204132080E-1,-7.322692871E-2,-1.303558350E-1
7.243784882E0,-2.271423340E-1,-7.505798340E-2,-1.358642578E-1
7.248667695E0,-2.301940918E-1,-8.299255371E-2,-1.413574219E-1
7.253550507E0,-2.295837402E-1,-9.521484375E-2,-1.444091797E-1
7.258433320E0,-2.265319824E-1,-1.117095947E-1,-1.462402344E-1
7.263316132E0,-2.173614502E-1,-1.282043457E-1,-1.505279541E-1
7.268198945E0,-2.020874023E-1,-1.453094482E-1,-1.529693604E-1
7.273081757E0,-1.855926514E-1,-1.624145508E-1,-1.547851562E-1
7.277964570E0,-1.666717529E-1,-1.807403564E-1,-1.566314697E-1
7.282847382E0,-1.446685791E-1,-2.008972168E-1,-1.602935791E-1
7.287730195E0,-1.245117188E-1,-2.198333740E-1,-1.621246338E-1
7.292582490E0,-1.055755615E-1,-2.375488281E-1,-1.670074463E-1
7.297465302E0,-8.908081055E-2,-2.546539307E-1,-1.718902588E-1
7.302348115E0,-7.441711426E-2,-2.644195557E-1,-1.804504395E-1
7.307230927E0,-5.853271484E-2,-2.601623535E-1,-1.847381592E-1
7.312113740E0,-4.388427734E-2,-2.467193604E-1,-1.865539551E-1
7.316996552E0,-2.983093262E-2,-2.302246094E-1,-1.810607910E-1
7.321879365E0,-2.127075195E-2,-2.155609131E-1,-1.706695557E-1
7.326762177E0,-1.516723633E-2,-2.070007324E-1,-1.517486572E-1
7.331644990E0,-7.232666016E-3,-2.045593262E-1,-1.352386475E-1
7.336527802E0,8.651733398E-3,-2.082366943E-1,-1.181335449E-1
7.341410615E0,2.941894531E-2,-2.167816162E-1,-1.059265137E-1
7.346293427E0,5.140686035E-2,-2.290039062E-1,-9.858703613E-2
7.351176240E0,8.195495605E-2,-2.491607666E-1,-1.022644043E-1
7.356059052E0,1.222686768E-1,-2.809295654E-1,-1.150970459E-1
7.360941865E0,1.735839844E-1,-3.255157471E-1,-1.383056641E-1
7.365824677E0,2.340545654E-1,-3.768310547E-1,-1.725158691E-1
7.370707490E0,2.975921631E-1,-4.257049561E-1,-2.116088867E-1
7.375590302E0,3.574523926E-1,-4.654083252E-1,-2.464294434E-1
7.380473115E0,4.075469971E-1,-4.910583496E-1,-2.739105225E-1
7.385325410E0,4.503173828E-1,-5.038909912E-1,-2.928466797E-1
7.390208222E0,4.845275879E-1,-4.965667725E-1,-3.026275635E-1
7.395091035E0,5.132293701E-1,-4.635772705E-1,-3.081207275E-1
7.399973847E0,5.443878174E-1,-4.098205566E-1,-3.099517822E-1
7.404856660E0,5.828704834E-1,-3.456726074E-1,-3.087310791E-1
7.409739472E0,6.262359619E-1,-2.797088623E-1,-3.087310791E-1
7.414622285E0,6.732788086E-1,-2.149505615E-1,-3.172912598E-1
7.419505097E0,7.154235840E-1,-1.483612061E-1,-3.325500488E-1
7.424387910E0,7.447509766E-1,-7.872009277E-2,-3.563842773E-1
7.429270722E0,7.587890625E-1,-1.336669922E-2,-3.826446533E-1
7.434153535E0,7.636871338E-1,4.771423340E-2,-4.083099365E-1
7.439036347E0,7.710113525E-1,1.014709473E-1,-4.296875000E-1
7.443919160E0,7.801818848E-1,1.454467773E-1,-4.412994385E-1
7.448801972E0,7.612304688E-1,1.735534668E-1,-4.559631348E-1
7.453684785E0,7.325286865E-1,1.943206787E-1,-4.797821045E-1
7.458567597E0,7.123718262E-1,2.108154297E-1,-5.109405518E-1
7.463450410E0,6.946563721E-1,2.236480713E-1,-5.494232178E-1
7.468333222E0,6.854858398E-1,2.505340576E-1,-5.762939453E-1
7.473216035E0,6.775512695E-1,2.859649658E-1,-5.940093994E-1
7.478098847E0,6.702270508E-1,3.122253418E-1,-6.098937988E-1
7.482951142E0,6.641082764E-1,3.446044922E-1,-6.263885498E-1
7.487833955E0,6.592254639E-1,3.812561035E-1,-6.459350586E-1
7.492716767E0,6.573944092E-1,4.227905273E-1,-6.654815674E-1
7.497599580E0,6.580047607E-1,4.673919678E-1,-6.850280762E-1
7.502482392E0,6.616668701E-1,4.967041016E-1,-7.051849365E-1
7.507365205E0,6.769409180E-1,5.113677979E-1,-7.192382812E-1
7.512248017E0,7.093200684E-1,5.394592285E-1,-7.070159912E-1
7.517130830E0,7.594146729E-1,5.437469482E-1,-6.844177246E-1
7.522013642E0,8.204956055E-1,5.242004395E-1,-6.563110352E-1
7.526896455E0,8.815765381E-1,4.869384766E-1,-6.294403076E-1
7.531779267E0,9.304504395E-1,4.490661621E-1,-6.080627441E-1
7.536662080E0,9.628295898E-1,4.221801758E-1,-5.885162354E-1
7.541544892E0,9.762725830E-1,4.026336670E-1,-5.610198975E-1
7.546427705E0,9.689331055E-1,3.855285645E-1,-5.286407471E-1
7.551310517E0,9.457244873E-1,3.659820557E-1,-4.956512451E-1
7.556193330E0,9.035644531E-1,3.281097412E-1,-4.718475342E-1
7.561076142E0,8.485870361E-1,2.932891846E-1,-4.480133057E-1
7.565958955E0,7.850646973E-1,2.792358398E-1,-4.113616943E-1
7.570841767E0,7.160339355E-1,2.774047852E-1,-3.747100830E-1
7.575724580E0,6.500701904E-1,2.743377686E-1,-3.368377686E-1
7.580576875E0,5.859222412E-1,2.657928467E-1,-3.032379150E-1
7.585459687E0,5.211639404E-1,2.590789795E-1,-2.671966553E-1
7.590342500E0,4.539794922E-1,2.688598633E-1,-2.256622314E-1
7.595225312E0,3.825073242E-1,2.957305908E-1,-1.859588623E-1
7.600108125E0,2.994232178E-1,3.446044922E-1,-1.572265625E-1
7.604990937E0,2.102355957E-1,4.258422852E-1,-1.346435547E-1
7.609873750E0,1.295928955E-1,4.960937500E-1,-1.242523193E-1
7.614756562E0,6.912231445E-2,5.687866211E-1,-1.340179443E-1
7.619639375E0,5.079650879E-2,6.207122803E-1,-1.560058594E-1
7.624522187E0,6.912231445E-2,6.408691406E-1,-1.853332520E-1
7.629405000E0,1.088256836E-1,6.359863281E-1,-2.299346924E-1
7.634287812E0,1.754150391E-1,6.158294678E-1,-2.708587646E-1
7.639170625E0,2.578887939E-1,6.335449219E-1,-2.904052734E-1
7.644053437E0,3.385162354E-1,6.750793457E-1,-2.983398438E-1
7.648936250E0,3.995971680E-1,7.257843018E-1,-3.069000244E-1
7.653819062E0,4.423675537E-1,7.575378418E-1,-3.148498535E-1
7.658701875E0,4.588623047E-1,7.984771729E-1,-3.130035400E-1
7.663584687E0,4.521331787E-1,8.510131836E-1,-3.130035400E-1
7.668467500E0,4.362487793E-1,8.778839111E-1,-3.240051270E-1
7.673350312E0,4.173278809E-1,8.870544434E-1,-3.411102295E-1
7.678202607E0,3.965454102E-1,9.090423584E-1,-3.600463867E-1
7.683085419E0,3.806610107E-1,9.383697510E-1,-3.777618408E-1
7.687968232E0,3.721160889E-1,9.719696045E-1,-3.838653564E-1
7.692851044E0,3.635559082E-1,1.018997192E0,-3.899841309E-1
7.697733857E0,3.482971191E-1,1.064208984E0,-4.009704590E-1
7.702616669E0,3.238677979E-1,1.119186401E0,-4.144134521E-1
7.707499482E0,2.994232178E-1,1.160110474E0,-4.296875000E-1
7.712382294E0,2.829284668E-1,1.152770996E0,-4.351806641E-1
7.717265107E0,2.652130127E-1,1.138122559E0,-4.321289062E-1
7.722147919E0,2.529907227E-1,1.109405518E0,-4.223480225E-1
7.727030732E0,2.261199951E-1,1.102691650E0,-4.064788818E-1
7.731913544E0,1.961822510E-1,1.099029541E0,-3.777618408E-1
7.736796357E0,1.717529297E-1,1.088027954E0,-3.331756592E-1
7.741679169E0,1.595306396E-1,1.047714233E0,-2.696380615E-1
7.746561982E0,1.650238037E-1,9.646301270E-1,-1.969451904E-1
7.751444794E0,1.851959229E-1,8.619995117E-1,-1.266937256E-1
7.756327607E0,2.114562988E-1,7.508392334E-1,-6.439208984E-2
7.761210419E0,2.517700195E-1,6.268310547E-1,-8.544921875E-4
7.766093232E0,3.140869141E-1,4.936523438E-1,6.205749512E-2
7.770976044E0,3.934936523E-1,3.580322266E-1,1.158142090E-1
7.775828339E0,4.765777588E-1,2.303619385E-1,1.536865234E-1
7.780711152E0,5.517120361E-1,1.240844727E-1,1.768951416E-1
7.785593964E0,6.134185791E-1,3.977966309E-2,1.854553223E-1
7.790476777E0,6.561737061E-1,-2.313232422E-2,1.726226807E-1
7.795359589E0,6.806030273E-1,-6.100463867E-2,1.347503662E-1
7.800242402E0,6.903839111E-1,-7.627868652E-2,7.672119141E-2
7.805125214E0,6.836547852E-1,-7.444763184E-2,7.690429688E-3
7.810008027E0,6.610565186E-1,-5.673217773E-2,-6.071472168E-2
7.814890839E0,6.317443848E-1,-2.008056641E-2,-1.327972412E-1
7.819773652E0,5.999755859E-1,3.060913086E-2,-2.061004639E-1
7.824656464E0,5.718688965E-1,7.460021973E-2,-2.678070068E-1
7.829539277E0,5.443878174E-1,1.143035889E-1,-3.124084473E-1
7.834422089E0,5.144500732E-1,1.601104736E-1,-3.502807617E-1
7.839304902E0,4.924621582E-1,2.034912109E-1,-3.795928955E-1
7.844187714E0,4.704589844E-1,2.700805664E-1,-4.015808105E-1
7.849070527E0,4.509124756E-1,3.623199463E-1,-4.211273193E-1
7.853953339E0,4.417572021E-1,4.637298584E-1,-4.266357422E-1
7.858836152E0,4.393157959E-1,5.370178223E-1,-4.241943359E-1
7.863718964E0,4.393157959E-1,6.109466553E-1,-4.119720459E-1
7.868601777E0,4.289245605E-1,7.025604248E-1,-3.979187012E-1
7.873454072E0,4.148864746E-1,7.880859375E-1,-3.808135986E-1
7.878336884E0,4.099884033E-1,8.442993164E-1,-3.466033936E-1
7.883219697E0,3.977813721E-1,9.127197266E-1,-3.099517822E-1
7.888102509E0,3.800506592E-1,9.829559326E-1,-2.812347412E-1
7.892985322E0,3.647918701E-1,1.016555786E0,-2.421417236E-1
7.897868134E0,3.531799316E-1,1.032440186E0,-1.780090332E-1
7.902750947E0,3.372955322E-1,1.055038452E0,-8.943176270E-2
7.907633759E0,3.201904297E-1,1.092910767E0,1.440429688E-2
7.912516572E0,3.018646240E-1,1.146667480E0,1.243743896E-1
7.917399384E0,2.872009277E-1,1.214477539E0,2.337188721E-1
7.922282197E0,2.872009277E-1,1.285339355E0,3.357238770E-1
7.927165009E0,3.043060303E-1,1.365371704E0,4.212493896E-1
7.932047822E0,3.354644775E-1,1.447219849E0,4.878387451E-1
7.936930634E0,3.654022217E-1,1.525405884E0,5.373077393E-1
7.941813447E0,3.867797852E-1,1.554733276E0,5.562591553E-1
7.946696259E0,3.977813721E-1,1.529067993E0,5.587005615E-1
7.951579072E0,3.971557617E-1,1.467987061E0,5.611419678E-1
7.956461884E0,3.886108398E-1,1.386138916E0,5.684661865E-1
7.961344697E0,3.751678467E-1,1.284729004E0,5.800628662E-1
7.966196992E0,3.580627441E-1,1.181488037E0,5.977935791E-1
7.971079804E0,3.379058838E-1,1.082534790E0,6.118316650E-1
7.975962617E0,3.012542725E-1,9.902954102E-1,6.063385010E-1
7.980845429E0,2.334442139E-1,8.931579590E-1,5.684661865E-1
7.985728242E0,1.491394043E-1,7.807617188E-1,5.092163086E-1
7.990611054E0,6.240844727E-2,6.604156494E-1,4.414062500E-1
7.995493867E0,-2.861022949E-2,5.455780029E-1,3.668823242E-1
8.000376679E0,-1.220703125E-1,4.386749268E-1,2.783050537E-1
8.005259492E0,-2.216339111E-1,3.360443115E-1,1.689605713E-1
8.010142304E0,-3.352661133E-1,2.370910645E-1,5.105590820E-2
8.015025117E0,-4.574432373E-1,1.314086914E-1,-6.132507324E-2
8.019907929E0,-5.869445801E-1,2.755737305E-2,-1.541900635E-1
8.024790742E0,-7.158355713E-1,-7.688903809E-2,-2.262725830E-1
8.029673554E0,-8.337249756E-1,-1.929626465E-1,-2.745208740E-1
8.034556367E0,-9.412384033E-1,-3.249053955E-1,-3.020172119E-1
8.039439179E0,-1.037765503E0,-4.757995605E-1,-3.130035400E-1
8.044321992E0,-1.127563477E0,-6.309509277E-1,-3.264465332E-1
8.049204804E0,-1.206359863E0,-7.696228027E-1,-3.404998779E-1
8.054087617E0,-1.266845703E0,-8.795776367E-1,-3.386688232E-1
8.058970429E0,-1.314483643E0,-9.614410400E-1,-3.056793213E-1
8.063822724E0,-1.349914551E0,-1.039016724E0,-2.329864502E-1
8.068705537E0,-1.375579834E0,-1.086669922E0,-1.358642578E-1
8.073588349E0,-1.406112671E0,-1.091552734E0,-1.124572754E-2
8.078471162E0,-1.439102173E0,-1.061614990E0,1.121520996E-1
8.083353974E0,-1.469039917E0,-9.992980957E-1,2.214965820E-1
8.088236787E0,-1.498977661E0,-9.095001221E-1,3.143463135E-1
8.093119599E0,-1.524627686E0,-8.325347900E-1,3.943786621E-1
8.098002412E0,-1.539901733E0,-7.616882324E-1,4.627838135E-1
8.102885224E0,-1.545394897E0,-6.883697510E-1,5.379180908E-1
8.107768037E0,-1.541122437E0,-5.949096680E-1,6.185607910E-1
8.112650849E0,-1.529510498E0,-4.867858887E-1,6.979675293E-1
8.117533662E0,-1.512420654E0,-3.713378906E-1,7.822723389E-1
8.122416474E0,-1.487365723E0,-2.570953369E-1,8.665771484E-1
8.127299287E0,-1.456207275E0,-1.465301514E-1,9.417114258E-1
8.132182099E0,-1.426269531E0,-3.596496582E-2,1.004013062E0
8.137064912E0,-1.398178101E0,6.970214844E-2,1.041900635E0
8.141947724E0,-1.368865967E0,1.601104736E-1,1.049224854E0
8.146830537E0,-1.340759277E0,2.242584229E-1,1.027236938E0
8.151713349E0,-1.313262939E0,2.517547607E-1,9.753112793E-1
8.156596162E0,-1.280883789E0,2.468566895E-1,9.062805176E-1
8.161448457E0,-1.245452881E0,2.077636719E-1,8.238067627E-1
8.166331269E0,-1.210021973E0,1.454467773E-1,7.364654541E-1
8.171214082E0,-1.177658081E0,6.298828125E-2,6.472625732E-1
8.176096894E0,-1.148941040E0,-3.596496582E-2,5.580749512E-1
8.180979707E0,-1.126342773E0,-1.404113770E-1,4.731750488E-1
8.185862519E0,-1.111679077E0,-2.534332275E-1,4.004821777E-1
8.190745332E0,-1.109237671E0,-3.597259521E-1,3.406066895E-1
8.195628144E0,-1.119613647E0,-4.366912842E-1,2.905120850E-1
8.200510957E0,-1.137939453E0,-5.008392334E-1,2.636413574E-1
8.205393769E0,-1.170928955E0,-5.399322510E-1,2.557067871E-1
8.210276582E0,-1.224685669E0,-5.600891113E-1,2.691497803E-1
8.215159394E0,-1.292495728E0,-5.729217529E-1,3.131256104E-1
8.220042207E0,-1.359085083E0,-5.472564697E-1,3.681030273E-1
8.224925019E0,-1.417114258E0,-5.026702881E-1,4.346923828E-1
8.229807832E0,-1.455596924E0,-4.544067383E-1,5.055389404E-1
8.234690644E0,-1.450714111E0,-3.774414062E-1,5.690765381E-1
8.239573457E0,-1.400619507E0,-2.772674561E-1,6.252746582E-1
8.244456269E0,-1.323028564E0,-2.008972168E-1,6.900329590E-1
8.249339082E0,-1.226531982E0,-1.373748779E-1,7.596740723E-1
8.254221894E0,-1.113510132E0,-6.895446777E-2,8.170928955E-1
8.259074189E0,-1.003555298E0,-2.191162109E-2,8.677978516E-1
8.263957001E0,-9.088745117E-1,2.517700195E-3,9.246063232E-1
8.268839814E0,-8.331298828E-1,2.999877930E-2,9.862976074E-1
8.273722626E0,-7.653198242E-1,5.993652344E-2,1.058380127E0
8.278605439E0,-7.152252197E-1,9.413146973E-2,1.110305786E0
8.283488251E0,-6.767425537E-1,1.393432617E-1,1.132919312E0
8.288371064E0,-6.504669189E-1,1.863861084E-1,1.129852295E0
8.293253876E0,-6.382598877E-1,2.114257812E-1,1.115814209E0
8.298136689E0,-6.400909424E-1,1.979827881E-1,1.103591919E0
8.303019501E0,-6.425323486E-1,1.784362793E-1,1.082824707E0
8.307902314E0,-6.400909424E-1,1.668395996E-1,1.042495728E0
8.312785126E0,-6.278686523E-1,1.570587158E-1,9.918060303E-1
8.317667939E0,-6.052703857E-1,1.448516846E-1,9.331512451E-1
8.322550751E0,-5.692291260E-1,1.320190430E-1,8.745117188E-1
8.327433564E0,-5.276947021E-1,1.253051758E-1,8.146514893E-1
8.332316376E0,-4.788208008E-1,1.063537598E-1,7.547912598E-1
8.337199189E0,-4.256744385E-1,6.176757812E-2,7.034759521E-1
8.342082001E0,-3.798522949E-1,3.305053711E-2,6.564331055E-1
8.346964814E0,-3.315887451E-1,1.228332520E-2,6.124572754E-1
8.351847626E0,-2.778320312E-1,1.045227051E-2,5.641937256E-1
8.356699921E0,-2.155303955E-1,9.841918945E-3,5.092163086E-1
8.361582734E0,-1.446685791E-1,1.411437988E-2,4.438476562E-1
8.366465546E0,-8.114624023E-2,-2.990722656E-3,3.864288330E-1
8.371348359E0,-2.433776855E-2,-3.413391113E-2,3.375549316E-1
8.376231171E0,2.941894531E-2,-4.695129395E-2,2.886962891E-1
8.381113984E0,7.951354980E-2,-3.901672363E-2,2.367553711E-1
8.385996796E0,1.198272705E-1,-2.313232422E-2,1.885070801E-1
8.390879609E0,1.448822021E-1,5.569458008E-3,1.420745850E-1
8.395762421E0,1.601409912E-1,4.222106934E-2,9.442138672E-2
8.400645234E0,1.735839844E-1,8.192443848E-2,4.861450195E-2
8.405528046E0,1.870269775E-1,1.161346436E-1,7.690429688E-3
8.410410859E0,1.980133057E-1,1.344604492E-1,-3.384399414E-2
8.415293671E0,2.084045410E-1,1.460723877E-1,-7.171630859E-2
8.420176484E0,2.175598145E-1,1.430053711E-1,-1.089782715E-1
8.425059296E0,2.242889404E-1,1.228637695E-1,-1.511230469E-1
8.429942109E0,2.310028076E-1,8.558654785E-2,-1.896209717E-1
8.434824921E0,2.291717529E-1,4.100036621E-2,-2.250518799E-1
8.439707734E0,2.169494629E-1,-5.416870117E-3,-2.549743652E-1
8.444590546E0,1.949615479E-1,-4.879760742E-2,-2.757415771E-1
8.449473359E0,1.650238037E-1,-8.055114746E-2,-2.843017578E-1
8.454325654E0,1.289978027E-1,-1.074371338E-1,-2.879638672E-1
8.459208466E0,8.622741699E-2,-1.269836426E-1,-2.867431641E-1
8.464091279E0,3.919982910E-2,-1.398162842E-1,-2.775726318E-1
8.468974091E0,-9.048461914E-3,-1.428680420E-1,-2.598724365E-1
8.473856904E0,-5.792236328E-2,-1.343078613E-1,-2.335968018E-1
8.478739716E0,-1.019134521E-1,-1.123199463E-1,-2.036590576E-1
8.483622529E0,-1.367340088E-1,-7.017517090E-2,-1.773986816E-1
8.488505341E0,-1.544494629E-1,-2.862548828E-2,-1.523437500E-1
8.493388154E0,-1.538391113E-1,-2.130126953E-2,-1.095886230E-1
8.498270966E0,-1.354980469E-1,-4.695129395E-2,-5.278015137E-2
8.503153779E0,-1.000671387E-1,-8.361816406E-2,7.080078125E-3
8.508036591E0,-5.181884766E-2,-1.214904785E-1,6.205749512E-2
8.512919404E0,5.599975586E-3,-1.520385742E-1,1.048126221E-1
8.517802216E0,6.057739258E-2,-1.776885986E-1,1.408538818E-1
8.522685029E0,1.039428711E-1,-2.002868652E-1,1.762847900E-1
8.527567841E0,1.283721924E-1,-2.180023193E-1,2.043914795E-1
8.532450654E0,1.326599121E-1,-2.418212891E-1,2.269897461E-1
8.537302949E0,1.210479736E-1,-2.760314941E-1,2.361602783E-1
8.542216279E0,1.015014648E-1,-3.181762695E-1,2.361602783E-1
8.547099091E0,7.829284668E-2,-3.688812256E-1,2.221069336E-1
8.551951386E0,5.752563477E-2,-4.275207520E-1,1.946105957E-1
8.556834199E0,4.042053223E-2,-4.941253662E-1,1.512451172E-1
8.561717011E0,2.391052246E-2,-5.613098145E-1,1.005401611E-1
8.566599824E0,6.820678711E-3,-6.205749512E-1,4.373168945E-2
8.571482636E0,-1.333618164E-2,-6.700439453E-1,-1.492309570E-2
8.576365449E0,-2.677917480E-2,-7.097473145E-1,-7.476806641E-2
8.581248261E0,-3.410339355E-2,-7.317352295E-1,-1.322021484E-1
8.586131074E0,-3.166198730E-2,-7.219696045E-1,-1.816711426E-1
8.591013886E0,-2.005004883E-2,-6.688232422E-1,-2.201538086E-1
8.595896699E0,8.651733398E-3,-5.802459717E-1,-2.470397949E-1
8.600779511E0,5.996704102E-2,-4.800720215E-1,-2.665863037E-1
8.605662324E0,1.399841309E-1,-3.988189697E-1,-2.836914062E-1
8.610545136E0,2.456665039E-1,-3.475036621E-1,-2.995605469E-1
8.615427949E0,3.660125732E-1,-3.389587402E-1,-3.099517822E-1
8.620310761E0,4.930725098E-1,-3.530120850E-1,-3.062896729E-1
8.625193574E0,6.066894531E-1,-3.701171875E-1,-2.989654541E-1
8.630076386E0,6.989288330E-1,-3.811035156E-1,-2.977447510E-1
8.634959199E0,7.587890625E-1,-3.853759766E-1,-3.069000244E-1
8.639842011E0,7.954406738E-1,-3.957672119E-1,-3.288879395E-1
8.644724824E0,8.192749023E-1,-4.220428467E-1,-3.649291992E-1
8.649577119E0,8.400421143E-1,-4.745788574E-1,-4.015808105E-1
8.654459931E0,8.724212646E-1,-5.478668213E-1,-4.284667969E-1
8.659342744E0,9.261779785E-1,-6.107940674E-1,-4.541168213E-1
8.664225556E0,9.750518799E-1,-6.394958496E-1,-4.889373779E-1
8.669108369E0,9.933776855E-1,-6.278991699E-1,-5.231475830E-1
8.673991181E0,9.842071533E-1,-5.759735107E-1,-5.494232178E-1
8.678873994E0,9.512176514E-1,-4.635772705E-1,-5.695800781E-1
8.683756806E0,8.950195312E-1,-3.071899414E-1,-5.830078125E-1
8.688639619E0,8.137817383E-1,-1.233062744E-1,-5.921783447E-1
8.693522431E0,7.148132324E-1,5.627441406E-2,-5.958404541E-1
8.698405244E0,6.170806885E-1,2.156982422E-1,-5.927886963E-1
8.703288056E0,5.291137695E-1,3.470458984E-1,-5.915679932E-1
8.708170869E0,4.710845947E-1,4.496612549E-1,-5.885162354E-1
8.713053681E0,4.619140625E-1,5.119781494E-1,-5.830078125E-1
8.717936494E0,5.058898926E-1,5.150299072E-1,-5.665283203E-1
8.722819306E0,5.840911865E-1,4.783782959E-1,-5.378112793E-1
8.727702119E0,6.824340820E-1,4.307403564E-1,-5.048217773E-1
8.732584931E0,7.911834717E-1,3.763580322E-1,-4.755096436E-1
8.737467744E0,8.999023438E-1,3.128356934E-1,-4.510650635E-1
8.742350556E0,9.988708496E-1,2.425842285E-1,-4.321289062E-1
8.747202851E0,1.081954956E0,1.723327637E-1,-4.199066162E-1
8.752085664E0,1.142425537E0,1.094207764E-1,-4.119720459E-1
8.756968476E0,1.180908203E0,6.115722656E-2,-4.046478271E-1
8.761851289E0,1.192520142E0,2.938842773E-2,-4.003601074E-1
8.766734101E0,1.180908203E0,3.738403320E-3,-3.997497559E-1
8.771616914E0,1.147308350E0,-1.274108887E-2,-4.003601074E-1
8.776499726E0,1.097839355E0,-2.069091797E-2,-4.034271240E-1
8.781382539E0,1.041625977E0,-1.519775391E-2,-4.076995850E-1
8.786265351E0,9.897003174E-1,7.629394531E-5,-4.113616943E-1
8.791148164E0,9.396209717E-1,1.655578613E-2,-4.192962646E-1
8.796030976E0,8.840179443E-1,4.527282715E-2,-4.302978516E-1
8.800913789E0,8.211059570E-1,1.204071045E-1,-4.492340088E-1
8.805796601E0,7.526855469E-1,2.236480713E-1,-4.785461426E-1
8.810679414E0,6.830444336E-1,3.213958740E-1,-5.261993408E-1
8.815562226E0,6.237945557E-1,3.873596191E-1,-5.836334229E-1
8.820445039E0,5.792083740E-1,4.563903809E-1,-6.367645264E-1
8.825327851E0,5.327758789E-1,5.498504639E-1,-6.880798340E-1
8.830210664E0,4.826812744E-1,6.445312500E-1,-7.400054932E-1
8.835093476E0,4.325866699E-1,7.434997559E-1,-7.827606201E-1
8.839945771E0,3.995971680E-1,8.247375488E-1,-8.004913330E-1
8.844828584E0,3.867797852E-1,8.668823242E-1,-7.894897461E-1
8.849711396E0,3.910522461E-1,9.004974365E-1,-7.619934082E-1
8.854594209E0,4.044952393E-1,9.322662354E-1,-7.284088135E-1
8.859477021E0,4.234313965E-1,9.542541504E-1,-6.917419434E-1
8.864359834E0,4.393157959E-1,1.001892090E0,-6.599884033E-1
8.869242646E0,4.496917725E-1,1.095367432E0,-6.343231201E-1
8.874125459E0,4.582519531E-1,1.187606812E0,-6.025543213E-1
8.879008271E0,4.662017822E-1,1.257247925E0,-5.640716553E-1
8.883891084E0,4.735260010E-1,1.302444458E0,-5.219268799E-1
8.888773896E0,4.735260010E-1,1.313430786E0,-4.791717529E-1
8.893656709E0,4.637451172E-1,1.308547974E0,-4.455566406E-1
8.898539521E0,4.490966797E-1,1.303054810E0,-4.211273193E-1
8.903422334E0,4.429779053E-1,1.296340942E0,-4.003601074E-1
8.908305146E0,4.429779053E-1,1.288391113E0,-3.802032471E-1
8.913187959E0,4.564208984E-1,1.276168823E0,-3.637084961E-1
8.918070771E0,4.784088135E-1,1.264572144E0,-3.551635742E-1
8.922953584E0,5.003967285E-1,1.260299683E0,-3.569946289E-1
8.927836396E0,5.309448242E-1,1.253570557E0,-3.600463867E-1
8.932719209E0,5.688171387E-1,1.241958618E0,-3.643188477E-1
8.937571503E0,6.066894531E-1,1.239517212E0,-3.753204346E-1
8.942454316E0,6.500701904E-1,1.227310181E0,-3.869323730E-1
8.947337128E0,6.922149658E-1,1.213867188E0,-3.991394043E-1
8.952219941E0,7.282562256E-1,1.189422607E0,-4.058685303E-1
8.957102753E0,7.532958984E-1,1.161941528E0,-4.052429199E-1
8.961985566E0,7.606353760E-1,1.154006958E0,-3.960876465E-1
8.966868378E0,7.569732666E-1,1.150955200E0,-3.747100830E-1
8.971751191E0,7.520751953E-1,1.136291504E0,-3.435516357E-1
8.976634003E0,7.435302734E-1,1.126510620E0,-3.081207275E-1
8.981516816E0,7.380218506E-1,1.117355347E0,-2.696380615E-1
8.986399628E0,7.416839600E-1,1.079483032E0,-2.287139893E-1
8.991282441E0,7.465820312E-1,1.042831421E0,-1.908416748E-1
8.996165253E0,7.514648438E-1,1.004959106E0,-1.627349854E-1
9.001048066E0,7.557525635E-1,9.609680176E-1,-1.413574219E-1
9.005930878E0,7.587890625E-1,9.066009521E-1,-1.273040771E-1
9.010813691E0,7.618560791E-1,8.461151123E-1,-1.212005615E-1
9.015696503E0,7.642974854E-1,7.801513672E-1,-1.254730225E-1
9.020579316E0,7.636871338E-1,7.135620117E-1,-1.370849609E-1
9.025462128E0,7.618560791E-1,6.518707275E-1,-1.590728760E-1
9.030344941E0,7.600097656E-1,5.944366455E-1,-1.828918457E-1
9.035197236E0,7.557525635E-1,5.406799316E-1,-2.097778320E-1
9.040080048E0,7.490234375E-1,4.985351562E-1,-2.409210205E-1
9.044962861E0,7.380218506E-1,4.643249512E-1,-2.690277100E-1
9.049845673E0,7.252044678E-1,4.459991455E-1,-2.916259766E-1
9.054728486E0,7.044372559E-1,4.496612549E-1,-3.111877441E-1
9.059611298E0,6.683959961E-1,4.765472412E-1,-3.356170654E-1
9.064494111E0,6.293029785E-1,5.058746338E-1,-3.527221680E-1
9.069376923E0,5.914154053E-1,5.327453613E-1,-3.673858643E-1
9.074259736E0,5.529327393E-1,5.871124268E-1,-3.954772949E-1
9.079142548E0,5.077362061E-1,6.573638916E-1,-4.278564453E-1
9.084025361E0,4.643554688E-1,7.312774658E-1,-4.498443604E-1
9.088908173E0,4.344329834E-1,7.770996094E-1,-4.547424316E-1
9.093790986E0,4.197692871E-1,7.990875244E-1,-4.394531250E-1
9.098673798E0,4.173278809E-1,8.290252686E-1,-4.125823975E-1
9.103556611E0,4.203643799E-1,8.601684570E-1,-3.795928955E-1
9.108439423E0,4.191436768E-1,9.023132324E-1,-3.398895264E-1
9.113322236E0,4.142608643E-1,9.450836182E-1,-2.867431641E-1
9.118205048E0,4.087677002E-1,9.847869873E-1,-2.183227539E-1
9.123087861E0,3.959350586E-1,1.026321411E0,-1.376800537E-1
9.127970673E0,3.855590820E-1,1.044052124E0,-4.544067383E-2
9.132822968E0,3.776092529E-1,1.042205811E0,6.510925293E-2
9.137705781E0,3.763885498E-1,1.032440186E0,1.848449707E-1
9.142588593E0,3.849487305E-1,1.014114380E0,2.972412109E-1
9.147471406E0,4.032745361E-1,9.976196289E-1,3.839874268E-1
9.152354218E0,4.289245605E-1,9.976196289E-1,4.444580078E-1
9.157237031E0,4.509124756E-1,1.005554199E0,4.756164551E-1
9.162119843E0,4.588623047E-1,1.015945435E0,4.872283936E-1
9.167002656E0,4.496917725E-1,1.023284912E0,4.884490967E-1
9.171885468E0,4.191436768E-1,1.026947021E0,4.823303223E-1
9.176768281E0,3.660125732E-1,1.027542114E0,4.823303223E-1
9.181651093E0,2.920989990E-1,1.015335083E0,5.018768311E-1
9.186533906E0,2.059631348E-1,9.909057617E-1,5.440368652E-1
9.191416718E0,1.118927002E-1,9.591369629E-1,6.008453369E-1
9.196299531E0,1.353454590E-2,9.279785156E-1,6.558227539E-1
9.201182343E0,-8.419799805E-2,8.949890137E-1,6.912536621E-1
9.206065156E0,-1.855926514E-1,8.497924805E-1,6.991882324E-1
9.210947968E0,-2.906799316E-1,7.758789062E-1,6.845245361E-1
9.215830781E0,-3.939056396E-1,6.732482910E-1,6.576538086E-1
9.220713593E0,-4.953155518E-1,5.584106445E-1,6.240539551E-1
9.225596406E0,-5.997772217E-1,4.405059814E-1,5.874023438E-1
9.230448701E0,-6.968994141E-1,3.195495605E-1,5.562591553E-1
9.235331513E0,-7.891387939E-1,1.827239990E-1,5.183715820E-1
9.240214326E0,-8.777160645E-1,2.938842773E-2,4.670562744E-1
9.245097138E0,-9.754486084E-1,-1.410369873E-1,4.004821777E-1
9.249979951E0,-1.107406616E0,-3.194122314E-1,3.131256104E-1
9.254862763E0,-1.278442383E0,-5.002288818E-1,2.190551758E-1
9.259745576E0,-1.471481323E0,-6.547698975E-1,1.420745850E-1
9.264628388E0,-1.684066772E0,-7.836761475E-1,9.442138672E-2
9.269511201E0,-1.912536621E0,-9.076843262E-1,8.160400391E-2
9.274394013E0,-2.155044556E0,-1.026794434E0,1.042022705E-1
9.279276826E0,-2.387176514E0,-1.124542236E0,1.261901855E-1
9.284159638E0,-2.578384399E0,-1.200897217E0,1.402435303E-1
9.289042451E0,-2.714599609E0,-1.229003906E0,1.512451172E-1
9.293925263E0,-2.809890747E0,-1.226547241E0,1.628417969E-1
9.298808076E0,-2.881378174E0,-1.196609497E0,1.659088135E-1
9.303690888E0,-2.929626465E0,-1.149581909E0,1.726226807E-1
9.308573701E0,-2.936355591E0,-1.108047485E0,1.946105957E-1
9.313456513E0,-2.903366089E0,-1.080551147E0,2.251586914E-1
9.318339326E0,-2.834945679E0,-1.082382202E0,2.508239746E-1
9.323222138E0,-2.742706299E0,-1.107437134E0,2.886962891E-1
9.328074433E0,-2.624191284E0,-1.119033813E0,3.283996582E-1
9.332957246E0,-2.483078003E0,-1.148971558E0,3.589324951E-1
9.337840058E0,-2.326705933E0,-1.197830200E0,3.754272461E-1
9.342722871E0,-2.164199829E0,-1.269927979E0,3.803100586E-1
9.347605683E0,-2.011489868E0,-1.371337891E0,3.687133789E-1
9.352488496E0,-1.872817993E0,-1.464797974E0,3.455047607E-1
9.357371308E0,-1.774475098E0,-1.552139282E0,3.180084229E-1
9.362254121E0,-1.674896240E0,-1.604675293E0,2.807464600E-1
9.367136933E0,-1.595489502E0,-1.639495850E0,2.282104492E-1
9.372019746E0,-1.511184692E0,-1.631561279E0,1.457366943E-1
9.376902558E0,-1.448272705E0,-1.636444092E0,4.251098633E-2
9.381785371E0,-1.401229858E0,-1.639495850E0,-6.988525391E-2
9.386668183E0,-1.340759277E0,-1.595520020E0,-1.254730225E-1
9.391550996E0,-1.291275024E0,-1.509384155E0,-8.210754395E-2
9.396433808E0,-1.259506226E0,-1.378036499E0,7.305908203E-2
9.401316621E0,-1.249740601E0,-1.221664429E0,3.180084229E-1
9.406199433E0,-1.251571655E0,-1.103149414E0,5.702972412E-1
9.411082246E0,-1.241180420E0,-1.001144409E0,7.419586182E-1
9.415965058E0,-1.217361450E0,-9.009552002E-1,8.201446533E-1
9.420817353E0,-1.180709839E0,-8.264312744E-1,8.439636230E-1
9.425700166E0,-1.131225586E0,-7.751159668E-1,8.653564453E-1
9.430582978E0,-1.070755005E0,-7.537384033E-1,9.026031494E-1
9.435465791E0,-9.986724854E-1,-7.451782227E-1,9.429321289E-1
9.440348603E0,-9.253540039E-1,-7.341766357E-1,9.875183105E-1
9.445231416E0,-8.661041260E-1,-7.115936279E-1,1.035171509E0
9.450114228E0,-8.294525146E-1,-6.895904541E-1,1.082214355E0
9.454997041E0,-8.080749512E-1,-6.761627197E-1,1.134140015E0
9.459879853E0,-7.952423096E-1,-6.541595459E-1,1.176284790E0
9.464762666E0,-7.860870361E-1,-6.199493408E-1,1.205001831E0
9.469645478E0,-7.824249268E-1,-5.955200195E-1,1.228210449E0
9.474528291E0,-7.842559814E-1,-5.832977295E-1,1.243484497E0
9.479411103E0,-7.854766846E-1,-5.863647461E-1,1.250198364E0
9.484293916E0,-7.879180908E-1,-5.924682617E-1,1.245315552E0
9.489176728E0,-7.921905518E-1,-6.040649414E-1,1.234924316E0
9.494059541E0,-7.928009033E-1,-6.046905518E-1,1.210494995E0
9.498942353E0,-7.860870361E-1,-5.955200195E-1,1.172607422E0
9.503825166E0,-7.726440430E-1,-5.961303711E-1,1.133514404E0
9.508707978E0,-7.616577148E-1,-6.028442383E-1,1.092590332E0
9.513590791E0,-7.530975342E-1,-6.095733643E-1,1.041900635E0
9.518443085E0,-7.414855957E-1,-6.120147705E-1,9.759216309E-1
9.523325898E0,-7.237854004E-1,-5.967407227E-1,8.934478760E-1
9.528208710E0,-6.962890625E-1,-5.717010498E-1,7.908172607E-1
9.533091523E0,-6.602478027E-1,-5.606994629E-1,6.918640137E-1
9.537974335E0,-6.248168945E-1,-5.545959473E-1,5.971679688E-1
9.542857148E0,-5.954895020E-1,-5.381011963E-1,4.976043701E-1
9.547739960E0,-5.686035156E-1,-5.197753906E-1,4.071960449E-1
9.552622773E0,-5.374603271E-1,-4.990081787E-1,3.186187744E-1
9.557505585E0,-4.977569580E-1,-4.806823730E-1,2.312622070E-1
9.562388398E0,-4.531555176E-1,-4.641876221E-1,1.549072266E-1
9.567271210E0,-4.097900391E-1,-4.470825195E-1,8.404541016E-2
9.572154023E0,-3.651885986E-1,-4.220428467E-1,2.479553223E-2
9.577036835E0,-3.108215332E-1,-3.737792969E-1,-3.384399414E-2
9.581919648E0,-2.454681396E-1,-3.242950439E-1,-8.760070801E-2
9.586802460E0,-1.721649170E-1,-2.980346680E-1,-1.376800537E-1
9.591685273E0,-1.043548584E-1,-2.870330811E-1,-1.822814941E-1
9.596568085E0,-4.693603516E-2,-2.827453613E-1,-2.238159180E-1
9.601450898E0,2.548217773E-3,-2.888641357E-1,-2.610931396E-1
9.606333710E0,4.713439941E-2,-2.943725586E-1,-3.026275635E-1
9.611216523E0,8.805847168E-2,-2.949676514E-1,-3.472137451E-1
9.616068818E0,1.247100830E-1,-3.041381836E-1,-3.826446533E-1
9.620951630E0,1.534271240E-1,-3.175811768E-1,-4.070892334E-1
9.625834443E0,1.741943359E-1,-3.389587402E-1,-4.217529297E-1
9.630717255E0,1.888580322E-1,-3.780517578E-1,-4.205322266E-1
9.635600068E0,1.937408447E-1,-4.214172363E-1,-4.070892334E-1
9.640482880E0,1.937408447E-1,-4.574737549E-1,-3.802032471E-1
9.645365693E0,1.925201416E-1,-4.794616699E-1,-3.435516357E-1
9.650248505E0,1.912994385E-1,-4.794616699E-1,-3.032379150E-1
9.655131318E0,1.955718994E-1,-4.678497314E-1,-2.616882324E-1
9.660014130E0,2.114562988E-1,-4.525756836E-1,-2.097778320E-1
9.664896943E0,2.389526367E-1,-4.269256592E-1,-1.596832275E-1
9.669779755E0,2.737731934E-1,-3.982086182E-1,-1.077575684E-1
9.674662568E0,3.140869141E-1,-3.688812256E-1,-5.400085449E-2
9.679545380E0,3.489074707E-1,-3.389587402E-1,-1.063537598E-2
9.684428193E0,3.727264404E-1,-3.059692383E-1,2.235412598E-2
9.689311005E0,3.769989014E-1,-2.735900879E-1,5.044555664E-2
9.694193818E0,3.586730957E-1,-2.460937500E-1,7.609558105E-2
9.699076630E0,3.208007812E-1,-2.351074219E-1,9.382629395E-2
9.703959443E0,2.688751221E-1,-2.406005859E-1,1.017608643E-1
9.708811738E0,2.132873535E-1,-2.607574463E-1,9.504699707E-2
9.713694550E0,1.576995850E-1,-2.937469482E-1,7.183837891E-2
9.718577363E0,1.051635742E-1,-3.377380371E-1,3.089904785E-2
9.723460175E0,6.057739258E-2,-3.829345703E-1,-2.040100098E-2
9.728342988E0,2.758789062E-2,-4.257049561E-1,-8.271789551E-2
