"Time (s)","Gyroscope x (rad/s)","Gyroscope y (rad/s)","Gyroscope z (rad/s)"
4.058838000E-3,1.136104584E0,1.791774869E0,7.659251690E-1
6.011963000E-3,1.136104584E0,1.791774869E0,7.659251690E-1
8.026123000E-3,1.136104584E0,1.791774869E0,7.659251690E-1
1.000976600E-2,1.136104584E0,1.791774869E0,7.659251690E-1
1.202392600E-2,1.136104584E0,1.791774869E0,7.659251690E-1
1.400756800E-2,1.136104584E0,1.791774869E0,7.659251690E-1
1.602172900E-2,1.136104584E0,1.791774869E0,7.659251690E-1
1.800537100E-2,1.136104584E0,1.791774869E0,7.659251690E-1
2.001953100E-2,1.136104584E0,1.791774869E0,7.659251690E-1
2.200317400E-2,1.136104584E0,1.791774869E0,7.659251690E-1
2.404785200E-2,1.136104584E0,1.791774869E0,7.659251690E-1
2.600097700E-2,1.136104584E0,1.791774869E0,7.659251690E-1
2.801513700E-2,1.136104584E0,1.791774869E0,7.659251690E-1
2.999877900E-2,1.136104584E0,1.791774869E0,7.659251690E-1
3.201293900E-2,1.136104584E0,1.791774869E0,7.659251690E-1
3.399658200E-2,-2.721750736E-1,-1.996838212E0,-7.989482954E-3
3.601074200E-2,-2.838929892E-1,-2.005892992E0,-7.456851192E-3
3.799438500E-2,-2.908172011E-1,-2.011219263E0,-3.195793368E-3
4.000854500E-2,-2.982740402E-1,-2.004295111E0,-5.326322280E-3
4.199218700E-2,-3.020024598E-1,-2.002164602E0,5.326322280E-4
4.403686500E-2,-3.004045784E-1,-1.993642449E0,5.858954508E-3
4.598999000E-2,-3.036003709E-1,-1.981391907E0,1.012001187E-2
4.800415000E-2,-3.036003709E-1,-1.962217093E0,1.704423130E-2
4.998779300E-2,-3.073287904E-1,-1.936650753E0,2.343581803E-2
5.200195300E-2,-3.105245829E-1,-1.909486532E0,3.355583176E-2
5.398559600E-2,-3.158509135E-1,-1.874865413E0,4.154531285E-2
5.599975600E-2,-3.185140789E-1,-1.850896955E0,4.580637068E-2
5.798339800E-2,-3.206445873E-1,-1.837048531E0,5.006742850E-2
5.999755900E-2,-3.190467060E-1,-1.821602225E0,5.326322466E-2
6.198120100E-2,-3.169161677E-1,-1.819471717E0,5.805691332E-2
6.399536100E-2,-3.131877482E-1,-1.821602225E0,5.912217870E-2
6.597900400E-2,-3.094593287E-1,-1.823732734E0,6.072007492E-2
6.796264600E-2,-3.041329980E-1,-1.825330615E0,6.498113275E-2
6.994628900E-2,-2.961435318E-1,-1.828526497E0,6.657902896E-2
7.192993200E-2,-2.854908705E-1,-1.826395869E0,7.190535218E-2
7.394409200E-2,-2.721750736E-1,-1.825863242E0,7.350324839E-2
7.592773400E-2,-2.620550692E-1,-1.819471717E0,7.297061384E-2
7.791137700E-2,-2.412824035E-1,-1.815210581E0,7.776430249E-2
7.989502000E-2,-2.247707993E-1,-1.799231648E0,8.575379103E-2
8.190918000E-2,-1.997370869E-1,-1.782720089E0,9.480853379E-2
8.392334000E-2,-1.677791476E-1,-1.756621122E0,1.059938148E-1
8.590698200E-2,-1.299622655E-1,-1.723597884E0,1.209075153E-1
8.789062500E-2,-8.788431436E-2,-1.689509392E0,1.320927888E-1
8.990478500E-2,-3.728425503E-2,-1.642637849E0,1.427454352E-1
9.188842800E-2,1.278317347E-2,-1.587244034E0,1.523328125E-1
9.390258800E-2,6.924218684E-2,-1.530252337E0,1.613875628E-1
9.588623000E-2,1.225054115E-1,-1.478054404E0,1.747033745E-1
9.790039100E-2,1.763012707E-1,-1.425323844E0,1.842907518E-1
9.988403300E-2,2.247707993E-1,-1.372593284E0,1.922802329E-1
1.018981930E-1,2.721750736E-1,-1.318797350E0,1.997370869E-1
1.039123540E-1,3.142530024E-1,-1.267664671E0,2.050634027E-1
1.058959960E-1,3.520699143E-1,-1.226119399E0,2.135855258E-1
1.078796390E-1,3.872236311E-1,-1.185106754E0,2.263686955E-1
1.098937990E-1,4.191815555E-1,-1.148887753E0,2.396845073E-1
1.118774410E-1,4.468784332E-1,-1.113201380E0,2.567287385E-1
1.138916020E-1,4.676510990E-1,-1.080178142E0,2.700445354E-1
1.158752440E-1,4.868258536E-1,-1.053546548E0,2.865561247E-1
1.178894040E-1,4.985437691E-1,-1.027980208E0,2.977414131E-1
1.198730470E-1,5.070658922E-1,-1.003479123E0,3.099919558E-1
1.218872070E-1,5.113269091E-1,-9.848369956E-1,3.249056637E-1
1.239013670E-1,5.107942820E-1,-9.640643597E-1,3.398193717E-1
1.258850100E-1,5.028048158E-1,-9.518138170E-1,3.632551730E-1
1.278686520E-1,4.937500656E-1,-9.305084944E-1,3.866910040E-1
1.298828120E-1,4.820321798E-1,-9.155948162E-1,4.117247164E-1
1.318664550E-1,4.708468914E-1,-8.980179429E-1,4.367584288E-1
1.338806150E-1,4.596616030E-1,-8.809736967E-1,4.548679292E-1
1.358642580E-1,4.500742257E-1,-8.660600185E-1,4.756405652E-1
1.378784180E-1,4.410194755E-1,-8.527442217E-1,4.985437691E-1
1.398620610E-1,4.330300093E-1,-8.351673484E-1,5.182511806E-1
1.418762210E-1,4.271710515E-1,-8.239820600E-1,5.363606811E-1
1.438903810E-1,4.202468395E-1,-8.149272799E-1,5.518069863E-1
1.458740230E-1,4.133225977E-1,-8.053399324E-1,5.624596477E-1
1.478576660E-1,4.058657587E-1,-8.026767969E-1,5.757754445E-1
1.498718260E-1,4.048005044E-1,-7.989483476E-1,5.869607329E-1
1.518554690E-1,4.010720551E-1,-7.962851524E-1,5.976133347E-1
1.538696290E-1,3.978762627E-1,-8.005462289E-1,6.130596995E-1
1.558532710E-1,4.000068009E-1,-8.080030680E-1,6.247776151E-1
1.578674320E-1,3.973436356E-1,-8.170578480E-1,6.359629035E-1
1.598510740E-1,3.973436356E-1,-8.309062719E-1,6.476807594E-1
1.618652340E-1,3.994741738E-1,-8.362326026E-1,6.556702852E-1
1.638793950E-1,4.026699662E-1,-8.431568146E-1,6.631271243E-1
1.658630370E-1,4.058657587E-1,-8.538094759E-1,6.748450398E-1
1.678466800E-1,4.063983858E-1,-8.607336879E-1,6.844323874E-1
1.698608400E-1,4.079962969E-1,-8.697884083E-1,6.924219131E-1
1.718444820E-1,4.042678475E-1,-8.740494847E-1,6.993461251E-1
1.738586430E-1,4.021373391E-1,-8.841695189E-1,7.041398287E-1
1.758422850E-1,3.984089196E-1,-8.948221207E-1,7.131945491E-1
1.778564450E-1,3.968110085E-1,-9.001484513E-1,7.206513882E-1
1.798400880E-1,3.888215125E-1,-9.134642482E-1,7.259777188E-1
1.818542480E-1,3.797667921E-1,-9.273127317E-1,7.259777188E-1
1.838684080E-1,3.712446690E-1,-9.416937828E-1,7.270429730E-1
1.858215330E-1,3.542004228E-1,-9.582054019E-1,7.307714224E-1
1.878051760E-1,3.424825370E-1,-9.800432920E-1,7.339671850E-1
1.897888180E-1,3.238403797E-1,-1.001348615E0,7.323693037E-1
1.918029790E-1,3.078614175E-1,-1.025317073E0,7.371630073E-1
1.937866210E-1,2.929477394E-1,-1.049285531E0,7.366303802E-1
1.958007810E-1,2.689792812E-1,-1.074851871E0,7.366303802E-1
1.977844240E-1,2.556634545E-1,-1.098287702E0,7.387608886E-1
1.997680660E-1,2.418150306E-1,-1.123321414E0,7.376956344E-1
2.017517090E-1,2.258360684E-1,-1.144626617E0,7.334345579E-1
2.037658690E-1,2.157160491E-1,-1.164866686E0,7.334345579E-1
2.057189940E-1,2.024002522E-1,-1.182443500E0,7.302387953E-1
2.077331540E-1,1.906823367E-1,-1.196292043E0,7.227819562E-1
2.097167970E-1,1.805623323E-1,-1.210140467E0,7.206513882E-1
2.117309570E-1,1.768338978E-1,-1.222923636E0,7.179882526E-1
2.137146000E-1,1.693770438E-1,-1.224521518E0,7.131945491E-1
2.157287600E-1,1.667138934E-1,-1.228249907E0,7.094660997E-1
2.177429200E-1,1.677791476E-1,-1.229847789E0,7.036072016E-1
2.196960450E-1,1.688444167E-1,-1.222391009E0,6.940197945E-1
2.216796870E-1,1.709749401E-1,-1.215999365E0,6.828345060E-1
2.237243650E-1,1.752360016E-1,-1.206944585E0,6.695187092E-1
2.256774900E-1,1.763012707E-1,-1.194694042E0,6.530070901E-1
2.276916500E-1,1.842907518E-1,-1.183508754E0,6.364955306E-1
2.296752930E-1,1.858886480E-1,-1.176584601E0,6.173207760E-1
2.316894530E-1,1.938781291E-1,-1.164334059E0,5.976133347E-1
2.336730960E-1,2.013349831E-1,-1.155279279E0,5.805691481E-1
2.356872560E-1,2.087918371E-1,-1.149420381E0,5.592638254E-1
2.376708980E-1,2.135855258E-1,-1.143028736E0,5.358279943E-1
2.396850590E-1,2.210423797E-1,-1.136104584E0,5.118595958E-1
2.416687010E-1,2.247707993E-1,-1.130245566E0,4.825648069E-1
2.437133790E-1,2.300971150E-1,-1.122256160E0,4.538026452E-1
2.456665040E-1,2.391518652E-1,-1.121190786E0,4.287689328E-1
2.476806640E-1,2.434129268E-1,-1.115864515E0,3.952131271E-1
2.496643070E-1,2.423476577E-1,-1.114266634E0,3.637878001E-1
2.516784670E-1,2.439455539E-1,-1.111070871E0,3.312972486E-1
2.536621090E-1,2.428802997E-1,-1.110005617E0,2.977414131E-1
2.556762700E-1,2.402171344E-1,-1.113201380E0,2.647182047E-1
2.576599120E-1,2.386192381E-1,-1.118527651E0,2.338255495E-1
2.596740720E-1,2.343581766E-1,-1.119060278E0,2.008023560E-1
2.616577150E-1,2.375539690E-1,-1.125451922E0,1.699096859E-1
2.637023930E-1,2.343581766E-1,-1.130245566E0,1.411475390E-1
2.656555180E-1,2.343581766E-1,-1.132376075E0,1.097222418E-1
2.676391600E-1,2.311623842E-1,-1.134506702E0,8.202536404E-2
2.696228030E-1,2.300971150E-1,-1.135039330E0,5.699164793E-2
2.716369630E-1,2.300971150E-1,-1.139300346E0,3.142530099E-2
2.735900880E-1,2.284992188E-1,-1.138235092E0,3.728425596E-3
2.755737300E-1,2.284992188E-1,-1.137169838E0,-1.810949668E-2
2.775573730E-1,2.242381722E-1,-1.131843448E0,-3.994741663E-2
2.795410160E-1,2.242381722E-1,-1.124919295E0,-6.072007492E-2
2.815246580E-1,2.194444835E-1,-1.120658159E0,-7.882957160E-2
2.835388180E-1,2.151834220E-1,-1.113734007E0,-9.214537591E-2
2.855224610E-1,2.082591951E-1,-1.103613973E0,-1.070590764E-1
2.875061040E-1,2.018676102E-1,-1.092961311E0,-1.155811921E-1
2.895202640E-1,1.944107562E-1,-1.084439158E0,-1.225054115E-1
2.915039060E-1,1.837581247E-1,-1.074851871E0,-1.304948926E-1
2.935180660E-1,1.741707325E-1,-1.061003447E0,-1.315601617E-1
2.955017090E-1,1.613875628E-1,-1.049285531E0,-1.304948926E-1
2.975158690E-1,1.480717659E-1,-1.031708598E0,-1.320927888E-1
2.994995120E-1,1.390170157E-1,-1.011468649E0,-1.257012039E-1
3.015136720E-1,1.294296384E-1,-9.912285805E-1,-1.203748807E-1
3.035278320E-1,1.203748807E-1,-9.619337916E-1,-1.166464612E-1
3.054809570E-1,1.145159304E-1,-9.315737486E-1,-1.097222418E-1
3.074951170E-1,1.091896072E-1,-8.964200616E-1,-1.054611802E-1
3.094787600E-1,1.038632840E-1,-8.570052385E-1,-9.480853379E-2
3.114929200E-1,9.534116834E-2,-8.197209835E-1,-8.894958347E-2
3.134765620E-1,9.534116834E-2,-7.797735929E-1,-8.681905270E-2
3.154907230E-1,8.788431436E-2,-7.414240837E-1,-8.628641814E-2
3.174743650E-1,8.468852192E-2,-6.982808709E-1,-8.522115648E-2
3.194885250E-1,7.616640627E-2,-6.572681665E-1,-8.522115648E-2
3.214721680E-1,7.030745596E-2,-6.237123609E-1,-9.108011425E-2
3.235168460E-1,6.178534031E-2,-5.906891227E-1,-9.800432622E-2
3.254699710E-1,5.592638254E-2,-5.608617067E-1,-1.012001261E-1
3.274841310E-1,4.740426689E-2,-5.342301130E-1,-1.091896072E-1
3.294677730E-1,4.154531285E-2,-5.107942820E-1,-1.193096191E-1
3.314819340E-1,3.408846259E-2,-4.862932265E-1,-1.283643693E-1
3.334655760E-1,3.142530099E-2,-4.623247683E-1,-1.384843737E-1
3.354797360E-1,2.982740477E-2,-4.394215941E-1,-1.512675583E-1
3.374633790E-1,2.716424316E-2,-4.202468395E-1,-1.656486243E-1
3.394775390E-1,2.876213938E-2,-3.941478431E-1,-1.805623323E-1
3.414611820E-1,3.195793182E-2,-3.701793849E-1,-1.960086524E-1
3.435058590E-1,3.834952042E-2,-3.430151641E-1,-2.157160491E-1
3.454589840E-1,4.687163606E-2,-3.137203753E-1,-2.343581766E-1
3.474731450E-1,5.592638254E-2,-2.849582434E-1,-2.540655732E-1
3.494567870E-1,6.711166352E-2,-2.498045117E-1,-2.753708661E-1
3.514709470E-1,7.989483327E-2,-2.162486911E-1,-2.956108749E-1
3.534545900E-1,9.374327213E-2,-1.768338978E-1,-3.201119602E-1
3.554687500E-1,1.070590764E-1,-1.374191195E-1,-3.408846259E-1
3.574523930E-1,1.225054115E-1,-9.800432622E-2,-3.627225459E-1
3.594665530E-1,1.368864775E-1,-5.432848632E-2,-3.898867965E-1
3.614501950E-1,1.486043930E-1,-8.522115648E-3,-4.165183902E-1
3.634948730E-1,1.624528319E-1,3.941478580E-2,-4.394215941E-1
3.654479980E-1,1.800296903E-1,8.255799860E-2,-4.660531878E-1
3.674621580E-1,1.949433982E-1,1.262338310E-1,-4.905542731E-1
3.694458010E-1,2.087918371E-1,1.672465205E-1,-5.161206126E-1
3.714599610E-1,2.210423797E-1,1.992044598E-1,-5.400890708E-1
3.734436040E-1,2.359560728E-1,2.263686955E-1,-5.667206645E-1
3.754577640E-1,2.482066154E-1,2.508697808E-1,-5.906891227E-1
3.774414060E-1,2.556634545E-1,2.657834888E-1,-6.189186573E-1
3.794555660E-1,2.615224123E-1,2.806971967E-1,-6.428871155E-1
3.814392090E-1,2.663161159E-1,2.945456207E-1,-6.657902598E-1
3.834838870E-1,2.689792812E-1,3.030677438E-1,-6.977482438E-1
3.854370120E-1,2.668487430E-1,3.062635362E-1,-7.094660997E-1
3.874511720E-1,2.620550692E-1,3.089267015E-1,-7.259777188E-1
3.894348140E-1,2.519350350E-1,3.126551211E-1,-7.424893379E-1
3.914489750E-1,2.418150306E-1,3.206445873E-1,-7.584682703E-1
3.934326170E-1,2.279665917E-1,3.265035450E-1,-7.733820081E-1
3.954467770E-1,2.082591951E-1,3.371562064E-1,-7.866978049E-1
3.974304200E-1,1.736381054E-1,3.573962152E-1,-8.085356951E-1
3.994445800E-1,1.427454352E-1,3.696467578E-1,-8.197209835E-1
4.014282230E-1,1.091896072E-1,3.840278387E-1,-8.271778226E-1
4.034729000E-1,7.137271762E-2,4.095941782E-1,-8.388957381E-1
4.054260250E-1,3.142530099E-2,4.330300093E-1,-8.484831452E-1
4.074401860E-1,-1.438106969E-2,4.665858448E-1,-8.543421030E-1
4.094238280E-1,-6.231797114E-2,4.990763962E-1,-8.655273914E-1
4.114379880E-1,-1.113201380E-1,5.374259353E-1,-8.676578999E-1
4.134216310E-1,-1.571265012E-1,5.747101903E-1,-8.655273914E-1
4.154357910E-1,-2.114549875E-1,6.114618182E-1,-8.612663150E-1
4.174194340E-1,-2.609897852E-1,6.455502510E-1,-8.484831452E-1
4.194335940E-1,-3.105245829E-1,6.769755483E-1,-8.287757635E-1
4.214172360E-1,-3.573962152E-1,7.068029642E-1,-7.978830934E-1
4.234619140E-1,-4.021373391E-1,7.382282615E-1,-7.659251690E-1
4.254150390E-1,-4.447479248E-1,7.755125165E-1,-7.217166424E-1
4.274291990E-1,-4.884237647E-1,8.261125684E-1,-6.673882008E-1
4.294128420E-1,-5.320996046E-1,8.894958496E-1,-6.050702333E-1
4.314270020E-1,-5.752428174E-1,9.560748339E-1,-5.448827744E-1
4.334106450E-1,-6.167881489E-1,1.028512836E0,-4.793690145E-1
4.354248050E-1,-6.551376581E-1,1.105744481E0,-4.181163013E-1
4.374084470E-1,-6.865629554E-1,1.189900398E0,-3.621899188E-1
4.394226070E-1,-7.211840153E-1,1.267664671E0,-3.131877482E-1
4.414062500E-1,-7.494135499E-1,1.344896317E0,-2.748382390E-1
4.434204100E-1,-7.717841268E-1,1.418932199E0,-2.402171344E-1
4.454040530E-1,-7.941546440E-1,1.493500710E0,-2.157160491E-1
4.473876950E-1,-8.096010089E-1,1.563275576E0,-2.071939409E-1
4.493713380E-1,-8.245146871E-1,1.633583069E0,-2.018676102E-1
4.513549800E-1,-8.388957381E-1,1.702292562E0,-2.018676102E-1
4.533691410E-1,-8.495483994E-1,1.760882139E0,-2.093244642E-1
4.553527830E-1,-8.548747301E-1,1.811482191E0,-2.226402760E-1
4.573669430E-1,-8.607336879E-1,1.849299073E0,-2.359560728E-1
4.593505860E-1,-8.681905270E-1,1.882854939E0,-2.540655732E-1
4.613342290E-1,-8.745821118E-1,1.906823397E0,-2.705771625E-1
4.633483890E-1,-8.756473660E-1,1.921204448E0,-2.897519469E-1
4.653015140E-1,-8.767126203E-1,1.931857109E0,-3.105245829E-1
4.672851560E-1,-8.703210354E-1,1.962749720E0,-3.296993375E-1
4.692687990E-1,-8.623315692E-1,2.005892992E0,-3.504720032E-1
4.712524410E-1,-8.490157723E-1,2.070874214E0,-3.717772961E-1
4.732360840E-1,-8.325041533E-1,2.135322571E0,-4.021373391E-1
4.752502440E-1,-8.143946528E-1,2.190716267E0,-4.351605177E-1
4.772338870E-1,-7.962851524E-1,2.250903845E0,-4.676510990E-1
4.792175290E-1,-7.781757116E-1,2.310025930E0,-5.044026971E-1
4.812011720E-1,-7.621967196E-1,2.361691236E0,-5.470132828E-1
4.832153320E-1,-7.499461770E-1,2.403236628E0,-5.928196907E-1
4.851684570E-1,-7.350324988E-1,2.430933475E0,-6.338323355E-1
4.871826170E-1,-7.227819562E-1,2.450640917E0,-6.775081754E-1
4.891662600E-1,-7.147924304E-1,2.443716764E0,-7.323693037E-1
4.911804200E-1,-7.046724558E-1,2.408562899E0,-7.760451436E-1
4.931640620E-1,-6.902913451E-1,2.346777678E0,-8.133293986E-1
4.951782230E-1,-6.854977012E-1,2.259958506E0,-8.463526368E-1
4.971618650E-1,-6.860303283E-1,2.151301622E0,-8.735168576E-1
4.991760250E-1,-6.886934638E-1,2.016545534E0,-8.873652816E-1
5.011596680E-1,-6.977482438E-1,1.856223345E0,-9.006810784E-1
5.032043460E-1,-7.131945491E-1,1.675128341E0,-9.049421549E-1
5.051574710E-1,-7.265103459E-1,1.487641811E0,-9.097358584E-1
5.071716310E-1,-7.424893379E-1,1.293231010E0,-9.113337398E-1
5.091552730E-1,-7.632619739E-1,1.102016091E0,-9.129316211E-1
5.111694340E-1,-7.893609405E-1,9.113337398E-1,-9.065400362E-1
5.131530760E-1,-8.149272799E-1,7.403587699E-1,-8.990831971E-1
5.151672360E-1,-8.474178910E-1,5.826996565E-1,-8.852347732E-1
5.171508790E-1,-8.820389509E-1,4.463458061E-1,-8.692557812E-1
5.191650390E-1,-9.155948162E-1,3.302319944E-1,-8.532768488E-1
5.211486820E-1,-9.528790712E-1,2.370213419E-1,-8.309062719E-1
5.231933590E-1,-9.906959534E-1,1.571265012E-1,-8.074704409E-1
5.251464840E-1,-1.030110717E0,9.001484513E-2,-7.813714743E-1
5.271606450E-1,-1.072188616E0,3.834952042E-2,-7.494135499E-1
5.291442870E-1,-1.112136126E0,-6.391586736E-3,-7.243798375E-1
5.311584470E-1,-1.158475041E0,-4.314320907E-2,-6.892260909E-1
5.331420900E-1,-1.209075212E0,-7.030745596E-2,-6.503439546E-1
5.351562500E-1,-1.261805773E0,-9.640643001E-2,-6.034722924E-1
5.371398930E-1,-1.326254249E0,-1.171790883E-1,-5.470132828E-1
5.391540530E-1,-1.392300606E0,-1.235706806E-1,-4.889563918E-1
5.411376950E-1,-1.462075472E0,-1.251685768E-1,-4.277036786E-1
5.431518550E-1,-1.539307117E0,-1.107875034E-1,-3.664509654E-1
5.451660160E-1,-1.619734645E0,-7.882957160E-2,-3.115898669E-1
5.471496580E-1,-1.712412596E0,-2.024002373E-2,-2.593919039E-1
5.491333010E-1,-1.802960038E0,7.243798673E-2,-2.178465873E-1
5.511169430E-1,-1.870604396E0,1.747033745E-1,-1.960086524E-1
5.531311040E-1,-1.927063346E0,2.684466541E-1,-1.885518134E-1
5.551147460E-1,-1.991511941E0,3.456783295E-1,-1.832254827E-1
5.571289060E-1,-2.063417196E0,4.239752591E-1,-1.784317940E-1
5.591125490E-1,-2.151301622E0,4.889563918E-1,-1.752360016E-1
5.610961910E-1,-2.244512320E0,5.464806557E-1,-1.778991669E-1
5.631103520E-1,-2.341451168E0,5.981460214E-1,-1.800296903E-1
5.650939940E-1,-2.432531357E0,6.455502510E-1,-1.826928556E-1
5.670776370E-1,-2.518817902E0,6.780408025E-1,-1.784317940E-1
5.690917970E-1,-2.598180056E0,7.052050829E-1,-1.725728363E-1
5.710754390E-1,-2.673281193E0,7.281082273E-1,-1.661812514E-1
5.730896000E-1,-2.730805397E0,7.478156686E-1,-1.613875628E-1
5.750732420E-1,-2.784601212E0,7.669904232E-1,-1.560612470E-1
5.770874020E-1,-2.832538128E0,7.909588814E-1,-1.448759735E-1
5.790710450E-1,-2.877811909E0,8.191883564E-1,-1.384843737E-1
5.810852050E-1,-2.918292046E0,8.415589333E-1,-1.379517466E-1
5.830993650E-1,-2.958771944E0,8.564726114E-1,-1.475391239E-1
5.850830080E-1,-2.993925810E0,8.628641963E-1,-1.555286050E-1
5.870666500E-1,-3.024285793E0,8.607336879E-1,-1.693770438E-1
5.890808110E-1,-3.045591116E0,8.436894417E-1,-1.869539171E-1
5.910644530E-1,-3.047721624E0,8.266451955E-1,-2.034655064E-1
5.930786130E-1,-3.041330099E0,8.080030680E-1,-2.205097377E-1
5.950622560E-1,-3.028546810E0,7.973504663E-1,-2.396845073E-1
5.970764160E-1,-3.002447844E0,7.861651778E-1,-2.577939928E-1
5.990600590E-1,-2.967826843E0,7.792409658E-1,-2.743056118E-1
6.010742190E-1,-2.923618317E0,7.728493810E-1,-2.934803665E-1
6.030883790E-1,-2.876746655E0,7.723167539E-1,-3.153182864E-1
6.050720210E-1,-2.825081348E0,7.739146352E-1,-3.403519988E-1
6.070556640E-1,-2.768089771E0,7.797735929E-1,-3.579288721E-1
6.090698240E-1,-2.707369566E0,7.813714743E-1,-3.755057156E-1
6.110534670E-1,-2.636529446E0,7.946872711E-1,-3.866910040E-1
6.130676270E-1,-2.558765173E0,8.048073053E-1,-3.973436356E-1
6.150512700E-1,-2.479935646E0,8.234494328E-1,-4.021373391E-1
6.170959470E-1,-2.396312475E0,8.532768488E-1,-4.111920893E-1
6.190490720E-1,-2.308960676E0,8.974853158E-1,-4.202468395E-1
6.210632320E-1,-2.218945980E0,9.518138170E-1,-4.324973822E-1
6.230773930E-1,-2.125202656E0,1.012533903E0,-4.378236830E-1
6.250610350E-1,-2.028796196E0,1.081776023E0,-4.458131790E-1
6.270446780E-1,-1.927063346E0,1.151550889E0,-4.575310946E-1
6.290588380E-1,-1.823200107E0,1.227184653E0,-4.719121456E-1
6.310424800E-1,-1.715608358E0,1.300687909E0,-4.857605994E-1
6.330566410E-1,-1.604288220E0,1.363005877E0,-5.033374429E-1
6.350402830E-1,-1.489772320E0,1.423193336E0,-5.139901042E-1
6.370544430E-1,-1.373125911E0,1.466336489E0,-5.257080197E-1
6.390380860E-1,-1.255414128E0,1.500957608E0,-5.347627401E-1
6.410522460E-1,-1.139832973E0,1.540904999E0,-5.454154015E-1
6.430664060E-1,-1.015197039E0,1.577124000E0,-5.560680628E-1
6.450500490E-1,-8.921589851E-1,1.614408255E0,-5.640575290E-1
6.470336910E-1,-7.749798894E-1,1.649029374E0,-5.731122494E-1
6.490478520E-1,-6.562029123E-1,1.679922104E0,-5.795038939E-1
6.510314940E-1,-5.427522659E-1,1.695368409E0,-5.837649107E-1
6.530456540E-1,-4.340952635E-1,1.698564172E0,-5.912217498E-1
6.550292970E-1,-3.307646215E-1,1.691639900E0,-6.008091569E-1
6.570434570E-1,-2.348908186E-1,1.680987358E0,-6.119944453E-1
6.590271000E-1,-1.523328125E-1,1.663410425E0,-6.194512844E-1
6.610412600E-1,-7.350324839E-2,1.648496747E0,-6.258428693E-1
6.630554200E-1,-8.522115648E-3,1.631452560E0,-6.364955306E-1
6.650390620E-1,4.793690145E-2,1.612277746E0,-6.455502510E-1
6.670227050E-1,9.001484513E-2,1.594700933E0,-6.588660479E-1
6.690368650E-1,1.251685768E-1,1.577124000E0,-6.721818447E-1
6.710205080E-1,1.533980817E-1,1.570199847E0,-6.823018789E-1
6.730346680E-1,1.736381054E-1,1.567536592E0,-6.929545403E-1
6.750183110E-1,1.837581247E-1,1.555286050E0,-7.020092607E-1
6.770324710E-1,1.912149638E-1,1.536111355E0,-7.105314136E-1
6.790161130E-1,1.912149638E-1,1.501490235E0,-7.169229984E-1
6.810302730E-1,1.805623323E-1,1.462608099E0,-7.233145833E-1
6.830444340E-1,1.677791476E-1,1.416269064E0,-7.313040495E-1
6.850280760E-1,1.502022892E-1,1.363005877E0,-7.376956344E-1
6.870117190E-1,1.251685768E-1,1.306014180E0,-7.462177277E-1
6.890258790E-1,9.960222989E-2,1.250087857E0,-7.483482957E-1
6.910095210E-1,7.084008306E-2,1.194161415E0,-7.504788041E-1
6.930236820E-1,3.675162420E-2,1.140898228E0,-7.520766854E-1
6.950073240E-1,3.728425596E-3,1.090298176E0,-7.515440583E-1
6.970214840E-1,-3.462109342E-2,1.040763378E0,-7.504788041E-1
6.990051270E-1,-7.563377917E-2,9.949570298E-1,-7.435545921E-1
7.010192870E-1,-1.187769845E-1,9.502158761E-1,-7.392935157E-1
7.030334470E-1,-1.613875628E-1,9.123989940E-1,-7.313040495E-1
7.049865720E-1,-2.082591951E-1,8.724516034E-1,-7.222493291E-1
7.070007320E-1,-2.535329461E-1,8.341020942E-1,-7.068029642E-1
7.089843750E-1,-2.977414131E-1,8.032094240E-1,-6.934871674E-1
7.109985350E-1,-3.430151641E-1,7.712514400E-1,-6.759102941E-1
7.129821780E-1,-3.882888854E-1,7.392935157E-1,-6.540724039E-1
7.149963380E-1,-4.319647253E-1,7.099987864E-1,-6.327670813E-1
7.169799800E-1,-4.719121456E-1,6.823018789E-1,-6.135923266E-1
7.189941410E-1,-5.134574771E-1,6.487460732E-1,-5.970807076E-1
7.209777830E-1,-5.512743592E-1,6.109291911E-1,-5.736449361E-1
7.229919430E-1,-5.853627920E-1,5.773733258E-1,-5.518069863E-1
7.249450680E-1,-6.146575809E-1,5.411543250E-1,-5.289037824E-1
7.269592290E-1,-6.428871155E-1,5.060006380E-1,-5.017395616E-1
7.289428710E-1,-6.578007936E-1,4.793690145E-1,-4.729774296E-1
7.309570310E-1,-6.759102941E-1,4.484763443E-1,-4.415521026E-1
7.329406740E-1,-6.823018789E-1,4.223773479E-1,-4.122573435E-1
7.349548340E-1,-6.865629554E-1,4.021373391E-1,-3.813646734E-1
7.369384770E-1,-6.854977012E-1,3.787015080E-1,-3.526025414E-1
7.389526370E-1,-6.801713705E-1,3.579288721E-1,-3.190467060E-1
7.409362790E-1,-6.721818447E-1,3.435477912E-1,-2.924150825E-1
7.429809570E-1,-6.604639888E-1,3.243730366E-1,-2.604571581E-1
7.449340820E-1,-6.492787004E-1,3.046656251E-1,-2.290318608E-1
7.469482420E-1,-6.301039457E-1,2.828277051E-1,-2.008023560E-1
7.489318850E-1,-6.119944453E-1,2.588592768E-1,-1.720402092E-1
7.509460450E-1,-5.928196907E-1,2.295644879E-1,-1.432780623E-1
7.529296870E-1,-5.779059529E-1,1.901497096E-1,-1.187769845E-1
7.549438480E-1,-5.597964525E-1,1.448759735E-1,-9.001484513E-2
7.569274900E-1,-5.368933082E-1,9.534116834E-2,-6.764429063E-2
7.589416500E-1,-5.118595958E-1,4.367584363E-2,-4.261057824E-2
7.609252930E-1,-4.900216460E-1,-7.456851192E-3,-1.970739290E-2
7.629699710E-1,-4.607268870E-1,-5.805691332E-2,4.793690052E-3
7.649230960E-1,-4.308994710E-1,-1.027980223E-1,2.716424316E-2
7.669372560E-1,-3.946804702E-1,-1.454086006E-1,4.900216311E-2
7.689208980E-1,-3.584614992E-1,-1.816275865E-1,6.977482140E-2
7.709350590E-1,-3.211772442E-1,-2.098570913E-1,8.255799860E-2
7.729187010E-1,-2.801645398E-1,-2.290318608E-1,1.027980223E-1
7.749328610E-1,-2.370213419E-1,-2.412824035E-1,1.182443574E-1
7.769165040E-1,-1.922802329E-1,-2.524676621E-1,1.304948926E-1
7.789306640E-1,-1.416801661E-1,-2.524676621E-1,1.464738697E-1
7.809143070E-1,-8.948221803E-2,-2.519350350E-1,1.640507281E-1
7.829284670E-1,-3.621899337E-2,-2.444781959E-1,1.800296903E-1
7.849121090E-1,1.917476021E-2,-2.332929224E-1,1.960086524E-1
7.868957520E-1,7.882957160E-2,-2.226402760E-1,2.109223604E-1
7.889099120E-1,1.363538504E-1,-2.093244642E-1,2.300971150E-1
7.908935550E-1,1.992044598E-1,-1.997370869E-1,2.487392575E-1
7.929077150E-1,2.599245310E-1,-1.906823367E-1,2.652508616E-1
7.948913570E-1,3.254382908E-1,-1.837581247E-1,2.860234976E-1
7.969055180E-1,3.877562582E-1,-1.794970632E-1,3.078614175E-1
7.988891600E-1,4.511395097E-1,-1.741707325E-1,3.286340833E-1
8.009033200E-1,5.177185535E-1,-1.693770438E-1,3.531351686E-1
8.029174800E-1,5.768406987E-1,-1.672465205E-1,3.733751774E-1
8.049011230E-1,6.386260390E-1,-1.656486243E-1,3.978762627E-1
8.068847660E-1,6.988134980E-1,-1.624528319E-1,4.186489284E-1
8.088989260E-1,7.611314654E-1,-1.619201899E-1,4.362258017E-1
8.108825680E-1,8.197209835E-1,-1.635181010E-1,4.596616030E-1
8.128967290E-1,8.772453070E-1,-1.672465205E-1,4.729774296E-1
8.148803710E-1,9.283779860E-1,-1.805623323E-1,4.862932265E-1
8.168945310E-1,9.768475294E-1,-2.055960447E-1,4.958806038E-1
8.188781740E-1,1.021588564E0,-2.439455539E-1,5.065332651E-1
8.208923340E-1,1.056742311E0,-2.956108749E-1,5.139901042E-1
8.229064940E-1,1.087102413E0,-3.504720032E-1,5.193164349E-1
8.248901370E-1,1.107342362E0,-4.175836742E-1,5.310343504E-1
8.268737790E-1,1.118527651E0,-4.809668958E-1,5.432848930E-1
8.288879390E-1,1.128647685E0,-5.331648588E-1,5.608617067E-1
8.308715820E-1,1.141430855E0,-5.560680628E-1,5.779059529E-1
8.328857420E-1,1.149953008E0,-5.635249019E-1,5.890912414E-1
8.348693850E-1,1.163801432E0,-5.640575290E-1,6.018744111E-1
8.368835450E-1,1.176051974E0,-5.624596477E-1,6.146575809E-1
8.388671870E-1,1.192563534E0,-5.475459099E-1,6.231797338E-1
8.408813480E-1,1.203216195E0,-5.187838078E-1,6.322344542E-1
8.428955080E-1,1.214401484E0,-4.692489803E-1,6.343649626E-1
8.448791500E-1,1.221858382E0,-3.877562582E-1,6.338323355E-1
8.468627930E-1,1.234108925E0,-2.727077007E-1,6.285060048E-1
8.488769530E-1,1.260207891E0,-1.139832959E-1,6.375607848E-1
8.508605960E-1,1.301753163E0,9.108011425E-2,6.530070901E-1
8.528747560E-1,1.352885842E0,3.211772442E-1,6.636597514E-1
8.548583980E-1,1.410410166E0,5.544701219E-1,6.647250056E-1
8.568725590E-1,1.457814455E0,7.424893379E-1,6.519418359E-1
8.588562010E-1,1.497229218E0,8.863000274E-1,6.295713186E-1
8.608703610E-1,1.516403913E0,9.906959534E-1,6.077333689E-1
8.628845210E-1,1.529187083E0,1.076449752E0,5.906891227E-1
8.648376460E-1,1.530784965E0,1.148887753E0,5.768406987E-1
8.668212890E-1,1.528654456E0,1.207477212E0,5.736449361E-1
8.688049320E-1,1.514273405E0,1.255414128E0,5.773733258E-1
8.707885740E-1,1.489239693E0,1.284176350E0,5.874933600E-1
8.727722170E-1,1.453020692E0,1.290035248E0,6.077333689E-1
8.747558590E-1,1.404018521E0,1.287372112E0,6.348975897E-1
8.767395020E-1,1.342233181E0,1.275654197E0,6.609966159E-1
8.787231450E-1,1.272991061E0,1.260207891E0,6.881608367E-1
8.807067870E-1,1.191498280E0,1.233576298E0,7.142598033E-1
8.827209470E-1,1.098820329E0,1.206411958E0,7.414240837E-1
8.846740720E-1,9.976201653E-1,1.166464567E0,7.696535587E-1
8.866882320E-1,8.852347732E-1,1.118527651E0,7.946872711E-1
8.886718750E-1,7.680556774E-1,1.067394972E0,8.117315173E-1
8.906860350E-1,6.466155052E-1,1.010936022E0,8.277105093E-1
8.926696780E-1,5.209143162E-1,9.502158761E-1,8.426241875E-1
8.946838380E-1,4.005394280E-1,8.878979087E-1,8.559399843E-1
8.966674800E-1,2.817624509E-1,8.298410177E-1,8.586031795E-1
8.986816410E-1,1.661812514E-1,7.819041014E-1,8.580704927E-1
9.006652830E-1,5.486112088E-2,7.451524734E-1,8.564726114E-1
9.027099610E-1,-4.474110901E-2,7.110640407E-1,8.559399843E-1
9.046630860E-1,-1.358212233E-1,6.929545403E-1,8.447546959E-1
9.066772460E-1,-2.157160491E-1,6.801713705E-1,8.298410177E-1
9.086608890E-1,-2.892192900E-1,6.764429212E-1,8.165252209E-1
9.106750490E-1,-3.499393761E-1,6.801713705E-1,7.925567627E-1
9.126586910E-1,-3.973436356E-1,6.924219131E-1,7.712514400E-1
9.146728520E-1,-4.346278906E-1,7.084008455E-1,7.451524734E-1
9.166564940E-1,-4.687163532E-1,7.366303802E-1,7.179882526E-1
9.186706540E-1,-4.873584807E-1,7.712514400E-1,6.897587180E-1
9.206542970E-1,-5.060006380E-1,8.122641444E-1,6.625944972E-1
9.226989750E-1,-5.091964006E-1,8.591358066E-1,6.338323355E-1
9.246521000E-1,-5.060006380E-1,9.070726633E-1,6.087986231E-1
9.266662600E-1,-4.948153496E-1,9.571400881E-1,5.832322836E-1
9.286499020E-1,-4.729774296E-1,1.005609632E0,5.613943934E-1
9.306640620E-1,-4.479437172E-1,1.048752904E0,5.411543250E-1
9.326477050E-1,-4.143878818E-1,1.088167667E0,5.241101384E-1
9.346618650E-1,-3.792341352E-1,1.124919295E0,5.070658922E-1
9.366455080E-1,-3.414172530E-1,1.160073042E0,4.953479767E-1
9.386596680E-1,-2.988066673E-1,1.187237263E0,4.852279723E-1
9.406433110E-1,-2.577939928E-1,1.213336229E0,4.777711034E-1
9.426574710E-1,-2.135855258E-1,1.233043551E0,4.687163532E-1
9.446411130E-1,-1.608549356E-1,1.254348874E0,4.617921412E-1
9.466247560E-1,-1.107875034E-1,1.269262552E0,4.548679292E-1
9.486389160E-1,-5.699164793E-2,1.283111095E0,4.463458061E-1
9.506225590E-1,-5.858954508E-3,1.300687909E0,4.404868484E-1
9.526367190E-1,4.900216311E-2,1.314003706E0,4.362258017E-1
9.546203610E-1,1.022653878E-1,1.328384757E0,4.308994710E-1
9.566345210E-1,1.581917703E-1,1.337972164E0,4.239752591E-1
9.586181640E-1,2.055960447E-1,1.350222707E0,4.197141826E-1
9.606323240E-1,2.583266199E-1,1.364603758E0,4.154531360E-1
9.626464840E-1,3.089267015E-1,1.375789046E0,4.186489284E-1
9.646301270E-1,3.573962152E-1,1.388039589E0,4.181163013E-1
9.666137700E-1,4.058657587E-1,1.399757504E0,4.245078862E-1
9.686279300E-1,4.543353021E-1,1.408812284E0,4.319647253E-1
9.706115720E-1,4.996090233E-1,1.413605928E0,4.404868484E-1
9.726257320E-1,5.438175201E-1,1.413073301E0,4.506068528E-1
9.746093750E-1,5.842975378E-1,1.400290132E0,4.601942301E-1
9.766235350E-1,6.274407506E-1,1.379517436E0,4.617921412E-1
9.786071780E-1,6.583334208E-1,1.341167927E0,4.607268870E-1
9.806213380E-1,6.854977012E-1,1.288437366E0,4.500742257E-1
9.826354980E-1,7.126619220E-1,1.226119399E0,4.351605177E-1
9.846191410E-1,7.318366766E-1,1.153681397E0,4.138552547E-1
9.866027830E-1,7.499461770E-1,1.069525480E0,3.914846778E-1
9.886169430E-1,7.632619739E-1,9.752495885E-1,3.691141307E-1
9.906005860E-1,7.792409658E-1,8.703210354E-1,3.488741219E-1
9.926147460E-1,7.882956862E-1,7.494135499E-1,3.323625028E-1
9.945983890E-1,7.925567627E-1,6.029396653E-1,3.131877482E-1
9.966125490E-1,7.914915085E-1,4.213120937E-1,2.934803665E-1
9.985961910E-1,7.882956862E-1,1.752360016E-1,2.711097896E-1
1.000610352E0,7.733820081E-1,-1.161138266E-1,2.444781959E-1
1.002624512E0,7.531419992E-1,-4.346278906E-1,2.173139453E-1
1.004608154E0,7.227819562E-1,-7.435545921E-1,1.912149638E-1
1.006591797E0,6.807039976E-1,-1.013066530E0,1.704423130E-1
1.008605957E0,6.199839115E-1,-1.214401484E0,1.523328125E-1
1.010589600E0,5.400890708E-1,-1.341167927E0,1.384843737E-1
1.012603760E0,4.436826408E-1,-1.399224877E0,1.203748807E-1
1.014587402E0,3.382214606E-1,-1.399224877E0,1.001348570E-1
1.016632080E0,1.976065636E-1,-1.334776402E0,7.243798673E-2
1.018585205E0,1.555286050E-1,-1.302285790E0,6.604639441E-2
1.020568848E0,8.362326026E-2,-1.229847789E0,5.166532472E-2
1.022583008E0,1.651159860E-2,-1.154746652E0,4.314320907E-2
1.024536133E0,-3.568635881E-2,-1.091363430E0,3.302319720E-2
1.026550293E0,-8.575379103E-2,-1.040230751E0,2.183792181E-2
1.028533936E0,-1.294296384E-1,-1.018392801E0,6.924218964E-3
1.030548096E0,-1.709749401E-1,-1.012533903E0,-1.118527725E-2
1.032531738E0,-2.055960447E-1,-1.020523310E0,-3.249056637E-2
1.034515381E0,-2.343581766E-1,-1.022121191E0,-4.740426689E-2
1.036499023E0,-2.482066154E-1,-1.005077004E0,-4.633900523E-2
1.038513184E0,-2.444781959E-1,-9.507485032E-1,-2.822950855E-2
1.040496826E0,-2.210423797E-1,-8.484831452E-1,1.491370238E-2
1.042510986E0,-1.763012707E-1,-6.918892860E-1,7.297061384E-2
1.044464111E0,-1.129180342E-1,-4.772384763E-1,1.480717659E-1
1.046478271E0,-3.089267015E-2,-2.284992188E-1,2.237055302E-1
1.048461914E0,6.338323653E-2,5.166532472E-2,2.870887816E-1
1.050476074E0,1.693770438E-1,3.344930410E-1,3.387540877E-1
1.052459717E0,2.817624509E-1,6.119944453E-1,3.653857112E-1
1.054473877E0,3.930825889E-1,8.740494847E-1,3.712446690E-1
1.056457520E0,5.081311464E-1,1.123321414E0,3.648530841E-1
1.058471680E0,6.226470470E-1,1.355016351E0,3.520699143E-1
1.060455322E0,7.344998717E-1,1.562742949E0,3.371562064E-1
1.062500000E0,9.012137055E-1,1.828526497E0,3.238403797E-1
1.064453125E0,9.582054019E-1,1.907356024E0,3.238403797E-1
1.066467285E0,1.060470819E0,2.035720348E0,3.328951299E-1
1.068450928E0,1.157409787E0,2.145442724E0,3.478088379E-1
1.070465088E0,1.246359468E0,2.227468014E0,3.680488765E-1
1.072448730E0,1.331047893E0,2.284992218E0,3.829625845E-1
1.074462891E0,1.401355386E0,2.328135490E0,3.957457542E-1
1.076446533E0,1.502555490E0,2.359560728E0,4.149205089E-1
1.078460693E0,1.559547186E0,2.367017508E0,4.255731404E-1
1.080444336E0,1.608016729E0,2.368083000E0,4.287689328E-1
1.082489014E0,1.653290391E0,2.357430220E0,4.346278906E-1
1.084442139E0,1.686846256E0,2.334527016E0,4.378236830E-1
1.086456299E0,1.708684206E0,2.307362795E0,4.356931746E-1
1.088439941E0,1.725195765E0,2.279665947E0,4.287689328E-1
1.090454102E0,1.733185291E0,2.222674370E0,4.245078862E-1
1.092437744E0,1.723065257E0,2.159823656E0,4.181163013E-1
1.094451904E0,1.709216833E0,2.079928875E0,4.085289240E-1
1.096435547E0,1.685781002E0,1.998968720E0,4.016047120E-1
1.098449707E0,1.653290391E0,1.916943431E0,3.904194236E-1
1.100433350E0,1.615473509E0,1.825863242E0,3.834952116E-1
1.102447510E0,1.571797729E0,1.726261020E0,3.776362538E-1
1.104431152E0,1.526523948E0,1.622930408E0,3.680488765E-1
1.106414795E0,1.477521777E0,1.505751252E0,3.595267534E-1
1.108428955E0,1.430117488E0,1.383778572E0,3.515372574E-1
1.110412598E0,1.383778572E0,1.254881501E0,3.456783295E-1
1.112426758E0,1.343298435E0,1.116397142E0,3.440804183E-1
1.114410400E0,1.309210062E0,9.709885716E-1,3.440804183E-1
1.116424561E0,1.276719451E0,8.175904751E-1,3.504720032E-1
1.118408203E0,1.252750993E0,6.535397172E-1,3.531351686E-1
1.120422363E0,1.226652026E0,4.836300611E-1,3.589941263E-1
1.122436523E0,1.205879331E0,3.142530024E-1,3.605920076E-1
1.124420166E0,1.186704636E0,1.358212233E-1,3.701793849E-1
1.126403809E0,1.169660330E0,-4.953479767E-2,3.834952116E-1
1.128417969E0,1.156344533E0,-2.343581766E-1,3.920173049E-1
1.130401611E0,1.142496109E0,-4.298342168E-1,4.032025933E-1
1.132415771E0,1.129712939E0,-6.231797338E-1,4.154531360E-1
1.134399414E0,1.116397142E0,-8.197209835E-1,4.287689328E-1
1.136413574E0,1.108407617E0,-1.011468649E0,4.410194755E-1
1.138397217E0,1.092428684E0,-1.202150941E0,4.490089715E-1
1.140411377E0,1.072188616E0,-1.377919555E0,4.564658105E-1
1.142425537E0,1.050350785E0,-1.536111355E0,4.639226794E-1
1.144409180E0,1.031708598E0,-1.672465205E0,4.671184719E-1
1.146392822E0,1.009338021E0,-1.795503259E0,4.767058492E-1
1.148406982E0,9.843043685E-1,-1.898833871E0,4.820321798E-1
1.150390625E0,9.635316730E-1,-1.991511941E0,4.846953154E-1
1.152404785E0,9.406285286E-1,-2.067678213E0,4.878911078E-1
1.154388428E0,9.241169095E-1,-2.136920452E0,4.836300611E-1
1.156402588E0,9.097358584E-1,-2.178465843E0,4.820321798E-1
1.158386230E0,9.012137055E-1,-2.189651012E0,4.830974340E-1
1.160400391E0,8.942894936E-1,-2.177400589E0,4.761732221E-1
1.162414551E0,8.884305358E-1,-2.151834249E0,4.671184719E-1
1.164398193E0,8.836368918E-1,-2.116147757E0,4.447479248E-1
1.166381836E0,8.713863492E-1,-2.069276094E0,4.266384244E-1
1.168395996E0,8.564726114E-1,-2.019208670E0,3.994741738E-1
1.170379639E0,8.330367804E-1,-1.977130890E0,3.728425503E-1
1.172393799E0,8.021441102E-1,-1.940911889E0,3.531351686E-1
1.174377441E0,7.653924823E-1,-1.910551786E0,3.270362020E-1
1.176391602E0,7.211840153E-1,-1.881789684E0,3.041329980E-1
1.178375244E0,6.684534550E-1,-1.858353853E0,2.849582434E-1
1.180389404E0,6.077333689E-1,-1.840776920E0,2.689792812E-1
1.182403564E0,5.400890708E-1,-1.818939090E0,2.604571581E-1
1.184356689E0,4.617921412E-1,-1.789644241E0,2.567287385E-1
1.186370850E0,3.723099232E-1,-1.751827359E0,2.636529505E-1
1.188354492E0,2.764361203E-1,-1.696966290E0,2.822950780E-1
1.190368652E0,1.731054783E-1,-1.628256679E0,3.089267015E-1
1.192352295E0,6.551376730E-2,-1.546231389E0,3.408846259E-1
1.194366455E0,-4.420847446E-2,-1.454085946E0,3.813646734E-1
1.196350098E0,-1.544633508E-1,-1.358744860E0,4.223773479E-1
1.198364258E0,-2.604571581E-1,-1.255414128E0,4.655205607E-1
1.200347900E0,-3.589941263E-1,-1.155279279E0,5.091964006E-1
1.202362061E0,-4.522047639E-1,-1.053546548E0,5.475459099E-1
1.204315186E0,-5.390238166E-1,-9.576727748E-1,5.853627920E-1
1.206329346E0,-6.109291911E-1,-8.660600185E-1,6.151902080E-1
1.208312988E0,-6.727145314E-1,-7.781757116E-1,6.428871155E-1
1.210327148E0,-7.185208797E-1,-6.972155571E-1,6.647250056E-1
1.212310791E0,-7.515440583E-1,-6.237123609E-1,6.828345060E-1
1.214324951E0,-7.707188129E-1,-5.550028086E-1,6.977482438E-1
1.216308594E0,-7.835019827E-1,-4.958806038E-1,7.099987864E-1
1.218322754E0,-7.850999236E-1,-4.372910559E-1,7.217166424E-1
1.220306396E0,-7.781757116E-1,-3.824299276E-1,7.243798375E-1
1.222351074E0,-7.643272281E-1,-3.286340833E-1,7.281082273E-1
1.224304199E0,-7.536746264E-1,-2.759034932E-1,7.302387953E-1
1.226318359E0,-7.355651259E-1,-2.295644879E-1,7.259777188E-1
1.228302002E0,-7.158577442E-1,-1.869539171E-1,7.195861340E-1
1.230316162E0,-7.025418878E-1,-1.464738697E-1,7.137271762E-1
1.232299805E0,-6.854977012E-1,-1.065264493E-1,7.030745149E-1
1.234313965E0,-6.743124127E-1,-6.924218684E-2,6.902913451E-1
1.236297607E0,-6.652576327E-1,-3.994741663E-2,6.748450398E-1
1.238311768E0,-6.588660479E-1,-1.864212751E-2,6.567355394E-1
1.240295410E0,-6.572681665E-1,-1.118527725E-2,6.311691999E-1
1.242340088E0,-6.562029123E-1,-1.331580617E-2,5.965480804E-1
1.244293213E0,-6.578007936E-1,-3.781688958E-2,5.576659441E-1
1.246307373E0,-6.652576327E-1,-9.054747969E-2,5.134574771E-1
1.248291016E0,-6.780408025E-1,-1.656486243E-1,4.665858448E-1
1.250305176E0,-6.908239722E-1,-2.705771625E-1,4.245078862E-1
1.252288818E0,-7.046724558E-1,-3.962783813E-1,3.845604658E-1
1.254302979E0,-7.137271762E-1,-5.299690962E-1,3.392867148E-1
1.256286621E0,-7.195861340E-1,-6.801713705E-1,3.062635362E-1
1.258300781E0,-7.169229984E-1,-8.293083906E-1,2.705771625E-1
1.260284424E0,-7.046724558E-1,-9.741843343E-1,2.348908186E-1
1.262298584E0,-6.892260909E-1,-1.107342362E0,2.018676102E-1
1.264282227E0,-6.647250056E-1,-1.224521518E0,1.656486243E-1
1.266265869E0,-6.338323355E-1,-1.331047893E0,1.379517466E-1
1.268280029E0,-5.981460214E-1,-1.422660708E0,1.097222418E-1
1.270263672E0,-5.566006899E-1,-1.506816626E0,9.267801046E-2
1.272277832E0,-5.155879855E-1,-1.582450390E0,7.616640627E-2
1.274261475E0,-4.767058492E-1,-1.644235730E0,6.551376730E-2
1.276275635E0,-4.372910559E-1,-1.703357816E0,6.231797114E-2
1.278259277E0,-4.021373391E-1,-1.755023241E0,6.178534031E-2
1.280273437E0,-3.685815036E-1,-1.805623293E0,6.764429063E-2
1.282287598E0,-3.344930410E-1,-1.853027463E0,6.817692518E-2
1.284271240E0,-3.020024598E-1,-1.899899125E0,7.350324839E-2
1.286254883E0,-2.700445354E-1,-1.934520245E0,7.616640627E-2
1.288269043E0,-2.380866110E-1,-1.953162432E0,8.255799860E-2
1.290252686E0,-2.119876295E-1,-1.961684465E0,9.214537591E-2
1.292266846E0,-1.810949594E-1,-1.960086584E0,1.065264493E-1
1.294250488E0,-1.507349163E-1,-1.947303414E0,1.107875034E-1
1.296264648E0,-1.272991002E-1,-1.915345550E0,1.081243455E-1
1.298248291E0,-1.043959185E-1,-1.871669650E0,1.012001261E-1
1.300262451E0,-9.161274135E-2,-1.835450649E0,1.038632840E-1
1.302276611E0,-7.350324839E-2,-1.798166394E0,1.219727769E-1
1.304260254E0,-6.231797114E-2,-1.757686377E0,1.368864775E-1
1.306243896E0,-5.432848632E-2,-1.704955816E0,1.480717659E-1
1.308258057E0,-4.633900523E-2,-1.644768357E0,1.470064968E-1
1.310241699E0,-4.527373984E-2,-1.584048271E0,1.358212233E-1
1.312255859E0,-4.846953228E-2,-1.516936541E0,1.315601617E-1
1.314239502E0,-5.166532472E-2,-1.455683827E0,1.331580579E-1
1.316253662E0,-5.752427876E-2,-1.394431114E0,1.352885813E-1
1.318237305E0,-6.764429063E-2,-1.335841656E0,1.454086006E-1
1.320251465E0,-7.669904083E-2,-1.271393180E0,1.555286050E-1
1.322265625E0,-8.735168725E-2,-1.219727755E0,1.693770438E-1
1.324249268E0,-1.054611802E-1,-1.169127703E0,1.768338978E-1
1.326232910E0,-1.139832959E-1,-1.123321414E0,1.848233789E-1
1.328247070E0,-1.182443574E-1,-1.084439158E0,1.874865443E-1
1.330230713E0,-1.225054115E-1,-1.054079175E0,1.896170676E-1
1.332244873E0,-1.155811921E-1,-1.026914954E0,1.981391907E-1
1.334228516E0,-1.059938148E-1,-9.992180467E-1,2.071939409E-1
1.336242676E0,-8.735168725E-2,-9.683253765E-1,2.167813182E-1
1.338226318E0,-5.912217870E-2,-9.464874864E-1,2.263686955E-1
1.340240479E0,-2.503371425E-2,-9.384979606E-1,2.380866110E-1
1.342254639E0,2.450108156E-2,-9.395632744E-1,2.556634545E-1
1.344207764E0,8.575379103E-2,-9.443569183E-1,2.748382390E-1
1.346221924E0,1.491370201E-1,-9.443569183E-1,2.934803665E-1
1.348205566E0,2.146507949E-1,-9.432916641E-1,3.105245829E-1
1.350219727E0,2.780340314E-1,-9.384979606E-1,3.211772442E-1
1.352203369E0,3.403519988E-1,-9.310411215E-1,3.259709179E-1
1.354187012E0,4.021373391E-1,-9.123989940E-1,3.302319944E-1
1.356170654E0,4.591289759E-1,-8.905611038E-1,3.291667104E-1
1.358184814E0,5.145227313E-1,-8.612663150E-1,3.286340833E-1
1.360168457E0,5.651227832E-1,-8.271778226E-1,3.238403797E-1
1.362213135E0,6.050702333E-1,-7.850999236E-1,3.211772442E-1
1.364166260E0,6.450176239E-1,-7.403587699E-1,3.137203753E-1
1.366180420E0,6.764429212E-1,-6.892260909E-1,3.057309091E-1
1.368164062E0,7.036072016E-1,-6.428871155E-1,2.950782478E-1
1.370178223E0,7.233145833E-1,-5.954828262E-1,2.897519469E-1
1.372161865E0,7.387608886E-1,-5.448827744E-1,2.870887816E-1
1.374176025E0,7.504788041E-1,-5.038700700E-1,2.854908705E-1
1.376159668E0,7.558051348E-1,-4.671184719E-1,2.870887816E-1
1.378173828E0,7.547398806E-1,-4.319647253E-1,2.902845740E-1
1.380157471E0,7.462177277E-1,-4.053331316E-1,2.977414131E-1
1.382202148E0,7.408914566E-1,-3.776362538E-1,3.094593287E-1
1.384155273E0,7.318366766E-1,-3.547330499E-1,3.153182864E-1
1.386169434E0,7.174556255E-1,-3.318298757E-1,3.270362020E-1
1.388153076E0,7.041398287E-1,-3.137203753E-1,3.446130455E-1
1.390167236E0,6.924219131E-1,-2.956108749E-1,3.573962152E-1
1.392150879E0,6.807039976E-1,-2.817624509E-1,3.755057156E-1
1.394165039E0,6.684534550E-1,-2.737729549E-1,3.941478431E-1
1.396148682E0,6.524744630E-1,-2.711097896E-1,4.101268053E-1
1.398162842E0,6.455502510E-1,-2.796319127E-1,4.277036786E-1
1.400146484E0,6.290386319E-1,-2.897519469E-1,4.511395097E-1
1.402191162E0,6.167881489E-1,-3.036003709E-1,4.761732221E-1
1.404144287E0,6.013417840E-1,-3.206445873E-1,5.033374429E-1
1.406158447E0,5.885586143E-1,-3.366235793E-1,5.342301130E-1
1.408142090E0,5.736449361E-1,-3.557983339E-1,5.677859783E-1
1.410156250E0,5.597964525E-1,-3.717772961E-1,5.992112756E-1
1.412139893E0,5.528722405E-1,-3.893541694E-1,6.343649626E-1
1.414154053E0,5.416869521E-1,-4.074636400E-1,6.668555737E-1
1.416168213E0,5.379585624E-1,-4.213120937E-1,7.025418878E-1
1.418151855E0,5.331648588E-1,-4.394215941E-1,7.334345579E-1
1.420135498E0,5.267732739E-1,-4.580637217E-1,7.675230503E-1
1.422149658E0,5.262406468E-1,-4.814995229E-1,7.978830934E-1
1.424133301E0,5.278385282E-1,-5.065332651E-1,8.309062719E-1
1.426116943E0,5.289037824E-1,-5.390238166E-1,8.575378656E-1
1.428131104E0,5.320996046E-1,-5.725796223E-1,8.820389509E-1
1.430114746E0,5.342301130E-1,-6.135923266E-1,8.969526887E-1
1.432098389E0,5.395564437E-1,-6.572681665E-1,9.129316211E-1
1.434082031E0,5.427522659E-1,-7.057377100E-1,9.267801046E-1
1.436096191E0,5.502091050E-1,-7.584682703E-1,9.347695708E-1
1.438079834E0,5.528722405E-1,-8.159925938E-1,9.369000793E-1
1.440063477E0,5.571333170E-1,-8.777779341E-1,9.384979606E-1
1.442077637E0,5.613943934E-1,-9.443569183E-1,9.374327064E-1
1.444061279E0,5.640575290E-1,-1.012533903E0,9.283779860E-1
1.446044922E0,5.661880374E-1,-1.080178142E0,9.177253246E-1
1.448059082E0,5.635249019E-1,-1.144093990E0,9.006810784E-1
1.450042725E0,5.651227832E-1,-1.212803602E0,8.799084425E-1
1.452056885E0,5.635249019E-1,-1.274588943E0,8.559399843E-1
1.454040527E0,5.608617067E-1,-1.331580520E0,8.282431364E-1
1.456054687E0,5.550028086E-1,-1.372593284E0,8.000136018E-1
1.458038330E0,5.459480286E-1,-1.412008047E0,7.728493810E-1
1.460052490E0,5.336974859E-1,-1.440770149E0,7.414240837E-1
1.462066650E0,5.129248500E-1,-1.459412336E0,7.147924304E-1
1.464050293E0,4.948153496E-1,-1.465803862E0,6.918892860E-1
1.466033936E0,4.740426838E-1,-1.468466997E0,6.700513363E-1
1.468048096E0,4.431500137E-1,-1.464205980E0,6.460828781E-1
1.470031738E0,4.122573435E-1,-1.449824929E0,6.253102422E-1
1.472045898E0,3.781688809E-1,-1.430117488E0,6.029396653E-1
1.474029541E0,3.456783295E-1,-1.404551148E0,5.826996565E-1
1.476043701E0,3.094593287E-1,-1.364071131E0,5.587311983E-1
1.478027344E0,2.732403278E-1,-1.328384757E0,5.347627401E-1
1.480010986E0,2.364887148E-1,-1.283643723E0,5.134574771E-1
1.482025146E0,1.986718178E-1,-1.244228840E0,4.958806038E-1
1.484008789E0,1.635181010E-1,-1.198422551E0,4.767058492E-1
1.485992432E0,1.315601617E-1,-1.155279279E0,4.543353021E-1
1.488006592E0,1.038632840E-1,-1.107342362E0,4.324973822E-1
1.489990234E0,7.829693705E-2,-1.064731836E0,4.090615511E-1
1.492004395E0,5.432848632E-2,-1.023719192E0,3.829625845E-1
1.493988037E0,4.048004746E-2,-9.906959534E-1,3.589941263E-1
1.496002197E0,2.716424316E-2,-9.645969868E-1,3.307646215E-1
1.497985840E0,1.704423130E-2,-9.432916641E-1,2.993393242E-1
1.500000000E0,1.225054078E-2,-9.353021979E-1,2.663161159E-1
1.502014160E0,1.331580617E-2,-9.294432402E-1,2.247707993E-1
1.503967285E0,1.278317347E-2,-9.326390028E-1,1.832254827E-1
1.505950928E0,1.384843793E-2,-9.438242912E-1,1.475391239E-1
1.507934570E0,1.651159860E-2,-9.624664187E-1,1.107875034E-1
1.509948730E0,1.544633508E-2,-9.869675040E-1,7.350324839E-2
1.511932373E0,1.864212751E-2,-1.006674886E0,4.207794741E-2
1.513916016E0,2.663161233E-2,-1.021588564E0,7.989482954E-3
1.515899658E0,3.142530099E-2,-1.034904361E0,-2.450108156E-2
1.517883301E0,3.195793182E-2,-1.045557022E0,-5.326322466E-2
1.519866943E0,3.408846259E-2,-1.050883412E0,-8.575379103E-2
1.521911621E0,3.568635881E-2,-1.048752904E0,-1.155811921E-1
1.523864746E0,3.568635881E-2,-1.044491768E0,-1.406149119E-1
1.525878906E0,3.462109342E-2,-1.032241225E0,-1.667138934E-1
1.527862549E0,3.355583176E-2,-1.015197039E0,-1.922802329E-1
1.529876709E0,2.982740477E-2,-9.970875382E-1,-2.146507949E-1
1.531860352E0,2.396845073E-2,-9.768475294E-1,-2.306297570E-1
1.533874512E0,1.757686399E-2,-9.566074610E-1,-2.460760921E-1
1.535858154E0,1.225054078E-2,-9.315737486E-1,-2.604571581E-1
1.537841797E0,6.924218964E-3,-9.118663669E-1,-2.689792812E-1
1.539825439E0,0.000000000E0,-8.894958496E-1,-2.732403278E-1
1.541839600E0,-6.391586736E-3,-8.708537221E-1,-2.790992856E-1
1.543792725E0,-1.171790902E-2,-8.495483994E-1,-2.790992856E-1
1.545806885E0,-1.438106969E-2,-8.346347213E-1,-2.769687474E-1
1.547790527E0,-1.278317347E-2,-8.143946528E-1,-2.775014043E-1
1.549804687E0,-1.491370238E-2,-7.946872711E-1,-2.732403278E-1
1.551788330E0,-1.491370238E-2,-7.749798894E-1,-2.647182047E-1
1.553802490E0,-1.438106969E-2,-7.595335841E-1,-2.668487430E-1
1.555786133E0,-8.522115648E-3,-7.376956344E-1,-2.673813701E-1
1.557800293E0,-2.130528912E-3,-7.169229984E-1,-2.657834888E-1
1.559783936E0,6.924218964E-3,-6.844323874E-1,-2.647182047E-1
1.561828613E0,1.225054078E-2,-6.593986750E-1,-2.689792812E-1
1.563781738E0,2.024002373E-2,-6.199839115E-1,-2.748382390E-1
1.565795898E0,2.450108156E-2,-5.826996565E-1,-2.812298238E-1
1.567779541E0,2.450108156E-2,-5.395564437E-1,-2.892192900E-1
1.569793701E0,2.663161233E-2,-4.905542731E-1,-3.004045784E-1
1.571777344E0,2.183792181E-2,-4.372910559E-1,-3.073287904E-1
1.573791504E0,2.290318534E-2,-3.850930929E-1,-3.179814517E-1
1.575775146E0,1.704423130E-2,-3.281014562E-1,-3.243730366E-1
1.577789307E0,1.438106969E-2,-2.673813701E-1,-3.355582952E-1
1.579772949E0,7.456851192E-3,-2.045307755E-1,-3.462109566E-1
1.581787109E0,6.391586736E-3,-1.384843737E-1,-3.573962152E-1
1.583770752E0,-5.326322280E-4,-7.403588295E-2,-3.675162494E-1
1.585754395E0,-9.054748341E-3,-1.810949668E-2,-3.792341352E-1
1.587738037E0,-1.704423130E-2,4.101268202E-2,-3.962783813E-1
1.589721680E0,-2.929477207E-2,8.309062570E-2,-4.159857631E-1
1.591705322E0,-4.367584363E-2,1.230380461E-1,-4.346278906E-1
1.593688965E0,-6.125270575E-2,1.640507281E-1,-4.548679292E-1
1.595703125E0,-8.415589482E-2,2.002697140E-1,-4.788363874E-1
1.597686768E0,-1.070590764E-1,2.306297570E-1,-5.001416802E-1
1.599670410E0,-1.400822699E-1,2.609897852E-1,-5.235774517E-1
1.601684570E0,-1.672465205E-1,2.929477394E-1,-5.464806557E-1
1.603668213E0,-2.029328793E-1,3.158509135E-1,-5.688512325E-1
1.605651855E0,-2.407497615E-1,3.339604139E-1,-5.938849449E-1
1.607666016E0,-2.822950780E-1,3.547330499E-1,-6.226470470E-1
1.609649658E0,-3.265035450E-1,3.696467578E-1,-6.498113275E-1
1.611663818E0,-3.696467578E-1,3.872236311E-1,-6.849650741E-1
1.613647461E0,-4.165183902E-1,4.032025933E-1,-7.206513882E-1
1.615661621E0,-4.564658105E-1,4.213120937E-1,-7.584682703E-1
1.617645264E0,-5.006743073E-1,4.404868484E-1,-7.952198982E-1
1.619659424E0,-5.438175201E-1,4.628573954E-1,-8.372978568E-1
1.621673584E0,-5.858954787E-1,4.884237647E-1,-8.815063238E-1
1.623657227E0,-6.269081235E-1,5.171858668E-1,-9.203884602E-1
1.625640869E0,-6.732471585E-1,5.475459099E-1,-9.619337916E-1
1.627655029E0,-7.142598033E-1,5.789712071E-1,-9.997506738E-1
1.629638672E0,-7.574030161E-1,6.050702333E-1,-1.034904361E0
1.631652832E0,-8.005462289E-1,6.263754964E-1,-1.059405446E0
1.633636475E0,-8.410263062E-1,6.412891746E-1,-1.078047633E0
1.635650635E0,-8.788431883E-1,6.455502510E-1,-1.088700294E0
1.637634277E0,-9.070726633E-1,6.444849968E-1,-1.080178142E0
1.639648437E0,-9.379653335E-1,6.343649626E-1,-1.057807565E0
1.641662598E0,-9.635316730E-1,6.183860302E-1,-1.020523310E0
1.643646240E0,-9.864348769E-1,6.050702333E-1,-9.725864530E-1
1.645629883E0,-1.007740140E0,5.816344023E-1,-9.145295620E-1
1.647644043E0,-1.030110717E0,5.640575290E-1,-8.516789079E-1
1.649627686E0,-1.049818158E0,5.443501472E-1,-7.877630591E-1
1.651641846E0,-1.066862345E0,5.305017233E-1,-7.270429730E-1
1.653625488E0,-1.084439158E0,5.150553584E-1,-6.764429212E-1
1.655639648E0,-1.104679227E0,5.044026971E-1,-6.375607848E-1
1.657623291E0,-1.119060278E0,4.996090233E-1,-6.125270724E-1
1.659637451E0,-1.136104584E0,5.033374429E-1,-5.954828262E-1
1.661651611E0,-1.148355126E0,5.097290277E-1,-5.906891227E-1
1.663604736E0,-1.151550889E0,5.171858668E-1,-5.928196907E-1
1.665618896E0,-1.151018262E0,5.214469433E-1,-5.933523178E-1
1.667602539E0,-1.148887753E0,5.310343504E-1,-5.949501991E-1
1.669616699E0,-1.138767719E0,5.422195792E-1,-5.981460214E-1
1.671600342E0,-1.120658159E0,5.576659441E-1,-5.938849449E-1
1.673583984E0,-1.094559193E0,5.736449361E-1,-5.912217498E-1
1.675567627E0,-1.065797091E0,5.944175720E-1,-5.811017752E-1
1.677581787E0,-1.029578090E0,6.119944453E-1,-5.725796223E-1
1.679565430E0,-9.912285805E-1,6.242449880E-1,-5.597964525E-1
1.681579590E0,-9.512811303E-1,6.327670813E-1,-5.512743592E-1
1.683532715E0,-9.070726633E-1,6.423544884E-1,-5.438175201E-1
1.685546875E0,-8.596684337E-1,6.556702852E-1,-5.390238166E-1
1.687530518E0,-8.159925938E-1,6.737797856E-1,-5.315669775E-1
1.689544678E0,-7.733820081E-1,7.073355913E-1,-5.326322317E-1
1.691528320E0,-7.297061682E-1,7.313040495E-1,-5.379585624E-1
1.693542480E0,-6.956176758E-1,7.499461770E-1,-5.555354357E-1
1.695526123E0,-6.700513363E-1,7.611314654E-1,-5.704491138E-1
1.697540283E0,-6.567355394E-1,7.712514400E-1,-5.869607329E-1
1.699523926E0,-6.487460732E-1,7.936220169E-1,-6.002765298E-1
1.701568604E0,-6.567355394E-1,8.005462289E-1,-6.061354876E-1
1.703521729E0,-6.695187092E-1,7.962851524E-1,-6.040049195E-1
1.705535889E0,-6.929545403E-1,7.946872711E-1,-6.034722924E-1
1.707519531E0,-7.233145833E-1,7.819041014E-1,-6.040049195E-1
1.709533691E0,-7.520766854E-1,7.627293468E-1,-6.056028605E-1
1.711517334E0,-7.819041014E-1,7.414240837E-1,-6.119944453E-1
1.713531494E0,-8.069378138E-1,7.227819562E-1,-6.274407506E-1
1.715515137E0,-8.293083906E-1,7.052050829E-1,-6.466155052E-1
1.717529297E0,-8.506136537E-1,6.716492176E-1,-6.657902598E-1
1.719512939E0,-8.809736967E-1,6.322344542E-1,-6.849650741E-1
1.721557617E0,-9.198558331E-1,5.853627920E-1,-7.036072016E-1
1.723510742E0,-9.619337916E-1,5.305017233E-1,-7.217166424E-1
1.725524902E0,-9.960222840E-1,4.767058492E-1,-7.286409140E-1
1.727508545E0,-1.023186564E0,4.111920893E-1,-7.169229984E-1
1.729522705E0,-1.052481294E0,3.520699143E-1,-6.972155571E-1
1.731506348E0,-1.086037159E0,2.918824553E-1,-6.663229465E-1
1.733520508E0,-1.117995024E0,2.279665917E-1,-6.237123609E-1
1.735504150E0,-1.151550889E0,1.704423130E-1,-5.811017752E-1
1.737487793E0,-1.187237263E0,1.107875034E-1,-5.379585624E-1
1.739471436E0,-1.224521518E0,6.498113275E-2,-4.974785149E-1
1.741516113E0,-1.258610010E0,3.036003746E-2,-4.564658105E-1
1.743469238E0,-1.299090028E0,2.130528912E-3,-4.170510471E-1
1.745452881E0,-1.333711147E0,-7.989482954E-3,-3.861583769E-1
1.747436523E0,-1.373125911E0,-1.331580617E-2,-3.557983339E-1
1.749420166E0,-1.408812284E0,-1.012001187E-2,-3.243730366E-1
1.751403809E0,-1.446096539E0,5.326322280E-3,-3.083940744E-1
1.753387451E0,-1.480717540E0,3.462109342E-2,-2.865561247E-1
1.755371094E0,-1.516403913E0,7.137271762E-2,-2.705771625E-1
1.757354736E0,-1.543568254E0,1.267664731E-1,-2.604571581E-1
1.759368896E0,-1.574993491E0,1.837581247E-1,-2.551308274E-1
1.761383057E0,-1.603755593E0,2.455434501E-1,-2.434129268E-1
1.763366699E0,-1.633050442E0,3.078614175E-1,-2.290318608E-1
1.765350342E0,-1.665540934E0,3.675162494E-1,-2.178465873E-1
1.767364502E0,-1.703357816E0,4.202468395E-1,-2.061286718E-1
1.769348145E0,-1.752892613E0,4.644553065E-1,-2.018676102E-1
1.771362305E0,-1.799764276E0,4.948153496E-1,-1.997370869E-1
1.773345947E0,-1.835983276E0,5.145227313E-1,-2.061286718E-1
1.775360107E0,-1.863147497E0,5.305017233E-1,-2.221076339E-1
1.777343750E0,-1.883920193E0,5.464806557E-1,-2.412824035E-1
1.779357910E0,-1.909486532E0,5.603290796E-1,-2.588592768E-1
1.781372070E0,-1.939846516E0,5.800365210E-1,-2.721750736E-1
1.783355713E0,-1.973402381E0,5.986786485E-1,-2.790992856E-1
1.785339355E0,-2.011219263E0,6.103965044E-1,-2.902845740E-1
1.787353516E0,-2.050634146E0,6.045376062E-1,-3.036003709E-1
1.789337158E0,-2.094309807E0,5.928196907E-1,-3.201119602E-1
1.791351318E0,-2.134789944E0,5.800365210E-1,-3.430151641E-1
1.793334961E0,-2.165682554E0,5.656554103E-1,-3.675162494E-1
1.795349121E0,-2.194977522E0,5.507417321E-1,-3.925499618E-1
1.797332764E0,-2.214684725E0,5.299690962E-1,-4.223773479E-1
1.799346924E0,-2.235990047E0,4.942827225E-1,-4.633900523E-1
1.801361084E0,-2.246110201E0,4.655205607E-1,-4.889563918E-1
1.803344727E0,-2.250903845E0,4.277036786E-1,-5.129248500E-1
1.805328369E0,-2.253034353E0,3.872236311E-1,-5.294364095E-1
1.807342529E0,-2.248240709E0,3.467435837E-1,-5.454154015E-1
1.809326172E0,-2.237055302E0,3.094593287E-1,-5.566006899E-1
1.811340332E0,-2.217880487E0,2.668487430E-1,-5.693838596E-1
1.813323975E0,-2.191248894E0,2.348908186E-1,-5.917543769E-1
1.815368652E0,-2.153964758E0,2.093244642E-1,-6.098638773E-1
1.817321777E0,-2.111354113E0,1.949433982E-1,-6.327670813E-1
1.819305420E0,-2.064482450E0,1.896170676E-1,-6.567355394E-1
1.821319580E0,-2.010686636E0,1.944107562E-1,-6.785734296E-1
1.823303223E0,-1.947303414E0,2.082591951E-1,-7.025418878E-1
1.825286865E0,-1.874332786E0,2.327602804E-1,-7.249124646E-1
1.827301025E0,-1.801362157E0,2.620550692E-1,-7.472830415E-1
1.829284668E0,-1.719869494E0,2.966761589E-1,-7.659251690E-1
1.831298828E0,-1.639974594E0,3.334277868E-1,-7.701861858E-1
1.833282471E0,-1.563275576E0,3.744404614E-1,-7.680556774E-1
1.835296631E0,-1.480184913E0,4.197141826E-1,-7.568703890E-1
1.837280273E0,-1.400290132E0,4.761732221E-1,-7.419567108E-1
1.839294434E0,-1.319329977E0,5.395564437E-1,-7.270429730E-1
1.841308594E0,-1.232510924E0,6.103965044E-1,-7.147924304E-1
1.843292236E0,-1.144626617E0,6.838997602E-1,-7.089334726E-1
1.845245361E0,-1.057274938E0,7.536746264E-1,-7.004113793E-1
1.847229004E0,-9.693906307E-1,8.255799413E-1,-6.940197945E-1
1.849212646E0,-8.836368918E-1,8.926916122E-1,-6.886934638E-1
1.851196289E0,-7.936220169E-1,9.598032832E-1,-6.796387434E-1
1.853179932E0,-7.478156686E-1,9.906959534E-1,-6.796387434E-1
1.855163574E0,-6.578007936E-1,1.048220277E0,-6.812366247E-1
1.857147217E0,-5.704491138E-1,1.095091820E0,-6.838997602E-1
1.859130859E0,-4.857605994E-1,1.136637211E0,-6.865629554E-1
1.861145020E0,-4.069310129E-1,1.165399313E0,-6.881608367E-1
1.863098145E0,-3.334277868E-1,1.188302517E0,-6.870955825E-1
1.865112305E0,-2.647182047E-1,1.198422551E0,-6.913566589E-1
1.867095947E0,-1.954760253E-1,1.197889924E0,-6.961503029E-1
1.869110107E0,-1.272991002E-1,1.191498280E0,-7.014766335E-1
1.871093750E0,-6.817692518E-2,1.180312991E0,-7.110640407E-1
1.873107910E0,-4.793690052E-3,1.158475041E0,-7.179882526E-1
1.875091553E0,5.219795927E-2,1.127049804E0,-7.211840153E-1
1.877105713E0,1.065264493E-1,1.094559193E0,-7.211840153E-1
1.879089355E0,1.502022892E-1,1.056209683E0,-7.190535069E-1
1.881134033E0,2.082591951E-1,1.000815988E0,-7.062703371E-1
1.883087158E0,2.221076339E-1,9.832391143E-1,-7.030745149E-1
1.885101318E0,2.482066154E-1,9.518138170E-1,-6.918892860E-1
1.887084961E0,2.721750736E-1,9.113337398E-1,-6.684534550E-1
1.889099121E0,2.790992856E-1,8.894958496E-1,-6.535397172E-1
1.891082764E0,2.844256163E-1,8.697884083E-1,-6.407565475E-1
1.893096924E0,2.796319127E-1,8.500810266E-1,-6.301039457E-1
1.895080566E0,2.759034932E-1,8.303736448E-1,-6.162554622E-1
1.897094727E0,2.625876963E-1,8.159925938E-1,-6.077333689E-1
1.899078369E0,2.503371537E-1,8.000136018E-1,-5.997439027E-1
1.901092529E0,2.290318608E-1,7.813714743E-1,-5.906891227E-1
1.903076172E0,2.029328793E-1,7.584682703E-1,-5.821670294E-1
1.905059814E0,1.763012707E-1,7.350324988E-1,-5.731122494E-1
1.907073975E0,1.448759735E-1,7.062703371E-1,-5.661880374E-1
1.909057617E0,1.123853996E-1,6.775081754E-1,-5.608617067E-1
1.911041260E0,7.829693705E-2,6.476807594E-1,-5.523396134E-1
1.913024902E0,3.249056637E-2,6.130596995E-1,-5.443501472E-1
1.915039062E0,-1.278317347E-2,5.757754445E-1,-5.384911895E-1
1.917022705E0,-5.965480953E-2,5.406216979E-1,-5.299690962E-1
1.919006348E0,-1.059938148E-1,4.996090233E-1,-5.267732739E-1
1.921020508E0,-1.523328125E-1,4.639226794E-1,-5.171858668E-1
1.923004150E0,-1.976065636E-1,4.223773479E-1,-5.097290277E-1
1.924987793E0,-2.423476577E-1,3.850930929E-1,-4.942827225E-1
1.927001953E0,-2.844256163E-1,3.483414650E-1,-4.825648069E-1
1.928985596E0,-3.206445873E-1,3.185140789E-1,-4.687163532E-1
1.930999756E0,-3.504720032E-1,2.854908705E-1,-4.585963488E-1
1.932983398E0,-3.749730885E-1,2.577939928E-1,-4.458131790E-1
1.934997559E0,-3.978762627E-1,2.338255495E-1,-4.319647253E-1
1.936981201E0,-4.117247164E-1,2.114549875E-1,-4.170510471E-1
1.938964844E0,-4.175836742E-1,1.864212751E-1,-4.079962969E-1
1.940979004E0,-4.223773479E-1,1.667138934E-1,-3.888215125E-1
1.942962646E0,-4.175836742E-1,1.448759735E-1,-3.771036267E-1
1.944946289E0,-4.058657587E-1,1.246359423E-1,-3.589941263E-1
1.946960449E0,-3.914846778E-1,1.027980223E-1,-3.424825370E-1
1.948944092E0,-3.701793849E-1,7.989483327E-2,-3.227751255E-1
1.950958252E0,-3.483414650E-1,5.752427876E-2,-3.046656251E-1
1.952941895E0,-3.259709179E-1,3.249056637E-2,-2.838929892E-1
1.954956055E0,-2.982740402E-1,3.728425596E-3,-2.615224123E-1
1.956939697E0,-2.684466541E-1,-1.278317347E-2,-2.391518652E-1
1.958953857E0,-2.471413612E-1,-3.675162420E-2,-2.157160491E-1
1.960968018E0,-2.215750068E-1,-6.178534031E-2,-1.944107562E-1
1.962951660E0,-1.970739216E-1,-8.309062570E-2,-1.709749401E-1
1.964935303E0,-1.704423130E-1,-1.059938148E-1,-1.486043930E-1
1.966949463E0,-1.448759735E-1,-1.267664731E-1,-1.230380461E-1
1.968933105E0,-1.161138266E-1,-1.491370201E-1,-1.006674916E-1
1.970947266E0,-9.906959534E-2,-1.736381054E-1,-8.042746782E-2
1.972930908E0,-7.190535218E-2,-1.970739216E-1,-5.486112088E-2
1.974945068E0,-5.219795927E-2,-2.242381722E-1,-3.675162420E-2
1.976928711E0,-3.355583176E-2,-2.524676621E-1,-1.544633508E-2
1.978942871E0,-1.597896591E-2,-2.806971967E-1,6.924218964E-3
1.980957031E0,-2.663161140E-3,-3.142530024E-1,2.663161233E-2
1.982910156E0,1.491370238E-2,-3.435477912E-1,5.006742850E-2
1.984924316E0,2.982740477E-2,-3.691141307E-1,6.924218684E-2
1.986907959E0,5.060006306E-2,-3.936152160E-1,9.001484513E-2
1.988922119E0,6.604639441E-2,-4.111920893E-1,1.107875034E-1
1.990905762E0,8.628641814E-2,-4.298342168E-1,1.326254308E-1
1.992919922E0,1.059938148E-1,-4.458131790E-1,1.539307088E-1
1.994903564E0,1.320927888E-1,-4.548679292E-1,1.773665249E-1
1.996917725E0,1.587243974E-1,-4.628573954E-1,1.981391907E-1
1.998901367E0,1.880191714E-1,-4.665858448E-1,2.215750068E-1
2.000946045E0,2.215750068E-1,-4.676510990E-1,2.402171344E-1
2.002899170E0,2.530003190E-1,-4.655205607E-1,2.593919039E-1
2.004913330E0,2.982740402E-1,-4.633900523E-1,2.822950780E-1
2.006896973E0,3.355582952E-1,-4.575310946E-1,3.030677438E-1
2.008911133E0,3.792341352E-1,-4.559331834E-1,3.249056637E-1
2.010894775E0,4.261057973E-1,-4.458131790E-1,3.456783295E-1
2.012908936E0,4.687163532E-1,-4.367584288E-1,3.632551730E-1
2.014892578E0,5.134574771E-1,-4.239752591E-1,3.802994192E-1
2.016906738E0,5.603290796E-1,-4.122573435E-1,3.909520507E-1
2.018890381E0,6.087986231E-1,-3.914846778E-1,4.032025933E-1
2.020935059E0,6.524744630E-1,-3.781688809E-1,4.095941782E-1
2.022888184E0,6.940197945E-1,-3.627225459E-1,4.143878818E-1
2.024902344E0,7.238472104E-1,-3.701793849E-1,4.122573435E-1
2.026885986E0,7.179882526E-1,-4.314320982E-1,3.904194236E-1
2.028900146E0,6.812366247E-1,-5.262406468E-1,3.669835925E-1
2.030883789E0,6.444849968E-1,-5.773733258E-1,3.659183383E-1
2.032897949E0,6.151902080E-1,-5.784385800E-1,3.893541694E-1
2.034881592E0,6.098638773E-1,-5.475459099E-1,4.266384244E-1
2.036895752E0,6.173207760E-1,-4.916195571E-1,4.601942301E-1
2.038879395E0,6.428871155E-1,-4.388889670E-1,4.868258536E-1
2.040924072E0,6.796387434E-1,-3.818973005E-1,4.980111420E-1
2.042877197E0,7.297061682E-1,-3.318298757E-1,5.033374429E-1
2.044891357E0,7.909588814E-1,-2.812298238E-1,4.985437691E-1
2.046875000E0,8.692557812E-1,-2.242381722E-1,4.852279723E-1
2.048889160E0,9.608685374E-1,-1.645833552E-1,4.729774296E-1
2.050872803E0,1.059405446E0,-1.081243455E-1,4.649879336E-1
2.052886963E0,1.159540415E0,-6.125270575E-2,4.617921412E-1
2.054870605E0,1.238369942E0,-5.219795927E-2,4.660531878E-1
2.056884766E0,1.290035248E0,-8.468852192E-2,4.681837261E-1
2.058868408E0,1.317199469E0,-1.454086006E-1,4.671184719E-1
2.060882568E0,1.316134214E0,-2.242381722E-1,4.676510990E-1
2.062866211E0,1.290567875E0,-3.195793331E-1,4.697816372E-1
2.064849854E0,1.249022603E0,-4.159857631E-1,4.767058492E-1
2.066864014E0,1.198422551E0,-4.932174385E-1,4.836300611E-1
2.068847656E0,1.137169838E0,-5.448827744E-1,4.921521842E-1
2.070861816E0,1.071655989E0,-5.736449361E-1,5.012069345E-1
2.072845459E0,1.004544377E0,-5.805691481E-1,5.091964006E-1
2.074859619E0,9.326390028E-1,-5.795038939E-1,5.161206126E-1
2.076843262E0,8.612663150E-1,-5.805691481E-1,5.166532397E-1
2.078857422E0,7.835019827E-1,-5.720469952E-1,5.203816891E-1
2.080871582E0,7.068029642E-1,-5.629922748E-1,5.150553584E-1
2.082855225E0,6.301039457E-1,-5.448827744E-1,5.139901042E-1
2.084838867E0,5.512743592E-1,-5.113269091E-1,5.129248500E-1
2.086853027E0,4.729774296E-1,-4.644553065E-1,5.054680109E-1
2.088836670E0,3.968110085E-1,-4.085289240E-1,4.969458580E-1
2.090850830E0,3.233077526E-1,-3.286340833E-1,4.942827225E-1
2.092834473E0,2.551308274E-1,-2.348908186E-1,4.894890189E-1
2.094848633E0,1.832254827E-1,-1.246359423E-1,4.820321798E-1
2.096832275E0,1.187769845E-1,-3.195793368E-3,4.772384763E-1
2.098846436E0,5.326322466E-2,1.267664731E-1,4.703142643E-1
2.100860596E0,-7.989482954E-3,2.663161159E-1,4.612595141E-1
2.102844238E0,-6.711166352E-2,4.021373391E-1,4.554005563E-1
2.104827881E0,-1.203748807E-1,5.400890708E-1,4.468784332E-1
2.106842041E0,-1.661812514E-1,6.823018789E-1,4.420847595E-1
2.108825684E0,-2.082591951E-1,8.218515515E-1,4.319647253E-1
2.110839844E0,-2.412824035E-1,9.512811303E-1,4.149205089E-1
2.112823486E0,-2.657834888E-1,1.076982379E0,3.994741738E-1
2.114837646E0,-2.833603323E-1,1.188835144E0,3.818973005E-1
2.116821289E0,-2.950782478E-1,1.288969994E0,3.621899188E-1
2.118835449E0,-2.956108749E-1,1.375789046E0,3.488741219E-1
2.120849609E0,-2.897519469E-1,1.453553319E0,3.424825370E-1
2.122833252E0,-2.769687474E-1,1.516936541E0,3.360909224E-1
2.124816895E0,-2.599245310E-1,1.567536592E0,3.387540877E-1
2.126831055E0,-2.332929224E-1,1.605353594E0,3.478088379E-1
2.128814697E0,-2.066612989E-1,1.635713577E0,3.573962152E-1
2.130828857E0,-1.747033745E-1,1.660214663E0,3.653857112E-1
2.132812500E0,-1.363538504E-1,1.680454731E0,3.739078343E-1
2.134826660E0,-1.006674916E-1,1.691107273E0,3.834952116E-1
2.136810303E0,-5.858954415E-2,1.694835782E0,3.904194236E-1
2.138824463E0,-1.438106969E-2,1.694303155E0,3.930825889E-1
2.140869141E0,3.036003746E-2,1.693770528E0,3.973436356E-1
2.142822266E0,7.456851006E-2,1.692705274E0,3.984089196E-1
2.144836426E0,1.203748807E-1,1.691107273E0,3.978762627E-1
2.146820068E0,1.635181010E-1,1.693237901E0,3.946804702E-1
2.148834229E0,2.061286718E-1,1.692705274E0,3.941478431E-1
2.150817871E0,2.476739883E-1,1.693237901E0,3.920173049E-1
2.152832031E0,2.902845740E-1,1.693237901E0,3.925499618E-1
2.154815674E0,3.275688291E-1,1.687911510E0,3.946804702E-1
2.156829834E0,3.680488765E-1,1.681519985E0,3.909520507E-1
2.158813477E0,4.048005044E-1,1.673530459E0,3.920173049E-1
2.160858154E0,4.420847595E-1,1.661279917E0,3.968110085E-1
2.162811279E0,4.751079381E-1,1.642105103E0,3.978762627E-1
2.164825439E0,5.118595958E-1,1.624528289E0,4.010720551E-1
2.166809082E0,5.432848930E-1,1.601625085E0,4.032025933E-1
2.168823242E0,5.731122494E-1,1.572862983E0,4.010720551E-1
2.170806885E0,6.018744111E-1,1.538774490E0,4.021373391E-1
2.172851562E0,6.279733777E-1,1.501490235E0,3.978762627E-1
2.174835205E0,6.434197426E-1,1.453020692E0,3.946804702E-1
2.176818848E0,6.519418359E-1,1.397626996E0,3.866910040E-1
2.178802490E0,6.498113275E-1,1.334776402E0,3.755057156E-1
2.180816650E0,6.423544884E-1,1.267132044E0,3.616572917E-1
2.182769775E0,6.301039457E-1,1.182443500E0,3.440804183E-1
2.184783936E0,6.077333689E-1,1.087635040E0,3.243730366E-1
2.186767578E0,5.832322836E-1,9.779127836E-1,3.020024598E-1
2.188781738E0,5.507417321E-1,8.372978568E-1,2.748382390E-1
2.190765381E0,5.139901042E-1,6.711165905E-1,2.423476577E-1
2.192779541E0,4.660531878E-1,4.772384763E-1,2.034655064E-1
2.194763184E0,4.207794666E-1,2.700445354E-1,1.581917703E-1
2.196777344E0,3.669835925E-1,6.018744037E-2,9.906959534E-2
2.198760986E0,3.179814517E-1,-1.374191195E-1,3.621899337E-2
2.200805664E0,2.711097896E-1,-2.998719513E-1,-2.343581803E-2
2.202758789E0,2.231729031E-1,-4.175836742E-1,-7.829693705E-2
2.204772949E0,1.816275865E-1,-4.900216460E-1,-1.193096191E-1
2.206756592E0,1.427454352E-1,-5.273059011E-1,-1.571265012E-1
2.208770752E0,1.198422536E-1,-5.283711553E-1,-1.842907518E-1
2.210754395E0,1.043959185E-1,-5.097290277E-1,-1.986718178E-1
2.212768555E0,1.086569726E-1,-4.767058492E-1,-2.002697140E-1
2.214782715E0,1.193096191E-1,-4.218447208E-1,-1.906823367E-1
2.216735840E0,1.438107044E-1,-3.701793849E-1,-1.592570394E-1
2.218719482E0,1.688444167E-1,-3.254382908E-1,-1.177117229E-1
2.220733643E0,1.997370869E-1,-2.796319127E-1,-6.498113275E-2
2.222717285E0,2.354234457E-1,-2.284992188E-1,-1.544633508E-2
2.224700928E0,2.748382390E-1,-1.784317940E-1,3.675162420E-2
2.226715088E0,3.238403797E-1,-1.225054115E-1,8.096009493E-2
2.228698730E0,3.627225459E-1,-7.350324839E-2,1.193096191E-1
2.230712891E0,4.032025933E-1,-3.408846259E-2,1.507349163E-1
2.232696533E0,4.468784332E-1,5.858954508E-3,1.773665249E-1
2.234710693E0,4.804342687E-1,4.101268202E-2,1.986718178E-1
2.236694336E0,5.155879855E-1,7.776430249E-2,2.242381722E-1
2.238708496E0,5.507417321E-1,1.145159304E-1,2.418150306E-1
2.240722656E0,5.858954787E-1,1.667138934E-1,2.625876963E-1
2.242706299E0,6.215817928E-1,2.269013226E-1,2.796319127E-1
2.244689941E0,6.609966159E-1,3.078614175E-1,3.078614175E-1
2.246704102E0,7.004113793E-1,4.181163013E-1,3.403519988E-1
2.248687744E0,7.483482957E-1,5.470132828E-1,3.776362538E-1
2.250701904E0,8.000136018E-1,6.870955825E-1,4.154531360E-1
2.252685547E0,8.516789079E-1,8.293083906E-1,4.516721368E-1
2.254699707E0,9.076052904E-1,9.747169614E-1,4.814995229E-1
2.256683350E0,9.587380290E-1,1.111070871E0,5.118595958E-1
2.258666992E0,1.013066530E0,1.238902569E0,5.342301130E-1
2.260681152E0,1.063133955E0,1.351820588E0,5.486112237E-1
2.262664795E0,1.109472990E0,1.453553319E0,5.576659441E-1
2.264648437E0,1.155279279E0,1.539307117E0,5.603290796E-1
2.266662598E0,1.201618314E0,1.618669391E0,5.581985712E-1
2.268646240E0,1.242630959E0,1.679389358E0,5.571333170E-1
2.270660400E0,1.284176350E0,1.725728393E0,5.539374948E-1
2.272644043E0,1.324656367E0,1.758751631E0,5.427522659E-1
2.274658203E0,1.363538504E0,1.774730563E0,5.352953672E-1
2.276641846E0,1.400290132E0,1.768871665E0,5.187838078E-1
2.278656006E0,1.429052234E0,1.749696851E0,5.097290277E-1
2.280670166E0,1.458879709E0,1.711347342E0,4.964132309E-1
2.282653809E0,1.483380795E0,1.660747290E0,4.862932265E-1
2.284637451E0,1.502555490E0,1.598429322E0,4.783037305E-1
2.286651611E0,1.518534541E0,1.523860812E0,4.713795185E-1
2.288635254E0,1.534513474E0,1.437574387E0,4.671184719E-1
2.290649414E0,1.539839745E0,1.360342741E0,4.564658105E-1
2.292633057E0,1.547296643E0,1.287904739E0,4.484763443E-1
2.294647217E0,1.551557660E0,1.213336229E0,4.388889670E-1
2.296630859E0,1.546764016E0,1.137702465E0,4.351605177E-1
2.298645020E0,1.546764016E0,1.044491768E0,4.330300093E-1
2.300689697E0,1.543568254E0,9.299758673E-1,4.330300093E-1
2.302642822E0,1.535578728E0,8.069378138E-1,4.399542212E-1
2.304656982E0,1.531317711E0,6.929545403E-1,4.399542212E-1
2.306640625E0,1.529187083E0,5.928196907E-1,4.415521026E-1
2.308654785E0,1.525458694E0,4.905542731E-1,4.431500137E-1
2.310638428E0,1.519599795E0,3.909520507E-1,4.468784332E-1
2.312652588E0,1.518001795E0,2.897519469E-1,4.500742257E-1
2.314636230E0,1.504685998E0,1.880191714E-1,4.569984376E-1
2.316650391E0,1.502022862E0,8.309062570E-2,4.623247683E-1
2.318634033E0,1.490837574E0,-1.651159860E-2,4.681837261E-1
2.320648193E0,1.481782913E0,-1.155811921E-1,4.724447727E-1
2.322601318E0,1.469532371E0,-2.130528986E-1,4.745753109E-1
2.324615479E0,1.461542845E0,-3.057309091E-1,4.788363874E-1
2.326599121E0,1.451422811E0,-3.909520507E-1,4.830974340E-1
2.328613281E0,1.442900658E0,-4.729774296E-1,4.836300611E-1
2.330596924E0,1.439704895E0,-5.294364095E-1,4.830974340E-1
2.332611084E0,1.438639641E0,-5.826996565E-1,4.820321798E-1
2.334594727E0,1.432248116E0,-6.327670813E-1,4.804342687E-1
2.336608887E0,1.416801691E0,-6.801713705E-1,4.825648069E-1
2.338592529E0,1.399757504E0,-7.206513882E-1,4.836300611E-1
2.340637207E0,1.369397402E0,-7.611314654E-1,4.926848114E-1
2.342590332E0,1.329982638E0,-8.058725595E-1,5.017395616E-1
2.344604492E0,1.293231010E0,-8.596684337E-1,5.155879855E-1
2.346588135E0,1.252218366E0,-9.294432402E-1,5.294364095E-1
2.348602295E0,1.208542466E0,-1.008805394E0,5.411543250E-1
2.350585937E0,1.168595076E0,-1.097222447E0,5.560680628E-1
2.352600098E0,1.125984550E0,-1.190433025E0,5.709817410E-1
2.354583740E0,1.086569786E0,-1.285241604E0,5.816344023E-1
2.356597900E0,1.045024395E0,-1.377386928E0,5.933523178E-1
2.358581543E0,1.001348615E0,-1.473793387E0,6.008091569E-1
2.360626221E0,9.555422068E-1,-1.562210321E0,6.034722924E-1
2.362579346E0,9.123989940E-1,-1.645833611E0,6.002765298E-1
2.364593506E0,8.676578999E-1,-1.720934749E0,5.954828262E-1
2.366577148E0,8.197209835E-1,-1.781654835E0,5.906891227E-1
2.368591309E0,7.739146352E-1,-1.835983276E0,5.757754445E-1
2.370574951E0,7.217166424E-1,-1.873800159E0,5.603290796E-1
2.372589111E0,6.641923785E-1,-1.899899125E0,5.336974859E-1
2.374572754E0,6.066681147E-1,-1.911617041E0,5.102616549E-1
2.376586914E0,5.454154015E-1,-1.898833871E0,4.820321798E-1
2.378570557E0,4.841626883E-1,-1.871669650E0,4.527373910E-1
2.380584717E0,4.223773479E-1,-1.824797988E0,4.218447208E-1
2.382568359E0,3.653857112E-1,-1.760882139E0,3.984089196E-1
2.384552002E0,3.142530024E-1,-1.684715748E0,3.845604658E-1
2.386566162E0,2.647182047E-1,-1.590972424E0,3.787015080E-1
2.388549805E0,2.221076339E-1,-1.502555490E0,3.845604658E-1
2.390563965E0,1.832254827E-1,-1.408279657E0,3.968110085E-1
2.392547607E0,1.443433315E-1,-1.322525859E0,4.207794666E-1
2.394531250E0,1.086569726E-1,-1.244228840E0,4.522047639E-1
2.396514893E0,7.297061384E-2,-1.167529821E0,4.830974340E-1
2.398529053E0,3.621899337E-2,-1.102016091E0,5.155879855E-1
2.400543213E0,7.456851192E-3,-1.039698124E0,5.443501472E-1
2.402526855E0,-1.757686399E-2,-9.800432920E-1,5.699164867E-1
2.404510498E0,-3.834952042E-2,-9.278453588E-1,5.869607329E-1
2.406524658E0,-5.699164793E-2,-8.825715780E-1,6.018744111E-1
2.408508301E0,-6.870955974E-2,-8.388957381E-1,6.093312502E-1
2.410522461E0,-7.776430249E-2,-8.080030680E-1,6.189186573E-1
2.412506104E0,-8.362326026E-2,-7.755125165E-1,6.231797338E-1
2.414520264E0,-8.522115648E-2,-7.526093125E-1,6.237123609E-1
2.416503906E0,-8.255799860E-2,-7.307714224E-1,6.237123609E-1
2.418518066E0,-7.989483327E-2,-7.142598033E-1,6.199839115E-1
2.420532227E0,-7.243798673E-2,-6.945524216E-1,6.130596995E-1
2.422515869E0,-7.190535218E-2,-6.854977012E-1,6.125270724E-1
2.424499512E0,-6.924218684E-2,-6.737797856E-1,6.056028605E-1
2.426513672E0,-7.243798673E-2,-6.625944972E-1,5.986786485E-1
2.428497314E0,-7.669904083E-2,-6.540724039E-1,5.885586143E-1
2.430511475E0,-8.841694891E-2,-6.386260390E-1,5.805691481E-1
2.432495117E0,-1.043959185E-1,-6.194512844E-1,5.693838596E-1
2.434509277E0,-1.347559541E-1,-6.029396653E-1,5.528722405E-1
2.436492920E0,-1.581917703E-1,-5.986786485E-1,5.406216979E-1
2.438507080E0,-1.848233789E-1,-5.890912414E-1,5.289037824E-1
2.440521240E0,-2.157160491E-1,-5.821670294E-1,5.155879855E-1
2.442474365E0,-2.482066154E-1,-5.699164867E-1,5.012069345E-1
2.444458008E0,-2.641855776E-1,-5.656554103E-1,4.916195571E-1
2.446441650E0,-3.041329980E-1,-5.672533512E-1,4.655205607E-1
2.448425293E0,-3.462109566E-1,-5.715143681E-1,4.356931746E-1
2.450408936E0,-3.914846778E-1,-5.912217498E-1,3.984089196E-1
2.452392578E0,-4.340952635E-1,-6.141249537E-1,3.579288721E-1
2.454376221E0,-4.729774296E-1,-6.418218613E-1,3.195793331E-1
2.456359863E0,-5.182511806E-1,-6.753776670E-1,2.785666585E-1
2.458343506E0,-5.603290796E-1,-7.174556255E-1,2.322276533E-1
2.460357666E0,-6.034722924E-1,-7.717841268E-1,1.922802329E-1
2.462341309E0,-6.455502510E-1,-8.367652297E-1,1.571265012E-1
2.464324951E0,-6.833671331E-1,-9.081379771E-1,1.262338310E-1
2.466308594E0,-7.163903713E-1,-9.869675040E-1,1.043959185E-1
2.468292236E0,-7.408914566E-1,-1.075384498E0,9.054747969E-2
2.470306396E0,-7.563377619E-1,-1.169127703E0,7.936219871E-2
2.472290039E0,-7.669904232E-1,-1.263936281E0,7.350324839E-2
2.474273682E0,-7.701861858E-1,-1.355016351E0,6.817692518E-2
2.476257324E0,-7.669904232E-1,-1.437041759E0,6.444849819E-2
2.478271484E0,-7.552725077E-1,-1.509479761E0,5.965480953E-2
2.480285645E0,-7.419567108E-1,-1.576058745E0,5.379585549E-2
2.482269287E0,-7.217166424E-1,-1.629321933E0,5.060006306E-2
2.484252930E0,-6.993461251E-1,-1.670334697E0,4.633900523E-2
2.486267090E0,-6.748450398E-1,-1.709749460E0,4.314320907E-2
2.488250732E0,-6.471481323E-1,-1.740109444E0,4.101268202E-2
2.490264893E0,-6.237123609E-1,-1.770469546E0,4.261057824E-2
2.492248535E0,-5.949501991E-1,-1.799764276E0,4.527373984E-2
2.494262695E0,-5.699164867E-1,-1.837048531E0,4.740426689E-2
2.496246338E0,-5.432848930E-1,-1.879659176E0,4.740426689E-2
2.498260498E0,-5.193164349E-1,-1.921204448E0,5.219795927E-2
2.500274658E0,-4.910869002E-1,-1.965412974E0,5.645901710E-2
2.502258301E0,-4.697816372E-1,-2.011219263E0,6.231797114E-2
2.504241943E0,-4.479437172E-1,-2.061286688E0,6.391586363E-2
2.506256104E0,-4.282363057E-1,-2.104962587E0,7.243798673E-2
2.508239746E0,-4.063983858E-1,-2.142779350E0,7.456851006E-2
2.510253906E0,-3.866910040E-1,-2.172606945E0,7.829693705E-2
2.512237549E0,-3.632551730E-1,-2.187520504E0,8.309062570E-2
2.514251709E0,-3.371562064E-1,-2.193379402E0,9.001484513E-2
2.516235352E0,-3.142530024E-1,-2.192314148E0,9.214537591E-2
2.518249512E0,-2.913498282E-1,-2.181661606E0,9.747169912E-2
2.520263672E0,-2.540655732E-1,-2.142246723E0,9.640643001E-2
2.522247314E0,-2.242381722E-1,-2.103364706E0,9.640643001E-2
2.524230957E0,-1.981391907E-1,-2.057025671E0,1.001348570E-1
2.526245117E0,-1.656486243E-1,-2.004295111E0,1.027980223E-1
2.528228760E0,-1.406149119E-1,-1.942509770E0,1.075917110E-1
2.530242920E0,-1.086569726E-1,-1.874332786E0,1.097222418E-1
2.532226562E0,-7.936219871E-2,-1.806688547E0,1.182443574E-1
2.534240723E0,-4.633900523E-2,-1.731054783E0,1.251685768E-1
2.536224365E0,-2.077265643E-2,-1.660214663E0,1.230380461E-1
2.538238525E0,9.054748341E-3,-1.582983017E0,1.246359423E-1
2.540252686E0,3.515372798E-2,-1.505751252E0,1.257012039E-1
2.542205811E0,6.498113275E-2,-1.427454352E0,1.272991002E-1
2.544189453E0,9.161274135E-2,-1.349690080E0,1.347559541E-1
2.546173096E0,1.235706806E-1,-1.272991061E0,1.464738697E-1
2.548156738E0,1.400822699E-1,-1.236772060E0,1.518001854E-1
2.550140381E0,1.693770438E-1,-1.167529821E0,1.683117896E-1
2.552154541E0,2.141181529E-1,-1.072721362E0,1.949433982E-1
2.554138184E0,2.444781959E-1,-1.015729666E0,2.141181529E-1
2.556121826E0,2.577939928E-1,-9.912285805E-1,2.242381722E-1
2.558105469E0,2.865561247E-1,-9.422264099E-1,2.428802997E-1
2.560150146E0,3.296993375E-1,-8.772453070E-1,2.679139972E-1
2.562103271E0,3.414172530E-1,-8.580704927E-1,2.737729549E-1
2.564117432E0,3.712446690E-1,-8.239820600E-1,2.929477394E-1
2.566101074E0,3.978762627E-1,-7.877630591E-1,3.062635362E-1
2.568115234E0,4.314320982E-1,-7.515440583E-1,3.238403797E-1
2.570098877E0,4.522047639E-1,-7.275756001E-1,3.360909224E-1
2.572113037E0,4.740426838E-1,-7.131945491E-1,3.430151641E-1
2.574096680E0,4.884237647E-1,-7.004113793E-1,3.526025414E-1
2.576110840E0,5.028048158E-1,-6.918892860E-1,3.584614992E-1
2.578094482E0,5.107942820E-1,-6.860303283E-1,3.691141307E-1
2.580139160E0,5.139901042E-1,-6.881608367E-1,3.802994192E-1
2.582092285E0,5.166532397E-1,-6.934871674E-1,3.952131271E-1
2.584106445E0,5.145227313E-1,-6.972155571E-1,4.063983858E-1
2.586090088E0,5.070658922E-1,-6.982808709E-1,4.181163013E-1
2.588104248E0,4.980111420E-1,-7.014766335E-1,4.340952635E-1
2.590087891E0,4.862932265E-1,-7.030745149E-1,4.452805519E-1
2.592102051E0,4.713795185E-1,-7.020092607E-1,4.612595141E-1
2.594085693E0,4.564658105E-1,-6.966829300E-1,4.756405652E-1
2.596099854E0,4.447479248E-1,-6.977482438E-1,4.905542731E-1
2.598083496E0,4.298342168E-1,-6.924219131E-1,5.044026971E-1
2.600128174E0,4.223773479E-1,-6.897587180E-1,5.182511806E-1
2.602081299E0,4.138552547E-1,-6.902913451E-1,5.342301130E-1
2.604095459E0,4.048005044E-1,-6.913566589E-1,5.443501472E-1
2.606079102E0,4.005394280E-1,-6.972155571E-1,5.603290796E-1
2.608093262E0,3.978762627E-1,-7.020092607E-1,5.741775632E-1
2.610076904E0,3.936152160E-1,-7.073355913E-1,5.922870636E-1
2.612091064E0,3.914846778E-1,-7.110640407E-1,6.087986231E-1
2.614105225E0,3.946804702E-1,-7.217166424E-1,6.295713186E-1
2.616088867E0,3.914846778E-1,-7.355651259E-1,6.455502510E-1
2.618072510E0,3.920173049E-1,-7.526093125E-1,6.652576327E-1
2.620086670E0,3.978762627E-1,-7.691209316E-1,6.812366247E-1
2.622070312E0,4.016047120E-1,-7.866978049E-1,7.014766335E-1
2.624053955E0,4.069310129E-1,-8.064051867E-1,7.211840153E-1
2.626068115E0,4.106594622E-1,-8.218515515E-1,7.414240837E-1
2.628051758E0,4.154531360E-1,-8.372978568E-1,7.595335841E-1
2.630035400E0,4.207794666E-1,-8.468852639E-1,7.771103978E-1
2.632019043E0,4.255731404E-1,-8.527442217E-1,7.920241356E-1
2.634033203E0,4.303668439E-1,-8.596684337E-1,8.090683818E-1
2.636016846E0,4.335626364E-1,-8.713863492E-1,8.239820600E-1
2.638000488E0,4.383563101E-1,-8.788431883E-1,8.330367804E-1
2.640014648E0,4.388889670E-1,-8.910937309E-1,8.490157723E-1
2.641998291E0,4.426173866E-1,-9.028116465E-1,8.586031795E-1
2.643981934E0,4.436826408E-1,-9.113337398E-1,8.628641963E-1
2.645996094E0,4.458131790E-1,-9.241169095E-1,8.660600185E-1
2.647979736E0,4.474110603E-1,-9.374327064E-1,8.692557812E-1
2.649993896E0,4.474110603E-1,-9.534116983E-1,8.681905270E-1
2.651977539E0,4.522047639E-1,-9.688580036E-1,8.719189763E-1
2.653991699E0,4.543353021E-1,-9.901633263E-1,8.676578999E-1
2.655975342E0,4.575310946E-1,-1.012533903E0,8.639294505E-1
2.657989502E0,4.649879336E-1,-1.034904361E0,8.570052385E-1
2.660003662E0,4.708468914E-1,-1.053013921E0,8.458199501E-1
2.661987305E0,4.841626883E-1,-1.067927599E0,8.367652297E-1
2.663970947E0,4.953479767E-1,-1.078047633E0,8.245146871E-1
2.665985107E0,5.081311464E-1,-1.093493938E0,8.117315173E-1
2.667968750E0,5.198490620E-1,-1.100418210E0,7.941546440E-1
2.669982910E0,5.352953672E-1,-1.105744481E0,7.760451436E-1
2.671966553E0,5.480785370E-1,-1.104146600E0,7.611314654E-1
2.673980713E0,5.645901561E-1,-1.105744481E0,7.376956344E-1
2.675964355E0,5.779059529E-1,-1.102548718E0,7.142598033E-1
2.677978516E0,5.938849449E-1,-1.100950837E0,6.860303283E-1
2.679992676E0,6.050702333E-1,-1.095624447E0,6.615292430E-1
2.681976318E0,6.167881489E-1,-1.089232922E0,6.348975897E-1
2.683959961E0,6.274407506E-1,-1.078580260E0,6.040049195E-1
2.685974121E0,6.370281577E-1,-1.070058107E0,5.795038939E-1
2.687957764E0,6.396912932E-1,-1.064731836E0,5.454154015E-1
2.689971924E0,6.402239203E-1,-1.063133955E0,5.150553584E-1
2.691955566E0,6.317018270E-1,-1.065797091E0,4.814995229E-1
2.693969727E0,6.242449880E-1,-1.068460226E0,4.516721368E-1
2.695953369E0,6.125270724E-1,-1.067927599E0,4.229099751E-1
2.697967529E0,5.981460214E-1,-1.069525480E0,3.925499618E-1
2.699981689E0,5.800365210E-1,-1.063666582E0,3.653857112E-1
2.701965332E0,5.576659441E-1,-1.056742311E0,3.339604139E-1
2.703918457E0,5.406216979E-1,-1.051416039E0,3.051982522E-1
2.705902100E0,5.251753926E-1,-1.038100243E0,2.780340314E-1
2.707885742E0,5.060006380E-1,-1.029045463E0,2.530003190E-1
2.709869385E0,4.846953154E-1,-1.010936022E0,2.295644879E-1
2.711853027E0,4.639226794E-1,-9.976201653E-1,2.109223604E-1
2.713836670E0,4.474110603E-1,-9.800432920E-1,1.842907518E-1
2.715820312E0,4.314320982E-1,-9.555422068E-1,1.619201899E-1
2.717803955E0,4.159857631E-1,-9.257147908E-1,1.443433315E-1
2.719818115E0,3.994741738E-1,-8.985505700E-1,1.230380461E-1
2.721771240E0,3.845604658E-1,-8.719189763E-1,1.054611802E-1
2.723785400E0,3.691141307E-1,-8.495483994E-1,8.841694891E-2
2.725769043E0,3.520699143E-1,-8.277105093E-1,6.924218684E-2
2.727783203E0,3.376888335E-1,-8.138620257E-1,5.166532472E-2
2.729766846E0,3.190467060E-1,-8.021441102E-1,3.515372798E-2
2.731781006E0,3.020024598E-1,-7.952198982E-1,1.384843793E-2
2.733764648E0,2.796319127E-1,-8.101336360E-1,-1.118527725E-2
2.735778809E0,2.545982003E-1,-8.346347213E-1,-3.621899337E-2
2.737762451E0,2.343581766E-1,-8.495483994E-1,-5.539375171E-2
2.739807129E0,2.151834220E-1,-8.665926456E-1,-7.936219871E-2
2.741760254E0,1.970739216E-1,-8.772453070E-1,-1.001348570E-1
2.743774414E0,1.778991669E-1,-8.921589851E-1,-1.241033077E-1
2.745758057E0,1.613875628E-1,-9.017463326E-1,-1.475391239E-1
2.747772217E0,1.427454352E-1,-9.134642482E-1,-1.720402092E-1
2.749755859E0,1.283643693E-1,-9.198558331E-1,-1.970739216E-1
2.751770020E0,1.155811921E-1,-9.246495366E-1,-2.253034264E-1
2.753753662E0,1.059938148E-1,-9.289106131E-1,-2.540655732E-1
2.755767822E0,9.906959534E-2,-9.273127317E-1,-2.801645398E-1
2.757751465E0,9.587380290E-2,-9.198558331E-1,-3.073287904E-1
2.759765625E0,8.948221803E-2,-9.086706042E-1,-3.291667104E-1
2.761749268E0,8.894958347E-2,-8.900284767E-1,-3.510046303E-1
2.763732910E0,9.108011425E-2,-8.671252728E-1,-3.781688809E-1
2.765716553E0,9.001484513E-2,-8.356999755E-1,-4.021373391E-1
2.767700195E0,9.374327213E-2,-7.936220169E-1,-4.245078862E-1
2.769683838E0,9.693906456E-2,-7.563377619E-1,-4.431500137E-1
2.771667480E0,9.800432622E-2,-7.099987864E-1,-4.692489803E-1
2.773681641E0,9.693906456E-2,-6.684534550E-1,-4.926848114E-1
2.775665283E0,1.001348570E-1,-6.162554622E-1,-5.118595958E-1
2.777648926E0,1.006674916E-1,-5.656554103E-1,-5.358279943E-1
2.779663086E0,9.960222989E-2,-5.097290277E-1,-5.534048676E-1
2.781646729E0,9.374327213E-2,-4.500742257E-1,-5.757754445E-1
2.783599854E0,8.735168725E-2,-3.834952116E-1,-5.992112756E-1
2.785583496E0,7.510114461E-2,-3.169161677E-1,-6.221144199E-1
2.787567139E0,5.912217870E-2,-2.514024079E-1,-6.444849968E-1
2.789550781E0,4.420847446E-2,-1.842907518E-1,-6.695187092E-1
2.791564941E0,2.556634694E-2,-1.193096191E-1,-6.950850487E-1
2.793548584E0,2.663161140E-3,-5.699164793E-2,-7.211840153E-1
2.795562744E0,-1.810949668E-2,9.587380104E-3,-7.483482957E-1
2.797546387E0,-3.675162420E-2,6.870955974E-2,-7.787083387E-1
2.799560547E0,-5.273059011E-2,1.262338310E-1,-8.085356951E-1
2.801513672E0,-6.977482140E-2,1.906823367E-1,-8.341020942E-1
2.803527832E0,-8.202536404E-2,2.492718846E-1,-8.607336879E-1
2.805511475E0,-9.001484513E-2,3.062635362E-1,-8.831042051E-1
2.807525635E0,-9.906959534E-2,3.531351686E-1,-9.097358584E-1
2.809509277E0,-1.129180342E-1,3.909520507E-1,-9.379653335E-1
2.811523437E0,-1.299622655E-1,4.149205089E-1,-9.598032832E-1
2.813507080E0,-1.502022892E-1,4.277036786E-1,-9.917612076E-1
2.815521240E0,-1.763012707E-1,4.324973822E-1,-1.016794920E0
2.817504883E0,-2.029328793E-1,4.346278906E-1,-1.042893887E0
2.819549561E0,-2.359560728E-1,4.367584288E-1,-1.070058107E0
2.821502686E0,-2.700445354E-1,4.394215941E-1,-1.100418210E0
2.823516846E0,-3.067961633E-1,4.399542212E-1,-1.130245566E0
2.825500488E0,-3.440804183E-1,4.479437172E-1,-1.156877160E0
2.827514648E0,-3.792341352E-1,4.655205607E-1,-1.187237263E0
2.829498291E0,-4.122573435E-1,4.884237647E-1,-1.214934111E0
2.831512451E0,-4.426173866E-1,5.118595958E-1,-1.238369942E0
2.833496094E0,-4.713795185E-1,5.390238166E-1,-1.260740519E0
2.835510254E0,-4.910869002E-1,5.667206645E-1,-1.281513095E0
2.837493896E0,-5.102616549E-1,5.848301649E-1,-1.292698383E0
2.839538574E0,-5.257080197E-1,6.013417840E-1,-1.294828892E0
2.841491699E0,-5.416869521E-1,6.141249537E-1,-1.287904739E0
2.843505859E0,-5.571333170E-1,6.295713186E-1,-1.266066790E0
2.845489502E0,-5.757754445E-1,6.386260390E-1,-1.236239433E0
2.847503662E0,-6.002765298E-1,6.423544884E-1,-1.192563534E0
2.849487305E0,-6.253102422E-1,6.364955306E-1,-1.138767719E0
2.851501465E0,-6.572681665E-1,6.210491657E-1,-1.075917125E0
2.853485107E0,-6.908239722E-1,5.981460214E-1,-1.016794920E0
2.855499268E0,-7.307714224E-1,5.795038939E-1,-9.528790712E-1
2.857482910E0,-7.701861858E-1,5.603290796E-1,-8.905611038E-1
2.859497070E0,-8.191883564E-1,5.395564437E-1,-8.367652297E-1
2.861480713E0,-8.676578999E-1,5.257080197E-1,-7.909588814E-1
2.863464355E0,-9.150621891E-1,5.113269091E-1,-7.552725077E-1
2.865478516E0,-9.592706561E-1,5.065332651E-1,-7.249124646E-1
2.867462158E0,-1.005077004E0,5.012069345E-1,-7.014766335E-1
2.869476318E0,-1.043959141E0,4.958806038E-1,-6.844323874E-1
2.871459961E0,-1.076982379E0,4.980111420E-1,-6.716492176E-1
2.873474121E0,-1.108407617E0,5.070658922E-1,-6.625944972E-1
2.875457764E0,-1.131310821E0,5.150553584E-1,-6.604639888E-1
2.877471924E0,-1.152616143E0,5.214469433E-1,-6.593986750E-1
2.879486084E0,-1.173388839E0,5.289037824E-1,-6.535397172E-1
2.881469727E0,-1.187237263E0,5.305017233E-1,-6.498113275E-1
2.883453369E0,-1.195759296E0,5.166532397E-1,-6.428871155E-1
2.885467529E0,-1.197889924E0,5.091964006E-1,-6.332997084E-1
2.887451172E0,-1.204281449E0,4.974785149E-1,-6.215817928E-1
2.889465332E0,-1.205346704E0,4.921521842E-1,-6.082659960E-1
2.891448975E0,-1.208009839E0,4.926848114E-1,-5.933523178E-1
2.893463135E0,-1.213868856E0,5.097290277E-1,-5.763080716E-1
2.895446777E0,-1.231445670E0,5.427522659E-1,-5.624596477E-1
2.897460937E0,-1.247957349E0,5.709817410E-1,-5.512743592E-1
2.899475098E0,-1.270327806E0,5.992112756E-1,-5.395564437E-1
2.901458740E0,-1.294296265E0,6.135923266E-1,-5.283711553E-1
2.903442383E0,-1.324656367E0,6.114618182E-1,-5.289037824E-1
2.905456543E0,-1.361407995E0,6.013417840E-1,-5.336974859E-1
2.907440186E0,-1.404018521E0,5.667206645E-1,-5.422195792E-1
2.909454346E0,-1.454085946E0,5.022721887E-1,-5.539374948E-1
2.911437988E0,-1.507349253E0,4.245078862E-1,-5.704491138E-1
2.913452148E0,-1.570199847E0,3.265035450E-1,-5.826996565E-1
2.915435791E0,-1.639441967E0,2.258360684E-1,-5.970807076E-1
2.917449951E0,-1.707086325E0,1.358212233E-1,-6.087986231E-1
2.919464111E0,-1.753957868E0,9.800432622E-2,-6.210491657E-1
2.921447754E0,-1.776328444E0,1.219727769E-1,-6.348975897E-1
2.923431396E0,-1.781122208E0,1.986718178E-1,-6.524744630E-1
2.925445557E0,-1.780056953E0,2.929477394E-1,-6.631271243E-1
2.927429199E0,-1.776861072E0,3.957457542E-1,-6.721818447E-1
2.929443359E0,-1.780056953E0,5.012069345E-1,-6.562029123E-1
2.931427002E0,-1.777926326E0,6.013417840E-1,-6.274407506E-1
2.933441162E0,-1.781654835E0,6.908239722E-1,-5.922870636E-1
2.935424805E0,-1.788046360E0,7.637946010E-1,-5.502091050E-1
2.937438965E0,-1.798166394E0,8.186557293E-1,-5.012069345E-1
2.939453125E0,-1.816808581E0,8.617989421E-1,-4.500742257E-1
2.941406250E0,-1.829591751E0,8.921589851E-1,-4.016047120E-1
2.943389893E0,-1.836515903E0,9.092032313E-1,-3.563309610E-1
2.945373535E0,-1.844505429E0,9.273127317E-1,-3.185140789E-1
2.947357178E0,-1.849299073E0,9.502158761E-1,-2.780340314E-1
2.949340820E0,-1.851962209E0,9.715211987E-1,-2.423476577E-1
2.951354980E0,-1.849299073E0,1.007207513E0,-2.130528986E-1
2.953338623E0,-1.852494836E0,1.047687650E0,-1.810949594E-1
2.955352783E0,-1.857288599E0,1.090830803E0,-1.533980817E-1
2.957336426E0,-1.867941260E0,1.136637211E0,-1.219727769E-1
2.959350586E0,-1.881789684E0,1.186704636E0,-9.747169912E-2
2.961303711E0,-1.900431752E0,1.229847789E0,-7.243798673E-2
2.963317871E0,-1.931857109E0,1.266066790E0,-3.728425503E-2
2.965301514E0,-1.958488703E0,1.307612062E0,-3.728425596E-3
2.967315674E0,-1.986718178E0,1.349157453E0,2.663161233E-2
2.969299316E0,-2.015480280E0,1.392300606E0,4.633900523E-2
2.971313477E0,-2.043177128E0,1.432780743E0,5.539375171E-2
2.973297119E0,-2.062884569E0,1.468999743E0,4.474110901E-2
2.975311279E0,-2.087918282E0,1.510012388E0,2.876213938E-2
2.977294922E0,-2.106027842E0,1.558481932E0,8.522115648E-3
2.979339600E0,-2.124670029E0,1.597896695E0,-2.183792181E-2
2.981292725E0,-2.139050961E0,1.632517815E0,-5.113269389E-2
2.983306885E0,-2.145975351E0,1.654888391E0,-8.468852192E-2
2.985290527E0,-2.153432131E0,1.670334697E0,-1.182443574E-1
2.987304687E0,-2.161954165E0,1.679389358E0,-1.544633508E-1
2.989288330E0,-2.165682554E0,1.679922104E0,-1.949433982E-1
2.991302490E0,-2.167813063E0,1.677791476E0,-2.348908186E-1
2.993286133E0,-2.167813063E0,1.663410425E0,-2.780340314E-1
2.995300293E0,-2.166747808E0,1.641572475E0,-3.179814517E-1
2.997283936E0,-2.167813063E0,1.620799899E0,-3.595267534E-1
2.999328613E0,-2.170476437E0,1.591505051E0,-3.930825889E-1
3.001281738E0,-2.171541691E0,1.560079813E0,-4.308994710E-1
3.003295898E0,-2.174204826E0,1.531317711E0,-4.740426838E-1
3.005279541E0,-2.174737453E0,1.497761846E0,-5.129248500E-1
3.007293701E0,-2.164617300E0,1.459412336E0,-5.507417321E-1
3.009277344E0,-2.153964758E0,1.411475420E0,-5.880259871E-1
3.011291504E0,-2.137453079E0,1.357146859E0,-6.226470470E-1
3.013305664E0,-2.118810892E0,1.304416299E0,-6.572681665E-1
3.015289307E0,-2.092179298E0,1.247424722E0,-6.902913451E-1
3.017272949E0,-2.060221434E0,1.188302517E0,-7.275756001E-1
3.019317627E0,-2.025600433E0,1.140898228E0,-7.643272281E-1
3.021270752E0,-1.983522415E0,1.095091820E0,-8.016114831E-1
3.023284912E0,-1.935052872E0,1.052481294E0,-8.362326026E-1
3.025268555E0,-1.881257057E0,1.012001276E0,-8.649947643E-1
3.027282715E0,-1.818939090E0,9.725864530E-1,-8.905611038E-1
3.029266357E0,-1.746501088E0,9.432916641E-1,-9.108011127E-1
3.031280518E0,-1.668736815E0,9.171926975E-1,-9.321063757E-1
3.033264160E0,-1.593103051E0,8.996158242E-1,-9.475527406E-1
3.035278320E0,-1.516403913E0,8.889631629E-1,-9.635316730E-1
3.037261963E0,-1.439172268E0,8.777779341E-1,-9.784454107E-1
3.039306641E0,-1.368864775E0,8.751147389E-1,-9.954896569E-1
3.041259766E0,-1.298024774E0,8.873652816E-1,-1.004544377E0
3.043273926E0,-1.230380416E0,9.076052904E-1,-1.011468649E0
3.045257568E0,-1.164334059E0,9.278453588E-1,-1.010403395E0
3.047271729E0,-1.098287702E0,9.512811303E-1,-1.002413869E0
3.049255371E0,-1.034904361E0,9.709885716E-1,-9.912285805E-1
3.051269531E0,-9.747169614E-1,9.848369956E-1,-9.832391143E-1
3.053253174E0,-9.086706042E-1,1.012001276E0,-9.736517072E-1
3.055267334E0,-8.420915604E-1,1.038632870E0,-9.640643597E-1
3.057250977E0,-7.771103978E-1,1.063133955E0,-9.555422068E-1
3.059295654E0,-7.068029642E-1,1.090830803E0,-9.496832490E-1
3.061248779E0,-6.396912932E-1,1.103081346E0,-9.422264099E-1
3.063262939E0,-5.651227832E-1,1.116397142E0,-9.369000793E-1
3.065246582E0,-4.948153496E-1,1.119592905E0,-9.299758673E-1
3.067260742E0,-4.218447208E-1,1.119060278E0,-9.246495366E-1
3.069244385E0,-3.515372574E-1,1.119592905E0,-9.161274433E-1
3.071258545E0,-2.822950780E-1,1.112136126E0,-9.134642482E-1
3.073242187E0,-2.130528986E-1,1.108407617E0,-9.086706042E-1
3.075256348E0,-1.491370201E-1,1.106277108E0,-9.006810784E-1
3.077239990E0,-8.415589482E-2,1.104679227E0,-8.953547478E-1
3.079284668E0,-2.237055451E-2,1.105744481E0,-8.868326545E-1
3.081237793E0,3.195793182E-2,1.108407617E0,-8.809736967E-1
3.083251953E0,8.415589482E-2,1.113734007E0,-8.740494847E-1
3.085235596E0,1.310275346E-1,1.115331888E0,-8.665926456E-1
3.087249756E0,1.693770438E-1,1.116397142E0,-8.628641963E-1
3.089233398E0,2.039981484E-1,1.120125532E0,-8.548747301E-1
3.091247559E0,2.386192381E-1,1.124386668E0,-8.500810266E-1
3.093231201E0,2.599245310E-1,1.125451922E0,-8.474178910E-1
3.095245361E0,2.801645398E-1,1.132376075E0,-8.420915604E-1
3.097229004E0,2.881540358E-1,1.137169838E0,-8.367652297E-1
3.099273682E0,2.966761589E-1,1.137702465E0,-8.303736448E-1
3.101226807E0,2.982740402E-1,1.133973956E0,-8.218515515E-1
3.103240967E0,2.908172011E-1,1.124386668E0,-8.122641444E-1
3.105224609E0,2.865561247E-1,1.114266634E0,-8.010788560E-1
3.107238770E0,2.721750736E-1,1.099352956E0,-7.893609405E-1
3.109222412E0,2.535329461E-1,1.080710769E0,-7.808388472E-1
3.111236572E0,2.290318608E-1,1.055677056E0,-7.616640925E-1
3.113220215E0,2.055960447E-1,1.029578090E0,-7.446198463E-1
3.115234375E0,1.773665249E-1,9.938917160E-1,-7.270429730E-1
3.117218018E0,1.475391239E-1,9.592706561E-1,-7.110640407E-1
3.119262695E0,1.139832959E-1,9.203884602E-1,-6.940197945E-1
3.121215820E0,7.723167539E-2,8.772453070E-1,-6.775081754E-1
3.123229980E0,4.048004746E-2,8.325041533E-1,-6.647250056E-1
3.125213623E0,3.728425596E-3,7.819041014E-1,-6.476807594E-1
3.127227783E0,-3.888215125E-2,7.291735411E-1,-6.311691999E-1
3.129211426E0,-7.669904083E-2,6.716492176E-1,-6.109291911E-1
3.131225586E0,-1.161138266E-1,6.109291911E-1,-5.890912414E-1
3.133209229E0,-1.560612470E-1,5.470132828E-1,-5.683186054E-1
3.135223389E0,-1.954760253E-1,4.799016416E-1,-5.406216979E-1
3.137207031E0,-2.316950262E-1,4.063983858E-1,-5.134574771E-1
3.139251709E0,-2.652508616E-1,3.355582952E-1,-4.884237647E-1
3.141204834E0,-2.961435318E-1,2.647182047E-1,-4.596616030E-1
3.143218994E0,-3.195793331E-1,1.928128600E-1,-4.282363057E-1
3.145172119E0,-3.398193717E-1,1.283643693E-1,-3.973436356E-1
3.147155762E0,-3.526025414E-1,7.297061384E-2,-3.691141307E-1
3.149139404E0,-3.600593805E-1,2.024002373E-2,-3.382214606E-1
3.151123047E0,-3.621899188E-1,-2.769687586E-2,-3.099919558E-1
3.153106689E0,-3.557983339E-1,-6.817692518E-2,-2.785666585E-1
3.155090332E0,-3.478088379E-1,-1.006674916E-1,-2.498045117E-1
3.157104492E0,-3.302319944E-1,-1.320927888E-1,-2.274339646E-1
3.159118652E0,-3.089267015E-1,-1.597896665E-1,-2.034655064E-1
3.161102295E0,-2.801645398E-1,-1.800296903E-1,-1.763012707E-1
3.163085937E0,-2.476739883E-1,-1.954760253E-1,-1.523328125E-1
3.165100098E0,-2.157160491E-1,-2.098570913E-1,-1.262338310E-1
3.167083740E0,-1.778991669E-1,-2.263686955E-1,-1.043959185E-1
3.169097900E0,-1.374191195E-1,-2.338255495E-1,-8.202536404E-2
3.171081543E0,-9.800432622E-2,-2.418150306E-1,-5.752427876E-2
3.173065186E0,-4.846953228E-2,-2.466087192E-1,-3.302319720E-2
3.175048828E0,-5.326322280E-3,-2.498045117E-1,-9.054748341E-3
3.177062988E0,4.740426689E-2,-2.514024079E-1,1.278317347E-2
3.179077148E0,9.321063757E-2,-2.498045117E-1,3.515372798E-2
3.181030273E0,1.427454352E-1,-2.423476577E-1,5.752427876E-2
3.183044434E0,1.906823367E-1,-2.343581766E-1,7.989483327E-2
3.185028076E0,2.418150306E-1,-2.231729031E-1,9.747169912E-2
3.187042236E0,2.876214087E-1,-2.189118415E-1,1.193096191E-1
3.189025879E0,3.334277868E-1,-2.093244642E-1,1.422128081E-1
3.191040039E0,3.781688809E-1,-1.965412945E-1,1.629854590E-1
3.193023682E0,4.234426320E-1,-1.874865443E-1,1.848233789E-1
3.195037842E0,4.687163532E-1,-1.773665249E-1,2.093244642E-1
3.197021484E0,5.097290277E-1,-1.672465205E-1,2.306297570E-1
3.199066162E0,5.502091050E-1,-1.613875628E-1,2.545982003E-1
3.201019287E0,5.944175720E-1,-1.555286050E-1,2.775014043E-1
3.203033447E0,6.359629035E-1,-1.459412277E-1,3.004045784E-1
3.205017090E0,6.775081754E-1,-1.448759735E-1,3.233077526E-1
3.207031250E0,7.190535069E-1,-1.432780623E-1,3.435477912E-1
3.209014893E0,7.653924823E-1,-1.422128081E-1,3.595267534E-1
3.211029053E0,8.133293986E-1,-1.491370201E-1,3.728425503E-1
3.213012695E0,8.607336879E-1,-1.656486243E-1,3.829625845E-1
3.215026855E0,9.044095278E-1,-1.986718178E-1,3.850930929E-1
3.217010498E0,9.464874864E-1,-2.514024079E-1,3.850930929E-1
3.219055176E0,9.725864530E-1,-3.339604139E-1,3.813646734E-1
3.221008301E0,9.912285805E-1,-4.372910559E-1,3.813646734E-1
3.223022461E0,1.006142259E0,-5.310343504E-1,3.973436356E-1
3.225006104E0,1.021588564E0,-6.002765298E-1,4.213120937E-1
3.227020264E0,1.033839107E0,-6.711165905E-1,4.394215941E-1
3.229003906E0,1.048220277E0,-7.142598033E-1,4.601942301E-1
3.231018066E0,1.085504532E0,-7.147924304E-1,4.873584807E-1
3.233001709E0,1.141430855E0,-6.977482438E-1,5.081311464E-1
3.235015869E0,1.201085687E0,-6.737797856E-1,5.273059011E-1
3.236999512E0,1.277784705E0,-6.263754964E-1,5.374259353E-1
3.239044189E0,1.363538504E0,-5.475459099E-1,5.518069863E-1
3.240997314E0,1.456749201E0,-4.452805519E-1,5.613943934E-1
3.243011475E0,1.562742949E0,-3.217098713E-1,5.747101903E-1
3.244995117E0,1.665540934E0,-1.997370869E-1,5.837649107E-1
3.247009277E0,1.754490614E0,-9.108011425E-2,5.880259871E-1
3.248992920E0,1.831722260E0,-9.587380104E-3,5.901564956E-1
3.251007080E0,1.893507600E0,6.870955974E-2,5.938849449E-1
3.252990723E0,1.932922363E0,1.459412277E-1,5.906891227E-1
3.255004883E0,1.949433923E0,2.306297570E-1,5.848301649E-1
3.256988525E0,1.957956076E0,3.233077526E-1,5.741775632E-1
3.259033203E0,1.950499177E0,4.255731404E-1,5.613943934E-1
3.260986328E0,1.932389736E0,5.358279943E-1,5.507417321E-1
3.263000488E0,1.905225515E0,6.423544884E-1,5.390238166E-1
3.264984131E0,1.856755972E0,7.371630073E-1,5.273059011E-1
3.266998291E0,1.804558039E0,8.314388990E-1,5.150553584E-1
3.268981934E0,1.737978935E0,9.097358584E-1,5.022721887E-1
3.270996094E0,1.662877798E0,9.896306992E-1,4.873584807E-1
3.272979736E0,1.582983017E0,1.061003447E0,4.745753109E-1
3.274993896E0,1.490837574E0,1.125451922E0,4.628573954E-1
3.276977539E0,1.391767979E0,1.183508754E0,4.538026452E-1
3.279022217E0,1.285241604E0,1.226119399E0,4.484763443E-1
3.280975342E0,1.163801432E0,1.257012010E0,4.495415986E-1
3.282989502E0,1.037034988E0,1.279915214E0,4.500742257E-1
3.284973145E0,8.996158242E-1,1.296959519E0,4.569984376E-1
3.286987305E0,7.558051348E-1,1.311873198E0,4.676510990E-1
3.288970947E0,6.119944453E-1,1.326254249E0,4.719121456E-1
3.290985107E0,4.671184719E-1,1.341700554E0,4.814995229E-1
3.292968750E0,3.275688291E-1,1.359810114E0,4.868258536E-1
3.294982910E0,1.944107562E-1,1.376854300E0,4.852279723E-1
3.296966553E0,7.137271762E-2,1.397094369E0,4.825648069E-1
3.299011230E0,-9.427590668E-2,1.422128081E0,4.596616030E-1
3.300964355E0,-1.400822699E-1,1.427986979E0,4.474110603E-1
3.302978516E0,-2.695119083E-1,1.420530200E0,4.026699662E-1
3.304962158E0,-3.355582952E-1,1.411475420E0,3.685815036E-1
3.306976318E0,-3.941478431E-1,1.393898487E0,3.328951299E-1
3.308959961E0,-4.346278906E-1,1.375789046E0,2.977414131E-1
3.310974121E0,-4.665858448E-1,1.352353215E0,2.743056118E-1
3.312957764E0,-4.830974340E-1,1.321460605E0,2.524676621E-1
3.314971924E0,-4.884237647E-1,1.298557401E0,2.391518652E-1
3.316955566E0,-4.873584807E-1,1.273523688E0,2.322276533E-1
3.319000244E0,-4.745753109E-1,1.249555230E0,2.370213419E-1
3.320953369E0,-4.591289759E-1,1.225054145E0,2.418150306E-1
3.322967529E0,-4.346278906E-1,1.197357297E0,2.492718846E-1
3.324951172E0,-4.032025933E-1,1.177117229E0,2.631203234E-1
3.326965332E0,-3.707120419E-1,1.163801432E0,2.743056118E-1
3.328948975E0,-3.334277868E-1,1.143028736E0,2.860234976E-1
3.330963135E0,-2.956108749E-1,1.129180312E0,3.009372056E-1
3.332946777E0,-2.556634545E-1,1.112136126E0,3.126551211E-1
3.334960937E0,-2.109223604E-1,1.099885583E0,3.275688291E-1
3.336944580E0,-1.693770438E-1,1.086569786E0,3.403519988E-1
3.338958740E0,-1.267664731E-1,1.070058107E0,3.536677957E-1
3.340942383E0,-8.042746782E-2,1.056742311E0,3.589941263E-1
3.342926025E0,-3.462109342E-2,1.035969734E0,3.728425503E-1
3.344940186E0,9.054748341E-3,1.014131784E0,3.824299276E-1
3.346923828E0,5.006742850E-2,9.928264618E-1,3.936152160E-1
3.348937988E0,9.054747969E-2,9.635316730E-1,4.058657587E-1
3.350921631E0,1.304948926E-1,9.326390028E-1,4.186489284E-1
3.352935791E0,1.624528319E-1,9.006810784E-1,4.324973822E-1
3.354919434E0,1.901497096E-1,8.665926456E-1,4.527373910E-1
3.356933594E0,2.109223604E-1,8.250473142E-1,4.708468914E-1
3.358947754E0,2.247707993E-1,7.819041014E-1,4.814995229E-1
3.360931396E0,2.269013226E-1,7.286409140E-1,4.820321798E-1
3.362915039E0,2.215750068E-1,6.562029123E-1,4.761732221E-1
3.364929199E0,2.103897333E-1,5.512743592E-1,4.591289759E-1
3.366912842E0,1.970739216E-1,4.138552547E-1,4.335626364E-1
3.368927002E0,1.720402092E-1,2.269013226E-1,4.053331316E-1
3.370910645E0,1.422128081E-1,-1.384843793E-2,3.744404614E-1
3.372924805E0,1.161138266E-1,-2.966761589E-1,3.355582952E-1
3.374908447E0,8.149272949E-2,-5.938849449E-1,2.988066673E-1
3.376922607E0,5.486112088E-2,-8.889631629E-1,2.583266199E-1
3.378936768E0,3.036003746E-2,-1.154746652E0,2.167813182E-1
3.380920410E0,2.077265643E-2,-1.380050063E0,1.800296903E-1
3.382904053E0,1.544633508E-2,-1.536643982E0,1.486043930E-1
3.384918213E0,2.077265643E-2,-1.617604017E0,1.187769845E-1
3.386901855E0,3.994741663E-2,-1.611212492E0,1.049285457E-1
3.388916016E0,6.977482140E-2,-1.508414507E0,1.017327532E-1
3.390899658E0,1.299622655E-1,-1.287372112E0,1.059938148E-1
3.392913818E0,2.141181529E-1,-9.598032832E-1,1.267664731E-1
3.394897461E0,3.110572100E-1,-6.050702333E-1,1.448759735E-1
3.396911621E0,3.989415467E-1,-2.908172011E-1,1.645833552E-1
3.398925781E0,4.825648069E-1,-3.355583176E-2,1.794970632E-1
3.400909424E0,5.480785370E-1,1.752360016E-1,1.832254827E-1
3.402893066E0,6.130596995E-1,3.435477912E-1,1.917476058E-1
3.404907227E0,6.759102941E-1,4.623247683E-1,2.077265680E-1
3.406890869E0,7.334345579E-1,5.491438508E-1,2.284992188E-1
3.408905029E0,7.909588814E-1,5.960154533E-1,2.519350350E-1
3.410888672E0,8.447546959E-1,6.199839115E-1,2.822950780E-1
3.412933350E0,9.006810784E-1,6.178534031E-1,3.169161677E-1
3.414886475E0,9.518138170E-1,6.077333689E-1,3.451456726E-1
3.416870117E0,1.002946496E0,5.954828262E-1,3.771036267E-1
3.418884277E0,1.037567616E0,5.842975378E-1,4.106594622E-1
3.420837402E0,1.075384498E0,5.773733258E-1,4.458131790E-1
3.422851562E0,1.106809735E0,5.928196907E-1,4.772384763E-1
3.424835205E0,1.133973956E0,6.189186573E-1,5.177185535E-1
3.426818848E0,1.156344533E0,6.705839634E-1,5.523396134E-1
3.428802490E0,1.177649856E0,7.419567108E-1,5.906891227E-1
3.430816650E0,1.200553060E0,8.372978568E-1,6.258428693E-1
3.432800293E0,1.223456264E0,9.443569183E-1,6.583334208E-1
3.434783936E0,1.241565704E0,1.059938192E0,6.897587180E-1
3.436767578E0,1.260207891E0,1.171258211E0,7.190535069E-1
3.438781738E0,1.274588943E0,1.282578349E0,7.451524734E-1
3.440734863E0,1.284176350E0,1.394963861E0,7.685883045E-1
3.442749023E0,1.293763638E0,1.494566083E0,7.856325507E-1
3.444732666E0,1.303883672E0,1.587776661E0,8.026767969E-1
3.446746826E0,1.307079434E0,1.669802070E0,8.149272799E-1
3.448730469E0,1.311340570E0,1.741174698E0,8.181231022E-1
3.450744629E0,1.309210062E0,1.802427411E0,8.213189244E-1
3.452728271E0,1.300155282E0,1.858886480E0,8.197209835E-1
3.454742432E0,1.287904739E0,1.905225515E0,8.165252209E-1
3.456726074E0,1.276186824E0,1.949966550E0,8.080030680E-1
3.458770752E0,1.256479383E0,1.984587669E0,7.984157205E-1
3.460723877E0,1.231978297E0,2.017078161E0,7.850999236E-1
3.462738037E0,1.210673094E0,2.037318230E0,7.707188129E-1
3.464721680E0,1.185106754E0,2.054362535E0,7.568703890E-1
3.466735840E0,1.159007788E0,2.055960417E0,7.419567108E-1
3.468719482E0,1.127582431E0,2.051166773E0,7.254450917E-1
3.470733643E0,1.103613973E0,2.030394077E0,7.062703371E-1
3.472717285E0,1.073253989E0,1.992577195E0,6.897587180E-1
3.474731445E0,1.038100243E0,1.941977143E0,6.743124127E-1
3.476715088E0,1.013599157E0,1.870604396E0,6.615292430E-1
3.478759766E0,9.832391143E-1,1.777393699E0,6.492787004E-1
3.480712891E0,9.528790712E-1,1.662345171E0,6.354302764E-1
3.482727051E0,9.241169095E-1,1.532915592E0,6.242449880E-1
3.484710693E0,9.001484513E-1,1.391235352E0,6.162554622E-1
3.486724854E0,8.756473660E-1,1.238369942E0,6.040049195E-1
3.488708496E0,8.570052385E-1,1.087635040E0,5.880259871E-1
3.490722656E0,8.463526368E-1,9.518138170E-1,5.709817410E-1
3.492706299E0,8.367652297E-1,8.287757635E-1,5.592638254E-1
3.494720459E0,8.346347213E-1,7.121292949E-1,5.491438508E-1
3.496704102E0,8.362326026E-1,6.125270724E-1,5.416869521E-1
3.498718262E0,8.415589333E-1,5.273059011E-1,5.368933082E-1
3.500701904E0,8.516789079E-1,4.575310946E-1,5.320996046E-1
3.502685547E0,8.617989421E-1,4.117247164E-1,5.262406468E-1
3.504699707E0,8.740494847E-1,3.760383427E-1,5.214469433E-1
3.506683350E0,8.884305358E-1,3.547330499E-1,5.123922229E-1
3.508697510E0,9.017463326E-1,3.355582952E-1,5.086637735E-1
3.510681152E0,9.198558331E-1,3.158509135E-1,5.028048158E-1
3.512695312E0,9.347695708E-1,2.902845740E-1,4.974785149E-1
3.514678955E0,9.566074610E-1,2.593919039E-1,4.862932265E-1
3.516693115E0,9.763149023E-1,2.215750068E-1,4.708468914E-1
3.518707275E0,9.976201653E-1,1.832254827E-1,4.596616030E-1
3.520690918E0,1.022653818E0,1.320927888E-1,4.442152679E-1
3.522674561E0,1.056742311E0,6.444849819E-2,4.447479248E-1
3.524688721E0,1.098287702E0,-4.261057824E-3,4.474110603E-1
3.526672363E0,1.128115058E0,-7.137271762E-2,4.388889670E-1
3.528686523E0,1.154214025E0,-1.257012039E-1,4.197141826E-1
3.530670166E0,1.170725584E0,-1.672465205E-1,3.941478431E-1
3.532684326E0,1.185106754E0,-2.002697140E-1,3.664509654E-1
3.534667969E0,1.195226669E0,-2.279665917E-1,3.446130455E-1
3.536682129E0,1.206411958E0,-2.466087192E-1,3.126551211E-1
3.538696289E0,1.210140467E0,-2.753708661E-1,2.790992856E-1
3.540679932E0,1.209607840E0,-3.083940744E-1,2.482066154E-1
3.542663574E0,1.197889924E0,-3.371562064E-1,2.194444835E-1
3.544677734E0,1.174986720E0,-3.653857112E-1,1.922802329E-1
3.546661377E0,1.147289872E0,-3.952131271E-1,1.661812514E-1
3.548675537E0,1.110005617E0,-4.362258017E-1,1.454086006E-1
3.550659180E0,1.070058107E0,-4.878911078E-1,1.251685768E-1
3.552673340E0,1.026382327E0,-5.454154015E-1,1.107875034E-1
3.554656982E0,9.800432920E-1,-5.976133347E-1,9.906959534E-2
3.556671143E0,9.347695708E-1,-6.551376581E-1,9.321063757E-2
3.558685303E0,8.847021461E-1,-7.068029642E-1,8.894958347E-2
3.560668945E0,8.325041533E-1,-7.584682703E-1,8.948221803E-2
3.562652588E0,7.771103978E-1,-7.968178391E-1,8.841694891E-2
3.564666748E0,7.211840153E-1,-8.335694075E-1,8.841694891E-2
3.566650391E0,6.620618701E-1,-8.570052385E-1,9.214537591E-2
3.568664551E0,5.976133347E-1,-8.751147389E-1,1.001348570E-1
3.570648193E0,5.347627401E-1,-8.863000274E-1,1.081243455E-1
3.572662354E0,4.655205607E-1,-8.910937309E-1,1.177117229E-1
3.574645996E0,3.914846778E-1,-8.964200616E-1,1.246359423E-1
3.576629639E0,3.158509135E-1,-8.948221207E-1,1.358212233E-1
3.578643799E0,2.375539690E-1,-8.884305358E-1,1.528654546E-1
3.580596924E0,1.619201899E-1,-8.745821118E-1,1.725728363E-1
3.582580566E0,8.894958347E-2,-8.543421030E-1,1.960086524E-1
3.584564209E0,1.384843793E-2,-8.207862377E-1,2.242381722E-1
3.586547852E0,-5.699164793E-2,-7.819041014E-1,2.540655732E-1
3.588531494E0,-1.209075153E-1,-7.366303802E-1,2.806971967E-1
3.590515137E0,-1.821602285E-1,-6.913566589E-1,3.036003709E-1
3.592498779E0,-2.386192381E-1,-6.423544884E-1,3.201119602E-1
3.594512939E0,-2.929477394E-1,-5.928196907E-1,3.344930410E-1
3.596496582E0,-3.424825370E-1,-5.443501472E-1,3.462109566E-1
3.598541260E0,-3.861583769E-1,-4.969458580E-1,3.600593805E-1
3.600494385E0,-4.277036786E-1,-4.548679292E-1,3.733751774E-1
3.602508545E0,-4.639226794E-1,-4.197141826E-1,3.930825889E-1
3.604492187E0,-4.996090233E-1,-3.850930929E-1,4.133225977E-1
3.606506348E0,-5.336974859E-1,-3.584614992E-1,4.362258017E-1
3.608489990E0,-5.635249019E-1,-3.419498801E-1,4.495415986E-1
3.610504150E0,-5.912217498E-1,-3.307646215E-1,4.628573954E-1
3.612487793E0,-6.189186573E-1,-3.312972486E-1,4.671184719E-1
3.614501953E0,-6.407565475E-1,-3.344930410E-1,4.729774296E-1
3.616485596E0,-6.673882008E-1,-3.398193717E-1,4.687163532E-1
3.618499756E0,-6.844323874E-1,-3.520699143E-1,4.649879336E-1
3.620452881E0,-6.998787522E-1,-3.696467578E-1,4.580637217E-1
3.622467041E0,-7.110640407E-1,-3.925499618E-1,4.463458061E-1
3.624450684E0,-7.179882526E-1,-4.175836742E-1,4.362258017E-1
3.626464844E0,-7.243798375E-1,-4.436826408E-1,4.266384244E-1
3.628448486E0,-7.259777188E-1,-4.788363874E-1,4.117247164E-1
3.630462646E0,-7.243798375E-1,-5.225121975E-1,4.026699662E-1
3.632446289E0,-7.233145833E-1,-5.672533512E-1,3.909520507E-1
3.634460449E0,-7.190535069E-1,-6.141249537E-1,3.829625845E-1
3.636444092E0,-7.068029642E-1,-6.583334208E-1,3.717772961E-1
3.638488770E0,-6.988134980E-1,-6.988134980E-1,3.589941263E-1
3.640441895E0,-6.769755483E-1,-7.398261428E-1,3.478088379E-1
3.642456055E0,-6.535397172E-1,-7.771103978E-1,3.350256681E-1
3.644439697E0,-6.279733777E-1,-8.101336360E-1,3.206445873E-1
3.646453857E0,-5.981460214E-1,-8.394283652E-1,3.078614175E-1
3.648437500E0,-5.683186054E-1,-8.644620776E-1,2.956108749E-1
3.650451660E0,-5.395564437E-1,-8.905611038E-1,2.865561247E-1
3.652435303E0,-5.054680109E-1,-9.134642482E-1,2.806971967E-1
3.654449463E0,-4.724447727E-1,-9.374327064E-1,2.769687474E-1
3.656433105E0,-4.463458061E-1,-9.709885716E-1,2.743056118E-1
3.658447266E0,-4.095941782E-1,-1.006674886E0,2.673813701E-1
3.660430908E0,-3.808320463E-1,-1.045557022E0,2.625876963E-1
3.662414551E0,-3.456783295E-1,-1.083906531E0,2.577939928E-1
3.664398193E0,-3.169161677E-1,-1.123321414E0,2.514024079E-1
3.666381836E0,-2.854908705E-1,-1.162736177E0,2.423476577E-1
3.668395996E0,-2.524676621E-1,-1.196824670E0,2.359560728E-1
3.670379639E0,-2.247707993E-1,-1.236239433E0,2.237055302E-1
3.672393799E0,-1.917476058E-1,-1.273523688E0,2.199771106E-1
3.674377441E0,-1.587243974E-1,-1.311873198E0,2.109223604E-1
3.676361084E0,-1.246359423E-1,-1.346494317E0,2.082591951E-1
3.678375244E0,-9.161274135E-2,-1.372593284E0,2.087918371E-1
3.680358887E0,-5.912217870E-2,-1.389637470E0,2.071939409E-1
3.682342529E0,-2.343581803E-2,-1.396561742E0,2.071939409E-1
3.684356689E0,6.391586736E-3,-1.402953267E0,2.055960447E-1
3.686340332E0,3.462109342E-2,-1.393898487E0,2.082591951E-1
3.688354492E0,6.604639441E-2,-1.384843826E0,2.103897333E-1
3.690338135E0,9.054747969E-2,-1.375256419E0,2.173139453E-1
3.692352295E0,1.177117229E-1,-1.364071131E0,2.221076339E-1
3.694335937E0,1.384843737E-1,-1.351820588E0,2.306297570E-1
3.696350098E0,1.549959779E-1,-1.339037418E0,2.343581766E-1
3.698364258E0,1.640507281E-1,-1.326254249E0,2.359560728E-1
3.700347900E0,1.704423130E-1,-1.314003706E0,2.396845073E-1
3.702331543E0,1.677791476E-1,-1.307612062E0,2.423476577E-1
3.704345703E0,1.656486243E-1,-1.299090028E0,2.476739883E-1
3.706329346E0,1.544633508E-1,-1.290567875E0,2.556634545E-1
3.708343506E0,1.470064968E-1,-1.283643723E0,2.567287385E-1
3.710327148E0,1.358212233E-1,-1.275121570E0,2.615224123E-1
3.712341309E0,1.225054115E-1,-1.265534163E0,2.631203234E-1
3.714324951E0,1.107875034E-1,-1.250087857E0,2.663161159E-1
3.716339111E0,9.427590668E-2,-1.233043551E0,2.732403278E-1
3.718353271E0,8.042746782E-2,-1.215466738E0,2.806971967E-1
3.720336914E0,6.338323653E-2,-1.203216195E0,2.892192900E-1
3.722320557E0,4.527373984E-2,-1.181910872E0,2.977414131E-1
3.724334717E0,2.290318534E-2,-1.163801432E0,3.036003709E-1
3.726318359E0,3.195793368E-3,-1.148355126E0,3.131877482E-1
3.728332520E0,-1.278317347E-2,-1.129712939E0,3.238403797E-1
3.730316162E0,-3.142530099E-2,-1.111070871E0,3.360909224E-1
3.732330322E0,-4.420847446E-2,-1.090830803E0,3.430151641E-1
3.734313965E0,-5.486112088E-2,-1.071655989E0,3.483414650E-1
3.736328125E0,-6.498113275E-2,-1.050350785E0,3.542004228E-1
3.738342285E0,-7.723167539E-2,-1.031708598E0,3.600593805E-1
3.740295410E0,-8.255799860E-2,-1.008805394E0,3.616572917E-1
3.742309570E0,-8.575379103E-2,-9.922938347E-1,3.680488765E-1
3.744293213E0,-8.628641814E-2,-9.731190801E-1,3.723099232E-1
3.746307373E0,-8.575379103E-2,-9.496832490E-1,3.728425503E-1
3.748291016E0,-8.309062570E-2,-9.278453588E-1,3.733751774E-1
3.750274658E0,-8.096009493E-2,-9.070726633E-1,3.760383427E-1
3.752258301E0,-7.456851006E-2,-8.825715780E-1,3.776362538E-1
3.754241943E0,-6.604639441E-2,-8.644620776E-1,3.765709996E-1
3.756225586E0,-5.219795927E-2,-8.458199501E-1,3.792341352E-1
3.758270264E0,-4.207794741E-2,-8.287757635E-1,3.834952116E-1
3.760223389E0,-2.929477207E-2,-8.111988902E-1,3.856257200E-1
3.762237549E0,-1.278317347E-2,-7.920241356E-1,3.888215125E-1
3.764221191E0,5.326322280E-3,-7.733820081E-1,3.936152160E-1
3.766235352E0,2.290318534E-2,-7.531419992E-1,3.957457542E-1
3.768218994E0,4.261057824E-2,-7.355651259E-1,4.032025933E-1
3.770233154E0,6.018744037E-2,-7.147924304E-1,4.095941782E-1
3.772216797E0,8.042746782E-2,-6.934871674E-1,4.197141826E-1
3.774230957E0,1.033306494E-1,-6.705839634E-1,4.287689328E-1
3.776214600E0,1.288969964E-1,-6.386260390E-1,4.436826408E-1
3.778259277E0,1.581917703E-1,-6.103965044E-1,4.538026452E-1
3.780212402E0,1.864212751E-1,-5.795038939E-1,4.633900523E-1
3.782226562E0,2.130528986E-1,-5.475459099E-1,4.751079381E-1
3.784210205E0,2.391518652E-1,-5.193164349E-1,4.793690145E-1
3.786224365E0,2.663161159E-1,-4.926848114E-1,4.873584807E-1
3.788208008E0,2.902845740E-1,-4.639226794E-1,4.926848114E-1
3.790222168E0,3.158509135E-1,-4.388889670E-1,5.049353242E-1
3.792205811E0,3.360909224E-1,-4.127899706E-1,5.134574771E-1
3.794219971E0,3.563309610E-1,-3.882888854E-1,5.230448246E-1
3.796203613E0,3.771036267E-1,-3.621899188E-1,5.358279943E-1
3.798248291E0,3.914846778E-1,-3.446130455E-1,5.448827744E-1
3.800201416E0,4.021373391E-1,-3.270362020E-1,5.566006899E-1
3.802215576E0,4.175836742E-1,-3.179814517E-1,5.683186054E-1
3.804199219E0,4.223773479E-1,-3.105245829E-1,5.811017752E-1
3.806213379E0,4.266384244E-1,-3.041329980E-1,5.896238685E-1
3.808197021E0,4.255731404E-1,-3.115898669E-1,6.013417840E-1
3.810211182E0,4.197141826E-1,-3.147856593E-1,6.157228351E-1
3.812225342E0,4.058657587E-1,-3.201119602E-1,6.253102422E-1
3.814178467E0,3.994741738E-1,-3.291667104E-1,6.348975897E-1
3.816162109E0,3.904194236E-1,-3.360909224E-1,6.418218613E-1
3.818206787E0,3.771036267E-1,-3.440804183E-1,6.535397172E-1
3.820159912E0,3.675162494E-1,-3.504720032E-1,6.631271243E-1
3.822174072E0,3.573962152E-1,-3.637878001E-1,6.668555737E-1
3.824157715E0,3.467435837E-1,-3.707120419E-1,6.748450398E-1
3.826171875E0,3.366235793E-1,-3.845604658E-1,6.775081754E-1
3.828155518E0,3.275688291E-1,-3.978762627E-1,6.828345060E-1
3.830169678E0,3.169161677E-1,-4.127899706E-1,6.892260909E-1
3.832153320E0,3.014698327E-1,-4.277036786E-1,6.950850487E-1
3.834167480E0,2.886866629E-1,-4.442152679E-1,7.004113793E-1
3.836151123E0,2.769687474E-1,-4.628573954E-1,7.094660997E-1
3.838195801E0,2.700445354E-1,-4.836300611E-1,7.153250575E-1
3.840148926E0,2.572613657E-1,-4.985437691E-1,7.217166424E-1
3.842163086E0,2.503371537E-1,-5.182511806E-1,7.302387953E-1
3.844146729E0,2.428802997E-1,-5.374259353E-1,7.366303802E-1
3.846160889E0,2.375539690E-1,-5.608617067E-1,7.419567108E-1
3.848144531E0,2.300971150E-1,-5.816344023E-1,7.499461770E-1
3.850158691E0,2.221076339E-1,-5.992112756E-1,7.531419992E-1
3.852142334E0,2.183792144E-1,-6.162554622E-1,7.568703890E-1
3.854156494E0,2.205097377E-1,-6.332997084E-1,7.600662112E-1
3.856140137E0,2.162486911E-1,-6.487460732E-1,7.616640925E-1
3.858184814E0,2.231729031E-1,-6.615292430E-1,7.574030161E-1
3.860137939E0,2.258360684E-1,-6.721818447E-1,7.547398806E-1
3.862152100E0,2.380866110E-1,-6.769755483E-1,7.499461770E-1
3.864135742E0,2.476739883E-1,-6.785734296E-1,7.435545921E-1
3.866149902E0,2.567287385E-1,-6.823018789E-1,7.302387953E-1
3.868133545E0,2.737729549E-1,-6.828345060E-1,7.110640407E-1
3.870147705E0,2.849582434E-1,-6.854977012E-1,6.886934638E-1
3.872131348E0,2.993393242E-1,-6.828345060E-1,6.652576327E-1
3.874145508E0,3.142530024E-1,-6.801713705E-1,6.407565475E-1
3.876129150E0,3.265035450E-1,-6.838997602E-1,6.226470470E-1
3.878173828E0,3.392867148E-1,-6.956176758E-1,6.040049195E-1
3.880126953E0,3.510046303E-1,-7.052050829E-1,5.864281058E-1
3.882141113E0,3.664509654E-1,-7.185208797E-1,5.656554103E-1
3.884124756E0,3.787015080E-1,-7.334345579E-1,5.496764779E-1
3.886138916E0,3.893541694E-1,-7.590008974E-1,5.289037824E-1
3.888122559E0,4.042678475E-1,-7.792409658E-1,4.990763962E-1
3.890136719E0,4.138552547E-1,-8.010788560E-1,4.735100567E-1
3.892120361E0,4.250405133E-1,-8.250473142E-1,4.447479248E-1
3.894134521E0,4.362258017E-1,-8.495483994E-1,4.191815555E-1
3.896118164E0,4.442152679E-1,-8.761799932E-1,3.920173049E-1
3.898162842E0,4.484763443E-1,-9.017463326E-1,3.659183383E-1
3.900115967E0,4.548679292E-1,-9.347695708E-1,3.419498801E-1
3.902099609E0,4.601942301E-1,-9.715211987E-1,3.179814517E-1
3.904083252E0,4.639226794E-1,-1.002946496E0,2.940129936E-1
3.906066895E0,4.681837261E-1,-1.029045463E0,2.727077007E-1
3.908050537E0,4.740426838E-1,-1.048220277E0,2.508697808E-1
3.910034180E0,4.804342687E-1,-1.061003447E0,2.332929224E-1
3.912048340E0,4.852279723E-1,-1.069525480E0,2.103897333E-1
3.914031982E0,4.894890189E-1,-1.073786616E0,1.954760253E-1
3.916015625E0,4.921521842E-1,-1.070590734E0,1.752360016E-1
3.918029785E0,4.974785149E-1,-1.068992853E0,1.539307088E-1
3.920013428E0,4.980111420E-1,-1.061536074E0,1.358212233E-1
3.921997070E0,4.969458580E-1,-1.057807565E0,1.171790883E-1
3.924011230E0,5.006743073E-1,-1.047687650E0,9.693906456E-2
3.925994873E0,4.980111420E-1,-1.033306479E0,7.510114461E-2
3.928009033E0,4.926848114E-1,-1.018392801E0,5.805691332E-2
3.929992676E0,4.905542731E-1,-1.005077004E0,3.408846259E-2
3.932006836E0,4.852279723E-1,-9.970875382E-1,9.054748341E-3
3.933990479E0,4.767058492E-1,-9.970875382E-1,-1.757686399E-2
3.936004639E0,4.676510990E-1,-9.954896569E-1,-3.994741663E-2
3.938018799E0,4.649879336E-1,-9.869675040E-1,-6.444849819E-2
3.940002441E0,4.569984376E-1,-9.757822156E-1,-8.735168725E-2
3.941986084E0,4.426173866E-1,-9.629990458E-1,-1.123853996E-1
3.944000244E0,4.340952635E-1,-9.571400881E-1,-1.347559541E-1
3.945983887E0,4.218447208E-1,-9.523464441E-1,-1.533980817E-1
3.947998047E0,4.106594622E-1,-9.486179948E-1,-1.731054783E-1
3.949981689E0,3.994741738E-1,-9.502158761E-1,-1.922802329E-1
3.951995850E0,3.882888854E-1,-9.459548593E-1,-2.130528986E-1
3.953979492E0,3.765709996E-1,-9.384979606E-1,-2.316950262E-1
3.955993652E0,3.659183383E-1,-9.310411215E-1,-2.455434501E-1
3.958007812E0,3.515372574E-1,-9.219864011E-1,-2.599245310E-1
3.959991455E0,3.467435837E-1,-9.113337398E-1,-2.700445354E-1
3.961975098E0,3.382214606E-1,-8.996158242E-1,-2.812298238E-1
3.963989258E0,3.334277868E-1,-8.809736967E-1,-2.897519469E-1
3.965972900E0,3.318298757E-1,-8.628641963E-1,-2.972087860E-1
3.967987061E0,3.286340833E-1,-8.404936790E-1,-3.020024598E-1
3.969970703E0,3.281014562E-1,-8.229168057E-1,-3.004045784E-1
3.971984863E0,3.275688291E-1,-7.968178391E-1,-3.020024598E-1
3.973968506E0,3.249056637E-1,-7.707188129E-1,-3.041329980E-1
3.975982666E0,3.243730366E-1,-7.419567108E-1,-2.966761589E-1
3.977996826E0,3.265035450E-1,-7.169229984E-1,-2.934803665E-1
3.979949951E0,3.211772442E-1,-6.865629554E-1,-2.876214087E-1
3.981964111E0,3.195793331E-1,-6.631271243E-1,-2.796319127E-1
3.983947754E0,3.137203753E-1,-6.428871155E-1,-2.775014043E-1
3.985961914E0,3.057309091E-1,-6.242449880E-1,-2.689792812E-1
3.987945557E0,2.993393242E-1,-6.045376062E-1,-2.631203234E-1
3.989959717E0,2.892192900E-1,-5.917543769E-1,-2.604571581E-1
3.991943359E0,2.780340314E-1,-5.773733258E-1,-2.572613657E-1
3.993957520E0,2.604571581E-1,-5.534048676E-1,-2.551308274E-1
