"Time (s)","Gyroscope x (rad/s)","Gyroscope y (rad/s)","Gyroscope z (rad/s)"
9.139781200E-2,-3.444818854E-1,6.104065776E-1,8.820198774E-1
9.381765600E-2,-3.542557359E-1,6.458367705E-1,9.223369360E-1
9.623671800E-2,-3.628078401E-1,6.788234711E-1,9.406629205E-1
9.865500000E-2,-3.701382279E-1,7.130318880E-1,9.748713374E-1
1.010740620E-1,-3.786903322E-1,7.472403049E-1,1.016410232E0
1.034939060E-1,-3.847989738E-1,7.814487219E-1,1.035957813E0
1.059129680E-1,-3.884641528E-1,8.132137060E-1,1.073831439E0
1.083312500E-1,-3.933510780E-1,8.449786305E-1,1.112926841E0
1.107503120E-1,-3.945727944E-1,8.743001819E-1,1.136139631E0
1.131701560E-1,-3.945727944E-1,9.023999572E-1,1.169126391E0
1.155892180E-1,-3.957945406E-1,9.268345237E-1,1.207000017E0
1.180074480E-1,-3.957945406E-1,9.476039410E-1,1.228991151E0
1.204265100E-1,-3.957945406E-1,9.671515822E-1,1.263199568E0
1.228463540E-1,-3.933510780E-1,9.854775667E-1,1.299851418E0
1.252654160E-1,-3.945727944E-1,1.003803372E0,1.321842551E0
1.276836980E-1,-3.933510780E-1,1.022129297E0,1.347498894E0
1.301027600E-1,-3.945727944E-1,1.033124804E0,1.381707311E0
1.325226040E-1,-4.019031823E-1,1.050229073E0,1.396368027E0
1.349416660E-1,-4.080118239E-1,1.064889789E0,1.415915728E0
1.373599480E-1,-4.190073907E-1,1.085659266E0,1.440350294E0
1.397790100E-1,-4.336681366E-1,1.106428623E0,1.452567577E0
1.421988540E-1,-4.495506287E-1,1.134528399E0,1.466006637E0
1.446178640E-1,-4.690983295E-1,1.157741308E0,1.481889129E0
1.470361460E-1,-4.935328662E-1,1.182175875E0,1.490441203E0
1.494552080E-1,-5.191891789E-1,1.212719083E0,1.497771621E0
1.518750520E-1,-5.460671782E-1,1.248149276E0,1.503880262E0
1.542941140E-1,-5.753887296E-1,1.286022902E0,1.503880262E0
1.567123960E-1,-6.071536541E-1,1.331226826E0,1.505101919E0
1.591314580E-1,-6.376969218E-1,1.377652526E0,1.509988904E0
1.615513020E-1,-6.670184135E-1,1.424078345E0,1.505101919E0
1.639703640E-1,-6.975616217E-1,1.469282269E0,1.503880262E0
1.663885930E-1,-7.293266058E-1,1.509599328E0,1.509988904E0
1.688076560E-1,-7.574263811E-1,1.543807745E0,1.508767128E0
1.712275000E-1,-7.855261564E-1,1.569464087E0,1.514875770E0
1.736465620E-1,-8.099607825E-1,1.591455221E0,1.520984411E0
1.760648430E-1,-8.343953490E-1,1.604894280E0,1.524649620E0
1.784839060E-1,-8.563864827E-1,1.611002922E0,1.533201694E0
1.809037500E-1,-8.759341240E-1,1.613446355E0,1.542975545E0
1.833228120E-1,-8.954818249E-1,1.612224579E0,1.540532112E0
1.857410930E-1,-9.113643169E-1,1.603672504E0,1.546640754E0
1.881601560E-1,-9.272468090E-1,1.592676997E0,1.547862530E0
1.905800000E-1,-9.382423759E-1,1.591455221E0,1.539310336E0
1.929990100E-1,-9.382423759E-1,1.642767906E0,1.519762754E0
1.954172910E-1,-9.370205998E-1,1.658650279E0,1.494106412E0
1.978363540E-1,-9.345771670E-1,1.646432996E0,1.467228293E0
2.002561980E-1,-9.321336746E-1,1.646432996E0,1.442793727E0
2.026752600E-1,-9.260250330E-1,1.647654772E0,1.419580936E0
2.050935410E-1,-9.162512422E-1,1.646432996E0,1.392702818E0
2.075126040E-1,-9.040338993E-1,1.657428622E0,1.360937834E0
2.099324480E-1,-8.893731833E-1,1.673311114E0,1.325507760E0
2.123515100E-1,-8.722689748E-1,1.750280023E0,1.272973418E0
2.147697910E-1,-8.527212739E-1,1.829692483E0,1.210665107E0
2.171888540E-1,-8.331736326E-1,1.846796632E0,1.153243899E0
2.196086980E-1,-8.136259317E-1,1.850461841E0,1.104374647E0
2.220277080E-1,-7.904130816E-1,1.860235691E0,1.054283738E0
2.244459890E-1,-7.659785151E-1,1.868787766E0,1.009079814E0
2.268650520E-1,-7.281048894E-1,1.827249050E0,9.907538295E-1
2.292848960E-1,-6.975616217E-1,1.771049500E0,9.638757706E-1
2.317039580E-1,-6.670184135E-1,1.766162515E0,9.345542789E-1
2.341222390E-1,-6.242578626E-1,1.779601574E0,9.345542789E-1
2.365413020E-1,-5.827190876E-1,1.800370932E0,9.125631452E-1
2.389611460E-1,-5.399585366E-1,1.834579349E0,8.844633698E-1
2.413802080E-1,-4.996415079E-1,1.866344333E0,8.771329522E-1
2.437984890E-1,-4.642114043E-1,1.877339959E0,8.600287437E-1
2.462175520E-1,-4.336681366E-1,1.894444108E0,8.465897441E-1
2.486373960E-1,-4.019031823E-1,1.931095958E0,8.539201021E-1
2.510564060E-1,-3.713599443E-1,1.968969584E0,8.441462517E-1
2.534746870E-1,-3.408167064E-1,1.994625926E0,8.392593265E-1
2.558937500E-1,-3.090517521E-1,2.012952089E0,8.502548933E-1
2.583135930E-1,-2.772867680E-1,2.022725821E0,8.478114605E-1
2.607326560E-1,-2.443000823E-1,2.032499552E0,8.526983857E-1
2.631509370E-1,-2.100916505E-1,2.045938730E0,8.636939526E-1
2.655700000E-1,-1.734397560E-1,2.047160387E0,8.649156690E-1
2.679898430E-1,-1.367878765E-1,2.044717073E0,8.673591614E-1
2.704089060E-1,-1.001360044E-1,2.039829969E0,8.759112358E-1
2.728271870E-1,-6.959276646E-2,2.028834581E0,8.759112358E-1
2.752462500E-1,-3.538433835E-2,2.011730194E0,8.759112358E-1
2.776660930E-1,-6.062830333E-3,1.994625926E0,8.771329522E-1
2.800851560E-1,1.959348656E-2,1.972634792E0,8.673591614E-1
2.825033850E-1,4.158461466E-2,1.957974076E0,8.624722362E-1
2.849224480E-1,5.868882686E-2,1.951865435E0,8.624722362E-1
2.873422910E-1,7.090612501E-2,1.949422002E0,8.575853109E-1
2.897613540E-1,8.312341571E-2,1.953087091E0,8.429245353E-1
2.921796350E-1,8.801033348E-2,1.957974076E0,8.319289684E-1
2.945986980E-1,9.045379609E-2,1.970191360E0,8.123813272E-1
2.970185410E-1,9.045379609E-2,1.990960717E0,7.879467010E-1
2.994376040E-1,8.923206478E-2,2.019060612E0,7.598469257E-1
3.018558850E-1,8.556687087E-2,2.059377670E0,7.256385088E-1
3.042749480E-1,8.190169185E-2,2.115577221E0,6.865431666E-1
3.066947910E-1,8.067996055E-2,2.183994055E0,6.474478245E-1
3.091138540E-1,7.823649794E-2,2.259741306E0,6.059090495E-1
3.115320830E-1,8.067996055E-2,2.342818975E0,5.668137074E-1
3.139511460E-1,8.312341571E-2,2.421009541E0,5.252748728E-1
3.163709890E-1,8.678860217E-2,2.496756792E0,4.751840532E-1
3.187900520E-1,9.167552739E-2,2.566395521E0,4.177627563E-1
3.212083330E-1,9.534070641E-2,2.620151520E0,3.481241763E-1
3.236273960E-1,9.534070641E-2,2.654360056E0,2.613813877E-1
3.260472390E-1,9.045379609E-2,2.669020653E0,1.563126445E-1
3.284663020E-1,7.090612501E-2,2.653138161E0,3.658315912E-2
3.308845830E-1,4.280634224E-2,2.614042997E0,-7.703766972E-2
3.333036460E-1,1.104138047E-2,2.554178238E0,-1.698891222E-1
3.357234890E-1,-2.072358318E-2,2.484539509E0,-2.468580753E-1
3.381425520E-1,-4.882336035E-2,2.400240183E0,-3.006141484E-1
3.405607810E-1,-8.181006461E-2,2.302501917E0,-3.433746696E-1
3.429798430E-1,-1.111315712E-1,2.180328846E0,-3.763613701E-1
3.453996870E-1,-1.477834433E-1,2.054490805E0,-4.130132496E-1
3.478187500E-1,-1.929874271E-1,1.933539510E0,-4.557738006E-1
3.502370310E-1,-2.406348735E-1,1.818696856E0,-4.887605011E-1
3.526560930E-1,-2.858389020E-1,1.709962964E0,-5.254124403E-1
3.550759370E-1,-3.237124979E-1,1.611002922E0,-5.583991408E-1
3.574950000E-1,-3.530340195E-1,1.509599328E0,-5.950509906E-1
3.599132810E-1,-3.676947653E-1,1.393535018E0,-6.488071084E-1
3.623323430E-1,-3.774685860E-1,1.303127050E0,-6.830155253E-1
3.647521870E-1,-3.799120486E-1,1.248149276E0,-7.196674347E-1
3.671712500E-1,-3.786903322E-1,1.216384292E0,-7.587627769E-1
3.695895310E-1,-3.713599443E-1,1.205388665E0,-7.880842686E-1
3.720085410E-1,-3.566991985E-1,1.205388665E0,-8.088536859E-1
3.744283850E-1,-3.310428858E-1,1.212719083E0,-8.332882524E-1
3.768474480E-1,-2.968344390E-1,1.223714709E0,-8.479490280E-1
3.792657290E-1,-2.577390969E-1,1.232266784E0,-8.626097441E-1
3.816847910E-1,-2.076481879E-1,1.243262291E0,-8.723835945E-1
3.841046350E-1,-1.477834433E-1,1.246927500E0,-8.650532365E-1
3.865236980E-1,-7.081449777E-2,1.257923126E0,-8.528358936E-1
3.889419790E-1,1.226310991E-2,1.276249051E0,-8.381751776E-1
3.913610410E-1,1.063362733E-1,1.298240185E0,-8.284013271E-1
3.937808850E-1,2.101832777E-1,1.316566110E0,-8.064101934E-1
3.961999480E-1,3.250258267E-1,1.337335467E0,-7.819756269E-1
3.986182290E-1,4.447553158E-1,1.344665885E0,-7.526541352E-1
4.010372910E-1,5.657066107E-1,1.328783393E0,-7.147805095E-1
4.034571350E-1,6.842143536E-1,1.292131543E0,-6.732416749E-1
4.058761980E-1,7.843961716E-1,1.224936366E0,-6.329246163E-1
4.082944270E-1,8.552564979E-1,1.136971831E0,-5.852771997E-1
4.107134890E-1,9.041256309E-1,1.039233565E0,-5.425166488E-1
4.131333330E-1,9.273384809E-1,9.463821650E-1,-4.997560382E-1
4.155523960E-1,9.346688986E-1,8.633046150E-1,-4.569955170E-1
4.179706770E-1,9.224516153E-1,7.887790799E-1,-4.130132496E-1
4.203897390E-1,8.894649148E-1,7.264708877E-1,-3.714744747E-1
4.228095830E-1,8.405957222E-1,6.824886203E-1,-3.323791325E-1
4.252286460E-1,7.721788883E-1,6.617192030E-1,-2.908403277E-1
4.276469270E-1,6.878795624E-1,6.690496206E-1,-2.505232692E-1
4.300659890E-1,5.962498188E-1,7.069232464E-1,-2.138713747E-1
4.324858330E-1,4.985114038E-1,7.631227970E-1,-1.833281368E-1
4.349048960E-1,3.995513320E-1,8.303179145E-1,-1.588935554E-1
4.373231250E-1,2.957043350E-1,8.938478231E-1,-1.381241530E-1
4.397421870E-1,1.906356066E-1,9.500473738E-1,-1.234633923E-1
4.421620310E-1,8.923206478E-2,9.976948500E-1,-1.185764745E-1
4.445810930E-1,-1.339321025E-2,1.035568357E0,-1.185764745E-1
4.469993750E-1,-1.099098399E-1,1.066111565E0,-1.307937801E-1
4.494184370E-1,-2.003178149E-1,1.088102698E0,-1.503414512E-1
4.518382810E-1,-2.760650516E-1,1.105206847E0,-1.723325700E-1
4.542573430E-1,-3.420384526E-1,1.107650399E0,-2.016540915E-1
4.566756250E-1,-3.982380033E-1,1.089324474E0,-2.334190458E-1
4.590946870E-1,-4.422202706E-1,1.057559490E0,-2.602970898E-1
4.615145310E-1,-4.739851952E-1,1.019685864E0,-2.859534025E-1
4.639335930E-1,-4.947545826E-1,9.781471491E-1,-3.189401031E-1
4.663518750E-1,-4.984197915E-1,9.378300905E-1,-3.494833410E-1
4.687709370E-1,-4.849807620E-1,9.036216736E-1,-3.873569369E-1
4.711907810E-1,-4.629896581E-1,8.706349730E-1,-4.264522791E-1
4.736098430E-1,-4.275594950E-1,8.400917053E-1,-4.618824422E-1
4.760280730E-1,-3.823555112E-1,8.058832884E-1,-4.924256802E-1
4.784471350E-1,-3.273776770E-1,7.594575882E-1,-5.119733810E-1
4.808669790E-1,-2.638477683E-1,7.057014704E-1,-5.571774244E-1
4.832860410E-1,-2.015395463E-1,6.739365458E-1,-5.681729913E-1
4.857043230E-1,-1.331226975E-1,6.531671286E-1,-5.742816329E-1
4.881233850E-1,-8.303179592E-2,6.702713370E-1,-5.852771997E-1
4.905432290E-1,-4.271471873E-2,7.191405296E-1,-5.510687232E-1
4.929622910E-1,-1.217147894E-2,7.875573635E-1,-5.559556484E-1
4.953805730E-1,3.425423801E-2,8.229874969E-1,-5.388514400E-1
4.977996350E-1,6.357574463E-2,8.755218983E-1,-4.814301133E-1
5.002194790E-1,9.900590032E-2,9.292779565E-1,-4.850952923E-1
5.026385410E-1,1.319925934E-1,9.659298658E-1,-4.826518297E-1
5.050567710E-1,1.894138753E-1,9.573777318E-1,-3.983525038E-1
5.074758330E-1,2.138484716E-1,9.805905819E-1,-4.130132496E-1
5.098956770E-1,2.443917096E-1,9.952514172E-1,-4.411130548E-1
5.123147390E-1,2.724914849E-1,1.003803372E0,-4.288957417E-1
5.147330210E-1,2.969260514E-1,9.989165068E-1,-4.789866507E-1
5.171520830E-1,3.176954687E-1,9.805905819E-1,-5.571774244E-1
5.195719270E-1,3.213606477E-1,9.463821650E-1,-6.060465574E-1
5.219909890E-1,3.335779309E-1,8.926261067E-1,-6.646896005E-1
5.244092710E-1,3.519038856E-1,8.193223476E-1,-7.257760763E-1
5.268283330E-1,3.482387066E-1,7.777835131E-1,-7.648714185E-1
5.292481770E-1,3.457952440E-1,7.313578129E-1,-8.345099688E-1
5.316672390E-1,3.360213935E-1,6.824886203E-1,-9.823392630E-1
5.340855210E-1,3.238041103E-1,6.702713370E-1,-1.116729379E0
5.365045830E-1,2.908174098E-1,7.166970372E-1,-1.280441165E0
5.389244270E-1,2.761566639E-1,7.399098873E-1,-1.412387967E0
5.413434890E-1,2.211788446E-1,8.107702136E-1,-1.538226128E0
5.437617180E-1,1.918573380E-1,8.767436147E-1,-1.634742737E0
5.461807810E-1,1.148883775E-1,9.928078651E-1,-1.767911196E0
5.486006250E-1,3.303251043E-2,1.121089339E0,-1.866871357E0
5.510196870E-1,-5.981893092E-2,1.276249051E0,-1.974383473E0
5.534379680E-1,-1.758832186E-1,1.452178121E0,-2.095334530E0
5.558570310E-1,-3.127169311E-1,1.640324354E0,-2.208955526E0
5.582768750E-1,-4.605461955E-1,1.871231318E0,-2.342123985E0
5.606959370E-1,-5.949363708E-1,2.129016399E0,-2.474070787E0
5.631142180E-1,-7.158876061E-1,2.407570601E0,-2.575474262E0
5.655332810E-1,-8.368387818E-1,2.697120428E0,-2.690316916E0
5.679531250E-1,-9.406858087E-1,2.985448599E0,-2.830815792E0
5.703721870E-1,-1.053085089E0,3.245676994E0,-2.915115118E0
5.727904680E-1,-1.141049504E0,3.479027271E0,-3.021405458E0
5.752094790E-1,-1.230235815E0,3.673282385E0,-3.136248112E0
5.776293230E-1,-1.307204723E0,3.856541634E0,-3.215660572E0
5.800483850E-1,-1.354852200E0,3.953058243E0,-3.321950912E0
5.824666660E-1,-1.404943109E0,4.088670254E0,-3.462449789E0
5.848857290E-1,-1.439151525E0,4.230390549E0,-3.552857876E0
5.873055730E-1,-1.470916510E0,4.370889664E0,-3.661591768E0
5.897246350E-1,-1.507568359E0,4.519940376E0,-3.777656078E0
5.921429160E-1,-1.522229195E0,4.649444103E0,-3.833855629E0
5.945619790E-1,-1.541776776E0,4.774060249E0,-3.881503105E0
5.969818230E-1,-1.572320104E0,4.892568111E0,-3.958472013E0
5.994008850E-1,-1.619967461E0,4.965871811E0,-4.022002220E0
6.018191660E-1,-1.621189237E0,5.017184258E0,-4.051323891E0
6.042382290E-1,-1.634628296E0,5.091710091E0,-4.114853859E0
6.066580730E-1,-1.640736938E0,5.149131298E0,-4.162501335E0
6.090771350E-1,-1.622411013E0,5.219991684E0,-4.182048798E0
6.114953640E-1,-1.617524028E0,5.233430386E0,-4.235805035E0
6.139144270E-1,-1.591867685E0,5.255421638E0,-4.273678780E0
6.163342710E-1,-1.558881044E0,5.274969578E0,-4.292004585E0
6.187533850E-1,-1.522229195E0,5.263973713E0,-4.323769569E0
6.211716140E-1,-1.483133793E0,5.223656654E0,-4.339652061E0
6.235906770E-1,-1.446481943E0,5.169900417E0,-4.351869106E0
6.260105210E-1,-1.391504049E0,5.090488434E0,-4.349425793E0
6.284295830E-1,-1.341413140E0,5.000080109E0,-4.375082016E0
6.308478640E-1,-1.281548500E0,4.886459351E0,-4.375082016E0
6.332669270E-1,-1.211909890E0,4.764286518E0,-4.368973732E0
6.356867710E-1,-1.139827847E0,4.637226582E0,-4.384856224E0
6.381058330E-1,-1.060415387E0,4.518718719E0,-4.378747463E0
6.405241140E-1,-9.761159420E-1,4.413650036E0,-4.375082016E0
6.429431770E-1,-8.857079744E-1,4.317133427E0,-4.386077881E0
6.453630210E-1,-7.965217233E-1,4.223060131E0,-4.387299538E0
6.477820830E-1,-7.036703229E-1,4.135095596E0,-4.395851612E0
6.502003640E-1,-6.120405793E-1,4.041022778E0,-4.426394939E0
6.526194270E-1,-5.130804777E-1,3.940840960E0,-4.454494476E0
6.550392710E-1,-4.141204655E-1,3.823554993E0,-4.483816147E0
6.574583330E-1,-3.127169311E-1,3.705047369E0,-4.532685280E0
6.598765620E-1,-2.125350982E-1,3.582874298E0,-4.568115234E0
6.622956250E-1,-1.172402129E-1,3.463144779E0,-4.603545666E0
6.647154680E-1,-2.683223225E-2,3.347080469E0,-4.648749828E0
6.671345310E-1,5.868882686E-2,3.242011786E0,-4.682958126E0
6.695528120E-1,1.393229812E-1,3.134499550E0,-4.712279320E0
6.719718750E-1,2.138484716E-1,3.035539627E0,-4.751374722E0
6.743917180E-1,2.859304845E-1,2.943909883E0,-4.775809288E0
6.768107810E-1,3.567908108E-1,2.859610558E0,-4.797800541E0
6.792290620E-1,4.215424657E-1,2.781419754E0,-4.835674286E0
6.816481250E-1,4.826289415E-1,2.708116055E0,-4.862552166E0
6.840679680E-1,5.400502682E-1,2.638477564E0,-4.885765076E0
6.864870310E-1,5.938063860E-1,2.576169252E0,-4.917530060E0
6.889053120E-1,6.463407278E-1,2.529743433E0,-4.940742970E0
6.913243750E-1,6.915447116E-1,2.490648270E0,-4.961512566E0
6.937442180E-1,7.391921878E-1,2.466213703E0,-4.990833759E0
6.961632810E-1,7.795092463E-1,2.445444107E0,-5.017712116E0
6.985815620E-1,8.210480213E-1,2.423453093E0,-5.054363728E0
7.010005730E-1,8.589216471E-1,2.402683735E0,-5.106898308E0
7.034204680E-1,9.004604816E-1,2.369697094E0,-5.149658680E0
7.058394790E-1,9.322254062E-1,2.345262289E0,-5.220519066E0
7.082577600E-1,9.688773155E-1,2.318384409E0,-5.287714005E0
7.106768230E-1,1.001863956E0,2.291506290E0,-5.362239361E0
7.130966660E-1,1.034850597E0,2.268293381E0,-5.453869343E0
7.155157290E-1,1.066615582E0,2.243858814E0,-5.539390564E0
7.179340100E-1,1.095937014E0,2.227976322E0,-5.628576756E0
7.203530730E-1,1.131367207E0,2.221867800E0,-5.726315022E0
7.227729160E-1,1.168019056E0,2.214537382E0,-5.795953751E0
7.251919790E-1,1.198562384E0,2.220645905E0,-5.874144077E0
7.276102600E-1,1.232770801E0,2.225533009E0,-5.952334881E0
7.300293230E-1,1.266979218E0,2.231641531E0,-6.015864849E0
7.324491660E-1,1.276753068E0,2.226754665E0,-6.100163937E0
7.348682290E-1,1.308517933E0,2.183994055E0,-6.157585621E0
7.372865100E-1,1.301187634E0,2.164446354E0,-6.250436783E0
7.397055730E-1,1.280418158E0,2.147342205E0,-6.331070900E0
7.421254160E-1,1.253540158E0,2.199876547E0,-6.405596733E0
7.445444790E-1,1.236435890E0,2.341597319E0,-6.431252956E0
7.469627080E-1,1.253540158E0,2.528521776E0,-6.401931286E0
7.493817710E-1,1.285305142E0,2.687346697E0,-6.361614227E0
7.518016140E-1,1.332952619E0,2.760650396E0,-6.293197632E0
7.542206770E-1,1.412364960E0,2.755763531E0,-6.216228485E0
7.566389580E-1,1.522320628E0,2.681237936E0,-6.152698517E0
7.590580210E-1,1.668928146E0,2.603047371E0,-6.078173161E0
7.614778640E-1,1.841192007E0,2.550513029E0,-5.992651939E0
7.638969270E-1,2.023229837E0,2.469878912E0,-5.919348240E0
7.663152080E-1,2.201602459E0,2.352592707E0,-5.838714123E0
7.687342710E-1,2.359205484E0,2.237750292E0,-5.783736229E0
7.711541140E-1,2.515586853E0,2.126572847E0,-5.756858349E0
7.735731770E-1,2.669524908E0,2.047160387E0,-5.712875843E0
7.759914580E-1,2.817353964E0,2.021504164E0,-5.671337128E0
7.784105210E-1,2.981065750E0,2.056934357E0,-5.644459248E0
7.808303640E-1,3.139890671E0,2.091142654E0,-5.611472607E0
7.832494270E-1,3.326815367E0,2.126572847E0,-5.583372593E0
7.856677080E-1,3.492970467E0,2.093586206E0,-5.588259697E0
7.880867710E-1,3.656682253E0,2.036164761E0,-5.590703011E0
7.905066140E-1,3.817950487E0,1.999512792E0,-5.590703011E0
7.929256770E-1,3.965779781E0,1.982408643E0,-5.595590115E0
7.953439060E-1,4.095283031E0,1.997069478E0,-5.595590115E0
7.977629680E-1,4.200351715E0,2.023947477E0,-5.585815907E0
8.001828120E-1,4.283429623E0,2.063042879E0,-5.589481354E0
8.026018750E-1,4.356733322E0,2.107025146E0,-5.595590115E0
8.050201560E-1,4.420263290E0,2.144898891E0,-5.595590115E0
8.074392180E-1,4.477684498E0,2.191324472E0,-5.609028816E0
8.098590620E-1,4.537549019E0,2.214537382E0,-5.615137577E0
8.122781250E-1,4.583974838E0,2.259741306E0,-5.622467995E0
8.146964060E-1,4.631622314E0,2.297615051E0,-5.638350487E0
8.171154680E-1,4.673161030E0,2.318384409E0,-5.648124218E0
8.195353120E-1,4.712256432E0,2.333045006E0,-5.650567532E0
8.219543750E-1,4.757460594E0,2.362366676E0,-5.659120083E0
8.243726560E-1,4.812438488E0,2.473543882E0,-5.646902561E0
8.267917180E-1,4.858863831E0,2.621373177E0,-5.622467995E0
8.292115620E-1,4.885742188E0,2.753319979E0,-5.621246338E0
8.316306250E-1,4.893072605E0,2.870606184E0,-5.623689651E0
8.340489060E-1,4.890628815E0,2.974452972E0,-5.629798412E0
8.364679680E-1,4.883298397E0,3.072191477E0,-5.643237591E0
8.388878120E-1,4.864972591E0,3.149160385E0,-5.632241726E0
8.413068750E-1,4.830764294E0,3.220020771E0,-5.604142189E0
8.437251040E-1,4.788003445E0,3.282328844E0,-5.568711758E0
8.461441660E-1,4.724473953E0,3.337306738E0,-5.511290550E0
8.485640100E-1,4.642617702E0,3.381289005E0,-5.446538925E0
8.509830730E-1,4.554653168E0,3.410610437E0,-5.364683151E0
8.534013540E-1,4.444697857E0,3.432601690E0,-5.266944885E0
8.558204160E-1,4.315194607E0,3.443597078E0,-5.182645321E0
8.582402600E-1,4.168586731E0,3.449705839E0,-5.094680786E0
8.606593230E-1,3.996322870E0,3.447262287E0,-5.009159565E0
8.630776040E-1,3.805733204E0,3.435045004E0,-4.940742970E0
8.654966660E-1,3.593152285E0,3.425271273E0,-4.874769688E0
8.679165100E-1,3.367132425E0,3.414275646E0,-4.814904690E0
8.703355730E-1,3.117899418E0,3.400836706E0,-4.761148930E0
8.727538540E-1,2.852784157E0,3.382510662E0,-4.706171036E0
8.751729160E-1,2.570564747E0,3.359297752E0,-4.647527695E0
8.775927600E-1,2.279793024E0,3.326311111E0,-4.593771935E0
8.800118230E-1,1.976804018E0,3.288437605E0,-4.532685280E0
8.824301040E-1,1.668928146E0,3.245676994E0,-4.472820759E0
8.848491660E-1,1.353721976E0,3.207803488E0,-4.414177418E0
8.872690100E-1,1.021411538E0,3.183368921E0,-4.354312897E0
8.896880730E-1,6.915447116E-1,3.162599325E0,-4.289561272E0
8.921063540E-1,3.580125272E-1,3.146716833E0,-4.234583378E0
8.945253640E-1,3.058905154E-2,3.129612684E0,-4.164944649E0
8.969452600E-1,-2.956127226E-1,3.110064983E0,-4.098971367E0
8.993642710E-1,-6.059319377E-1,3.092960835E0,-4.032998085E0
9.017825520E-1,-9.040338993E-1,3.080743551E0,-3.952363253E0
9.042016140E-1,-1.188696980E0,3.064861059E0,-3.872951031E0
9.066214580E-1,-1.455034018E0,3.055087328E0,-3.797203779E0
9.090405210E-1,-1.698158145E0,3.048978567E0,-3.714126110E0
9.114588020E-1,-1.926621556E0,3.048978567E0,-3.639600515E0
9.138778640E-1,-2.136758804E0,3.041648149E0,-3.563853264E0
9.162977080E-1,-2.332235575E0,3.030652523E0,-3.481997490E0
9.187167710E-1,-2.516716719E0,3.011105061E0,-3.402585030E0
9.211350520E-1,-2.696310997E0,2.985448599E0,-3.324394464E0
9.235541140E-1,-2.864909649E0,2.954905510E0,-3.233986378E0
9.259739580E-1,-3.026177883E0,2.924362183E0,-3.146021843E0
9.283930210E-1,-3.176450491E0,2.893818855E0,-3.054392099E0
9.308113020E-1,-3.319392920E0,2.854723692E0,-2.950545311E0
9.332303640E-1,-3.444009304E0,2.815628290E0,-2.852806807E0
9.356502080E-1,-3.558851957E0,2.775311232E0,-2.761177063E0
9.380692710E-1,-3.661477089E0,2.731328964E0,-2.665882349E0
9.404875520E-1,-3.750663519E0,2.693455219E0,-2.582804680E0
9.429066140E-1,-3.828854084E0,2.653138161E0,-2.496061802E0
9.453264580E-1,-3.897270918E0,2.614042997E0,-2.406875610E0
9.477455210E-1,-3.953470469E0,2.571282387E0,-2.326241493E0
9.501638020E-1,-3.996231079E0,2.518748045E0,-2.246829033E0
9.525828640E-1,-4.024330616E0,2.451552868E0,-2.166194916E0
9.550027080E-1,-4.046321869E0,2.373362064E0,-2.091669321E0
9.574217180E-1,-4.054873943E0,2.290284634E0,-2.014700413E0
9.598400000E-1,-4.056095600E0,2.210872173E0,-1.936509848E0
9.622590620E-1,-4.051208973E0,2.146120548E0,-1.858319163E0
9.646789060E-1,-4.040213108E0,2.111912012E0,-1.783793688E0
9.670979680E-1,-4.019443989E0,2.102138281E0,-1.708046436E0
9.695162500E-1,-3.996231079E0,2.119242430E0,-1.637186170E0
9.719353120E-1,-3.959579229E0,2.137568474E0,-1.556552052E0
9.743551560E-1,-3.921705484E0,2.163224697E0,-1.483248234E0
9.767742180E-1,-3.885053635E0,2.185215950E0,-1.409944534E0
9.791925000E-1,-3.842293024E0,2.213315725E0,-1.337862492E0
9.816115620E-1,-3.800754309E0,2.254854441E0,-1.267002106E0
9.840314060E-1,-3.762880802E0,2.300058365E0,-1.193698406E0
9.864504680E-1,-3.728672266E0,2.348927498E0,-1.120394588E0
9.888687500E-1,-3.696907282E0,2.406348944E0,-1.045869112E0
9.912878120E-1,-3.668807507E0,2.457661629E0,-9.750088453E-1
9.937076560E-1,-3.640707731E0,2.493091583E0,-9.041485786E-1
9.961267180E-1,-3.617494822E0,2.512639284E0,-8.271796107E-1
9.985450000E-1,-3.596725464E0,2.538295746E0,-7.465454340E-1
1.000964062E0,-3.585729837E0,2.559065104E0,-6.659113169E-1
1.003383906E0,-3.584508181E0,2.565173626E0,-5.755033493E-1
1.005802968E0,-3.589395046E0,2.559065104E0,-4.850952923E-1
1.008221198E0,-3.605277538E0,2.533408642E0,-4.044611454E-1
1.010640260E0,-3.626046896E0,2.483317852E0,-3.250487447E-1
1.013060104E0,-3.634599209E0,2.407570601E0,-2.431928813E-1
1.015479166E0,-3.670029163E0,2.333045006E0,-1.808846891E-1
1.017897448E0,-3.699350834E0,2.253632784E0,-1.149112880E-1
1.020316510E0,-3.726228714E0,2.169333458E0,-6.848556548E-2
1.022736354E0,-3.754328489E0,2.071594954E0,-2.450331114E-2
1.025155416E0,-3.784871817E0,1.966526151E0,1.214857213E-2
1.027573698E0,-3.821523666E0,1.878561616E0,3.902662173E-2
1.029992760E0,-3.848401785E0,1.805257916E0,7.079158723E-2
1.032412604E0,-3.863062620E0,1.700189114E0,1.196607649E-1
1.034831666E0,-3.880166769E0,1.593898654E0,1.428736150E-1
1.037249948E0,-3.904601336E0,1.502268910E0,1.734168530E-1
1.039669010E0,-3.922927141E0,1.391091585E0,2.015166283E-1
1.042088854E0,-3.938809633E0,1.277470708E0,2.064035535E-1
1.044507916E0,-3.966909409E0,1.212719083E0,2.161773890E-1
1.046926198E0,-3.969353199E0,1.112537265E0,2.540509999E-1
1.049345260E0,-3.990122318E0,1.092989564E0,2.626031041E-1
1.051765104E0,-3.991343975E0,1.062446356E0,3.053636551E-1
1.054184166E0,-3.981570244E0,1.028237939E0,3.432372510E-1
1.056602448E0,-3.953470469E0,1.028237939E0,3.786674142E-1
1.059021510E0,-3.812971592E0,9.928078651E-1,4.275366068E-1
1.061441354E0,-3.369483709E0,1.019685864E0,5.008403063E-1
1.063860416E0,-2.509386301E0,1.016020656E0,6.059090495E-1
1.066278646E0,-1.356073976E0,1.006246805E0,7.378557920E-1
1.068697708E0,-6.226239353E-2,9.708167911E-1,8.380376101E-1
1.071117552E0,8.845779896E-1,1.064889789E0,8.917937279E-1
1.073536614E0,1.574854970E0,1.187062740E0,9.150065780E-1
1.075954896E0,1.989021301E0,1.349552751E0,8.807981610E-1
1.078373958E0,2.189385176E0,1.530368805E0,8.062726855E-1
1.080793802E0,2.262688875E0,1.720958591E0,7.231950760E-1
1.083212864E0,2.249249935E0,1.920100451E0,6.120176911E-1
1.085631146E0,2.189385176E0,2.130238056E0,4.886230528E-1
1.088050208E0,2.103864193E0,2.344040632E0,3.786674142E-1
1.090470052E0,2.008569241E0,2.548069477E0,2.662683129E-1
1.092889114E0,1.921826124E0,2.722776890E0,1.575343758E-1
1.095307396E0,1.841192007E0,2.869384289E0,7.567850500E-2
1.097726458E0,1.756892681E0,3.001331091E0,-8.620828390E-3
1.100146302E0,1.700693130E0,3.062417507E0,-3.549887612E-2
1.102565364E0,1.615172029E0,3.129612684E0,-6.970729679E-2
1.104983646E0,1.536981344E0,3.150382042E0,-9.414188564E-2
1.107402708E0,1.456347227E0,3.123504162E0,-1.088026389E-1
1.109822552E0,1.364717484E0,3.052643776E0,-1.271285862E-1
1.112241614E0,1.286526799E0,2.915810108E0,-1.271285862E-1
1.114659896E0,1.180236340E0,2.770424366E0,-1.271285862E-1
1.117078958E0,1.077611089E0,2.606712580E0,-1.259068549E-1
1.119498802E0,9.737642407E-1,2.429561853E0,-1.112461016E-1
1.121917864E0,8.711389303E-1,2.230419874E0,-8.070286363E-2
1.124336146E0,7.672919631E-1,2.021504164E0,-5.993346497E-2
1.126755156E0,6.597797871E-1,1.807701349E0,-3.427714482E-2
1.129175052E0,5.510458350E-1,1.593898654E0,-6.872205995E-5
1.131594062E0,4.386466742E-1,1.392313361E0,1.825721934E-2
1.134012343E0,3.274692893E-1,1.201723576E0,4.757872596E-2
1.136431406E0,2.126267403E-1,1.025794506E0,8.300888538E-2
1.138851250E0,1.038928106E-1,8.584176898E-1,1.208824962E-1
1.141270312E0,1.837175712E-2,7.057014704E-1,1.819689572E-1
1.143688593E0,-6.348412484E-2,5.676460862E-1,2.491641045E-1
1.146107656E0,-1.270140409E-1,4.405862093E-1,3.224678636E-1
1.148527500E0,-1.697745770E-1,3.342957497E-1,3.969933689E-1
1.150946562E0,-1.978743523E-1,2.475529313E-1,4.776275158E-1
1.153364843E0,-2.088699192E-1,1.779143512E-1,5.521529317E-1
1.155783906E0,-2.027612776E-1,1.204930618E-1,6.242349744E-1
1.158203750E0,-1.844353229E-1,5.207621679E-2,6.877648830E-1
1.160622812E0,-1.636659354E-1,-7.788524497E-3,7.317471504E-1
1.163041093E0,-1.306792349E-1,-5.177078769E-2,7.720642090E-1
1.165460156E0,-9.769254178E-2,-7.376191020E-2,8.050509095E-1
1.167880000E0,-6.226239353E-2,-5.543597415E-2,8.404811025E-1
1.170299062E0,-1.828012802E-2,9.315687232E-3,8.710243106E-1
1.172717343E0,2.814559266E-2,1.119409576E-1,9.040110111E-1
1.175136406E0,8.312341571E-2,2.475529313E-1,9.357759953E-1
1.177556250E0,1.503185481E-1,4.149298966E-1,9.492149949E-1
1.179975312E0,2.297309488E-1,5.859720111E-1,9.455498457E-1
1.182393593E0,2.981477976E-1,7.545706630E-1,9.052327275E-1
1.184812604E0,3.726732731E-1,9.109520316E-1,8.392593265E-1
1.187232500E0,4.374249578E-1,1.072220206E0,7.439644337E-1
1.189651510E0,5.180591345E-1,1.234710217E0,6.401174664E-1
1.192069791E0,5.938063860E-1,1.414304495E0,5.313835144E-1
1.194488854E0,6.683318615E-1,1.604894280E0,4.397538900E-1
1.196908698E0,7.440791130E-1,1.801592708E0,3.664501309E-1
1.199327760E0,8.051655889E-1,1.986073852E0,2.992550135E-1
1.201746041E0,8.870214224E-1,2.111912012E0,2.833725214E-1
1.204165104E0,9.456644654E-1,2.199876547E0,2.491641045E-1
1.206584948E0,9.884249568E-1,2.226754665E0,2.296164036E-1
1.209004010E0,1.022633314E0,2.196211338E0,2.271729559E-1
1.211422291E0,1.044624448E0,2.113133907E0,2.308381349E-1
1.213841354E0,1.045846105E0,1.984852195E0,2.406119704E-1
1.216261198E0,1.022633314E0,1.818696856E0,2.662683129E-1
1.218680260E0,9.835380912E-1,1.624441862E0,2.870377004E-1
1.221098541E0,9.334471822E-1,1.388648152E0,3.126940131E-1
1.223517604E0,8.723607063E-1,1.130863190E0,3.420155346E-1
1.225937448E0,8.063873053E-1,8.620828390E-1,3.627849221E-1
1.228356510E0,7.367486954E-1,5.884154439E-1,3.823325932E-1
1.230774791E0,6.707753539E-1,3.257436454E-1,4.006585479E-1
1.233193854E0,5.986933112E-1,7.895426452E-2,4.116541147E-1
1.235613698E0,5.363850594E-1,-1.495091468E-1,4.250931442E-1
1.238032760E0,4.814071953E-1,-3.572031260E-1,4.312017858E-1
1.240451041E0,4.471987784E-1,-5.404625535E-1,4.299800396E-1
1.242870104E0,4.239859283E-1,-7.041742802E-1,4.189844728E-1
1.245289948E0,4.142120779E-1,-8.532252908E-1,4.092106521E-1
1.247709010E0,4.276511073E-1,-9.827286005E-1,3.872195184E-1
1.250127239E0,4.423118532E-1,-1.115897179E0,3.872195184E-1
1.252546302E0,4.581943452E-1,-1.244178772E0,4.458625317E-1
1.254966146E0,4.960679412E-1,-1.327256441E0,4.959534407E-1
1.257385208E0,5.461589098E-1,-1.366351724E0,5.057272315E-1
1.259803489E0,6.182409525E-1,-1.385899425E0,5.203879476E-1
1.262222552E0,6.866577864E-1,-1.363908291E0,5.228314400E-1
1.264642396E0,7.489660382E-1,-1.329699874E0,5.106141567E-1
1.267061458E0,8.259349465E-1,-1.296713233E0,5.020620227E-1
1.269479739E0,8.821344972E-1,-1.217300773E0,4.654102027E-1
1.271898802E0,9.505513906E-1,-1.109788537E0,4.287583232E-1
1.274318646E0,1.005529165E0,-9.680678248E-1,3.957716227E-1
1.276737708E0,1.050733089E0,-7.835866809E-1,3.432372510E-1
1.279155989E0,1.076389432E0,-5.881099701E-1,2.784855962E-1
1.281575052E0,1.109376073E0,-3.914115429E-1,2.064035535E-1
1.283994896E0,1.149693131E0,-2.044869661E-1,1.355432421E-1
1.286413958E0,1.169240832E0,-2.733619511E-2,6.956986338E-2
1.288832239E0,1.175349474E0,1.522580236E-1,2.192240767E-2
1.291251302E0,1.186344981E0,3.428478539E-1,-3.794233501E-2
1.293671146E0,1.176571250E0,5.199986100E-1,-9.780707210E-2
1.296090208E0,1.177792907E0,6.556105614E-1,-1.161330119E-1
1.298508489E0,1.153358340E0,7.875573635E-1,-1.772194952E-1
1.300927552E0,1.130145431E0,8.828522563E-1,-1.943237036E-1
1.303347396E0,1.119149923E0,9.146172404E-1,-1.857715994E-1
1.305766458E0,1.098380566E0,9.182823896E-1,-1.918802410E-1
1.308184687E0,1.075167656E0,8.730784059E-1,-1.491197199E-1
1.310603750E0,1.048289657E0,8.107702136E-1,-1.124678254E-1
1.313023593E0,1.022633314E0,6.873755455E-1,-5.749000609E-2
1.315442656E0,9.920901656E-1,5.664243102E-1,1.153007383E-3
1.317860937E0,9.554382563E-1,4.247037172E-1,5.002218485E-2
1.320280000E0,9.114560485E-1,2.854265571E-1,1.111086607E-1
1.322699843E0,8.479260802E-1,1.950185597E-1,1.343215108E-1
1.325118906E0,8.063873053E-1,6.795870513E-2,1.892993301E-1
1.327537187E0,7.453008294E-1,-4.321867973E-2,2.271729559E-1
1.329956250E0,6.548928618E-1,-1.421787739E-1,2.601596713E-1
1.332376093E0,5.986933112E-1,-2.509126663E-1,2.992550135E-1
1.334795156E0,5.143939257E-1,-3.669769466E-1,3.444589972E-1
1.337213437E0,4.300945699E-1,-4.793760777E-1,4.006585479E-1
1.339632500E0,3.567908108E-1,-5.697840452E-1,4.593015611E-1
1.342052343E0,2.834870517E-1,-6.418660879E-1,5.203879476E-1
1.344471406E0,2.150702029E-1,-6.675224304E-1,5.765874982E-1
1.346889687E0,1.478750855E-1,-6.931787133E-1,5.985786319E-1
1.349308750E0,9.045379609E-2,-7.237219810E-1,5.924699903E-1
1.351728593E0,5.258017778E-2,-7.322740555E-1,5.655919909E-1
1.354147656E0,6.113228574E-2,-7.090612054E-1,5.057272315E-1
1.356565937E0,1.112231985E-1,-5.441277027E-1,4.104323685E-1
1.358984948E0,2.101832777E-1,-3.657552302E-1,3.053636551E-1
1.361404791E0,2.871522307E-1,-1.617264450E-1,1.941862553E-1
1.363823854E0,3.433517814E-1,9.483674914E-2,1.269911379E-1
1.366242135E0,3.457952440E-1,3.452913165E-1,6.956986338E-2
1.368661198E0,3.396865726E-1,5.309941769E-1,-1.290451502E-3
1.371081041E0,3.189171851E-1,6.947059035E-1,-6.604211032E-2
1.373500104E0,3.384648561E-1,7.863356471E-1,-1.100243703E-1
1.375918385E0,3.396865726E-1,8.449786305E-1,-1.650021970E-1
1.378337448E0,3.775601983E-1,8.547524810E-1,-1.894367933E-1
1.380757291E0,4.288728237E-1,8.559741974E-1,-2.260886729E-1
1.383176354E0,4.826289415E-1,8.266527057E-1,-2.456363440E-1
1.385594635E0,5.718152523E-1,7.692314386E-1,-2.273104042E-1
1.388013698E0,6.719970703E-1,7.264708877E-1,-2.028758079E-1
1.390433541E0,7.526311874E-1,6.776016951E-1,-1.698891222E-1
1.392852604E0,8.381522894E-1,6.030762196E-1,-1.234633923E-1
1.395270885E0,9.187864065E-1,5.261072516E-1,-6.604211032E-2
1.397689948E0,9.664338231E-1,4.784598351E-1,-4.160752520E-2
1.400109791E0,1.009194255E0,4.173733592E-1,-1.228601672E-2
1.402528854E0,1.050733089E0,3.330740035E-1,2.436586656E-2
1.404947135E0,1.053176522E0,2.622137070E-1,1.581376046E-2
1.407366198E0,1.065393806E0,1.803577989E-1,3.780489042E-2
1.409786041E0,1.042181015E0,1.009453982E-1,4.024834931E-2
1.412205104E0,1.018968105E0,2.031125128E-2,1.825721934E-2
1.414623333E0,9.847598076E-1,-6.520980597E-2,1.459203102E-2
1.417042396E0,9.407775402E-1,-1.458439529E-1,2.374737058E-3
1.419462239E0,8.967952728E-1,-2.338084728E-1,-3.733910387E-3
1.421881354E0,8.405957222E-1,-3.083339334E-1,1.153007383E-3
1.424299583E0,7.843961716E-1,-3.853029013E-1,3.596466500E-3
1.426718646E0,7.196444869E-1,-4.598284066E-1,8.483383805E-3
1.429138489E0,6.597797871E-1,-5.392408371E-1,2.680932544E-2
1.431557552E0,5.986933112E-1,-6.210966706E-1,4.391353950E-2
1.433975833E0,5.608196855E-1,-6.992873549E-1,7.323504984E-2
1.436394896E0,5.070635676E-1,-7.603738308E-1,1.123303920E-1
1.438814739E0,4.679681659E-1,-8.239037991E-1,1.330997795E-1
1.441233802E0,4.447553158E-1,-9.057596326E-1,1.673082113E-1
1.443652083E0,4.252076447E-1,-9.790633917E-1,2.015166283E-1
1.446071146E0,4.142120779E-1,-1.069471478E0,2.235077620E-1
1.448490989E0,4.007730484E-1,-1.136666656E0,2.296164036E-1
1.450910052E0,3.787819147E-1,-1.173318505E0,2.491641045E-1
1.453328333E0,3.787819147E-1,-1.194087863E0,2.711552382E-1
1.455747396E0,3.531256020E-1,-1.168431640E0,2.760421336E-1
1.458167239E0,3.555690646E-1,-1.131779671E0,3.114722967E-1
1.460586302E0,3.396865726E-1,-1.074358463E0,3.212461472E-1
1.463004583E0,3.482387066E-1,-1.030376196E0,3.395720720E-1
1.465423646E0,3.421300352E-1,-9.729547501E-1,3.627849221E-1
1.467843489E0,3.604559898E-1,-9.240855575E-1,3.921064436E-1
1.470262552E0,3.555690646E-1,-8.544470072E-1,4.043237269E-1
1.472680833E0,3.824471235E-1,-8.019126654E-1,4.580798149E-1
1.475099843E0,3.812253773E-1,-7.334957719E-1,4.910665154E-1
1.477519687E0,3.848905861E-1,-6.650789380E-1,5.264965892E-1
1.479938750E0,3.897774816E-1,-5.978838205E-1,5.704788566E-1
1.482357031E0,3.873340487E-1,-5.306887031E-1,6.120176911E-1
1.484776093E0,3.897774816E-1,-4.720456898E-1,6.413391829E-1
1.487195937E0,3.897774816E-1,-4.182896018E-1,6.743258834E-1
1.489615000E0,3.848905861E-1,-3.706421554E-1,6.975387335E-1
1.492033281E0,3.751167357E-1,-3.425423801E-1,7.085343003E-1
1.494452343E0,3.616777062E-1,-3.229947090E-1,7.134212255E-1
1.496872187E0,3.409083188E-1,-3.181077838E-1,7.085343003E-1
1.499291250E0,3.189171851E-1,-3.242164254E-1,6.865431666E-1
1.501709531E0,2.859304845E-1,-3.352119923E-1,6.608868837E-1
1.504128593E0,2.553872764E-1,-3.376554549E-1,6.291218996E-1
1.506548437E0,2.138484716E-1,-3.388771713E-1,5.863613486E-1
1.508967500E0,1.735313982E-1,-3.339902759E-1,5.509312153E-1
1.511385781E0,1.332143247E-1,-3.254381418E-1,5.045055151E-1
1.513804843E0,9.656243771E-2,-3.315468132E-1,4.470842779E-1
1.516224687E0,5.868882686E-2,-3.584248424E-1,3.859978020E-1
1.518643750E0,2.936732210E-2,-3.938550055E-1,3.261330426E-1
1.521062031E0,1.470656879E-2,-4.256199598E-1,2.296164036E-1
1.523481093E0,1.226310991E-2,-4.537197351E-1,1.440953463E-1
1.525900937E0,2.203694545E-2,-4.647153020E-1,5.246564373E-2
1.528320000E0,4.036288708E-2,-4.793760777E-1,-4.893789813E-2
1.530738281E0,6.724093109E-2,-4.879281819E-1,-1.478979886E-1
1.533157343E0,9.778416902E-2,-4.830412567E-1,-2.358625084E-1
1.535577187E0,1.454316229E-1,-5.025889277E-1,-3.409312367E-1
1.537996250E0,2.052963674E-1,-5.429059863E-1,-4.337826669E-1
1.540414531E0,2.663828135E-1,-5.868882537E-1,-5.193037987E-1
1.542833593E0,3.176954687E-1,-6.382008791E-1,-6.219290495E-1
1.545253437E0,3.800036609E-1,-6.944004297E-1,-7.123370171E-1
1.547672500E0,4.239859283E-1,-7.383826971E-1,-8.003015518E-1
1.550090781E0,4.740768373E-1,-7.530434728E-1,-8.772705197E-1
1.552509843E0,5.082852840E-1,-7.334957719E-1,-9.200310111E-1
1.554929687E0,5.302764177E-1,-6.724092960E-1,-9.261397123E-1
1.557348750E0,5.498241186E-1,-5.844448209E-1,-9.224745035E-1
1.559767031E0,5.901411772E-1,-5.331321359E-1,-9.078137279E-1
1.562186093E0,6.500059366E-1,-5.355756283E-1,-8.882660866E-1
1.564605885E0,7.257531285E-1,-5.783361793E-1,-8.846008778E-1
1.567024948E0,8.088307381E-1,-6.382008791E-1,-8.943747282E-1
1.569443229E0,9.004604816E-1,-7.249436975E-1,-9.004833698E-1
1.571862291E0,9.969770908E-1,-8.019126654E-1,-9.041485786E-1
1.574282135E0,1.086163163E0,-8.593339324E-1,-9.004833698E-1
1.576701198E0,1.174127698E0,-7.811432481E-1,-8.846008778E-1
1.579119479E0,1.246209741E0,-6.125445962E-1,-8.784922361E-1
1.581538541E0,1.296300650E0,-4.305068851E-1,-8.552793860E-1
1.583958385E0,1.339061260E0,-2.887862623E-1,-8.186274767E-1
1.586377448E0,1.380599976E0,-1.861610264E-1,-7.844190598E-1
1.588795729E0,1.441686511E0,-1.409570426E-1,-7.355498672E-1
1.591214791E0,1.502772927E0,-1.409570426E-1,-6.744634509E-1
1.593634635E0,1.558972478E0,-1.458439529E-1,-6.194856167E-1
1.596053698E0,1.599289536E0,-1.556177884E-1,-5.571774244E-1
1.598471979E0,1.626167655E0,-1.470656842E-1,-4.960908592E-1
1.600891041E0,1.635941505E0,-1.324049383E-1,-4.386695921E-1
1.603310885E0,1.624945879E0,-1.079703346E-1,-3.726961911E-1
1.605729948E0,1.589515805E0,-8.964439481E-2,-3.042793274E-1
1.608148229E0,1.530872703E0,-7.742710412E-2,-2.590753436E-1
1.610567291E0,1.458790660E0,-5.787943676E-2,-2.138713747E-1
1.612987135E0,1.361052394E0,-3.344484419E-2,-1.674456596E-1
1.615406198E0,1.258427024E0,4.428769927E-3,-1.369024217E-1
1.617824479E0,1.143584490E0,4.963275418E-2,-1.014722660E-1
1.620243541E0,1.023855090E0,9.239328653E-2,-6.237692386E-2
1.622663385E0,9.065691233E-1,1.266017109E-1,-3.061195835E-2
1.625082448E0,7.966134548E-1,1.620318592E-1,1.703548990E-2
1.627500729E0,6.891012788E-1,1.485928297E-1,9.033925831E-2
1.629919791E0,5.901411772E-1,7.895426452E-2,1.673082113E-1
1.632339635E0,5.143939257E-1,7.040216029E-2,2.516075671E-1
1.634758698E0,4.325380325E-1,4.718929902E-2,3.261330426E-1
1.637176979E0,3.519038856E-1,2.275471389E-2,3.945499063E-1
1.639596041E0,2.749349475E-1,1.298087742E-2,4.446408153E-1
1.642015885E0,1.881921440E-1,-4.321867973E-2,4.593015611E-1
1.644434948E0,1.100014672E-1,-1.165224463E-1,4.495277107E-1
1.646853229E0,5.013672262E-2,-1.580612510E-1,4.189844728E-1
1.649272291E0,-1.583666541E-2,-2.289215624E-1,3.737804890E-1
1.651692135E0,-7.814487070E-2,-3.034470379E-1,3.151374757E-1
1.654111198E0,-1.306792349E-1,-4.121809602E-1,2.528292835E-1
1.656529479E0,-1.648876518E-1,-6.162097454E-1,2.064035535E-1
1.658948541E0,-1.465617120E-1,-8.043560982E-1,1.404301673E-1
1.661368385E0,-8.303179592E-2,-9.118682742E-1,5.979602039E-2
1.663787448E0,6.154462229E-3,-9.925024509E-1,-2.205985226E-2
1.666205729E0,1.038928106E-1,-1.125671029E0,-1.185764745E-1
1.668624791E0,1.881921440E-1,-1.293048024E0,-2.285321355E-1
1.671044635E0,2.529438138E-1,-1.431103468E0,-3.409312367E-1
1.673463698E0,3.091433644E-1,-1.548389435E0,-4.594389796E-1
1.675881979E0,3.543473482E-1,-1.658345103E0,-5.767250657E-1
1.678301041E0,3.885557652E-1,-1.760970354E0,-6.781286001E-1
1.680720885E0,4.129903615E-1,-1.824500322E0,-7.575410008E-1
1.683139948E0,4.325380325E-1,-1.836717606E0,-8.039667606E-1
1.685558229E0,4.496422410E-1,-1.792735338E0,-8.259578943E-1
1.687977291E0,4.630812705E-1,-1.681558013E0,-8.442838192E-1
1.690397135E0,4.765202999E-1,-1.525176644E0,-8.613880277E-1
1.692816198E0,4.875158370E-1,-1.327256441E0,-8.858225942E-1
1.695234427E0,4.752985537E-1,-1.092684388E0,-9.285831451E-1
1.697653489E0,4.398683906E-1,-8.385645151E-1,-9.664567709E-1
1.700073385E0,3.824471235E-1,-5.966621041E-1,-9.908913374E-1
1.702492448E0,3.079216182E-1,-3.877463639E-1,-9.969999790E-1
1.704910677E0,2.272874862E-1,-2.191477269E-1,-9.701219201E-1
1.707329739E0,1.442098916E-1,-1.006399617E-1,-9.163658619E-1
1.709749583E0,6.968439370E-2,-4.077522084E-2,-8.418403268E-1
1.712168646E0,3.711005207E-3,-2.733619511E-2,-7.477672100E-1
1.714586927E0,-4.515817389E-2,-3.588830307E-2,-6.488071084E-1
1.717005989E0,-8.547524363E-2,-5.665770546E-2,-5.510687232E-1
1.719425885E0,-1.257923096E-1,-9.575304389E-2,-4.533303380E-1
1.721844896E0,-1.587790102E-1,-1.348483860E-1,-3.690310121E-1
1.724263177E0,-1.905439794E-1,-1.800523847E-1,-2.908403277E-1
1.726682239E0,-2.210872024E-1,-2.167042643E-1,-2.321973145E-1
1.729102083E0,-2.479652613E-1,-2.374736667E-1,-1.857715994E-1
1.731521146E0,-2.699564099E-1,-2.399171293E-1,-1.430110782E-1
1.733939427E0,-2.895040810E-1,-2.325867414E-1,-1.124678254E-1
1.736358489E0,-2.992779016E-1,-2.032652497E-1,-9.292015433E-2
1.738778333E0,-3.041648269E-1,-1.727220118E-1,-7.092902809E-2
1.741197396E0,-3.090517521E-1,-1.446222216E-1,-6.359864771E-2
1.743615677E0,-3.102734685E-1,-1.348483860E-1,-5.871173367E-2
1.746034739E0,-3.188255727E-1,-1.385135800E-1,-5.871173367E-2
1.748454583E0,-3.249342442E-1,-1.556177884E-1,-6.359864771E-2
1.750873646E0,-3.273776770E-1,-1.519526094E-1,-7.337248325E-2
1.753291927E0,-2.833954394E-1,-2.244927734E-2,-6.848556548E-2
1.755710989E0,-2.259741277E-1,1.314886212E-1,-8.558978140E-2
1.758130833E0,-1.881005168E-1,2.402225435E-1,-9.414188564E-2
1.760549896E0,-1.673311144E-1,2.842048407E-1,-9.536361694E-2
1.762968177E0,-1.612224728E-1,3.000873327E-1,-1.039157212E-1
1.765387239E0,-1.636659354E-1,3.086394370E-1,-1.014722660E-1
1.767807083E0,-1.661093831E-1,3.257436454E-1,-8.925496787E-2
1.770226146E0,-1.490051746E-1,3.391826749E-1,-8.558978140E-2
1.772644427E0,-1.123533025E-1,3.098611534E-1,-1.075809076E-1
1.775063489E0,-7.692313939E-2,2.402225435E-1,-1.466762573E-1
1.777483333E0,-2.805396356E-2,1.534797549E-1,-1.931019723E-1
1.779902396E0,2.448040433E-2,8.261945099E-2,-2.407494336E-1
1.782320677E0,7.823649794E-2,3.619373217E-2,-2.957272232E-1
1.784739739E0,1.344360560E-1,-4.123336170E-3,-3.421529531E-1
1.787159583E0,1.820835024E-1,7.635814836E-4,-3.824700117E-1
1.789578646E0,2.358396053E-1,2.397644147E-2,-4.191219211E-1
1.791996927E0,2.895956933E-1,6.551524252E-2,-4.582172632E-1
1.794415989E0,3.347996771E-1,1.339320838E-1,-4.899822176E-1
1.796835833E0,3.616777062E-1,2.353356183E-1,-5.241907239E-1
1.799254896E0,3.848905861E-1,3.782780170E-1,-5.791684985E-1
1.801673177E0,4.068817198E-1,5.236638188E-1,-6.109334826E-1
1.804092239E0,4.239859283E-1,7.130318880E-1,-6.402549744E-1
1.806512083E0,4.325380325E-1,9.488256574E-1,-6.659113169E-1
1.808931146E0,4.374249578E-1,1.218827724E0,-6.756851673E-1
1.811349427E0,4.484204948E-1,1.504712462E0,-6.695765257E-1
1.813768489E0,4.618595243E-1,1.775936365E0,-6.524723172E-1
1.816188333E0,4.740768373E-1,2.009286880E0,-6.231507659E-1
1.818607396E0,4.752985537E-1,2.190102816E0,-5.974944830E-1
1.821025677E0,4.679681659E-1,2.314719200E0,-5.791684985E-1
1.823444739E0,4.508639574E-1,2.389244556E0,-5.608425736E-1
1.825864583E0,4.300945699E-1,2.399018526E0,-5.474035740E-1
1.828283646E0,4.166555405E-1,2.344040632E0,-5.229689479E-1
1.830701927E0,4.019947946E-1,2.224311113E0,-4.924256802E-1
1.833120989E0,3.848905861E-1,2.047160387E0,-4.606606960E-1
1.835540833E0,3.653429151E-1,1.826027274E0,-4.288957417E-1
1.837959896E0,3.470169604E-1,1.565798879E0,-3.971307874E-1
1.840378177E0,3.189171851E-1,1.283579350E0,-3.629223704E-1
1.842797239E0,2.847087681E-1,9.854775667E-1,-3.311573863E-1
1.845217083E0,2.468351573E-1,6.910407543E-1,-3.091662526E-1
1.847636146E0,2.004094422E-1,3.917170167E-1,-2.810664773E-1
1.850054427E0,1.466533542E-1,1.009453982E-1,-2.566318810E-1
1.852473489E0,8.923206478E-2,-1.751654595E-1,-2.383059710E-1
1.854893333E0,2.448040433E-2,-4.378372729E-1,-2.126496434E-1
1.857312396E0,-4.393645003E-2,-6.711875796E-1,-1.918802410E-1
1.859730677E0,-1.172402129E-1,-8.849902153E-1,-1.576718241E-1
1.862149739E0,-1.929874271E-1,-1.067028046E0,-1.234633923E-1
1.864569583E0,-2.662912011E-1,-1.216078997E0,-9.414188564E-2
1.866988646E0,-3.395949900E-1,-1.327256441E0,-6.726383418E-2
1.869406927E0,-4.092335701E-1,-1.399338484E0,-4.405098036E-2
1.871825989E0,-4.752069712E-1,-1.432325125E0,-2.328158170E-2
1.874245833E0,-5.350716114E-1,-1.429881692E0,-7.399098482E-3
1.876664896E0,-5.876060128E-1,-1.396895051E0,2.374737058E-3
1.879083177E0,-6.352534294E-1,-1.337030292E0,1.092684269E-2
1.881502239E0,-6.731270552E-1,-1.258839607E0,1.703548990E-2
1.883922083E0,-7.048920393E-1,-1.172096729E0,1.825721934E-2
1.886341146E0,-7.268831730E-1,-1.085353971E0,1.581376046E-2
1.888759427E0,-7.427656651E-1,-9.961676002E-1,1.581376046E-2
1.891178489E0,-7.549829483E-1,-9.130899906E-1,1.581376046E-2
1.893598333E0,-7.598698735E-1,-8.336775899E-1,2.374737058E-3
1.896017396E0,-7.586480975E-1,-7.664824724E-1,-1.961639337E-2
1.898435677E0,-7.549829483E-1,-7.163915634E-1,-3.916406259E-2
1.900854739E0,-7.488743067E-1,-6.821831465E-1,-6.237692386E-2
1.903274583E0,-7.427656651E-1,-6.601920128E-1,-7.825940102E-2
1.905693646E0,-7.329918146E-1,-6.479747295E-1,-8.070286363E-2
1.908111927E0,-7.207745314E-1,-6.394225955E-1,-8.436805010E-2
1.910530989E0,-7.061137557E-1,-6.394225955E-1,-7.703766972E-2
1.912950833E0,-6.865661144E-1,-6.345357299E-1,-6.115519628E-2
1.915369896E0,-6.633532047E-1,-6.259835958E-1,-4.527271166E-2
1.917788177E0,-6.352534294E-1,-6.027707458E-1,-3.061195835E-2
1.920207239E0,-6.034885049E-1,-5.710057616E-1,-6.177369040E-3
1.922627083E0,-5.656148791E-1,-5.294669867E-1,9.705113247E-3
1.925046146E0,-5.240760446E-1,-4.867064357E-1,2.314413711E-2
1.927464427E0,-4.825373292E-1,-4.427241683E-1,4.147007689E-2
1.929883489E0,-4.361115992E-1,-3.999636471E-1,5.368737504E-2
1.932303333E0,-3.786903322E-1,-3.620900512E-1,6.590466946E-2
1.934722396E0,-2.968344390E-1,-3.352119923E-1,9.644790739E-2
1.937140677E0,-1.881005168E-1,-3.168860376E-1,1.233259439E-1
1.939559739E0,-5.004509166E-2,-3.181077838E-1,1.673082113E-1
1.941979583E0,1.209970340E-1,-3.523162007E-1,2.173991203E-1
1.944398646E0,3.433517814E-1,-4.219547808E-1,2.418337017E-1
1.946816927E0,5.962498188E-1,-4.977020025E-1,2.552727461E-1
1.949235989E0,8.735824227E-1,-5.807796121E-1,2.894811630E-1
1.951655833E0,1.142362714E0,-6.626355052E-1,3.151374757E-1
1.954074896E0,1.387930393E0,-7.298306227E-1,3.359068930E-1
1.956493177E0,1.584628820E0,-7.762563229E-1,3.578980267E-1
1.958912239E0,1.722684264E0,-8.006908894E-1,3.664501309E-1
1.961332083E0,1.795988083E0,-8.067995310E-1,3.750022352E-1
1.963751146E0,1.788657665E0,-7.786997557E-1,3.859978020E-1
1.966169427E0,1.710466981E0,-7.078394890E-1,3.811108768E-1
1.968588489E0,1.605398178E0,-6.101011038E-1,3.737804890E-1
1.971008333E0,1.494220853E0,-4.903716445E-1,3.688935935E-1
1.973427396E0,1.386708617E0,-3.633117676E-1,3.627849221E-1
1.975845677E0,1.284083366E0,-2.228129208E-1,3.603414893E-1
1.978264739E0,1.179014683E0,-8.964439481E-2,3.713370264E-1
1.980684635E0,1.069059014E0,4.352410510E-2,3.798891306E-1
1.983103698E0,9.566600323E-1,1.608101279E-1,3.933281600E-1
1.985521979E0,8.467043638E-1,2.671006322E-1,4.043237269E-1
1.987940989E0,7.428573370E-1,3.452913165E-1,4.214279354E-1
1.990360833E0,6.390103698E-1,4.063777924E-1,4.373104274E-1
1.992779948E0,5.339416265E-1,4.491383135E-1,4.519711733E-1
1.995198229E0,4.313162863E-1,4.674642384E-1,4.739623070E-1
1.997617291E0,3.238041103E-1,4.662425220E-1,4.971751571E-1
2.000037135E0,2.236223072E-1,4.369210005E-1,5.301617980E-1
2.002456198E0,1.161101088E-1,3.929387629E-1,5.631484985E-1
2.004874479E0,1.226310991E-2,3.416261077E-1,5.912482738E-1
2.007293541E0,-9.769254178E-2,2.732092738E-1,6.156828403E-1
2.009713385E0,-2.100916505E-1,1.974620223E-1,6.388957500E-1
2.012132448E0,-3.383732438E-1,1.266017109E-1,6.596651077E-1
2.014550729E0,-4.507723749E-1,5.696313456E-2,6.828779578E-1
2.016969791E0,-5.656148791E-1,-1.267544273E-2,7.012039423E-1
2.019389635E0,-6.865661144E-1,-8.109229058E-2,7.231950760E-1
2.021808698E0,-7.940782905E-1,-1.434004903E-1,7.500731349E-1
2.024226979E0,-8.918166161E-1,-1.996000558E-1,7.818380594E-1
2.026646041E0,-9.834463596E-1,-2.521343827E-1,8.233768940E-1
2.029065885E0,-1.053085089E0,-3.205512464E-1,8.588070273E-1
2.031484948E0,-1.130053997E0,-3.975201845E-1,8.844633698E-1
2.033903229E0,-1.214353323E0,-4.744891524E-1,9.076762199E-1
2.036322291E0,-1.283991933E0,-5.502363443E-1,9.272238612E-1
2.038742135E0,-1.319422007E0,-6.186532378E-1,9.296673536E-1
2.041161198E0,-1.319422007E0,-6.846266389E-1,9.101196527E-1
2.043579479E0,-1.275439739E0,-7.603738308E-1,8.698025942E-1
2.045998541E0,-1.220461965E0,-8.300124407E-1,7.891684771E-1
2.048418385E0,-1.147158146E0,-8.825467825E-1,6.682172418E-1
2.050837448E0,-1.055528522E0,-9.020944834E-1,5.057272315E-1
2.053255729E0,-9.565683007E-1,-8.874337077E-1,3.102505803E-1
2.055674791E0,-8.417257071E-1,-8.434514403E-1,9.400444478E-2
2.058094635E0,-7.244396806E-1,-7.615955472E-1,-1.307937801E-1
2.060513698E0,-6.059319377E-1,-6.406443715E-1,-3.409312367E-1
2.062931979E0,-4.825373292E-1,-4.928150773E-1,-5.193037987E-1
2.065351041E0,-3.591426611E-1,-3.095556796E-1,-6.304811835E-1
2.067770885E0,-2.357479781E-1,-1.250745505E-1,-6.830155253E-1
2.070189948E0,-1.135750338E-1,5.207621679E-2,-6.879024506E-1
2.072608229E0,3.711005207E-3,2.011272013E-1,-6.646896005E-1
2.075027291E0,1.368795186E-1,2.780961990E-1,-6.036031246E-1
2.077447135E0,2.456134409E-1,3.171915412E-1,-5.364080071E-1
2.079866198E0,3.482387066E-1,3.049742281E-1,-4.728780091E-1
2.082284479E0,4.264293909E-1,2.732092738E-1,-4.288957417E-1
2.084703541E0,4.997331500E-1,2.109010369E-1,-3.763613701E-1
2.087123385E0,5.461589098E-1,1.461493820E-1,-3.494833410E-1
2.089542448E0,5.779238939E-1,6.795870513E-2,-3.372660279E-1
2.091960729E0,5.876977444E-1,-2.000581846E-2,-3.421529531E-1
2.094379791E0,5.876977444E-1,-1.055268794E-1,-3.274922073E-1
2.096799635E0,5.644848347E-1,-1.788306534E-1,-3.641440868E-1
2.099218750E0,5.314981341E-1,-2.460257709E-1,-3.898003995E-1
2.101636979E0,4.838506579E-1,-3.058905005E-1,-4.056828916E-1
2.104056041E0,4.435335994E-1,-3.694204092E-1,-4.472216964E-1
2.106475885E0,3.824471235E-1,-4.121809602E-1,-4.740997255E-1
2.108895000E0,3.164737225E-1,-4.586066604E-1,-4.618824422E-1
2.111313229E0,2.297309488E-1,-4.598284066E-1,-5.083082318E-1
2.113732291E0,1.747531295E-1,-4.928150773E-1,-4.875387549E-1
2.116152187E0,1.002276316E-1,-5.013672113E-1,-4.850952923E-1
2.118571250E0,2.448040433E-2,-5.038106441E-1,-5.156385899E-1
2.120989531E0,-4.515817389E-2,-4.989237785E-1,-5.107516646E-1
2.123408593E0,-1.135750338E-1,-4.891498983E-1,-5.254124403E-1
2.125828437E0,-1.893222481E-1,-4.732674062E-1,-5.510687232E-1
2.128247500E0,-2.614043057E-1,-4.744891524E-1,-5.840554237E-1
2.130665781E0,-3.310428858E-1,-4.805977941E-1,-6.194856167E-1
2.133084843E0,-4.019031823E-1,-4.830412567E-1,-6.549157500E-1
2.135504687E0,-4.813156128E-1,-4.842629731E-1,-6.988980174E-1
2.137923750E0,-5.314064622E-1,-5.086975694E-1,-7.135587931E-1
2.140342031E0,-6.022667289E-1,-5.196931362E-1,-7.489889264E-1
2.142761093E0,-6.584662795E-1,-5.306887031E-1,-7.807539105E-1
2.145180937E0,-7.219962478E-1,-5.526798368E-1,-8.137405515E-1
2.147600000E0,-7.769740820E-1,-5.734492540E-1,-8.418403268E-1
2.150018281E0,-8.282867074E-1,-5.929968953E-1,-8.736053109E-1
2.152437343E0,-8.722689748E-1,-6.186532378E-1,-9.114789367E-1
2.154857187E0,-9.125860333E-1,-6.491964459E-1,-9.444656372E-1
2.157276250E0,-9.504596591E-1,-6.785179377E-1,-9.762306213E-1
2.159694531E0,-9.834463596E-1,-7.078394890E-1,-9.908913374E-1
2.162113593E0,-1.016433120E0,-7.408261895E-1,-9.994434714E-1
2.164533437E0,-1.042089462E0,-7.652607560E-1,-1.005552053E0
2.166952500E0,-1.061637163E0,-7.958039641E-1,-9.945565462E-1
2.169370781E0,-1.079963088E0,-8.263472319E-1,-9.701219201E-1
2.171789843E0,-1.090958595E0,-8.568904400E-1,-9.395787120E-1
2.174209687E0,-1.093402147E0,-8.837684989E-1,-8.992616534E-1
2.176628750E0,-1.090958595E0,-9.204204082E-1,-8.528358936E-1
2.179047031E0,-1.083628297E0,-9.509636164E-1,-8.125188351E-1
2.181466093E0,-1.067745805E0,-9.668461084E-1,-7.697583437E-1
2.183885937E0,-1.042089462E0,-9.399680495E-1,-7.221108675E-1
2.186305000E0,-1.009102821E0,-8.849902153E-1,-6.732416749E-1
2.188723281E0,-9.651204348E-1,-8.214603066E-1,-6.280376911E-1
2.191142396E0,-9.052556753E-1,-7.579303980E-1,-5.926075578E-1
2.193562239E0,-8.343953490E-1,-7.017308474E-1,-5.669512153E-1
2.195981302E0,-7.598698735E-1,-6.504181623E-1,-5.425166488E-1
2.198399583E0,-6.816791892E-1,-6.027707458E-1,-5.168603063E-1
2.200818646E0,-5.998232961E-1,-5.600101948E-1,-4.960908592E-1
2.203238489E0,-5.191891789E-1,-5.111410618E-1,-4.728780091E-1
2.205657552E0,-4.422202706E-1,-4.720456898E-1,-4.496651590E-1
2.208075833E0,-3.701382279E-1,-4.378372729E-1,-4.313392043E-1
2.210494896E0,-2.956127226E-1,-4.048505723E-1,-4.130132496E-1
2.212914739E0,-2.308610529E-1,-3.767507970E-1,-4.044611454E-1
2.215333802E0,-1.685528457E-1,-3.559813797E-1,-4.069046080E-1
2.217752083E0,-1.099098399E-1,-3.523162007E-1,-4.093480706E-1
2.220171146E0,-5.615373701E-2,-3.645334840E-1,-4.240088165E-1
2.222590989E0,-9.728020057E-3,-3.877463639E-1,-4.447782338E-1
2.225010052E0,3.181077912E-2,-4.011853933E-1,-4.753214717E-1
2.227428333E0,6.357574463E-2,-4.134026766E-1,-5.107516646E-1
2.229847396E0,8.801033348E-2,-4.207330644E-1,-5.486252904E-1
2.232267239E0,1.051145419E-1,-4.170678556E-1,-5.889423490E-1
2.234686302E0,1.161101088E-1,-4.036288261E-1,-6.317028999E-1
2.237104583E0,1.319925934E-1,-3.804159760E-1,-6.769068837E-1
2.239523646E0,1.381012499E-1,-3.572031260E-1,-7.257760763E-1
2.241943489E0,1.429881603E-1,-3.633117676E-1,-7.844190598E-1
2.244362604E0,1.405447125E-1,-3.962984681E-1,-8.491707444E-1
2.246780885E0,1.332143247E-1,-4.207330644E-1,-9.090355039E-1
2.249199948E0,1.222187504E-1,-4.366155267E-1,-9.713436961E-1
2.251619791E0,1.087797359E-1,-4.512763023E-1,-1.029986620E0
2.254038854E0,8.801033348E-2,-4.708239734E-1,-1.084964514E0
2.256457135E0,6.601920724E-2,-4.793760777E-1,-1.132611871E0
2.258876198E0,4.036288708E-2,-4.696022272E-1,-1.174150705E0
2.261296041E0,4.932732787E-3,-4.842629731E-1,-1.213245988E0
2.263715104E0,-3.294088319E-2,-5.050324202E-1,-1.240124106E0
2.266133385E0,-7.570140809E-2,-5.196931362E-1,-1.253563166E0
2.268552448E0,-1.196836755E-1,-5.319104195E-1,-1.263336897E0
2.270972291E0,-1.697745770E-1,-5.661188364E-1,-1.276775956E0
2.273391354E0,-2.174220234E-1,-6.125445962E-1,-1.282884598E0
2.275809635E0,-2.662912011E-1,-6.357574463E-1,-1.284106374E0
2.278228698E0,-3.114952147E-1,-6.528616548E-1,-1.269445658E0
2.280648541E0,-3.566991985E-1,-6.724092960E-1,-1.254784822E0
2.283067604E0,-3.994597197E-1,-6.956222057E-1,-1.235237122E0
2.285485885E0,-4.324464202E-1,-7.151698470E-1,-1.215689540E0
2.287904948E0,-4.654331207E-1,-7.298306227E-1,-1.191254973E0
2.290324791E0,-4.935328662E-1,-7.383826971E-1,-1.148494363E0
2.292743906E0,-5.216326118E-1,-7.029525638E-1,-1.102068663E0
2.295162135E0,-5.362933874E-1,-6.675224304E-1,-1.054421186E0
2.297581250E0,-5.460671782E-1,-6.516399384E-1,-1.003108621E0
2.300001093E0,-5.448454618E-1,-6.394225955E-1,-9.505742788E-1
2.302420156E0,-5.387368202E-1,-6.296488047E-1,-9.029268026E-1
2.304838437E0,-5.277412534E-1,-6.357574463E-1,-8.491707444E-1
2.307257500E0,-5.167456865E-1,-6.430878043E-1,-7.978581190E-1
2.309677343E0,-4.996415079E-1,-6.504181623E-1,-7.587627769E-1
2.312096406E0,-4.849807620E-1,-6.553050876E-1,-7.245543599E-1
2.314514687E0,-4.666548371E-1,-6.540833712E-1,-6.915676594E-1
2.316933750E0,-4.507723749E-1,-6.418660879E-1,-6.598026752E-1
2.319353593E0,-4.348898828E-1,-6.198749542E-1,-6.255942583E-1
2.321772656E0,-4.202291369E-1,-5.917751789E-1,-5.962727666E-1
2.324190937E0,-4.128987491E-1,-5.783361793E-1,-5.755033493E-1
2.326610000E0,-4.043466449E-1,-5.710057616E-1,-5.535122156E-1
2.329029843E0,-4.019031823E-1,-5.551232696E-1,-5.266341567E-1
2.331448906E0,-4.055683613E-1,-5.319104195E-1,-5.009778142E-1
2.333867187E0,-4.092335701E-1,-5.025889277E-1,-4.753214717E-1
2.336286250E0,-4.141204655E-1,-4.671587646E-1,-4.447782338E-1
2.338706146E0,-4.202291369E-1,-4.353938103E-1,-4.166784585E-1
2.341125208E0,-4.251160324E-1,-4.097374976E-1,-3.849134743E-1
2.343543489E0,-4.336681366E-1,-3.877463639E-1,-3.494833410E-1
2.345962552E0,-4.385550618E-1,-3.791942596E-1,-3.177183568E-1
2.348382396E0,-4.434419870E-1,-3.779725134E-1,-2.908403277E-1
2.350801458E0,-4.483289123E-1,-3.853029013E-1,-2.566318810E-1
2.353219739E0,-4.519940913E-1,-3.926332891E-1,-2.224234790E-1
2.355638802E0,-4.568810165E-1,-3.950767219E-1,-1.869933307E-1
2.358058646E0,-4.581027329E-1,-4.085157514E-1,-1.369024217E-1
2.360477708E0,-4.556592703E-1,-4.207330644E-1,-9.536361694E-2
2.362895989E0,-4.581027329E-1,-4.451676309E-1,-6.848556548E-2
2.365315052E0,-4.581027329E-1,-4.696022272E-1,-5.626827851E-2
2.367734896E0,-4.581027329E-1,-4.989237785E-1,-5.015962943E-2
2.370153958E0,-4.593244791E-1,-5.294669867E-1,-4.649444297E-2
2.372572239E0,-4.593244791E-1,-5.514581203E-1,-5.138136074E-2
2.374991354E0,-4.629896581E-1,-5.722274780E-1,-5.749000609E-2
2.377411198E0,-4.642114043E-1,-5.856665373E-1,-6.359864771E-2
2.379830260E0,-4.654331207E-1,-5.954403877E-1,-6.848556548E-2
2.382248541E0,-4.666548371E-1,-6.003272533E-1,-7.703766972E-2
2.384667604E0,-4.666548371E-1,-5.966621041E-1,-8.558978140E-2
2.387087448E0,-4.654331207E-1,-5.844448209E-1,-9.658534080E-2
2.389506510E0,-4.617679119E-1,-5.746709704E-1,-1.051374525E-1
2.391924791E0,-4.581027329E-1,-5.600101948E-1,-1.161330119E-1
2.394343854E0,-4.544375539E-1,-5.429059863E-1,-1.210199371E-1
2.396763698E0,-4.483289123E-1,-5.245800614E-1,-1.356806904E-1
2.399182760E0,-4.434419870E-1,-4.989237785E-1,-1.527848989E-1
2.401601041E0,-4.409985244E-1,-4.757108688E-1,-1.613370180E-1
2.404020104E0,-4.397768080E-1,-4.488328397E-1,-1.747760326E-1
2.406439948E0,-4.373333454E-1,-4.207330644E-1,-1.869933307E-1
2.408859062E0,-4.312247038E-1,-3.914115429E-1,-1.918802410E-1
2.411277291E0,-4.238943160E-1,-3.608683050E-1,-2.028758079E-1
2.413696354E0,-4.190073907E-1,-3.303250670E-1,-2.102061957E-1
2.416116250E0,-4.104552865E-1,-3.010035753E-1,-2.138713747E-1
2.418535312E0,-4.043466449E-1,-2.716820538E-1,-2.175365686E-1
2.420953593E0,-3.970162570E-1,-2.460257709E-1,-2.187582999E-1
2.423372656E0,-3.921293616E-1,-2.228129208E-1,-2.150931060E-1
2.425792500E0,-3.896858990E-1,-1.971565932E-1,-2.175365686E-1
2.428211562E0,-3.909076154E-1,-1.739437282E-1,-2.199800313E-1
2.430629843E0,-3.933510780E-1,-1.592829823E-1,-2.163148373E-1
2.433048906E0,-3.970162570E-1,-1.470656842E-1,-2.138713747E-1
2.435468750E0,-3.994597197E-1,-1.372918487E-1,-2.089844644E-1
2.437887812E0,-3.994597197E-1,-1.262962818E-1,-2.089844644E-1
2.440306093E0,-3.982380033E-1,-1.189659014E-1,-2.028758079E-1
2.442725156E0,-3.884641528E-1,-1.091920659E-1,-2.004323602E-1
2.445145052E0,-3.811337948E-1,-1.043051481E-1,-1.979888976E-1
2.447564114E0,-3.676947653E-1,-1.030834243E-1,-2.004323602E-1
2.449982396E0,-3.554774523E-1,-1.043051481E-1,-2.028758079E-1
2.452401458E0,-3.408167064E-1,-1.153007150E-1,-2.004323602E-1
2.454821302E0,-3.224907815E-1,-1.238528118E-1,-2.065410018E-1
2.457240364E0,-3.017213643E-1,-1.409570426E-1,-2.089844644E-1
2.459658646E0,-2.858389020E-1,-1.629481763E-1,-2.126496434E-1
2.462077708E0,-2.711781263E-1,-1.886044890E-1,-2.224234790E-1
2.464497552E0,-2.565173805E-1,-2.179259956E-1,-2.273104042E-1
2.466916614E0,-2.357479781E-1,-2.460257709E-1,-2.370842397E-1
2.469334896E0,-2.149785608E-1,-2.863427997E-1,-2.431928813E-1
2.471753958E0,-1.978743523E-1,-3.229947090E-1,-2.493015379E-1
2.474173802E0,-1.734397560E-1,-3.620900512E-1,-2.505232692E-1
2.476592864E0,-1.526703686E-1,-3.914115429E-1,-2.712926567E-1
2.479011198E0,-1.306792349E-1,-4.182896018E-1,-2.786230147E-1
2.481430260E0,-1.086881086E-1,-4.341720641E-1,-2.871751189E-1
2.483850104E0,-7.936660200E-2,-4.488328397E-1,-3.006141484E-1
2.486269166E0,-5.248855427E-2,-4.598284066E-1,-3.042793274E-1
2.488687448E0,-1.583666541E-2,-4.781543314E-1,-2.981706858E-1
2.491106510E0,2.081521600E-2,-4.964802861E-1,-2.969489694E-1
2.493526354E0,6.724093109E-2,-5.258017778E-1,-2.810664773E-1
2.495945416E0,1.087797359E-1,-5.514581203E-1,-2.798447609E-1
2.498363698E0,1.564271897E-1,-5.820013285E-1,-2.749578357E-1
2.500782760E0,2.016311735E-1,-6.113228202E-1,-2.590753436E-1
2.503202604E0,2.468351573E-1,-6.272053123E-1,-2.554101646E-1
2.505621666E0,2.981477976E-1,-6.418660879E-1,-2.505232692E-1
2.508039948E0,3.482387066E-1,-6.540833712E-1,-2.468580753E-1
2.510459062E0,4.007730484E-1,-6.638572216E-1,-2.493015379E-1
2.512878906E0,4.508639574E-1,-6.760745049E-1,-2.431928813E-1
2.515297968E0,4.997331500E-1,-6.882917881E-1,-2.346407771E-1
2.517716250E0,5.400502682E-1,-7.005090714E-1,-2.383059710E-1
2.520135312E0,5.803673267E-1,-7.090612054E-1,-2.358625084E-1
2.522555156E0,6.109105945E-1,-7.176132798E-1,-2.383059710E-1
2.524974218E0,6.402320862E-1,-7.237219810E-1,-2.431928813E-1
2.527392500E0,6.597797871E-1,-7.237219810E-1,-2.456363440E-1
2.529811562E0,6.732187867E-1,-7.188350558E-1,-2.554101646E-1
2.532231406E0,6.842143536E-1,-7.102829218E-1,-2.639622688E-1
2.534650468E0,6.866577864E-1,-6.895135045E-1,-2.700709105E-1
2.537068750E0,6.976533532E-1,-6.821831465E-1,-2.749578357E-1
2.539487812E0,6.952099204E-1,-6.638572216E-1,-2.835099399E-1
2.541907708E0,7.110924125E-1,-6.626355052E-1,-2.786230147E-1
2.544326771E0,7.172010541E-1,-6.504181623E-1,-3.079445362E-1
2.546745052E0,7.330835462E-1,-6.540833712E-1,-3.042793274E-1
2.549164114E0,7.538529038E-1,-6.589702964E-1,-3.091662526E-1
2.551583958E0,7.782875299E-1,-6.687441468E-1,-3.189401031E-1
2.554003021E0,8.100524545E-1,-6.809614301E-1,-3.177183568E-1
2.556421302E0,8.442609310E-1,-7.005090714E-1,-3.201618195E-1
2.558840364E0,8.845779896E-1,-7.139481306E-1,-3.226052821E-1
2.561260208E0,9.285602570E-1,-7.273871303E-1,-3.103879988E-1
2.563679323E0,9.725425243E-1,-7.408261895E-1,-2.981706858E-1
2.566097552E0,1.018968105E0,-7.518217564E-1,-2.945055068E-1
2.568516666E0,1.073945880E0,-7.591521144E-1,-2.798447609E-1
2.570936510E0,1.126480341E0,-7.628173232E-1,-2.688491940E-1
2.573355573E0,1.181458116E0,-7.603738308E-1,-2.639622688E-1
2.575773854E0,1.233992457E0,-7.554869056E-1,-2.517450154E-1
2.578192916E0,1.286526799E0,-7.408261895E-1,-2.407494336E-1
2.580612760E0,1.334174275E0,-7.163915634E-1,-2.383059710E-1
2.583031823E0,1.376934767E0,-6.846266389E-1,-2.248669416E-1
2.585450104E0,1.413586736E0,-6.430878043E-1,-2.150931060E-1
2.587869166E0,1.444129944E0,-5.929968953E-1,-2.102061957E-1
2.590289062E0,1.463677645E0,-5.355756283E-1,-2.040975392E-1
2.592708125E0,1.478338361E0,-4.696022272E-1,-1.979888976E-1
2.595126406E0,1.488112211E0,-3.987419307E-1,-2.004323602E-1
2.597545468E0,1.489333987E0,-3.327685297E-1,-1.992106289E-1
2.599965312E0,1.485668778E0,-2.692386210E-1,-1.943237036E-1
2.602384375E0,1.469786286E0,-2.105956227E-1,-1.955454350E-1
2.604802656E0,1.444129944E0,-1.531743407E-1,-1.943237036E-1
2.607221718E0,1.411143303E0,-1.006399617E-1,-1.931019723E-1
2.609641562E0,1.362274051E0,-5.054905638E-2,-1.967671663E-1
2.612060625E0,1.308517933E0,-2.901606727E-3,-1.955454350E-1
2.614478906E0,1.248653173E0,4.230238125E-2,-1.943237036E-1
2.616897968E0,1.182679892E0,8.506291360E-2,-1.992106289E-1
2.619317864E0,1.106932640E0,1.217147931E-1,-2.089844644E-1
2.621736927E0,1.033628821E0,1.534797549E-1,-2.126496434E-1
2.624155208E0,9.603251815E-1,1.693622321E-1,-2.199800313E-1
2.626574271E0,8.760258555E-1,1.718056947E-1,-2.297538668E-1
2.628994114E0,7.966134548E-1,1.522580236E-1,-2.297538668E-1
2.631413177E0,7.062054873E-1,1.363755465E-1,-2.444146127E-1
2.633831458E0,6.109105945E-1,1.180496141E-1,-2.541884482E-1
2.636250521E0,5.119504929E-1,1.046105847E-1,-2.639622688E-1
2.638670364E0,4.044382572E-1,9.239328653E-2,-2.896185815E-1
2.641089479E0,2.981477976E-1,8.017599583E-2,-3.152748942E-1
2.643507760E0,1.881921440E-1,7.651080936E-2,-3.323791325E-1
2.645926823E0,8.434513956E-2,7.528907806E-2,-3.641440868E-1
2.648346666E0,-1.461493783E-2,7.651080936E-2,-3.983525038E-1
2.650765729E0,-1.160184816E-1,7.040216029E-2,-4.288957417E-1
2.653184010E0,-2.027612776E-1,5.940658972E-2,-4.716562629E-1
2.655603073E0,-2.895040810E-1,4.963275418E-2,-5.180820823E-1
2.658022916E0,-3.725816905E-1,3.497200087E-2,-5.510687232E-1
2.660441979E0,-4.446637034E-1,1.053741481E-2,-6.023814082E-1
2.662860260E0,-5.069718361E-1,-1.634063013E-2,-6.598026752E-1
2.665279375E0,-5.448454618E-1,-6.643153727E-2,-6.976763010E-1
2.667699218E0,-5.643931627E-1,-1.018616930E-1,-7.636496425E-1
2.670118281E0,-5.839408040E-1,-1.189659014E-1,-8.174057603E-1
2.672536562E0,-6.083754301E-1,-1.055268794E-1,-8.516141772E-1
2.674955625E0,-6.413620710E-1,-4.810559750E-2,-9.114789367E-1
2.677375468E0,-6.816791892E-1,3.130681813E-2,-9.676784873E-1
2.679794531E0,-7.207745314E-1,1.180496141E-1,-9.994434714E-1
2.682212812E0,-7.513177395E-1,2.023489326E-1,-1.012882471E0
2.684631875E0,-7.867478728E-1,2.842048407E-1,-1.025099754E0
2.687051771E0,-8.356170654E-1,3.513999581E-1,-1.006773829E0
2.689470833E0,-8.710472584E-1,3.758345544E-1,-9.872261882E-1
2.691889114E0,-9.064773917E-1,3.831649125E-1,-9.872261882E-1
2.694308177E0,-9.467944503E-1,3.758345544E-1,-9.762306213E-1
2.696728021E0,-9.932202697E-1,3.697258830E-1,-9.835609794E-1
2.699147083E0,-1.048198104E0,3.648389876E-1,-9.896696210E-1
2.701565364E0,-1.109284639E0,3.599520624E-1,-9.811174870E-1
2.703984427E0,-1.166705847E0,3.477347791E-1,-9.701219201E-1
2.706404271E0,-1.219240189E0,3.306305408E-1,-9.701219201E-1
2.708823333E0,-1.254670382E0,2.952004075E-1,-9.505742788E-1
2.711241614E0,-1.274218082E0,2.524398565E-1,-9.408004284E-1
2.713660729E0,-1.268109441E0,1.950185597E-1,-9.383569956E-1
2.716080573E0,-1.231457591E0,1.107192263E-1,-9.188092947E-1
2.718499635E0,-1.169149280E0,9.315687232E-3,-9.102572203E-1
2.720917916E0,-1.087293506E0,-8.475747705E-2,-9.053702950E-1
2.723336979E0,-9.944419265E-1,-1.519526094E-1,-8.943747282E-1
2.725756823E0,-8.881514668E-1,-2.020435184E-1,-8.723835945E-1
2.728175885E0,-7.891913652E-1,-2.032652497E-1,-8.699401617E-1
2.730594166E0,-6.706836224E-1,-1.861610264E-1,-8.198492527E-1
2.733013281E0,-5.790538788E-1,-1.177441701E-1,-8.015232682E-1
2.735433125E0,-4.703200459E-1,-4.566213861E-2,-7.697583437E-1
2.737852187E0,-3.640295863E-1,4.718929902E-2,-7.147805095E-1
2.740270468E0,-2.809519768E-1,1.681405008E-1,-6.732416749E-1
2.742689531E0,-2.003178149E-1,2.927569449E-1,-6.329246163E-1
2.745109375E0,-1.172402129E-1,4.161516130E-1,-5.718381405E-1
2.747528437E0,-4.760163650E-2,5.371028185E-1,-5.156385899E-1
2.749946718E0,1.470656879E-2,6.458367705E-1,-4.667693675E-1
2.752365781E0,6.846266240E-2,7.496837378E-1,-4.142349958E-1
2.754785677E0,1.173318401E-1,8.352048397E-1,-3.604789078E-1
2.757204739E0,1.478750855E-1,9.109520316E-1,-3.274922073E-1
2.759623021E0,1.686444730E-1,9.708167911E-1,-2.810664773E-1
2.762042083E0,1.784183234E-1,1.018464088E0,-2.505232692E-1
2.764461927E0,1.723096669E-1,1.063668132E0,-2.273104042E-1
2.766880989E0,1.539837271E-1,1.094211340E0,-1.845498681E-1
2.769299271E0,1.246622130E-1,1.127197981E0,-1.588935554E-1
2.771718333E0,7.090612501E-2,1.154076099E0,-1.307937801E-1
2.774138177E0,6.154462229E-3,1.167515159E0,-1.149112880E-1
2.776557291E0,-7.203622907E-2,1.177288890E0,-1.075809076E-1
2.778975573E0,-1.563355476E-1,1.183397532E0,-1.039157212E-1
2.781394635E0,-2.381914109E-1,1.172402024E0,-1.039157212E-1
2.783814479E0,-3.249342442E-1,1.151632667E0,-1.063591763E-1
2.786233541E0,-4.043466449E-1,1.113759041E0,-1.039157212E-1
2.788651823E0,-4.862025380E-1,1.069776773E0,-1.100243703E-1
2.791070885E0,-5.631713867E-1,1.018464088E0,-1.014722660E-1
2.793490729E0,-6.413620710E-1,9.671515822E-1,-1.002505347E-1
2.795909843E0,-7.195527554E-1,9.219475985E-1,-1.026939899E-1
2.798328125E0,-7.965217233E-1,8.840739727E-1,-1.002505347E-1
2.800747187E0,-8.722689748E-1,8.559741974E-1,-1.173547432E-1
2.803167031E0,-9.455727339E-1,8.327613473E-1,-1.369024217E-1
2.805586093E0,-1.012767911E0,8.278744221E-1,-1.503414512E-1
2.808004375E0,-1.077519655E0,8.486438394E-1,-1.686673909E-1
2.810423437E0,-1.130053997E0,8.987347484E-1,-1.857715994E-1
2.812843281E0,-1.164262414E0,9.854775667E-1,-1.943237036E-1
2.815262396E0,-1.166705847E0,1.102763414E0,-2.089844644E-1
2.817680677E0,-1.116614938E0,1.260366559E0,-2.383059710E-1
2.820099739E0,-1.021320105E0,1.433852077E0,-2.786230147E-1
2.822519583E0,-8.881514668E-1,1.587790012E0,-3.299356699E-1
2.824938646E0,-7.354352474E-1,1.713628173E0,-3.910221457E-1
2.827356927E0,-5.546193123E-1,1.795484066E0,-4.215653539E-1
2.829775989E0,-3.835772276E-1,1.859013915E0,-4.704345465E-1
2.832195833E0,-2.137568444E-1,1.899331093E0,-5.083082318E-1
2.834614948E0,-4.271471873E-2,1.917657018E0,-5.278558731E-1
2.837033229E0,1.173318401E-1,1.913991809E0,-5.449600816E-1
2.839452291E0,2.529438138E-1,1.902996182E0,-5.596208572E-1
2.841872135E0,3.738950193E-1,1.859013915E0,-5.498470068E-1
2.844291198E0,4.643029869E-1,1.817475200E0,-5.474035740E-1
2.846709479E0,5.205025673E-1,1.785710216E0,-5.425166488E-1
2.849128541E0,5.522675514E-1,1.755167007E0,-5.412949324E-1
2.851548385E0,5.608196855E-1,1.720958591E0,-5.510687232E-1
2.853967500E0,5.412719846E-1,1.701410890E0,-5.755033493E-1
2.856385781E0,4.924027622E-1,1.703854322E0,-5.877206326E-1
2.858804843E0,4.264293909E-1,1.725845456E0,-6.194856167E-1
2.861224687E0,3.482387066E-1,1.749058366E0,-6.536940336E-1
2.863643750E0,2.639393806E-1,1.766162515E0,-6.915676594E-1
2.866062031E0,1.845269650E-1,1.764940858E0,-7.367716432E-1
2.868481093E0,1.063362733E-1,1.756388664E0,-7.722017765E-1
2.870900937E0,3.425423801E-2,1.741727948E0,-7.990798354E-1
2.873320052E0,-2.194531448E-2,1.718515038E0,-8.137405515E-1
2.875738333E0,-8.058833331E-2,1.691637039E0,-8.247361183E-1
2.878157396E0,-1.123533025E-1,1.654985189E0,-8.125188351E-1
2.880577239E0,-1.355661452E-1,1.628107071E0,-8.186274767E-1
2.882996302E0,-1.477834433E-1,1.593898654E0,-8.015232682E-1
2.885414583E0,-1.343444139E-1,1.562133670E0,-7.722017765E-1
2.887833646E0,-1.282357723E-1,1.538920879E0,-7.685365677E-1
2.890253541E0,-1.147967502E-1,1.515707970E0,-7.441020012E-1
2.892672604E0,-8.303179592E-2,1.485164762E0,-7.098935843E-1
2.895090885E0,-5.493200943E-2,1.454621553E0,-7.025632262E-1
2.897509948E0,-2.683223225E-2,1.430186987E0,-6.891241670E-1
2.899929791E0,2.489273902E-3,1.414304495E0,-6.585809588E-1
2.902348854E0,2.692386322E-2,1.408195853E0,-6.512505412E-1
2.904767135E0,5.135845020E-2,1.409417510E0,-6.488071084E-1
2.907186198E0,7.701476663E-2,1.410639286E0,-6.243725419E-1
2.909606093E0,1.014493629E-1,1.416747928E0,-6.207073331E-1
2.912025156E0,1.258839518E-1,1.409417510E0,-6.194856167E-1
2.914443437E0,1.539837271E-1,1.388648152E0,-5.999379158E-1
2.916862500E0,1.857486963E-1,1.359326601E0,-6.011596322E-1
2.919282343E0,2.162919343E-1,1.327561617E0,-6.011596322E-1
2.921701406E0,2.443917096E-1,1.299461842E0,-5.889423490E-1
2.924119687E0,2.786001265E-1,1.264031768E0,-5.877206326E-1
2.926538802E0,3.079216182E-1,1.224936366E0,-5.987161994E-1
2.928958646E0,3.409083188E-1,1.172402024E0,-5.938292742E-1
2.931377708E0,3.763384819E-1,1.118645906E0,-6.011596322E-1
2.933795989E0,4.068817198E-1,1.081994057E0,-6.194856167E-1
2.936215052E0,4.337597489E-1,1.049007297E0,-6.207073331E-1
2.938634896E0,4.679681659E-1,1.006246805E0,-6.268159747E-1
2.941053958E0,5.180591345E-1,9.256128073E-1,-6.512505412E-1
2.943472291E0,5.608196855E-1,8.657480478E-1,-6.549157500E-1
2.945891354E0,5.828108191E-1,8.510872722E-1,-6.659113169E-1
2.948311198E0,5.901411772E-1,8.559741974E-1,-6.988980174E-1
2.950730260E0,5.938063860E-1,8.620828390E-1,-7.123370171E-1
2.953148541E0,6.011367440E-1,8.706349730E-1,-7.367716432E-1
2.955567604E0,5.950281024E-1,8.791870475E-1,-7.746452093E-1
2.957987448E0,5.913628936E-1,8.877391815E-1,-8.027450442E-1
2.960406562E0,5.803673267E-1,8.950695395E-1,-8.406186104E-1
2.962824843E0,5.864759684E-1,8.804088235E-1,-8.809357285E-1
2.965243906E0,5.754804015E-1,8.743001819E-1,-9.053702950E-1
2.967663750E0,5.779238939E-1,8.449786305E-1,-9.395787120E-1
2.970082812E0,5.925846696E-1,7.777835131E-1,-9.701219201E-1
2.972501093E0,5.889194608E-1,7.411316633E-1,-9.835609794E-1
2.974920156E0,5.693717599E-1,7.203622460E-1,-1.003108621E0
2.977340052E0,5.327199101E-1,7.276926041E-1,-1.016547561E0
2.979759114E0,4.765202999E-1,7.655662298E-1,-1.010438919E0
2.982177396E0,4.129903615E-1,8.046615720E-1,-1.007995486E0
2.984596458E0,3.457952440E-1,8.388699889E-1,-1.005552053E0
2.987016302E0,2.737132013E-1,8.779653311E-1,-9.835609794E-1
2.989435364E0,1.918573380E-1,9.268345237E-1,-9.627915621E-1
2.991853646E0,1.124449149E-1,9.757037163E-1,-9.444656372E-1
2.994272760E0,3.547596931E-2,1.029459715E0,-9.114789367E-1
2.996692604E0,-3.171915188E-2,1.092989564E0,-8.833791614E-1
2.999111666E0,-9.036216885E-2,1.156519532E0,-8.528358936E-1
3.001529948E0,-1.343444139E-1,1.217606068E0,-8.149623275E-1
3.003949010E0,-1.697745770E-1,1.281135917E0,-7.746452093E-1
3.006368854E0,-1.917657107E-1,1.337335467E0,-7.331064343E-1
3.008787968E0,-2.039829940E-1,1.380096078E0,-6.830155253E-1
3.011206250E0,-2.088699192E-1,1.424078345E0,-6.378115416E-1
3.013625312E0,-2.113133818E-1,1.470504045E0,-5.864989161E-1
3.016045156E0,-2.076481879E-1,1.514486313E0,-5.364080071E-1
3.018464218E0,-1.978743523E-1,1.547472954E0,-4.924256802E-1
3.020882500E0,-1.856570542E-1,1.570685863E0,-4.435564876E-1
3.023301562E0,-1.709963083E-1,1.586568356E0,-3.922438622E-1
3.025721458E0,-1.526703686E-1,1.587790012E0,-3.458181322E-1
3.028140521E0,-1.343444139E-1,1.582903147E0,-2.969489694E-1
3.030558802E0,-1.196836755E-1,1.578016162E0,-2.444146127E-1
3.032977864E0,-1.050229296E-1,1.557246804E0,-1.955454350E-1
3.035397708E0,-9.036216885E-2,1.514486313E0,-1.491197199E-1
3.037816771E0,-7.325796038E-2,1.459508419E0,-1.039157212E-1
3.040235052E0,-5.737546831E-2,1.392313361E0,-5.993346497E-2
3.042654166E0,-4.271471873E-2,1.325118184E0,-1.717293449E-2
3.045074010E0,-3.171915188E-2,1.249370933E0,3.291797265E-2
3.047493073E0,-2.194531448E-2,1.176067233E0,6.590466946E-2
3.049911354E0,-9.728020057E-3,1.099098206E0,9.766963869E-2
3.052330416E0,4.581501707E-5,1.018464088E0,1.355432421E-1
3.054750260E0,1.226310991E-2,9.378300905E-1,1.611995548E-1
3.057169375E0,1.837175712E-2,8.547524810E-1,1.844124198E-1
3.059587656E0,2.325867489E-2,7.765617967E-1,2.064035535E-1
3.062006718E0,1.959348656E-2,7.020363212E-1,2.259512246E-1
3.064426562E0,9.819651023E-3,6.336194277E-1,2.442771643E-1
3.066845625E0,-2.397643868E-3,5.688678026E-1,2.662683129E-1
3.069263906E0,-2.438877337E-2,5.090030432E-1,2.870377004E-1
3.071682968E0,-4.882336035E-2,4.540252388E-1,3.090288341E-1
3.074102864E0,-7.936660200E-2,4.014908671E-1,3.346851468E-1
3.076521927E0,-1.099098399E-1,3.526216745E-1,3.578980267E-1
3.078940208E0,-1.453399807E-1,3.025307655E-1,3.835543394E-1
3.081359271E0,-1.771049500E-1,2.536616027E-1,4.214279354E-1
3.083779114E0,-2.125350982E-1,2.096793056E-1,4.544146359E-1
3.086198229E0,-2.455217987E-1,1.656970531E-1,4.849578738E-1
3.088616510E0,-2.785085142E-1,1.302668899E-1,5.191662312E-1
3.091035573E0,-3.090517521E-1,9.850193560E-2,5.558181405E-1
3.093455416E0,-3.432601690E-1,7.651080936E-2,5.875830650E-1
3.095874479E0,-3.762468696E-1,5.696313456E-2,6.279001832E-1
3.098292760E0,-4.055683613E-1,3.252854943E-2,6.706606746E-1
3.100711823E0,-4.348898828E-1,5.650499370E-3,7.073125839E-1
3.103131718E0,-4.593244791E-1,-2.733619511E-2,7.537382841E-1
3.105550781E0,-4.837590456E-1,-6.032289192E-2,7.916119099E-1
3.107969062E0,-5.106370449E-1,-9.575304389E-2,8.282638192E-1
3.110388125E0,-5.362933874E-1,-1.324049383E-1,8.698025942E-1
3.112807968E0,-5.631713867E-1,-1.727220118E-1,9.101196527E-1
3.115227083E0,-5.912711620E-1,-2.093738914E-1,9.418846369E-1
3.117645364E0,-6.205927134E-1,-2.435823083E-1,9.797582626E-1
3.120064427E0,-6.548011303E-1,-2.851210833E-1,1.022518873E0
3.122484271E0,-6.890095472E-1,-3.205512464E-1,1.059170723E0
3.124903333E0,-7.256613970E-1,-3.559813797E-1,1.101931214E0
3.127321614E0,-7.610915899E-1,-3.938550055E-1,1.139804840E0
3.129740677E0,-7.965217233E-1,-4.317286313E-1,1.182565331E0
3.132160573E0,-8.295084238E-1,-4.671587646E-1,1.232656240E0
3.134579635E0,-8.624951243E-1,-5.062541366E-1,1.282747149E0
3.136997916E0,-8.930383325E-1,-5.429059863E-1,1.332838058E0
3.139416979E0,-9.199163914E-1,-5.795578957E-1,1.390259385E0
3.141836823E0,-9.406858087E-1,-6.149880290E-1,1.442793727E0
3.144255937E0,-9.565683007E-1,-6.455312967E-1,1.496549845E0
3.146674218E0,-9.687856436E-1,-6.760745049E-1,1.546640754E0
3.149093281E0,-9.797811508E-1,-7.066177130E-1,1.585736156E0
3.151513125E0,-9.834463596E-1,-7.420479059E-1,1.632161856E0
3.153932187E0,-9.956637025E-1,-7.713693976E-1,1.671257138E0
3.156350468E0,-9.981071353E-1,-8.226820230E-1,1.705465555E0
3.158769531E0,-1.016433120E0,-8.581122160E-1,1.737230539E0
3.161189427E0,-1.020098329E0,-8.923206329E-1,1.814199567E0
3.163608489E0,-1.040867686E0,-9.240855575E-1,1.853294849E0
3.166026771E0,-1.065302372E0,-9.546288252E-1,1.905829191E0
3.168445833E0,-1.079963088E0,-9.961676002E-1,2.009676456E0
3.170865677E0,-1.110506296E0,-1.021824002E0,2.051215172E0
3.173284791E0,-1.148379922E0,-1.041371703E0,2.131849289E0
3.175703073E0,-1.191140413E0,-1.042593479E0,2.238139629E0
3.178122135E0,-1.235122681E0,-1.029154420E0,2.309000015E0
3.180541979E0,-1.275439739E0,-1.004719853E0,2.398186207E0
3.182961041E0,-1.310869932E0,-9.949458838E-1,2.504476786E0
3.185379323E0,-1.326752424E0,-1.003498077E0,2.571671963E0
3.187798437E0,-1.325530648E0,-1.010828495E0,2.633980036E0
3.190218281E0,-1.299874425E0,-1.008385062E0,2.699953556E0
3.192637343E0,-1.254670382E0,-1.019380569E0,2.718279362E0
3.195055625E0,-1.196027398E0,-1.009606719E0,2.703618765E0
3.197474687E0,-1.115393281E0,-9.986110926E-1,2.669410229E0
3.199894583E0,-1.026206970E0,-9.912806749E-1,2.568006754E0
3.202313646E0,-9.284685254E-1,-9.692896008E-1,2.420177460E0
3.204731927E0,-8.392822742E-1,-9.301942587E-1,2.258909225E0
3.207150989E0,-7.623133063E-1,-8.788815737E-1,2.032889128E0
3.209570833E0,-7.036703229E-1,-8.287906647E-1,1.779991031E0
3.211989896E0,-6.548011303E-1,-8.043560982E-1,1.511210561E0
3.214408177E0,-6.230361462E-1,-8.190168738E-1,1.191117525E0
3.216827291E0,-6.095971465E-1,-8.568904400E-1,8.698025942E-1
3.219247135E0,-6.120405793E-1,-8.996509910E-1,5.863613486E-1
3.221666198E0,-6.291447878E-1,-9.534071088E-1,3.114722967E-1
3.224084479E0,-6.596880555E-1,-1.026710987E0,6.590466946E-2
3.226503541E0,-7.000051141E-1,-1.126892805E0,-1.320155114E-1
3.228923437E0,-7.476525307E-1,-1.245400548E0,-3.177183568E-1
3.231342500E0,-7.977434397E-1,-1.390786290E0,-4.594389796E-1
3.233760781E0,-8.478343487E-1,-1.552054644E0,-5.486252904E-1
3.236179843E0,-8.942601085E-1,-1.718209863E0,-6.121551991E-1
3.238599687E0,-9.406858087E-1,-1.867260814E0,-6.353681087E-1
3.241018750E0,-9.871115685E-1,-1.979659915E0,-6.133769751E-1
3.243437083E0,-1.037202597E0,-2.059072256E0,-5.803902745E-1
3.245856146E0,-1.090958595E0,-2.107941389E0,-5.217472315E-1
3.248275989E0,-1.148379922E0,-2.105497837E0,-4.337826669E-1
3.250695052E0,-1.209466457E0,-2.060293913E0,-3.470398784E-1
3.253113333E0,-1.265666008E0,-1.996764183E0,-2.615188062E-1
3.255532448E0,-1.314535141E0,-1.918573499E0,-1.711108536E-1
3.257952291E0,-1.367069483E0,-1.823278546E0,-9.414188564E-2
3.260371354E0,-1.424490809E0,-1.710879445E0,-4.282925278E-2
3.262789635E0,-1.459920883E0,-1.629023552E0,8.483383805E-3
3.265208698E0,-1.486799002E0,-1.538615584E0,5.124391243E-2
3.267628541E0,-1.507568359E0,-1.444542408E0,6.834813207E-2
3.270047656E0,-1.508790135E0,-1.357799649E0,6.590466946E-2
3.272465937E0,-1.483133793E0,-1.310152173E0,4.757872596E-2
3.274885000E0,-1.426934242E0,-1.302821875E0,1.459203102E-2
3.277304843E0,-1.362182617E0,-1.311373949E0,-1.106428728E-2
3.279723906E0,-1.302317858E0,-1.318704367E0,-2.939022891E-2
3.282142187E0,-1.254670382E0,-1.335808516E0,-4.038579389E-2
3.284561302E0,-1.204579473E0,-1.372460365E0,-3.427714482E-2
3.286981146E0,-1.171592832E0,-1.416442633E0,-1.472947560E-2
3.289400208E0,-1.159375548E0,-1.456759691E0,-1.717293449E-2
3.291818489E0,-1.166705847E0,-1.466533542E0,7.261654828E-3
3.294237552E0,-1.210688114E0,-1.431103468E0,5.735256150E-2
3.296657448E0,-1.260779023E0,-1.412777424E0,1.037782803E-1
3.299076510E0,-1.309648275E0,-1.398116708E0,1.648647487E-1
3.301494791E0,-1.371956468E0,-1.365130067E0,2.332815975E-1
3.303913854E0,-1.446481943E0,-1.304043531E0,2.760421336E-1
3.306333698E0,-1.517342210E0,-1.212413907E0,3.188026845E-1
3.308752812E0,-1.580872178E0,-1.093906045E0,3.603414893E-1
3.311171093E0,-1.634628296E0,-9.729547501E-1,3.933281600E-1
3.313590156E0,-1.682275653E0,-8.666642904E-1,4.263148606E-1
3.316010000E0,-1.706710339E0,-7.811432481E-1,4.568580985E-1
3.318429062E0,-1.723814487E0,-7.078394890E-1,4.690753818E-1
3.320847343E0,-1.722592831E0,-6.699658632E-1,4.825144112E-1
3.323266458E0,-1.709153771E0,-6.491964459E-1,4.641884863E-1
3.325686302E0,-1.682275653E0,-6.479747295E-1,4.593015611E-1
3.328105364E0,-1.641958594E0,-6.565268636E-1,4.446408153E-1
3.330523646E0,-1.572320104E0,-6.711875796E-1,4.189844728E-1
3.332942708E0,-1.480690360E0,-6.907352805E-1,4.275366068E-1
3.335362604E0,-1.354852200E0,-7.225002050E-1,4.593015611E-1
3.337781666E0,-1.230235815E0,-7.371609807E-1,4.727405906E-1
3.340199948E0,-1.093402147E0,-7.408261895E-1,5.313835144E-1
3.342619010E0,-9.431292415E-1,-7.457131147E-1,5.924699903E-1
3.345038854E0,-7.977434397E-1,-7.493782640E-1,6.364522576E-1
3.347457968E0,-6.499142051E-1,-7.567086220E-1,7.121995091E-1
3.349876250E0,-5.033066869E-1,-7.628173232E-1,7.708424926E-1
3.352295312E0,-3.603643775E-1,-7.652607560E-1,8.013857603E-1
3.354715156E0,-2.296393067E-1,-7.579303980E-1,8.355941772E-1
3.357134271E0,-1.099098399E-1,-7.457131147E-1,8.478114605E-1
3.359552500E0,4.932732787E-3,-7.261654139E-1,8.307072520E-1
3.361971614E0,1.100014672E-1,-6.858483553E-1,8.258203268E-1
3.364391458E0,2.162919343E-1,-6.418660879E-1,8.111595511E-1
3.366810521E0,3.005912304E-1,-5.929968953E-1,7.793946266E-1
3.369228802E0,3.787819147E-1,-5.563450456E-1,7.586252093E-1
3.371647864E0,4.410901368E-1,-5.355756283E-1,7.427427173E-1
3.374067760E0,4.875158370E-1,-5.306887031E-1,7.158646584E-1
3.376486823E0,5.266112089E-1,-5.404625535E-1,6.914300919E-1
3.378905104E0,5.559327602E-1,-5.697840452E-1,6.657737494E-1
3.381324166E0,5.754804015E-1,-6.113228202E-1,6.230132580E-1
3.383744062E0,5.889194608E-1,-6.589702964E-1,5.875830650E-1
3.386163125E0,5.925846696E-1,-7.029525638E-1,5.423790812E-1
3.388581406E0,6.072453856E-1,-7.677041888E-1,5.020620227E-1
3.391000468E0,6.023584604E-1,-8.348993063E-1,4.641884863E-1
3.393420312E0,5.974715352E-1,-8.935423493E-1,4.189844728E-1
3.395839375E0,5.950281024E-1,-9.509636164E-1,3.750022352E-1
3.398257708E0,5.864759684E-1,-1.008385062E0,3.456807137E-1
3.400676771E0,5.754804015E-1,-1.065806270E0,3.041419089E-1
3.403096614E0,5.595979691E-1,-1.125671029E0,2.638248503E-1
3.405515677E0,5.412719846E-1,-1.175761938E0,2.296164036E-1
3.407933958E0,5.180591345E-1,-1.222187638E0,1.905210614E-1
3.410353073E0,4.924027622E-1,-1.262504816E0,1.502039880E-1
3.412772916E0,4.618595243E-1,-1.295491457E0,1.172173098E-1
3.415191979E0,4.264293909E-1,-1.316260815E0,7.690023631E-2
3.417610260E0,3.885557652E-1,-1.326034665E0,3.658315912E-2
3.420029323E0,3.519038856E-1,-1.330921650E0,2.374737058E-3
3.422449218E0,3.103650808E-1,-1.328478098E0,-4.038579389E-2
3.424868281E0,2.663828135E-1,-1.321147799E0,-7.703766972E-2
3.427286562E0,2.199571133E-1,-1.304043531E0,-1.112461016E-1
3.429705625E0,1.771965921E-1,-1.279608965E0,-1.491197199E-1
3.432125521E0,1.344360560E-1,-1.244178772E0,-1.845498681E-1
3.434544583E0,9.289725125E-2,-1.200196505E0,-2.175365686E-1
3.436962864E0,5.502364039E-2,-1.153770804E0,-2.541884482E-1
3.439381927E0,1.837175712E-2,-1.097571254E0,-2.822882235E-1
3.441801771E0,-1.828012802E-2,-1.034041405E0,-3.030576110E-1
3.444220885E0,-5.004509166E-2,-9.631808996E-1,-3.311573863E-1
3.446639166E0,-7.692313939E-2,-8.862119913E-1,-3.543702364E-1
3.449058229E0,-9.647081047E-2,-8.043560982E-1,-3.751396537E-1
3.451478073E0,-1.099098399E-1,-7.163915634E-1,-4.020177126E-1
3.453897135E0,-1.160184816E-1,-6.296488047E-1,-4.240088165E-1
3.456315416E0,-1.221271381E-1,-5.453494787E-1,-4.435564876E-1
3.458734531E0,-1.245706007E-1,-4.586066604E-1,-4.765431881E-1
3.461154375E0,-1.245706007E-1,-3.779725134E-1,-5.009778142E-1
3.463573437E0,-1.196836755E-1,-3.058905005E-1,-5.290775895E-1
3.465991718E0,-1.099098399E-1,-2.521343827E-1,-5.596208572E-1
3.468410833E0,-9.280563146E-2,-2.081521600E-1,-5.840554237E-1
3.470830677E0,-6.714930385E-2,-1.739437282E-1,-6.072682738E-1
3.473249739E0,-3.904952481E-2,-1.446222216E-1,-6.341463327E-1
3.475668021E0,-1.217147894E-2,-1.177441701E-1,-6.500288248E-1
3.478087083E0,1.470656879E-2,-9.575304389E-2,-6.683547497E-1
3.480506979E0,4.647153243E-2,-7.742710412E-2,-6.866807342E-1
3.482926041E0,7.945822924E-2,-5.665770546E-2,-7.062283754E-1
3.485344323E0,1.148883775E-1,-4.077522084E-2,-7.221108675E-1
3.487763385E0,1.539837271E-1,-2.733619511E-2,-7.416585684E-1
3.490183229E0,1.979659945E-1,-1.756235957E-2,-7.587627769E-1
3.492602343E0,2.431699783E-1,-7.788524497E-3,-7.734234929E-1
3.495020625E0,2.859304845E-1,1.985311043E-3,-7.880842686E-1
3.497439687E0,3.299127519E-1,1.542433258E-2,-7.917494774E-1
3.499859531E0,3.690080941E-1,3.375027701E-2,-7.941929102E-1
3.502278593E0,4.056599736E-1,4.963275418E-2,-7.880842686E-1
3.504696927E0,4.386466742E-1,6.429351121E-2,-7.770887017E-1
3.507115989E0,4.691899121E-1,8.017599583E-2,-7.624279261E-1
3.509535833E0,4.936245084E-1,8.994983137E-2,-7.416585684E-1
3.511954896E0,5.131722093E-1,9.605848044E-2,-7.172239423E-1
3.514373177E0,5.192808509E-1,9.361501783E-2,-6.879024506E-1
3.516792291E0,5.180591345E-1,8.139772713E-2,-6.634678841E-1
3.519212135E0,5.070635676E-1,6.062832102E-2,-6.378115416E-1
3.521631198E0,4.899592996E-1,2.641990036E-2,-6.133769751E-1
3.524049479E0,4.716333747E-1,-2.977965400E-2,-5.987161994E-1
3.526468593E0,4.569725990E-1,-1.030834243E-1,-5.950509906E-1
3.528888437E0,4.423118532E-1,-2.020435184E-1,-5.877206326E-1
3.531307500E0,4.337597489E-1,-3.168860376E-1,-5.816119909E-1
3.533725781E0,4.276511073E-1,-4.451676309E-1,-5.681729913E-1
3.536144843E0,4.227641821E-1,-5.771144032E-1,-5.400731564E-1
3.538564739E0,4.178772569E-1,-7.066177130E-1,-5.021995306E-1
3.540983802E0,4.154338241E-1,-8.263472319E-1,-4.521085918E-1
3.543402083E0,4.081034362E-1,-9.350811243E-1,-3.849134743E-1
3.545821146E0,4.007730484E-1,-1.030376196E0,-3.103879988E-1
3.548241041E0,3.922209442E-1,-1.112232089E0,-2.248669416E-1
3.550660104E0,3.812253773E-1,-1.180648923E0,-1.307937801E-1
3.553078385E0,3.775601983E-1,-1.230739832E0,-3.672060743E-2
3.555497448E0,3.763384819E-1,-1.263726473E0,5.857429281E-2
3.557917291E0,3.763384819E-1,-1.277165532E0,1.453170776E-1
3.560336406E0,3.726732731E-1,-1.268613458E0,2.247294933E-1
3.562754687E0,3.628994524E-1,-1.229518056E0,2.907029092E-1
3.565173750E0,3.470169604E-1,-1.157436013E0,3.493459225E-1
3.567593593E0,3.213606477E-1,-1.052367330E0,4.067671895E-1
3.570012656E0,2.883739471E-1,-9.191986918E-1,4.544146359E-1
3.572430989E0,2.419482470E-1,-7.689259648E-1,5.032837391E-1
3.574850052E0,1.784183234E-1,-6.113228202E-1,5.423790812E-1
3.577269896E0,1.002276316E-1,-4.720456898E-1,5.778092742E-1
3.579688958E0,7.376191672E-3,-3.596465886E-1,5.985786319E-1
3.582107239E0,-9.280563146E-2,-2.912297249E-1,6.120176911E-1
3.584526354E0,-2.003178149E-1,-2.655734122E-1,6.169046164E-1
3.586946198E0,-3.078300059E-1,-2.887862623E-1,6.095741987E-1
3.589365260E0,-4.128987491E-1,-3.681986928E-1,5.998004079E-1
3.591783541E0,-5.179674029E-1,-4.903716445E-1,5.875830650E-1
3.594202604E0,-6.132622957E-1,-6.430878043E-1,5.668137074E-1
3.596622500E0,-7.012268305E-1,-8.165733814E-1,5.411573648E-1
3.599041562E0,-7.745305896E-1,-1.001054645E0,5.118358731E-1
3.601459843E0,-8.295084238E-1,-1.169653296E0,4.702971280E-1
3.603878906E0,-8.612734079E-1,-1.308930516E0,4.238713980E-1
3.606298802E0,-8.661603332E-1,-1.409112334E0,3.566762805E-1
3.608717864E0,-8.478343487E-1,-1.467755318E0,2.907029092E-1
3.611136146E0,-8.038520813E-1,-1.481194377E0,2.149556577E-1
3.613555208E0,-7.329918146E-1,-1.456759691E0,1.294346005E-1
3.615975104E0,-6.425838470E-1,-1.400560141E0,5.857429281E-2
3.618394166E0,-5.326281786E-1,-1.328478098E0,-2.512180945E-3
3.620812448E0,-4.067901075E-1,-1.252730966E0,-6.604211032E-2
3.623231510E0,-2.675129473E-1,-1.181870580E0,-1.149112880E-1
3.625651354E0,-1.196836755E-1,-1.114675522E0,-1.576718241E-1
3.628070468E0,3.425423801E-2,-1.054810762E0,-1.979888976E-1
3.630488750E0,1.918573380E-1,-9.961676002E-1,-2.358625084E-1
3.632907812E0,3.506821394E-1,-9.411897659E-1,-2.712926567E-1
3.635327656E0,5.107287765E-1,-8.862119913E-1,-3.103879988E-1
3.637746771E0,6.683318615E-1,-8.397862315E-1,-3.409312367E-1
3.640165052E0,8.210480213E-1,-7.945822477E-1,-3.702527285E-1
3.642584114E0,9.700990319E-1,-7.518217564E-1,-4.020177126E-1
3.645003958E0,1.113041282E0,-7.139481306E-1,-4.313392043E-1
3.647423073E0,1.244988084E0,-6.809614301E-1,-4.545520544E-1
3.649841354E0,1.365939260E0,-6.540833712E-1,-4.728780091E-1
3.652260416E0,1.477116585E0,-6.296488047E-1,-4.838735759E-1
3.654680260E0,1.573633313E0,-6.125445962E-1,-4.863170385E-1
3.657099323E0,1.655489087E0,-5.978838205E-1,-4.753214717E-1
3.659517656E0,1.723906040E0,-5.893317461E-1,-4.496651590E-1
3.661936718E0,1.777662039E0,-5.807796121E-1,-4.240088165E-1
3.664356562E0,1.817979097E0,-5.783361793E-1,-3.922438622E-1
3.666775625E0,1.846078873E0,-5.807796121E-1,-3.629223704E-1
3.669193958E0,1.861961365E0,-5.917751789E-1,-3.262704611E-1
3.671613021E0,1.866848350E0,-6.027707458E-1,-2.835099399E-1
3.674032864E0,1.868070006E0,-6.174315214E-1,-2.346407771E-1
3.676451927E0,1.863183141E0,-6.382008791E-1,-1.943237036E-1
3.678870208E0,1.858296275E0,-6.724092960E-1,-1.478979886E-1
3.681289323E0,1.850965858E0,-7.151698470E-1,-1.051374525E-1
3.683709166E0,1.837526798E0,-7.579303980E-1,-6.970729679E-2
3.686128229E0,1.817979097E0,-7.860301733E-1,-3.183368966E-2
3.688546510E0,1.786214232E0,-7.896953225E-1,-8.620828390E-3
3.690965625E0,1.753227472E0,-7.921388149E-1,2.192240767E-2
3.693385468E0,1.701914907E0,-7.579303980E-1,5.002218485E-2
3.695804531E0,1.638384938E0,-7.066177130E-1,6.101774797E-2
3.698222812E0,1.583407044E0,-6.504181623E-1,8.300888538E-2
3.700641875E0,1.511325121E0,-5.697840452E-1,1.025565565E-1
3.703061771E0,1.430690885E0,-4.439459145E-1,1.037782803E-1
3.705480833E0,1.331730843E0,-2.826776206E-1,1.111086607E-1
3.707899114E0,1.222996950E0,-9.086612612E-2,1.269911379E-1
3.710318177E0,1.113041282E0,1.192713454E-1,1.257694066E-1
3.712738073E0,1.004307389E0,3.330740035E-1,1.233259439E-1
3.715157135E0,9.004604816E-1,5.334376693E-1,1.196607649E-1
3.717575416E0,7.978351712E-1,7.154753208E-1,9.522617608E-2
3.719994479E0,7.013185620E-1,8.791870475E-1,7.567850500E-2
3.722414375E0,6.023584604E-1,1.028237939E0,6.223947927E-2
3.724833437E0,5.095070004E-1,1.158962965E0,3.413970396E-2
3.727251718E0,4.252076447E-1,1.259144783E0,1.459203102E-2
3.729670781E0,3.519038856E-1,1.320231318E0,2.374737058E-3
3.732090677E0,2.908174098E-1,1.343444109E0,-1.839466393E-2
3.734509739E0,2.370613366E-1,1.322674751E0,-2.694677003E-2
3.736928021E0,1.943008006E-1,1.259144783E0,-2.328158170E-2
3.739347083E0,1.588706523E-1,1.152854323E0,-2.694677003E-2
3.741766979E0,1.307708770E-1,1.025794506E0,-2.694677003E-2
3.744186041E0,1.026710793E-1,9.072868228E-1,-2.816849947E-2
3.746604323E0,6.846266240E-2,8.046615720E-1,-4.282925278E-2
3.749023385E0,2.814559266E-2,7.276926041E-1,-5.993346497E-2
3.751443281E0,-1.217147894E-2,6.666061282E-1,-7.948113233E-2
3.753862343E0,-5.981893092E-2,6.336194277E-1,-1.149112880E-1
3.756280625E0,-1.111315712E-1,6.275107861E-1,-1.491197199E-1
3.758699687E0,-1.624442041E-1,6.360629201E-1,-1.955454350E-1
3.761119531E0,-2.125350982E-1,6.433932781E-1,-2.505232692E-1
3.763538646E0,-2.614043057E-1,6.360629201E-1,-3.030576110E-1
3.765956927E0,-3.017213643E-1,6.067414284E-1,-3.714744747E-1
3.768375989E0,-3.347080648E-1,5.517635942E-1,-4.484434128E-1
3.770795833E0,-3.554774523E-1,4.699077010E-1,-5.290775895E-1
3.773214948E0,-3.603643775E-1,3.636172414E-1,-6.268159747E-1
3.775633229E0,-3.518122733E-1,2.390008271E-1,-7.306630015E-1
3.778052291E0,-3.334863484E-1,1.033888534E-1,-8.174057603E-1
3.780472135E0,-3.102734685E-1,-4.566213861E-2,-8.955964446E-1
3.782891250E0,-2.711781263E-1,-1.971565932E-1,-9.591264129E-1
3.785309531E0,-2.284175903E-1,-3.462075591E-1,-1.004330277E0
3.787728593E0,-1.783266813E-1,-4.842629731E-1,-1.043425679E0
3.790148437E0,-1.221271381E-1,-5.978838205E-1,-1.083742738E0
3.792567552E0,-6.470584124E-2,-6.846266389E-1,-1.106955528E0
3.794985833E0,-8.506292477E-3,-7.469348311E-1,-1.128946662E0
3.797404896E0,4.402807355E-2,-7.860301733E-1,-1.148494363E0
3.799824739E0,9.167552739E-2,-7.884736061E-1,-1.159489989E0
3.802243802E0,1.332143247E-1,-7.603738308E-1,-1.166820288E0
3.804662135E0,1.674227566E-1,-6.992873549E-1,-1.170485497E0
3.807081198E0,1.930790693E-1,-6.027707458E-1,-1.160711646E0
3.809501041E0,2.138484716E-1,-4.769326150E-1,-1.152159572E0
3.811920104E0,2.236223072E-1,-3.339902759E-1,-1.133833647E0
3.814338437E0,2.297309488E-1,-1.727220118E-1,-1.104512095E0
3.816757500E0,2.272874862E-1,7.635814836E-4,-1.067860246E0
3.819177343E0,2.224005759E-1,1.828012615E-1,-1.031208396E0
3.821596406E0,2.199571133E-1,3.599520624E-1,-9.945565462E-1
3.824014739E0,2.150702029E-1,5.309941769E-1,-9.640132785E-1
3.826433802E0,2.040746361E-1,6.947059035E-1,-9.334700704E-1
3.828853646E0,1.881921440E-1,8.462004066E-1,-8.919312358E-1
3.831272708E0,1.564271897E-1,9.940296412E-1,-8.540576696E-1
3.833691041E0,1.026710793E-1,1.147967458E0,-8.015232682E-1
3.836110104E0,4.402807355E-2,1.286022902E0,-7.441020012E-1
3.838529948E0,-2.927568741E-2,1.411860943E0,-6.622461081E-1
3.840949010E0,-1.282357723E-1,1.513264537E0,-5.645077825E-1
3.843367343E0,-2.479652613E-1,1.597563863E0,-4.899822176E-1
3.845786406E0,-3.750251234E-1,1.678197980E0,-4.288957417E-1
3.848206250E0,-5.045284033E-1,1.777158141E0,-3.702527285E-1
3.850625312E0,-6.401403546E-1,1.899331093E0,-3.152748942E-1
3.853043646E0,-7.769740820E-1,2.032499552E0,-2.712926567E-1
3.855462708E0,-9.150294662E-1,2.164446354E0,-2.395277023E-1
3.857882552E0,-1.040867686E0,2.289062738E0,-2.248669416E-1
3.860301614E0,-1.144714713E0,2.396574974E0,-2.334190458E-1
3.862719896E0,-1.213131547E0,2.502865553E0,-2.700709105E-1
3.865139010E0,-1.240009665E0,2.598160505E0,-3.238270283E-1
3.867558854E0,-1.222905397E0,2.664133787E0,-4.117915332E-1
3.869977916E0,-1.159375548E0,2.692233562E0,-5.302993655E-1
3.872396250E0,-1.039646029E0,2.677572727E0,-6.598026752E-1
3.874815312E0,-8.795993328E-1,2.622595072E0,-7.868625522E-1
3.877235156E0,-6.926747561E-1,2.541960955E0,-9.029268026E-1
3.879654218E0,-4.886459708E-1,2.460104942E0,-1.001886845E0
3.882072552E0,-2.675129473E-1,2.383136034E0,-1.083742738E0
3.884491614E0,-4.027125612E-2,2.301280260E0,-1.160711646E0
3.886911458E0,1.771965921E-1,2.225533009E0,-1.229128480E0
3.889330521E0,3.641211689E-1,2.179107189E0,-1.284106374E0
3.891748854E0,5.070635676E-1,2.170555115E0,-1.334197283E0
3.894167916E0,6.035802364E-1,2.204763412E0,-1.372070909E0
3.896587760E0,6.610015035E-1,2.271958590E0,-1.397727251E0
3.899006823E0,6.829926372E-1,2.355036259E0,-1.411166191E0
3.901425156E0,6.732187867E-1,2.453996420E0,-1.416053176E0
3.903844218E0,6.463407278E-1,2.555399895E0,-1.412387967E0
3.906264062E0,6.096888781E-1,2.631147146E0,-1.403835893E0
3.908683125E0,5.644848347E-1,2.705672503E0,-1.385509849E0
3.911101458E0,5.119504929E-1,2.771646023E0,-1.356188416E0
3.913520521E0,4.569725990E-1,2.815628290E0,-1.325645208E0
3.915940364E0,4.056599736E-1,2.818071604E0,-1.279219389E0
3.918359479E0,3.592342734E-1,2.789971828E0,-1.227906823E0
3.920777760E0,3.164737225E-1,2.743546247E0,-1.161933422E0
3.923196823E0,2.859304845E-1,2.671464205E0,-1.105733871E0
3.925616666E0,2.614959180E-1,2.579834461E0,-1.045869112E0
3.928035781E0,2.517220676E-1,2.475987434E0,-9.957782626E-1
3.930454062E0,2.590524554E-1,2.333045006E0,-9.566829205E-1
3.932873125E0,2.847087681E-1,2.174220324E0,-9.273614287E-1
3.935292968E0,3.225823641E-1,2.011730194E0,-8.907095194E-1
3.937712083E0,3.702298105E-1,1.868787766E0,-8.613880277E-1
3.940130364E0,4.215424657E-1,1.756388664E0,-8.271796107E-1
3.942549427E0,4.752985537E-1,1.656206846E0,-7.929711938E-1
3.944969271E0,5.278329849E-1,1.571907520E0,-7.624279261E-1
3.947388385E0,5.779238939E-1,1.505934119E0,-7.294412255E-1
3.949806666E0,6.194626689E-1,1.460730195E0,-7.050066590E-1
3.952225729E0,6.548928618E-1,1.420413136E0,-6.817938089E-1
3.954645625E0,6.903229952E-1,1.386204720E0,-6.622461081E-1
3.957064687E0,7.233096957E-1,1.350774527E0,-6.439201832E-1
3.959482968E0,7.562963963E-1,1.310457468E0,-6.268159747E-1
3.961902031E0,7.905048132E-1,1.270140409E0,-6.072682738E-1
3.964321927E0,8.234915137E-1,1.223714709E0,-5.938292742E-1
3.966740989E0,8.564782143E-1,1.171180248E0,-5.755033493E-1
3.969159271E0,8.906866312E-1,1.116202474E0,-5.535122156E-1
3.971578333E0,9.248950481E-1,1.052672505E0,-5.339645147E-1
3.973998229E0,9.554382563E-1,9.842557907E-1,-5.217472315E-1
3.976417291E0,9.847598076E-1,9.195041656E-1,-5.058647394E-1
3.978835573E0,1.010416031E0,8.523090482E-1,-4.948691428E-1
3.981254635E0,1.038515806E0,7.814487219E-1,-4.924256802E-1
3.983674531E0,1.062950373E0,6.995928288E-1,-4.838735759E-1
3.986093593E0,1.103267431E0,5.835285187E-1,-4.740997255E-1
3.988511875E0,1.138697624E0,4.845684767E-1,-4.789866507E-1
3.990930937E0,1.153358340E0,4.185950756E-1,-4.875387549E-1
3.993350833E0,1.154580116E0,3.697258830E-1,-5.009778142E-1
3.995769896E0,1.149693131E0,3.269653618E-1,-5.119733810E-1
3.998188177E0,1.139919281E0,2.878700197E-1,-5.266341567E-1
4.000607239E0,1.131367207E0,2.524398565E-1,-5.474035740E-1
4.003027135E0,1.122815132E0,2.182314098E-1,-5.645077825E-1
4.005446198E0,1.110597849E0,1.864664555E-1,-5.791684985E-1
4.007864479E0,1.095937014E0,1.669187844E-1,-5.987161994E-1
4.010283541E0,1.075167656E0,1.522580236E-1,-6.158204079E-1
4.012703437E0,1.051954746E0,1.473711133E-1,-6.329246163E-1
4.015122500E0,1.020189881E0,1.608101279E-1,-6.536940336E-1
4.017540781E0,9.786511660E-1,1.828012615E-1,-6.769068837E-1
4.019959896E0,9.285602570E-1,2.133444995E-1,-6.903458834E-1
4.022379739E0,8.674737811E-1,2.622137070E-1,-7.098935843E-1
4.024798802E0,7.941700220E-1,3.233001828E-1,-7.294412255E-1
4.027217083E0,7.147575617E-1,3.868301213E-1,-7.514323592E-1
4.029636198E0,6.219061613E-1,4.650208056E-1,-7.722017765E-1
4.032056041E0,5.095070004E-1,5.920806527E-1,-7.905277014E-1
4.034475104E0,3.958861530E-1,7.191405296E-1,-8.149623275E-1
4.036893385E0,2.871522307E-1,8.400917053E-1,-8.503924608E-1
4.039312500E0,1.833052337E-1,9.622646570E-1,-8.846008778E-1
4.041732343E0,9.045379609E-2,1.081994057E0,-9.188092947E-1
4.044151406E0,1.104138047E-2,1.201723576E0,-9.469090700E-1
4.046569739E0,-5.126682296E-2,1.310457468E0,-9.737871289E-1
4.048988802E0,-9.891427308E-2,1.414304495E0,-9.957782626E-1
4.051408646E0,-1.367878765E-1,1.523038387E0,-1.011660695E0
4.053827708E0,-1.673311144E-1,1.634215713E0,-1.026321411E0
4.056246041E0,-1.856570542E-1,1.739284515E0,-1.033651829E0
4.058665104E0,-1.978743523E-1,1.840687990E0,-1.032430053E0
4.061084948E0,-2.015395463E-1,1.926209092E0,-1.027543187E0
4.063504062E0,-1.917657107E-1,1.988517404E0,-1.012882471E0
4.065922343E0,-1.783266813E-1,2.033721447E0,-9.884479046E-1
4.068341406E0,-1.587790102E-1,2.049603939E0,-9.579046369E-1
4.070761250E0,-1.172402129E-1,1.987295508E0,-9.053702950E-1
4.073180364E0,-7.814487070E-2,1.917657018E0,-8.442838192E-1
4.075598646E0,-5.981893092E-2,1.899331093E0,-7.966363430E-1
4.078017708E0,-6.104066223E-2,1.884670258E0,-7.379933596E-1
4.080437552E0,-7.325796038E-2,1.901774526E0,-6.781286001E-1
4.082856666E0,-8.791870624E-2,1.917657018E0,-6.182638407E-1
4.085274948E0,-9.647081047E-2,1.895665884E0,-5.547339320E-1
4.087694010E0,-8.669697493E-2,1.827249050E0,-4.838735759E-1
4.090113906E0,-6.592757255E-2,1.738062739E0,-4.240088165E-1
4.092532968E0,-4.637990519E-2,1.654985189E0,-3.653658032E-1
4.094951250E0,-2.683223225E-2,1.597563863E0,-3.152748942E-1
4.097370312E0,-1.705839671E-2,1.541364312E0,-2.725143731E-1
4.099790208E0,-1.217147894E-2,1.476612687E0,-2.260886729E-1
4.102209271E0,-9.728020057E-3,1.404530644E0,-1.869933307E-1
4.104627552E0,-1.339321025E-2,1.322674751E0,-1.515631825E-1
4.107046614E0,-2.438877337E-2,1.245705843E0,-1.088026389E-1
4.109466510E0,-4.271471873E-2,1.165071607E0,-7.703766972E-2
4.111885573E0,-7.081449777E-2,1.074663639E0,-4.038579389E-2
4.114303854E0,-9.769254178E-2,9.842557907E-1,-6.872205995E-5
4.116722968E0,-1.038011983E-1,8.449786305E-1,5.368737504E-2
4.119142812E0,-1.074663773E-1,7.081449628E-1,9.889137000E-2
4.121561875E0,-1.319009662E-1,5.994110107E-1,1.404301673E-1
4.123980156E0,-1.648876518E-1,4.870119095E-1,1.746385843E-1
4.126399271E0,-2.113133818E-1,4.063777924E-1,1.941862553E-1
4.128819114E0,-2.638477683E-1,3.379609287E-1,2.210642993E-1
4.131238177E0,-3.066082895E-1,2.878700197E-1,2.516075671E-1
4.133656458E0,-3.566991985E-1,2.756527364E-1,2.760421336E-1
4.136075573E0,-4.092335701E-1,2.744309902E-1,3.078071177E-1
4.138495416E0,-4.471071661E-1,2.719875276E-1,3.285765052E-1
4.140914479E0,-4.629896581E-1,2.463311851E-1,3.456807137E-1
4.143332812E0,-4.642114043E-1,2.218966037E-1,3.701153100E-1
4.145751875E0,-4.568810165E-1,2.121227682E-1,3.921064436E-1
4.148171718E0,-4.495506287E-1,2.084575742E-1,4.275366068E-1
4.150590833E0,-4.458854496E-1,2.023489326E-1,4.812926948E-1
4.153009114E0,-4.471071661E-1,1.962402910E-1,5.387139320E-1
4.155428177E0,-4.544375539E-1,1.803577989E-1,5.985786319E-1
4.157848073E0,-4.690983295E-1,1.595883965E-1,6.596651077E-1
4.160267135E0,-4.923111796E-1,1.363755465E-1,7.183081508E-1
4.162685416E0,-5.228543282E-1,1.094974950E-1,7.806163430E-1
4.165104479E0,-5.521758199E-1,8.017599583E-2,8.380376101E-1
4.167524375E0,-5.876060128E-1,3.130681813E-2,9.052327275E-1
4.169943437E0,-6.230361462E-1,-3.344484419E-2,9.822016954E-1
4.172361718E0,-6.609097719E-1,-1.067486107E-1,1.060392499E0
4.174780781E0,-6.975616217E-1,-1.898262203E-1,1.144691825E0
4.177200677E0,-7.329918146E-1,-2.826776206E-1,1.224104166E0
4.179619739E0,-7.684219480E-1,-3.828594387E-1,1.303516626E0
4.182038021E0,-8.001869321E-1,-4.915933609E-1,1.392702818E0
4.184457135E0,-8.343953490E-1,-5.966621041E-1,1.478223920E0
4.186876979E0,-8.649385571E-1,-7.017308474E-1,1.561301470E0
4.189296041E0,-8.967035413E-1,-8.055778146E-1,1.637048721E0
4.191714323E0,-9.284685254E-1,-9.118682742E-1,1.720126390E0
4.194133437E0,-9.565683007E-1,-1.008385062E0,1.787321448E0
4.196553281E0,-9.846680164E-1,-1.111010313E0,1.863068700E0
4.198972343E0,-1.006659269E0,-1.212413907E0,1.932707310E0
4.201390625E0,-1.022541761E0,-1.323591232E0,1.995015502E0
4.203809739E0,-1.033537388E0,-1.445764184E0,2.062210798E0
4.206229583E0,-1.037202597E0,-1.578932643E0,2.129405737E0
4.208648698E0,-1.032315612E0,-1.707214236E0,2.194157600E0
4.211066979E0,-1.026206970E0,-1.835495830E0,2.261352539E0
4.213486041E0,-1.028650403E0,-1.946673274E0,2.323660851E0
4.215905885E0,-1.032315612E0,-2.039524555E0,2.383525610E0
4.218325000E0,-1.042089462E0,-2.118937016E0,2.449498892E0
4.220743281E0,-1.048198104E0,-2.192240715E0,2.521580935E0
4.223162343E0,-1.050641537E0,-2.261879206E0,2.609545469E0
4.225582187E0,-1.046976447E0,-2.329074383E0,2.701175213E0
4.228001302E0,-1.035980821E0,-2.388939142E0,2.800135374E0
4.230419583E0,-1.015211463E0,-2.454912663E0,2.900317192E0
4.232838646E0,-9.834463596E-1,-2.514777422E0,2.999277115E0
4.235258541E0,-9.419075251E-1,-2.522107601E0,3.094572067E0
4.237677604E0,-8.930383325E-1,-2.502560139E0,3.172762871E0
4.240095885E0,-8.527212739E-1,-2.464686394E0,3.228962421E0
4.242515000E0,-8.136259317E-1,-2.397491217E0,3.260727406E0
4.244934843E0,-7.769740820E-1,-2.337626457E0,3.249731779E0
4.247353906E0,-7.391004562E-1,-2.292422533E0,3.203305960E0
4.249772187E0,-6.877878308E-1,-2.226449251E0,3.104346037E0
4.252191302E0,-6.413620710E-1,-2.131154299E0,2.934525490E0
4.254611146E0,-6.047102213E-1,-2.006537914E0,2.701175213E0
4.257030208E0,-5.851625204E-1,-1.839161038E0,2.399408102E0
4.259448541E0,-5.827190876E-1,-1.651014686E0,2.014563322E0
4.261867604E0,-5.949363708E-1,-1.472642183E0,1.594288230E0
4.264287448E0,-6.132622957E-1,-1.299156666E0,1.164239407E0
4.266706510E0,-6.474707127E-1,-1.123227596E0,7.378557920E-1
4.269124843E0,-6.914529800E-1,-9.448549747E-1,3.420155346E-1
4.271543906E0,-7.391004562E-1,-7.872518897E-1,2.374737058E-3
4.273963750E0,-7.879696488E-1,-6.601920128E-1,-2.957272232E-1
4.276382864E0,-8.343953490E-1,-5.820013285E-1,-5.376297235E-1
4.278801146E0,-8.820427656E-1,-5.502363443E-1,-7.184456587E-1
4.281220208E0,-9.272468090E-1,-5.648971200E-1,-8.503924608E-1
4.283640104E0,-9.761159420E-1,-6.382008791E-1,-9.249179363E-1
4.286059166E0,-1.033537388E0,-7.615955472E-1,-9.432439208E-1
4.288477448E0,-1.100732446E0,-9.155334830E-1,-9.310265779E-1
4.290896510E0,-1.180144906E0,-1.086575747E0,-8.931530118E-1
4.293316406E0,-1.270552874E0,-1.247843981E0,-8.320665359E-1
4.295735468E0,-1.378065109E0,-1.359021425E0,-7.685365677E-1
4.298153750E0,-1.500238061E0,-1.426216483E0,-7.086718678E-1
4.300572864E0,-1.637071729E0,-1.443320751E0,-6.390332580E-1
4.302992708E0,-1.780014038E0,-1.444542408E0,-5.730598569E-1
4.305411771E0,-1.915626049E0,-1.449429393E0,-5.229689479E-1
4.307830104E0,-2.042685747E0,-1.449429393E0,-4.912039340E-1
4.310249166E0,-2.185627937E0,-1.440877199E0,-4.875387549E-1
4.312669010E0,-2.334678888E0,-1.448207617E0,-4.728780091E-1
4.315088073E0,-2.436082602E0,-1.534950376E0,-4.459999502E-1
4.317506406E0,-2.515494823E0,-1.625358462E0,-4.093480706E-1
4.319925468E0,-2.604681253E0,-1.687666655E0,-3.971307874E-1
4.322345312E0,-2.695089102E0,-1.752418280E0,-3.971307874E-1
4.324764427E0,-2.791605711E0,-1.812283039E0,-4.056828916E-1
4.327182708E0,-2.890565872E0,-1.877034664E0,-4.374478459E-1
4.329601771E0,-2.982195616E0,-1.973551273E0,-4.948691428E-1
4.332021666E0,-3.051834106E0,-2.093280554E0,-5.474035740E-1
4.334440729E0,-3.105590343E0,-2.235001326E0,-5.962727666E-1
4.336859010E0,-3.138576984E0,-2.387717485E0,-6.439201832E-1
4.339278073E0,-3.139798641E0,-2.558759689E0,-6.573591828E-1
4.341697968E0,-3.119029284E0,-2.732245207E0,-6.488071084E-1
4.344117031E0,-3.079933882E0,-2.899622202E0,-6.353681087E-1
4.346535312E0,-3.021291018E0,-3.046229601E0,-5.681729913E-1
4.348954427E0,-2.963869572E0,-3.153741837E0,-4.594389796E-1
4.351374271E0,-2.901561499E0,-3.225823879E0,-3.433746696E-1
4.353793333E0,-2.808710098E0,-3.252701998E0,-2.016540915E-1
4.356211614E0,-2.704863071E0,-3.234375954E0,-4.160752520E-2
4.358630729E0,-2.576581478E0,-3.167180777E0,9.400444478E-2
4.361050573E0,-2.425086975E0,-3.070664167E0,2.259512246E-1
4.363469635E0,-2.258931875E0,-2.958265066E0,3.505676389E-1
4.365887968E0,-2.083002806E0,-2.833648682E0,4.397538900E-1
4.368307031E0,-1.891191483E0,-2.698036671E0,5.069489479E-1
4.370726875E0,-1.678610563E0,-2.564868212E0,5.643702149E-1
4.373145989E0,-1.456255794E0,-2.424369335E0,5.973569155E-1
4.375564271E0,-1.220461965E0,-2.287535667E0,6.303436160E-1
4.377983333E0,-9.846680164E-1,-2.148258448E0,6.547781825E-1
4.380403229E0,-7.439873815E-1,-1.997985840E0,6.731041670E-1
4.382822291E0,-5.020849109E-1,-1.829387188E0,6.914300919E-1
4.385240573E0,-2.638477683E-1,-1.642462611E0,6.987604499E-1
4.387659635E0,-3.171915188E-2,-1.438433766E0,6.938735247E-1
4.390079531E0,1.906356066E-1,-1.219744205E0,6.779910922E-1
4.392498593E0,3.934426904E-1,-1.003498077E0,6.694389582E-1
4.394916875E0,5.742586851E-1,-8.104647398E-1,6.572216749E-1
4.397335989E0,7.233096957E-1,-6.565268636E-1,6.376739740E-1
4.399755833E0,8.503695726E-1,-5.465711951E-1,6.279001832E-1
4.402174896E0,9.542165399E-1,-4.671587646E-1,6.046872735E-1
4.404593229E0,1.048289657E0,-4.182896018E-1,5.863613486E-1
4.407012291E0,1.116706491E0,-3.914115429E-1,5.668137074E-1
4.409432135E0,1.176571250E0,-3.914115429E-1,5.350487232E-1
4.411851198E0,1.225440383E0,-4.170678556E-1,5.167227983E-1
4.414269531E0,1.264535666E0,-4.573849440E-1,4.983969033E-1
4.416688593E0,1.293857217E0,-5.086975694E-1,4.629667401E-1
4.419108489E0,1.314626575E0,-5.893317461E-1,4.470842779E-1
4.421527552E0,1.331730843E0,-6.699658632E-1,4.165410399E-1
4.423945833E0,1.335396051E0,-7.677041888E-1,3.872195184E-1
4.426364896E0,1.331730843E0,-8.703294992E-1,3.713370264E-1
4.428784791E0,1.319513559E0,-9.753982425E-1,3.469024599E-1
4.431203854E0,1.299965858E0,-1.080467105E0,3.175809383E-1
4.433622135E0,1.276753068E0,-1.185535789E0,2.992550135E-1
4.436041198E0,1.248653173E0,-1.284495831E0,2.711552382E-1
4.438461093E0,1.218109965E0,-1.377347350E0,2.393902391E-1
4.440880156E0,1.182679892E0,-1.455538034E0,2.076252848E-1
4.443298437E0,1.152136564E0,-1.522733092E0,1.807472259E-1
4.445717552E0,1.113041282E0,-1.570380569E0,1.440953463E-1
4.448137396E0,1.070280790E0,-1.600923777E0,1.050000116E-1
4.450556510E0,1.032407165E0,-1.629023552E0,9.156098962E-2
4.452974791E0,9.786511660E-1,-1.636353970E0,5.613083020E-2
4.455393854E0,9.236733317E-1,-1.631467104E0,3.780489042E-2
4.457813698E0,8.662520647E-1,-1.622914910E0,3.047451563E-2
4.460232812E0,8.112742305E-1,-1.605810761E0,-3.733910387E-3
4.462651093E0,7.648484707E-1,-1.587484837E0,-4.038579389E-2
4.465070156E0,7.208662033E-1,-1.566715360E0,-6.970729679E-2
4.467490052E0,6.793274283E-1,-1.533728719E0,-1.136895567E-1
4.469909114E0,6.365668774E-1,-1.483637810E0,-1.601152867E-1
4.472327396E0,5.938063860E-1,-1.416442633E0,-1.918802410E-1
4.474746458E0,5.473806262E-1,-1.334586740E0,-2.358625084E-1
4.477166354E0,4.997331500E-1,-1.244178772E0,-2.786230147E-1
4.479585416E0,4.557508826E-1,-1.162322998E0,-3.079445362E-1
4.482003698E0,4.105468988E-1,-1.098793030E0,-3.494833410E-1
4.484422812E0,3.616777062E-1,-1.062141180E0,-3.885786831E-1
4.486842656E0,3.176954687E-1,-1.035263062E0,-4.227871001E-1
4.489261718E0,2.761566639E-1,-1.014493704E0,-4.667693675E-1
4.491680052E0,2.321744114E-1,-1.007163286E0,-5.217472315E-1
4.494099114E0,1.943008006E-1,-1.009606719E0,-5.645077825E-1
4.496518958E0,1.539837271E-1,-1.021824002E0,-6.219290495E-1
4.498938073E0,1.136666462E-1,-1.029154420E0,-6.903458834E-1
4.501356354E0,7.334958017E-2,-1.024267554E0,-7.465454340E-1
4.503775416E0,3.791942820E-2,-9.973893762E-1,-8.051884770E-1
4.506195312E0,1.267542597E-3,-9.521853328E-1,-8.650532365E-1
4.508614375E0,-3.294088319E-2,-8.898771405E-1,-9.151441455E-1
4.511032656E0,-6.348412484E-2,-8.055778146E-1,-9.713436961E-1
4.513451771E0,-8.791870624E-2,-7.041742802E-1,-1.034873605E0
4.515871614E0,-1.086881086E-1,-5.929968953E-1,-1.084964514E0
4.518290677E0,-1.233488694E-1,-4.757108688E-1,-1.130168438E0
4.520709010E0,-1.416748017E-1,-3.547596633E-1,-1.174150705E0
4.523128073E0,-1.587790102E-1,-2.411388606E-1,-1.207137346E0
4.525547916E0,-1.697745770E-1,-1.348483860E-1,-1.232793689E0
4.527967031E0,-1.771049500E-1,-2.733619511E-2,-1.252341390E0
4.530385312E0,-1.856570542E-1,7.162389159E-2,-1.262115240E0
4.532804375E0,-1.942091584E-1,1.718056947E-1,-1.262115240E0
4.535224271E0,-1.990960836E-1,2.756527364E-1,-1.254784822E0
4.537643333E0,-2.003178149E-1,3.782780170E-1,-1.238902330E0
4.540061614E0,-1.990960836E-1,4.882336259E-1,-1.209580898E0
4.542480677E0,-1.893222481E-1,5.981892943E-1,-1.176594138E0
4.544900573E0,-1.697745770E-1,7.008146048E-1,-1.138720512E0
4.547319635E0,-1.392313391E-1,7.826704383E-1,-1.093516588E0
4.549737916E0,-9.524907917E-2,8.254309893E-1,-1.050755978E0
4.552157031E0,-4.760163650E-2,8.009963632E-1,-1.006773829E0
4.554576875E0,-1.175912563E-3,7.118101120E-1,-9.603481293E-1
4.556995989E0,4.402807355E-2,5.554287434E-1,-9.114789367E-1
4.559414271E0,8.556687087E-2,3.416261077E-1,-8.674966693E-1
4.561833333E0,1.185535714E-1,8.017599583E-2,-8.174057603E-1
4.564253177E0,1.442098916E-1,-2.118173540E-1,-7.599844933E-1
4.566672291E0,1.637575626E-1,-5.172497034E-1,-7.037849426E-1
4.569090573E0,1.747531295E-1,-8.153516650E-1,-6.378115416E-1
4.571509635E0,1.808617711E-1,-1.082910538E0,-5.681729913E-1
4.573929531E0,1.845269650E-1,-1.302821875E0,-4.850952923E-1
4.576348593E0,1.943008006E-1,-1.466533542E0,-3.898003995E-1
4.578766875E0,2.089615464E-1,-1.581376195E0,-2.810664773E-1
4.581185989E0,2.346178740E-1,-1.657123327E0,-1.601152867E-1
4.583605833E0,2.688262761E-1,-1.693775296E0,-3.794233501E-2
4.586024896E0,3.103650808E-1,-1.681558013E0,9.400444478E-2
4.588443229E0,3.347996771E-1,-1.575267553E0,2.173991203E-1
4.590862291E0,3.543473482E-1,-1.424994826E0,3.359068930E-1
4.593282135E0,3.848905861E-1,-1.264948249E0,4.348669648E-1
4.595701250E0,3.995513320E-1,-1.065806270E0,5.167227983E-1
4.598119531E0,4.032165110E-1,-8.458948731E-1,5.814744234E-1
4.600538593E0,3.836688399E-1,-6.162097454E-1,6.279001832E-1
4.602958489E0,3.396865726E-1,-4.195113182E-1,6.645520329E-1
4.605377552E0,2.688262761E-1,-2.692386210E-1,6.889866590E-1
4.607795833E0,1.833052337E-1,-1.617264450E-1,7.048690915E-1
4.610214896E0,7.701476663E-2,-1.165224463E-1,7.170864344E-1
4.612634791E0,-4.149298742E-2,-1.385135800E-1,7.195298672E-1
4.615053854E0,-1.673311144E-1,-2.142608017E-1,7.085343003E-1
4.617472135E0,-2.907257974E-1,-3.315468132E-1,6.865431666E-1
4.619891250E0,-4.177856743E-1,-4.830412567E-1,6.523347497E-1
4.622311093E0,-5.167456865E-1,-6.650789380E-1,6.083524823E-1
4.624730208E0,-6.132622957E-1,-8.446731567E-1,5.509312153E-1
4.627148489E0,-6.865661144E-1,-1.012050152E0,4.825144112E-1
4.629567552E0,-7.281048894E-1,-1.151327372E0,4.031020105E-1
4.631987448E0,-7.464308143E-1,-1.261283040E0,3.188026845E-1
4.634406510E0,-7.366569638E-1,-1.335808516E0,2.235077620E-1
4.636824791E0,-7.048920393E-1,-1.373682141E0,1.318780482E-1
4.639243906E0,-6.548011303E-1,-1.384677649E0,4.391353950E-2
4.641663750E0,-5.839408040E-1,-1.383455992E0,-3.916406259E-2
4.644082812E0,-4.959762990E-1,-1.377347350E0,-1.075809076E-1
4.646501093E0,-3.909076154E-1,-1.371238708E0,-1.674456596E-1
4.648920208E0,-2.711781263E-1,-1.365130067E0,-2.175365686E-1
4.651340052E0,-1.428965330E-1,-1.346804142E0,-2.541884482E-1
4.653759114E0,-2.397643868E-3,-1.316260815E0,-2.822882235E-1
4.656177448E0,1.417664289E-1,-1.267391682E0,-3.103879988E-1
4.658596510E0,2.908174098E-1,-1.197753072E0,-3.384877741E-1
4.661016354E0,4.398683906E-1,-1.107345104E0,-3.763613701E-1
4.663435468E0,5.852542520E-1,-9.973893762E-1,-4.203436375E-1
4.665853750E0,7.281966209E-1,-8.605556488E-1,-4.753214717E-1
4.668272812E0,8.638085723E-1,-7.102829218E-1,-5.241907239E-1
4.670692708E0,9.933118820E-1,-5.514581203E-1,-5.767250657E-1
4.673111771E0,1.111819506E0,-3.962984681E-1,-6.194856167E-1
4.675530052E0,1.221775174E0,-2.509126663E-1,-6.451418996E-1
4.677949166E0,1.326843977E0,-1.275180131E-1,-6.659113169E-1
4.680369010E0,1.417251945E0,-2.855792455E-2,-6.707982421E-1
4.682788073E0,1.492999077E0,4.352410510E-2,-6.610243917E-1
4.685206406E0,1.556529045E0,9.117156267E-2,-6.353681087E-1
4.687625468E0,1.599289536E0,1.217147931E-1,-5.938292742E-1
4.690045364E0,1.632276297E0,1.363755465E-1,-5.351862907E-1
4.692464427E0,1.660376072E0,1.461493820E-1,-4.704345465E-1
4.694882708E0,1.682367206E0,1.620318592E-1,-3.983525038E-1
4.697301771E0,1.700693130E0,1.754708886E-1,-3.189401031E-1
4.699721666E0,1.714132190E0,1.803577989E-1,-2.505232692E-1
4.702140729E0,1.728792906E0,1.718056947E-1,-1.979888976E-1
4.704559010E0,1.734901547E0,1.498145610E-1,-1.613370180E-1
4.706978125E0,1.737344980E0,1.131626889E-1,-1.491197199E-1
4.709397968E0,1.732458115E0,6.307177991E-2,-1.527848989E-1
4.711817083E0,1.717797279E0,1.908952370E-2,-1.808846891E-1
4.714235364E0,1.692141056E0,-3.466657177E-2,-2.224234790E-1
4.716654427E0,1.654267430E0,-7.254018635E-2,-2.664057314E-1
4.719074323E0,1.601733088E0,-7.376191020E-2,-3.164966404E-1
4.721493385E0,1.541868329E0,-4.566213861E-2,-3.641440868E-1
4.723911666E0,1.485668778E0,1.908952370E-2,-4.069046080E-1
4.726330729E0,1.425804019E0,1.339320838E-1,-4.252305627E-1
4.728750625E0,1.367161036E0,2.988655865E-1,-4.313392043E-1
4.731169687E0,1.312183142E0,4.747946262E-1,-4.105698168E-1
4.733587968E0,1.255983591E0,6.519454122E-1,-3.580354452E-1
4.736007083E0,1.196118832E0,8.266527057E-1,-2.896185815E-1
4.738426927E0,1.133810639E0,1.000138283E0,-2.016540915E-1
4.740846041E0,1.060506940E0,1.178510666E0,-8.681150526E-2
4.743264323E0,9.884249568E-1,1.372765660E0,2.803105488E-2
4.745683385E0,9.065691233E-1,1.553581595E0,1.538691819E-1
4.748103281E0,8.234915137E-1,1.708741188E0,2.845942378E-1
4.750522343E0,7.391921878E-1,1.818696856E0,4.067671895E-1
4.752940625E0,6.622232199E-1,1.871231318E0,5.167227983E-1
4.755359739E0,5.913628936E-1,1.855348825E0,6.059090495E-1
4.757779583E0,5.290547013E-1,1.775936365E0,6.572216749E-1
4.760198646E0,4.716333747E-1,1.653763413E0,6.694389582E-1
4.762616979E0,4.203207195E-1,1.503490686E0,6.498913169E-1
4.765036041E0,3.714515567E-1,1.338557243E0,5.961351991E-1
4.767455885E0,3.201389313E-1,1.183397532E0,5.106141567E-1
4.769875000E0,2.639393806E-1,1.044120431E0,4.092106521E-1
4.772293281E0,1.894138753E-1,9.353866577E-1,2.858159840E-1
4.774712343E0,1.014493629E-1,8.620828390E-1,1.282128692E-1
4.777132239E0,4.581501707E-5,8.119919300E-1,-3.794233501E-2
4.779551302E0,-1.099098399E-1,7.753400803E-1,-1.955454350E-1
4.781969583E0,-2.186437398E-1,7.313578129E-1,-3.409312367E-1
4.784388698E0,-3.176038563E-1,6.727147698E-1,-4.618824422E-1
4.786808541E0,-4.055683613E-1,5.896372199E-1,-5.645077825E-1
4.789227604E0,-4.776504040E-1,4.772380888E-1,-6.475853920E-1
4.791645937E0,-5.387368202E-1,3.501782119E-1,-7.135587931E-1
4.794065000E0,-5.937146544E-1,2.231183350E-1,-7.709800601E-1
4.796484843E0,-6.523576379E-1,1.119409576E-1,-8.222926855E-1
4.798903958E0,-7.097789645E-1,1.664606482E-2,-8.674966693E-1
4.801322239E0,-7.659785151E-1,-7.009672374E-2,-9.127006531E-1
4.803741302E0,-8.160694242E-1,-1.531743407E-1,-9.603481293E-1
4.806161198E0,-8.551647663E-1,-2.228129208E-1,-1.005552053E0
4.808580260E0,-8.820427656E-1,-2.912297249E-1,-1.045869112E0
4.810998541E0,-8.979252577E-1,-3.608683050E-1,-1.084964514E0
4.813417656E0,-9.040338993E-1,-4.182896018E-1,-1.116729379E0
4.815837500E0,-8.954818249E-1,-4.573849440E-1,-1.137498856E0
4.818256614E0,-8.808210492E-1,-4.720456898E-1,-1.152159572E0
4.820674896E0,-8.576081991E-1,-4.634935856E-1,-1.143607497E0
4.823093958E0,-8.270649910E-1,-4.378372729E-1,-1.132611871E0
4.825513854E0,-7.879696488E-1,-3.962984681E-1,-1.117951155E0
4.827932916E0,-7.415438890E-1,-3.364337087E-1,-1.092294812E0
4.830351198E0,-6.841226220E-1,-2.680168748E-1,-1.060529828E0
4.832770312E0,-6.181492209E-1,-2.020435184E-1,-1.016547561E0
4.835190156E0,-5.472889543E-1,-1.299614757E-1,-9.615698457E-1
4.837609218E0,-4.752069712E-1,-5.665770546E-2,-9.078137279E-1
4.840027552E0,-4.031249285E-1,1.664606482E-2,-8.552793860E-1
4.842446614E0,-3.347080648E-1,9.483674914E-2,-7.966363430E-1
4.844866458E0,-2.699564099E-1,1.840229928E-1,-7.538758516E-1
4.847285573E0,-2.076481879E-1,2.817613780E-1,-7.098935843E-1
4.849703854E0,-1.490051746E-1,3.904953003E-1,-6.659113169E-1
4.852122916E0,-1.001360044E-1,5.224421024E-1,-6.255942583E-1
4.854542812E0,-6.104066223E-2,6.983711123E-1,-5.889423490E-1
4.856961875E0,-3.294088319E-2,9.243910909E-1,-5.547339320E-1
4.859380156E0,-1.705839671E-2,1.187062740E0,-5.278558731E-1
4.861799271E0,-4.841102753E-3,1.477834344E0,-4.948691428E-1
4.864219114E0,4.581501707E-5,1.786931872E0,-4.704345465E-1
4.866638177E0,-2.397643868E-3,2.083812237E0,-4.545520544E-1
4.869056510E0,-7.284561638E-3,2.348927498E0,-4.301174879E-1
4.871475573E0,-9.728020057E-3,2.571282387E0,-4.117915332E-1
4.873895468E0,-6.062830333E-3,2.761872053E0,-3.946873248E-1
4.876314531E0,-4.841102753E-3,2.914588213E0,-3.763613701E-1
4.878732812E0,-2.397643868E-3,3.029430866E0,-3.739179075E-1
4.881151927E0,8.597921580E-3,3.096626043E0,-3.922438622E-1
4.883571771E0,3.669769689E-2,3.128391027E0,-4.301174879E-1
4.885990833E0,8.067996055E-2,3.135721445E0,-4.838735759E-1
4.888409166E0,1.368795186E-1,3.121060610E0,-5.498470068E-1
4.890828229E0,2.016311735E-1,3.083187103E0,-6.194856167E-1
4.893248073E0,2.871522307E-1,3.025765657E0,-7.062283754E-1
4.895667187E0,3.738950193E-1,2.948796749E0,-7.990798354E-1
4.898085468E0,4.667464495E-1,2.865719080E0,-8.760488033E-1
4.900504531E0,5.473806262E-1,2.778976440E0,-9.725654125E-1
4.902924427E0,6.096888781E-1,2.711781263E0,-1.059308171E0
4.905343489E0,6.487842202E-1,2.667798996E0,-1.127725005E0
4.907761771E0,6.671101451E-1,2.648251295E0,-1.202250481E0
4.910180885E0,6.634449363E-1,2.650694847E0,-1.260893464E0
4.912600729E0,6.475624442E-1,2.658025026E0,-1.292658448E0
4.915019791E0,6.194626689E-1,2.655581713E0,-1.309762716E0
4.917438125E0,5.791456103E-1,2.648251295E0,-1.319536567E0
4.919857187E0,5.363850594E-1,2.644586086E0,-1.307319164E0
4.922277083E0,4.875158370E-1,2.629925251E0,-1.293880224E0
4.924696146E0,4.410901368E-1,2.610377789E0,-1.287771583E0
4.927114427E0,4.056599736E-1,2.574947596E0,-1.273110747E0
4.929533541E0,3.714515567E-1,2.534630537E0,-1.259671807E0
