"Time (s)","Acceleration x (m/s^2)","Acceleration y (m/s^2)","Acceleration z (m/s^2)"
0.000000000E0,-1.845134020E0,8.379010201E0,3.369632006E0
2.497657000E-3,-1.279796004E0,9.375537872E0,4.409278870E0
7.502657000E-3,-1.318124056E0,9.514476776E0,4.639246941E0
1.250760400E-2,-1.366034031E0,9.619878769E0,4.811723232E0
1.500526100E-2,-1.413944006E0,9.758817673E0,4.945870876E0
1.749281300E-2,-1.461853981E0,9.869010925E0,4.974617004E0
1.998036500E-2,-1.528928041E0,1.000794983E1,4.931498051E0
2.247802100E-2,-1.610375047E0,1.015647125E1,4.931498051E0
2.497572900E-2,-1.763687015E0,1.031936455E1,4.883587837E0
2.747338600E-2,-1.921790004E0,1.040560341E1,4.720694065E0
2.997104200E-2,-2.084683895E0,1.053495979E1,4.653619766E0
3.246869800E-2,-2.209249973E0,1.068827248E1,4.562591076E0
3.496640700E-2,-2.314651966E0,1.076013660E1,4.509890079E0
3.746406300E-2,-2.434427023E0,1.086074829E1,4.471561909E0
3.996171900E-2,-2.544620037E0,1.090386677E1,4.485935211E0
4.245937500E-2,-2.630857944E0,1.094698620E1,4.394906044E0
4.495708400E-2,-2.645231009E0,1.094698620E1,4.318250179E0
4.745474000E-2,-2.784169912E0,1.094698620E1,4.351787090E0
5.006354200E-2,-2.923109055E0,1.083200169E1,4.342205048E0
5.256119800E-2,-3.009346962E0,1.066910839E1,4.332623005E0
5.505885400E-2,-3.124330997E0,1.052058697E1,4.361369133E0
5.755656300E-2,-3.292016029E0,1.032415581E1,4.346995831E0
6.005421900E-2,-3.306389093E0,1.010377026E1,4.294294834E0
6.255187500E-2,-3.354299068E0,9.888175011E0,4.313458920E0
6.504953200E-2,-3.440536976E0,9.773191452E0,4.375741959E0
6.754724000E-2,-3.483655930E0,9.576760292E0,4.399696827E0
7.004489600E-2,-3.574685097E0,9.461775780E0,4.414070129E0
7.254255200E-2,-3.636967897E0,9.294091225E0,4.519472122E0
7.504020900E-2,-3.694459915E0,9.260554314E0,4.629664898E0
7.753791700E-2,-3.718415022E0,9.212643623E0,4.701529980E0
8.012625000E-2,-3.771116018E0,9.155152321E0,4.835678101E0
8.262390700E-2,-3.747160912E0,9.222226143E0,4.888379097E0
8.512156300E-2,-3.775907040E0,9.265344620E0,5.036900043E0
8.761927100E-2,-3.713624001E0,9.356373787E0,4.993781090E0
9.011692700E-2,-3.493237972E0,9.524059296E0,4.945870876E0
9.261458400E-2,-3.167449951E0,9.672579765E0,4.773395061E0
9.511229200E-2,-2.755424023E0,9.907339096E0,4.562591076E0
9.760994800E-2,-2.381726027E0,1.019479942E1,4.217638969E0
1.001076040E-1,-2.123012066E0,1.046788597E1,3.800822020E0
1.026052610E-1,-1.859506965E0,1.079367447E1,3.441497087E0
1.051029690E-1,-1.509763956E0,1.109071636E1,3.082171917E0
1.076006250E-1,-1.045037031E0,1.136380291E1,2.655772924E0
1.101513020E-1,-5.707280040E-1,1.169917297E1,2.224582911E0
1.126489590E-1,-3.413600102E-2,1.205849838E1,1.822139025E0
1.151466150E-1,6.126490235E-1,1.241303158E1,1.477187037E0
1.176443230E-1,1.364835978E0,1.290171432E1,1.113070965E0
1.201419790E-1,2.102649927E0,1.340476894E1,7.777010202E-1
1.226396880E-1,2.864418983E0,1.394615173E1,4.710769951E-1
1.251373440E-1,3.650142908E0,1.455939960E1,1.548710018E-1
1.276350000E-1,4.340046883E0,1.518223000E1,6.349999923E-3
1.301326570E-1,5.001204967E0,1.578110504E1,-1.277980059E-1
1.326303130E-1,5.489887238E0,1.655245590E1,-2.715280056E-1
1.351280210E-1,5.940240860E0,1.751544762E1,-3.338110149E-1
1.376256770E-1,6.457668781E0,1.832033539E1,-2.092449963E-1
1.401408860E-1,7.032588959E0,1.895274734E1,-4.635100067E-2
1.426385420E-1,7.626673222E0,1.941747475E1,9.737899899E-2
1.451361980E-1,8.215966225E0,1.984387207E1,3.225559890E-1
1.476338540E-1,8.733393669E0,2.006904984E1,5.189870000E-1
1.501315630E-1,9.212493896E0,2.005467606E1,8.256109953E-1
1.526292190E-1,9.495162964E0,1.995406532E1,1.242427945E0
1.551268750E-1,9.624520302E0,1.970972443E1,1.750273943E0
1.576245320E-1,9.404133797E0,1.922583389E1,2.339566946E0
1.601222400E-1,8.972944260E0,1.841136360E1,2.976769924E0
1.626198960E-1,8.374069214E0,1.729985237E1,3.556480885E0
1.651175520E-1,7.626673222E0,1.595837212E1,4.016417027E0
1.676152610E-1,6.745129108E0,1.471750259E1,4.208056927E0
1.702067190E-1,5.868375778E0,1.345746994E1,4.102654934E0
1.727043750E-1,5.077860832E0,1.226451111E1,3.891850948E0
1.752020320E-1,4.320882797E0,1.113862610E1,3.642719030E0
1.776997400E-1,3.693262100E0,1.005585957E1,3.312139988E0
1.801973960E-1,3.171042919E0,9.116824150E0,2.890532017E0
1.826950520E-1,2.696733952E0,8.273608208E0,2.473715067E0
1.851927610E-1,2.255961895E0,7.507048130E0,2.152718067E0
1.876904170E-1,1.944547057E0,6.797979832E0,1.755064964E0
1.901880730E-1,1.681041956E0,6.136822224E0,1.438858986E0
1.926857290E-1,1.585222006E0,5.628975868E0,1.117861986E0
1.951834380E-1,1.618759036E0,5.159458160E0,7.777010202E-1
1.976810940E-1,1.690623999E0,4.747432232E0,4.950320125E-1
2.002297400E-1,1.843935966E0,4.517464161E0,2.075719982E-1
2.027273960E-1,1.939756036E0,4.311450958E0,-8.946999907E-2
2.052250520E-1,2.049948931E0,4.115019798E0,-2.667370141E-1
2.077227610E-1,2.188888073E0,4.023991108E0,-4.008849859E-1
2.102204170E-1,2.251171112E0,3.928170919E0,-4.967049956E-1
2.127180730E-1,2.227216005E0,3.865888119E0,-5.206599832E-1
2.152157820E-1,2.188888073E0,3.865888119E0,-4.823319912E-1
2.177134380E-1,2.136187077E0,3.947335005E0,-4.056760073E-1
2.202110940E-1,2.069113016E0,4.052737236E0,-3.098559976E-1
2.227087500E-1,1.978083968E0,4.148557186E0,-9.426099807E-2
2.252064590E-1,1.887055039E0,4.287496090E0,1.836169958E-1
2.277041150E-1,1.772071004E0,4.440807819E0,4.135850072E-1
2.302578130E-1,1.695415020E0,4.589328766E0,6.962540150E-1
2.327554690E-1,1.479820013E0,4.828878880E0,1.007668972E0
2.352531250E-1,1.403164029E0,5.092383862E0,1.352620959E0
2.377508340E-1,1.221106052E0,5.442127228E0,1.750273943E0
2.402484900E-1,1.010301948E0,5.854153156E0,2.104808092E0
2.427461460E-1,8.953179717E-1,6.338044167E0,2.507251978E0
2.452438540E-1,7.803339958E-1,6.807561874E0,2.885740995E0
2.477415110E-1,7.228419781E-1,7.339363098E0,3.288184881E0
2.502391670E-1,8.761540055E-1,7.856791019E0,3.628345966E0
2.527368230E-1,1.034257054E0,8.359846115E0,3.982880116E0
2.552345320E-1,1.096539974E0,8.848527908E0,4.140983105E0
2.577321880E-1,1.230687976E0,9.447402954E0,4.327832222E0
2.602876040E-1,1.187569022E0,1.038164806E1,4.644038200E0
2.627852610E-1,1.436701059E0,1.102364159E1,4.979407787E0
2.652829170E-1,1.958920002E0,1.140692234E1,5.113555908E0
2.677806250E-1,2.279917002E0,1.192914104E1,5.166256905E0
2.702782820E-1,2.418855906E0,1.248489666E1,5.185420990E0
2.727759380E-1,2.644032955E0,1.289692307E1,5.147092819E0
2.752736460E-1,2.806926966E0,1.326103878E1,5.113555908E0
2.777713020E-1,3.032104015E0,1.348621559E1,5.070436954E0
2.802689590E-1,3.367474079E0,1.370181084E1,4.969826221E0
2.827666150E-1,3.659724951E0,1.382158566E1,4.744648933E0
2.852643230E-1,3.817827940E0,1.387428665E1,4.423652172E0
2.877619790E-1,3.860946894E0,1.389824200E1,3.982880116E0
2.903093230E-1,3.966348886E0,1.399406242E1,3.561271906E0
2.928069790E-1,4.282555103E0,1.393177891E1,3.264230013E0
2.953046880E-1,4.565224171E0,1.361557293E1,2.885740995E0
2.978023440E-1,4.742490768E0,1.317480087E1,2.397058964E0
3.003000000E-1,4.761654854E0,1.261425400E1,2.066479921E0
3.027976570E-1,4.953295231E0,1.195309639E1,1.841302991E0
3.052953650E-1,5.178472042E0,1.120569992E1,1.788601995E0
3.077930210E-1,5.288664818E0,1.038164806E1,1.812556982E0
3.102906770E-1,5.418022156E0,9.586341858E0,1.841302991E0
3.127883340E-1,5.403648853E0,8.824572563E0,1.755064964E0
3.152860420E-1,5.264709949E0,8.235280037E0,1.860466957E0
3.177836980E-1,5.173680782E0,7.684315205E0,1.922749996E0
3.203372400E-1,5.192844868E0,7.219587803E0,1.980242014E0
3.228348960E-1,5.044323921E0,6.845890045E0,2.085644007E0
3.253325520E-1,4.929339886E0,6.568012238E0,2.339566946E0
3.278302610E-1,4.766446114E0,6.357207775E0,2.516834021E0
3.303279170E-1,4.732909203E0,6.122448921E0,2.627027035E0
3.328255730E-1,4.637088776E0,5.993092060E0,2.775547981E0
3.353232820E-1,4.464612961E0,5.935599804E0,2.943233013E0
3.378209380E-1,4.344838142E0,5.878108025E0,3.096544981E0
3.403185940E-1,4.201107979E0,5.873316765E0,3.134872913E0
3.428162500E-1,4.100496769E0,5.935599804E0,3.269021034E0
3.453139590E-1,3.947185040E0,5.873316765E0,3.441497087E0
3.478116150E-1,3.813036919E0,5.882898808E0,3.336095095E0
3.503616150E-1,3.736381054E0,5.815824986E0,3.312139988E0
3.528592710E-1,3.515995026E0,5.767914772E0,3.436706066E0
3.553569270E-1,3.309982061E0,5.777496815E0,3.412750959E0
3.578546360E-1,3.190207005E0,5.782288074E0,3.364840984E0
3.603522920E-1,3.060849905E0,5.839779854E0,3.307348967E0
3.628499480E-1,2.907537937E0,5.863735199E0,3.245065928E0
3.653476570E-1,2.826091051E0,5.949973106E0,3.130081892E0
3.678453130E-1,2.763808012E0,6.036211014E0,3.015098095E0
3.703429690E-1,2.610496044E0,6.151195049E0,2.952815056E0
3.728406250E-1,2.586540937E0,6.227850914E0,2.900114059E0
3.753383340E-1,2.385318995E0,6.361999035E0,2.828248978E0
3.778359900E-1,2.126605034E0,6.558430195E0,2.813875914E0
3.803910940E-1,1.867890954E0,6.802771091E0,2.809084892E0
3.828887500E-1,1.661877990E0,6.965664864E0,2.852204084E0
3.853864070E-1,1.546893954E0,7.281870842E0,2.852204084E0
3.878841150E-1,1.585222006E0,7.521420956E0,2.828248978E0
3.903817710E-1,1.345672011E0,7.808880806E0,2.828248978E0
3.928794270E-1,1.264225006E0,8.019684792E0,2.852204084E0
3.953771360E-1,1.326508045E0,8.220907211E0,2.718055964E0
3.978747920E-1,1.177986979E0,8.426919937E0,2.679728031E0
4.003724480E-1,1.134868026E0,8.642515182E0,2.646190882E0
4.028701040E-1,9.288550019E-1,8.848527908E0,2.550370932E0
4.053678130E-1,8.905270100E-1,9.035376549E0,2.449759960E0
4.078654690E-1,7.947070003E-1,9.289299965E0,2.464133024E0
4.104187500E-1,7.994980216E-1,9.466567039E0,2.473715067E0
4.129164070E-1,7.947070003E-1,9.624670029E0,2.440177917E0
4.154140630E-1,9.096909761E-1,9.739653587E0,2.334775925E0
4.179117710E-1,1.005511045E0,9.811518669E0,2.282074928E0
4.204094270E-1,1.005511045E0,9.964831352E0,2.238955975E0
4.229070840E-1,1.067793965E0,1.007502365E1,2.181463957E0
4.254047920E-1,1.206732988E0,1.018042564E1,2.123971939E0
4.279024480E-1,1.197150946E0,1.030499172E1,2.095226049E0
4.304001040E-1,1.326508045E0,1.035290241E1,2.167090893E0
4.328977610E-1,1.388790965E0,1.037685680E1,2.147927046E0
4.353954690E-1,1.383999944E0,1.047746754E1,2.262911081E0
4.378931250E-1,1.460656047E0,1.046309471E1,2.373104095E0
4.404036460E-1,1.604385972E0,1.040560341E1,2.368313074E0
4.429013020E-1,1.800817013E0,1.037206554E1,2.430596113E0
4.453989590E-1,1.800817013E0,1.035769272E1,2.454550982E0
4.478966670E-1,1.872681975E0,1.026666355E1,2.564743996E0
4.503943230E-1,2.025994062E0,1.015167999E1,2.660563946E0
4.528919790E-1,2.140978098E0,1.005106926E1,2.770756960E0
4.553896360E-1,2.078695059E0,9.979204178E0,2.852204084E0
4.578872920E-1,2.179306030E0,9.916920662E0,2.904905081E0
4.603850000E-1,2.255961895E0,9.768400192E0,2.933650970E0
4.628826570E-1,2.313453913E0,9.696535110E0,2.995934010E0
4.653803130E-1,2.346991062E0,9.605505943E0,2.943233013E0
4.678780210E-1,2.447602034E0,9.404283524E0,2.914486885E0
4.704573440E-1,2.572168112E0,9.217434883E0,2.813875914E0
4.729550000E-1,2.648823977E0,9.097660065E0,2.751593113E0
4.754526570E-1,2.672779083E0,8.901228905E0,2.703682899E0
4.779503650E-1,2.687151909E0,8.781454086E0,2.698892117E0
4.804480210E-1,2.749434948E0,8.671260834E0,2.622236013E0
4.829456770E-1,2.749434948E0,8.532321930E0,2.550370932E0
4.854433860E-1,2.806926966E0,8.441292763E0,2.497669935E0
4.879410420E-1,2.893165112E0,8.302353859E0,2.425805092E0
4.904386980E-1,2.950656891E0,8.187370300E0,2.191046000E0
4.929363540E-1,2.902746916E0,8.163414955E0,2.435386896E0
4.954340630E-1,2.850045919E0,8.096341133E0,2.464133024E0
4.979317190E-1,2.917119980E0,8.101132393E0,2.392267942E0
5.004835940E-1,2.936284065E0,8.129878044E0,2.406641006E0
5.029812500E-1,2.950656891E0,8.211324692E0,2.444968939E0
5.054789070E-1,2.998567104E0,8.268816948E0,2.574326038E0
5.079766150E-1,3.008148909E0,8.268816948E0,2.665354967E0
5.104742710E-1,3.022521973E0,8.278399467E0,2.722846985E0
5.129719270E-1,3.060849905E0,8.292772293E0,2.794712067E0
5.154696360E-1,3.075222969E0,8.369427681E0,2.828248978E0
5.179672920E-1,3.056058884E0,8.412547112E0,2.866576910E0
5.204649480E-1,3.027312994E0,8.446084023E0,2.900114059E0
5.229626040E-1,3.060849905E0,8.527530670E0,2.933650970E0
5.254603130E-1,3.036895037E0,8.613768578E0,2.986351967E0
5.279579690E-1,2.993776083E0,8.747917175E0,2.967187881E0
5.305154170E-1,2.984194040E0,8.781454086E0,2.938441992E0
5.330140630E-1,2.988985062E0,8.867691994E0,2.928859949E0
5.355127610E-1,2.969820976E0,8.987466812E0,2.842622042E0
5.380114070E-1,2.931493044E0,9.135988235E0,2.780339003E0
5.405100520E-1,2.979403019E0,9.236598969E0,2.751593113E0
5.430086980E-1,2.945866108E0,9.274927139E0,2.722846985E0
5.455073440E-1,2.912328959E0,9.313255310E0,2.684519053E0
5.480059900E-1,2.907537937E0,9.327628136E0,2.612653971E0
5.505046880E-1,2.897955894E0,9.298881531E0,2.636609077E0
5.530033340E-1,2.945866108E0,9.198270798E0,2.401849985E0
5.555019790E-1,2.763808012E0,9.246180534E0,2.698892117E0
5.580006250E-1,2.653614998E0,9.265344620E0,2.818666935E0
5.605379170E-1,2.586540937E0,9.212643623E0,2.785130024E0
5.630365630E-1,2.500303030E0,9.164733887E0,2.818666935E0
5.655352610E-1,2.399692059E0,9.183897972E0,2.948024035E0
5.680339070E-1,2.346991062E0,9.088077545E0,3.106127024E0
5.705325520E-1,2.327826977E0,8.944348335E0,3.249856949E0
5.730311980E-1,2.169723988E0,8.939557076E0,3.273812056E0
5.755298440E-1,2.140978098E0,8.805409431E0,3.360049963E0
5.780284900E-1,2.054739952E0,8.814990997E0,3.441497087E0
5.805271880E-1,1.877472997E0,8.805409431E0,3.508570910E0
5.830258340E-1,1.800817013E0,8.709589005E0,3.628345966E0
5.855244790E-1,1.657086968E0,8.733544350E0,3.748121023E0
5.880231250E-1,1.594804049E0,8.695216179E0,3.829567909E0
5.905621880E-1,1.661877990E0,8.594605446E0,3.973298073E0
5.930608340E-1,1.642714024E0,8.537113190E0,4.069118023E0
5.955595320E-1,1.590013027E0,8.470039368E0,4.174520016E0
5.980581770E-1,1.527729988E0,8.412547112E0,4.313458920E0
6.005568230E-1,1.470237970E0,8.379010201E0,4.380533218E0
6.030554690E-1,1.407955050E0,8.345473289E0,4.485935211E0
6.055541150E-1,1.427119017E0,8.302353859E0,4.562591076E0
6.080527610E-1,1.455865026E0,8.254444122E0,4.600918770E0
6.105514590E-1,1.412745953E0,8.206534386E0,4.610500813E0
6.130501040E-1,1.503775001E0,8.105922699E0,4.567381859E0
6.155487500E-1,1.513357043E0,8.091549873E0,4.553009033E0
6.180473960E-1,1.580430984E0,7.971775055E0,4.509890079E0
6.205870320E-1,1.618759036E0,7.842418194E0,4.418860912E0
6.230856770E-1,1.709787965E0,7.732224941E0,4.337413788E0
6.255843750E-1,1.700206041E0,7.703478813E0,4.279922009E0
6.280830210E-1,1.685832977E0,7.713060856E0,4.179310799E0
6.305816670E-1,1.738533974E0,7.526212215E0,4.049953938E0
6.330803130E-1,1.772071004E0,7.487884045E0,3.978089094E0
6.355789590E-1,1.752907038E0,7.368109226E0,3.791239977E0
6.380776040E-1,1.877472997E0,7.166886806E0,3.585227013E0
6.405763020E-1,1.891845942E0,7.051902771E0,3.446288109E0
6.430749480E-1,1.997248054E0,6.850680828E0,3.393587112E0
6.455735940E-1,2.064321995E0,6.649458885E0,3.168410063E0
6.480722920E-1,2.083486080E0,6.443446159E0,3.034261942E0
6.506154170E-1,2.016412020E0,6.318880081E0,2.971978903E0
6.531140630E-1,2.025994062E0,6.122448921E0,2.866576910E0
6.556127610E-1,1.968502045E0,6.017046928E0,2.718055964E0
6.581114070E-1,1.963711023E0,5.935599804E0,2.483297110E0
6.606100520E-1,2.093067884E0,5.830197811E0,2.248538017E0
6.631086980E-1,2.136187077E0,5.801452160E0,2.056898117E0
6.656073440E-1,2.121814013E0,5.945181847E0,1.917958975E0
6.681059900E-1,2.188888073E0,5.988300800E0,1.860466957E0
6.706046880E-1,2.260752916E0,6.026628971E0,1.807765961E0
6.731033340E-1,2.351782084E0,6.208686829E0,1.678408980E0
6.756019790E-1,2.433228970E0,6.352416992E0,1.668827057E0
6.781006250E-1,2.481138945E0,6.409908772E0,1.640081048E0
6.806425520E-1,2.610496044E0,6.524892807E0,1.520305991E0
6.831411980E-1,2.682360888E0,6.596757889E0,1.462813973E0
6.856398960E-1,2.749434948E0,6.687787056E0,1.371785045E0
6.881385420E-1,2.806926966E0,6.826725960E0,1.362203002E0
6.906372400E-1,2.802135944E0,6.975246906E0,1.390949011E0
6.931358340E-1,2.782972097E0,7.109395027E0,1.410112977E0
6.956344790E-1,2.802135944E0,7.219587803E0,1.472396016E0
6.981331250E-1,2.802135944E0,7.353735924E0,1.587380052E0
7.006318230E-1,2.821300030E0,7.430391788E0,1.721528053E0
7.031304690E-1,2.950656891E0,7.483092785E0,1.879631042E0
7.056291150E-1,3.032104015E0,7.511838913E0,2.047316074E0
7.081277610E-1,3.123132944E0,7.540585041E0,2.344357967E0
7.106450000E-1,3.247699022E0,7.598076820E0,2.512042999E0
7.131436460E-1,3.309982061E0,7.545375824E0,2.722846985E0
7.156423440E-1,3.391428947E0,7.540585041E0,3.010307074E0
7.181409900E-1,3.520786047E0,7.564539909E0,3.192364931E0
7.206396360E-1,3.616605997E0,7.550167084E0,3.345676899E0
7.231382820E-1,3.702843904E0,7.526212215E0,3.475033998E0
7.256369270E-1,3.654933929E0,7.545375824E0,3.585227013E0
7.281355730E-1,3.530368090E0,7.660359859E0,3.676255941E0
7.306342710E-1,3.348309994E0,7.737016201E0,3.652301073E0
7.331329170E-1,3.199789047E0,7.847208977E0,3.623554945E0
7.356315630E-1,3.046477079E0,8.034057617E0,3.585227013E0
7.381302090E-1,2.883583069E0,8.153833389E0,3.494198084E0
7.406943230E-1,2.735061884E0,8.307145119E0,3.350467920E0
7.431929690E-1,2.596122980E0,8.498785019E0,3.240274906E0
7.456916670E-1,2.500303030E0,8.767081261E0,3.063008070E0
7.481903130E-1,2.442811012E0,9.049750328E0,2.957606077E0
7.506889590E-1,2.390110016E0,9.365956306E0,2.842622042E0
7.531876040E-1,2.380527973E0,9.710907936E0,2.698892117E0
7.556862500E-1,2.375736952E0,1.016126156E1,2.555161953E0
7.581848960E-1,2.505094051E0,1.062119770E1,2.440177917E0
7.606835940E-1,2.768599033E0,1.109071636E1,2.286865950E0
7.631822400E-1,3.084805012E0,1.162251663E1,2.023360968E0
7.656808860E-1,3.329145908E0,1.217827320E1,1.740692019E0
7.681795320E-1,3.616605997E0,1.269570065E1,1.515514970E0
7.707020320E-1,3.875319958E0,1.317000961E1,1.223263979E0
7.732006770E-1,4.076541901E0,1.356766319E1,8.639389873E-1
7.756993750E-1,4.076541901E0,1.398447990E1,5.860610008E-1
7.781980210E-1,4.105288029E0,1.439650631E1,3.704659939E-1
7.806966670E-1,3.899275064E0,1.464084721E1,1.644529998E-1
7.831953130E-1,3.798664093E0,1.510078335E1,1.884080023E-1
7.856939590E-1,3.784291029E0,1.550322723E1,2.551399916E-2
7.881926040E-1,3.789082050E0,1.607814789E1,-6.551499665E-2
7.906913020E-1,3.904066086E0,1.649975586E1,-9.426099807E-2
7.931899480E-1,4.110078812E0,1.654287338E1,5.905099958E-2
7.956885940E-1,4.239436150E0,1.646621895E1,3.273470104E-1
7.981872400E-1,4.498149872E0,1.619792175E1,5.333600044E-1
8.007471880E-1,4.809565067E0,1.590567112E1,7.537459731E-1
8.032458340E-1,5.192844868E0,1.558946514E1,9.741320014E-1
8.057445320E-1,5.715064049E0,1.513432026E1,1.156190038E0
8.082431770E-1,5.849212170E0,1.481811428E1,1.266383052E0
8.107418230E-1,5.762973785E0,1.452586269E1,1.362203002E0
8.132404690E-1,5.580915928E0,1.424319363E1,1.429276943E0
8.157391150E-1,5.384484768E0,1.401801682E1,1.400531054E0
8.182377610E-1,5.159307957E0,1.379763126E1,1.309502006E0
8.207364590E-1,4.953295231E0,1.356287193E1,1.208891034E0
8.232351040E-1,4.847893238E0,1.340476894E1,1.031623960E0
8.257337500E-1,4.780818939E0,1.323229313E1,8.591480255E-1
8.282323960E-1,4.646670818E0,1.303586197E1,6.387619972E-1
8.307610940E-1,4.416703224E0,1.282026672E1,3.225559890E-1
8.332597400E-1,4.105288029E0,1.267174625E1,1.069609970E-1
8.357584380E-1,3.951976061E0,1.241782284E1,-8.467900008E-2
8.382570840E-1,3.755544901E0,1.220222759E1,-2.092449963E-1
8.407557290E-1,3.568696022E0,1.190518570E1,-2.715280056E-1
8.432543750E-1,3.424966097E0,1.158897972E1,-1.421709955E-1
8.457530210E-1,3.271653891E0,1.134943008E1,5.905099958E-2
8.482516670E-1,3.127923965E0,1.103801537E1,4.567039907E-1
8.507503650E-1,3.118341923E0,1.071701813E1,9.166399837E-1
8.532490110E-1,3.070431948E0,1.048705006E1,1.486768961E0
8.557476570E-1,2.931493044E0,1.045351315E1,2.080852985E0
8.582463020E-1,2.567377090E0,1.066910839E1,2.162300110E0
8.607988020E-1,2.025994062E0,1.096615028E1,1.525097013E0
8.632974480E-1,1.604385972E0,1.131110191E1,8.112379909E-1
8.657961460E-1,1.206732988E0,1.157460690E1,1.021699980E-1
8.682947920E-1,6.845139861E-1,1.183332062E1,-5.541970134E-1
8.707934900E-1,1.766680032E-1,1.217348194E1,-1.033296943E0
8.732920840E-1,-4.371799901E-2,1.250885201E1,-1.560307026E0
8.757907290E-1,-6.288199872E-2,1.256634426E1,-1.100371003E0
8.782893750E-1,1.856499910E-2,1.243219566E1,-3.002740145E-1
8.807880730E-1,1.622949988E-1,1.224055576E1,3.321380019E-1
8.832867190E-1,1.814589947E-1,1.195309639E1,8.687300086E-1
8.857853650E-1,1.575040072E-1,1.157939816E1,1.271173954E0
8.882840110E-1,1.622949988E-1,1.115299892E1,1.563424945E0
8.908183340E-1,1.958319992E-1,1.066431713E1,1.812556982E0
8.933169790E-1,2.197870016E-1,1.008460617E1,2.013778925E0
8.958156770E-1,4.449639916E-1,9.466567039E0,2.133553982E0
8.983143230E-1,5.982760191E-1,8.838946342E0,2.267702103E0
9.008129690E-1,7.994980216E-1,8.316726685E0,2.406641006E0
9.033116150E-1,1.029466033E0,7.899909973E0,2.430596113E0
9.058102610E-1,1.168405056E0,7.617240906E0,2.368313074E0
9.083089070E-1,1.470237970E0,7.243543148E0,2.430596113E0
9.108076040E-1,1.637923002E0,6.989620209E0,2.531207085E0
9.133062500E-1,1.781653047E0,6.841098785E0,2.617444992E0
9.158048960E-1,1.925382972E0,6.730906010E0,2.665354967E0
9.183035420E-1,1.982874990E0,6.635086060E0,2.521625042E0
9.208503650E-1,2.155350924E0,6.438654900E0,2.483297110E0
9.233490110E-1,2.342200041E0,6.304506779E0,2.483297110E0
9.258477090E-1,2.490720987E0,6.232642174E0,2.401849985E0
9.283463540E-1,2.735061884E0,6.189523220E0,2.353940010E0
9.308450000E-1,2.711107016E0,6.328462124E0,2.387476921E0
9.333436460E-1,2.787763119E0,6.419490814E0,2.325193882E0
9.358422920E-1,2.907537937E0,6.510519981E0,2.152718067E0
9.383409380E-1,3.075222969E0,6.692577839E0,2.008987904E0
9.408396360E-1,3.070431948E0,6.898591042E0,1.831720948E0
9.433382820E-1,3.022521973E0,7.071066856E0,1.702363968E0
9.458369270E-1,3.103969097E0,7.253125191E0,1.611335039E0
9.483355730E-1,3.118341923E0,7.468719959E0,1.553843021E0
9.508488020E-1,3.118341923E0,7.665151119E0,1.438858986E0
9.533474480E-1,3.075222969E0,7.914282799E0,1.194517970E0
9.558461460E-1,2.926702023E0,8.264025688E0,1.036414981E0
9.583447920E-1,2.840464115E0,8.498785019E0,8.878939748E-1
9.608434380E-1,2.826091051E0,8.690424919E0,1.007668972E0
9.633420840E-1,2.806926966E0,8.968302727E0,1.089115977E0
9.658407290E-1,2.864418983E0,9.097660065E0,1.093906999E0
9.683393750E-1,2.984194040E0,9.231807709E0,1.180145025E0
9.708380730E-1,2.984194040E0,9.356373787E0,1.208891034E0
9.733367190E-1,2.998567104E0,9.519268036E0,1.362203002E0
9.758353650E-1,3.046477079E0,9.629461288E0,1.520305991E0
9.783340110E-1,2.955447912E0,9.754027367E0,1.582589030E0
9.809028130E-1,2.806926966E0,9.907339096E0,1.711946011E0
9.834014590E-1,2.749434948E0,1.002232265E1,1.836511970E0
9.859001570E-1,2.826091051E0,1.000794983E1,1.917958975E0
9.883988020E-1,2.773390055E0,9.892966270E0,1.961078048E0
9.908974480E-1,2.754225969E0,9.552804947E0,1.961078048E0
9.933960940E-1,2.672779083E0,9.318045616E0,2.032943010E0
9.958947400E-1,2.514676094E0,9.078495979E0,2.152718067E0
9.983933860E-1,2.361363888E0,8.882064819E0,2.248538017E0
1.000892084E0,2.131396055E0,8.719170570E0,2.248538017E0
1.003390729E0,1.939756036E0,8.637723923E0,2.306030035E0
1.005889375E0,1.853518009E0,8.474829674E0,2.238955975E0
1.008388021E0,1.896636963E0,8.206534386E0,2.253329039E0
1.010900313E0,1.915801048E0,7.808880806E0,2.320403099E0
1.013398959E0,2.035576105E0,7.281870842E0,2.401849985E0
1.015897657E0,2.045157909E0,6.841098785E0,2.478506088E0
1.018396302E0,2.040366888E0,6.630294800E0,2.583908081E0
1.020894948E0,1.901427984E0,6.591967106E0,2.650981903E0
1.023393594E0,1.796025991E0,6.702159882E0,2.713264942E0
1.025892240E0,1.704996943E0,6.802771091E0,2.689310074E0
1.028390886E0,1.618759036E0,6.941709995E0,2.684519053E0
1.030889584E0,1.551684976E0,7.099812984E0,2.655772924E0
1.033388229E0,1.657086968E0,7.267498016E0,2.674937010E0
1.035886875E0,1.700206041E0,7.550167084E0,2.665354967E0
1.038385521E0,1.810399055E0,7.794507980E0,2.641400099E0
1.040957761E0,1.925382972E0,8.077177048E0,2.674937010E0
1.043457136E0,1.968502045E0,8.321517944E0,2.698892117E0
1.045956459E0,1.939756036E0,8.632932663E0,2.713264942E0
1.048455834E0,1.992457032E0,8.858110428E0,2.679728031E0
1.050955209E0,1.992457032E0,9.145569801E0,2.765965939E0
1.053454532E0,1.887055039E0,9.447402954E0,2.823457956E0
1.055953907E0,1.863100052E0,9.720490456E0,2.852204084E0
1.058453282E0,1.786443949E0,1.001753235E1,2.924068928E0
1.060952604E0,1.757698059E0,1.028582764E1,2.928859949E0
1.063451979E0,1.546893954E0,1.052537823E1,2.995934010E0
1.065951354E0,1.451074004E0,1.070264530E1,3.019889116E0
1.068450677E0,1.350463033E0,1.089907646E1,3.106127024E0
1.070951927E0,1.230687976E0,1.109071636E1,3.115709066E0
1.073451302E0,1.086958051E0,1.117695427E1,3.139663935E0
1.075950625E0,1.082167029E0,1.123444557E1,3.197155952E0
1.078450000E0,1.019883990E0,1.131589317E1,3.139663935E0
1.080949375E0,9.480190277E-1,1.133505726E1,3.130081892E0
1.083448698E0,8.905270100E-1,1.131589317E1,3.058217049E0
1.085948073E0,8.378260136E-1,1.130631065E1,2.986351967E0
1.088447448E0,7.276329994E-1,1.125360966E1,2.847413063E0
1.090946771E0,6.318129897E-1,1.121049118E1,2.703682899E0
1.093446146E0,5.743209720E-1,1.121528244E1,2.631818056E0
1.095945521E0,4.976649880E-1,1.111467075E1,2.497669935E0
1.098444844E0,4.832920134E-1,1.106196976E1,2.406641006E0
1.101009792E0,4.689190090E-1,1.100447845E1,2.325193882E0
1.103509167E0,3.970539868E-1,1.099010468E1,2.253329039E0
1.106008490E0,3.683080077E-1,1.089428520E1,2.191046000E0
1.108507865E0,3.060249984E-1,1.080325603E1,2.061688900E0
1.111007240E0,3.156070113E-1,1.070743561E1,1.946704984E0
1.113506563E0,3.108159900E-1,1.061640739E1,1.946704984E0
1.116005938E0,2.916519940E-1,1.051579571E1,1.870049000E0
1.118505313E0,2.676970065E-1,1.042955780E1,1.850885034E0
1.121004636E0,2.149959952E-1,1.033852863E1,1.817348003E0
1.123504011E0,1.622949988E-1,1.025229073E1,1.812556982E0
1.126003386E0,1.048030034E-1,1.016126156E1,1.807765961E0
1.128502709E0,6.168400124E-2,1.004627800E1,1.870049000E0
1.131003229E0,-3.892700002E-2,9.916920662E0,1.932332039E0
1.133502604E0,-1.634930074E-1,9.763608932E0,2.052107096E0
1.136001927E0,-2.353579998E-1,9.662998199E0,2.133553982E0
1.138501302E0,-2.545219958E-1,9.466567039E0,2.258120060E0
1.141000677E0,-2.736859918E-1,9.365956306E0,2.421014071E0
1.143500000E0,-3.551329970E-1,9.227017403E0,2.579117060E0
1.145999375E0,-3.695060015E-1,9.040167809E0,2.742011070E0
1.148498750E0,-3.647150099E-1,8.910811424E0,2.900114059E0
1.150998073E0,-3.407599926E-1,8.891647339E0,2.991142988E0
1.153497448E0,-3.647150099E-1,8.747917175E0,3.120500088E0
1.155996823E0,-3.024320006E-1,8.594605446E0,3.230693102E0
1.158496146E0,-2.688950002E-1,8.470039368E0,3.269021034E0
1.161060157E0,-2.545219958E-1,8.436502457E0,3.288184881E0
1.163559532E0,-2.066120058E-1,8.359846115E0,3.312139988E0
1.166058854E0,-1.634930074E-1,8.331100464E0,3.249856949E0
1.168558229E0,-1.299560070E-1,8.302353859E0,3.206737995E0
1.171057604E0,-1.443289965E-1,8.321517944E0,3.134872913E0
1.173556927E0,-9.162800014E-2,8.287981033E0,3.048635006E0
1.176056302E0,-5.809099972E-2,8.307145119E0,2.948024035E0
1.178555677E0,-3.413600102E-2,8.398174286E0,2.938441992E0
1.181055000E0,3.293799981E-2,8.355054855E0,2.880949974E0
1.183554375E0,1.377400011E-2,8.311936378E0,2.866576910E0
1.186053750E0,1.377400011E-2,8.326309204E0,2.852204084E0
1.188553073E0,4.731100053E-2,8.278399467E0,2.828248978E0
1.191057084E0,4.252000153E-2,8.273608208E0,2.856995106E0
1.193556459E0,7.605700195E-2,8.235280037E0,2.866576910E0
1.196055782E0,1.095940024E-1,8.216115952E0,2.909696102E0
1.198555157E0,8.084800094E-2,8.192160606E0,2.938441992E0
1.201054532E0,1.000119969E-1,8.187370300E0,2.981560946E0
1.203553854E0,5.210199952E-2,8.139459610E0,3.034261942E0
1.206053229E0,3.293799981E-2,8.240071297E0,3.086962938E0
1.208552604E0,-1.976300031E-2,8.225698471E0,3.182782888E0
1.211051927E0,-6.288199872E-2,8.283189774E0,3.221111059E0
1.213551302E0,-1.443289965E-1,8.240071297E0,3.316931009E0
1.216050677E0,-1.826570034E-1,8.244861603E0,3.336095095E0
1.218550000E0,-2.209849954E-1,8.278399467E0,3.369632006E0
1.221113125E0,-2.641040087E-1,8.292772293E0,3.422333002E0
1.223612500E0,-3.120140135E-1,8.326309204E0,3.470242977E0
1.226111823E0,-3.695060015E-1,8.379010201E0,3.556480885E0
1.228611198E0,-4.269979894E-1,8.417338371E0,3.633136988E0
1.231110573E0,-5.467730165E-1,8.441292763E0,3.724165916E0
1.233609896E0,-6.617569923E-1,8.465248108E0,3.719374895E0
1.236109271E0,-7.959049940E-1,8.484412193E0,3.700211048E0
1.238608646E0,-9.731720090E-1,8.465248108E0,3.733747959E0
1.241107969E0,-1.092947006E0,8.484412193E0,3.647510052E0
1.243607344E0,-1.227095008E0,8.426919937E0,3.513361931E0
1.246106719E0,-1.346869946E0,8.450875282E0,3.455869913E0
1.248606042E0,-1.509763956E0,8.455665588E0,3.417541981E0
1.251108438E0,-1.576838017E0,8.426919937E0,3.360049963E0
1.253607813E0,-1.691822052E0,8.426919937E0,3.292975903E0
1.256107136E0,-1.768478036E0,8.417338371E0,3.264230013E0
1.258606511E0,-1.845134020E0,8.402964592E0,3.221111059E0
1.261105886E0,-1.859506965E0,8.350263596E0,3.182782888E0
1.263605209E0,-1.960118055E0,8.311936378E0,3.173201084E0
1.266104584E0,-2.017610073E0,8.220907211E0,3.134872913E0
1.268603959E0,-2.079893112E0,8.172997475E0,3.096544981E0
1.271103282E0,-2.146966934E0,8.077177048E0,3.063008070E0
1.273602657E0,-2.151757956E0,8.029267311E0,2.991142988E0
1.276102032E0,-2.175713062E0,8.010103226E0,2.952815056E0
1.278601354E0,-2.218832016E0,7.966983795E0,2.900114059E0
1.281166407E0,-2.233205080E0,7.928656101E0,2.823457956E0
1.283665782E0,-2.295488119E0,7.952610970E0,2.809084892E0
1.286165104E0,-2.352979898E0,7.971775055E0,2.751593113E0
1.288664479E0,-2.400890112E0,7.966983795E0,2.794712067E0
1.291163854E0,-2.429636002E0,8.038848877E0,2.794712067E0
1.293663177E0,-2.448800087E0,8.125086784E0,2.885740995E0
1.296162552E0,-2.525455952E0,8.211324692E0,2.967187881E0
1.298661927E0,-2.554202080E0,8.316726685E0,3.053426027E0
1.301161250E0,-2.539829016E0,8.489203453E0,3.230693102E0
1.303660625E0,-2.487128019E0,8.575441360E0,3.441497087E0
1.306160000E0,-2.482336998E0,8.671260834E0,3.546899080E0
1.308659323E0,-2.434427023E0,8.747917175E0,3.681046963E0
1.311180000E0,-2.400890112E0,8.877273560E0,3.819986105E0
1.313679375E0,-2.309860945E0,8.939557076E0,3.925388098E0
1.316178698E0,-2.257159948E0,9.102451324E0,4.030789852E0
1.318678073E0,-2.266741991E0,9.193479538E0,4.126609802E0
1.321177448E0,-2.242786884E0,9.284508705E0,4.203266144E0
1.323676771E0,-2.242786884E0,9.413866043E0,4.279922009E0
1.326176146E0,-2.276324034E0,9.509686470E0,4.385324001E0
1.328675521E0,-2.233205080E0,9.677371025E0,4.380533218E0
1.331174844E0,-2.242786884E0,9.763608932E0,4.366159916E0
1.333674219E0,-2.190085888E0,9.864219666E0,4.303876877E0
1.336173594E0,-2.142175913E0,9.993577003E0,4.246385098E0
1.338672917E0,-2.108639002E0,1.016126156E1,4.188892841E0
1.341222604E0,-2.041564941E0,1.031457424E1,4.140983105E0
1.343721979E0,-2.065520048E0,1.051100540E1,4.126609802E0
1.346221302E0,-2.099056959E0,1.071701813E1,4.160147190E0
1.348720677E0,-2.118221045E0,1.090865803E1,4.227221012E0
1.351220052E0,-2.175713062E0,1.108113384E1,4.299086094E0
1.353719375E0,-2.194876909E0,1.122486401E1,4.327832222E0
1.356218750E0,-2.190085888E0,1.137817574E1,4.279922009E0
1.358718125E0,-2.214040995E0,1.148836899E1,4.366159916E0
1.361217448E0,-2.247577906E0,1.156981564E1,4.260757923E0
1.363716823E0,-2.305069923E0,1.154586124E1,4.236803055E0
1.366216198E0,-2.348189116E0,1.149795055E1,4.222430229E0
1.368715521E0,-2.467963934E0,1.137338543E1,4.188892841E0
1.371234532E0,-2.535037994E0,1.120569992E1,4.150565147E0
1.373733907E0,-2.525455952E0,1.102364159E1,4.126609802E0
1.376233229E0,-2.582947969E0,1.083200169E1,4.097864151E0
1.378732604E0,-2.645231009E0,1.065952587E1,4.054745197E0
1.381231979E0,-2.659604073E0,1.057328796E1,4.078700066E0
1.383731302E0,-2.721887112E0,1.045351315E1,4.054745197E0
1.386230677E0,-2.693140984E0,1.037685680E1,4.016417027E0
1.388730052E0,-2.621275902E0,1.032894707E1,3.973298073E0
1.391229375E0,-2.458381891E0,1.037685680E1,3.925388098E0
1.393728750E0,-2.281115055E0,1.042955780E1,3.863105059E0
1.396228125E0,-2.070311069E0,1.053975105E1,3.743330002E0
1.398727448E0,-1.873880029E0,1.069306278E1,3.637928009E0
1.401273438E0,-1.696612954E0,1.098052311E1,3.470242977E0
1.403772813E0,-1.552883029E0,1.123444557E1,3.297766924E0
1.406272136E0,-1.385197997E0,1.145483208E1,3.173201084E0
1.408771511E0,-1.078573942E0,1.170875454E1,2.967187881E0
1.411270886E0,-7.048760056E-1,1.189081287E1,2.785130024E0
1.413770209E0,-3.695060015E-1,1.213036346E1,2.598280907E0
1.416269584E0,-3.413600102E-2,1.237949467E1,2.373104095E0
1.418768959E0,3.826810122E-1,1.257113457E1,2.052107096E0
1.421268282E0,7.803339958E-1,1.279152107E1,1.750273943E0
1.423767657E0,1.369626999E0,1.305023479E1,1.501142025E0
1.426267032E0,1.944547057E0,1.335685921E1,1.208891034E0
1.428766354E0,2.485929966E0,1.360599136E1,9.262220263E-1
1.431279115E0,3.051268101E0,1.391261482E1,6.483439803E-1
1.433778490E0,3.611814976E0,1.422882080E1,3.944210112E-1
1.436277813E0,3.942394018E0,1.493788910E1,1.548710018E-1
1.438777188E0,4.378375053E0,1.562779331E1,1.884080023E-1
1.441276563E0,4.857474804E0,1.620271301E1,3.513019979E-1
1.443775886E0,5.394066811E0,1.673930550E1,5.956429839E-1
1.446275261E0,5.863584995E0,1.733338928E1,9.837139845E-1
1.448774636E0,6.146254063E0,1.776936913E1,1.448441029E0
1.451273959E0,6.347476006E0,1.807599449E1,1.999405980E0
1.453773334E0,6.495996952E0,1.842573738E1,2.636609077E0
1.456272657E0,6.424131870E0,1.872756958E1,3.388796091E0
1.458772032E0,6.706800938E0,1.869403267E1,4.136191845E0
1.461298594E0,6.965515137E0,1.841615486E1,4.921916008E0
1.463797969E0,6.850531101E0,1.772625160E1,5.650147915E0
1.466297292E0,6.476832867E0,1.672972298E1,6.220276833E0
1.468796667E0,5.978569031E0,1.558467388E1,6.555646896E0
1.471296042E0,5.350947857E0,1.435338688E1,6.627511978E0
1.473795365E0,4.579596996E0,1.305502605E1,6.445454121E0
1.476294740E0,3.947185040E0,1.174229240E1,6.066965103E0
1.478794115E0,3.357892036E0,1.065952587E1,5.511209011E0
1.481293438E0,2.677570105E0,9.763608932E0,4.960244179E0
1.483792813E0,2.222424984E0,8.973093987E0,4.366159916E0
1.486292188E0,1.863100052E0,8.268816948E0,3.738538980E0
1.488791511E0,1.575639963E0,7.722642899E0,3.158828020E0
1.491350313E0,1.393581986E0,7.257915974E0,2.583908081E0
1.493849636E0,1.245061040E0,6.869844913E0,1.970659971E0
1.496349011E0,1.120494962E0,6.539266109E0,1.381366968E0
1.498848386E0,1.086958051E0,6.266179085E0,7.585369945E-1
1.501347761E0,1.029466033E0,5.978719234E0,1.596619934E-1
1.503847084E0,1.096539974E0,5.777496815E0,-3.865120113E-1
1.506346459E0,1.134868026E0,5.605021000E0,-8.368660212E-1
1.508845834E0,1.110913038E0,5.442127228E0,-1.196190953E0
1.511345157E0,1.240270019E0,5.288815022E0,-1.512397051E0
1.513844532E0,1.316926003E0,5.106757164E0,-1.775902033E0
1.516343907E0,1.355254054E0,5.049264908E0,-2.010660887E0
1.518843229E0,1.427119017E0,5.025310040E0,-2.187927961E0
1.521387552E0,1.393581986E0,5.006145954E0,-2.293329954E0
1.523886927E0,1.446282983E0,5.010937214E0,-2.293329954E0
1.526386250E0,1.494192958E0,4.953444958E0,-2.197510004E0
1.528885625E0,1.561267018E0,4.982191086E0,-2.015451908E0
1.531385000E0,1.604385972E0,5.106757164E0,-1.847766995E0
1.533884323E0,1.594804049E0,5.212159157E0,-1.574679971E0
1.536383698E0,1.642714024E0,5.375052929E0,-1.143489957E0
1.538883073E0,1.613968015E0,5.552320004E0,-8.847759962E-1
1.541382396E0,1.566058040E0,5.820615768E0,-5.637789965E-1
1.543881771E0,1.503775001E0,6.093702793E0,-2.140360028E-1
1.546381146E0,1.316926003E0,6.405117989E0,1.309159994E-1
1.548880469E0,1.249851942E0,6.716533184E0,5.285689831E-1
1.551404584E0,1.168405056E0,6.989620209E0,8.543570042E-1
1.553904532E0,1.249851942E0,7.267498016E0,1.275964975E0
1.556404427E0,1.360044956E0,7.540585041E0,1.692782044E0
1.558904375E0,1.446282983E0,7.775343895E0,2.061688900E0
1.561404271E0,1.604385972E0,7.976565838E0,2.444968939E0
1.563904219E0,1.743324995E0,8.139459610E0,2.775547981E0
1.566404167E0,1.752907038E0,8.374218941E0,3.043843985E0
1.568904063E0,1.963711023E0,8.522740364E0,3.297766924E0
1.571404011E0,2.169723988E0,8.661679268E0,3.604391098E0
1.573903907E0,2.418855906E0,8.848527908E0,3.853523016E0
1.576403854E0,2.620078087E0,9.044959068E0,4.049953938E0
1.578903750E0,2.792553902E0,9.279718399E0,4.294294834E0
1.581442136E0,2.826091051E0,9.452194214E0,4.490725994E0
1.583942084E0,2.821300030E0,9.686952591E0,4.543426991E0
1.586441979E0,2.969820976E0,9.993577003E0,4.672783852E0
1.588941927E0,3.309982061E0,1.015647125E1,4.859632969E0
1.591441823E0,3.698052883E0,1.030499172E1,4.945870876E0
1.593941771E0,3.923229933E0,1.037685680E1,4.965034962E0
1.596441719E0,4.229854107E0,1.046309471E1,4.912333965E0
1.598941615E0,4.584387779E0,1.055891514E1,4.811723232E0
1.601441563E0,4.785610199E0,1.068827248E1,4.629664898E0
1.603941459E0,5.092234135E0,1.081762886E1,4.476353168E0
1.606441407E0,5.346157074E0,1.078409195E1,4.356577873E0
1.608941302E0,5.513842106E0,1.075055504E1,4.217638969E0
1.611457292E0,5.705482006E0,1.059724331E1,4.030789852E0
1.613957240E0,5.820466042E0,1.046309471E1,3.810404062E0
1.616457136E0,5.796511173E0,1.029541016E1,3.599600077E0
1.618957084E0,5.681527138E0,1.003669643E1,3.446288109E0
1.621456979E0,5.691109180E0,9.777981758E0,3.292975903E0
1.623956927E0,5.676735878E0,9.394701958E0,3.125291109E0
1.626456875E0,5.518632889E0,9.016213417E0,2.948024035E0
1.628956771E0,5.317410946E0,8.647306442E0,2.756383896E0
1.631456719E0,5.197636127E0,8.326309204E0,2.531207085E0
1.633956615E0,4.958086014E0,8.029267311E0,2.425805092E0
1.636456563E0,4.752072811E0,7.784925938E0,2.325193882E0
1.638956459E0,4.560432911E0,7.650777817E0,2.344357967E0
1.641456459E0,4.483777046E0,7.478302002E0,2.401849985E0
1.643956407E0,4.378375053E0,7.205214977E0,2.507251978E0
1.646456302E0,4.249018192E0,7.027947903E0,2.564743996E0
1.648956250E0,4.272973061E0,6.879426956E0,2.684519053E0
1.651456146E0,4.186735153E0,6.774024963E0,2.761174917E0
1.653956094E0,4.095705986E0,6.659040928E0,2.928859949E0
1.656456042E0,4.057377815E0,6.524892807E0,3.096544981E0
1.658955938E0,3.947185040E0,6.500937939E0,3.173201084E0
1.661455886E0,3.779500008E0,6.491355896E0,3.259438992E0
1.663955782E0,3.688471079E0,6.419490814E0,3.235483885E0
1.666455729E0,3.621397018E0,6.405117989E0,3.182782888E0
1.668955625E0,3.501621962E0,6.462609768E0,3.182782888E0
1.671509792E0,3.434547901E0,6.491355896E0,3.063008070E0
1.674009740E0,3.391428947E0,6.534474850E0,2.914486885E0
1.676509636E0,3.271653891E0,6.620713234E0,2.828248978E0
1.679009584E0,3.041686058E0,6.754860878E0,2.718055964E0
1.681509479E0,2.984194040E0,6.884218216E0,2.660563946E0
1.684009427E0,2.864418983E0,7.013575077E0,2.598280907E0
1.686509375E0,2.735061884E0,7.157304764E0,2.512042999E0
1.689009271E0,2.672779083E0,7.353735924E0,2.454550982E0
1.691509219E0,2.658406019E0,7.449555874E0,2.387476921E0
1.694009115E0,2.624869108E0,7.492674828E0,2.377895117E0
1.696509063E0,2.538630962E0,7.612450123E0,2.368313074E0
1.699008959E0,2.476347923E0,7.775343895E0,2.430596113E0
1.701546250E0,2.404483080E0,7.880745888E0,2.464133024E0
1.704046198E0,2.279917002E0,8.038848877E0,2.574326038E0
1.706546094E0,2.150559902E0,8.196951866E0,2.722846985E0
1.709046042E0,2.035576105E0,8.426919937E0,2.794712067E0
1.711545938E0,1.805608034E0,8.585022926E0,2.938441992E0
1.714045886E0,1.685832977E0,8.810199738E0,3.019889116E0
1.716545834E0,1.575639963E0,8.982675552E0,3.072590113E0
1.719045729E0,1.422327995E0,9.150361061E0,3.096544981E0
1.721545677E0,1.336089969E0,9.322836876E0,3.096544981E0
1.724045573E0,1.259433985E0,9.471358299E0,3.048635006E0
1.726545521E0,1.197150946E0,9.605505943E0,2.981560946E0
1.729045417E0,1.177986979E0,9.725280762E0,2.890532017E0
1.731562396E0,1.134868026E0,9.864219666E0,2.833039999E0
1.734062344E0,1.130077004E0,1.000315857E1,2.727638006E0
1.736562240E0,1.187569022E0,1.008460617E1,2.631818056E0
1.739062188E0,1.297762036E0,1.021396255E1,2.545579910E0
1.741562084E0,1.269016027E0,1.035769272E1,2.483297110E0
1.744062032E0,1.345672011E0,1.048705006E1,2.416223049E0
1.746561979E0,1.451074004E0,1.052537823E1,2.397058964E0
1.749061875E0,1.441491961E0,1.061640739E1,2.382685900E0
1.751561823E0,1.551684976E0,1.072180939E1,2.397058964E0
1.754061719E0,1.704996943E0,1.063078022E1,2.401849985E0
1.756561667E0,1.714578986E0,1.058766079E1,2.516834021E0
1.759061563E0,1.695415020E0,1.065473461E1,2.569535017E0
1.761597084E0,1.786443949E0,1.063557053E1,2.665354967E0
1.764097032E0,1.978083968E0,1.053016853E1,2.761174917E0
1.766596927E0,2.117022991E0,1.045351315E1,2.847413063E0
1.769096875E0,2.212842941E0,1.030020142E1,2.885740995E0
1.771596771E0,2.299081087E0,1.017563534E1,3.024679899E0
1.774096719E0,2.370945930E0,1.003190517E1,3.082171917E0
1.776596667E0,2.409274101E0,9.912130356E0,3.187573910E0
1.779096563E0,2.428437948E0,9.797145844E0,3.211529016E0
1.781596511E0,2.548213005E0,9.658206940E0,3.197155952E0
1.784096407E0,2.744643927E0,9.437821388E0,3.019889116E0
1.786596354E0,2.682360888E0,9.375537872E0,3.211529016E0
1.789096250E0,2.620078087E0,9.332419395E0,3.374423027E0
1.791614219E0,2.648823977E0,9.255763054E0,3.240274906E0
1.794114167E0,2.629659891E0,9.260554314E0,3.240274906E0
1.796614063E0,2.596122980E0,9.246180534E0,3.245065928E0
1.799114011E0,2.629659891E0,9.231807709E0,3.269021034E0
1.801613907E0,2.591331959E0,9.207853317E0,3.206737995E0
1.804113854E0,2.591331959E0,9.140778542E0,3.211529016E0
1.806613802E0,2.586540937E0,9.054540634E0,3.158828020E0
1.809113698E0,2.500303030E0,9.049750328E0,3.106127024E0
1.811613646E0,2.495512009E0,8.958721161E0,3.005516052E0
1.814113542E0,2.591331959E0,8.862900734E0,2.890532017E0
1.816613490E0,2.620078087E0,8.805409431E0,2.794712067E0
1.819113386E0,2.653614998E0,8.776662827E0,2.689310074E0
1.821649375E0,2.658406019E0,8.805409431E0,2.612653971E0
1.824149323E0,2.672779083E0,8.824572563E0,2.454550982E0
1.826649219E0,2.811717987E0,8.800618172E0,2.334775925E0
1.829149167E0,2.931493044E0,8.819782257E0,2.248538017E0
1.831649063E0,3.051268101E0,8.810199738E0,2.080852985E0
1.834149011E0,3.099178076E0,8.795826912E0,2.008987904E0
1.836648959E0,3.108760118E0,8.834155083E0,1.917958975E0
1.839148854E0,3.171042919E0,8.929974556E0,1.884421945E0
1.841648802E0,3.300400019E0,8.877273560E0,1.702363968E0
1.844148698E0,3.362683058E0,8.877273560E0,1.774229050E0
1.846648646E0,3.324354887E0,8.987466812E0,2.052107096E0
1.849148542E0,3.262072086E0,9.068914413E0,2.076061964E0
1.851665625E0,3.247699022E0,9.164733887E0,2.147927046E0
1.854165573E0,3.262072086E0,9.236598969E0,2.291656971E0
1.856665469E0,3.262072086E0,9.308464050E0,2.478506088E0
1.859165417E0,3.194998026E0,9.452194214E0,2.703682899E0
1.861665313E0,3.108760118E0,9.543223381E0,2.943233013E0
1.864165261E0,3.084805012E0,9.538432121E0,3.130081892E0
1.866665209E0,2.941075087E0,9.524059296E0,3.225902081E0
1.869165104E0,2.840464115E0,9.500103951E0,3.403168917E0
1.871665052E0,2.792553902E0,9.375537872E0,3.494198084E0
1.874164948E0,2.663197041E0,9.294091225E0,3.427124023E0
1.876664896E0,2.533839941E0,9.241390228E0,3.575644970E0
1.879164792E0,2.323035955E0,9.107241631E0,3.901432991E0
1.881704271E0,2.203260899E0,8.920392990E0,3.867896080E0
1.884204219E0,2.088277102E0,8.834155083E0,3.891850948E0
1.886704115E0,1.982874990E0,8.776662827E0,4.011625767E0
1.889204063E0,1.901427984E0,8.661679268E0,4.164937973E0
1.891703959E0,1.786443949E0,8.575441360E0,4.222430229E0
1.894203907E0,1.618759036E0,8.551486015E0,4.270339966E0
1.896703854E0,1.542103052E0,8.522740364E0,4.313458920E0
1.899203750E0,1.431910038E0,8.489203453E0,4.327832222E0
1.901703698E0,1.221106052E0,8.484412193E0,4.404488087E0
1.904203594E0,1.072584987E0,8.551486015E0,4.461979866E0
1.906703542E0,9.959290028E-1,8.565858841E0,4.557799816E0
1.909203438E0,8.809450269E-1,8.556277275E0,4.624874115E0
1.911720834E0,7.707520127E-1,8.575441360E0,4.701529980E0
1.914220782E0,7.228419781E-1,8.604187012E0,4.691947937E0
1.916720677E0,5.839030147E-1,8.642515182E0,4.730276108E0
1.919220625E0,5.407840014E-1,8.671260834E0,4.744648933E0
1.921720521E0,5.551570058E-1,8.632932663E0,4.782977104E0
1.924220469E0,5.024560094E-1,8.608978271E0,4.754230976E0
1.926720417E0,5.072469711E-1,8.570650101E0,4.739858150E0
1.929220313E0,5.647389889E-1,8.532321930E0,4.658411026E0
1.931720261E0,5.551570058E-1,8.460456848E0,4.557799816E0
1.934220157E0,5.503659844E-1,8.407755852E0,4.543426991E0
1.936720104E0,5.695300102E-1,8.355054855E0,4.476353168E0
1.939220000E0,6.940960288E-1,8.316726685E0,4.337413788E0
1.941756875E0,6.940960288E-1,8.249652863E0,4.270339966E0
1.944256823E0,7.276329994E-1,8.163414955E0,4.255967140E0
1.946756719E0,8.090800047E-1,8.110713959E0,4.179310799E0
1.949256667E0,7.994980216E-1,8.081968307E0,4.117028236E0
1.951756563E0,8.617810011E-1,8.053221703E0,4.069118023E0
1.954256511E0,8.713629842E-1,7.976565838E0,3.963716030E0
1.956756459E0,9.049000144E-1,7.943028927E0,3.930179119E0
1.959256354E0,9.863470197E-1,7.852000237E0,3.819986105E0
1.961756302E0,1.063002944E0,7.770553112E0,3.724165916E0
1.964256198E0,1.125285983E0,7.732224941E0,3.633136988E0
1.966756146E0,1.139659047E0,7.641195774E0,3.513361931E0
1.969256042E0,1.197150946E0,7.540585041E0,3.374423027E0
1.971756302E0,1.297762036E0,7.401646137E0,3.302557945E0
1.974256250E0,1.340880990E0,7.296244144E0,3.240274906E0
1.976756146E0,1.407955050E0,7.195632935E0,3.115709066E0
1.979256094E0,1.446282983E0,7.085440159E0,2.967187881E0
1.981755990E0,1.427119017E0,6.941709995E0,2.933650970E0
1.984255938E0,1.407955050E0,6.817143917E0,2.804294109E0
1.986755886E0,1.360044956E0,6.673414230E0,2.689310074E0
1.989255782E0,1.259433985E0,6.563220978E0,2.579117060E0
1.991755729E0,1.245061040E0,6.448236942E0,2.502460957E0
1.994255625E0,1.144449949E0,6.385953903E0,2.454550982E0
1.996755573E0,1.067793965E0,6.290133953E0,2.344357967E0
1.999255469E0,1.063002944E0,6.213478088E0,2.286865950E0
2.001809167E0,9.767649770E-1,6.189523220E0,2.200628042E0
2.004309115E0,8.234530091E-1,6.079329967E0,2.176672935E0
2.006809011E0,7.755429745E-1,6.069747925E0,2.100017071E0
2.009308959E0,8.138710260E-1,6.026628971E0,2.080852985E0
2.011808854E0,7.515879869E-1,5.973927975E0,2.013778925E0
2.014308802E0,7.372149825E-1,5.935599804E0,1.980242014E0
2.016808750E0,7.851250172E-1,5.868525982E0,1.922749996E0
2.019308646E0,7.803339958E-1,5.801452160E0,1.894003987E0
2.021808594E0,8.186619878E-1,5.820615768E0,1.894003987E0
2.024308490E0,8.234530091E-1,5.743959904E0,1.908377051E0
2.026808438E0,8.953179717E-1,5.691258907E0,1.927541018E0
2.029308334E0,9.288550019E-1,5.686468124E0,1.956287026E0
2.031834479E0,9.623919725E-1,5.715213776E0,1.951496005E0
2.034334427E0,1.039047956E0,5.686468124E0,1.970659971E0
2.036834323E0,1.101330996E0,5.720005035E0,2.056898117E0
2.039334271E0,1.230687976E0,5.739169121E0,2.123971939E0
2.041834167E0,1.403164029E0,5.806242943E0,2.258120060E0
2.044334115E0,1.618759036E0,5.844571114E0,2.349148989E0
2.046834063E0,1.858309031E0,5.916436195E0,2.478506088E0
2.049333959E0,2.126605034E0,5.959555149E0,2.559952974E0
2.051833907E0,2.255961895E0,6.064957142E0,2.569535017E0
2.054333802E0,2.327826977E0,6.223060131E0,2.612653971E0
2.056833750E0,2.390110016E0,6.414700031E0,2.617444992E0
2.059333646E0,2.346991062E0,6.630294800E0,2.636609077E0
2.061860834E0,2.227216005E0,6.826725960E0,2.617444992E0
2.064361250E0,2.155350924E0,7.090230942E0,2.545579910E0
2.066861615E0,2.117022991E0,7.339363098E0,2.483297110E0
2.069362032E0,2.102649927E0,7.626822948E0,2.382685900E0
2.071862396E0,2.131396055E0,7.933446884E0,2.296447992E0
2.074362813E0,2.198470116E0,8.249652863E0,2.219791889E0
2.076863177E0,2.303872108E0,8.532321930E0,2.282074928E0
2.079363542E0,2.452393055E0,8.829363823E0,2.334775925E0
2.081863959E0,2.725480080E0,9.183897972E0,2.382685900E0
2.084364323E0,2.979403019E0,9.548013687E0,2.444968939E0
2.086864740E0,3.281235933E0,9.825892448E0,2.502460957E0
2.089365104E0,3.607023954E0,1.016605282E1,2.617444992E0
2.091886927E0,3.865737915E0,1.055891514E1,2.588699102E0
2.094387344E0,4.253808975E0,1.087991238E1,2.555161953E0
2.096887709E0,4.737699986E0,1.117216301E1,2.425805092E0
2.099388125E0,5.140143871E0,1.149316025E1,2.262911081E0
2.101888490E0,5.418022156E0,1.184290314E1,2.143136024E0
2.104388907E0,5.580915928E0,1.211119938E1,2.023360968E0
2.106889271E0,5.571333885E0,1.236512184E1,1.917958975E0
2.109389636E0,5.523424149E0,1.270528316E1,1.946704984E0
2.111890052E0,5.441977024E0,1.319396496E1,1.922749996E0
2.114390417E0,5.384484768E0,1.361557293E1,1.927541018E0
2.116890834E0,5.456349850E0,1.404676342E1,2.052107096E0
2.119391198E0,5.590497971E0,1.448753548E1,2.176672935E0
2.121914115E0,6.045642853E0,1.509599209E1,2.339566946E0
2.124414532E0,6.567862034E0,1.560383797E1,2.622236013E0
2.126914896E0,7.061335087E0,1.601586342E1,2.952815056E0
2.129415313E0,7.435032845E0,1.619313049E1,3.393587112E0
2.131915677E0,7.722493172E0,1.616438484E1,3.791239977E0
2.134416094E0,7.861432076E0,1.636560631E1,4.356577873E0
2.136916459E0,7.847058773E0,1.661952972E1,4.802141190E0
2.139416823E0,7.779984951E0,1.673930550E1,5.147092819E0
2.141917240E0,7.593135834E0,1.672493172E1,5.372270107E0
2.144417604E0,7.329630852E0,1.663869476E1,5.515999794E0
2.146918021E0,6.821784973E0,1.653808212E1,5.525581837E0
2.149418386E0,6.462460041E0,1.631290627E1,5.281240940E0
2.151938802E0,6.098343849E0,1.599190903E1,4.802141190E0
2.154439219E0,5.671945095E0,1.570444870E1,4.346995831E0
2.156939584E0,5.226381779E0,1.540740681E1,3.819986105E0
2.159440000E0,4.756864071E0,1.518702126E1,3.374423027E0
2.161940365E0,4.622715950E0,1.487081528E1,2.818666935E0
2.164440782E0,4.239436150E0,1.466480160E1,2.325193882E0
2.166941146E0,3.870528936E0,1.448274422E1,1.822139025E0
2.169441511E0,3.650142908E0,1.445399761E1,1.467604995E0
2.171941927E0,3.252490044E0,1.451148987E1,9.166399837E-1
2.174442292E0,2.768599033E0,1.449711704E1,6.863299757E-2
2.176942709E0,2.251171112E0,1.444441605E1,-6.260619760E-1
2.179443073E0,1.767279983E0,1.455939960E1,-7.266730070E-1
2.181929479E0,1.451074004E0,1.479415894E1,-1.042878985E0
2.184429896E0,1.211524010E0,1.483248711E1,-1.100371003E0
2.186930261E0,9.001089931E-1,1.481332302E1,-9.374769926E-1
2.189430677E0,7.563790083E-1,1.462168312E1,-5.877339840E-1
2.191931042E0,6.701409817E-1,1.437734222E1,-2.044540048E-1
2.194431407E0,4.689190090E-1,1.405634499E1,3.988699988E-2
2.196931823E0,3.060249984E-1,1.369222927E1,2.650640011E-1
2.199432188E0,1.814589947E-1,1.329457569E1,4.087939858E-1
2.201932604E0,2.006230056E-1,1.279631233E1,5.141959786E-1
2.204432969E0,1.335490048E-1,1.225971985E1,6.627169847E-1
2.206933386E0,2.533240020E-1,1.163689041E1,7.297909856E-1
2.209433750E0,3.874720037E-1,1.111946201E1,7.824919820E-1
2.211992865E0,4.832920134E-1,1.063078022E1,7.777010202E-1
2.214493282E0,5.982760191E-1,9.964831352E0,7.824919820E-1
2.216993646E0,7.276329994E-1,9.447402954E0,9.166399837E-1
2.219494063E0,6.988869905E-1,9.121615410E0,1.113070965E0
2.221994427E0,7.659609914E-1,8.719170570E0,1.180145025E0
2.224494844E0,7.611700296E-1,8.350263596E0,1.299919963E0
2.226995209E0,8.042889833E-1,8.005311966E0,1.429276943E0
2.229495573E0,9.192730188E-1,7.713060856E0,1.577798009E0
2.231995990E0,1.106122017E0,7.406436920E0,1.793393016E0
2.234496354E0,1.082167029E0,7.296244144E0,1.894003987E0
2.236996771E0,1.130077004E0,7.104603767E0,2.008987904E0
2.239497136E0,1.077376008E0,6.879426956E0,2.133553982E0
2.242017188E0,1.053421021E0,6.740488052E0,2.210210085E0
2.244517604E0,1.120494962E0,6.692577839E0,2.277283907E0
2.247017969E0,1.110913038E0,6.568012238E0,2.353940010E0
2.249518386E0,1.096539974E0,6.395535946E0,2.406641006E0
2.252018750E0,1.197150946E0,6.098494053E0,2.406641006E0
2.254519167E0,1.254642963E0,5.945181847E0,2.377895117E0
2.257019532E0,1.187569022E0,5.873316765E0,2.301239014E0
2.259519896E0,1.072584987E0,5.935599804E0,2.248538017E0
2.262020313E0,1.158823013E0,6.002674103E0,2.205419064E0
2.264520677E0,1.321717024E0,6.079329967E0,2.200628042E0
2.267021094E0,1.460656047E0,6.098494053E0,2.157509089E0
2.269521459E0,1.479820013E0,6.036211014E0,2.147927046E0
2.272044844E0,1.460656047E0,6.270969868E0,2.085644007E0
2.274545261E0,1.508566022E0,6.419490814E0,1.908377051E0
2.277045625E0,1.527729988E0,6.625504017E0,1.941913962E0
2.279546042E0,1.613968015E0,6.989620209E0,1.903586030E0
2.282046407E0,1.738533974E0,7.176468849E0,1.865257978E0
2.284546823E0,1.858309031E0,7.392064095E0,1.951496005E0
2.287047188E0,2.030785084E0,7.737016201E0,1.975450993E0
2.289547552E0,2.227216005E0,7.957402229E0,1.965868950E0
2.292047969E0,2.409274101E0,8.110713959E0,2.104808092E0
2.294548334E0,2.241589069E0,8.470039368E0,2.152718067E0
2.297048750E0,2.097858906E0,8.886856079E0,2.143136024E0
2.299549115E0,2.121814013E0,9.126405716E0,2.186254978E0
2.302073334E0,2.054739952E0,9.203062057E0,2.100017071E0
2.304573750E0,2.131396055E0,8.977885246E0,2.076061964E0
2.307074115E0,2.442811012E0,8.417338371E0,2.205419064E0
2.309574532E0,2.596122980E0,8.134669304E0,2.334775925E0
2.312074896E0,2.586540937E0,7.976565838E0,2.411432028E0
2.314575313E0,2.308662891E0,7.895119190E0,2.416223049E0
2.317075677E0,2.059530973E0,7.899909973E0,2.440177917E0
2.319576042E0,1.853518009E0,7.784925938E0,2.315612078E0
2.322076459E0,1.791234970E0,7.583703995E0,2.291656971E0
2.324576823E0,1.738533974E0,7.487884045E0,2.267702103E0
2.327077240E0,1.752907038E0,7.329781055E0,2.315612078E0
2.329577604E0,1.743324995E0,7.281870842E0,2.373104095E0
2.332060261E0,1.767279983E0,7.190842152E0,2.507251978E0
2.334560677E0,1.752907038E0,7.142931938E0,2.641400099E0
2.337061042E0,1.815189958E0,7.171678066E0,2.789921045E0
2.339561459E0,1.805608034E0,7.200424194E0,2.919277906E0
2.342061823E0,1.791234970E0,7.296244144E0,3.101336002E0
2.344562188E0,1.810399055E0,7.454347134E0,3.201946974E0
2.347062604E0,1.772071004E0,7.717852116E0,3.273812056E0
2.349562969E0,1.733742952E0,8.019684792E0,3.360049963E0
2.352063386E0,1.762488961E0,8.220907211E0,3.503779888E0
2.354563750E0,1.767279983E0,8.532321930E0,3.594809055E0
2.357064167E0,1.733742952E0,8.882064819E0,3.628345966E0
2.359564532E0,1.781653047E0,9.145569801E0,3.676255941E0
2.362125365E0,1.796025991E0,9.447402954E0,3.700211048E0
2.364625782E0,1.853518009E0,9.725280762E0,3.719374895E0
2.367126146E0,1.824772000E0,9.960040092E0,3.661883116E0
2.369626563E0,1.848726988E0,1.018521690E1,3.652301073E0
2.372126927E0,1.915801048E0,1.038164806E1,3.613972902E0
2.374627344E0,1.834354043E0,1.054454231E1,3.470242977E0
2.377127709E0,1.738533974E0,1.064036179E1,3.369632006E0
2.379628073E0,1.604385972E0,1.075055504E1,3.264230013E0
2.382128490E0,1.556475997E0,1.075055504E1,3.125291109E0
2.384628854E0,1.532521009E0,1.081283760E1,3.015098095E0
2.387129271E0,1.446282983E0,1.078888321E1,2.957606077E0
2.389629636E0,1.302553058E0,1.076013660E1,2.761174917E0
2.392113386E0,1.168405056E0,1.075055504E1,2.665354967E0
2.394613802E0,1.101330996E0,1.069306278E1,2.550370932E0
2.397114167E0,9.863470197E-1,1.068827248E1,2.406641006E0
2.399614584E0,8.474079967E-1,1.064994431E1,2.253329039E0
2.402114948E0,7.755429745E-1,1.060682487E1,2.200628042E0
2.404615313E0,6.701409817E-1,1.052058697E1,2.133553982E0
2.407115729E0,5.647389889E-1,1.043434906E1,2.023360968E0
2.409616094E0,5.359929800E-1,1.041518497E1,2.023360968E0
2.412116511E0,5.168290138E-1,1.038164806E1,2.004196882E0
2.414616875E0,4.641279876E-1,1.036727524E1,1.922749996E0
2.417117292E0,4.497550130E-1,1.029541016E1,1.994614959E0
2.419617657E0,4.449639916E-1,1.022354507E1,2.018569946E0
2.422139948E0,3.587259948E-1,1.014209843E1,2.061688900E0
2.424640365E0,3.491440117E-1,1.005106926E1,2.095226049E0
2.427140729E0,3.683080077E-1,9.950457573E0,2.119180918E0
2.429641146E0,3.491440117E-1,9.892966270E0,2.224582911E0
2.432141511E0,3.443529904E-1,9.845055580E0,2.267702103E0
2.434641875E0,3.203980029E-1,9.749236107E0,2.349148989E0
2.437142292E0,3.251889944E-1,9.643834114E0,2.444968939E0
2.439642657E0,3.251889944E-1,9.567177773E0,2.502460957E0
2.442143073E0,3.012340069E-1,9.476148605E0,2.564743996E0
2.444643438E0,2.868610024E-1,9.380329132E0,2.583908081E0
2.447143854E0,2.868610024E-1,9.303672791E0,2.674937010E0
2.449644219E0,2.964429855E-1,9.222226143E0,2.684519053E0
2.452165469E0,3.299799860E-1,9.131196976E0,2.737220049E0
2.454665886E0,3.443529904E-1,9.073704720E0,2.770756960E0
2.457166250E0,3.443529904E-1,9.030586243E0,2.809084892E0
2.459666667E0,3.778899908E-1,8.949138641E0,2.866576910E0
2.462167032E0,3.683080077E-1,8.834155083E0,2.909696102E0
2.464667396E0,3.778899908E-1,8.757498741E0,2.924068928E0
2.467167813E0,3.683080077E-1,8.690424919E0,2.938441992E0
2.469668177E0,3.730989993E-1,8.632932663E0,2.895323038E0
2.472168594E0,4.114269912E-1,8.623351097E0,2.885740995E0
2.474668959E0,4.545460045E-1,8.565858841E0,2.866576910E0
2.477169375E0,4.689190090E-1,8.565858841E0,2.823457956E0
2.479669740E0,4.737100005E-1,8.455665588E0,2.789921045E0
2.482230573E0,4.832920134E-1,8.446084023E0,2.770756960E0
2.484730990E0,4.976649880E-1,8.436502457E0,2.694101095E0
2.487231354E0,5.024560094E-1,8.426919937E0,2.694101095E0
2.489731771E0,5.216199756E-1,8.479620934E0,2.674937010E0
2.492232136E0,5.455750227E-1,8.436502457E0,2.641400099E0
2.494732552E0,4.976649880E-1,8.426919937E0,2.650981903E0
2.497232917E0,4.257999957E-1,8.407755852E0,2.665354967E0
2.499733282E0,3.970539868E-1,8.436502457E0,2.698892117E0
2.502233698E0,3.539350033E-1,8.436502457E0,2.785130024E0
2.504734063E0,2.485329956E-1,8.436502457E0,2.890532017E0
2.507234479E0,1.958319992E-1,8.455665588E0,2.933650970E0
2.509734844E0,1.383399963E-1,8.455665588E0,3.024679899E0
2.512257396E0,8.983000182E-3,8.470039368E0,3.177992105E0
2.514757813E0,-1.060009971E-1,8.503576279E0,3.340886116E0
2.517258177E0,-2.161940038E-1,8.522740364E0,3.518152952E0
2.519758594E0,-3.024320006E-1,8.537113190E0,3.671464920E0
2.522258959E0,-4.509530067E-1,8.561067581E0,3.839149952E0
2.524759375E0,-5.659369826E-1,8.608978271E0,3.978089094E0
2.527259740E0,-7.336220145E-1,8.589814186E0,4.131401062E0
2.529760104E0,-9.444260001E-1,8.575441360E0,4.303876877E0
2.532260521E0,-1.059409976E0,8.628142357E0,4.318250179E0
2.534760886E0,-1.145648003E0,8.656888008E0,4.346995831E0
2.537261302E0,-1.207931042E0,8.671260834E0,4.356577873E0
2.539761667E0,-1.351660967E0,8.700007439E0,4.318250179E0
2.542245052E0,-1.500182033E0,8.680843353E0,4.184102058E0
2.544745469E0,-1.596001983E0,8.647306442E0,4.093072891E0
2.547245834E0,-1.691822052E0,8.637723923E0,3.920597076E0
2.549746250E0,-1.720567942E0,8.666469574E0,3.824776888E0
2.552246615E0,-1.787642002E0,8.709589005E0,3.738538980E0
2.554746979E0,-1.840342999E0,8.747917175E0,3.637928009E0
2.557247396E0,-1.897835016E0,8.757498741E0,3.532526016E0
2.559747761E0,-1.950536013E0,8.829363823E0,3.417541981E0
2.562248177E0,-2.022401094E0,8.853319168E0,3.355258942E0
2.564748542E0,-2.156548977E0,8.824572563E0,3.336095095E0
2.567248959E0,-2.271533012E0,8.800618172E0,3.278603077E0
2.569749323E0,-2.367352962E0,8.824572563E0,3.230693102E0
2.572310157E0,-2.487128019E0,8.834155083E0,3.235483885E0
2.574810938E0,-2.582947969E0,8.771871567E0,3.211529016E0
2.577311667E0,-2.640439987E0,8.704797745E0,3.269021034E0
2.579812396E0,-2.606903076E0,8.647306442E0,3.345676899E0
2.582313177E0,-2.626066923E0,8.652096748E0,3.427124023E0
2.584813907E0,-2.654813051E0,8.709589005E0,3.417541981E0
2.587314688E0,-2.726677895E0,8.728753090E0,3.384005070E0
2.589815417E0,-2.712305069E0,8.781454086E0,3.321722031E0
2.592316146E0,-2.760215044E0,8.824572563E0,3.240274906E0
2.594816927E0,-2.793751955E0,8.834155083E0,3.134872913E0
2.597317657E0,-2.812916040E0,8.891647339E0,3.005516052E0
2.599818438E0,-2.865617037E0,8.944348335E0,2.948024035E0
2.602336250E0,-2.999764919E0,9.035376549E0,2.809084892E0
2.604837032E0,-3.133913040E0,9.088077545E0,2.665354967E0
2.607337761E0,-3.244106054E0,9.169525146E0,2.579117060E0
2.609838490E0,-3.335134983E0,9.193479538E0,2.516834021E0
2.612339271E0,-3.478864908E0,9.250971794E0,2.464133024E0
2.614840000E0,-3.565103054E0,9.318045616E0,2.545579910E0
2.617340782E0,-3.560312033E0,9.428238869E0,2.598280907E0
2.619841511E0,-3.560312033E0,9.500103951E0,2.737220049E0
2.622342240E0,-3.584266901E0,9.629461288E0,2.880949974E0
2.624843021E0,-3.488446951E0,9.792354584E0,3.077380896E0
2.627343750E0,-3.464492083E0,9.950457573E0,3.269021034E0
2.629844532E0,-3.430954933E0,1.009897900E1,3.427124023E0
2.632324688E0,-3.315970898E0,1.019000816E1,3.633136988E0
2.634825417E0,-3.210568905E0,1.032415581E1,3.767285109E0
2.637326198E0,-3.114748955E0,1.044393063E1,3.858314037E0
2.639826927E0,-2.975810051E0,1.049663162E1,3.944551945E0
2.642327709E0,-2.856034994E0,1.053016853E1,4.002044201E0
2.644828438E0,-2.765006065E0,1.051579571E1,4.011625767E0
2.647329167E0,-2.664395094E0,1.050142288E1,3.920597076E0
2.649829948E0,-2.630857944E0,1.047746754E1,3.819986105E0
2.652330677E0,-2.587738991E0,1.040560341E1,3.695420027E0
2.654831459E0,-2.424844980E0,1.036727524E1,3.561271906E0
2.657332188E0,-2.324234009E0,1.019479942E1,3.407959938E0
2.659832917E0,-2.237996101E0,1.005585957E1,3.302557945E0
2.662386563E0,-2.151757956E0,9.979204178E0,3.211529016E0
2.664887344E0,-2.070311069E0,9.830682755E0,3.168410063E0
2.667388073E0,-2.003237009E0,9.571969032E0,3.101336002E0
2.669888802E0,-1.964908957E0,9.389910698E0,3.110918045E0
2.672389584E0,-1.950536013E0,9.198270798E0,3.149245977E0
2.674890313E0,-1.931372046E0,8.973093987E0,3.130081892E0
2.677391094E0,-1.950536013E0,8.771871567E0,3.144454956E0
2.679891823E0,-1.945744991E0,8.565858841E0,3.283394098E0
2.682392552E0,-1.984073043E0,8.426919937E0,3.431915045E0
2.684893334E0,-2.094265938E0,8.364637375E0,3.637928009E0
2.687394063E0,-2.199667931E0,8.355054855E0,3.920597076E0
2.689894844E0,-2.434427023E0,8.379010201E0,4.136191845E0
2.692410209E0,-2.578156948E0,8.508366585E0,4.332623005E0
2.694910990E0,-2.626066923E0,8.719170570E0,4.576963902E0
2.697411719E0,-2.525455952E0,8.949138641E0,4.687157154E0
2.699912448E0,-2.410471916E0,9.250971794E0,4.667993069E0
2.702413229E0,-2.295488119E0,9.562387466E0,4.610500813E0
2.704913959E0,-2.271533012E0,9.835474014E0,4.461979866E0
2.707414740E0,-2.261950970E0,1.011814308E1,4.270339966E0
2.709915469E0,-2.156548977E0,1.047746754E1,4.006834984E0
2.712416198E0,-2.041564941E0,1.084637547E1,3.705002069E0
2.714916979E0,-1.749313951E0,1.122007275E1,3.417541981E0
2.717417709E0,-1.385197997E0,1.172312832E1,3.144454956E0
2.719918490E0,-9.300529957E-1,1.222618294E1,2.794712067E0
2.722427292E0,-4.222069979E-1,1.275319290E1,2.377895117E0
2.724928073E0,5.210199952E-2,1.331373978E1,1.822139025E0
2.727428802E0,4.737100005E-1,1.388866043E1,1.338248014E0
2.729929532E0,9.671829939E-1,1.436775970E1,8.064470291E-1
2.732430313E0,1.498983979E0,1.493309784E1,2.746460140E-1
2.734931042E0,2.030785084E0,1.539303398E1,-2.236180007E-1
2.737431823E0,2.509885073E0,1.579068661E1,-6.260619760E-1
2.739932552E0,3.022521973E0,1.603023720E1,-9.422680140E-1
2.742433282E0,3.357892036E0,1.635602570E1,-1.196190953E0
2.744934063E0,3.525577068E0,1.686866188E1,-1.507606030E0
2.747434792E0,3.750754118E0,1.728068733E1,-1.632171988E0
2.749935573E0,3.913647890E0,1.755377579E1,-1.426159024E0
2.752464532E0,3.980721951E0,1.756335640E1,-1.042878985E0
2.754965313E0,4.196317196E0,1.750586510E1,-6.212710142E-1
2.757466042E0,4.522105217E0,1.753940201E1,-1.517529935E-1
2.759966771E0,5.274291992E0,1.764959526E1,3.560929894E-1
2.762467552E0,6.246864796E0,1.767834091E1,1.079534054E0
2.764968282E0,6.606190205E0,1.766875839E1,1.898795009E0
2.767469063E0,6.697218895E0,1.753940201E1,2.612653971E0
2.769969792E0,6.730755806E0,1.719445038E1,3.019889116E0
2.772470521E0,6.663681984E0,1.656682968E1,3.369632006E0
2.774971302E0,6.500788212E0,1.568528461E1,3.623554945E0
2.777472032E0,6.117507935E0,1.466480160E1,3.738538980E0
2.779972813E0,5.571333885E0,1.356287193E1,3.800822020E0
2.782454792E0,4.881430149E0,1.242261410E1,3.738538980E0
2.784955521E0,4.157989025E0,1.143087673E1,3.580435991E0
2.787456302E0,3.458503008E0,1.052537823E1,3.412750959E0
2.789957032E0,2.897955894E0,9.754027367E0,3.259438992E0
2.792457813E0,2.414064884E0,9.078495979E0,3.058217049E0
2.794958542E0,2.073904037E0,8.426919937E0,2.871367931E0
2.797459323E0,1.925382972E0,7.928656101E0,2.569535017E0
2.799960052E0,1.867890954E0,7.502256870E0,2.262911081E0
2.802460782E0,1.863100052E0,7.157304764E0,1.922749996E0
2.804961563E0,1.829563022E0,6.884218216E0,1.587380052E0
2.807462292E0,1.920591950E0,6.625504017E0,1.247218966E0
2.809963021E0,2.002038956E0,6.371581078E0,8.878939748E-1
2.812518854E0,2.069113016E0,6.165567875E0,5.812699795E-1
2.815019636E0,2.150559902E0,5.839779854E0,2.602730095E-1
2.817520365E0,2.188888073E0,5.595438957E0,7.342399657E-2
2.820021094E0,2.255961895E0,5.336725235E0,-7.509700209E-2
2.822521875E0,2.323035955E0,5.125920773E0,-1.373800039E-1
2.825022604E0,2.299081087E0,5.010937214E0,-2.188269943E-1
2.827523386E0,2.208051920E0,4.895953178E0,-2.379910052E-1
2.830024115E0,2.040366888E0,4.824088097E0,-1.996629983E-1
2.832524844E0,1.930173993E0,4.867207050E0,-1.900810003E-1
2.835025625E0,1.819980979E0,4.900743961E0,-7.509700209E-2
2.837526354E0,1.776862025E0,4.891161919E0,1.165430024E-1
2.840027136E0,1.762488961E0,4.881579876E0,3.177649975E-1
2.842511979E0,1.719370008E0,4.996563911E0,5.477330089E-1
2.845012709E0,1.752907038E0,5.106757164E0,8.208199739E-1
2.847513490E0,1.709787965E0,5.245696068E0,9.789230227E-1
2.850014219E0,1.613968015E0,5.480454922E0,1.084324956E0
2.852515000E0,1.403164029E0,5.964345932E0,1.366994023E0
2.855015729E0,1.465446949E0,6.357207775E0,1.616125941E0
2.857516459E0,1.724161029E0,6.702159882E0,1.831720948E0
2.860017240E0,1.834354043E0,6.960874081E0,1.917958975E0
2.862517969E0,1.901427984E0,7.257915974E0,1.999405980E0
2.865018750E0,1.934965014E0,7.631614208E0,1.985033035E0
2.867519479E0,1.853518009E0,8.105922699E0,2.076061964E0
2.870020209E0,2.093067884E0,8.446084023E0,2.320403099E0
2.872570729E0,2.208051920E0,8.838946342E0,2.492878914E0
2.875071511E0,2.332617998E0,9.198270798E0,2.598280907E0
2.877572240E0,2.529048920E0,9.524059296E0,2.622236013E0
2.880072969E0,2.677570105E0,9.763608932E0,2.703682899E0
2.882573750E0,2.816509008E0,1.004148674E1,2.732429028E0
2.885074479E0,2.893165112E0,1.031936455E1,2.828248978E0
2.887575261E0,3.108760118E0,1.049663162E1,2.890532017E0
2.890075990E0,3.458503008E0,1.057807922E1,2.909696102E0
2.892576719E0,3.765126944E0,1.066431713E1,3.010307074E0
2.895077500E0,4.081333160E0,1.079367447E1,3.101336002E0
2.897578229E0,4.459822178E0,1.086074829E1,3.173201084E0
2.900079011E0,4.847893238E0,1.089428520E1,3.173201084E0
2.902598282E0,5.063488007E0,1.087991238E1,3.182782888E0
2.905099063E0,5.307828903E0,1.091344929E1,3.177992105E0
2.907599792E0,5.408440113E0,1.093261337E1,3.269021034E0
2.910100521E0,5.652781010E0,1.091823959E1,3.312139988E0
2.912601302E0,5.801301956E0,1.089428520E1,3.273812056E0
2.915102032E0,5.877957821E0,1.082242012E1,3.235483885E0
2.917602813E0,5.992941856E0,1.066431713E1,3.192364931E0
2.920103542E0,6.083971024E0,1.047267723E1,3.144454956E0
2.922604271E0,6.036060810E0,1.024270916E1,3.005516052E0
2.925105052E0,5.892331123E0,9.916920662E0,2.971978903E0
2.927605782E0,5.863584995E0,9.600714684E0,2.833039999E0
2.930106563E0,5.762973785E0,9.294091225E0,2.746802092E0
2.932625990E0,5.619244099E0,9.001839638E0,2.751593113E0
2.935126771E0,5.523424149E0,8.666469574E0,2.761174917E0
2.937627500E0,5.355739117E0,8.417338371E0,2.809084892E0
2.940128229E0,5.164099216E0,8.182579041E0,2.813875914E0
2.942629011E0,4.914967060E0,7.933446884E0,2.991142988E0
2.945129740E0,4.699371815E0,7.727434158E0,3.101336002E0
2.947630521E0,4.421494007E0,7.521420956E0,3.101336002E0
2.950131250E0,4.153197765E0,7.406436920E0,3.192364931E0
2.952631979E0,3.908857107E0,7.281870842E0,3.326513052E0
2.955132761E0,3.736381054E0,7.181260109E0,3.316931009E0
2.957633490E0,3.472876072E0,7.085440159E0,3.355258942E0
2.960134271E0,3.362683058E0,6.989620209E0,3.355258942E0
2.962613802E0,3.228534937E0,6.903381824E0,3.316931009E0
2.965114532E0,3.108760118E0,6.845890045E0,3.278603077E0
2.967615313E0,2.816509008E0,6.788397789E0,3.235483885E0
2.970116042E0,2.663197041E0,6.764442921E0,3.235483885E0
2.972616823E0,2.519467115E0,6.759652138E0,3.106127024E0
2.975117552E0,2.428437948E0,6.721323967E0,2.943233013E0
2.977618282E0,2.380527973E0,6.726115227E0,2.828248978E0
2.980119063E0,2.289499044E0,6.668622971E0,2.722846985E0
2.982619792E0,2.279917002E0,6.726115227E0,2.631818056E0
2.985120573E0,2.212842941E0,6.730906010E0,2.531207085E0
2.987621302E0,2.069113016E0,6.740488052E0,2.468924046E0
2.990122032E0,1.939756036E0,6.836308002E0,2.425805092E0
2.992674271E0,1.791234970E0,6.960874081E0,2.349148989E0
2.995175052E0,1.652295947E0,7.061484814E0,2.358731031E0
2.997675782E0,1.527729988E0,7.219587803E0,2.282074928E0
3.000176511E0,1.412745953E0,7.348945141E0,2.229373932E0
3.002677292E0,1.269016027E0,7.507048130E0,2.272492886E0
3.005178021E0,1.134868026E0,7.641195774E0,2.315612078E0
3.007678802E0,1.053421021E0,7.703478813E0,2.373104095E0
3.010179532E0,9.576010108E-1,7.789717197E0,2.382685900E0
3.012680261E0,8.426169753E-1,8.067594528E0,2.444968939E0
3.015181042E0,6.557679772E-1,8.225698471E0,2.550370932E0
3.017681771E0,5.407840014E-1,8.388591766E0,2.627027035E0
3.020182552E0,4.976649880E-1,8.652096748E0,2.674937010E0
3.022697604E0,4.832920134E-1,8.906020164E0,2.674937010E0
3.025198386E0,4.832920134E-1,9.198270798E0,2.713264942E0
3.027699115E0,4.162180126E-1,9.274927139E0,2.718055964E0
3.030199844E0,4.257999957E-1,9.423447609E0,2.804294109E0
3.032700625E0,4.305909872E-1,9.639042854E0,2.856995106E0
3.035201354E0,4.210090041E-1,9.792354584E0,2.885740995E0
3.037702136E0,4.976649880E-1,1.005106926E1,2.948024035E0
3.040202865E0,5.886939764E-1,1.031936455E1,2.948024035E0
3.042703594E0,6.845139861E-1,1.044393063E1,2.914486885E0
3.045204375E0,8.330349922E-1,1.055412388E1,2.837831020E0
3.047705104E0,9.528099895E-1,1.065473461E1,2.799503088E0
3.050205886E0,1.063002944E0,1.065473461E1,2.799503088E0
3.052692084E0,1.125285983E0,1.061640739E1,2.698892117E0
3.055192813E0,1.182778001E0,1.064036179E1,2.665354967E0
3.057693594E0,1.206732988E0,1.063557053E1,2.631818056E0
3.060194323E0,1.312134981E0,1.057807922E1,2.545579910E0
3.062695104E0,1.407955050E0,1.052537823E1,2.449759960E0
3.065195834E0,1.460656047E0,1.052537823E1,2.306030035E0
3.067696563E0,1.518147945E0,1.043434906E1,2.282074928E0
3.070197344E0,1.685832977E0,1.024270916E1,2.243746996E0
3.072698073E0,1.867890954E0,1.004627800E1,2.205419064E0
3.075198854E0,1.982874990E0,9.873802185E0,2.162300110E0
3.077699584E0,2.088277102E0,9.629461288E0,2.157509089E0
3.080200313E0,2.179306030E0,9.413866043E0,2.085644007E0
3.082756979E0,2.275125980E0,9.198270798E0,2.028151989E0
3.085258021E0,2.366154909E0,9.068914413E0,1.927541018E0
3.087759063E0,2.490720987E0,8.963512421E0,1.932332039E0
3.090260104E0,2.553004026E0,8.853319168E0,1.956287026E0
3.092761094E0,2.586540937E0,8.810199738E0,1.980242014E0
3.095262188E0,2.639241934E0,8.776662827E0,1.965868950E0
3.097763229E0,2.672779083E0,8.695216179E0,2.004196882E0
3.100264219E0,2.802135944E0,8.656888008E0,2.037734032E0
3.102765261E0,2.878792048E0,8.580231667E0,2.191046000E0
3.105266302E0,2.998567104E0,8.561067581E0,2.243746996E0
3.107767344E0,3.056058884E0,8.556277275E0,2.315612078E0
3.110268386E0,3.142297029E0,8.489203453E0,2.440177917E0
3.112781459E0,3.209371090E0,8.517949104E0,2.497669935E0
3.115282500E0,3.218952894E0,8.508366585E0,2.588699102E0
3.117783542E0,3.223743916E0,8.517949104E0,2.684519053E0
3.120284584E0,3.238116980E0,8.498785019E0,2.775547981E0
3.122785625E0,3.305191040E0,8.479620934E0,2.914486885E0
3.125286667E0,3.319564104E0,8.493993759E0,2.943233013E0
3.127787709E0,3.353101015E0,8.522740364E0,2.904905081E0
3.130288698E0,3.286026955E0,8.522740364E0,3.039052963E0
3.132789740E0,3.242908001E0,8.522740364E0,3.177992105E0
3.135290782E0,3.185415983E0,8.556277275E0,3.177992105E0
3.137791823E0,3.171042919E0,8.551486015E0,3.115709066E0
3.140292865E0,3.113550901E0,8.604187012E0,3.139663935E0
3.142808334E0,3.151879072E0,8.690424919E0,3.086962938E0
3.145309375E0,3.142297029E0,8.719170570E0,3.072590113E0
3.147810417E0,3.084805012E0,8.743125916E0,3.039052963E0
3.150311459E0,3.075222969E0,8.757498741E0,2.971978903E0
3.152812500E0,3.046477079E0,8.819782257E0,2.957606077E0
3.155313542E0,3.008148909E0,8.819782257E0,2.861785889E0
3.157814584E0,3.003357887E0,8.848527908E0,2.746802092E0
3.160315573E0,2.950656891E0,8.838946342E0,2.670145988E0
3.162816615E0,2.917119980E0,8.920392990E0,2.641400099E0
3.165317657E0,2.830882072E0,8.963512421E0,2.564743996E0
3.167818698E0,2.715898037E0,8.939557076E0,2.512042999E0
3.170319740E0,2.663197041E0,8.987466812E0,2.502460957E0
3.172828334E0,2.596122980E0,9.040167809E0,2.435386896E0
3.175329375E0,2.476347923E0,9.088077545E0,2.392267942E0
3.177830417E0,2.370945930E0,9.121615410E0,2.425805092E0
3.180331459E0,2.284708023E0,9.193479538E0,2.449759960E0
3.182832500E0,2.217633963E0,9.222226143E0,2.444968939E0
3.185333542E0,2.179306030E0,9.246180534E0,2.497669935E0
3.187834584E0,2.155350924E0,9.265344620E0,2.531207085E0
3.190335573E0,2.069113016E0,9.313255310E0,2.603071928E0
3.192836615E0,2.006829977E0,9.342000961E0,2.617444992E0
3.195337657E0,1.968502045E0,9.380329132E0,2.708473921E0
3.197838698E0,1.824772000E0,9.394701958E0,2.804294109E0
3.200339740E0,1.805608034E0,9.365956306E0,2.842622042E0
3.202850365E0,1.872681975E0,9.313255310E0,2.938441992E0
3.205351407E0,1.853518009E0,9.294091225E0,2.967187881E0
3.207852448E0,1.805608034E0,9.217434883E0,3.000725031E0
3.210353490E0,1.786443949E0,9.078495979E0,3.134872913E0
3.212854532E0,1.700206041E0,9.068914413E0,3.235483885E0
3.215355573E0,1.676251054E0,9.025794983E0,3.350467920E0
3.217856615E0,1.652295947E0,8.910811424E0,3.498989105E0
3.220357604E0,1.671460032E0,8.824572563E0,3.661883116E0
3.222858646E0,1.676251054E0,8.757498741E0,3.743330002E0
3.225359688E0,1.556475997E0,8.738334656E0,3.848731995E0
3.227860729E0,1.465446949E0,8.685633659E0,4.011625767E0
3.230361771E0,1.460656047E0,8.671260834E0,4.049953938E0
3.232877136E0,1.479820013E0,8.666469574E0,4.121819019E0
3.235378177E0,1.484611034E0,8.642515182E0,4.188892841E0
3.237879219E0,1.465446949E0,8.623351097E0,4.203266144E0
3.240380261E0,1.465446949E0,8.637723923E0,4.184102058E0
3.242881302E0,1.446282983E0,8.652096748E0,4.193684101E0
3.245382344E0,1.455865026E0,8.695216179E0,4.179310799E0
3.247883386E0,1.479820013E0,8.685633659E0,4.136191845E0
3.250384375E0,1.518147945E0,8.680843353E0,4.078700066E0
3.252885417E0,1.575639963E0,8.666469574E0,3.997252941E0
3.255386459E0,1.642714024E0,8.656888008E0,3.853523016E0
3.257887500E0,1.824772000E0,8.551486015E0,3.709793091E0
3.260388542E0,1.925382972E0,8.565858841E0,3.566062927E0
3.262901771E0,1.944547057E0,8.503576279E0,3.417541981E0
3.265402813E0,2.049948931E0,8.465248108E0,3.307348967E0
3.267903854E0,2.217633963E0,8.431711197E0,3.154036999E0
3.270404896E0,2.370945930E0,8.321517944E0,2.991142988E0
3.272905938E0,2.490720987E0,8.240071297E0,2.871367931E0
3.275406979E0,2.624869108E0,8.201743126E0,2.789921045E0
3.277908021E0,2.763808012E0,8.062804222E0,2.631818056E0
3.280409011E0,2.941075087E0,8.010103226E0,2.516834021E0
3.282910052E0,3.233325958E0,7.818462849E0,2.531207085E0
3.285411094E0,3.429757118E0,7.684315205E0,2.430596113E0
3.287912136E0,3.482458115E0,7.593286037E0,2.401849985E0
3.290413177E0,3.496830940E0,7.497466087E0,2.329984903E0
3.292927292E0,3.487248898E0,7.435183048E0,2.296447992E0
3.295428334E0,3.501621962E0,7.339363098E0,2.258120060E0
3.297929375E0,3.559113979E0,7.166886806E0,2.205419064E0
3.300430417E0,3.578278065E0,7.023157120E0,2.123971939E0
3.302931459E0,3.554322958E0,6.956082821E0,2.042525053E0
3.305432500E0,3.602232933E0,6.826725960E0,2.023360968E0
3.307933542E0,3.539949894E0,6.730906010E0,1.932332039E0
3.310434532E0,3.530368090E0,6.673414230E0,1.927541018E0
3.312935573E0,3.487248898E0,6.548848152E0,1.870049000E0
3.315436615E0,3.468085051E0,6.462609768E0,1.812556982E0
3.317937657E0,3.492039919E0,6.405117989E0,1.822139025E0
3.320438698E0,3.434547901E0,6.462609768E0,1.745483041E0
3.322954844E0,3.295608997E0,6.457818985E0,1.779019952E0
3.325455886E0,3.233325958E0,6.520102024E0,1.822139025E0
3.327956927E0,3.199789047E0,6.577593803E0,1.855676055E0
3.330457969E0,3.151879072E0,6.668622971E0,1.898795009E0
3.332959011E0,3.036895037E0,6.754860878E0,1.889212966E0
3.335460052E0,2.926702023E0,6.879426956E0,1.951496005E0
3.337961094E0,2.845254898E0,7.071066856E0,2.028151989E0
3.340462084E0,2.715898037E0,7.219587803E0,2.095226049E0
3.342963125E0,2.653614998E0,7.348945141E0,2.215001106E0
3.345464167E0,2.658406019E0,7.468719959E0,2.258120060E0
3.347965209E0,2.615287066E0,7.650777817E0,2.080852985E0
3.350466250E0,2.433228970E0,7.818462849E0,2.655772924E0
3.352979636E0,2.500303030E0,7.928656101E0,2.679728031E0
3.355480677E0,2.442811012E0,8.053221703E0,2.727638006E0
3.357981719E0,2.423646927E0,8.283189774E0,2.852204084E0
3.360482761E0,2.428437948E0,8.508366585E0,2.952815056E0
3.362983802E0,2.466766119E0,8.723961830E0,3.053426027E0
3.365484844E0,2.620078087E0,8.920392990E0,3.058217049E0
3.367985886E0,2.672779083E0,9.116824150E0,3.067799091E0
3.370486875E0,2.754225969E0,9.303672791E0,3.091753960E0
3.372987917E0,2.888374090E0,9.409074783E0,3.029470921E0
3.375488959E0,3.008148909E0,9.586341858E0,3.010307074E0
3.377990000E0,3.271653891E0,9.648625374E0,2.971978903E0
3.380491042E0,3.357892036E0,9.734863281E0,2.909696102E0
3.383008959E0,3.381846905E0,9.825892448E0,2.813875914E0
3.385510000E0,3.448920965E0,9.883383751E0,2.765965939E0
3.388011042E0,3.434547901E0,9.979204178E0,2.650981903E0
3.390512084E0,3.396219969E0,1.013730717E1,2.492878914E0
3.393013125E0,3.324354887E0,1.026187325E1,2.377895117E0
3.395514167E0,3.262072086E0,1.032415581E1,2.205419064E0
3.398015209E0,3.300400019E0,1.049663162E1,2.052107096E0
3.400516198E0,3.381846905E0,1.059245205E1,1.884421945E0
3.403017240E0,3.525577068E0,1.064036179E1,1.750273943E0
3.405518282E0,3.640561104E0,1.078409195E1,1.644871950E0
3.408019323E0,3.793873072E0,1.091823959E1,1.534679055E0
3.410520365E0,3.937602997E0,1.103322411E1,1.434067965E0
3.413033438E0,4.028632164E0,1.121049118E1,1.347830057E0
3.415534479E0,4.138824940E0,1.137817574E1,1.204100013E0
3.418035521E0,4.306509972E0,1.153148842E1,1.022042036E0
3.420536563E0,4.498149872E0,1.163689041E1,8.304020166E-1
3.423037604E0,4.622715950E0,1.175666523E1,6.004340053E-1
3.425538646E0,4.742490768E0,1.174229240E1,3.992120028E-1
3.428039688E0,4.694581032E0,1.173270988E1,2.650640011E-1
3.430540677E0,4.531686783E0,1.170396423E1,1.836169958E-1
3.433041719E0,4.445448875E0,1.170875454E1,1.213340014E-1
3.435542761E0,4.426284790E0,1.173750114E1,7.342399657E-2
3.438043802E0,4.445448875E0,1.173270988E1,5.426000059E-2
3.440544844E0,4.589179039E0,1.168480015E1,7.821500301E-2
3.443058854E0,4.862266064E0,1.162251663E1,2.072300017E-2
3.445559896E0,5.154517174E0,1.160814381E1,3.030500002E-2
3.448060938E0,5.552169800E0,1.156502533E1,1.788260043E-1
3.450561979E0,5.930658817E0,1.151232433E1,2.746460140E-1
3.453063021E0,6.170208931E0,1.156502533E1,4.806590080E-1
3.455564063E0,6.371430874E0,1.157460690E1,7.393730283E-1
3.458065104E0,6.663681984E0,1.157939816E1,1.050788045E0
3.460566094E0,6.869695187E0,1.157460690E1,1.338248014E0
3.463067136E0,7.166737080E0,1.150753307E1,1.558634043E0
3.465568177E0,7.401495934E0,1.141650391E1,1.721528053E0
3.468069219E0,7.478151798E0,1.128235626E1,1.812556982E0
3.470570261E0,7.435032845E0,1.119611835E1,2.023360968E0
3.473067188E0,7.329630852E0,1.119132710E1,2.368313074E0
3.475568229E0,7.190691948E0,1.116258144E1,2.770756960E0
3.478069271E0,7.118826866E0,1.111946201E1,3.197155952E0
3.480570313E0,7.061335087E0,1.107634258E1,3.604391098E0
3.483071354E0,6.821784973E0,1.115779018E1,3.858314037E0
3.485572396E0,6.735547066E0,1.118174458E1,3.800822020E0
3.488073438E0,6.668472767E0,1.116258144E1,3.613972902E0
3.490574427E0,6.313939095E0,1.115779018E1,3.312139988E0
3.493075469E0,5.686317921E0,1.128235626E1,2.991142988E0
3.495576511E0,5.097024918E0,1.137338543E1,2.617444992E0
3.498077552E0,4.608343124E0,1.154106998E1,2.152718067E0
3.500578594E0,4.110078812E0,1.176145554E1,1.745483041E0
3.503114323E0,3.683680058E0,1.206328869E1,1.577798009E0
3.505615365E0,3.247699022E0,1.236512184E1,1.486768961E0
3.508116407E0,2.869210005E0,1.268132782E1,1.266383052E0
3.510617448E0,2.461975098E0,1.293525124E1,1.050788045E0
3.513118490E0,2.025994062E0,1.315084553E1,1.266383052E0
3.515619532E0,1.810399055E0,1.353891659E1,1.299919963E0
3.518120573E0,1.604385972E0,1.373534775E1,1.117861986E0
3.520621563E0,1.355254054E0,1.374013901E1,1.275964975E0
3.523122604E0,1.182778001E0,1.363952827E1,1.467604995E0
3.525623646E0,9.049000144E-1,1.347184277E1,1.620916963E0
3.528124688E0,6.940960288E-1,1.323229313E1,1.606544018E0
3.530625677E0,5.216199756E-1,1.283463955E1,1.544260979E0
3.533142032E0,3.395619988E-1,1.236033058E1,1.376575947E0
3.535643073E0,2.629059851E-1,1.181894779E1,1.050788045E0
3.538144115E0,1.862500012E-1,1.126798344E1,7.106270194E-1
3.540645157E0,3.491440117E-1,1.071701813E1,3.608840108E-1
3.543146198E0,6.461859941E-1,1.010377026E1,5.905099958E-2
3.545647240E0,9.767649770E-1,9.619878769E0,-8.467900008E-2
3.548148282E0,1.278597951E0,9.040167809E0,-9.905199707E-2
3.550649271E0,1.508566022E0,8.546694756E0,-5.593299866E-2
3.553150313E0,1.542103052E0,8.331100464E0,7.821500301E-2
3.555651354E0,1.417536974E0,8.129878044E0,2.554819882E-1
3.558152396E0,1.211524010E0,8.101132393E0,4.327490032E-1
3.560653438E0,1.101330996E0,7.981357098E0,7.010449767E-1
3.563166615E0,9.959290028E-1,8.019684792E0,9.310129881E-1
3.565667657E0,7.707520127E-1,8.110713959E0,1.007668972E0
3.568168698E0,5.982760191E-1,8.225698471E0,1.108279943E0
3.570669740E0,5.072469711E-1,8.163414955E0,1.352620959E0
3.573170782E0,4.641279876E-1,8.029267311E0,1.625707984E0
3.575671823E0,4.114269912E-1,7.875955105E0,1.860466957E0
3.578172865E0,3.683080077E-1,7.622032166E0,2.056898117E0
3.580673854E0,2.916519940E-1,7.277080059E0,2.167090893E0
3.583174896E0,1.527130008E-1,7.104603767E0,2.272492886E0
3.585675938E0,-3.892700002E-2,7.152513981E0,2.325193882E0
3.588176979E0,-3.120140135E-1,7.281870842E0,2.248538017E0
3.590678021E0,-4.317890108E-1,7.353735924E0,2.205419064E0
3.593201198E0,-3.503420055E-1,7.262707233E0,2.219791889E0
3.595702448E0,-5.276089907E-1,7.181260109E0,2.152718067E0
3.598203698E0,-6.905030012E-1,7.272288799E0,2.181463957E0
3.600704948E0,-6.617569923E-1,7.243543148E0,2.195837021E0
3.603206250E0,-5.228180289E-1,7.229169846E0,2.229373932E0
3.605707500E0,-3.359690011E-1,7.200424194E0,2.315612078E0
3.608208750E0,-1.299560070E-1,7.190842152E0,2.387476921E0
3.610710052E0,7.126600295E-2,7.272288799E0,2.392267942E0
3.613211302E0,2.820700109E-1,7.257915974E0,2.473715067E0
3.615712552E0,4.880830050E-1,7.272288799E0,2.650981903E0
3.618213854E0,6.078580022E-1,7.473511219E0,2.742011070E0
3.620715104E0,7.420060039E-1,7.641195774E0,2.746802092E0
3.623217396E0,7.084689736E-1,7.828044891E0,2.780339003E0
3.625718646E0,8.761540055E-1,7.765761852E0,2.775547981E0
3.628219896E0,1.058212042E0,7.650777817E0,2.804294109E0
3.630721146E0,1.230687976E0,7.655569077E0,3.039052963E0
3.633222448E0,1.398373008E0,7.650777817E0,3.216320038E0
3.635723698E0,1.546893954E0,7.655569077E0,3.302557945E0
3.638224948E0,1.580430984E0,7.550167084E0,3.297766924E0
3.640726250E0,1.403164029E0,7.473511219E0,3.110918045E0
3.643227500E0,1.379209042E0,7.339363098E0,3.177992105E0
3.645728750E0,1.542103052E0,7.262707233E0,3.340886116E0
3.648230052E0,1.537312031E0,7.444765091E0,3.355258942E0
3.650731302E0,1.527729988E0,7.684315205E0,3.240274906E0
3.653243542E0,1.580430984E0,7.842418194E0,3.254647970E0
3.655744792E0,1.623550057E0,8.029267311E0,3.312139988E0
3.658246042E0,1.618759036E0,8.129878044E0,3.240274906E0
3.660747292E0,1.681041956E0,8.129878044E0,3.269021034E0
3.663248594E0,1.877472997E0,8.259235382E0,3.302557945E0
3.665749844E0,2.102649927E0,8.465248108E0,3.288184881E0
3.668251094E0,2.184097052E0,8.628142357E0,3.240274906E0
3.670752396E0,2.260752916E0,8.781454086E0,3.206737995E0
3.673253646E0,2.342200041E0,8.953929901E0,3.110918045E0
3.675754896E0,2.351782084E0,9.155152321E0,3.034261942E0
3.678256198E0,2.380527973E0,9.370746613E0,3.019889116E0
3.680757448E0,2.418855906E0,9.600714684E0,2.957606077E0
3.683271459E0,2.476347923E0,9.758817673E0,2.938441992E0
3.685772709E0,2.481138945E0,9.945667267E0,2.948024035E0
3.688273959E0,2.586540937E0,1.010856056E1,2.948024035E0
3.690775209E0,2.696733952E0,1.019479942E1,2.948024035E0
3.693276511E0,2.605705023E0,1.024270916E1,2.914486885E0
3.695777761E0,2.543421984E0,1.026187325E1,2.861785889E0
3.698279011E0,2.620078087E0,1.034331989E1,2.789921045E0
3.700780313E0,2.562586069E0,1.043914032E1,2.718055964E0
3.703281563E0,2.327826977E0,1.041997623E1,2.564743996E0
3.705782813E0,2.260752916E0,1.040081215E1,2.478506088E0
3.708284115E0,2.174515009E0,1.045830441E1,2.401849985E0
3.710785365E0,2.131396055E0,1.039122963E1,2.339566946E0
3.713297084E0,2.040366888E0,1.035769272E1,2.377895117E0
3.715798334E0,1.757698059E0,1.037206554E1,2.392267942E0
3.718299584E0,1.647505045E0,1.037685680E1,2.468924046E0
3.720800834E0,1.489402056E0,1.036727524E1,2.593489885E0
3.723302136E0,1.374418020E0,1.030020142E1,2.737220049E0
3.725803386E0,1.177986979E0,1.028582764E1,2.828248978E0
3.728304636E0,9.432280064E-1,1.024750042E1,2.938441992E0
3.730805938E0,7.851250172E-1,1.020917225E1,3.015098095E0
3.733307188E0,6.653500199E-1,1.008460617E1,3.120500088E0
3.735808438E0,4.928739965E-1,1.002711391E1,3.273812056E0
3.738309740E0,3.347710073E-1,9.969621658E0,3.374423027E0
3.740810990E0,2.245779932E-1,9.912130356E0,3.431915045E0
3.743323490E0,1.766680032E-1,9.830682755E0,3.508570910E0
3.745824740E0,2.814700082E-2,9.768400192E0,3.537317038E0
3.748325990E0,-8.683700114E-2,9.662998199E0,3.513361931E0
3.750827240E0,-1.491200030E-1,9.595924377E0,3.494198084E0
3.753328542E0,-2.114029974E-1,9.552804947E0,3.451078892E0
3.755829792E0,-2.401490062E-1,9.519268036E0,3.364840984E0
3.758331042E0,-2.497310042E-1,9.476148605E0,3.259438992E0
3.760832344E0,-2.401490062E-1,9.361165047E0,3.110918045E0
3.763333594E0,-1.730750054E-1,9.246180534E0,3.010307074E0
3.765834844E0,2.814700082E-2,9.222226143E0,3.000725031E0
3.768336146E0,1.143850014E-1,9.289299965E0,2.943233013E0
3.770837396E0,2.341600060E-1,9.308464050E0,2.837831020E0
3.773349948E0,3.395619988E-1,9.294091225E0,2.751593113E0
3.775851198E0,3.922629952E-1,9.322836876E0,2.674937010E0
3.778352448E0,5.168290138E-1,9.246180534E0,2.655772924E0
3.780853698E0,5.455750227E-1,9.198270798E0,2.540788889E0
3.783355000E0,6.557679772E-1,9.140778542E0,2.492878914E0
3.785856250E0,8.330349922E-1,9.116824150E0,2.430596113E0
3.788357500E0,9.767649770E-1,9.126405716E0,2.406641006E0
3.790858802E0,1.120494962E0,9.155152321E0,2.382685900E0
3.793360052E0,1.154031992E0,9.159942627E0,2.296447992E0
3.795861302E0,1.240270019E0,9.145569801E0,2.219791889E0
3.798362604E0,1.278597951E0,9.169525146E0,2.186254978E0
3.800863854E0,1.321717024E0,9.107241631E0,2.085644007E0
3.803375573E0,1.336089969E0,9.102451324E0,2.028151989E0
3.805876823E0,1.374418020E0,9.078495979E0,2.032943010E0
3.808378073E0,1.312134981E0,9.083287239E0,1.989824057E0
3.810879323E0,1.269016027E0,9.088077545E0,1.965868950E0
3.813380625E0,1.245061040E0,9.035376549E0,1.956287026E0
3.815881875E0,1.187569022E0,8.987466812E0,2.008987904E0
3.818383125E0,1.101330996E0,8.929974556E0,2.013778925E0
3.820884427E0,9.959290028E-1,8.915601730E0,2.076061964E0
3.823385677E0,8.234530091E-1,8.867691994E0,2.157509089E0
3.825886927E0,7.276329994E-1,8.834155083E0,2.238955975E0
3.828388229E0,6.126490235E-1,8.762290001E0,2.392267942E0
3.830889479E0,4.545460045E-1,8.723961830E0,2.545579910E0
3.833401615E0,2.629059851E-1,8.690424919E0,2.718055964E0
3.835902865E0,1.191760004E-1,8.632932663E0,2.880949974E0
3.838404115E0,-5.809099972E-2,8.604187012E0,3.034261942E0
3.840905365E0,-1.874479949E-1,8.575441360E0,3.177992105E0
3.843406667E0,-3.215959966E-1,8.498785019E0,3.393587112E0
3.845907917E0,-4.509530067E-1,8.493993759E0,3.566062927E0
3.848409167E0,-5.707280040E-1,8.508366585E0,3.738538980E0
3.850910469E0,-7.240399718E-1,8.470039368E0,3.867896080E0
3.853411719E0,-8.533970118E-1,8.474829674E0,3.992461920E0
3.855912969E0,-1.088155985E0,8.532321930E0,4.083490849E0
3.858414271E0,-1.212721944E0,8.585022926E0,4.227221012E0
3.860915521E0,-1.375615954E0,8.570650101E0,4.294294834E0
3.863429063E0,-1.538509965E0,8.652096748E0,4.337413788E0
3.865930313E0,-1.687031031E0,8.695216179E0,4.390114784E0
3.868431563E0,-1.873880029E0,8.704797745E0,4.399696827E0
3.870932813E0,-2.008028030E0,8.786245346E0,4.414070129E0
3.873434115E0,-2.156548977E0,8.886856079E0,4.433234215E0
3.875935365E0,-2.266741991E0,8.896437645E0,4.414070129E0
3.878436615E0,-2.410471916E0,8.949138641E0,4.332623005E0
3.880937917E0,-2.525455952E0,9.035376549E0,4.236803055E0
3.883439167E0,-2.578156948E0,9.054540634E0,4.121819019E0
3.885940417E0,-2.702723026E0,9.121615410E0,4.002044201E0
3.888441719E0,-2.784169912E0,9.183897972E0,3.882268906E0
3.890942969E0,-2.875199080E0,9.203062057E0,3.705002069E0
3.893460052E0,-2.951854944E0,9.250971794E0,3.556480885E0
3.895961302E0,-3.062047958E0,9.294091225E0,3.460660934E0
3.898462552E0,-3.186614037E0,9.284508705E0,3.379214048E0
3.900963802E0,-3.220150948E0,9.236598969E0,3.288184881E0
3.903465104E0,-3.263269901E0,9.198270798E0,3.259438992E0
3.905966354E0,-3.292016029E0,9.145569801E0,3.158828020E0
3.908467604E0,-3.378253937E0,9.131196976E0,3.149245977E0
3.910968907E0,-3.407000065E0,8.992258072E0,3.115709066E0
3.913470157E0,-3.392627001E0,8.882064819E0,3.019889116E0
3.915971407E0,-3.392627001E0,8.767081261E0,2.981560946E0
3.918472709E0,-3.359090090E0,8.594605446E0,2.900114059E0
3.920973959E0,-3.315970898E0,8.436502457E0,2.813875914E0
3.923483177E0,-3.292016029E0,8.335890770E0,2.756383896E0
3.925984427E0,-3.268060923E0,8.182579041E0,2.665354967E0
3.928485677E0,-3.205777884E0,8.024476051E0,2.583908081E0
3.930986927E0,-3.100375891E0,7.947820187E0,2.483297110E0
3.933488229E0,-3.023720026E0,7.866373062E0,2.353940010E0
3.935989479E0,-2.913527012E0,7.780135155E0,2.301239014E0
3.938490729E0,-2.889571905E0,7.760971069E0,2.248538017E0
3.940992032E0,-2.798542976E0,7.746597767E0,2.267702103E0
3.943493282E0,-2.707514048E0,7.746597767E0,2.296447992E0
3.945994532E0,-2.650022030E0,7.708270073E0,2.291656971E0
3.948495834E0,-2.477545977E0,7.713060856E0,2.416223049E0
3.950997084E0,-2.348189116E0,7.780135155E0,2.492878914E0
3.953506875E0,-2.214040995E0,7.818462849E0,2.650981903E0
3.956008125E0,-2.051146984E0,7.861581802E0,2.804294109E0
3.958509375E0,-1.907417059E0,7.880745888E0,2.919277906E0
3.961010625E0,-1.787642002E0,7.890327930E0,3.019889116E0
3.963511927E0,-1.749313951E0,7.895119190E0,3.125291109E0
3.966013177E0,-1.734941006E0,8.000520706E0,3.283394098E0
3.968514427E0,-1.715777040E0,8.201743126E0,3.431915045E0
3.971015729E0,-1.576838017E0,8.321517944E0,3.537317038E0
3.973516979E0,-1.428316951E0,8.527530670E0,3.561271906E0
3.976018229E0,-1.265423059E0,8.628142357E0,3.508570910E0
3.978519532E0,-1.116901994E0,8.805409431E0,3.407959938E0
3.981020782E0,-1.006708980E0,8.992258072E0,3.264230013E0
3.983533021E0,-8.965160251E-1,9.250971794E0,3.115709066E0
3.986034271E0,-8.725609779E-1,9.562387466E0,2.986351967E0
3.988535521E0,-8.294420242E-1,9.869010925E0,2.880949974E0
3.991036771E0,-8.725609779E-1,1.012772465E1,2.804294109E0
3.993538073E0,-9.492170215E-1,1.030978298E1,2.794712067E0
3.996039323E0,-1.045037031E0,1.049663162E1,2.837831020E0
3.998540573E0,-1.241467953E0,1.067389870E1,2.876158953E0
4.001041875E0,-1.409152985E0,1.080804729E1,2.895323038E0
4.003543125E0,-1.504973054E0,1.089907646E1,2.919277906E0
4.006044375E0,-1.552883029E0,1.096615028E1,2.986351967E0
4.008545677E0,-1.653494000E0,1.100447845E1,3.067799091E0
4.011046875E0,-1.648702979E0,1.100926876E1,3.163619041E0
4.013559011E0,-1.653494000E0,1.096135902E1,3.235483885E0
4.016060261E0,-1.739732027E0,1.087991238E1,3.331304073E0
4.018561511E0,-1.840342999E0,1.076492786E1,3.436706066E0
4.021062761E0,-1.940953970E0,1.057328796E1,3.479825020E0
4.023564063E0,-2.118221045E0,1.034811115E1,3.522943974E0
4.026065313E0,-2.257159948E0,1.015647125E1,3.546899080E0
4.028566563E0,-2.376935005E0,9.988785744E0,3.580435991E0
4.031067865E0,-2.491919041E0,9.873802185E0,3.575644970E0
4.033569115E0,-2.491919041E0,9.902547836E0,3.522943974E0
4.036070365E0,-2.376935005E0,9.945667267E0,3.532526016E0
4.038571667E0,-2.233205080E0,1.007981491E1,3.431915045E0
4.041072917E0,-2.070311069E0,1.038643932E1,3.407959938E0
4.043585521E0,-1.797224045E0,1.071222687E1,3.312139988E0
4.046086771E0,-1.562464952E0,1.107155228E1,3.173201084E0
4.048588021E0,-1.203140020E0,1.144045925E1,3.005516052E0
4.051089271E0,-9.156799912E-1,1.188123131E1,2.804294109E0
4.053590573E0,-6.425930262E-1,1.232679367E1,2.540788889E0
4.056091823E0,-3.599239886E-1,1.272444725E1,2.229373932E0
4.058593073E0,-9.162800014E-2,1.311730862E1,1.975450993E0
4.061094375E0,2.533240020E-1,1.346226120E1,1.678408980E0
4.063595625E0,5.982760191E-1,1.372576618E1,1.256801009E0
4.066096875E0,1.019883990E0,1.388386917E1,7.537459731E-1
4.068598177E0,1.546893954E0,1.402759933E1,1.979900002E-1
4.071099375E0,2.150559902E0,1.415695572E1,-4.008849859E-1
4.073613750E0,2.773390055E0,1.423361206E1,-9.710140228E-1
4.076115000E0,3.367474079E0,1.435338688E1,-1.469277978E0
4.078616250E0,3.961558104E0,1.457377338E1,-1.938796043E0
4.081117500E0,4.435866833E0,1.490914345E1,-2.264584064E0
4.083618802E0,4.843101978E0,1.534991455E1,-2.513715982E0
4.086120052E0,5.192844868E0,1.609251976E1,-2.571208000E0
4.088621302E0,5.614452839E0,1.673930550E1,-2.336448908E0
4.091122552E0,6.093553066E0,1.734297180E1,-1.809438944E0
4.093623854E0,6.625353813E0,1.789393616E1,-1.066833973E0
4.096125104E0,7.224228859E0,1.831554413E1,-1.182160005E-1
4.098626407E0,7.708119869E0,1.854072189E1,1.079534054E0
4.101127657E0,8.038699150E0,1.856467628E1,2.349148989E0
4.103639063E0,8.134518623E0,1.844010925E1,3.599600077E0
4.106140521E0,8.033907890E0,1.819576836E1,4.691947937E0
4.108641927E0,7.727283955E0,1.775499725E1,5.573492050E0
4.111143438E0,7.315258026E0,1.700760078E1,6.177157879E0
4.113644844E0,6.951141834E0,1.604940033E1,6.536482811E0
4.116146250E0,6.467250824E0,1.495226192E1,6.589183807E0
4.118647709E0,6.213327885E0,1.400364399E1,6.258605003E0
4.121149167E0,5.935450077E0,1.305023479E1,5.822624207E0
4.123650573E0,5.437185764E0,1.204412460E1,5.319569111E0
4.126152032E0,4.804773808E0,1.099968719E1,4.888379097E0
4.128653490E0,4.368793011E0,9.998368263E0,4.476353168E0
4.131154896E0,3.899275064E0,9.155152321E0,4.054745197E0
4.133667448E0,3.492039919E0,8.398174286E0,3.676255941E0
4.136168907E0,3.046477079E0,7.813672066E0,3.283394098E0
4.138670313E0,2.581749916E0,7.382482052E0,2.967187881E0
4.141171771E0,2.155350924E0,7.003993034E0,2.593489885E0
4.143673229E0,1.819980979E0,6.702159882E0,2.286865950E0
4.146174636E0,1.503775001E0,6.491355896E0,1.917958975E0
4.148676094E0,1.278597951E0,6.270969868E0,1.568215966E0
4.151177552E0,1.245061040E0,6.074539185E0,1.256801009E0
4.153678959E0,1.269016027E0,5.916436195E0,9.885050058E-1
4.156180417E0,1.245061040E0,5.633767128E0,6.579260230E-1
4.158681875E0,1.321717024E0,5.418171883E0,3.896299899E-1
4.161183282E0,1.316926003E0,5.240904808E0,8.300600201E-2
4.163652709E0,1.374418020E0,5.006145954E0,-1.852899939E-1
4.166154115E0,1.403164029E0,4.852834225E0,-3.481839895E-1
4.168655573E0,1.412745953E0,4.704312801E0,-4.248400033E-1
4.171157032E0,1.379209042E0,4.579747200E0,-4.823319912E-1
4.173658490E0,1.441491961E0,4.517464161E0,-4.535860121E-1
4.176159896E0,1.451074004E0,4.455181122E0,-3.625569940E-1
4.178661354E0,1.345672011E0,4.488718033E0,-2.571550012E-1
4.181162761E0,1.292971015E0,4.531836987E0,-1.230069995E-1
4.183664219E0,1.177986979E0,4.594120026E0,3.030500002E-2
4.186165677E0,1.024675012E0,4.709104061E0,2.459000051E-1
4.188667084E0,1.048629999E0,4.900743961E0,5.094050169E-1
4.191168542E0,1.000720024E0,5.116339207E0,7.968649864E-1
4.193713125E0,9.719740152E-1,5.384634972E0,1.041206002E0
4.196214532E0,9.096909761E-1,5.710422993E0,1.184936047E0
4.198715990E0,8.042889833E-1,6.103284836E0,1.376575947E0
4.201217448E0,7.947070003E-1,6.419490814E0,1.529888034E0
4.203718854E0,6.366040111E-1,6.922545910E0,1.649662971E0
4.206220313E0,4.305909872E-1,7.588494778E0,1.817348003E0
4.208721771E0,6.749320030E-1,7.899909973E0,1.913167953E0
4.211223177E0,9.336460233E-1,8.101132393E0,2.056898117E0
4.213724636E0,1.206732988E0,8.331100464E0,2.210210085E0
4.216226094E0,1.465446949E0,8.791035652E0,2.358731031E0
4.218727500E0,1.599594951E0,9.241390228E0,2.421014071E0
4.221228959E0,1.704996943E0,9.552804947E0,2.540788889E0
4.223757657E0,1.700206041E0,9.849846840E0,2.679728031E0
4.226259115E0,1.853518009E0,1.009418774E1,2.789921045E0
4.228760521E0,2.121814013E0,1.032415581E1,2.924068928E0
4.231261979E0,2.370945930E0,1.057807922E1,3.039052963E0
4.233763438E0,2.557795048E0,1.080325603E1,3.177992105E0
4.236264844E0,2.759016991E0,1.098052311E1,3.269021034E0
4.238766302E0,2.869210005E0,1.128714657E1,3.374423027E0
4.241267761E0,3.132714987E0,1.146441364E1,3.508570910E0
4.243769167E0,3.410593033E0,1.151711464E1,3.609181881E0
4.246270625E0,3.736381054E0,1.146920490E1,3.671464920E0
4.248772084E0,3.904066086E0,1.150753307E1,3.695420027E0
4.251273490E0,3.884902000E0,1.144045925E1,3.613972902E0
4.253781719E0,3.889693022E0,1.132068443E1,3.556480885E0
4.256283177E0,4.038214207E0,1.122007275E1,3.546899080E0
4.258784584E0,4.043004990E0,1.096135902E1,3.489407063E0
4.261286042E0,3.961558104E0,1.071222687E1,3.446288109E0
4.263787500E0,3.904066086E0,1.043434906E1,3.321722031E0
4.266288907E0,3.707634926E0,1.015647125E1,3.302557945E0
4.268790365E0,3.506412983E0,9.845055580E0,3.269021034E0
4.271291823E0,3.444129944E0,9.456985474E0,3.245065928E0
4.273793282E0,3.242908001E0,9.121615410E0,3.197155952E0
4.276294688E0,3.036895037E0,8.853319168E0,3.039052963E0
4.278796146E0,2.854836941E0,8.623351097E0,2.948024035E0
4.281297552E0,2.581749916E0,8.412547112E0,2.938441992E0
4.283807084E0,2.375736952E0,8.235280037E0,2.981560946E0
4.286308542E0,2.356573105E0,8.043640137E0,2.919277906E0
4.288809948E0,2.299081087E0,7.909492016E0,2.890532017E0
4.291311407E0,2.102649927E0,7.837626934E0,2.880949974E0
4.293812865E0,2.073904037E0,7.737016201E0,2.876158953E0
4.296314271E0,1.987666011E0,7.722642899E0,2.856995106E0
4.298815729E0,1.882264018E0,7.789717197E0,2.804294109E0
4.301317188E0,1.872681975E0,7.794507980E0,2.924068928E0
4.303818594E0,1.738533974E0,7.780135155E0,3.063008070E0
4.306320052E0,1.772071004E0,7.765761852E0,3.120500088E0
4.308821511E0,1.915801048E0,7.713060856E0,3.168410063E0
4.311322917E0,2.059530973E0,7.593286037E0,3.288184881E0
4.313802552E0,2.049948931E0,7.617240906E0,3.340886116E0
4.316303959E0,2.088277102E0,7.598076820E0,3.374423027E0
4.318805417E0,2.145768881E0,7.574121952E0,3.259438992E0
4.321306875E0,2.198470116E0,7.554957867E0,3.177992105E0
4.323808282E0,2.255961895E0,7.578913212E0,3.072590113E0
4.326309740E0,2.318244934E0,7.574121952E0,2.933650970E0
4.328811198E0,2.284708023E0,7.569331169E0,2.794712067E0
4.331312604E0,2.337409019E0,7.545375824E0,2.708473921E0
4.333814063E0,2.351782084E0,7.545375824E0,2.545579910E0
4.336315521E0,2.428437948E0,7.492674828E0,2.382685900E0
4.338816979E0,2.438019991E0,7.463929176E0,2.258120060E0
4.341318386E0,2.438019991E0,7.473511219E0,2.238955975E0
4.343862032E0,2.414064884E0,7.545375824E0,2.200628042E0
4.346363490E0,2.227216005E0,7.703478813E0,2.243746996E0
4.348864896E0,2.145768881E0,7.871163845E0,2.282074928E0
4.351366354E0,2.136187077E0,8.014893532E0,2.219791889E0
4.353867813E0,2.016412020E0,8.216115952E0,2.262911081E0
4.356369219E0,1.915801048E0,8.311936378E0,2.262911081E0
4.358870677E0,1.867890954E0,8.441292763E0,2.320403099E0
4.361372136E0,1.858309031E0,8.556277275E0,2.243746996E0
4.363873542E0,1.834354043E0,8.676052094E0,2.210210085E0
4.366375000E0,1.704996943E0,8.791035652E0,2.205419064E0
4.368876459E0,1.661877990E0,8.848527908E0,2.262911081E0
4.371377865E0,1.570848942E0,8.958721161E0,2.253329039E0
4.373885052E0,1.417536974E0,9.097660065E0,2.267702103E0
4.376386511E0,1.412745953E0,9.179106712E0,2.262911081E0
4.378887917E0,1.383999944E0,9.332419395E0,2.219791889E0
4.381389375E0,1.451074004E0,9.389910698E0,2.234164953E0
4.383890834E0,1.412745953E0,9.504895210E0,2.171881914E0
4.386392240E0,1.422327995E0,9.624670029E0,2.147927046E0
4.388893698E0,1.513357043E0,9.706116676E0,2.123971939E0
4.391395157E0,1.604385972E0,9.787564278E0,2.056898117E0
4.393896615E0,1.561267018E0,9.878593445E0,2.032943010E0
4.396398021E0,1.661877990E0,9.955248833E0,1.999405980E0
4.398899479E0,1.738533974E0,1.001753235E1,2.032943010E0
4.401400886E0,1.805608034E0,1.003190517E1,1.985033035E0
4.403911875E0,1.887055039E0,9.993577003E0,1.985033035E0
4.406413334E0,2.035576105E0,9.998368263E0,2.085644007E0
4.408914740E0,2.117022991E0,9.955248833E0,2.133553982E0
4.411416198E0,2.227216005E0,9.873802185E0,2.219791889E0
4.413917657E0,2.265543938E0,9.830682755E0,2.401849985E0
4.416419063E0,2.332617998E0,9.734863281E0,2.516834021E0
4.418920521E0,2.428437948E0,9.605505943E0,2.617444992E0
4.421421979E0,2.495512009E0,9.485731125E0,2.732429028E0
4.423923386E0,2.610496044E0,9.385120392E0,2.842622042E0
4.426424844E0,2.687151909E0,9.265344620E0,2.866576910E0
4.428926302E0,2.749434948E0,9.203062057E0,2.919277906E0
4.431427709E0,2.725480080E0,9.140778542E0,2.924068928E0
4.433906771E0,2.811717987E0,9.016213417E0,2.971978903E0
4.436408177E0,2.869210005E0,8.968302727E0,3.010307074E0
4.438909636E0,2.950656891E0,8.997049332E0,3.029470921E0
4.441411094E0,3.022521973E0,8.925184250E0,3.010307074E0
4.443912500E0,3.060849905E0,8.882064819E0,3.005516052E0
4.446413959E0,3.075222969E0,8.934765816E0,2.995934010E0
4.448915417E0,3.156670094E0,8.939557076E0,2.986351967E0
4.451416823E0,3.194998026E0,8.953929901E0,3.010307074E0
4.453918282E0,3.223743916E0,8.934765816E0,3.053426027E0
4.456419740E0,3.156670094E0,8.992258072E0,3.005516052E0
4.458921146E0,3.094387054E0,9.021003723E0,3.005516052E0
4.461422604E0,3.113550901E0,9.049750328E0,2.991142988E0
4.463964167E0,3.080013990E0,9.150361061E0,2.971978903E0
4.466465625E0,2.988985062E0,9.198270798E0,2.981560946E0
4.468967032E0,2.965029955E0,9.222226143E0,2.938441992E0
4.471468490E0,2.945866108E0,9.313255310E0,2.900114059E0
4.473969948E0,2.869210005E0,9.365956306E0,2.852204084E0
4.476471354E0,2.826091051E0,9.423447609E0,2.809084892E0
4.478972813E0,2.773390055E0,9.399493217E0,2.785130024E0
4.481474271E0,2.754225969E0,9.399493217E0,2.751593113E0
4.483975677E0,2.682360888E0,9.365956306E0,2.708473921E0
4.486477136E0,2.572168112E0,9.365956306E0,2.655772924E0
4.488978594E0,2.500303030E0,9.409074783E0,2.555161953E0
4.491480000E0,2.481138945E0,9.351582527E0,2.526416063E0
4.493973021E0,2.394901037E0,9.260554314E0,2.416223049E0
4.496474427E0,2.346991062E0,9.227017403E0,2.349148989E0
4.498975886E0,2.356573105E0,9.183897972E0,2.229373932E0
4.501477344E0,2.265543938E0,9.188689232E0,2.104808092E0
4.503978750E0,2.212842941E0,9.198270798E0,1.999405980E0
4.506480209E0,2.222424984E0,9.198270798E0,1.927541018E0
4.508981667E0,2.174515009E0,9.203062057E0,1.898795009E0
4.511483073E0,2.260752916E0,9.140778542E0,1.874840021E0
4.513984532E0,2.356573105E0,9.054540634E0,1.846094012E0
4.516485990E0,2.236798048E0,9.011422157E0,1.812556982E0
4.518987396E0,2.179306030E0,9.135988235E0,1.774229050E0
4.521488854E0,2.270334959E0,9.059331894E0,1.798184037E0
4.524018646E0,2.461975098E0,9.040167809E0,1.836511970E0
4.526520104E0,2.351782084E0,9.116824150E0,1.831720948E0
4.529021511E0,2.313453913E0,9.207853317E0,1.817348003E0
4.531522969E0,2.519467115E0,9.188689232E0,1.860466957E0
4.534024427E0,2.677570105E0,9.193479538E0,1.860466957E0
4.536525886E0,2.782972097E0,9.145569801E0,1.913167953E0
4.539027292E0,2.749434948E0,9.174316406E0,2.042525053E0
4.541528750E0,2.749434948E0,9.188689232E0,2.114389896E0
4.544030157E0,2.763808012E0,9.260554314E0,2.215001106E0
4.546531615E0,2.893165112E0,9.179106712E0,2.320403099E0
4.549033073E0,2.941075087E0,9.135988235E0,2.416223049E0
4.551534479E0,2.950656891E0,9.155152321E0,2.550370932E0
4.554038959E0,3.008148909E0,9.116824150E0,2.689310074E0
4.556540417E0,3.060849905E0,9.021003723E0,2.813875914E0
4.559041823E0,3.113550901E0,8.992258072E0,2.957606077E0
4.561543282E0,3.132714987E0,8.915601730E0,3.086962938E0
4.564044740E0,3.080013990E0,8.882064819E0,3.187573910E0
4.566546146E0,3.089596033E0,8.795826912E0,3.364840984E0
4.569047604E0,3.075222969E0,8.700007439E0,3.522943974E0
4.571549063E0,3.036895037E0,8.661679268E0,3.580435991E0
4.574050469E0,3.051268101E0,8.585022926E0,3.685837984E0
4.576551927E0,2.955447912E0,8.527530670E0,3.810404062E0
4.579053386E0,2.883583069E0,8.517949104E0,3.872687101E0
4.581554792E0,2.792553902E0,8.470039368E0,3.963716030E0
4.584071719E0,2.720689058E0,8.465248108E0,3.992461920E0
4.586573177E0,2.677570105E0,8.393383026E0,4.021207809E0
4.589074584E0,2.720689058E0,8.259235382E0,4.011625767E0
4.591576042E0,2.720689058E0,8.158623695E0,3.982880116E0
4.594077500E0,2.581749916E0,8.101132393E0,3.939760923E0
4.596578907E0,2.505094051E0,8.010103226E0,3.901432991E0
4.599080365E0,2.375736952E0,7.962193012E0,3.724165916E0
4.601581823E0,2.332617998E0,7.856791019E0,3.618763924E0
4.604083229E0,2.361363888E0,7.760971069E0,3.436706066E0
4.606584688E0,2.303872108E0,7.650777817E0,3.336095095E0
4.609086146E0,2.222424984E0,7.598076820E0,3.182782888E0
4.611587552E0,2.174515009E0,7.516630173E0,3.010307074E0
4.614093386E0,2.102649927E0,7.459137917E0,2.900114059E0
4.616595052E0,2.102649927E0,7.416018963E0,2.713264942E0
4.619096615E0,2.040366888E0,7.392064095E0,2.569535017E0
4.621598229E0,2.136187077E0,7.310616970E0,2.507251978E0
4.624099844E0,2.150559902E0,7.243543148E0,2.397058964E0
4.626601407E0,2.136187077E0,7.248333931E0,2.253329039E0
4.629103021E0,2.188888073E0,7.200424194E0,2.186254978E0
4.631604636E0,2.208051920E0,7.171678066E0,2.143136024E0
4.634106198E0,2.184097052E0,7.152513981E0,2.076061964E0
4.636607813E0,2.260752916E0,7.138141155E0,2.032943010E0
4.639109427E0,2.289499044E0,7.181260109E0,1.917958975E0
4.641611042E0,2.265543938E0,7.147723198E0,1.922749996E0
4.644085417E0,2.294290066E0,7.157304764E0,1.922749996E0
4.646587032E0,2.299081087E0,7.118977070E0,1.946704984E0
4.649088594E0,2.313453913E0,7.157304764E0,1.903586030E0
4.651590209E0,2.284708023E0,7.243543148E0,1.879631042E0
4.654091823E0,2.299081087E0,7.277080059E0,1.927541018E0
4.656593386E0,2.380527973E0,7.257915974E0,1.932332039E0
4.659095000E0,2.375736952E0,7.348945141E0,1.917958975E0
4.661596615E0,2.318244934E0,7.449555874E0,1.932332039E0
4.664098177E0,2.361363888E0,7.521420956E0,1.894003987E0
4.666599792E0,2.476347923E0,7.598076820E0,1.932332039E0
4.669101407E0,2.586540937E0,7.741806984E0,1.989824057E0
4.671603021E0,2.648823977E0,7.794507980E0,2.013778925E0
4.674143959E0,2.715898037E0,7.923864841E0,2.100017071E0
4.676645573E0,2.869210005E0,8.019684792E0,2.157509089E0
4.679147188E0,3.051268101E0,8.048431396E0,2.267702103E0
4.681648750E0,3.194998026E0,8.115505219E0,2.291656971E0
4.684150365E0,3.338727951E0,8.177787781E0,2.392267942E0
4.686651979E0,3.429757118E0,8.273608208E0,2.435386896E0
4.689153594E0,3.544740915E0,8.331100464E0,2.555161953E0
4.691655157E0,3.674098015E0,8.350263596E0,2.660563946E0
4.694156719E0,3.798664093E0,8.431711197E0,2.799503088E0
4.696658386E0,3.928020954E0,8.522740364E0,2.900114059E0
4.699159948E0,4.014258862E0,8.575441360E0,2.976769924E0
4.701661563E0,4.177153111E0,8.647306442E0,3.091753960E0
4.704178542E0,4.282555103E0,8.666469574E0,3.134872913E0
4.706680157E0,4.392747879E0,8.728753090E0,3.211529016E0
4.709181771E0,4.526896000E0,8.781454086E0,3.316931009E0
4.711683334E0,4.708953857E0,8.700007439E0,3.345676899E0
4.714184948E0,4.771236897E0,8.704797745E0,3.388796091E0
4.716686563E0,4.790400982E0,8.642515182E0,3.388796091E0
4.719188177E0,4.718535900E0,8.647306442E0,3.427124023E0
4.721689740E0,4.613133907E0,8.642515182E0,3.417541981E0
4.724191354E0,4.411911964E0,8.580231667E0,3.422333002E0
4.726692969E0,4.244226933E0,8.632932663E0,3.403168917E0
4.729194532E0,4.114870071E0,8.628142357E0,3.297766924E0
4.731696146E0,4.014258862E0,8.575441360E0,3.235483885E0
4.734168802E0,3.894484043E0,8.561067581E0,3.182782888E0
4.736670417E0,3.779500008E0,8.594605446E0,3.125291109E0
4.739171979E0,3.669306993E0,8.551486015E0,3.101336002E0
4.741673594E0,3.573487043E0,8.517949104E0,2.957606077E0
4.744175209E0,3.424966097E0,8.556277275E0,2.962397099E0
4.746676771E0,3.300400019E0,8.527530670E0,3.039052963E0
4.749178386E0,3.295608997E0,8.513157845E0,2.909696102E0
4.751680000E0,3.194998026E0,8.565858841E0,2.818666935E0
4.754181563E0,3.113550901E0,8.632932663E0,2.660563946E0
4.756683177E0,3.008148909E0,8.690424919E0,2.550370932E0
4.759184792E0,2.974611998E0,8.747917175E0,2.377895117E0
4.761686407E0,2.960238934E0,8.800618172E0,2.104808092E0
4.764229011E0,2.897955894E0,8.819782257E0,1.812556982E0
4.766730625E0,2.907537937E0,8.829363823E0,1.515514970E0
4.769232240E0,2.826091051E0,8.910811424E0,1.252009988E0
4.771733802E0,2.739852905E0,9.035376549E0,9.837139845E-1
4.774235417E0,2.629659891E0,9.183897972E0,7.297909856E-1
4.776737032E0,2.576958895E0,9.370746613E0,4.758679867E-1
4.779238646E0,2.572168112E0,9.600714684E0,3.033919930E-1
4.781740209E0,2.596122980E0,9.749236107E0,1.596619934E-1
4.784241823E0,2.663197041E0,9.845055580E0,1.021699980E-1
4.786743438E0,2.687151909E0,9.821101189E0,7.342399657E-2
4.789245000E0,2.754225969E0,1.022354507E1,1.644529998E-1
4.791746615E0,3.118341923E0,1.065952587E1,2.554819882E-1
4.794237761E0,3.525577068E0,1.129672909E1,4.375399947E-1
4.796739427E0,3.928020954E0,1.195309639E1,7.058359981E-1
4.799240990E0,4.282555103E0,1.227409267E1,9.789230227E-1
4.801742604E0,4.603551865E0,1.248489666E1,1.371785045E0
4.804244219E0,5.077860832E0,1.296399689E1,1.927541018E0
4.806745782E0,5.552169800E0,1.356287193E1,2.406641006E0
4.809247396E0,5.954614162E0,1.388866043E1,2.866576910E0
4.811749011E0,6.127089977E0,1.403718090E1,3.436706066E0
4.814250573E0,6.141462803E0,1.419528389E1,3.911015034E0
4.816752188E0,6.170208931E0,1.415216541E1,4.294294834E0
4.819253802E0,6.055224895E0,1.407550907E1,4.605710030E0
4.821755417E0,5.825256824E0,1.400843525E1,4.878797054E0
4.824282188E0,5.595289230E0,1.396052456E1,4.816514015E0
4.826783802E0,5.370111942E0,1.389824200E1,4.620082855E0
4.829285417E0,4.958086014E0,1.375451183E1,4.308668137E0
4.831786979E0,4.383165836E0,1.374013901E1,3.819986105E0
4.834288594E0,4.004676819E0,1.375451183E1,3.130081892E0
4.836790209E0,3.755544901E0,1.370181084E1,2.377895117E0
4.839291771E0,3.381846905E0,1.371139336E1,1.659245014E0
4.841793386E0,2.960238934E0,1.382158566E1,8.351929784E-1
4.844295000E0,2.284708023E0,1.397968864E1,-3.231999930E-3
4.846796615E0,1.920591950E0,1.422882080E1,-6.643900275E-1
4.849298177E0,1.498983979E0,1.447795296E1,-1.478860021E0
4.851799792E0,1.144449949E0,1.458814621E1,-1.905259013E0
4.854272032E0,9.767649770E-1,1.475104046E1,-1.445322990E0
4.856773646E0,9.192730188E-1,1.499538136E1,-1.315966010E0
4.859275209E0,5.886939764E-1,1.515348434E1,-1.320757031E0
4.861776823E0,4.593369961E-1,1.514390182E1,-1.191400051E0
4.864278438E0,4.449639916E-1,1.493309784E1,-1.009341955E0
4.866780000E0,4.305909872E-1,1.456419086E1,-8.368660212E-1
4.869281615E0,4.257999957E-1,1.408509064E1,-7.123000026E-1
4.871783229E0,4.545460045E-1,1.348621559E1,-6.931359768E-1
4.874284792E0,6.270220280E-1,1.266216373E1,-6.691809893E-1
4.876786407E0,8.857359886E-1,1.179499340E1,-5.973160267E-1
4.879288021E0,1.182778001E0,1.087032986E1,-6.260619760E-1
4.881789636E0,1.292971015E0,1.009418774E1,-6.595990062E-1
4.884333073E0,1.383999944E0,9.380329132E0,-6.212710142E-1
4.886834688E0,1.307343960E0,8.838946342E0,-5.973160267E-1
4.889336302E0,1.249851942E0,8.355054855E0,-5.062869787E-1
4.891837865E0,1.158823013E0,7.871163845E0,-4.200490117E-1
4.894339479E0,1.096539974E0,7.535793781E0,-2.044540048E-1
4.896841094E0,9.671829939E-1,7.238751888E0,1.596619934E-1
4.899342709E0,9.384369850E-1,7.018365860E0,3.896299899E-1
4.901844271E0,9.288550019E-1,6.841098785E0,6.291800141E-1
4.904345886E0,9.432280064E-1,6.716533184E0,8.783119917E-1
4.906847500E0,9.863470197E-1,6.678205013E0,1.089115977E0
4.909349063E0,1.086958051E0,6.654250145E0,1.343039036E0
4.911850677E0,1.187569022E0,6.553638935E0,1.630499005E0
4.914359219E0,1.182778001E0,6.472191811E0,1.956287026E0
4.916860834E0,1.144449949E0,6.457818985E0,2.238955975E0
4.919362448E0,1.077376008E0,6.572803020E0,2.531207085E0
4.921864011E0,8.282439709E-1,6.745278835E0,2.732429028E0
4.924365625E0,5.551570058E-1,6.860262871E0,2.904905081E0
4.926867240E0,3.970539868E-1,6.932127953E0,3.029470921E0
4.929368854E0,2.772789896E-1,7.061484814E0,3.206737995E0
4.931870417E0,1.239669994E-1,7.157304764E0,3.269021034E0
4.934372032E0,2.814700082E-2,7.291452885E0,3.134872913E0
4.936873646E0,-4.850900173E-2,7.377690792E0,2.991142988E0
4.939375209E0,-1.634930074E-1,7.387272835E0,3.010307074E0
4.941876823E0,-3.168050051E-1,7.507048130E0,3.058217049E0
4.944348698E0,-4.413709939E-1,7.703478813E0,3.015098095E0
4.946850313E0,-3.790880144E-1,7.832836151E0,2.952815056E0
4.949351875E0,-4.365800023E-1,8.053221703E0,2.847413063E0
4.951853490E0,-5.324000120E-1,8.302353859E0,2.765965939E0
4.954355104E0,-5.515639782E-1,8.527530670E0,2.593489885E0
4.956856667E0,-5.755190253E-1,9.083287239E0,2.435386896E0
4.959358282E0,-4.796989858E-1,9.294091225E0,2.315612078E0
4.961859896E0,-3.072229922E-1,9.169525146E0,2.253329039E0
4.964361459E0,-2.976410091E-1,8.915601730E0,2.147927046E0
4.966863073E0,-2.880589962E-1,8.666469574E0,2.042525053E0
4.969364688E0,-2.641040087E-1,8.517949104E0,2.152718067E0
4.971866302E0,-2.209849954E-1,8.436502457E0,2.167090893E0
4.974412344E0,-1.682839990E-1,8.287981033E0,2.133553982E0
4.976913959E0,-2.018209994E-1,8.134669304E0,2.085644007E0
4.979415573E0,-3.407599926E-1,8.292772293E0,2.052107096E0
4.981917136E0,-3.407599926E-1,8.465248108E0,2.100017071E0
4.984418750E0,-2.880589962E-1,8.546694756E0,2.123971939E0
4.986920365E0,-1.778659970E-1,8.700007439E0,1.975450993E0
4.989421979E0,1.239669994E-1,8.752708435E0,1.917958975E0
4.991923542E0,3.251889944E-1,8.862900734E0,2.008987904E0
4.994425157E0,7.036780119E-1,8.805409431E0,2.119180918E0
4.996926771E0,1.101330996E0,8.743125916E0,2.248538017E0
4.999428334E0,1.455865026E0,8.723961830E0,2.387476921E0
5.001929948E0,1.681041956E0,8.767081261E0,2.411432028E0
5.004440677E0,1.863100052E0,8.843736649E0,2.397058964E0
5.006942292E0,1.882264018E0,8.934765816E0,2.344357967E0
5.009443907E0,2.069113016E0,8.982675552E0,2.325193882E0
5.011945469E0,2.088277102E0,9.078495979E0,2.286865950E0
5.014447084E0,2.260752916E0,9.102451324E0,2.349148989E0
5.016948698E0,2.342200041E0,9.155152321E0,2.382685900E0
5.019450261E0,2.346991062E0,9.265344620E0,2.444968939E0
5.021951875E0,2.351782084E0,9.351582527E0,2.512042999E0
5.024453490E0,2.442811012E0,9.380329132E0,2.583908081E0
5.026955104E0,2.452393055E0,9.437821388E0,2.646190882E0
5.029456667E0,2.346991062E0,9.471358299E0,2.732429028E0
5.031958282E0,2.361363888E0,9.289299965E0,2.861785889E0
5.034467344E0,2.332617998E0,9.322836876E0,3.072590113E0
5.036968959E0,2.184097052E0,9.485731125E0,3.230693102E0
5.039470573E0,2.212842941E0,9.595924377E0,3.369632006E0
5.041972136E0,2.107440948E0,9.801937103E0,3.427124023E0
5.044473750E0,1.987666011E0,9.897756577E0,3.489407063E0
5.046975365E0,1.719370008E0,9.974412918E0,3.484616041E0
5.049476979E0,1.728952050E0,1.003669643E1,3.613972902E0
5.051978542E0,1.556475997E0,1.009418774E1,3.666673899E0
5.054480157E0,1.369626999E0,1.014209843E1,3.843940973E0
5.056981771E0,1.134868026E0,1.028103733E1,3.839149952E0
5.059483334E0,1.058212042E0,1.043914032E1,3.877477884E0
5.061984948E0,8.330349922E-1,1.060682487E1,3.944551945E0
5.064491407E0,6.893050075E-1,1.073139095E1,3.973298073E0
5.066993021E0,5.503659844E-1,1.082242012E1,4.011625767E0
5.069494636E0,4.449639916E-1,1.090386677E1,4.064326763E0
5.071996198E0,3.347710073E-1,1.101406002E1,4.073908806E0
5.074497813E0,2.437420040E-1,1.111467075E1,4.054745197E0
5.076999427E0,9.522099793E-2,1.122007275E1,4.025999069E0
5.079501042E0,1.377400011E-2,1.131110191E1,3.973298073E0
5.082002604E0,-1.107920036E-1,1.147878742E1,3.925388098E0
5.084504219E0,-1.299560070E-1,1.156502533E1,3.877477884E0
5.087005834E0,-1.826570034E-1,1.153148842E1,3.762494087E0
5.089507396E0,-1.874479949E-1,1.152190590E1,3.709793091E0
5.092009011E0,-2.018209994E-1,1.147399616E1,3.513361931E0
5.094490209E0,-2.449399978E-1,1.141650391E1,3.345676899E0
5.096991875E0,-2.449399978E-1,1.132547474E1,3.144454956E0
5.099493438E0,-2.497310042E-1,1.122486401E1,2.967187881E0
5.101995052E0,-2.641040087E-1,1.117216301E1,2.756383896E0
5.104496667E0,-2.641040087E-1,1.109550667E1,2.521625042E0
5.106998229E0,-3.120140135E-1,1.098531437E1,2.306030035E0
5.109499844E0,-2.832680047E-1,1.082721138E1,2.138345003E0
5.112001459E0,-2.209849954E-1,1.067389870E1,1.946704984E0
5.114503021E0,-1.347469985E-1,1.058286953E1,1.788601995E0
5.117004636E0,-7.246399671E-2,1.046309471E1,1.654453993E0
5.119506250E0,-5.390000064E-3,1.026666355E1,1.525097013E0
5.122007865E0,4.731100053E-2,1.014209843E1,1.486768961E0
5.124509063E0,1.143850014E-1,1.001274109E1,1.496351004E0
5.127010729E0,1.622949988E-1,9.849846840E0,1.472396016E0
5.129512448E0,2.149959952E-1,9.768400192E0,1.510723948E0
5.132014115E0,2.629059851E-1,9.653415680E0,1.544260979E0
5.134515834E0,3.060249984E-1,9.500103951E0,1.635290027E0
5.137017500E0,3.491440117E-1,9.394701958E0,1.702363968E0
5.139519167E0,3.635169864E-1,9.274927139E0,1.793393016E0
5.142020886E0,4.210090041E-1,9.116824150E0,1.884421945E0
5.144522552E0,4.210090041E-1,8.982675552E0,2.008987904E0
5.147024271E0,4.593369961E-1,8.834155083E0,2.162300110E0
5.149525938E0,5.120379925E-1,8.704797745E0,2.282074928E0
5.152027604E0,5.024560094E-1,8.656888008E0,2.397058964E0
5.154571875E0,5.455750227E-1,8.570650101E0,2.521625042E0
5.157073542E0,5.647389889E-1,8.431711197E0,2.679728031E0
5.159575209E0,5.407840014E-1,8.316726685E0,2.761174917E0
5.162076927E0,5.120379925E-1,8.259235382E0,2.823457956E0
5.164578594E0,4.928739965E-1,8.254444122E0,2.885740995E0
5.167080261E0,4.737100005E-1,8.144250870E0,2.971978903E0
5.169581979E0,4.641279876E-1,8.077177048E0,3.029470921E0
5.172083646E0,4.305909872E-1,8.005311966E0,3.110918045E0
5.174585365E0,4.114269912E-1,7.914282799E0,3.221111059E0
5.177087032E0,3.970539868E-1,7.904701233E0,3.302557945E0
5.179588750E0,3.683080077E-1,7.947820187E0,3.407959938E0
5.182090417E0,3.491440117E-1,7.966983795E0,3.518152952E0
5.184595938E0,3.730989993E-1,7.938238144E0,3.628345966E0
5.187097604E0,3.012340069E-1,7.971775055E0,3.728956938E0
5.189599271E0,2.820700109E-1,8.019684792E0,3.882268906E0
5.192100990E0,2.724879980E-1,7.995729923E0,3.987670898E0
5.194602709E0,2.341600060E-1,7.981357098E0,4.049953938E0
5.197104323E0,1.670860052E-1,8.005311966E0,4.126609802E0
5.199606042E0,1.143850014E-1,7.995729923E0,4.184102058E0
5.202107709E0,-5.990000209E-4,8.024476051E0,4.203266144E0
5.204609427E0,-6.288199872E-2,8.053221703E0,4.255967140E0
5.207111094E0,-1.155830026E-1,8.053221703E0,4.236803055E0
5.209612761E0,-2.209849954E-1,8.153833389E0,4.227221012E0
5.212114479E0,-2.832680047E-1,8.163414955E0,4.193684101E0
5.214595834E0,-3.263869882E-1,8.220907211E0,4.131401062E0
5.217097500E0,-3.695060015E-1,8.273608208E0,4.049953938E0
5.219599167E0,-4.796989858E-1,8.350263596E0,3.987670898E0
5.222100886E0,-5.755190253E-1,8.470039368E0,3.906224012E0
5.224602552E0,-6.378020048E-1,8.527530670E0,3.815195084E0
5.227104219E0,-7.911139727E-1,8.613768578E0,3.757703066E0
5.229605938E0,-9.348440170E-1,8.676052094E0,3.657092094E0
5.232107604E0,-1.049828053E0,8.743125916E0,3.542108059E0
5.234609323E0,-1.131275058E0,8.848527908E0,3.479825020E0
5.237111042E0,-1.265423059E0,8.939557076E0,3.403168917E0
5.239612657E0,-1.437898993E0,9.030586243E0,3.307348967E0
5.242114375E0,-1.543300986E0,9.116824150E0,3.211529016E0
5.244648959E0,-1.653494000E0,9.126405716E0,3.115709066E0
5.247150625E0,-1.763687015E0,9.193479538E0,3.024679899E0
5.249652292E0,-1.883461952E0,9.198270798E0,2.948024035E0
5.252154011E0,-1.993654966E0,9.274927139E0,2.866576910E0
5.254655677E0,-2.099056959E0,9.231807709E0,2.842622042E0
5.257157344E0,-2.146966934E0,9.198270798E0,2.794712067E0
5.259659063E0,-2.194876909E0,9.207853317E0,2.737220049E0
5.262160729E0,-2.223623037E0,9.135988235E0,2.765965939E0
5.264662448E0,-2.242786884E0,9.097660065E0,2.703682899E0
5.267164115E0,-2.247577906E0,9.021003723E0,2.727638006E0
5.269665782E0,-2.285906076E0,8.987466812E0,2.703682899E0
5.272167500E0,-2.324234009E0,8.953929901E0,2.737220049E0
5.274666407E0,-2.386517048E0,8.853319168E0,2.670145988E0
5.277168073E0,-2.391308069E0,8.843736649E0,2.684519053E0
5.279669740E0,-2.271533012E0,8.805409431E0,2.694101095E0
5.282171459E0,-2.252368927E0,8.795826912E0,2.674937010E0
5.284673125E0,-2.247577906E0,8.733544350E0,2.627027035E0
5.287174792E0,-2.218832016E0,8.642515182E0,2.603071928E0
5.289676511E0,-2.214040995E0,8.585022926E0,2.526416063E0
