"Time (s)","Gyroscope x (rad/s)","Gyroscope y (rad/s)","Gyroscope z (rad/s)"
2.149582000E-2,5.617150292E-2,-1.838643290E-2,5.643173307E-2
2.344682000E-2,5.617150292E-2,-1.838643290E-2,5.643173307E-2
2.542282000E-2,-3.353931308E-1,-3.830730021E-1,6.951646414E-3
2.740715300E-2,-3.616603315E-1,-3.983446062E-1,1.489289477E-2
2.939440300E-2,-3.750993609E-1,-4.154488444E-1,2.039068192E-2
3.138440300E-2,-3.946470320E-1,-4.209466279E-1,3.810577467E-2
3.339006900E-2,-4.190816581E-1,-4.374400079E-1,5.948605761E-2
3.538421100E-2,-4.380185008E-1,-4.527116120E-1,8.392067254E-2
3.737908600E-2,-4.416836798E-1,-4.569876790E-1,9.797056764E-2
3.937475200E-2,-4.630639553E-1,-4.716484249E-1,1.126313359E-1
4.137095200E-2,-4.826116264E-1,-4.802005589E-1,1.327898800E-1
4.336758800E-2,-4.765029848E-1,-4.820331335E-1,1.364550740E-1
4.537675400E-2,-4.777247310E-1,-4.875309467E-1,1.505049765E-1
4.737421500E-2,-4.838333726E-1,-4.850874841E-1,1.645548791E-1
4.937185700E-2,-4.752812386E-1,-4.850874841E-1,1.718852669E-1
5.136979000E-2,-4.789464474E-1,-4.814223051E-1,1.889894903E-1
5.336791500E-2,-4.789464474E-1,-4.777570963E-1,2.048719823E-1
5.536585600E-2,-4.722269177E-1,-4.740919173E-1,2.134241015E-1
5.736435600E-2,-4.667291641E-1,-4.722593129E-1,2.268631309E-1
5.936688200E-2,-4.484032094E-1,-4.667615294E-1,2.409130335E-1
6.136568200E-2,-4.453488886E-1,-4.588202834E-1,2.457999587E-1
6.336496700E-2,-4.355750084E-1,-4.527116120E-1,2.610715926E-1
6.536396700E-2,-4.227468669E-1,-4.521007836E-1,2.781758010E-1
6.736309700E-2,-4.019774199E-1,-4.380508363E-1,2.879496515E-1
6.936230500E-2,-3.989230990E-1,-4.093401730E-1,3.062756062E-1
7.136162500E-2,-3.708232939E-1,-4.081184566E-1,3.172711730E-1
7.336100900E-2,-3.469995856E-1,-3.904033899E-1,3.294884861E-1
7.536015700E-2,-3.402800262E-1,-3.806295097E-1,3.343754411E-1
7.735965700E-2,-3.091259301E-1,-3.543623090E-1,3.465927243E-1
7.935924300E-2,-2.816369534E-1,-3.311494589E-1,3.435384035E-1
8.135887600E-2,-2.681979239E-1,-3.195430040E-1,3.453710079E-1
8.336017600E-2,-2.443741858E-1,-2.951084077E-1,3.520905077E-1
8.536127600E-2,-2.229939103E-1,-2.682303190E-1,3.478144407E-1
8.736260900E-2,-2.132200748E-1,-2.608999312E-1,3.478144407E-1
8.936410900E-2,-1.942832470E-1,-2.334109992E-1,3.441492617E-1
9.136560900E-2,-1.790116131E-1,-2.126415819E-1,3.423166871E-1
9.336440900E-2,-1.753464192E-1,-1.992025524E-1,3.349862993E-1
9.536574200E-2,-1.674051881E-1,-1.717136055E-1,3.300993741E-1
9.736710800E-2,-1.478574872E-1,-1.430029422E-1,3.203255236E-1
9.936817400E-2,-1.472466290E-1,-1.362834275E-1,3.160494566E-1
1.013695400E-1,-1.423596889E-1,-1.149031445E-1,3.068864644E-1
1.033709060E-1,-1.283098012E-1,-8.497074246E-2,2.891713977E-1
1.053674390E-1,-1.264771968E-1,-7.825122774E-2,2.897822559E-1
1.073687720E-1,-1.167033613E-1,-5.076229200E-2,2.745106220E-1
1.093701380E-1,-1.032643244E-1,-3.060373850E-2,2.592389882E-1
1.113779380E-1,-1.026534587E-1,-4.336532671E-3,2.506868839E-1
1.133793040E-1,-9.654480964E-2,4.215580877E-3,2.457999587E-1
1.153808370E-1,-9.532307088E-2,1.460028999E-2,2.360261083E-1
1.173821700E-1,-8.982529491E-2,2.498499863E-2,2.207544893E-1
1.193810700E-1,-9.287961572E-2,3.231538460E-2,2.164784223E-1
1.213823700E-1,-8.738182485E-2,4.575441778E-2,2.115915120E-1
1.233834700E-1,-9.104701877E-2,5.125220492E-2,2.048719823E-1
1.253848360E-1,-9.165789187E-2,5.430652946E-2,1.999850571E-1
1.273861690E-1,-9.165789187E-2,5.736085773E-2,1.987633407E-1
1.293875350E-1,-9.165789187E-2,5.980431661E-2,1.932655424E-1
1.313888350E-1,-9.104701877E-2,6.591296941E-2,1.920438260E-1
1.333901680E-1,-9.410134703E-2,6.408037245E-2,1.926546842E-1
1.353917680E-1,-9.410134703E-2,6.591296941E-2,1.926546842E-1
1.373931340E-1,-9.471221268E-2,6.346950680E-2,1.908220798E-1
1.393944670E-1,-9.654480964E-2,5.797172338E-2,1.938764155E-1
1.413958330E-1,-1.050969213E-1,5.369566754E-2,1.926546842E-1
1.433971990E-1,-1.099838391E-1,5.003047734E-2,1.944872737E-1
1.453987650E-1,-1.105947122E-1,4.636528343E-2,2.024285346E-1
1.474000980E-1,-1.197576895E-1,4.208922759E-2,2.036502510E-1
1.494014310E-1,-1.191468164E-1,3.903489932E-2,2.122023553E-1
1.514034640E-1,-1.252554804E-1,3.292624652E-2,2.164784223E-1
1.534047970E-1,-1.356401891E-1,2.865019068E-2,2.268631309E-1
1.554061300E-1,-1.393053681E-1,2.437413484E-2,2.293065935E-1
1.574074960E-1,-1.466357559E-1,2.070894279E-2,2.439673543E-1
1.594091290E-1,-1.521335393E-1,1.643288694E-2,2.512977421E-1
1.614104620E-1,-1.649617106E-1,1.521115564E-2,2.647367716E-1
1.634118280E-1,-1.643508524E-1,8.491638117E-3,2.714563012E-1
1.654131610E-1,-1.759572923E-1,-6.713409093E-4,2.855061889E-1
1.674144940E-1,-1.765681654E-1,5.503895809E-4,2.977235019E-1
1.694158600E-1,-1.814550757E-1,-9.223454632E-3,3.026104271E-1
1.714107600E-1,-1.826768070E-1,-1.044518501E-2,3.129951358E-1
1.734117930E-1,-1.820659488E-1,-1.777556725E-2,3.221580982E-1
1.754131930E-1,-1.845093966E-1,-2.082989365E-2,3.270450532E-1
1.774145590E-1,-1.826768070E-1,-2.510595135E-2,3.392623365E-1
1.794158590E-1,-1.820659488E-1,-3.732325882E-2,3.545339704E-1
1.814172590E-1,-1.753464192E-1,-3.610152379E-2,3.606426120E-1
1.834185920E-1,-1.704595089E-1,-5.137315765E-2,3.667512834E-1
1.854199250E-1,-1.631291211E-1,-5.809267610E-2,3.734707832E-1
1.874212910E-1,-1.557987332E-1,-6.175786629E-2,3.789685667E-1
1.894225910E-1,-1.478574872E-1,-7.030998170E-2,3.881315589E-1
1.914239570E-1,-1.423596889E-1,-7.764036208E-2,3.924076259E-1
1.934257230E-1,-1.331967115E-1,-7.641863078E-2,4.009597301E-1
1.954270560E-1,-1.264771968E-1,-8.191642165E-2,4.040140808E-1
1.974283890E-1,-1.118164361E-1,-8.008382469E-2,4.174530804E-1
1.994297220E-1,-1.075403839E-1,-7.519689947E-2,4.241726100E-1
2.014310550E-1,-9.959913790E-2,-7.092084736E-2,4.296704233E-1
2.034323880E-1,-9.226875007E-2,-5.198401958E-2,4.424985647E-1
2.054337540E-1,-9.287961572E-2,-2.938200720E-2,4.528832734E-1
2.074351200E-1,-8.799269795E-2,-1.960816421E-2,4.614354074E-1
2.094364860E-1,-8.554923534E-2,5.437311716E-3,4.767070413E-1
2.114371860E-1,-7.944057882E-2,3.231538460E-2,4.895351827E-1
2.134385190E-1,-7.821884751E-2,4.575441778E-2,4.980873168E-1
2.154398520E-1,-7.577539235E-2,7.263249159E-2,5.158023834E-1
2.174411850E-1,-6.844500452E-2,1.001214236E-1,5.322957635E-1
2.194430850E-1,-7.027760148E-2,1.141713262E-1,5.396261811E-1
2.214444180E-1,-6.477981806E-2,1.404385418E-1,5.628389716E-1
2.234457510E-1,-6.111462414E-2,1.648731381E-1,5.854410529E-1
2.254470840E-1,-5.683856457E-2,1.783121824E-1,5.982692242E-1
2.274484170E-1,-5.317337811E-2,2.027467787E-1,6.239255667E-1
2.294504500E-1,-4.523212835E-2,2.271813899E-1,6.520253420E-1
2.314526160E-1,-4.034520686E-2,2.375660986E-1,6.624100208E-1
2.334542490E-1,-4.095606878E-2,2.638333142E-1,6.868446469E-1
2.354555820E-1,-3.179309145E-2,2.919331193E-1,7.143335938E-1
2.374569150E-1,-2.568444051E-2,3.041504323E-1,7.253291607E-1
2.394582810E-1,-2.324097790E-2,3.285850286E-1,7.503746152E-1
2.414596140E-1,-1.529973093E-2,3.542413712E-1,7.790853381E-1
2.434609140E-1,-3.693291219E-3,3.750107586E-1,8.077959418E-1
2.454622800E-1,1.804495929E-3,3.890607059E-1,8.200132847E-1
2.474635800E-1,1.768699288E-2,4.116626978E-1,8.401718140E-1
2.494649460E-1,3.723467886E-2,4.360973239E-1,8.646064401E-1
2.514690790E-1,4.334333539E-2,4.483146071E-1,8.719368577E-1
2.534700120E-1,6.777793914E-2,4.660297036E-1,8.853758574E-1
2.554713780E-1,9.160168469E-2,4.806904495E-1,8.988148570E-1
2.574727440E-1,1.019863933E-1,4.867991209E-1,9.018691778E-1
2.594741100E-1,1.227558106E-1,4.880208373E-1,9.091995955E-1
2.614751760E-1,1.465795636E-1,4.971838295E-1,9.165299535E-1
2.634765420E-1,1.612403244E-1,5.100119710E-1,9.201951623E-1
2.654778750E-1,1.789554209E-1,5.344465971E-1,9.226386547E-1
2.674792080E-1,1.966705024E-1,5.753745437E-1,9.354668260E-1
2.694805410E-1,2.021682858E-1,6.101939082E-1,9.415755272E-1
2.714818410E-1,2.131638676E-1,6.828868389E-1,9.482949972E-1
2.734831740E-1,2.241594344E-1,5.949223042E-1,8.927062154E-1
2.754852400E-1,2.247703075E-1,5.503290892E-1,8.597195148E-1
2.774865730E-1,2.204942405E-1,5.283379555E-1,8.016873002E-1
2.794873390E-1,2.235485911E-1,5.167315006E-1,7.528181076E-1
2.814887050E-1,2.186616510E-1,5.155097842E-1,7.357138395E-1
2.834900380E-1,1.972813755E-1,4.696948826E-1,6.941750646E-1
2.854913710E-1,1.319187880E-1,3.511870503E-1,6.275907755E-1
2.874927370E-1,8.488216996E-2,3.102590740E-1,5.823867321E-1
2.894933370E-1,5.678236857E-2,3.053721488E-1,5.640607476E-1
2.914993700E-1,1.707612723E-2,3.059830070E-1,5.463456511E-1
2.935007360E-1,-1.713232696E-2,3.200328946E-1,5.487891436E-1
2.955020690E-1,-2.568444051E-2,3.334719539E-1,5.567303300E-1
2.975034350E-1,-3.973434120E-2,3.817303181E-1,5.903279185E-1
2.995048010E-1,-2.568444051E-2,4.593101740E-1,6.501927376E-1
3.015061010E-1,-1.652146131E-2,5.020707846E-1,6.892881393E-1
3.035074670E-1,3.234776109E-2,6.126374006E-1,7.784744501E-1
3.055087670E-1,1.068733186E-1,7.293125987E-1,8.859867454E-1
3.075101000E-1,1.453578323E-1,7.879557014E-1,9.391320348E-1
3.095114660E-1,2.369876057E-1,9.125722051E-1,1.052752972E0
3.115099990E-1,3.487759531E-1,1.040243030E0,1.162097812E0
3.135112990E-1,4.061973095E-1,1.103162050E0,1.218297482E0
3.155126650E-1,5.332572460E-1,1.247326255E0,1.328253150E0
3.175139650E-1,6.578737497E-1,1.383549333E0,1.438819766E0
3.195152980E-1,7.195711732E-1,1.464183450E0,1.488910794E0
3.215168980E-1,8.521289229E-1,1.624841094E0,1.589092612E0
3.235182310E-1,9.712476134E-1,1.793439984E0,1.679500699E0
3.255195640E-1,1.089755535E0,1.977921128E0,1.768076181E0
3.275208970E-1,1.146565914E0,2.069550991E0,1.809004188E0
3.295222630E-1,1.249191284E0,2.255865097E0,1.888416648E0
3.315236290E-1,1.360368729E0,2.450731039E0,1.959887862E0
3.335249950E-1,1.415957570E0,2.550912857E0,1.995928884E0
3.355255950E-1,1.532021999E0,2.742724419E0,2.069843531E0
3.375269280E-1,1.681072950E0,2.788539410E0,2.045408964E0
3.395282940E-1,1.754376888E0,2.814806700E0,2.039911032E0
3.415296270E-1,1.873495579E0,2.958970785E0,2.052128315E0
3.435309270E-1,1.954740763E0,3.143452168E0,2.091834784E0
3.455322930E-1,1.992003441E0,3.240579605E0,2.110771418E0
3.475335930E-1,2.064085484E0,3.452549696E0,2.161473274E0
3.495349590E-1,2.131891489E0,3.701782942E0,2.193238258E0
3.515307920E-1,2.161823988E0,3.822734118E0,2.209120750E0
3.535321250E-1,2.216190815E0,4.042035103E0,2.217061996E0
3.555334580E-1,2.275444746E0,4.201470852E0,2.212175369E0
3.575347910E-1,2.310875177E0,4.259502888E0,2.208509922E0
3.595361240E-1,2.367685556E0,4.341969490E0,2.207899094E0
3.615374900E-1,2.433048010E0,4.375567436E0,2.211564302E0
3.635388560E-1,2.458093643E0,4.387784481E0,2.218894720E0
3.655402220E-1,2.529564857E0,4.396337032E0,2.232333660E0
3.675415880E-1,2.582099438E0,4.401223660E0,2.253103256E0
3.695429210E-1,2.623638153E0,4.402445316E0,2.268374681E0
3.715442870E-1,2.646240234E0,4.404277802E0,2.274483442E0
3.735456530E-1,2.665787935E0,4.409775734E0,2.286089897E0
3.755490860E-1,2.679837704E0,4.420771599E0,2.292198420E0
3.775504520E-1,2.681670427E0,4.419549942E0,2.292809248E0
3.795518180E-1,2.668842077E0,4.415273666E0,2.290365934E0
3.815531510E-1,2.643185854E0,4.395114899E0,2.283035755E0
3.835544840E-1,2.620583773E0,4.381064892E0,2.275705099E0
3.855558500E-1,2.557664871E0,4.326087475E0,2.247605562E0
3.875571830E-1,2.483139277E0,4.261335373E0,2.216451168E0
3.895584830E-1,2.433658838E0,4.228348732E0,2.201179743E0
3.915598490E-1,2.331644535E0,4.137940884E0,2.170636177E0
3.935611490E-1,2.210082293E0,4.042035103E0,2.130319357E0
3.955625150E-1,2.149606705E0,3.983391762E0,2.108328104E0
3.975638480E-1,1.989560008E0,3.823956013E0,2.035024405E0
3.995651810E-1,1.258965254E0,2.850847721E0,1.607418537E0
4.015665140E-1,8.838939071E-1,2.486772060E0,1.410719991E0
4.035679140E-1,4.685055614E-1,2.381092310E0,1.232958198E0
4.055692470E-1,3.041827977E-1,2.417744160E0,1.256781936E0
4.075706130E-1,1.429143697E-1,2.281521320E0,1.281216502E0
4.095717460E-1,4.089987278E-2,2.156904697E0,1.270220995E0
4.115730790E-1,-2.168852687E-1,1.834978819E0,1.126056790E0
4.135744120E-1,-4.820007682E-1,1.548482895E0,8.713259697E-1
4.155757780E-1,-5.840152502E-1,1.466627002E0,7.766418457E-1
4.175770780E-1,-7.654422522E-1,1.340788722E0,7.131118774E-1
4.195784110E-1,-9.041086435E-1,1.231443882E0,7.363247871E-1
4.215797440E-1,-9.651951790E-1,1.189905047E0,7.503746152E-1
4.235810770E-1,-1.076983571E0,1.104994774E0,7.650353909E-1
4.255824100E-1,-1.188161016E0,1.053071141E0,7.717549205E-1
4.275837760E-1,-1.237641096E0,1.035356045E0,7.693114877E-1
4.295850760E-1,-1.329881668E0,1.043297410E0,7.613702416E-1
4.315864090E-1,-1.406850696E0,1.094609976E0,7.375465035E-1
4.335877750E-1,-1.431285381E0,1.126985908E0,7.277726531E-1
4.355870080E-1,-1.466104746E0,1.211896062E0,6.966185570E-1
4.375883410E-1,-1.494204521E0,1.284589052E0,6.770707965E-1
4.395896740E-1,-1.499091387E0,1.318797588E0,6.679078341E-1
4.415910070E-1,-1.508865237E0,1.372553706E0,6.532470584E-1
4.435923730E-1,-1.508865237E0,1.410427332E0,6.391972303E-1
4.455937060E-1,-1.507643580E0,1.427531600E0,6.367537379E-1
4.475950390E-1,-1.496647954E0,1.460518360E0,6.257581115E-1
4.495964050E-1,-1.483208895E0,1.476400852E0,6.086539030E-1
4.515977380E-1,-1.463050365E0,1.503278971E0,5.866627693E-1
4.535991040E-1,-1.445946217E0,1.514885426E0,5.756672025E-1
4.556003040E-1,-1.414791942E0,1.537487268E0,5.493999720E-1
4.576016700E-1,-1.380583525E0,1.553980708E0,5.261871219E-1
4.596029700E-1,-1.362257600E0,1.551537275E0,5.133589506E-1
4.616043360E-1,-1.319497108E0,1.550926447E0,4.968655705E-1
4.636056690E-1,-1.271849513E0,1.549093723E0,4.809830487E-1
4.656070020E-1,-1.243138909E0,1.544817805E0,4.773178697E-1
4.676083680E-1,-1.192437053E0,1.528935194E0,4.705983698E-1
4.696099340E-1,-1.150287390E0,1.514274359E0,4.712092280E-1
4.716112340E-1,-1.126463652E0,1.509998441E0,4.742635489E-1
4.736126000E-1,-1.081259608E0,1.495948434E0,4.950329959E-1
4.756139330E-1,-1.042775035E0,1.499002814E0,5.188567638E-1
4.776152990E-1,-1.025670886E0,1.499613643E0,5.359609127E-1
4.796166650E-1,-9.969602227E-1,1.506333232E0,5.774997473E-1
4.816179980E-1,-9.731364250E-1,1.518550515E0,6.214820743E-1
4.836193310E-1,-9.590865374E-1,1.524048328E0,6.465275884E-1
4.856206640E-1,-9.413714409E-1,1.543595910E0,6.960076094E-1
4.876219970E-1,-9.273215532E-1,1.557035089E0,7.473202944E-1
4.896233300E-1,-9.163259864E-1,1.566197991E0,7.711440325E-1
4.916246960E-1,-9.138824940E-1,1.585745692E0,8.230676055E-1
4.936259960E-1,-9.010543227E-1,1.599184752E0,8.688825369E-1
4.956273290E-1,-8.967782855E-1,1.613845468E0,9.134756327E-1
4.976286950E-1,-9.034978151E-1,1.621786714E0,9.311907291E-1
4.996299950E-1,-9.059413075E-1,1.630949736E0,9.629557729E-1
5.016310610E-1,-9.065521359E-1,1.638280153E0,1.000829458E0
5.036323940E-1,-9.053303599E-1,1.638280153E0,1.013046741E0
5.056337270E-1,-9.181585908E-1,1.653551817E0,1.041146517E0
5.076350930E-1,-9.303758740E-1,1.663325548E0,1.070468068E0
5.096364260E-1,-9.419823289E-1,1.660882115E0,1.080241799E0
5.116377590E-1,-9.462583661E-1,1.663936377E0,1.103454709E0
5.136391250E-1,-9.584756494E-1,1.657216907E0,1.123613238E0
5.156406250E-1,-9.651951790E-1,1.655995250E0,1.132776260E0
5.176419580E-1,-9.682494998E-1,1.670045018E0,1.154156566E0
5.196433240E-1,-9.725255966E-1,1.677986383E0,1.160876155E0
5.216446570E-1,-9.713038206E-1,1.665158153E0,1.165763021E0
5.236459900E-1,-9.737473130E-1,1.586967349E0,1.165763021E0
5.256473560E-1,-9.554213285E-1,1.519772172E0,1.151102304E0
5.276486890E-1,-9.438148737E-1,1.507554889E0,1.137663245E0
5.296500220E-1,-9.254889488E-1,1.516717911E0,1.091848254E0
5.316514220E-1,-9.028869271E-1,1.524659157E0,1.025874853E0
5.336527550E-1,-8.784523606E-1,1.513663530E0,9.495167136E-1
5.356540880E-1,-8.692893386E-1,1.511220098E0,9.122539759E-1
5.376554540E-1,-8.515743017E-1,1.491672516E0,8.462805152E-1
5.396567540E-1,-8.363026381E-1,1.457463980E0,7.827504873E-1
5.416580870E-1,-8.363026381E-1,1.439138055E0,7.564832568E-1
5.436594200E-1,-8.356917500E-1,1.401875257E0,7.125009894E-1
5.456607860E-1,-8.472982049E-1,1.369499445E0,6.789034605E-1
5.476620860E-1,-8.521851301E-1,1.357282162E0,6.636317968E-1
5.496634860E-1,-8.699002266E-1,1.348119140E0,6.343102455E-1
5.516648190E-1,-8.772305846E-1,1.344453931E0,6.257581115E-1
5.536661520E-1,-8.845610023E-1,1.345675707E0,6.165951490E-1
5.556675180E-1,-9.016652107E-1,1.353616953E0,6.068212986E-1
5.576688510E-1,-9.120499492E-1,1.381105781E0,6.001018286E-1
5.596702170E-1,-9.163259864E-1,1.391490579E0,5.964365602E-1
5.616718500E-1,-9.230454564E-1,1.411648989E0,5.891062021E-1
5.636731830E-1,-9.340410829E-1,1.441581488E0,5.878845453E-1
5.656745160E-1,-9.364845157E-1,1.456853151E0,5.884953737E-1
5.676782820E-1,-9.450366497E-1,1.493505001E0,5.878845453E-1
5.696796480E-1,-9.389280081E-1,1.522826552E0,5.909388661E-1
5.716809810E-1,-9.432040453E-1,1.538098216E0,5.921605229E-1
5.736822810E-1,-9.352627993E-1,1.582080603E0,5.952149034E-1
5.756836140E-1,-9.151042700E-1,1.623008370E0,5.988800526E-1
5.776849470E-1,-8.961673975E-1,1.660882115E0,6.098756790E-1
5.796863130E-1,-8.802849054E-1,1.680429816E0,6.172060370E-1
5.816874790E-1,-8.527959585E-1,1.725022912E0,6.184277534E-1
5.836888450E-1,-8.082028031E-1,1.761674881E0,6.245364547E-1
5.856901780E-1,-7.862116694E-1,1.780611753E0,6.294233203E-1
5.876915110E-1,-7.348989844E-1,1.827037454E0,6.355319619E-1
5.896928770E-1,-6.848080158E-1,1.874684930E0,6.422515512E-1
5.916942100E-1,-6.548756957E-1,1.899730444E0,6.422515512E-1
5.936955430E-1,-5.913456678E-1,1.936382294E0,6.477492452E-1
5.956968760E-1,-5.290374160E-1,1.972423315E0,6.508035660E-1
5.976982090E-1,-5.113223195E-1,1.970590830E0,6.556905508E-1
5.996995420E-1,-4.758921266E-1,1.937604070E0,6.630209088E-1
6.017009420E-1,-4.642856717E-1,1.866132855E0,6.734056473E-1
6.037023080E-1,-4.746704102E-1,1.791607261E0,6.782925129E-1
6.057036080E-1,-5.046027899E-1,1.642556190E0,6.801251173E-1
6.077049740E-1,-5.363677740E-1,1.558256745E0,6.831794381E-1
6.097070070E-1,-5.583589673E-1,1.533211350E0,6.856229305E-1
6.117083400E-1,-6.053955555E-1,1.483731151E0,6.837903261E-1
6.137097060E-1,-6.634277105E-1,1.439138055E0,6.819577813E-1
6.157110390E-1,-7.019122839E-1,1.424477339E0,6.837903261E-1
6.177123720E-1,-7.892659903E-1,1.417757869E0,6.917315722E-1
6.197137380E-1,-8.729545474E-1,1.437305450E0,7.057815194E-1
6.217151040E-1,-9.572539926E-1,1.464794397E0,7.259400487E-1
6.237164370E-1,-1.004290581E0,1.478844285E0,7.332704663E-1
6.257178030E-1,-1.091033459E0,1.516717911E0,7.485420704E-1
6.277167360E-1,-1.173500299E0,1.572917461E0,7.552616000E-1
6.297180360E-1,-1.213206410E0,1.594297886E0,7.570942044E-1
6.317194020E-1,-1.290786386E0,1.648664832E0,7.613702416E-1
6.337207680E-1,-1.365922689E0,1.708529711E0,7.583159208E-1
6.357228010E-1,-1.403796434E0,1.745181561E0,7.552616000E-1
6.377241670E-1,-1.478932858E0,1.813598394E0,7.503746152E-1
6.397254670E-1,-1.541851878E0,1.857580662E0,7.460985780E-1
6.417269670E-1,-1.574838758E0,1.885069728E0,7.387681603E-1
6.437282670E-1,-1.626151323E0,1.925386667E0,7.247183323E-1
6.457296000E-1,-1.664025068E0,1.954097390E0,7.100575566E-1
6.477309330E-1,-1.685405254E0,1.964482188E0,7.051705718E-1
6.497322330E-1,-1.705563784E0,1.947988749E0,7.045597434E-1
6.517335660E-1,-1.709228992E0,1.908282638E0,7.143335938E-1
6.537348990E-1,-1.711061597E0,1.889345646E0,7.228857279E-1
6.557362320E-1,-1.707396507E0,1.830091834E0,7.418224812E-1
6.577375650E-1,-1.695179224E0,1.754955292E0,7.546507120E-1
6.597389650E-1,-1.665857673E0,1.677375436E0,7.741983533E-1
6.617404310E-1,-1.648142576E0,1.636447549E0,7.809178829E-1
6.637417640E-1,-1.614544868E0,1.567419767E0,8.010764718E-1
6.657431300E-1,-1.565675735E0,1.508165717E0,8.102394342E-1
6.677444630E-1,-1.534521580E0,1.478233457E0,8.114612103E-1
6.697450960E-1,-1.479543686E0,1.431196809E0,8.084068894E-1
6.717464620E-1,-1.421511531E0,1.388436317E0,7.998547554E-1
6.737478280E-1,-1.392189980E0,1.376218915E0,7.876374722E-1
6.757491610E-1,-1.343931675E0,1.344453931E0,7.668679953E-1
6.777505270E-1,-1.287121177E0,1.313910604E0,7.369356155E-1
6.797518600E-1,-1.260854006E0,1.298639059E0,7.247183323E-1
6.817531600E-1,-1.199767470E0,1.265652299E0,6.929532886E-1
6.837544930E-1,-1.142956972E0,1.239385128E0,6.599665880E-1
6.857558260E-1,-1.105083346E0,1.223502517E0,6.446949244E-1
6.877571590E-1,-1.037888169E0,1.192959309E0,6.104865074E-1
6.897585250E-1,-9.658060074E-1,1.160583496E0,5.738345981E-1
6.917598580E-1,-9.322084188E-1,1.142868400E0,5.548977852E-1
6.937611910E-1,-8.521851301E-1,1.104994774E0,5.194675922E-1
6.957618570E-1,-7.831573486E-1,1.062234163E0,4.767070413E-1
6.977631570E-1,-7.495597601E-1,1.040853858E0,4.565484524E-1
6.997645230E-1,-6.835862994E-1,9.919846654E-1,4.119552970E-1
7.017658890E-1,-6.310518980E-1,9.425045848E-1,3.765251040E-1
7.037672550E-1,-5.882913470E-1,8.765311241E-1,3.374297619E-1
7.057685880E-1,-5.656893253E-1,8.465987444E-1,3.172711730E-1
7.077699540E-1,-5.278156996E-1,7.965078354E-1,2.867279351E-1
7.097713200E-1,-5.094897151E-1,7.384755611E-1,2.482434213E-1
7.117726530E-1,-5.021593571E-1,7.042671442E-1,2.360261083E-1
7.137740190E-1,-5.009375811E-1,6.364611387E-1,2.170892954E-1
7.157753850E-1,-5.131549239E-1,5.656007528E-1,1.950981468E-1
7.177767180E-1,-5.272048116E-1,5.295596719E-1,1.828808486E-1
7.197780510E-1,-5.577480197E-1,4.593101740E-1,1.633331478E-1
7.217792170E-1,-5.907347798E-1,3.884498179E-1,1.388985515E-1
7.237802500E-1,-6.090607047E-1,3.627934754E-1,1.303464174E-1
7.257815830E-1,-6.542647481E-1,3.261415660E-1,1.187399849E-1
7.277829490E-1,-6.982470751E-1,3.102590740E-1,1.175182536E-1
7.297842820E-1,-7.147403955E-1,3.078156114E-1,1.205725819E-1
7.317856150E-1,-7.587227225E-1,3.151459992E-1,1.346224844E-1
7.337869480E-1,-8.057593107E-1,3.285850286E-1,1.511158496E-1
7.357883140E-1,-8.265287280E-1,3.328610957E-1,1.639440209E-1
7.377896470E-1,-8.650133014E-1,3.212546408E-1,1.883786321E-1
7.397919800E-1,-8.949456811E-1,2.980417907E-1,2.170892954E-1
7.417943130E-1,-9.022760391E-1,2.485616803E-1,2.451890856E-1
7.437956790E-1,-8.955565691E-1,2.210727334E-1,2.598498464E-1
7.457970120E-1,-8.925021887E-1,1.630405486E-1,2.812301219E-1
7.477983450E-1,-8.741762638E-1,1.129495949E-1,3.019995689E-1
7.497997110E-1,-8.644024134E-1,9.889969975E-2,3.074973524E-1
7.518010440E-1,-8.540176749E-1,6.652383506E-2,3.172711730E-1
7.538024100E-1,-8.381351829E-1,2.987192199E-2,3.184929192E-1
7.558037430E-1,-8.356917500E-1,2.131980658E-2,3.129951358E-1
7.578051090E-1,-8.161440492E-1,-1.472124178E-2,3.099407852E-1
7.598064750E-1,-7.972072363E-1,-4.648623243E-2,2.983343899E-1
7.618077750E-1,-7.813247442E-1,-6.481219828E-2,2.916148305E-1
7.638091080E-1,-7.465054393E-1,-8.619247377E-2,2.879496515E-1
7.658147410E-1,-7.135186791E-1,-9.718804806E-2,2.793975472E-1
7.678160740E-1,-6.970253587E-1,-9.902064502E-2,2.720671594E-1
7.698174070E-1,-6.615951657E-1,-1.002423763E-1,2.720671594E-1
7.718190400E-1,-6.267758012E-1,-9.291199595E-2,2.702345550E-1
7.738203400E-1,-6.047846675E-1,-8.863593638E-2,2.769540846E-1
7.758216730E-1,-5.650784373E-1,-9.169026464E-2,2.787866890E-1
7.778230390E-1,-5.302591324E-1,-8.802507073E-2,2.885605097E-1
7.798243720E-1,-5.082679987E-1,-8.619247377E-2,2.958908975E-1
7.818257380E-1,-4.752812386E-1,-8.985766768E-2,3.099407852E-1
7.838273710E-1,-4.496248960E-1,-7.397517562E-2,3.288776278E-1
7.858287370E-1,-4.141947329E-1,-6.542305648E-2,3.490361869E-1
7.878300700E-1,-4.031991661E-1,-5.381661654E-2,3.606426120E-1
7.898314030E-1,-3.824297488E-1,-3.182546794E-2,3.862989545E-1
7.918327360E-1,-3.592168689E-1,-1.166691538E-2,4.125661552E-1
7.938346020E-1,-3.512755930E-1,-8.001724258E-3,4.266160727E-1
7.958359020E-1,-3.268409967E-1,1.765461639E-2,4.528832734E-1
7.978372350E-1,-3.079041839E-1,3.781317174E-2,4.760961533E-1
7.998376010E-1,-3.060715795E-1,5.369566754E-2,4.907569289E-1
8.018380010E-1,-3.091259301E-1,8.240633458E-2,5.170240998E-1
8.038400340E-1,-3.097367883E-1,1.001214236E-1,5.420695543E-1
8.058414000E-1,-3.127911091E-1,1.105061322E-1,5.487891436E-1
8.078427660E-1,-3.207323551E-1,1.422711313E-1,5.744454265E-1
8.098440990E-1,-3.329496384E-1,1.746469885E-1,5.946040154E-1
8.118454650E-1,-3.469995856E-1,1.972489953E-1,6.001018286E-1
8.138467980E-1,-3.732667565E-1,2.406204343E-1,6.184277534E-1
8.158481310E-1,-3.989230990E-1,2.839918435E-1,6.324776411E-1
8.178494970E-1,-4.123621583E-1,3.041504323E-1,6.391972303E-1
8.198507970E-1,-4.392402172E-1,3.359154165E-1,6.495819092E-1
8.218521630E-1,-4.697834849E-1,3.670695424E-1,6.556905508E-1
8.238534960E-1,-4.734486639E-1,3.835628927E-1,6.587448716E-1
8.258505620E-1,-5.009375811E-1,4.122735560E-1,6.617991924E-1
8.278516280E-1,-5.198744535E-1,4.477037489E-1,6.581339836E-1
8.298529610E-1,-5.320917368E-1,4.794687629E-1,6.514145136E-1
8.318540270E-1,-5.351460576E-1,4.996272922E-1,6.465275884E-1
8.338553600E-1,-5.534719825E-1,5.332248807E-1,6.275907755E-1
8.358566930E-1,-5.614132881E-1,5.656007528E-1,6.062104702E-1
8.378580260E-1,-5.663001537E-1,5.759854913E-1,5.958257318E-1
8.398593590E-1,-5.699654222E-1,5.949223042E-1,5.720019937E-1
8.418606920E-1,-5.589697957E-1,6.205785871E-1,5.457348228E-1
8.438620580E-1,-5.632458329E-1,6.327958703E-1,5.329065919E-1
8.458633910E-1,-5.510285497E-1,6.450132728E-1,4.968655705E-1
8.478647240E-1,-5.327025652E-1,6.566196680E-1,4.754852951E-1
8.498660570E-1,-5.253722072E-1,6.572305560E-1,4.565484524E-1
8.518673900E-1,-5.052136779E-1,6.608957052E-1,4.229508638E-1
8.538681900E-1,-4.960506856E-1,6.718912721E-1,3.936293423E-1
8.558695230E-1,-4.893311560E-1,6.712804437E-1,3.789685667E-1
8.578708560E-1,-4.722269177E-1,6.725021601E-1,3.453710079E-1
8.598721890E-1,-4.612313509E-1,6.651717424E-1,3.142168522E-1
8.618735220E-1,-4.563444555E-1,6.621174216E-1,2.983343899E-1
8.638741880E-1,-4.569552839E-1,6.572305560E-1,2.616824508E-1
8.658755210E-1,-4.618422389E-1,6.437914968E-1,2.305283248E-1
8.678768540E-1,-4.600096345E-1,6.254655123E-1,2.152567059E-1
8.698782200E-1,-4.618422389E-1,6.181351542E-1,1.804373711E-1
8.718795200E-1,-4.685617387E-1,5.998092294E-1,1.376768053E-1
8.738808530E-1,-4.679508805E-1,5.759854913E-1,9.980316460E-2
8.758822190E-1,-4.728378057E-1,5.607138276E-1,8.147720248E-2
8.778835520E-1,-4.746704102E-1,5.265053511E-1,4.360356182E-2
8.798849180E-1,-4.801681936E-1,5.069576502E-1,3.897320246E-3
8.818862840E-1,-4.728378057E-1,4.898534417E-1,-1.320690662E-2
8.838876170E-1,-4.728378057E-1,4.532015324E-1,-4.741536081E-2
8.858889500E-1,-4.697834849E-1,4.092192352E-1,-7.062824070E-2
8.878905500E-1,-4.746704102E-1,3.823411465E-1,-8.651073277E-2
8.898919160E-1,-4.642856717E-1,3.450784087E-1,-1.127779409E-1
8.918932490E-1,-4.593987763E-1,2.955982983E-1,-1.359908134E-1
8.938946490E-1,-4.593987763E-1,2.662767768E-1,-1.524841785E-1
8.958960150E-1,-4.636748433E-1,1.948055476E-1,-1.873034984E-1
8.978973480E-1,-4.703943431E-1,1.294429600E-1,-2.221228182E-1
8.998986810E-1,-4.838333726E-1,1.013431549E-1,-2.422813773E-1
9.019000470E-1,-4.936072230E-1,4.086749628E-2,-2.838202119E-1
9.039013800E-1,-5.198744535E-1,-1.349951047E-2,-3.333002925E-1
9.059027130E-1,-5.272048116E-1,-4.098844528E-2,-3.534588516E-1
9.079040460E-1,-5.424764156E-1,-8.680333942E-2,-3.949976861E-1
9.099054120E-1,-5.589697957E-1,-1.326182336E-1,-4.359256625E-1
9.119067780E-1,-5.687436461E-1,-1.943156272E-1,-4.695232511E-1
9.139081440E-1,-5.742414594E-1,-2.254697531E-1,-4.860166013E-1
9.159095100E-1,-5.754631162E-1,-2.835019529E-1,-5.104511976E-1
9.179108760E-1,-5.681327581E-1,-3.519188464E-1,-5.287771821E-1
9.199122090E-1,-5.614132881E-1,-3.849055767E-1,-5.416053534E-1
9.219135420E-1,-5.424764156E-1,-4.600419998E-1,-5.507683158E-1
9.239148420E-1,-5.223178864E-1,-5.327349901E-1,-5.501574874E-1
9.259161750E-1,-5.094897151E-1,-5.687760115E-1,-5.477139950E-1
9.279202410E-1,-4.795573056E-1,-6.433015466E-1,-5.452705026E-1
9.299215410E-1,-4.563444555E-1,-7.080532908E-1,-5.263337493E-1
9.319235070E-1,-4.361858964E-1,-7.379857302E-1,-5.165598989E-1
9.339248730E-1,-4.074752331E-1,-7.886875272E-1,-4.890709221E-1
9.359262060E-1,-3.708232939E-1,-8.387784362E-1,-4.548624754E-1
9.379275390E-1,-3.616603315E-1,-8.619913459E-1,-4.395908415E-1
9.399289050E-1,-3.256192505E-1,-9.133040309E-1,-3.974411190E-1
9.419302380E-1,-2.907999456E-1,-9.591189027E-1,-3.565131724E-1
9.439316040E-1,-2.785826325E-1,-9.804992080E-1,-3.326894343E-1
9.459329370E-1,-2.394872755E-1,-1.017151117E0,-2.862636745E-1
9.479342700E-1,-2.071114182E-1,-1.043418288E0,-2.422813773E-1
9.499356030E-1,-1.832876801E-1,-1.056857347E0,-2.215119451E-1
9.519410690E-1,-1.429705620E-1,-1.084957123E0,-1.763079166E-1
9.539426690E-1,-1.020425931E-1,-1.101450562E0,-1.353799552E-1
9.559440020E-1,-6.539067626E-2,-1.116722226E0,-1.115562171E-1
9.579453350E-1,-4.645385593E-2,-1.120387316E0,-9.323025495E-2
9.599467010E-1,-1.102367416E-2,-1.135048151E0,-6.329785287E-2
9.619480340E-1,1.707612723E-2,-1.146654487E0,-4.680449516E-2
9.639493670E-1,2.746083587E-2,-1.150319695E0,-4.191757366E-2
9.659507330E-1,4.028900713E-2,-1.166202307E0,-3.947411478E-2
9.679520990E-1,5.372804403E-2,-1.175365210E0,-4.436103255E-2
9.699534320E-1,5.250630900E-2,-1.180252075E0,-4.619362950E-2
9.719547650E-1,6.166929007E-2,-1.191247702E0,-5.902180076E-2
9.739560980E-1,6.655621529E-2,-1.196745515E0,-6.940650940E-2
9.759574640E-1,6.411274523E-2,-1.201021552E0,-7.490430027E-2
9.779587970E-1,7.938438654E-2,-1.213238835E0,-8.223468065E-2
9.799606300E-1,9.099081904E-2,-1.221180081E0,-9.811717272E-2
9.819619960E-1,9.221255779E-2,-1.221180081E0,-1.060584262E-1
9.839633620E-1,1.129819751E-1,-1.222401857E0,-1.213300526E-1
9.859646950E-1,1.239775494E-1,-1.224234343E0,-1.402668804E-1
9.879633280E-1,1.306970716E-1,-1.221180081E0,-1.463755369E-1
9.899704940E-1,1.380274445E-1,-1.225456119E0,-1.659232229E-1
9.919719600E-1,1.465795636E-1,-1.226677895E0,-1.744753271E-1
9.939732600E-1,1.557425410E-1,-1.227288723E0,-1.732535958E-1
9.959745930E-1,1.569642574E-1,-1.234619141E0,-1.811948568E-1
9.979759260E-1,1.630729288E-1,-1.263329864E0,-1.921904236E-1
9.999773920E-1,1.740684956E-1,-1.297538161E0,-2.007425427E-1
1.001978725E0,1.783445626E-1,-1.315864205E0,-2.074620575E-1
1.003980091E0,1.923944503E-1,-1.345796585E0,-2.190684974E-1
1.005981457E0,1.948379129E-1,-1.379394174E0,-2.294532061E-1
1.007982857E0,1.942270547E-1,-1.394054890E0,-2.355618626E-1
1.009984223E0,1.826205999E-1,-1.439869881E0,-2.453356981E-1
1.011986123E0,1.740684956E-1,-1.480187058E0,-2.563312650E-1
1.013987156E0,1.636837870E-1,-1.502788901E0,-2.679377198E-1
1.015988522E0,1.496338844E-1,-1.542495251E0,-2.887071371E-1
1.017994555E0,1.361948550E-1,-1.585866690E0,-3.070330918E-1
1.019995888E0,1.288644671E-1,-1.609079599E0,-3.119200170E-1
1.021997221E0,1.074841842E-1,-1.646953106E0,-3.351328969E-1
1.024003487E0,9.771034122E-2,-1.682383299E0,-3.528479934E-1
1.026004787E0,9.465601295E-2,-1.695211530E0,-3.601783812E-1
1.028006153E0,7.877351344E-2,-1.721478701E0,-3.723956645E-1
1.030007519E0,6.594534218E-2,-1.730641723E0,-3.797260523E-1
1.032008852E0,5.372804403E-2,-1.734917760E0,-3.870564401E-1
1.034010218E0,4.456506297E-2,-1.745913386E0,-3.968302906E-1
1.036011551E0,2.562824078E-2,-1.747745991E0,-4.084367156E-1
1.038013184E0,6.080552470E-3,-1.748967648E0,-4.212648869E-1
1.040014017E0,8.524013683E-3,-1.748356819E0,-4.255409539E-1
1.042015050E0,-1.041280944E-2,-1.747745991E0,-4.414234459E-1
1.044016383E0,-3.301482275E-2,-1.742248178E0,-4.664689302E-1
1.046017749E0,-4.278866574E-2,-1.736139536E0,-4.762427807E-1
1.048019082E0,-5.500597134E-2,-1.726365566E0,-5.037316680E-1
1.050014615E0,-9.104701877E-2,-1.714148283E0,-5.348858237E-1
1.052015248E0,-1.020425931E-1,-1.707428813E0,-5.532118082E-1
1.054016581E0,-1.350293159E-1,-1.696433187E0,-5.923071504E-1
1.056017914E0,-1.845093966E-1,-1.684215903E0,-6.362894177E-1
1.058019280E0,-2.028353512E-1,-1.679329038E0,-6.533936858E-1
1.060020480E0,-2.553697526E-1,-1.669555187E0,-6.955434084E-1
1.062021813E0,-3.085150421E-1,-1.656116247E0,-7.242540121E-1
1.064023146E0,-3.341713846E-1,-1.645731449E0,-7.407474518E-1
1.066024479E0,-3.854840696E-1,-1.626794696E0,-7.706798315E-1
1.068025779E0,-4.306881130E-1,-1.613966465E0,-7.914491892E-1
1.070027112E0,-4.545118511E-1,-1.604192615E0,-8.000013232E-1
1.072023778E0,-5.015484691E-1,-1.586477518E0,-8.140512705E-1
1.074025144E0,-5.467525125E-1,-1.569373250E0,-8.116077781E-1
1.076026477E0,-5.742414594E-1,-1.569373250E0,-8.152729273E-1
1.078030177E0,-6.084498763E-1,-1.570595026E0,-7.993904948E-1
1.080031543E0,-6.530430317E-1,-1.599305630E0,-7.816753983E-1
1.082032876E0,-6.951927543E-1,-1.617631555E0,-7.682363391E-1
1.084029309E0,-7.196273804E-1,-1.634735823E0,-7.615168691E-1
1.086030709E0,-7.568901181E-1,-1.655505300E0,-7.401365638E-1
1.088032042E0,-7.825465202E-1,-1.686048627E0,-7.248649001E-1
1.090033375E0,-7.898768783E-1,-1.703763723E0,-7.205888629E-1
1.092034741E0,-8.027049899E-1,-1.724533081E0,-7.095932364E-1
1.094035807E0,-8.149223924E-1,-1.730641723E0,-7.034845948E-1
1.096037107E0,-8.210310340E-1,-1.728809118E0,-6.979868412E-1
1.098038173E0,-8.246961832E-1,-1.719035268E0,-6.900455952E-1
1.100039873E0,-8.271396756E-1,-1.689102888E0,-6.808826327E-1
1.102041506E0,-8.301939964E-1,-1.675053000E0,-6.814934611E-1
1.104042839E0,-8.265287280E-1,-1.644509792E0,-6.772174239E-1
1.106044172E0,-8.265287280E-1,-1.607857823E0,-6.766065955E-1
1.108045505E0,-8.265287280E-1,-1.585866690E0,-6.784391403E-1
1.110046838E0,-8.271396756E-1,-1.538219094E0,-6.827152371E-1
1.112048138E0,-8.228635788E-1,-1.495458603E0,-6.894347668E-1
1.114049504E0,-8.259178996E-1,-1.468580604E0,-6.949325204E-1
1.116050870E0,-8.332483172E-1,-1.427041769E0,-7.047063708E-1
1.118052636E0,-8.485199213E-1,-1.389168143E0,-7.199779749E-1
1.120053969E0,-8.631806374E-1,-1.362900853E0,-7.254757881E-1
1.122055302E0,-8.729545474E-1,-1.354348779E0,-7.383039594E-1
1.124056635E0,-8.961673975E-1,-1.329303265E0,-7.499104142E-1
1.126057935E0,-9.089956284E-1,-1.311588168E0,-7.749558687E-1
1.128059301E0,-9.163259864E-1,-1.299370885E0,-7.871731520E-1
1.130060634E0,-9.303758740E-1,-1.263329864E0,-8.079425693E-1
1.132064534E0,-9.395388365E-1,-1.233397484E0,-8.366532326E-1
1.134066600E0,-9.487018585E-1,-1.217514873E0,-8.525357842E-1
1.136068633E0,-9.541996121E-1,-1.193691134E0,-8.781920671E-1
1.138062933E0,-9.603083134E-1,-1.175365210E0,-9.075136185E-1
1.140064266E0,-9.676386714E-1,-1.166813135E0,-9.227852821E-1
1.142065632E0,-9.706929922E-1,-1.135658979E0,-9.459981322E-1
1.144067265E0,-9.670277834E-1,-1.103283048E0,-9.637132287E-1
1.146068565E0,-9.688603282E-1,-1.087400675E0,-9.704327583E-1
1.148069898E0,-9.578648210E-1,-1.059911609E0,-9.838717580E-1
1.150071231E0,-9.450366497E-1,-1.038531423E0,-9.881478548E-1
1.152072564E0,-9.334301949E-1,-1.031811833E0,-9.893695712E-1
1.154074130E0,-9.102172852E-1,-1.021427155E0,-9.826500416E-1
1.156075496E0,-8.925021887E-1,-1.014096856E0,-9.808174372E-1
1.158076829E0,-8.778414130E-1,-1.009820700E0,-9.759305716E-1
1.160077795E0,-8.521851301E-1,-1.010431528E0,-9.649349451E-1
1.162078961E0,-8.240853548E-1,-1.010431528E0,-9.545502067E-1
1.164080327E0,-7.984289527E-1,-1.007988214E0,-9.521068335E-1
1.166081660E0,-7.862116694E-1,-1.009820700E0,-9.472198486E-1
1.168083026E0,-7.691074014E-1,-1.007377267E0,-9.405003786E-1
1.170084392E0,-7.477271557E-1,-1.016540170E0,-9.307265282E-1
1.172086058E0,-7.342881560E-1,-1.023259759E0,-9.264504313E-1
1.174087424E0,-7.147403955E-1,-1.033644557E0,-9.166765809E-1
1.176088757E0,-6.976362467E-1,-1.051970482E0,-9.111788273E-1
1.178089657E0,-6.872515082E-1,-1.054413915E0,-9.069027901E-1
1.180091023E0,-6.585408449E-1,-1.061744213E0,-8.977398276E-1
1.182092389E0,-6.365497112E-1,-1.062355161E0,-8.910202384E-1
1.184093722E0,-6.157802939E-1,-1.062965989E0,-8.904094100E-1
1.186095122E0,-5.968434215E-1,-1.062965989E0,-8.843007088E-1
1.188096455E0,-5.656893253E-1,-1.069685578E0,-8.739160299E-1
1.190097755E0,-5.571371913E-1,-1.069685578E0,-8.757486343E-1
1.192096821E0,-5.272048116E-1,-1.076405048E0,-8.690291047E-1
1.194097454E0,-4.899420142E-1,-1.079459310E0,-8.629204631E-1
1.196098087E0,-4.752812386E-1,-1.073350668E0,-8.641422391E-1
1.198099453E0,-4.441271424E-1,-1.070296407E0,-8.610879183E-1
1.200100753E0,-4.013665915E-1,-1.064187765E0,-8.568118215E-1
1.202102086E0,-3.885383904E-1,-1.056857347E0,-8.500922918E-1
1.204103152E0,-3.586059809E-1,-1.039753199E0,-8.427618742E-1
1.206104485E0,-3.280627429E-1,-1.020816326E0,-8.287120461E-1
1.208105818E0,-3.121802509E-1,-1.009209871E0,-8.201599121E-1
1.210107184E0,-3.017955422E-1,-1.005544662E0,-8.134403825E-1
1.212108517E0,-2.773609459E-1,-9.890513420E-1,-7.969470024E-1
1.214109883E0,-2.633110285E-1,-9.780557156E-1,-7.835080028E-1
1.216116483E0,-2.553697526E-1,-9.695035815E-1,-7.700689435E-1
1.218117783E0,-2.437633425E-1,-9.603406191E-1,-7.547972798E-1
1.220119183E0,-2.400981486E-1,-9.597297907E-1,-7.395256758E-1
1.222120716E0,-2.352112085E-1,-9.560645819E-1,-7.315844297E-1
1.224122049E0,-2.327677608E-1,-9.487341642E-1,-7.211996913E-1
1.226123415E0,-2.236047834E-1,-9.383494854E-1,-7.059280872E-1
1.228124748E0,-2.248265147E-1,-9.310191274E-1,-7.040955424E-1
1.230126048E0,-2.217721790E-1,-9.200235605E-1,-6.992085576E-1
1.232127114E0,-2.248265147E-1,-8.907020092E-1,-6.894347668E-1
1.234128147E0,-2.284916937E-1,-8.729869127E-1,-6.888238788E-1
1.236129480E0,-2.229939103E-1,-8.400002122E-1,-6.857695580E-1
1.238130846E0,-2.242156416E-1,-8.253394365E-1,-6.906564236E-1
1.240132179E0,-2.211613208E-1,-8.167873025E-1,-6.924890876E-1
1.242133512E0,-2.144418061E-1,-8.070135117E-1,-6.955434084E-1
1.244134845E0,-2.052788287E-1,-8.027374148E-1,-6.955434084E-1
1.246136178E0,-1.771790087E-1,-8.143438697E-1,-6.918781996E-1
1.248137511E0,-1.655725837E-1,-8.125112057E-1,-6.833261251E-1
1.250138911E0,-1.356401891E-1,-8.247285485E-1,-6.729413271E-1
1.252139977E0,-9.898826480E-2,-8.345023990E-1,-6.558371782E-1
1.254141277E0,-8.127317578E-2,-8.345023990E-1,-6.466742158E-1
1.256142643E0,-4.523212835E-2,-8.418327570E-1,-6.265156269E-1
1.258143976E0,-2.809980106E-5,-8.503848910E-1,-6.045244932E-1
1.260145309E0,1.768699288E-2,-8.595478535E-1,-5.935288668E-1
1.262146642E0,6.655621529E-2,-8.711543083E-1,-5.697051287E-1
1.264147975E0,1.105385125E-1,-8.925346136E-1,-5.452705026E-1
1.266149341E0,1.331405193E-1,-9.065845013E-1,-5.287771821E-1
1.268150707E0,1.783445626E-1,-9.291865230E-1,-5.025099516E-1
1.270152007E0,2.217159867E-1,-9.530102611E-1,-4.658580720E-1
1.272153340E0,2.382093519E-1,-9.615623951E-1,-4.469212294E-1
1.274154673E0,2.779155970E-1,-9.731688499E-1,-4.188214540E-1
1.276150773E0,3.139566481E-1,-9.859970212E-1,-3.876672983E-1
1.278152139E0,3.328934610E-1,-9.927164912E-1,-3.760608435E-1
1.280153472E0,3.683236241E-1,-9.951599836E-1,-3.552914560E-1
1.282154805E0,4.006994963E-1,-9.914947748E-1,-3.381872177E-1
1.284156138E0,4.123059511E-1,-9.890513420E-1,-3.320785463E-1
1.286157471E0,4.300210178E-1,-9.737796783E-1,-3.271916509E-1
1.288158804E0,4.514012933E-1,-9.499559402E-1,-3.223047256E-1
1.290160170E0,4.691163898E-1,-9.236887097E-1,-3.155851960E-1
1.292161503E0,4.764467776E-1,-9.041410685E-1,-3.137525916E-1
1.294163136E0,4.978270829E-1,-8.693217039E-1,-3.052004874E-1
1.296164502E0,5.124878287E-1,-8.302263021E-1,-3.003135622E-1
1.298165835E0,5.210399628E-1,-8.082351685E-1,-2.984809875E-1
1.300167168E0,5.350898504E-1,-7.654746175E-1,-2.935940623E-1
1.302168668E0,5.528049469E-1,-7.269901037E-1,-2.899288535E-1
1.304170001E0,5.607461929E-1,-7.068315148E-1,-2.868745327E-1
1.306171301E0,6.065611243E-1,-7.251575589E-1,-3.015353084E-1
1.308172634E0,6.737563014E-1,-7.935743928E-1,-3.271916509E-1
1.310173967E0,6.975800395E-1,-8.094568849E-1,-3.430741131E-1
1.312175300E0,7.366754413E-1,-8.198416233E-1,-3.638435602E-1
1.314176700E0,7.672186494E-1,-7.990722060E-1,-3.711739480E-1
1.316178000E0,7.794359922E-1,-7.758592963E-1,-3.760608435E-1
1.318179300E0,8.038705587E-1,-7.214922905E-1,-3.754499853E-1
1.320180666E0,8.142552376E-1,-6.579623222E-1,-3.711739480E-1
1.322182032E0,8.313595057E-1,-6.188669205E-1,-3.711739480E-1
1.324183365E0,8.570158482E-1,-5.461739898E-1,-3.601783812E-1
1.326184698E0,8.771743774E-1,-4.563767910E-1,-3.497936726E-1
1.328186031E0,8.783960938E-1,-3.647470474E-1,-3.473501801E-1
1.330187397E0,9.022198319E-1,-2.578456104E-1,-3.296351135E-1
1.332188763E0,9.260436296E-1,-1.912612915E-1,-3.247481585E-1
1.334190663E0,9.510890841E-1,-1.252878457E-1,-3.223047256E-1
1.336191996E0,9.755237103E-1,-9.902064502E-2,-3.161960840E-1
1.338193329E0,1.014008164E0,-4.159931093E-2,-3.143634498E-1
1.340194662E0,1.057990432E0,9.102502838E-3,-3.058113754E-1
1.342195995E0,1.079370737E0,2.926105633E-2,-2.984809875E-1
1.344197328E0,1.116022706E0,7.507595420E-2,-2.752681077E-1
1.346198661E0,1.149620295E0,1.184473783E-1,-2.435030937E-1
1.348199994E0,1.172222257E0,1.367733479E-1,-2.239554077E-1
1.350201360E0,1.213761091E0,1.630405486E-1,-1.769187897E-1
1.352202660E0,1.248580456E0,1.831990927E-1,-1.323256195E-1
1.354203993E0,1.277291179E0,1.929729432E-1,-1.023932323E-1
1.356205293E0,1.324327707E0,2.058011144E-1,-4.497190192E-2
1.358206626E0,1.387246847E0,2.131315023E-1,2.833192982E-2
1.360209426E0,1.411681533E0,2.076337188E-1,5.887519196E-2
1.362210592E0,1.475211382E0,1.984707266E-1,1.321790218E-1
1.364211925E0,1.541795731E0,1.752578467E-1,2.036502510E-1
1.366213325E0,1.575393319E0,1.599862278E-1,2.396913022E-1
1.368214691E0,1.649918914E0,1.318864077E-1,3.154385984E-1
1.370216724E0,1.721390128E0,9.828882664E-2,3.905750215E-1
1.372218090E0,1.787363648E0,7.629768550E-2,4.614354074E-1
1.374219423E0,1.825237274E0,6.408037245E-2,4.925895035E-1
1.376220756E0,1.891210675E0,4.208922759E-2,5.597846508E-1
1.378222156E0,1.957795024E0,2.865019068E-2,6.257581115E-1
1.380223522E0,1.994446874E0,2.070894279E-2,6.569122672E-1
1.382224855E0,2.059198618E0,7.880772464E-3,7.137227058E-1
1.384226221E0,2.133113384E0,-1.893071458E-3,7.601485252E-1
1.386227554E0,2.159991503E0,-9.223454632E-3,7.833613753E-1
1.388228854E0,2.220467091E0,-4.947397858E-3,8.297871351E-1
1.390230187E0,2.268114567E0,-1.893071458E-3,8.584977984E-1
1.392231520E0,2.294381857E0,7.269907277E-3,8.694933653E-1
1.394232320E0,2.351192236E0,1.887634583E-2,8.933171630E-1
1.396233686E0,2.400061607E0,2.437413484E-2,9.024801254E-1
1.398235019E0,2.423885345E0,2.742846124E-2,9.030909538E-1
1.400240252E0,2.481306553E0,3.903489932E-2,9.018691778E-1
1.402243118E0,2.523456335E0,4.208922759E-2,8.957605362E-1
1.404244484E0,2.549723387E0,4.880874231E-2,8.902628422E-1
1.406245817E0,2.594927549E0,6.957816333E-2,8.774346113E-1
1.408247150E0,2.642575026E0,8.484978974E-2,8.566651940E-1
1.410248183E0,2.662733316E0,9.340190887E-2,8.413935304E-1
1.412249549E0,2.702439785E0,9.095844626E-2,8.114612103E-1
1.414250615E0,2.742756844E0,9.218017757E-2,7.693114877E-1
1.416251981E0,2.769024134E0,1.160039231E-1,7.283834815E-1
1.418254047E0,2.780630589E0,1.245560348E-1,7.002837062E-1
1.420253913E0,2.797734737E0,1.331081539E-1,6.471384168E-1
1.422255279E0,2.823391199E0,1.306646913E-1,5.982692242E-1
1.424256645E0,2.824002028E0,1.379950643E-1,5.677259564E-1
1.426257945E0,2.827667236E0,1.575427502E-1,5.103045702E-1
1.428261278E0,2.831332207E0,1.740361154E-1,4.602136612E-1
1.430261911E0,2.833775997E0,1.777013093E-1,4.345573187E-1
1.432270144E0,2.824002028E0,1.972489953E-1,3.801903129E-1
1.434271477E0,2.800789118E0,2.161858231E-1,3.374297619E-1
1.436272877E0,2.771467447E0,2.222944796E-1,3.087190986E-1
1.438274210E0,2.678005219E0,2.143532187E-1,2.421347648E-1
1.440276776E0,2.599814415E0,2.571138144E-1,1.957090050E-1
1.442278142E0,2.579655647E0,2.974309027E-1,1.773830503E-1
1.444279475E0,2.527121305E0,3.707347512E-1,1.492832452E-1
1.446280975E0,2.464202404E0,4.067757726E-1,1.175182536E-1
1.448282341E0,2.432437181E0,4.092192352E-1,1.046900898E-1
1.450283707E0,2.370739937E0,3.963910937E-1,8.086634427E-2
1.452285007E0,2.314540386E0,3.860063553E-1,4.971221462E-2
1.454286373E0,2.288273096E0,4.031105936E-1,3.138625622E-2
1.456287706E0,2.247956038E0,4.220474064E-1,-9.541714564E-3
1.458289072E0,2.233295202E0,4.208256900E-1,-5.657833815E-2
1.460286538E0,2.216190815E0,4.251017570E-1,-1.103344783E-1
1.462286338E0,2.210693121E0,4.318212569E-1,-1.433212012E-1
1.464287671E0,2.187480211E0,4.415951073E-1,-2.007425427E-1
1.466289037E0,2.144719839E0,4.898534417E-1,-2.520552278E-1
1.468292503E0,2.114787340E0,5.210075974E-1,-2.783224285E-1
1.470294136E0,2.054311752E0,6.108047366E-1,-3.253590465E-1
1.472295469E0,1.963292837E0,7.085432410E-1,-3.650652766E-1
1.474297369E0,1.913201928E0,7.641319633E-1,-3.791151643E-1
1.476298702E0,1.807522178E0,8.832506537E-1,-4.114910662E-1
1.478299335E0,1.684127450E0,1.015808463E0,-4.279844165E-1
1.480300701E0,1.621819139E0,1.083003640E0,-4.371474087E-1
1.482302034E0,1.504532933E0,1.186239839E0,-4.432560503E-1
1.484303400E0,1.395798922E0,1.290086865E0,-4.463103712E-1
1.486304766E0,1.338988543E0,1.326127887E0,-4.450886250E-1
1.488304099E0,1.251023889E0,1.403097034E0,-4.395908415E-1
1.490305432E0,1.171000600E0,1.442192435E0,-4.365365207E-1
1.492299932E0,1.137403011E0,1.451966166E0,-4.328713417E-1
1.494301332E0,1.069596887E0,1.462350965E0,-4.279844165E-1
1.496302665E0,1.010343075E0,1.455020547E0,-4.218757749E-1
1.498303998E0,9.559760094E-1,1.436083794E0,-4.139344990E-1
1.500304131E0,9.333740473E-1,1.428753257E0,-4.121018946E-1
1.502305464E0,8.936676979E-1,1.392101407E0,-4.029389322E-1
1.504306797E0,8.551832438E-1,1.356060386E0,-3.968302906E-1
1.506308030E0,8.368573189E-1,1.335901856E0,-3.937759399E-1
1.508309396E0,8.069248796E-1,1.293141246E0,-3.778934777E-1
1.510310729E0,7.690512538E-1,1.249769807E0,-3.675087690E-1
1.512312095E0,7.598882318E-1,1.233276486E0,-3.595674932E-1
1.514313428E0,7.360644937E-1,1.207620144E0,-3.467393219E-1
1.516314761E0,7.079647183E-1,1.185018063E0,-3.375763595E-1
1.518316127E0,6.926931143E-1,1.181352854E0,-3.357437551E-1
1.520317427E0,6.816974878E-1,1.169746518E0,-3.308568299E-1
1.522318793E0,6.590955257E-1,1.161805153E0,-3.333002925E-1
1.524320126E0,6.517651081E-1,1.158140063E0,-3.381872177E-1
1.526321459E0,6.328282952E-1,1.149587870E0,-3.485719264E-1
1.528321392E0,6.102262735E-1,1.143479228E0,-3.730065227E-1
1.530322792E0,5.949546695E-1,1.130040288E0,-3.846129775E-1
1.532324192E0,5.692982674E-1,1.111714244E0,-4.175997078E-1
1.534325258E0,5.393658876E-1,1.097664475E0,-4.456994832E-1
1.536326624E0,5.210399628E-1,1.088501334E0,-4.621928632E-1
1.538327957E0,4.874423444E-1,1.079338431E0,-4.909035265E-1
1.540329290E0,4.520121813E-1,1.072008014E0,-5.171707273E-1
1.542330623E0,4.061973095E-1,1.066510201E0,-5.440488458E-1
1.544331956E0,3.854278624E-1,1.064066768E0,-5.458813906E-1
1.546333289E0,3.444999158E-1,1.060401559E0,-5.745920539E-1
1.548334622E0,2.937980890E-1,1.053682089E0,-5.880311131E-1
1.550335988E0,2.791373432E-1,1.046351671E0,-5.929180384E-1
1.552336988E0,2.272137702E-1,1.029858232E0,-5.971940756E-1
1.554338288E0,1.789554209E-1,1.017641068E0,-5.929180384E-1
1.556339621E0,1.526882201E-1,1.007867217E0,-5.904745460E-1
1.558340954E0,1.007646620E-1,9.925954938E-1,-5.752029419E-1
1.560342254E0,5.800409615E-2,9.797673821E-1,-5.538226366E-1
1.562343587E0,3.723467886E-2,9.748804569E-1,-5.434378982E-1
1.564344920E0,-4.915021826E-3,9.638848901E-1,-5.226685405E-1
1.566346220E0,-3.729087859E-2,9.449480772E-1,-5.018991232E-1
1.568347553E0,-5.256251246E-2,9.308981299E-1,-4.902926683E-1
1.570349186E0,-8.554923534E-2,8.869158030E-1,-4.701341391E-1
1.572350519E0,-1.167033613E-1,8.423227072E-1,-4.524190128E-1
1.574351852E0,-1.289206743E-1,8.105576634E-1,-4.432560503E-1
1.576353218E0,-1.466357559E-1,7.170953155E-1,-4.261518121E-1
1.578354551E0,-1.460248828E-1,6.022526622E-1,-4.182105660E-1
1.580355884E0,-1.417488456E-1,5.625463724E-1,-4.163779616E-1
1.582357250E0,-1.276989430E-1,5.014598966E-1,-4.108801782E-1
1.584358616E0,-9.837740660E-2,4.483146071E-1,-4.059932530E-1
1.586359916E0,-7.638625056E-2,4.196039438E-1,-4.035497904E-1
1.588361149E0,-6.111462414E-2,4.086083770E-1,-4.023280740E-1
1.590362415E0,-2.568444051E-2,3.762325048E-1,-4.090475738E-1
1.592363715E0,1.829785667E-2,3.603500128E-1,-4.212648869E-1
1.594365048E0,4.761938751E-2,3.487435877E-1,-4.243192077E-1
1.596367614E0,1.013755351E-1,3.120916784E-1,-4.395908415E-1
1.598368947E0,1.606294513E-1,2.528377473E-1,-4.548624754E-1
1.600370313E0,1.868966669E-1,2.229053378E-1,-4.664689302E-1
1.602371413E0,2.424854040E-1,1.599862278E-1,-4.896817803E-1
1.604372746E0,3.041827977E-1,1.105061322E-1,-5.116729140E-1
1.606374112E0,3.390021026E-1,8.790411800E-2,-5.183924437E-1
1.608375478E0,4.006994963E-1,3.536970913E-2,-5.263337493E-1
1.610376778E0,4.507904649E-1,8.491638117E-3,-5.336641073E-1
1.612378411E0,4.764467776E-1,-2.503936645E-3,-5.336641073E-1
1.614379711E0,5.130987167E-1,-1.960816421E-2,-5.342749357E-1
1.616381044E0,5.381441712E-1,-3.793412074E-2,-5.373292565E-1
1.618382410E0,5.485288501E-1,-5.015142262E-2,-5.385510325E-1
1.620383776E0,5.595244765E-1,-6.908825040E-2,-5.391618609E-1
1.622385109E0,5.589135885E-1,-7.458603382E-2,-5.397727489E-1
1.624386475E0,5.540266633E-1,-7.641863078E-2,-5.428270698E-1
1.626387841E0,5.460854769E-1,-7.336430252E-2,-5.452705026E-1
1.628389174E0,5.320355296E-1,-7.092084736E-2,-5.342749357E-1
1.630390240E0,5.021030903E-1,-7.153170556E-2,-5.312206149E-1
1.632391606E0,4.917184114E-1,-6.175786629E-2,-5.336641073E-1
1.634392939E0,4.623968899E-1,-5.198401958E-2,-5.293880701E-1
1.636399739E0,4.287993312E-1,-4.037758335E-2,-5.251119733E-1
1.638401139E0,4.184145927E-1,-3.793412074E-2,-5.269445777E-1
1.640402505E0,3.805409670E-1,-3.182546794E-2,-5.269445777E-1
1.642403838E0,3.493868113E-1,-2.999287285E-2,-5.330532193E-1
1.644405171E0,3.414455950E-1,-3.182546794E-2,-5.324423909E-1
1.646406571E0,3.157892525E-1,-2.388422005E-2,-5.434378982E-1
1.648407304E0,2.962415516E-1,-2.571681514E-2,-5.501574874E-1
1.650408637E0,2.907437384E-1,-3.060373850E-2,-5.556553006E-1
1.652410003E0,2.809699178E-1,-2.877114341E-2,-5.709269047E-1
1.654411369E0,2.742503881E-1,-3.732325882E-2,-5.861985087E-1
1.656411469E0,2.711960673E-1,-4.098844528E-2,-5.935288668E-1
1.658412835E0,2.809699178E-1,-3.671238944E-2,-6.161309481E-1
1.660414168E0,2.907437384E-1,-4.831882939E-2,-6.350677609E-1
1.662415768E0,3.017393053E-1,-5.503834784E-2,-6.448415518E-1
1.664417134E0,3.206761479E-1,-6.664478779E-2,-6.723304987E-1
1.666418467E0,3.475542367E-1,-7.702949643E-2,-6.955434084E-1
1.668419800E0,3.683236241E-1,-8.741420507E-2,-7.187562585E-1
1.670421666E0,3.793192208E-1,-9.230112284E-2,-7.321953177E-1
1.672422966E0,4.031429887E-1,-1.112379506E-1,-7.621276975E-1
1.674424299E0,4.355188310E-1,-1.246769875E-1,-7.890058160E-1
1.676425632E0,4.514012933E-1,-1.265095770E-1,-7.975578904E-1
1.678426965E0,4.709489942E-1,-1.393377483E-1,-8.201599121E-1
1.680428265E0,4.880532324E-1,-1.472790092E-1,-8.439836502E-1
1.682429631E0,4.966053367E-1,-1.527767926E-1,-8.507031798E-1
1.684430964E0,5.149312615E-1,-1.558311135E-1,-8.647530675E-1
1.686432264E0,5.308137536E-1,-1.521659195E-1,-8.788029552E-1
1.688434330E0,5.387550592E-1,-1.448355466E-1,-8.806355596E-1
1.690435630E0,5.399768353E-1,-1.252878457E-1,-8.873550892E-1
1.692436963E0,5.503615141E-1,-9.963151067E-2,-8.855224848E-1
1.694438296E0,5.515831709E-1,-7.947295159E-2,-8.873550892E-1
1.696434162E0,5.583027601E-1,-5.137315765E-2,-8.861333728E-1
1.698435428E0,5.656331182E-1,-2.632768080E-2,-8.788029552E-1
1.700436794E0,5.686874390E-1,-1.472124178E-2,-8.788029552E-1
1.702438160E0,5.741852522E-1,-1.349951047E-2,-8.714725971E-1
1.704439493E0,5.839590430E-1,-1.105605066E-2,-8.647530675E-1
1.706440826E0,5.864025354E-1,-7.390858606E-3,-8.555901051E-1
1.708442159E0,5.949546695E-1,-8.001724258E-3,-8.470379710E-1
1.710443525E0,5.931220651E-1,-3.725667251E-3,-8.360424042E-1
1.712444858E0,6.028958559E-1,-1.105605066E-2,-8.219925165E-1
1.714446191E0,6.047285199E-1,-6.169127766E-3,-8.195490241E-1
1.716447791E0,6.077828407E-1,3.604715923E-3,-8.024448156E-1
1.718449124E0,6.138914824E-1,7.269907277E-3,-7.890058160E-1
1.720450424E0,6.163349748E-1,6.659042090E-3,-7.786210179E-1
1.722451757E0,6.236653328E-1,1.276769489E-2,-7.572407722E-1
1.724453057E0,6.248870492E-1,1.460028999E-2,-7.407474518E-1
1.726454390E0,6.291630864E-1,1.704375073E-2,-7.279192209E-1
1.728458456E0,6.322174072E-1,2.254153788E-2,-7.157019377E-1
1.730459289E0,6.334391236E-1,2.498499863E-2,-6.943216324E-1
1.732460622E0,6.371043921E-1,2.193067409E-2,-6.869912744E-1
1.734462022E0,6.395477653E-1,2.865019068E-2,-6.723304987E-1
1.736463388E0,6.383261085E-1,2.926105633E-2,-6.540045738E-1
1.738464688E0,6.340500712E-1,3.414798155E-2,-6.491175890E-1
1.740466088E0,6.383261085E-1,3.659143671E-2,-6.405655146E-1
1.742467388E0,6.358826160E-1,4.392182082E-2,-6.271264553E-1
1.744468721E0,6.322174072E-1,4.758701473E-2,-6.222395897E-1
1.746470121E0,6.254979372E-1,6.041518226E-2,-6.149091721E-1
1.748470754E0,6.206109524E-1,6.530211121E-2,-6.020810008E-1
1.750472087E0,6.102262735E-1,7.446508855E-2,-5.935288668E-1
1.752473453E0,6.047285199E-1,7.263249159E-2,-5.892528296E-1
1.754474786E0,5.943437815E-1,8.301720023E-2,-5.776464343E-1
1.756476119E0,5.851807594E-1,9.156931192E-2,-5.721486211E-1
1.758477485E0,5.754069686E-1,9.462363273E-2,-5.654290915E-1
1.760478818E0,5.631896257E-1,1.025648862E-1,-5.556553006E-1
1.762480084E0,5.454745293E-1,1.117278636E-1,-5.519900322E-1
1.764481417E0,5.375333428E-1,1.160039231E-1,-5.428270698E-1
1.766482717E0,5.198182464E-1,1.233343035E-1,-5.348858237E-1
1.768484083E0,4.953836203E-1,1.215017065E-1,-5.281662941E-1
1.770485416E0,4.862206280E-1,1.208908483E-1,-5.269445777E-1
1.772486716E0,4.685055614E-1,1.208908483E-1,-5.165598989E-1
1.774488049E0,4.361296892E-1,1.300538182E-1,-5.086185932E-1
1.776489115E0,4.281884432E-1,1.355516016E-1,-4.988448024E-1
1.778490415E0,4.080298841E-1,1.343298852E-1,-4.921252429E-1
1.780491781E0,3.817626536E-1,1.349407434E-1,-4.817405343E-1
1.782493114E0,3.713779747E-1,1.331081539E-1,-4.737993181E-1
1.784494680E0,3.371695280E-1,1.221125722E-1,-4.628037512E-1
1.786496013E0,3.206761479E-1,1.031757519E-1,-4.573059380E-1
1.788494613E0,3.145675063E-1,9.951055795E-2,-4.536407590E-1
1.790495979E0,2.919654846E-1,8.668238670E-2,-4.524190128E-1
1.792497645E0,2.681417465E-1,6.774556637E-2,-4.591385424E-1
1.794498945E0,2.449288666E-1,5.613912642E-2,-4.634145796E-1
1.796500278E0,2.394310832E-1,5.064133927E-2,-4.676906466E-1
1.798501678E0,2.217159867E-1,3.964576498E-2,-4.744101465E-1
1.800503011E0,2.113312632E-1,3.048278578E-2,-4.792971015E-1
1.802504344E0,2.027791589E-1,2.376326919E-2,-4.811296761E-1
1.804505710E0,1.893401295E-1,3.048278578E-2,-4.829622805E-1
1.806507010E0,1.710141748E-1,2.865019068E-2,-4.884600639E-1
1.808508343E0,1.636837870E-1,2.254153788E-2,-4.921252429E-1
1.810509743E0,1.404709071E-1,1.704375073E-2,-5.037316680E-1
1.812511043E0,1.337513924E-1,2.987192199E-2,-5.202250481E-1
1.814512409E0,1.245884076E-1,3.964576498E-2,-5.293880701E-1
1.816513742E0,1.111493781E-1,5.613912642E-2,-5.397727489E-1
1.818515042E0,9.587774426E-2,5.613912642E-2,-5.562661290E-1
1.820516375E0,8.915822953E-2,5.674999207E-2,-5.617639422E-1
1.822517741E0,7.083226740E-2,5.247393250E-2,-5.739812255E-1
1.824518841E0,5.128458142E-2,4.208922759E-2,-5.892528296E-1
1.826520207E0,4.028900713E-2,3.536970913E-2,-5.941397548E-1
1.828521573E0,2.684997208E-2,7.269907277E-3,-6.002483964E-1
1.830522906E0,1.402180083E-2,-1.166691538E-2,-5.971940756E-1
1.832524239E0,5.469687283E-3,-5.558263045E-3,-5.959723592E-1
1.834525605E0,-9.801943786E-3,-1.166691538E-2,-5.941397548E-1
1.836526971E0,-1.713232696E-2,-2.571681514E-2,-5.892528296E-1
1.838528337E0,-2.690616995E-2,-5.564921349E-2,-5.880311131E-1
1.840529703E0,-2.934963256E-2,-6.420132518E-2,-5.868093967E-1
1.842531036E0,-2.507357486E-2,-6.297959387E-2,-5.874202251E-1
1.844532169E0,-1.468886528E-2,-6.297959387E-2,-5.868093967E-1
1.846533535E0,-1.407799963E-2,-7.030998170E-2,-5.849767327E-1
1.848534868E0,2.415361116E-3,-8.435987681E-2,-5.764246583E-1
1.850536201E0,1.463266555E-2,-8.802507073E-2,-5.703160167E-1
1.852543801E0,2.562824078E-2,-8.741420507E-2,-5.697051287E-1
1.854545134E0,3.845641017E-2,-9.718804806E-2,-5.648182631E-1
1.856546500E0,6.533448398E-2,-9.840977937E-2,-5.605421662E-1
1.858547833E0,7.205399871E-2,-1.002423763E-1,-5.617639422E-1
1.860549166E0,1.056515872E-1,-1.014641002E-1,-5.642073154E-1
1.862550566E0,1.258101463E-1,-9.657718986E-2,-5.672616363E-1
1.864551899E0,1.331405193E-1,-9.291199595E-2,-5.715377331E-1
1.866553265E0,1.520773470E-1,-8.924680203E-2,-5.788680911E-1
1.868554598E0,1.600185931E-1,-8.558160812E-2,-5.886419415E-1
1.870555931E0,1.649055183E-1,-8.619247377E-2,-5.971940756E-1
1.872557297E0,1.697924286E-1,-8.619247377E-2,-6.069678664E-1
1.874558363E0,1.655163914E-1,-8.435987681E-2,-6.112439632E-1
1.876559696E0,1.532990783E-1,-8.252727985E-2,-6.259047389E-1
1.878561062E0,1.441360861E-1,-8.252727985E-2,-6.301807761E-1
1.880562428E0,1.245884076E-1,-8.008382469E-2,-6.320134401E-1
1.882563794E0,1.123711094E-1,-8.680333942E-2,-6.344568729E-1
1.884565394E0,9.465601295E-2,-8.802507073E-2,-6.356785893E-1
1.886566760E0,7.510831952E-2,-8.741420507E-2,-6.350677609E-1
1.888568060E0,5.617150292E-2,-9.902064502E-2,-6.369003057E-1
1.890573226E0,4.639765993E-2,-1.039075702E-1,-6.369003057E-1
1.892574626E0,1.890872233E-2,-1.185683385E-1,-6.314025521E-1
1.894575926E0,-1.860695425E-3,-1.234552562E-1,-6.332350969E-1
1.896577259E0,-1.163453981E-2,-1.228443906E-1,-6.356785893E-1
1.898578625E0,-4.034520686E-2,-1.258987188E-1,-6.411764026E-1
1.900579958E0,-7.149933279E-2,-1.350616962E-1,-6.478958726E-1
1.902581324E0,-8.127317578E-2,-1.368942857E-1,-6.503393650E-1
1.904582657E0,-1.099838391E-1,-1.448355466E-1,-6.601132154E-1
1.906583990E0,-1.454140246E-1,-1.460572630E-1,-6.723304987E-1
1.908585356E0,-1.625182480E-1,-1.423920691E-1,-6.747739911E-1
1.910586989E0,-2.095548809E-1,-1.405594796E-1,-6.906564236E-1
1.912581755E0,-2.541480362E-1,-1.399486214E-1,-7.102041841E-1
1.914583121E0,-2.755283117E-1,-1.356725544E-1,-7.150910497E-1
1.916584454E0,-3.311170638E-1,-1.362834275E-1,-7.279192209E-1
1.918585787E0,-3.824297488E-1,-1.326182336E-1,-7.425799966E-1
1.920586820E0,-4.398510754E-1,-1.356725544E-1,-7.492995262E-1
1.922588120E0,-4.661182761E-1,-1.332290918E-1,-7.499104142E-1
1.924589453E0,-5.198744535E-1,-1.405594796E-1,-7.480778098E-1
1.926590819E0,-5.705762506E-1,-1.436138153E-1,-7.431908846E-1
1.928592185E0,-5.998977423E-1,-1.405594796E-1,-7.352496386E-1
1.930593785E0,-6.389931440E-1,-1.430029422E-1,-7.236431837E-1
1.932595151E0,-6.707581282E-1,-1.442246735E-1,-7.047063708E-1
1.934596784E0,-6.817536950E-1,-1.448355466E-1,-6.992085576E-1
1.936598150E0,-6.976362467E-1,-1.497224569E-1,-6.827152371E-1
1.938599183E0,-7.098535299E-1,-1.552202404E-1,-6.662218571E-1
1.940600516E0,-7.080209255E-1,-1.601071656E-1,-6.601132154E-1
1.942601849E0,-7.061883211E-1,-1.625506282E-1,-6.466742158E-1
1.944603215E0,-6.970253587E-1,-1.607180387E-1,-6.362894177E-1
1.946604548E0,-6.945819259E-1,-1.613288969E-1,-6.332350969E-1
1.948605914E0,-6.835862994E-1,-1.631615013E-1,-6.277373433E-1
1.950603447E0,-6.658712029E-1,-1.711027324E-1,-6.259047389E-1
1.952604780E0,-6.548756957E-1,-1.686592847E-1,-6.283482313E-1
1.954606146E0,-6.426583529E-1,-1.772113889E-1,-6.350677609E-1
1.956607479E0,-6.267758012E-1,-1.833200604E-1,-6.387329102E-1
1.958608845E0,-6.029520631E-1,-1.662158221E-1,-6.430089474E-1
1.960610178E0,-5.968434215E-1,-1.503333300E-1,-6.448415518E-1
1.962611544E0,-5.809609294E-1,-1.289530545E-1,-6.552262306E-1
1.964612910E0,-5.724087954E-1,-1.161248684E-1,-6.692761779E-1
1.966614543E0,-5.675219297E-1,-1.118488163E-1,-6.747739911E-1
1.968615909E0,-5.583589673E-1,-9.535545111E-2,-6.900455952E-1
1.970616975E0,-5.479742289E-1,-9.169026464E-2,-7.083715796E-1
1.972624808E0,-5.485850573E-1,-8.985766768E-2,-7.169236541E-1
1.974626174E0,-5.430873036E-1,-7.397517562E-2,-7.315844297E-1
1.976627507E0,-5.491960049E-1,-5.259488523E-2,-7.523539066E-1
1.978628840E0,-5.516393781E-1,-4.709709808E-2,-7.657929063E-1
1.980630473E0,-5.553046465E-1,-3.854498640E-2,-7.859514356E-1
1.982631806E0,-5.595806837E-1,-3.243633360E-2,-8.024448156E-1
1.984632872E0,-5.656893253E-1,-2.632768080E-2,-8.164947033E-1
1.986634205E0,-5.705762506E-1,-2.144075930E-2,-8.366532326E-1
1.988635538E0,-5.827935338E-1,-1.227778010E-2,-8.598661423E-1
1.990636904E0,-5.882913470E-1,-1.288864575E-2,-8.690291047E-1
1.992638204E0,-5.980651975E-1,-6.169127766E-3,-8.897985220E-1
1.994640170E0,-6.011195183E-1,-6.713409093E-4,-9.075136185E-1
1.996641536E0,-6.090607047E-1,1.772120129E-3,-9.166765809E-1
1.998643202E0,-6.231106520E-1,7.880772464E-3,-9.356133938E-1
2.000644535E0,-6.286084652E-1,2.315240353E-2,-9.502741694E-1
2.002645868E0,-6.444908977E-1,3.353711218E-2,-9.649349451E-1
2.004647201E0,-6.475452781E-1,3.292624652E-2,-9.722653031E-1
2.006648534E0,-6.530430317E-1,3.964576498E-2,-9.875369668E-1
2.008649567E0,-6.640386581E-1,5.430652946E-2,-9.966999292E-1
2.010650900E0,-6.738124490E-1,5.797172338E-2,-1.004641175E0
2.012652233E0,-6.799211502E-1,7.385421544E-2,-1.013804197E0
2.014653599E0,-6.915275455E-1,8.668238670E-2,-1.019912839E0
2.016654965E0,-6.970253587E-1,9.645622969E-2,-1.019912839E0
2.018656231E0,-7.129078507E-1,1.098952740E-1,-1.026021481E0
2.020657597E0,-7.226817012E-1,1.312755644E-1,-1.022356272E0
2.022658930E0,-7.251251340E-1,1.416602582E-1,-1.024188876E0
2.024660263E0,-7.410076261E-1,1.550993025E-1,-1.021745443E0
2.026661329E0,-7.483379841E-1,1.679274589E-1,-1.015636802E0
2.028662629E0,-7.544466257E-1,1.789230406E-1,-1.008917212E0
2.030663962E0,-7.660530806E-1,1.923620701E-1,-1.008306384E0
2.032658862E0,-7.709400654E-1,2.051902413E-1,-9.936456084E-1
2.034660162E0,-7.776595354E-1,2.021359205E-1,-9.887587428E-1
2.036661795E0,-7.758269906E-1,2.119097561E-1,-9.716544747E-1
2.038663161E0,-7.813247442E-1,2.216836065E-1,-9.618806243E-1
2.040664494E0,-7.801030278E-1,2.241270691E-1,-9.514958858E-1
2.042665860E0,-7.892659903E-1,2.387878448E-1,-9.362242818E-1
2.044667493E0,-7.807138562E-1,2.497834116E-1,-9.233961105E-1
2.046668826E0,-7.807138562E-1,2.620007098E-1,-9.081245065E-1
2.048670159E0,-7.794921398E-1,2.668876350E-1,-8.989614844E-1
2.050673559E0,-7.666640282E-1,2.711637020E-1,-8.818572760E-1
2.052674925E0,-7.605553865E-1,2.809375226E-1,-8.702508807E-1
2.054675625E0,-7.617770433E-1,2.864353359E-1,-8.635312915E-1
2.056676925E0,-7.507814765E-1,2.937657237E-1,-8.519248366E-1
2.058678225E0,-7.434511185E-1,3.035395443E-1,-8.360424042E-1
2.060679558E0,-7.434511185E-1,3.072047532E-1,-8.323771954E-1
2.062680924E0,-7.336772680E-1,3.163677156E-1,-8.158838749E-1
2.064682257E0,-7.245143056E-1,3.212546408E-1,-8.097752333E-1
2.066683623E0,-7.245143056E-1,3.304176331E-1,-8.054991364E-1
2.068685289E0,-7.220708132E-1,3.304176331E-1,-7.951144576E-1
2.070686622E0,-7.135186791E-1,3.365262747E-1,-7.859514356E-1
2.072688055E0,-7.171838880E-1,3.401914537E-1,-7.822862267E-1
2.074695821E0,-7.122970223E-1,3.328610957E-1,-7.761775851E-1
2.076697121E0,-7.171838880E-1,3.316393495E-1,-7.615168691E-1
2.078698521E0,-7.147403955E-1,3.291958869E-1,-7.554082274E-1
2.080699854E0,-7.171838880E-1,3.279741406E-1,-7.407474518E-1
2.082701187E0,-7.232925296E-1,3.243089616E-1,-7.279192209E-1
2.084702520E0,-7.190164924E-1,3.157568574E-1,-7.211996913E-1
2.086703853E0,-7.245143056E-1,3.188111782E-1,-7.083715796E-1
2.088705219E0,-7.257360220E-1,3.127025068E-1,-6.961542368E-1
2.090706552E0,-7.269577384E-1,3.163677156E-1,-6.882129908E-1
2.092707918E0,-7.263468504E-1,3.169785738E-1,-6.839369535E-1
2.094709284E0,-7.232925296E-1,3.194220662E-1,-6.729413271E-1
2.096710317E0,-7.196273804E-1,3.200328946E-1,-6.656109691E-1
2.098711650E0,-7.110752463E-1,3.218654990E-1,-6.588914990E-1
2.100713016E0,-7.086317539E-1,3.310284615E-1,-6.515610814E-1
2.102714449E0,-7.000796795E-1,3.408023417E-1,-6.399546266E-1
2.104715515E0,-7.061883211E-1,3.444675207E-1,-6.356785893E-1
2.106716848E0,-6.933601499E-1,3.560739756E-1,-6.295699477E-1
2.108718214E0,-6.896949410E-1,3.682912588E-1,-6.197960973E-1
2.110717180E0,-6.841971874E-1,3.725673258E-1,-6.112439632E-1
2.112718513E0,-6.780884862E-1,3.798977137E-1,-6.002483964E-1
2.114719879E0,-6.738124490E-1,3.805085719E-1,-5.898637176E-1
2.116720945E0,-6.683146954E-1,3.829520345E-1,-5.794789791E-1
2.118722311E0,-6.615951657E-1,3.908932805E-1,-5.666508079E-1
2.120723677E0,-6.499887109E-1,3.908932805E-1,-5.471031666E-1
2.122725010E0,-6.438800693E-1,3.915041387E-1,-5.367184281E-1
2.124726343E0,-6.273866892E-1,3.939476013E-1,-5.214467645E-1
2.126727643E0,-6.145585179E-1,3.988345265E-1,-5.086185932E-1
2.128728976E0,-5.858478546E-1,3.988345265E-1,-4.945687354E-1
2.130730342E0,-5.809609294E-1,3.982236683E-1,-4.902926683E-1
2.132731608E0,-5.601915121E-1,3.970019221E-1,-4.829622805E-1
2.134726474E0,-5.290374160E-1,4.043323100E-1,-4.725775719E-1
2.136727874E0,-5.180417895E-1,4.012779891E-1,-4.689123929E-1
2.138729174E0,-4.911637604E-1,4.037214518E-1,-4.536407590E-1
2.140730474E0,-4.636748433E-1,4.141061604E-1,-4.469212294E-1
2.142731840E0,-4.557335675E-1,4.171604812E-1,-4.371474087E-1
2.144733173E0,-4.282446206E-1,4.208256900E-1,-4.206540287E-1
2.146734306E0,-4.056425989E-1,4.281560779E-1,-4.059932530E-1
2.148735672E0,-3.897601366E-1,4.324321151E-1,-3.949976861E-1
2.150737038E0,-3.671581149E-1,4.330429733E-1,-3.754499853E-1
2.152738338E0,-3.494430184E-1,4.336538315E-1,-3.552914560E-1
2.154739671E0,-3.415017724E-1,4.360973239E-1,-3.473501801E-1
2.156741004E0,-3.219540715E-1,4.275451899E-1,-3.247481585E-1
2.158742304E0,-3.127911091E-1,4.257125854E-1,-3.100874126E-1
2.160743670E0,-3.079041839E-1,4.214365482E-1,-3.009244502E-1
2.162744936E0,-2.938542664E-1,4.153278768E-1,-2.819876075E-1
2.164746536E0,-2.950760126E-1,4.134953022E-1,-2.606073320E-1
2.166747902E0,-2.950760126E-1,4.171604812E-1,-2.551095486E-1
2.168749202E0,-2.932434082E-1,4.043323100E-1,-2.355618626E-1
2.170750568E0,-2.987412214E-1,3.994454145E-1,-2.196793705E-1
2.172751934E0,-3.042389750E-1,4.000562727E-1,-1.964664757E-1
2.174753267E0,-3.079041839E-1,3.988345265E-1,-1.885252446E-1
2.176755200E0,-3.097367883E-1,3.957802057E-1,-1.671449393E-1
2.178756566E0,-3.231758177E-1,4.000562727E-1,-1.420994699E-1
2.180757866E0,-3.280627429E-1,3.988345265E-1,-1.311039031E-1
2.182759199E0,-3.421126306E-1,4.073866606E-1,-1.011715010E-1
2.184760265E0,-3.488321602E-1,4.079974890E-1,-7.368256152E-2
2.186761598E0,-3.579951525E-1,4.098301232E-1,-5.413487554E-2
2.188762931E0,-3.677689731E-1,4.147170484E-1,-2.542421222E-2
2.190764297E0,-3.824297488E-1,4.171604812E-1,1.000597328E-2
2.192765597E0,-3.879275322E-1,4.153278768E-1,2.588846907E-2
2.194766963E0,-4.013665915E-1,4.024997354E-1,6.559471041E-2
2.196768263E0,-4.068643451E-1,4.024997354E-1,1.059118211E-1
2.198769629E0,-4.123621583E-1,3.982236683E-1,1.224051714E-1
2.200770995E0,-4.166381955E-1,3.841737807E-1,1.639440209E-1
2.202772295E0,-4.233577251E-1,3.798977137E-1,1.987633407E-1
2.204773661E0,-4.294663668E-1,3.743999302E-1,2.128132284E-1
2.206775194E0,-4.288555086E-1,3.652369380E-1,2.482434213E-1
2.208776494E0,-4.306881130E-1,3.469109833E-1,2.757323682E-1
2.210777827E0,-4.331315756E-1,3.426349163E-1,2.958908975E-1
2.212779193E0,-4.343532920E-1,3.365262747E-1,3.258233070E-1
2.214780559E0,-4.422945380E-1,3.304176331E-1,3.551448286E-1
2.216781892E0,-4.422945380E-1,3.188111782E-1,3.801903129E-1
2.218783992E0,-4.477923214E-1,3.133133948E-1,3.911858797E-1
2.220785325E0,-4.563444555E-1,3.065938652E-1,4.174530804E-1
2.222786658E0,-4.655074179E-1,3.102590740E-1,4.388333857E-1
2.224788024E0,-4.673400223E-1,3.188111782E-1,4.522723854E-1
2.226789257E0,-4.648965597E-1,3.291958869E-1,4.760961533E-1
2.228790923E0,-4.697834849E-1,3.456892371E-1,5.029742122E-1
2.230792556E0,-4.636748433E-1,3.524087965E-1,5.133589506E-1
2.232793889E0,-4.624530971E-1,3.695130050E-1,5.371826887E-1
2.234795222E0,-4.539009631E-1,3.939476013E-1,5.591738224E-1
2.236795955E0,-4.465705752E-1,4.031105936E-1,5.695585608E-1
2.238797288E0,-4.325206876E-1,4.244908690E-1,5.891062021E-1
2.240798621E0,-4.166381955E-1,4.385407567E-1,6.074321866E-1
2.242805687E0,-4.001448452E-1,4.623644948E-1,6.233146787E-1
2.244807287E0,-3.891492486E-1,4.709166288E-1,6.300342083E-1
2.246808653E0,-3.714341819E-1,4.874100089E-1,6.410297751E-1
2.248810019E0,-3.634929061E-1,4.965729713E-1,6.477492452E-1
2.250811319E0,-3.476104140E-1,5.167315006E-1,6.550796628E-1
2.252812685E0,-3.298953176E-1,5.387226343E-1,6.660752296E-1
2.254814485E0,-3.115693629E-1,5.662115812E-1,6.727947593E-1
2.256815851E0,-3.054607213E-1,5.839266777E-1,6.752381921E-1
2.258817184E0,-2.950760126E-1,6.083613038E-1,6.813468337E-1
2.260818517E0,-2.761391997E-1,6.444023252E-1,6.911207438E-1
2.262819850E0,-2.688088119E-1,6.584522724E-1,6.990619302E-1
2.264821183E0,-2.517045736E-1,6.951041818E-1,7.100575566E-1
2.266822549E0,-2.437633425E-1,7.299234867E-1,7.204422355E-1
2.268823915E0,-2.333786190E-1,7.403082252E-1,7.314378023E-1
2.270825248E0,-2.181070000E-1,7.677971125E-1,7.448769212E-1
2.272826281E0,-2.077222914E-1,7.897882462E-1,7.583159208E-1
2.274827614E0,-1.985593140E-1,8.038381934E-1,7.644245625E-1
2.276829014E0,-1.869528592E-1,8.252184391E-1,7.790853381E-1
2.278829647E0,-1.765681654E-1,8.429335356E-1,7.882483006E-1
2.280830980E0,-1.771790087E-1,8.557617068E-1,7.937461138E-1
2.282832346E0,-1.722920984E-1,8.740876913E-1,7.949678302E-1
2.284838512E0,-1.722920984E-1,8.826398253E-1,7.955786586E-1
2.286839945E0,-1.716812253E-1,8.863049746E-1,7.968004346E-1
2.288841011E0,-1.808442026E-1,8.973006010E-1,7.919135094E-1
2.290847877E0,-1.900071800E-1,9.027983546E-1,7.943569422E-1
2.292849210E0,-2.052788287E-1,9.058526754E-1,7.906917930E-1
2.294850443E0,-2.303242981E-1,9.156265259E-1,7.858048081E-1
2.296852076E0,-2.614784241E-1,9.302873015E-1,7.949678302E-1
2.298853409E0,-3.042389750E-1,9.394502640E-1,8.016873002E-1
2.300854809E0,-3.188997507E-1,9.449480772E-1,8.077959418E-1
2.302850442E0,-3.671581149E-1,9.693827033E-1,8.194023967E-1
2.304851808E0,-4.148055911E-1,9.815999866E-1,8.432261944E-1
2.306853174E0,-4.422945380E-1,9.938172698E-1,8.554434776E-1
2.308859374E0,-5.021593571E-1,1.015808463E0,8.804889321E-1
2.310860740E0,-5.736305714E-1,1.036577940E0,9.116430879E-1
2.312862106E0,-6.053955555E-1,1.051849484E0,9.275255799E-1
2.314863006E0,-6.744233370E-1,1.075062394E0,9.690644145E-1
2.316864339E0,-7.550575733E-1,1.104994774E0,1.012435794E0
2.318865672E0,-7.965963483E-1,1.114768505E0,1.035037875E0
2.320867005E0,-8.760088682E-1,1.128207684E0,1.087572217E0
2.322868371E0,-9.682494998E-1,1.133705497E0,1.137663245E0
2.324869737E0,-1.014675260E0,1.134316325E0,1.170039058E0
2.326871037E0,-1.108748555E0,1.111714244E0,1.232347250E0
2.328875403E0,-1.199767470E0,1.077505827E0,1.301985979E0
2.330876769E0,-1.247414947E0,1.054903865E0,1.344135642E0
2.332878402E0,-1.334157825E0,1.012754083E0,1.430267692E0
2.334879735E0,-1.421511531E0,9.663283825E-1,1.528616905E0
2.336881035E0,-1.500313163E0,9.192917347E-1,1.626966357E0
2.338882335E0,-1.535132408E0,8.979114294E-1,1.680722356E0
2.340883568E0,-1.602327585E0,8.411009312E-1,1.788234711E0
2.342884901E0,-1.663414240E0,7.916209102E-1,1.899412274E0
2.344881401E0,-1.689681411E0,7.598558664E-1,1.955611825E0
2.346882767E0,-1.736718059E0,6.981585026E-1,2.064345598E0
2.348884100E0,-1.767872095E0,6.407371759E-1,2.176134109E0
2.350879600E0,-1.785587192E0,6.022526622E-1,2.231722832E0
2.352880933E0,-1.805134892E0,5.442204475E-1,2.332515717E0
2.354882399E0,-1.819795609E0,4.861882627E-1,2.431475878E0
2.356883765E0,-1.825904250E0,4.574775994E-1,2.479734182E0
2.358885131E0,-1.833845615E0,4.269343317E-1,2.555481434E0
2.360886464E0,-1.850338817E0,4.196039438E-1,2.605572462E0
2.362887764E0,-1.853393316E0,4.006671011E-1,2.628174305E0
2.364889130E0,-1.861945271E0,3.585174382E-1,2.666048050E0
2.366890463E0,-1.864999652E0,2.998743653E-1,2.681319475E0
2.368886896E0,-1.863167167E0,2.705528140E-1,2.693536997E0
2.370888262E0,-1.858280182E0,2.186292857E-1,2.692315102E0
2.372889595E0,-1.852171540E0,1.746469885E-1,2.699645758E0
2.374890928E0,-1.847895503E0,1.612079442E-1,2.697202206E0
2.376893061E0,-1.835678101E0,1.441037357E-1,2.688650131E0
2.378894427E0,-1.827126145E0,1.465471834E-1,2.673989296E0
2.380895793E0,-1.823460817E0,1.605970711E-1,2.639780760E0
2.382897159E0,-1.812465310E0,1.795338988E-1,2.620843887E0
2.384898492E0,-1.808800101E0,2.271813899E-1,2.566477060E0
2.386899858E0,-1.808189154E0,2.937657237E-1,2.496838331E0
2.388898158E0,-1.808189154E0,3.328610957E-1,2.460186481E0
2.390899458E0,-1.813686967E0,4.104409814E-1,2.385050058E0
2.392900791E0,-1.814908743E0,5.020707846E-1,2.306859493E0
2.394902157E0,-1.819184780E0,5.466639400E-1,2.267763853E0
2.396903523E0,-1.827126145E0,6.401262879E-1,2.181020975E0
2.398904889E0,-1.841786861E0,7.274800539E-1,2.097332478E0
2.400906322E0,-1.861945271E0,8.172771931E-1,2.057015419E0
2.402907622E0,-1.872940898E0,8.612595201E-1,1.972716093E0
2.404908955E0,-1.894321203E0,9.449480772E-1,1.889638305E0
2.406910288E0,-1.907760262E0,9.822108150E-1,1.846266866E0
2.408911621E0,-1.941357732E0,1.056736469E0,1.765632749E0
2.410912987E0,-1.981674910E0,1.122099042E0,1.674613714E0
2.412914353E0,-2.004887819E0,1.148977041E0,1.633074999E0
2.414915686E0,-2.061087370E0,1.195402861E0,1.551829815E0
2.416917019E0,-2.128893614E0,1.231443882E0,1.474860787E0
2.418918352E0,-2.164934635E0,1.244271994E0,1.434543729E0
2.420919685E0,-2.236405849E0,1.256489396E0,1.357574701E0
2.422921085E0,-2.310931444E0,1.254656792E0,1.302596807E0
2.424922418E0,-2.390954494E0,1.231443882E0,1.255560160E0
2.426923751E0,-2.427606583E0,1.213117957E0,1.235401630E0
2.428925117E0,-2.508240700E0,1.173411608E0,1.200582266E0
2.430926450E0,-2.581544638E0,1.119655490E0,1.189586759E0
2.432927783E0,-2.614531279E0,1.093388319E0,1.188364983E0
2.434929116E0,-2.678061247E0,1.013365030E0,1.196306229E0
2.436929682E0,-2.739147902E0,9.229568839E-1,1.208523512E0
2.438931015E0,-2.761138916E0,8.746985197E-1,1.215243101E0
2.440932381E0,-2.796569109E0,7.787927389E-1,1.237845063E0
2.442933714E0,-2.811840773E0,6.804434061E-1,1.270831823E0
2.444935047E0,-2.816727877E0,6.291307211E-1,1.280605674E0
2.446936413E0,-2.810619116E0,5.344465971E-1,1.310538054E0
2.448937779E0,-2.793514967E0,4.422059655E-1,1.341081262E0
2.450939145E0,-2.784962654E0,3.994454145E-1,1.349022627E0
2.452940511E0,-2.744645834E0,3.120916784E-1,1.364294171E0
2.454941844E0,-2.704328537E0,2.351226509E-1,1.368570328E0
2.456943177E0,-2.671952724E0,1.966381371E-1,1.373457193E0
2.458944543E0,-2.616364002E0,1.257777661E-1,1.365515947E0
2.460945909E0,-2.541227579E0,4.880874231E-2,1.341692209E0
2.462947275E0,-2.461204052E0,-3.610152379E-2,1.314814091E0
2.464948641E0,-2.417222023E0,-7.886209339E-2,1.295877337E0
2.466949974E0,-2.323759556E0,-1.711027324E-1,1.255560160E0
2.468951274E0,-2.229075432E0,-2.755607069E-1,1.206080079E0
2.470952607E0,-2.176541090E0,-3.268733919E-1,1.184088945E0
2.472953940E0,-2.076969862E0,-4.307204485E-1,1.130332828E0
2.474955273E0,-1.963348985E0,-5.235719681E-1,1.079630971E0
2.476956639E0,-1.915090680E0,-5.706086159E-1,1.049087763E0
2.478957972E0,-1.815519691E0,-6.353603601E-1,9.953315854E-1
2.480959305E0,-1.728776693E0,-6.781209111E-1,9.434080720E-1
2.482960638E0,-1.696400881E0,-6.921707988E-1,9.116430879E-1
2.484966504E0,-1.637146950E0,-7.056098580E-1,8.517782688E-1
2.486967837E0,-1.601105928E0,-7.080532908E-1,7.955786586E-1
2.488969203E0,-1.595608115E0,-7.025554776E-1,7.662571669E-1
2.490970503E0,-1.594386339E0,-6.768991947E-1,7.039489150E-1
2.492971869E0,-1.612101436E0,-6.396363974E-1,6.410297751E-1
2.494973235E0,-1.629816532E0,-6.176452637E-1,6.147625446E-1
2.496974568E0,-1.681740165E0,-5.626673698E-1,5.561195016E-1
2.498975901E0,-1.747102618E0,-4.948613346E-1,5.078611374E-1
2.500977234E0,-1.788030624E0,-4.539333582E-1,4.864808619E-1
2.502978567E0,-1.868054032E0,-3.671904802E-1,4.400551021E-1
2.504979900E0,-1.958462000E0,-2.700629234E-1,3.966836929E-1
2.506981233E0,-2.056811333E0,-1.869852394E-1,3.551448286E-1
2.508982566E0,-2.105680704E0,-1.430029422E-1,3.362080157E-1
2.510983899E0,-2.206473351E0,-6.236873195E-2,3.044430315E-1
2.512987165E0,-2.315207243E0,-4.336532671E-3,2.861170769E-1
2.514988498E0,-2.361022234E0,1.826548204E-2,2.818410099E-1
2.516989831E0,-2.445932627E0,4.086749628E-2,2.940583229E-1
2.518991131E0,-2.527177811E0,4.514355212E-2,3.178820610E-1
2.520992464E0,-2.558331728E0,4.086749628E-2,3.392623365E-1
2.522993830E0,-2.607811689E0,1.521115564E-2,3.936293423E-1
2.524995163E0,-2.640798569E0,-2.205162495E-2,4.602136612E-1
2.526996496E0,-2.654237509E0,-5.137315765E-2,4.962547123E-1
2.528997862E0,-2.671341896E0,-1.069618911E-1,5.658933520E-1
2.530999195E0,-2.676228762E0,-1.686592847E-1,6.410297751E-1
2.533000495E0,-2.660346270E0,-1.949264854E-1,6.721838713E-1
2.535002361E0,-2.634079218E0,-2.523478270E-1,7.381573319E-1
2.537003661E0,-2.593761921E0,-2.993844748E-1,7.949678302E-1
2.539004961E0,-2.566272974E0,-3.189321160E-1,8.206241727E-1
2.541006294E0,-2.504575729E0,-3.519188464E-1,8.542217612E-1
2.543007627E0,-2.441656590E0,-3.787969351E-1,8.676607609E-1
2.545005060E0,-2.367130756E0,-3.836838305E-1,8.633847237E-1
2.547006426E0,-2.335976839E0,-3.836838305E-1,8.505565524E-1
2.549007759E0,-2.262672901E0,-3.592492342E-1,8.181806803E-1
2.551009125E0,-2.184482098E0,-3.311494589E-1,7.729766965E-1
2.553010458E0,-2.144165039E0,-3.018279076E-1,7.430442572E-1
2.555011758E0,-2.064752579E0,-2.480717599E-1,6.752381921E-1
2.557013091E0,-1.987783551E0,-1.766005307E-1,6.037669778E-1
2.559014457E0,-1.951131701E0,-1.362834275E-1,5.622281432E-1
2.561015757E0,-1.874162674E0,-5.320575461E-2,4.754852951E-1
2.563017123E0,-1.795361042E0,3.903489932E-2,3.887424171E-1
2.565018489E0,-1.758709073E0,8.729325235E-2,3.435384035E-1
2.567019822E0,-1.686627030E0,1.709817946E-1,2.543520629E-1
2.569021188E0,-1.626762152E0,2.497834116E-1,1.615005434E-1
2.571022554E0,-1.590110302E0,2.858244777E-1,1.138530672E-1
2.573021954E0,-1.535743237E0,3.450784087E-1,1.794722117E-2
2.575023320E0,-1.487484932E0,3.933367431E-1,-6.207612529E-2
2.577024686E0,-1.460606933E0,4.122735560E-1,-9.872804582E-2
2.579026019E0,-1.422733307E0,4.458711445E-1,-1.695884168E-1
2.581027385E0,-1.399520397E0,4.672514200E-1,-2.404487729E-1
2.583028718E0,-1.379972696E0,4.782470167E-1,-2.661051452E-1
2.585030018E0,-1.354316354E0,4.929077625E-1,-3.149743378E-1
2.587036851E0,-1.338433862E0,5.045142174E-1,-3.552914560E-1
2.589038217E0,-1.332325220E0,5.185641646E-1,-3.925542235E-1
2.591039583E0,-1.324383855E0,5.179532766E-1,-4.084367156E-1
2.593040983E0,-1.325605750E0,5.228401423E-1,-4.304278493E-1
2.595041783E0,-1.329270840E0,5.301705599E-1,-4.554733634E-1
2.597043149E0,-1.328660011E0,5.338357687E-1,-4.664689302E-1
2.599044515E0,-1.339044690E0,5.320031643E-1,-4.817405343E-1
2.601045848E0,-1.351261973E0,5.271162391E-1,-4.994556308E-1
2.603047148E0,-1.357370734E0,5.185641646E-1,-5.049534440E-1
2.605047881E0,-1.383026958E0,5.057359338E-1,-5.116729140E-1
2.607049214E0,-1.400131226E0,4.751926959E-1,-5.110620856E-1
2.609050514E0,-1.414181113E0,4.562558532E-1,-5.055642724E-1
2.611051847E0,-1.436783195E0,4.257125854E-1,-4.945687354E-1
2.613053180E0,-1.456330776E0,3.737890720E-1,-4.719667137E-1
2.615054546E0,-1.467326403E0,3.401914537E-1,-4.634145796E-1
2.617055912E0,-1.480154514E0,2.760506272E-1,-4.359256625E-1
2.619057245E0,-1.489317656E0,2.070228457E-1,-4.072149992E-1
2.621058611E0,-1.494204521E0,1.722035259E-1,-3.956085443E-1
2.623059944E0,-1.499091387E0,1.037866101E-1,-3.650652766E-1
2.625061277E0,-1.486874104E0,2.865019068E-2,-3.381872177E-1
2.627062610E0,-1.482598066E0,-1.282206154E-3,-3.320785463E-1
2.629063943E0,-1.468548059E0,-6.664478779E-2,-3.070330918E-1
2.631065243E0,-1.434339762E0,-1.307856441E-1,-2.997027040E-1
2.633066609E0,-1.403796434E0,-1.766005307E-1,-3.027570248E-1
2.635067942E0,-1.379972696E0,-1.955373585E-1,-3.064222038E-1
2.637069242E0,-1.334768653E0,-2.334109992E-1,-3.326894343E-1
2.639070642E0,-1.276736498E0,-2.499043643E-1,-3.675087690E-1
2.641071942E0,-1.249247551E0,-2.572347522E-1,-3.937759399E-1
2.643073275E0,-1.185717583E0,-2.554021478E-1,-4.518081546E-1
2.645074675E0,-1.117911458E0,-2.376870513E-1,-5.128946304E-1
2.647070508E0,-1.078205228E0,-2.260806113E-1,-5.483248830E-1
2.649071841E0,-1.010399222E0,-1.949264854E-1,-6.210178137E-1
2.651073174E0,-9.328193069E-1,-1.576637179E-1,-6.918781996E-1
2.653074507E0,-8.973891735E-1,-1.289530545E-1,-7.285301089E-1
2.655075840E0,-8.253070712E-1,-7.214257866E-2,-7.981687784E-1
2.657077206E0,-7.617770433E-1,-1.533210650E-2,-8.653639555E-1
2.659078572E0,-7.239034176E-1,1.765461639E-2,-9.001832008E-1
2.661079938E0,-6.560973525E-1,8.118460327E-2,-9.582154751E-1
2.663081338E0,-5.913456678E-1,1.526558399E-1,-1.013804197E0
2.665082638E0,-5.650784373E-1,1.850316972E-1,-1.044958234E0
2.667083938E0,-5.052136779E-1,2.601681352E-1,-1.097492695E0
2.669085304E0,-4.539009631E-1,3.346936703E-1,-1.143918514E0
2.671086670E0,-4.312989414E-1,4.086083770E-1,-1.167131305E0
2.673088003E0,-3.897601366E-1,4.428168237E-1,-1.206837654E0
2.675089336E0,-3.494430184E-1,5.155097842E-1,-1.242878675E0
2.677090669E0,-3.109585047E-1,5.833158493E-1,-1.263648033E0
2.679092002E0,-3.030172586E-1,6.132482290E-1,-1.275254488E0
2.681093368E0,-2.773609459E-1,6.663935184E-1,-1.290526152E0
2.683094701E0,-2.572023571E-1,6.981585026E-1,-1.299078226E0
2.685096034E0,-2.449850589E-1,7.134301066E-1,-1.299078226E0
2.687097400E0,-2.370438129E-1,7.238148451E-1,-1.299689054E0
2.689098733E0,-2.217721790E-1,7.158735991E-1,-1.296634793E0
2.691100099E0,-2.229939103E-1,7.079323530E-1,-1.294191241E0
2.693101432E0,-2.217721790E-1,6.755564809E-1,-1.286250114E0
2.695102765E0,-2.101657391E-1,6.382936835E-1,-1.259371996E0
2.697105198E0,-2.150526792E-1,6.169134378E-1,-1.247765660E0
2.699106531E0,-2.150526792E-1,5.564377308E-1,-1.222109199E0
2.701107897E0,-2.181070000E-1,4.953512251E-1,-1.192787766E0
2.703109230E0,-2.248265147E-1,4.605319202E-1,-1.172018290E0
2.705110563E0,-2.254373729E-1,3.860063553E-1,-1.131090283E0
2.707111929E0,-2.315460145E-1,3.127025068E-1,-1.093827486E0
2.709113295E0,-2.291025668E-1,2.668876350E-1,-1.074890733E0
2.711114661E0,-2.291025668E-1,1.838099658E-1,-1.037017107E0
2.713115994E0,-2.254373729E-1,9.462363273E-2,-9.991434216E-1
2.715117660E0,-2.205504626E-1,-5.558263045E-3,-9.661566615E-1
2.717118993E0,-2.144418061E-1,-5.870354176E-2,-9.508850574E-1
2.719120326E0,-1.973375678E-1,-1.558311135E-1,-9.295047522E-1
2.721121759E0,-1.790116131E-1,-2.639542520E-1,-9.093461633E-1
2.723123092E0,-1.722920984E-1,-3.128234744E-1,-9.020158052E-1
2.725124458E0,-1.521335393E-1,-4.154488444E-1,-9.032375216E-1
2.727125858E0,-1.252554804E-1,-5.150198936E-1,-9.069027901E-1
2.729127224E0,-1.160924956E-1,-5.614455938E-1,-9.081245065E-1
2.731128557E0,-9.287961572E-2,-6.530754566E-1,-9.252287149E-1
2.733129923E0,-6.844500452E-2,-7.343205214E-1,-9.472198486E-1
2.735131556E0,-5.806029961E-2,-7.740267515E-1,-9.618806243E-1
2.737132856E0,-3.057136200E-2,-8.418327570E-1,-9.832609296E-1
2.739134222E0,-1.346713584E-2,-8.900911212E-1,-1.015636802E0
2.741135555E0,-6.136752199E-3,-9.065845013E-1,-1.030297518E0
2.743136888E0,1.157833915E-2,-9.304082394E-1,-1.062062502E0
2.745138254E0,2.135218494E-2,-9.438472986E-1,-1.107877493E0
2.747139587E0,2.318478003E-2,-9.566754699E-1,-1.129257679E0
2.749140887E0,2.440650947E-2,-9.688927531E-1,-1.186679125E0
2.751142253E0,1.768699288E-2,-9.798883200E-1,-1.251430750E0
2.753143586E0,9.134879336E-3,-9.939382076E-1,-1.285639167E0
2.755144919E0,-8.580213413E-3,-1.018983722E0,-1.354056120E0
2.757145185E0,-4.645385593E-2,-1.040364027E0,-1.428581715E0
2.759146518E0,-9.837740660E-2,-1.068463802E0,-1.492722511E0
2.761147851E0,-1.246446073E-1,-1.083124518E0,-1.522654891E0
2.763149217E0,-1.906180531E-1,-1.117333055E0,-1.584963083E0
2.765150550E0,-2.730848789E-1,-1.139935017E0,-1.638108373E0
2.767151883E0,-3.170671761E-1,-1.149098039E0,-1.666208267E0
2.769153216E0,-4.135838747E-1,-1.166202307E0,-1.704692721E0
2.771154549E0,-5.235396028E-1,-1.183917403E0,-1.738290429E0
2.773155915E0,-5.815718174E-1,-1.186971664E0,-1.752340198E0
2.775156981E0,-7.092427015E-1,-1.195523858E0,-1.769444466E0
2.777158047E0,-8.411895037E-1,-1.207130194E0,-1.774942279E0
2.779159680E0,-9.132716656E-1,-1.216904044E0,-1.774331450E0
2.781160913E0,-1.048272848E0,-1.226677895E0,-1.757227182E0
2.783162246E0,-1.198545694E0,-1.243782163E0,-1.735236049E0
2.785163879E0,-1.269406080E0,-1.249279857E0,-1.713855743E0
2.787165212E0,-1.418457150E0,-1.267605782E0,-1.679647326E0
2.789166545E0,-1.552236676E0,-1.298760056E0,-1.632610679E0
2.791167911E0,-1.620653510E0,-1.315864205E0,-1.608175993E0
2.793169244E0,-1.748324513E0,-1.348850965E0,-1.558085084E0
2.795170277E0,-1.870497465E0,-1.387946248E0,-1.512270212E0
2.797171677E0,-1.978009820E0,-1.428874254E0,-1.482948780E0
2.799173010E0,-2.027489901E0,-1.453919768E0,-1.429192543E0
2.801180276E0,-2.122174025E0,-1.504010797E0,-1.380323410E0
2.803181609E0,-2.192423582E0,-1.560210347E0,-1.332064986E0
2.805182942E0,-2.229686260E0,-1.575481892E0,-1.308241248E0
2.807184242E0,-2.285885811E0,-1.620075107E0,-1.260593772E0
2.809185642E0,-2.321927071E0,-1.648174882E0,-1.221498370E0
2.811186975E0,-2.335976839E0,-1.657948732E0,-1.204394221E0
2.813188308E0,-2.362243891E0,-1.679329038E0,-1.173239946E0
2.815189641E0,-2.374461412E0,-1.687881112E0,-1.143307567E0
2.817191007E0,-2.380570173E0,-1.689713717E0,-1.131090283E0
2.819192940E0,-2.381181002E0,-1.675053000E0,-1.113986135E0
2.821194573E0,-2.363465786E0,-1.653672695E0,-1.096881866E0
2.823195906E0,-2.352470160E0,-1.642066240E0,-1.093216658E0
2.825197239E0,-2.320705175E0,-1.612744808E0,-1.085275412E0
2.827198605E0,-2.278555393E0,-1.581590533E0,-1.081610203E0
2.829199938E0,-2.254731655E0,-1.566318989E0,-1.081610203E0
2.831201271E0,-2.198532343E0,-1.528445363E0,-1.076112390E0
2.833202571E0,-2.134391308E0,-1.483852148E0,-1.071225405E0
2.835203871E0,-2.102015495E0,-1.461250067E0,-1.074279785E0
2.837205471E0,-2.028711557E0,-1.417878628E0,-1.070003748E0
2.839206537E0,-1.951742530E0,-1.367176890E0,-1.065727830E0
2.841208603E0,-1.875995278E0,-1.310977340E0,-1.065116763E0
2.843209969E0,-1.832623720E0,-1.279823065E0,-1.060840845E0
2.845211035E0,-1.750767946E0,-1.218736649E0,-1.057786465E0
2.847213068E0,-1.668911934E0,-1.158260942E0,-1.055343032E0
2.849214434E0,-1.633481860E0,-1.128939509E0,-1.052899480E0
2.851215734E0,-1.556512713E0,-1.067852855E0,-1.051066995E0
2.853217067E0,-1.486263156E0,-1.013485909E0,-1.040682197E0
2.855218467E0,-1.447778702E0,-9.853861332E-1,-1.035795331E0
2.857219800E0,-1.379972696E0,-9.389603138E-1,-1.015636802E0
2.859221100E0,-1.317664385E0,-8.980324268E-1,-9.912021756E-1
2.861216533E0,-1.286510229E0,-8.778738379E-1,-9.679892659E-1
2.863217899E0,-1.226645470E0,-8.357241154E-1,-9.301156402E-1
2.865219199E0,-1.160061121E0,-8.082351685E-1,-8.745269179E-1
2.867220599E0,-1.129517913E0,-7.923527360E-1,-8.476487994E-1
2.869221932E0,-1.067209721E0,-7.728049755E-1,-7.920601368E-1
2.871223265E0,-1.003068805E0,-7.489812374E-1,-7.279192209E-1
2.873224631E0,-9.743581414E-1,-7.428725958E-1,-6.949325204E-1
2.875225964E0,-9.120499492E-1,-7.245466113E-1,-6.314025521E-1
2.877227264E0,-8.466873169E-1,-7.068315148E-1,-5.684834123E-1
2.879228030E0,-8.088136315E-1,-6.970577240E-1,-5.342749357E-1
2.881229096E0,-7.342881560E-1,-6.726230979E-1,-4.719667137E-1
2.883230396E0,-6.603733897E-1,-6.414690018E-1,-4.072149992E-1
2.885231729E0,-5.840152502E-1,-6.072605848E-1,-3.528479934E-1
2.887233062E0,-5.485850573E-1,-5.864911079E-1,-3.229155838E-1
2.889234362E0,-4.685617387E-1,-5.455631018E-1,-2.691594660E-1
2.891235728E0,-3.842623234E-1,-5.131872296E-1,-2.227336913E-1
2.893237094E0,-3.457778394E-1,-4.924178720E-1,-1.970773488E-1
2.895238460E0,-2.681979239E-1,-4.466029704E-1,-1.598145664E-1
2.897239793E0,-1.869528592E-1,-4.032315314E-1,-1.256061047E-1
2.899241093E0,-1.460248828E-1,-3.794077933E-1,-1.133888066E-1
2.901241726E0,-6.844500452E-2,-3.415341377E-1,-9.628457576E-2
2.903243026E0,7.913148031E-3,-2.987735868E-1,-8.040208369E-2
2.905244459E0,4.700852558E-2,-2.682303190E-1,-7.918035239E-2
2.907245092E0,1.245884076E-1,-2.211937010E-1,-8.345641196E-2
2.909246425E0,2.070552260E-1,-1.643832177E-1,-9.872804582E-2
2.911247758E0,2.449288666E-1,-1.350616962E-1,-1.078910232E-1
2.913249091E0,3.194544315E-1,-7.336430252E-2,-1.323256195E-1
2.915250424E0,3.848170042E-1,-4.947397858E-3,-1.543167681E-1
2.917251757E0,4.190254509E-1,3.048278578E-2,-1.665340811E-1
2.919253157E0,4.770576358E-1,9.645622969E-2,-1.989099383E-1
2.921254490E0,5.265377164E-1,1.673166007E-1,-2.318966687E-1
2.923255790E0,5.741852522E-1,2.363443822E-1,-2.441139668E-1
2.925257190E0,5.943437815E-1,2.791049480E-1,-2.746572196E-1
2.927258523E0,6.242761612E-1,3.395805955E-1,-3.009244502E-1
2.929259856E0,6.529868841E-1,4.147170484E-1,-3.253590465E-1
2.931261222E0,6.645932794E-1,4.367081523E-1,-3.381872177E-1
2.933262555E0,6.902496219E-1,5.026816130E-1,-3.577348888E-1
2.935263888E0,7.097973228E-1,5.478855968E-1,-3.797260523E-1
2.937265988E0,7.220146656E-1,5.680441856E-1,-3.888890445E-1
2.939267288E0,7.366754413E-1,6.022526622E-1,-4.029389322E-1
2.941268621E0,7.433949113E-1,6.321850419E-1,-4.157671034E-1
2.943269987E0,7.476709485E-1,6.413480043E-1,-4.182105660E-1
2.945271320E0,7.641643286E-1,6.578413844E-1,-4.285952747E-1
2.947272653E0,7.641643286E-1,6.621174216E-1,-4.395908415E-1
2.949274019E0,7.696620822E-1,6.670044065E-1,-4.402017295E-1
2.951275352E0,7.641643286E-1,6.651717424E-1,-4.493646920E-1
2.953276685E0,7.684403658E-1,6.523436308E-1,-4.554733634E-1
2.955278018E0,7.751598954E-1,6.547870636E-1,-4.566950798E-1
2.957279384E0,7.647752166E-1,6.474566460E-1,-4.566950798E-1
2.959280717E0,7.617208958E-1,6.352393627E-1,-4.505864382E-1
2.961282083E0,7.568339109E-1,6.346285343E-1,-4.475321174E-1
2.963283416E0,7.458384037E-1,6.272981763E-1,-4.444777966E-1
2.965284649E0,7.293450236E-1,6.193568707E-1,-4.389799833E-1
2.967286015E0,7.128516436E-1,6.034743786E-1,-4.285952747E-1
2.969287315E0,7.042995095E-1,6.028635502E-1,-4.218757749E-1
2.971288681E0,6.749779582E-1,5.894244909E-1,-4.145453870E-1
2.973290047E0,6.566520333E-1,5.729311705E-1,-3.980520070E-1
2.975291347E0,6.395477653E-1,5.704876781E-1,-3.931651115E-1
2.977292680E0,6.102262735E-1,5.607138276E-1,-3.803369105E-1
2.979294013E0,5.735743642E-1,5.405552387E-1,-3.705630898E-1
2.981295346E0,5.650222898E-1,5.295596719E-1,-3.626218140E-1
2.983296712E0,5.289812088E-1,5.112337470E-1,-3.485719264E-1
2.985298045E0,4.959944785E-1,4.849665165E-1,-3.229155838E-1
2.987299378E0,4.807228446E-1,4.703057408E-1,-3.082548082E-1
2.989300711E0,4.440709352E-1,4.415951073E-1,-2.801550329E-1
2.991302011E0,4.159711301E-1,4.257125854E-1,-2.532769442E-1
2.993303311E0,4.013103545E-1,4.141061604E-1,-2.337292582E-1
2.995304677E0,3.756540120E-1,3.884498179E-1,-2.074620575E-1
2.997305310E0,3.530519903E-1,3.719564378E-1,-1.842491776E-1
2.999306676E0,3.493868113E-1,3.585174382E-1,-1.720318794E-1
3.001309142E0,3.359477818E-1,3.450784087E-1,-1.530950516E-1
3.003310475E0,3.298391402E-1,3.285850286E-1,-1.414885968E-1
3.005315875E0,3.341152072E-1,3.108699322E-1,-1.390451491E-1
3.007317241E0,3.328934610E-1,3.078156114E-1,-1.366016865E-1
3.009318607E0,3.457216322E-1,3.041504323E-1,-1.347690821E-1
3.011319940E0,3.567171991E-1,2.992634773E-1,-1.366016865E-1
3.013321306E0,3.640475869E-1,2.986526191E-1,-1.390451491E-1
3.015322639E0,3.866496086E-1,3.047612906E-1,-1.457646638E-1
3.017323972E0,4.025321007E-1,3.053721488E-1,-1.592037082E-1
3.019325338E0,4.171928763E-1,3.084264696E-1,-1.628689021E-1
3.021326671E0,4.422383308E-1,3.084264696E-1,-1.787513942E-1
3.023328037E0,4.678946733E-1,3.175894618E-1,-1.946338862E-1
3.025329403E0,4.831663072E-1,3.139242530E-1,-2.031860054E-1
3.027330736E0,5.088226795E-1,3.157568574E-1,-2.178467661E-1
3.029332102E0,5.283703804E-1,3.206437826E-1,-2.337292582E-1
3.031333468E0,5.369223952E-1,3.236981034E-1,-2.386161834E-1
3.033334768E0,5.638005137E-1,3.218654990E-1,-2.502226233E-1
3.035336134E0,5.815156102E-1,3.261415660E-1,-2.563312650E-1
3.037337467E0,5.912894011E-1,3.279741406E-1,-2.575530112E-1
3.039338800E0,6.010633111E-1,3.273632824E-1,-2.673268318E-1
3.041340133E0,6.218327284E-1,3.279741406E-1,-2.746572196E-1
3.043341466E0,6.297739744E-1,3.340828121E-1,-2.807658613E-1
3.045342766E0,6.450455785E-1,3.456892371E-1,-2.899288535E-1
3.047344099E0,6.609281301E-1,3.585174382E-1,-3.039787710E-1
3.049345432E0,6.713128090E-1,3.823411465E-1,-3.076439500E-1
3.051347498E0,6.700910926E-1,3.939476013E-1,-3.229155838E-1
3.053348898E0,6.804757714E-1,4.220474064E-1,-3.357437551E-1
3.055350264E0,6.780323386E-1,4.550341070E-1,-3.473501801E-1
3.057351564E0,6.823083758E-1,4.709166288E-1,-3.497936726E-1
3.059352897E0,6.725345254E-1,5.100119710E-1,-3.546805680E-1
3.061353130E0,6.761997342E-1,5.503290892E-1,-3.589566350E-1
3.063354496E0,6.670367718E-1,5.704876781E-1,-3.583457768E-1
3.065351829E0,6.554303169E-1,6.034743786E-1,-3.668978810E-1
3.067353162E0,6.468781829E-1,6.425697803E-1,-3.644544482E-1
3.069354495E0,6.450455785E-1,6.578413844E-1,-3.662870228E-1
3.071355861E0,6.352717280E-1,6.951041818E-1,-3.656761348E-1
3.073357194E0,6.248870492E-1,7.213714123E-1,-3.607892394E-1
3.075358294E0,6.224436164E-1,7.329778671E-1,-3.546805680E-1
3.077359660E0,6.077828407E-1,7.659645677E-1,-3.491828144E-1
3.079361026E0,6.047285199E-1,7.849013805E-1,-3.418524265E-1
3.081362359E0,6.028958559E-1,7.897882462E-1,-3.345220387E-1
3.083363692E0,5.912894011E-1,8.093360066E-1,-3.247481585E-1
3.085364992E0,5.912894011E-1,8.239967823E-1,-3.247481585E-1
3.087366325E0,5.857917070E-1,8.288836479E-1,-3.216938376E-1
3.089367691E0,5.851807594E-1,8.386575580E-1,-3.271916509E-1
3.091368991E0,5.882350802E-1,8.514856696E-1,-3.241373301E-1
3.093370357E0,5.766286850E-1,8.600378036E-1,-3.363546133E-1
3.095371723E0,5.790721178E-1,8.673681617E-1,-3.357437551E-1
3.097373056E0,5.705200434E-1,8.630921245E-1,-3.479610682E-1
3.099374389E0,5.662439466E-1,8.716441989E-1,-3.534588516E-1
3.101375755E0,5.558592677E-1,8.734768033E-1,-3.559023142E-1
3.103377121E0,5.491397977E-1,8.746985197E-1,-3.614000976E-1
3.105378487E0,5.344790220E-1,8.820289373E-1,-3.668978810E-1
3.107379853E0,5.344790220E-1,8.808071613E-1,-3.681196272E-1
3.109381186E0,5.167639256E-1,8.924136162E-1,-3.638435602E-1
3.111381819E0,5.051574707E-1,8.966897130E-1,-3.662870228E-1
3.113383152E0,4.984379411E-1,8.997440338E-1,-3.681196272E-1
3.115384452E0,4.874423444E-1,8.966897130E-1,-3.668978810E-1
3.117385818E0,4.807228446E-1,8.997440338E-1,-3.601783812E-1
3.119387184E0,4.715598822E-1,9.027983546E-1,-3.632327020E-1
3.121388517E0,4.691163898E-1,8.954679370E-1,-3.565131724E-1
3.123389850E0,4.611751735E-1,8.936353922E-1,-3.552914560E-1
3.125391150E0,4.581208229E-1,8.899702430E-1,-3.504045010E-1
3.127392650E0,4.587316811E-1,8.801963329E-1,-3.430741131E-1
3.129393983E0,4.605643153E-1,8.710333705E-1,-3.345220387E-1
3.131395316E0,4.636186361E-1,8.643138409E-1,-3.290242255E-1
3.133396616E0,4.630077481E-1,8.527073860E-1,-3.210829794E-1
3.135398249E0,4.703381360E-1,8.465987444E-1,-3.070330918E-1
3.137399549E0,4.776685238E-1,8.459879160E-1,-3.003135622E-1
3.139400849E0,4.764467776E-1,8.441552520E-1,-2.929831743E-1
3.141402182E0,4.831663072E-1,8.392683864E-1,-2.850419283E-1
3.143403548E0,4.886640906E-1,8.386575580E-1,-2.740463614E-1
3.145404881E0,4.953836203E-1,8.417118788E-1,-2.612181902E-1
3.147409081E0,4.941619039E-1,8.429335356E-1,-2.551095486E-1
3.149410381E0,5.027139783E-1,8.465987444E-1,-2.325075269E-1
3.151411747E0,4.996596575E-1,8.514856696E-1,-2.233445495E-1
3.153413080E0,5.039357543E-1,8.539291620E-1,-2.092946470E-1
3.155414413E0,4.959944785E-1,8.600378036E-1,-1.891360879E-1
3.157415779E0,4.947727323E-1,8.655355573E-1,-1.848600507E-1
3.159417145E0,4.856097698E-1,8.734768033E-1,-1.689775437E-1
3.161418478E0,4.929401577E-1,8.783637881E-1,-1.524841785E-1
3.163419811E0,4.892749488E-1,8.826398253E-1,-1.469863951E-1
3.165421177E0,4.862206280E-1,8.881375790E-1,-1.341582239E-1
3.167422477E0,4.788902700E-1,8.960788846E-1,-1.237735152E-1
3.169423843E0,4.801119566E-1,9.015765786E-1,-1.176648661E-1
3.171425909E0,4.801119566E-1,9.107396007E-1,-1.066692919E-1
3.173427209E0,4.819445908E-1,9.186808467E-1,-9.933890402E-2
3.175428575E0,4.819445908E-1,9.284546971E-1,-8.773246408E-2
3.177429941E0,4.849989116E-1,9.327307940E-1,-8.223468065E-2
3.179431274E0,4.923292994E-1,9.376176596E-1,-7.123910636E-2
3.181432607E0,4.953836203E-1,9.492241144E-1,-5.841093510E-2
3.183433973E0,4.947727323E-1,9.516676068E-1,-5.413487554E-2
3.185435339E0,5.130987167E-1,9.663283825E-1,-4.130670801E-2
3.187436505E0,5.155421495E-1,9.864868522E-1,-2.970026806E-2
3.189438438E0,5.216507912E-1,9.901521206E-1,-2.481334656E-2
3.191439738E0,5.271486044E-1,1.013975859E0,-1.320690662E-2
3.193441104E0,5.405876637E-1,1.043297410E0,-3.787364694E-4
3.195442404E0,5.454745293E-1,1.055514693E0,5.119050853E-3
3.197443770E0,5.528049469E-1,1.089723110E0,1.550376043E-2
3.199445170E0,5.595244765E-1,1.122709870E0,2.711019851E-2
3.201446536E0,5.638005137E-1,1.141646624E0,2.344500646E-2
3.203447836E0,5.674657226E-1,1.178298593E0,3.566231206E-2
3.205449236E0,5.766286850E-1,1.207620144E0,3.566231206E-2
3.207447736E0,5.766286850E-1,1.221670032E0,3.505145013E-2
3.209449102E0,5.833482146E-1,1.242439508E0,3.627317771E-2
3.211450468E0,5.802938938E-1,1.265041471E0,2.772106603E-2
3.213451801E0,5.802938938E-1,1.272371769E0,2.405587398E-2
3.215453134E0,5.809047222E-1,1.284589052E0,1.794722117E-2
3.217454500E0,5.827373862E-1,1.282756567E0,4.508185200E-3
3.219455833E0,5.674657226E-1,1.294363022E0,-3.433062695E-3
3.221457133E0,5.686874390E-1,1.292530417E0,-4.043928348E-3
3.223458466E0,5.595244765E-1,1.289476037E0,-9.541714564E-3
3.225459766E0,5.442528129E-1,1.290086865E0,-1.320690662E-2
3.227461132E0,5.436419845E-1,1.291308641E0,-1.442863792E-2
3.229462465E0,5.277594328E-1,1.288254261E0,-1.320690662E-2
3.231463098E0,5.161530375E-1,1.291919589E0,-1.687209867E-2
3.233464464E0,5.057682991E-1,1.286421776E0,-1.503950171E-2
3.235465830E0,4.898858368E-1,1.280313134E0,-1.565036736E-2
3.237467163E0,4.648403525E-1,1.276647806E0,-1.381777227E-2
3.239468463E0,4.611751735E-1,1.272982717E0,-1.137431059E-2
3.241469829E0,4.391840100E-1,1.251602411E0,-1.381777227E-2
3.243471162E0,4.190254509E-1,1.232665658E0,-8.319984190E-3
3.245472495E0,4.055864215E-1,1.220448256E0,-6.487389095E-3
3.247473861E0,3.927582502E-1,1.194181085E0,-1.600467018E-3
3.249474627E0,3.689345121E-1,1.162416101E0,8.429940208E-4
3.251475993E0,3.658801913E-1,1.149587870E0,3.286454827E-3
3.253477359E0,3.481650949E-1,1.111103415E0,1.367116440E-2
3.255478725E0,3.365586400E-1,1.079338431E0,2.344500646E-2
3.257480058E0,3.237304688E-1,1.065899372E0,2.649933472E-2
3.259481358E0,3.115131855E-1,1.028025746E0,3.260798752E-2
3.261482691E0,3.011284769E-1,9.968715906E-1,4.543615878E-2
3.263484057E0,2.870785594E-1,9.681609273E-1,6.009692326E-2
3.265485390E0,2.821916640E-1,9.535002112E-1,5.948605761E-2
3.267486723E0,2.773047090E-1,9.223460555E-1,6.987076253E-2
3.269488089E0,2.718069553E-1,9.009657502E-1,7.720115036E-2
3.271489422E0,2.675308883E-1,8.887484670E-1,8.086634427E-2
3.273490788E0,2.644765675E-1,8.746985197E-1,8.453153074E-2
3.275496854E0,2.583678961E-1,8.563725948E-1,9.430537373E-2
3.277498154E0,2.595896423E-1,8.435444236E-1,9.980316460E-2
3.279499487E0,2.632548213E-1,8.276619315E-1,1.120204702E-1
3.281500887E0,2.644765675E-1,8.105576634E-1,1.224051714E-1
3.283502253E0,2.614222169E-1,8.038381934E-1,1.248486415E-1
3.285503586E0,2.681417465E-1,7.910100222E-1,1.388985515E-1
3.287504919E0,2.663091421E-1,7.812361717E-1,1.535593122E-1
3.289506252E0,2.687526047E-1,7.732949257E-1,1.547810435E-1
3.291507552E0,2.656982839E-1,7.616884708E-1,1.651657373E-1
3.293508885E0,2.656982839E-1,7.519146204E-1,1.694418043E-1
3.295510185E0,2.705852091E-1,7.500820160E-1,1.761613190E-1
3.297511485E0,2.681417465E-1,7.323669195E-1,1.804373711E-1
3.299512851E0,2.718069553E-1,7.238148451E-1,1.883786321E-1
3.301514184E0,2.663091421E-1,7.164844275E-1,1.896003634E-1
3.303515517E0,2.650873959E-1,7.128192782E-1,1.914329529E-1
3.305516883E0,2.602005005E-1,7.024345994E-1,1.963198632E-1
3.307518216E0,2.589787543E-1,6.981585026E-1,1.993741840E-1
3.309519549E0,2.534809709E-1,6.896063685E-1,2.012067884E-1
3.311520915E0,2.467614561E-1,6.871628761E-1,2.085371763E-1
3.313522248E0,2.424854040E-1,6.834977269E-1,2.158675492E-1
3.315523548E0,2.327115685E-1,6.786108613E-1,2.177001536E-1
3.317527381E0,2.278246284E-1,6.792216897E-1,2.250305265E-1
3.319528747E0,2.162182033E-1,6.786108613E-1,2.366369814E-1
3.321530780E0,2.119421363E-1,6.798325181E-1,2.451890856E-1
3.323531846E0,2.052226216E-1,6.859412193E-1,2.543520629E-1
3.325533179E0,1.917835772E-1,6.908281446E-1,2.659584880E-1
3.327534512E0,1.875075400E-1,6.938824654E-1,2.720671594E-1
3.329535578E0,1.832314730E-1,6.987693310E-1,2.842844427E-1
3.331536878E0,1.752902269E-1,6.999911070E-1,2.958908975E-1
3.333538511E0,1.673489809E-1,7.060997486E-1,3.044430315E-1
3.335535277E0,1.667381078E-1,7.122083902E-1,3.148277402E-1
3.337536643E0,1.624620557E-1,7.152627707E-1,3.307102323E-1
3.339538009E0,1.563534141E-1,7.213714123E-1,3.374297619E-1
3.341539342E0,1.526882201E-1,7.274800539E-1,3.527013958E-1
3.343540675E0,1.539099365E-1,7.354212403E-1,3.685838580E-1
3.345542075E0,1.532990783E-1,7.488602996E-1,3.826337457E-1
3.347548275E0,1.581860036E-1,7.543581128E-1,3.899641335E-1
3.349549641E0,1.587968618E-1,7.677971125E-1,4.009597301E-1
3.351551007E0,1.655163914E-1,7.879557014E-1,4.198965430E-1
3.353552340E0,1.679598391E-1,7.971186638E-1,4.266160727E-1
3.355553673E0,1.746793687E-1,8.215532899E-1,4.400551021E-1
3.357555073E0,1.826205999E-1,8.398792148E-1,4.534941316E-1
3.359556439E0,1.795662791E-1,8.508748412E-1,4.602136612E-1
3.361558072E0,1.868966669E-1,8.655355573E-1,4.748744071E-1
3.363559438E0,1.942270547E-1,8.716441989E-1,4.907569289E-1
3.365560738E0,1.997248381E-1,8.753094673E-1,4.999198914E-1
3.367562071E0,2.082769424E-1,8.826398253E-1,5.145806670E-1
3.369563404E0,2.094986737E-1,8.814181089E-1,5.316848755E-1
3.371565270E0,2.143855989E-1,8.753094673E-1,5.390152335E-1
3.373566570E0,2.241594344E-1,8.704224825E-1,5.585629940E-1
3.375567936E0,2.314898223E-1,8.563725948E-1,5.762780905E-1
3.377566769E0,2.388202101E-1,8.472095728E-1,5.872735977E-1
3.379568069E0,2.437071353E-1,8.301054239E-1,5.994908810E-1
3.381568702E0,2.510375082E-1,8.130011559E-1,6.184277534E-1
3.383570335E0,2.571461797E-1,7.928425670E-1,6.324776411E-1
3.385571635E0,2.577570081E-1,7.818470597E-1,6.471384168E-1
3.387572968E0,2.595896423E-1,7.677971125E-1,6.617991924E-1
3.389574568E0,2.626439631E-1,7.427516580E-1,6.740164757E-1
3.391575934E0,2.571461797E-1,7.348104119E-1,6.813468337E-1
3.393577400E0,2.650873959E-1,7.158735991E-1,6.929532886E-1
3.395578600E0,2.614222169E-1,6.902171969E-1,6.996728778E-1
3.397579933E0,2.602005005E-1,6.828868389E-1,7.033380270E-1
3.399581233E0,2.577570081E-1,6.639500856E-1,7.118901610E-1
3.401582533E0,2.547027171E-1,6.407371759E-1,7.149444818E-1
3.403583866E0,2.522592545E-1,6.327958703E-1,7.179988027E-1
3.405585199E0,2.522592545E-1,6.126374006E-1,7.167770267E-1
3.407581665E0,2.528701127E-1,5.961439610E-1,7.186096907E-1
3.409582998E0,2.443179935E-1,5.845375657E-1,7.118901610E-1
3.411584331E0,2.461505830E-1,5.710985065E-1,7.106683850E-1
3.413585697E0,2.406527996E-1,5.582703948E-1,7.008945942E-1
3.415587097E0,2.443179935E-1,5.417769551E-1,6.960076094E-1
3.417588430E0,2.449288666E-1,5.295596719E-1,6.868446469E-1
3.419589463E0,2.418745458E-1,5.094011426E-1,6.764599681E-1
3.421590529E0,2.388202101E-1,5.136771798E-1,6.709621549E-1
3.423591862E0,2.363767475E-1,4.953512251E-1,6.581339836E-1
3.425594428E0,2.400419414E-1,4.770252705E-1,6.453058720E-1
3.427595794E0,2.382093519E-1,4.580884576E-1,6.330885291E-1
3.429597160E0,2.406527996E-1,4.458711445E-1,6.263689995E-1
3.431597960E0,2.418745458E-1,4.189930856E-1,6.147625446E-1
3.433599360E0,2.473723292E-1,3.951693475E-1,5.970475078E-1
3.435600693E0,2.430962622E-1,3.762325048E-1,5.878845453E-1
3.437605759E0,2.449288666E-1,3.463000953E-1,5.665042400E-1
3.439607159E0,2.473723292E-1,3.249198198E-1,5.500108600E-1
3.441608525E0,2.473723292E-1,3.078156114E-1,5.451238751E-1
3.443609858E0,2.485940605E-1,2.827701271E-1,5.304631591E-1
3.445611258E0,2.498157769E-1,2.601681352E-1,5.164132714E-1
3.447612624E0,2.565353215E-1,2.522268593E-1,5.127480626E-1
3.449613957E0,2.437071353E-1,2.375660986E-1,4.993090332E-1
3.451615323E0,2.522592545E-1,2.143532187E-1,4.877026081E-1
3.453616256E0,2.516483665E-1,2.051902413E-1,4.846482575E-1
3.455617556E0,2.455397397E-1,1.911403537E-1,4.742635489E-1
3.457618889E0,2.443179935E-1,1.728143990E-1,4.651005864E-1
3.459620255E0,2.388202101E-1,1.679274589E-1,4.651005864E-1
3.461621621E0,2.314898223E-1,1.483797729E-1,4.577701986E-1
3.463622954E0,2.247703075E-1,1.379950643E-1,4.559375942E-1
3.465624287E0,2.198833972E-1,1.355516016E-1,4.571593404E-1
3.467625653E0,2.101095468E-1,1.306646913E-1,4.565484524E-1
3.469627019E0,1.960596442E-1,1.300538182E-1,4.534941316E-1
3.471628352E0,1.881183982E-1,1.294429600E-1,4.565484524E-1
3.473629685E0,1.850640774E-1,1.318864077E-1,4.547158778E-1
3.475632385E0,1.704033017E-1,1.361624748E-1,4.553267360E-1
3.477634418E0,1.551316679E-1,1.349407434E-1,4.486072063E-1
3.479636084E0,1.490230262E-1,1.367733479E-1,4.449420273E-1
3.481637417E0,1.361948550E-1,1.257777661E-1,4.437203109E-1
3.483638717E0,1.288644671E-1,1.160039231E-1,4.357790649E-1
3.485638850E0,1.233666763E-1,1.068409458E-1,4.388333857E-1
3.487640183E0,1.129819751E-1,9.034758061E-2,4.363899231E-1
3.489641516E0,1.050407290E-1,6.102605164E-2,4.388333857E-1
3.491642849E0,9.526687860E-2,4.331095517E-2,4.406659901E-1
3.493644182E0,7.755178958E-2,1.337855961E-2,4.486072063E-1
3.495645548E0,6.044755876E-2,-2.938200720E-2,4.657114446E-1
3.497643181E0,5.372804403E-2,-5.381661654E-2,4.736526906E-1
3.499645047E0,2.868256718E-2,-9.474459291E-2,4.968655705E-1
3.501646347E0,9.745744057E-3,-1.423920691E-1,5.280197263E-1
3.503647447E0,3.026226535E-3,-1.637723595E-1,5.475673676E-1
3.505648780E0,-1.713232696E-2,-2.126415819E-1,5.817758441E-1
3.507650113E0,-4.095606878E-2,-2.596781850E-1,6.251472831E-1
3.509651446E0,-4.645385593E-2,-2.981627285E-1,6.483601928E-1
3.511652779E0,-6.355808675E-2,-3.201538622E-1,6.917315722E-1
3.513654112E0,-7.882972062E-2,-3.580274880E-1,7.326595187E-1
3.515655478E0,-9.104701877E-2,-3.916251063E-1,7.778635621E-1
3.517656844E0,-9.593394399E-2,-4.093401730E-1,7.992438674E-1
3.519658177E0,-1.087621152E-1,-4.374400079E-1,8.383392096E-1
3.521659543E0,-1.142599061E-1,-4.618746042E-1,8.780454993E-1
3.523660876E0,-1.136490330E-1,-4.673723876E-1,8.975932002E-1
3.525662209E0,-1.167033613E-1,-4.869200885E-1,9.311907291E-1
3.527664109E0,-1.185359582E-1,-5.009699464E-1,9.666209817E-1
3.529665442E0,-1.203685552E-1,-5.028026104E-1,9.794490933E-1
3.531666808E0,-1.203685552E-1,-5.040242672E-1,1.009992361E0
3.533668141E0,-1.179250926E-1,-4.991374016E-1,1.039313912E0
3.535668074E0,-1.154816300E-1,-4.948613346E-1,1.050309420E0
3.537668707E0,-1.191468164E-1,-4.869200885E-1,1.072911501E0
3.539669740E0,-1.148707643E-1,-4.685941041E-1,1.093070030E0
3.541671073E0,-1.069295183E-1,-4.575985372E-1,1.106509089E0
3.543672439E0,-1.014317349E-1,-4.337747991E-1,1.121780753E0
3.545673772E0,-9.349048138E-2,-4.105619192E-1,1.132776260E0
3.547675072E0,-8.371663839E-2,-3.946794271E-1,1.140106678E0
3.549676438E0,-7.455366105E-2,-3.800186515E-1,1.152934790E0
3.551677804E0,-6.172548980E-2,-3.665796220E-1,1.162708759E0
3.553679137E0,-4.095606878E-2,-3.549731672E-1,1.170649886E0
3.555680503E0,-3.484741971E-2,-3.488645256E-1,1.176758528E0
3.557681869E0,-1.957578771E-2,-3.482536674E-1,1.171871662E0
3.559682669E0,-1.860695425E-3,-3.433667421E-1,1.170649886E0
3.561684069E0,4.858822562E-3,-3.433667421E-1,1.163319588E0
3.563685669E0,2.013045363E-2,-3.476427794E-1,1.151102304E0
3.565687002E0,3.112602793E-2,-3.531405926E-1,1.140106678E0
3.567688368E0,3.295862302E-2,-3.543623090E-1,1.133387208E0
3.569689734E0,4.639765993E-2,-3.592492342E-1,1.127889395E0
3.571691067E0,4.823025689E-2,-3.739100099E-1,1.118115425E0
3.573692400E0,4.823025689E-2,-3.836838305E-1,1.118726492E0
3.575693500E0,4.823025689E-2,-4.026206732E-1,1.125445962E0
3.577694800E0,4.151073843E-2,-4.294987619E-1,1.130943775E0
3.579696166E0,4.089987278E-2,-4.398834407E-1,1.143161058E0
3.581697499E0,2.623910457E-2,-4.759244919E-1,1.168206453E0
3.583698865E0,1.341093518E-2,-5.199068189E-1,1.194473624E0
3.585700231E0,8.524013683E-3,-5.357893109E-1,1.210967064E0
3.587700997E0,-1.860695425E-3,-5.834367871E-1,1.247008085E0
3.589702330E0,-1.407799963E-2,-6.298625469E-1,1.276940584E0
3.591703663E0,-2.751703560E-2,-6.506319642E-1,1.294655681E0
3.593705029E0,-4.645385593E-2,-7.031663656E-1,1.328863978E0
3.595706395E0,-6.111462414E-2,-7.587551475E-1,1.365515947E0
3.597707761E0,-8.371663839E-2,-8.088460565E-1,1.389950514E0
3.599709361E0,-9.104701877E-2,-8.430545330E-1,1.408887386E0
3.601710694E0,-1.002099961E-1,-8.955889344E-1,1.440652370E0
3.603712060E0,-1.112055704E-1,-9.444581270E-1,1.469973922E0
3.605713393E0,-1.124273092E-1,-9.756122231E-1,1.484634638E0
3.607714759E0,-1.215902865E-1,-1.020816326E0,1.510290980E0
3.609716092E0,-1.093729809E-1,-1.061133385E0,1.535947442E0
3.611717392E0,-1.179250926E-1,-1.077015877E0,1.543277740E0
3.613718725E0,-1.160924956E-1,-1.105115771E0,1.557327628E0
3.615720058E0,-1.069295183E-1,-1.130772114E0,1.568323255E0
3.617721391E0,-9.898826480E-2,-1.139935017E0,1.571377516E0
3.619722724E0,-8.738182485E-2,-1.152152300E0,1.581151366E0
3.621724057E0,-7.211019844E-2,-1.160704494E0,1.586649179E0
3.623725390E0,-5.989289656E-2,-1.168645620E0,1.587260008E0
3.625726723E0,-4.339953139E-2,-1.175365210E0,1.586038351E0
3.627728056E0,-2.079751715E-2,-1.180252075E0,1.579929709E0
3.629729389E0,-1.102367416E-2,-1.179030418E0,1.575042725E0
3.631730755E0,1.096747536E-2,-1.178419590E0,1.567712426E0
3.633732088E0,3.112602793E-2,-1.169867396E0,1.557938457E0
3.635733654E0,5.861496180E-2,-1.153984904E0,1.553051591E0
3.637735054E0,6.655621529E-2,-1.142378569E0,1.549386382E0
3.639736387E0,8.610389382E-2,-1.118554711E0,1.539612532E0
3.641737687E0,1.044298559E-1,-1.084346294E0,1.539612532E0
3.643738753E0,1.184797585E-1,-1.064187765E0,1.544499516E0
3.645740086E0,1.294753253E-1,-1.026924968E0,1.543888569E0
3.647741452E0,1.386383027E-1,-9.829426408E-1,1.555495024E0
3.649742818E0,1.532990783E-1,-9.615623951E-1,1.563436270E0
3.651744351E0,1.661272496E-1,-9.267430305E-1,1.582373142E0
3.653745684E0,1.795662791E-1,-8.919237256E-1,1.608029366E0
3.655747050E0,1.862857938E-1,-8.803173304E-1,1.622690201E0
3.657748383E0,1.942270547E-1,-8.650456667E-1,1.647735715E0
3.659749749E0,2.119421363E-1,-8.534392118E-1,1.688663721E0
3.661751115E0,2.082769424E-1,-8.461088538E-1,1.707600474E0
3.663752448E0,2.131638676E-1,-8.308371902E-1,1.744252443E0
3.665753781E0,2.040008903E-1,-8.131221533E-1,1.791899920E0
3.667755347E0,2.033900321E-1,-8.039591908E-1,1.816334486E0
3.669756680E0,1.936161816E-1,-7.905200720E-1,1.862760305E0
3.671758046E0,1.844532043E-1,-7.673072219E-1,1.917127371E0
3.673759412E0,1.728467643E-1,-7.648637891E-1,1.939729214E0
3.675760745E0,1.514664739E-1,-7.471486926E-1,1.992874503E0
3.677762078E0,1.349731088E-1,-7.245466113E-1,2.042965412E0
3.679763444E0,1.117602363E-1,-6.897273660E-1,2.082060814E0
3.681764744E0,1.013755351E-1,-6.646819115E-1,2.094278097E0
3.683766077E0,6.961053610E-2,-6.188669205E-1,2.115658522E0
3.685767410E0,5.433890596E-2,-5.663325787E-1,2.126654148E0
3.687768743E0,3.784554824E-2,-5.345675945E-1,2.124821424E0
3.689770109E0,1.157833915E-2,-4.661506712E-1,2.121156216E0
3.691771409E0,-1.835405640E-2,-3.922359645E-1,2.111993074E0
3.693772775E0,-2.934963256E-2,-3.543623090E-1,2.106495619E0
3.695773875E0,-5.195164308E-2,-2.822802067E-1,2.086947680E0
3.697775208E0,-7.455366105E-2,-2.016460150E-1,2.066789389E0
3.699777241E0,-8.616010100E-2,-1.601071656E-1,2.059458971E0
3.701778607E0,-1.002099961E-1,-7.092084736E-2,2.044187307E0
3.703780240E0,-1.099838391E-1,2.498499863E-2,2.024639606E0
3.705781540E0,-1.160924956E-1,6.957816333E-2,2.014254808E0
3.707782906E0,-1.203685552E-1,1.746469885E-1,1.998372316E0
3.709784206E0,-1.325858682E-1,2.888787985E-1,1.982489824E0
3.711785339E0,-1.393053681E-1,3.401914537E-1,1.975159407E0
3.713786672E0,-1.460248828E-1,4.287669361E-1,1.964774728E0
3.715787972E0,-1.600748003E-1,5.051251054E-1,1.955000877E0
3.717789405E0,-1.600748003E-1,5.497182608E-1,1.951335669E0
3.719790771E0,-1.692377776E-1,6.303524971E-1,1.952557445E0
3.721792104E0,-1.759572923E-1,7.036563158E-1,1.948892236E0
3.723793437E0,-1.900071800E-1,7.696297765E-1,1.938507557E0
3.725794837E0,-1.948941201E-1,8.020055890E-1,1.931177139E0
3.727795970E0,-2.119983435E-1,8.569834828E-1,1.922014117E0
3.729797303E0,-2.278808355E-1,8.973006010E-1,1.908575177E0
3.731798669E0,-2.333786190E-1,9.101287127E-1,1.906742573E0
3.733800002E0,-2.584241033E-1,9.370068312E-1,1.893303514E0
3.735801235E0,-2.846913040E-1,9.553327560E-1,1.892081738E0
3.737802601E0,-3.011846542E-1,9.675500393E-1,1.895136118E0
3.739803901E0,-3.335605264E-1,9.840434790E-1,1.892081738E0
3.741805267E0,-3.787645698E-1,9.925954938E-1,1.892692685E0
3.743806633E0,-4.019774199E-1,9.974824786E-1,1.893303514E0
3.745807999E0,-4.606204927E-1,1.009699821E0,1.899412274E0
3.747809332E0,-5.155984163E-1,1.024360538E0,1.898190379E0
3.749810665E0,-5.510285497E-1,1.026803970E0,1.900023103E0
3.751812031E0,-6.121150255E-1,1.035356045E0,1.904299021E0
3.753813364E0,-6.774776578E-1,1.048184276E0,1.906742573E0
3.755814697E0,-7.159621716E-1,1.057958126E0,1.903077364E0
3.757816030E0,-7.849899530E-1,1.064677596E0,1.907964230E0
3.759816663E0,-8.637915850E-1,1.101329565E0,1.909796834E0
3.761818029E0,-9.517561793E-1,1.128207684E0,1.914683819E0
3.763819329E0,-9.975710511E-1,1.140424967E0,1.920181632E0
3.765820695E0,-1.083092213E0,1.186850667E0,1.933009744E0
3.767822028E0,-1.171667576E0,1.243050337E0,1.950114012E0
3.769829128E0,-1.210152149E0,1.279702306E0,1.959277034E0
3.771830494E0,-1.282845140E0,1.381105781E0,1.984933376E0
3.773831860E0,-1.348207593E0,1.470903039E0,2.003259182E0
3.775833193E0,-1.377529144E0,1.516107082E0,2.019141674E0
3.777834459E0,-1.438004851E0,1.579026103E0,2.036856890E0
3.779835792E0,-1.494204521E0,1.632171512E0,2.057015419E0
3.781837125E0,-1.503367424E0,1.657216907E0,2.064345598E0
3.783838491E0,-1.520471692E0,1.703031898E0,2.069232702E0
3.785839824E0,-1.533910751E0,1.737240195E0,2.069232702E0
3.787841124E0,-1.524747849E0,1.755566239E0,2.071065426E0
3.789842490E0,-1.507643580E0,1.792829037E0,2.066178560E0
3.791843823E0,-1.467937231E0,1.833146095E0,2.055793762E0
3.793845123E0,-1.443502665E0,1.858191609E0,2.047852516E0
3.795846556E0,-1.383026958E0,1.899730444E0,2.034413338E0
3.797847889E0,-1.302392840E0,1.912558556E0,2.013643980E0
3.799849255E0,-1.248636723E0,1.925997734E0,2.004480839E0
3.801850621E0,-1.153341651E0,1.951043129E0,1.967218280E0
3.803851954E0,-1.028725266E0,1.967536449E0,1.934842348E0
3.805853287E0,-8.998326063E-1,1.963260412E0,1.887194872E0
3.807854653E0,-8.240853548E-1,1.964482188E0,1.868868947E0
3.809855953E0,-6.805319786E-1,1.958984375E0,1.814502001E0
3.811857286E0,-5.394220948E-1,1.929662824E0,1.752804518E0
3.813858886E0,-4.636748433E-1,1.915612936E0,1.725926399E0
3.815860519E0,-3.256192505E-1,1.883237004E0,1.656898737E0
3.817861852E0,-1.869528592E-1,1.834978819E0,1.575042725E0
3.819863218E0,-1.234228835E-1,1.806878924E0,1.530449629E0
3.821864551E0,2.415361116E-3,1.740294576E0,1.445539355E0
3.823865917E0,1.209232211E-1,1.674932003E0,1.353298664E0
3.825867283E0,1.789554209E-1,1.647443056E0,1.309316397E0
3.827868616E0,2.937980890E-1,1.627895355E0,1.211577892E0
3.829864216E0,4.019212425E-1,1.624230266E0,1.117504597E0
3.831865582E0,4.568991065E-1,1.623008370E0,1.074133158E0
3.833866882E0,5.503615141E-1,1.626673698E0,9.849469066E-1
3.835868282E0,6.389369369E-1,1.630949736E0,8.945388198E-1
3.837869615E0,6.841409802E-1,1.632782340E0,8.468913436E-1
3.839870948E0,7.543904781E-1,1.635836720E0,7.546507120E-1
3.841872314E0,8.136444092E-1,1.635225773E0,6.636317968E-1
3.843873647E0,8.484637737E-1,1.625451922E0,6.190386415E-1
3.845874980E0,9.132154584E-1,1.622397542E0,5.322957635E-1
3.847876380E0,9.743019342E-1,1.610180259E0,4.596027732E-1
3.849877713E0,1.039053679E0,1.618732452E0,3.997380137E-1
3.851879013E0,1.068375230E0,1.617510796E0,3.698056042E-1
3.853880413E0,1.139846444E0,1.615678072E0,3.099407852E-1
3.855881713E0,1.204598188E0,1.616288900E0,2.549629509E-1
3.857883046E0,1.238806605E0,1.615067244E0,2.231979370E-1
3.859884412E0,1.310888648E0,1.601628184E0,1.688309312E-1
3.861885712E0,1.373197079E0,1.559478521E0,1.248486415E-1
3.863887045E0,1.387857795E0,1.539319992E0,1.126313359E-1
3.865888411E0,1.442835569E0,1.494726777E0,8.208807558E-2
3.867889744E0,1.510030746E0,1.446468353E0,3.810577467E-2
3.869891110E0,1.537519813E0,1.419590354E0,1.244943310E-2
3.871892476E0,1.593719363E0,1.381716728E0,-3.580892086E-2
3.873893576E0,1.651140571E0,1.349340796E0,-7.918035239E-2
3.875894876E0,1.680462122E0,1.338956118E0,-1.036149561E-1
3.877896242E0,1.734829187E0,1.335901856E0,-1.414885968E-1
3.879897575E0,1.788585305E0,1.346897364E0,-1.726427376E-1
3.881898908E0,1.802635312E0,1.364001632E0,-1.811948568E-1
3.883900241E0,1.824626327E0,1.404318690E0,-1.946338862E-1
3.885902274E0,1.833178520E0,1.428753257E0,-2.190684974E-1
3.887903607E0,1.842341423E0,1.453798771E0,-2.563312650E-1
3.889904940E0,1.852115393E0,1.455631375E0,-2.722137868E-1
3.891906973E0,1.872884750E0,1.469681263E0,-3.210829794E-1
3.893908339E0,1.898541093E0,1.472124815E0,-3.742282689E-1
3.895909672E0,1.915645242E0,1.473957419E0,-3.998846114E-1
3.897910972E0,1.948632121E0,1.479455233E0,-4.493646920E-1
3.899912305E0,1.979786158E0,1.476400852E0,-5.000665188E-1
3.901913638E0,2.002999067E0,1.472124815E0,-5.263337493E-1
3.903914971E0,2.040872574E0,1.470903039E0,-5.794789791E-1
3.905916337E0,2.070194244E0,1.455631375E0,-6.326242685E-1
3.907917637E0,2.090963602E0,1.447690129E0,-6.582805514E-1
3.909918937E0,2.134946108E0,1.439138055E0,-7.181453705E-1
3.911920337E0,2.159380674E0,1.422033787E0,-7.822862267E-1
3.913921670E0,2.168543339E0,1.402486086E0,-8.158838749E-1
3.915923070E0,2.183815241E0,1.351173520E0,-8.714725971E-1
3.917924403E0,2.180149794E0,1.324295402E0,-9.215635657E-1
3.919925703E0,2.177706480E0,1.315132499E0,-9.429438114E-1
3.921927069E0,2.160602331E0,1.273593545E0,-9.844826460E-1
3.923928435E0,2.147163391E0,1.239995956E0,-1.022356272E0
3.925929735E0,2.129448175E0,1.218004942E0,-1.042514920E0
3.927931068E0,2.070194244E0,1.189294219E0,-1.086497188E0
3.929932401E0,1.977342606E0,1.126374960E0,-1.138420701E0
3.931933701E0,1.880825996E0,1.016419291E0,-1.186679125E0
3.933935034E0,1.839287162E0,9.516676068E-1,-1.206226707E0
3.935936434E0,1.757431149E0,8.050599098E-1,-1.239824295E0
3.937937767E0,1.690846920E0,6.431806087E-1,-1.261815429E0
3.939939100E0,1.657249212E0,5.759854913E-1,-1.274032712E0
3.941940466E0,1.590054035E0,4.428168237E-1,-1.291136980E0
3.943941799E0,1.527745843E0,2.888787985E-1,-1.296023965E0
3.945942132E0,1.487428784E0,2.253488004E-1,-1.299689054E0
3.947943498E0,1.408016205E0,1.233343035E-1,-1.301521778E0
3.949944864E0,1.314553976E0,3.231538460E-2,-1.294191241E0
3.951945497E0,1.268738985E0,-1.411037613E-2,-1.283806682E0
3.953946830E0,1.171611428E0,-1.094053537E-1,-1.262426376E0
3.955948130E0,1.090366364E0,-2.059220523E-1,-1.230050445E0
3.957949496E0,1.045773149E0,-2.450174391E-1,-1.211113691E0
3.959950862E0,9.462021589E-1,-2.944975197E-1,-1.181792140E0
3.961952162E0,8.539614677E-1,-3.152669370E-1,-1.165298700E0
3.963953495E0,8.069248796E-1,-3.158777952E-1,-1.153692245E0
3.965954795E0,6.761997342E-1,-3.097691536E-1,-1.161022663E0
3.967956128E0,5.723526478E-1,-3.067148328E-1,-1.178126931E0
3.969957628E0,5.295920372E-1,-3.073256910E-1,-1.183013797E0
3.971958961E0,4.104733467E-1,-3.128234744E-1,-1.204394221E0
3.973960294E0,3.109023273E-1,-3.274842501E-1,-1.223941803E0
3.975961660E0,2.131638676E-1,-3.403124213E-1,-1.245932937E0
3.977962993E0,1.606294513E-1,-3.488645256E-1,-1.253874302E0
3.979964359E0,8.671476692E-2,-4.716484249E-1,-1.254485130E0
3.981965725E0,3.601295128E-2,-6.854512691E-1,-1.211724520E0
3.983967025E0,1.804495929E-3,-7.679181099E-1,-1.187900782E0
3.985968391E0,-7.577539235E-2,-8.577152491E-1,-1.148805380E0
3.987969724E0,-1.612965167E-1,-9.120822549E-1,-1.113986135E0
3.989971057E0,-2.003919035E-1,-9.505667686E-1,-1.095660210E0
3.991972390E0,-2.700305581E-1,-1.044029117E0,-1.053510427E0
3.993973756E0,-3.201214969E-1,-1.133215427E0,-1.016247630E0
3.995975089E0,-3.445560932E-1,-1.171089053E0,-9.979217052E-1
3.997976389E0,-3.989230990E-1,-1.226677895E0,-9.734870791E-1
3.999977755E0,-4.386293292E-1,-1.303035975E0,-9.466090202E-1
4.001979055E0,-4.563444555E-1,-1.346407413E0,-9.325590730E-1
4.003980421E0,-4.771138728E-1,-1.411769986E0,-9.075136185E-1
4.005982787E0,-4.942180812E-1,-1.447811127E0,-8.873550892E-1
4.007984087E0,-5.039919019E-1,-1.464304447E0,-8.763595223E-1
4.009985420E0,-5.320917368E-1,-1.486906528E0,-8.610879183E-1
4.011986753E0,-5.504176617E-1,-1.502178073E0,-8.488705158E-1
4.013988119E0,-5.724087954E-1,-1.508286715E0,-8.427618742E-1
4.015989485E0,-5.846261382E-1,-1.510119438E0,-8.360424042E-1
4.017990818E0,-6.041738391E-1,-1.507675886E0,-8.262685537E-1
4.019992151E0,-6.273866892E-1,-1.500956416E0,-8.232142329E-1
4.021993484E0,-6.389931440E-1,-1.499734640E0,-8.238250613E-1
