"Time (s)","Acceleration x (m/s^2)","Acceleration y (m/s^2)","Acceleration z (m/s^2)"
0.000000000E0,8.195417523E-1,8.604590416E0,1.764706731E0
2.785520000E-3,8.338986635E-1,8.700901031E0,1.802991867E0
5.292968000E-3,7.956135273E-1,8.700901031E0,1.869990945E0
7.800416000E-3,7.286145091E-1,8.729615211E0,1.927418590E0
1.030578100E-2,7.429714203E-1,8.767900467E0,2.056631088E0
1.281322900E-2,7.286145091E-1,8.806185722E0,2.128415823E0
1.532067700E-2,7.238288522E-1,8.830113411E0,2.214557409E0
1.782807200E-2,6.610172391E-1,8.887541771E0,2.325225353E0
2.033552000E-2,6.759724021E-1,8.954540253E0,2.392224550E0
2.284302000E-2,7.238288522E-1,8.992825508E0,2.478366137E0
2.535046800E-2,7.668996453E-1,9.031110764E0,2.545365095E0
2.785791600E-2,9.822536707E-1,9.083752632E0,2.535793781E0
3.036536400E-2,9.248259664E-1,9.165108681E0,2.487937450E0
3.287281200E-2,7.238288522E-1,9.251849174E0,2.621935368E0
3.538026000E-2,7.716853023E-1,9.256634712E0,2.583650351E0
3.772968700E-2,7.573283911E-1,9.247062683E0,2.588435888E0
4.023713500E-2,7.668996453E-1,9.227322578E0,2.310868502E0
4.274458300E-2,7.238288522E-1,9.256634712E0,2.569293261E0
4.525203100E-2,7.668996453E-1,9.261420250E0,2.693720102E0
4.775947900E-2,8.291130662E-1,9.266205788E0,2.621935368E0
5.026692700E-2,8.769695163E-1,9.179466248E0,2.593221426E0
5.277437500E-2,9.343972206E-1,9.145966530E0,2.526222467E0
5.528182200E-2,1.015753269E0,9.117252350E0,2.478366137E0
5.778927000E-2,1.073180914E0,9.088538170E0,2.483151674E0
6.029671800E-2,1.106680512E0,9.078967094E0,2.397010088E0
6.280416600E-2,1.121037364E0,9.059824944E0,2.353939295E0
6.531161400E-2,1.217348576E0,9.031110764E0,2.363510609E0
6.757593700E-2,1.327418327E0,9.021539688E0,2.248056889E0
7.008338500E-2,1.370489120E0,9.078967094E0,2.152343988E0
7.259083300E-2,1.327418327E0,9.083752632E0,2.099701881E0
7.509828100E-2,1.365703583E0,9.126823425E0,2.051845312E0
7.760572900E-2,1.427916884E0,9.150752068E0,2.204986095E0
8.011317700E-2,1.466202021E0,9.217751503E0,2.281556368E0
8.262062500E-2,1.547558069E0,9.237491608E0,2.286342144E0
8.512807200E-2,1.652842283E0,9.280562401E0,2.185843468E0
8.763546800E-2,1.710269928E0,9.366703987E0,2.166700840E0
9.014296800E-2,1.787438512E0,9.414560318E0,2.209771633E0
9.265041600E-2,1.868794441E0,9.438488960E0,2.204986095E0
9.515786400E-2,1.902294040E0,9.510273933E0,2.267199516E0
9.741932200E-2,1.940579176E0,9.510273933E0,2.248056889E0
9.992677000E-2,1.974078655E0,9.543772697E0,2.219342947E0
1.024342180E-1,2.065006018E0,9.543772697E0,2.142772675E0
1.049416660E-1,2.065006018E0,9.577272415E0,2.123630047E0
1.074491140E-1,2.055434704E0,9.543772697E0,2.128415823E0
1.099565620E-1,2.084148407E0,9.462417603E0,2.080559254E0
1.124640100E-1,2.098505497E0,9.448060036E0,2.032702923E0
1.149714580E-1,2.074577332E0,9.400203705E0,2.013560295E0
1.174789060E-1,2.088934183E0,9.285347939E0,2.023131609E0
1.199863540E-1,2.088934183E0,9.184251785E0,1.980060697E0
1.224938020E-1,2.041077614E0,9.112466812E0,1.956132531E0
1.250012500E-1,2.021935225E0,9.045467377E0,1.946561217E0
1.272626040E-1,1.983649969E0,8.973683357E0,1.841277003E0
1.297700520E-1,2.041077614E0,8.820542336E0,1.701895118E0
1.322775000E-1,1.993221283E0,8.810971260E0,1.846062660E0
1.347849470E-1,1.911865234E0,8.825327873E0,1.965703845E0
1.372923950E-1,1.907079697E0,8.787042618E0,2.018345833E0
1.397998430E-1,1.887937069E0,8.791828156E0,1.999203324E0
1.423072910E-1,1.883151412E0,8.820542336E0,1.951346874E0
1.448147390E-1,1.878365755E0,8.801400185E0,1.975275040E0
1.473221870E-1,1.859223247E0,8.834898949E0,1.879562140E0
1.498296350E-1,1.868794441E0,8.791828156E0,1.697109461E0
1.523370830E-1,1.950150490E0,8.705686569E0,1.836491346E0
1.548445310E-1,1.983649969E0,8.748757362E0,2.018345833E0
1.571059370E-1,2.036292076E0,8.796614647E0,2.085345030E0
1.596133850E-1,2.007578135E0,8.830113411E0,2.047059774E0
1.621208330E-1,2.036292076E0,8.767900467E0,2.018345833E0
1.646282810E-1,2.093719721E0,8.810971260E0,1.984846354E0
1.671357290E-1,2.151147604E0,8.834898949E0,2.008774519E0
1.696431770E-1,2.227717876E0,8.868398666E0,2.051845312E0
1.721506250E-1,2.232503414E0,8.973683357E0,2.018345833E0
1.746580720E-1,2.328814745E0,8.988039970E0,1.951346874E0
1.771655200E-1,2.429313183E0,8.988039970E0,1.826920033E0
1.796729680E-1,2.611167669E0,9.021539688E0,1.764706731E0
1.821804160E-1,2.639881611E0,9.078967094E0,1.755135417E0
1.846878640E-1,2.582453728E0,9.112466812E0,1.831705689E0
1.869492700E-1,2.682952404E0,9.189037323E0,1.869990945E0
1.894567180E-1,2.726023197E0,9.333204269E0,1.908276081E0
1.919641660E-1,2.749951363E0,9.376275063E0,2.032702923E0
1.944716140E-1,2.817548752E0,9.495916367E0,2.080559254E0
1.969790620E-1,2.922832966E0,9.625128746E0,2.085345030E0
1.994865100E-1,2.965903759E0,9.672985077E0,2.042274237E0
2.019939580E-1,3.042474031E0,9.744770050E0,2.185843468E0
2.045014060E-1,3.119044304E0,9.855438232E0,2.291725874E0
2.070088540E-1,3.229114056E0,9.860223770E0,2.363510609E0
2.095163020E-1,3.324826956E0,9.893723488E0,2.669791937E0
2.120237500E-1,3.382853031E0,9.917651176E0,2.373081923E0
2.145311970E-1,3.339184046E0,1.008514881E1,1.639681697E0
2.167926040E-1,3.406781197E0,1.005165005E1,1.668395638E0
2.193000520E-1,3.387638569E0,9.955936432E0,1.668395638E0
2.218075000E-1,3.315255880E0,9.951150894E0,1.654038668E0
2.243149470E-1,3.272184849E0,9.955936432E0,1.553540111E0
2.268223950E-1,3.305684566E0,9.898509026E0,1.563111424E0
2.293298430E-1,3.343969584E0,9.845867157E0,1.663609982E0
2.318372910E-1,3.253042459E0,9.798010826E0,1.706680775E0
2.343447390E-1,3.152543783E0,9.716055870E0,1.644467354E0
2.368521870E-1,3.066402197E0,9.653842926E0,1.582253933E0
2.393596350E-1,2.985046148E0,9.639486313E0,1.524826288E0
2.418670830E-1,2.975475073E0,9.572486877E0,1.457827210E0
2.443745310E-1,2.994617462E0,9.529416084E0,1.338186026E0
2.466359370E-1,2.793022156E0,9.543772697E0,1.266401410E0
2.491433850E-1,2.572882652E0,9.582057953E0,1.237687469E0
2.516508330E-1,2.395813704E0,9.591629982E0,1.290329576E0
2.541582810E-1,2.194218397E0,9.538987160E0,1.352542996E0
2.566657290E-1,2.012363911E0,9.524630547E0,1.395613790E0
2.591731770E-1,1.873580098E0,9.500701904E0,1.476969719E0
2.616806250E-1,1.797009826E0,9.471988678E0,1.606182218E0
2.641880720E-1,1.686341763E0,9.433703423E0,1.658824325E0
2.666955200E-1,1.547558069E0,9.337990761E0,1.740180254E0
2.692029680E-1,1.432702541E0,9.352347374E0,1.793420553E0
2.717104160E-1,1.303490162E0,9.352347374E0,1.822134495E0
2.742178640E-1,1.144965649E0,9.314062119E0,1.884347796E0
2.764792700E-1,1.010967612E0,9.414560318E0,1.889133453E0
2.789867180E-1,9.343972206E-1,9.395418167E0,1.826920033E0
2.814941660E-1,7.860422134E-1,9.400203705E0,1.802991867E0
2.840016140E-1,6.035895348E-1,9.404989243E0,1.831705689E0
2.865090620E-1,5.318048596E-1,9.519845009E0,1.841277003E0
2.890165100E-1,4.456632137E-1,9.605986595E0,1.817348838E0
2.915239580E-1,2.877369225E-1,9.711270332E0,1.793420553E0
2.940314060E-1,1.537388563E-1,9.865009308E0,1.836491346E0
2.965388540E-1,5.742774159E-2,1.002772141E1,1.788634896E0
2.990463020E-1,-1.052841991E-1,1.018086243E1,1.759921074E0
3.015537500E-1,-1.674975902E-1,1.028614616E1,1.692323804E0
3.040611970E-1,-2.344966233E-1,1.043509960E1,1.630110383E0
3.063226040E-1,-2.536391914E-1,1.057388306E1,1.567897081E0
3.088300520E-1,-2.919243574E-1,1.061695385E1,1.467398524E0
3.113375000E-1,-3.828516304E-1,1.068873882E1,1.429113269E0
3.138449470E-1,-3.780659735E-1,1.077488041E1,1.323829174E0
3.163523950E-1,-3.732803464E-1,1.084247780E1,1.213161111E0
3.188598430E-1,-4.504488707E-1,1.089511967E1,1.122233868E0
3.213672910E-1,-5.413761139E-1,1.101954651E1,9.978070259E-1
3.238747390E-1,-6.562315822E-1,1.111047363E1,9.212366939E-1
3.263821870E-1,-7.280163169E-1,1.122532940E1,8.494520187E-1
3.288896350E-1,-7.375875711E-1,1.132582760E1,7.298108935E-1
3.313970830E-1,-7.280163169E-1,1.136889839E1,6.526423693E-1
3.339045310E-1,-7.471588850E-1,1.144128132E1,5.808576941E-1
3.361659890E-1,-7.710871100E-1,1.150828075E1,5.090730190E-1
3.386734370E-1,-8.045865893E-1,1.158963680E1,4.085744619E-1
3.411808850E-1,-7.902296782E-1,1.160399342E1,2.506481707E-1
3.436883330E-1,-7.854440212E-1,1.158963680E1,1.016949639E-1
3.461957810E-1,-7.902296782E-1,1.154178047E1,-1.794617064E-2
3.487032290E-1,-6.897311211E-1,1.150828075E1,-1.950150430E-1
3.512106770E-1,-5.940182209E-1,1.151785183E1,-3.529413342E-1
3.537181250E-1,-5.030909777E-1,1.136411285E1,-5.832505226E-1
3.562255720E-1,-3.589234054E-1,1.125404263E1,-8.081758618E-1
3.587330200E-1,-2.249253243E-1,1.107697392E1,-9.619147182E-1
3.612404680E-1,-6.221338734E-2,1.088076305E1,-1.129412293E0
3.637479160E-1,1.052841991E-1,1.070309544E1,-1.253839016E0
3.660093220E-1,2.494517565E-1,1.050209904E1,-1.320838094E0
3.685167700E-1,3.882354796E-1,1.024786091E1,-1.421336651E0
3.710242180E-1,5.796613097E-1,1.000379372E1,-1.484148264E0
3.735316660E-1,6.759724021E-1,9.774082184E0,-1.450050473E0
3.760391140E-1,7.908278704E-1,9.500701904E0,-1.378265858E0
3.785465620E-1,8.147560954E-1,9.275776863E0,-1.215553880E0
3.810540100E-1,9.056833982E-1,9.016754150E0,-1.052842021E0
3.835614580E-1,9.296116233E-1,8.820542336E0,-9.571290612E-1
3.860689060E-1,9.104689956E-1,8.642875671E0,-8.895317912E-1
3.885763540E-1,9.104689956E-1,8.461020470E0,-7.698906660E-1
3.910838020E-1,8.530412912E-1,8.274380684E0,-6.358926296E-1
3.935912500E-1,8.434699774E-1,8.058428764E0,-4.444667995E-1
3.958527080E-1,8.434699774E-1,7.809575081E0,-3.529413342E-1
3.983601560E-1,8.003991842E-1,7.637291908E0,-2.380858511E-1
4.008676040E-1,6.514459848E-1,7.540980339E0,-1.232303679E-1
4.033750520E-1,7.142575383E-1,7.402196884E0,-1.316052489E-2
4.058825000E-1,6.562315822E-1,7.172485828E0,8.255238086E-2
4.083899470E-1,6.179464459E-1,7.018746853E0,2.075773627E-1
4.108973950E-1,6.418746710E-1,6.932605267E0,2.410768867E-1
4.134048430E-1,6.370890141E-1,6.779464722E0,2.315055877E-1
4.159122910E-1,6.658028960E-1,6.655037880E0,2.889333367E-1
4.184197390E-1,7.429714203E-1,6.559325218E0,3.559323549E-1
4.209271870E-1,8.386843204E-1,6.424728870E0,4.420739710E-1
4.234346350E-1,9.008977413E-1,6.281159401E0,5.330012441E-1
4.256960410E-1,1.068395257E0,6.190232277E0,6.095715761E-1
4.282034890E-1,1.188036442E0,6.089733601E0,6.334998012E-1
4.307109370E-1,1.327418327E0,6.070590973E0,7.537391186E-1
4.332183850E-1,1.494915962E0,6.017350674E0,8.063812256E-1
4.357258330E-1,1.585843205E0,5.979065418E0,8.207381964E-1
4.382332810E-1,1.652842283E0,6.007779598E0,8.303094506E-1
4.407407290E-1,1.614557028E0,6.166304111E0,9.595218897E-1
4.432481770E-1,1.719841242E0,6.314659119E0,9.499505758E-1
4.457556250E-1,1.763510346E0,6.525227547E0,9.020941257E-1
4.482630720E-1,1.749153376E0,6.722036839E0,9.164510965E-1
4.507705200E-1,1.758724689E0,6.990033150E0,8.255237937E-1
4.532779680E-1,1.854437590E0,7.349554539E0,7.824530005E-1
4.555394270E-1,1.911865234E0,7.737790108E0,6.819544435E-1
4.580468750E-1,1.911865234E0,8.130212784E0,5.617151260E-1
4.605543220E-1,1.892722726E0,8.556734085E0,5.569294691E-1
4.630617700E-1,1.916650891E0,8.882756233E0,4.851447940E-1
4.655692180E-1,1.911865234E0,9.261420250E0,5.090730190E-1
4.680766660E-1,1.983649969E0,9.658628464E0,5.617151260E-1
4.705841140E-1,1.969292998E0,9.989436150E0,7.441678643E-1
4.730915620E-1,1.859223247E0,1.032502937E1,1.007378340E0
4.755990100E-1,1.695913076E0,1.058824062E1,1.198804140E0
4.781064580E-1,1.504487276E0,1.078923702E1,1.481755376E0
4.806139060E-1,1.437488198E0,1.097647572E1,1.941775560E0
4.831213540E-1,1.547558069E0,1.115354443E1,2.262413740E0
4.853828640E-1,1.533201098E0,1.123490047E1,2.430509567E0
4.878903120E-1,1.308275819E0,1.134975624E1,2.789433002E0
4.903977600E-1,1.159322619E0,1.134018517E1,3.239881754E0
4.929052080E-1,1.063609719E0,1.128754234E1,3.742972851E0
4.954126560E-1,9.774680734E-1,1.127318573E1,4.207778454E0
4.979201040E-1,7.381857634E-1,1.142213917E1,4.457230568E0
5.004275520E-1,3.164508045E-1,1.152742290E1,4.672584534E0
5.029350000E-1,-2.057827413E-1,1.169492054E1,4.581656933E0
5.054424470E-1,-3.972085714E-1,1.172842026E1,4.519443989E0
5.079498950E-1,-4.408775866E-1,1.185284710E1,4.433301926E0
5.104573430E-1,-5.844469070E-1,1.204965687E1,4.207778454E0
5.129647910E-1,-6.849454641E-1,1.216929817E1,3.891327858E0
5.152268750E-1,-8.524430394E-1,1.239422321E1,3.608974695E0
5.177303120E-1,-1.054038405E0,1.272503090E1,3.115455151E0
5.202337500E-1,-1.374676585E0,1.307976723E1,2.631506681E0
5.227371350E-1,-1.590628862E0,1.335254860E1,2.320439816E0
5.252405720E-1,-1.896910191E0,1.367857075E1,2.047059774E0
5.277440100E-1,-2.175075769E0,1.402313709E1,1.701895118E0
5.302474470E-1,-2.179861546E0,1.418166161E1,1.424327731E0
5.327508850E-1,-2.194218397E0,1.423430347E1,1.198804140E0
5.352543220E-1,-2.045863390E0,1.422951794E1,8.111668825E-1
5.377577600E-1,-1.600200176E0,1.410030556E1,4.851447940E-1
5.402611970E-1,-1.140179992E0,1.384128284E1,1.932204217E-1
5.427646350E-1,-6.897311211E-1,1.350090313E1,-3.230310604E-2
5.450703120E-1,-1.244267747E-1,1.302233887E1,-1.232303679E-1
5.475737500E-1,3.834498227E-1,1.256710434E1,-1.998006850E-1
5.500771870E-1,7.525427341E-1,1.212622738E1,-1.758724600E-1
5.525805720E-1,1.092323542E0,1.169013500E1,-1.423729509E-1
5.550840100E-1,1.360917926E0,1.125882912E1,-1.794617064E-2
5.575874470E-1,1.485344648E0,1.092861938E1,1.399801224E-1
5.600908850E-1,1.461416483E0,1.069352436E1,2.650051117E-1
5.625943220E-1,1.475773335E0,1.048774147E1,4.085744619E-1
5.650977600E-1,1.619342685E0,1.033938694E1,4.516452849E-1
5.676011970E-1,1.600200176E0,1.017607689E1,5.808576941E-1
5.701046350E-1,1.585843205E0,1.008036327E1,7.154539824E-1
5.726080720E-1,1.585843205E0,1.000857925E1,8.590233326E-1
5.749136970E-1,1.585843205E0,9.922437668E0,1.055234790E0
5.774171350E-1,1.571486235E0,9.917651176E0,1.184447169E0
5.799205720E-1,1.547558069E0,9.855438232E0,1.357328653E0
5.824239580E-1,1.490130305E0,9.763913155E0,1.543968797E0
5.849273950E-1,1.485344648E0,9.763913155E0,1.668395638E0
5.874308330E-1,1.437488198E0,9.778867722E0,1.802991867E0
5.899342700E-1,1.370489120E0,9.682557106E0,1.989632010E0
5.924377080E-1,1.341775298E0,9.610772133E0,2.137987137E0
5.949411450E-1,1.403988719E0,9.653842926E0,2.233700037E0
5.974445830E-1,1.437488198E0,9.677771568E0,2.344367981E0
5.999480200E-1,1.537986755E0,9.672985077E0,2.425724030E0
6.024514580E-1,1.633699656E0,9.711270332E0,2.545365095E0
6.047570830E-1,1.744367719E0,9.763913155E0,2.679363251E0
6.072605200E-1,1.820937991E0,9.735198975E0,2.751147747E0
6.097639580E-1,1.773081541E0,9.817152977E0,2.794218540E0
6.122673430E-1,1.773081541E0,9.869794846E0,2.900100946E0
6.147707810E-1,1.797009826E0,9.932008743E0,3.000599623E0
6.172742180E-1,1.797009826E0,9.946365356E0,3.038884640E0
6.197776560E-1,1.768295884E0,9.908080101E0,3.201596737E0
6.222810930E-1,1.676770449E0,1.004686451E1,3.225524902E0
6.247845310E-1,1.552343726E0,1.004207802E1,3.192025423E0
6.272879680E-1,1.461416483E0,1.000379372E1,3.172882795E0
6.297914060E-1,1.442273855E0,9.893723488E0,3.125026464E0
6.322948430E-1,1.375274777E0,9.826724052E0,3.120240688E0
6.346005200E-1,1.274776220E0,9.739984512E0,3.120240688E0
6.371039580E-1,1.149751306E0,9.706484795E0,3.058027267E0
6.396073950E-1,1.068395257E0,9.706484795E0,2.981456995E0
6.421107810E-1,9.870393276E-1,9.668199539E0,2.947957516E0
6.446142180E-1,9.248259664E-1,9.553344727E0,2.938386202E0
6.471176560E-1,8.147560954E-1,9.495916367E0,2.770290375E0
6.496210930E-1,6.759724021E-1,9.400203705E0,2.660220623E0
6.521245310E-1,5.988038778E-1,9.352347374E0,2.583650351E0
6.546279680E-1,5.509474277E-1,9.237491608E0,2.483151674E0
6.571314060E-1,4.743770957E-1,9.074181557E0,2.483151674E0
6.596348430E-1,3.834498227E-1,8.949754715E0,2.497508526E0
6.621382810E-1,3.403790295E-1,8.854042053E0,2.440080881E0
6.644439580E-1,3.116651475E-1,8.772686005E0,2.454437733E0
6.669473950E-1,2.494517565E-1,8.614161491E0,2.502294302E0
6.694508330E-1,1.776670814E-1,8.480163574E0,2.574079037E0
6.719542180E-1,1.872383654E-1,8.370093346E0,2.626721144E0
6.744576560E-1,1.244267747E-1,8.360522270E0,2.722434044E0
6.769610930E-1,2.392822690E-2,8.322237015E0,2.746362209E0
6.794645310E-1,-4.785645381E-2,8.370093346E0,2.842673302E0
6.819679680E-1,-6.221338734E-2,8.331808090E0,2.885744095E0
6.844714060E-1,-6.221338734E-2,8.255238533E0,2.880958557E0
6.869748430E-1,-9.571290761E-2,8.250452042E0,2.909672260E0
6.894782810E-1,-1.196411327E-1,8.250452042E0,2.914458036E0
6.919817180E-1,-1.674975902E-1,8.303094864E0,2.957528830E0
6.942873430E-1,-1.292124242E-1,8.350951195E0,2.995813847E0
6.967907810E-1,-8.614161611E-2,8.360522270E0,2.995813847E0
6.992942180E-1,-3.828516230E-2,8.370093346E0,3.034099102E0
7.017976040E-1,0.000000000E0,8.307880402E0,3.005385160E0
7.043010410E-1,9.571290761E-2,8.255238533E0,3.029313564E0
7.068044790E-1,1.196411327E-1,8.260024071E0,3.115455151E0
7.093079160E-1,1.148554832E-1,8.216953278E0,3.081955671E0
7.118113540E-1,8.135596663E-2,8.207381248E0,3.010170937E0
7.143147910E-1,9.092725813E-2,8.212167740E0,3.048455954E0
7.168182290E-1,2.392822690E-2,8.216953278E0,3.034099102E0
7.193216660E-1,-4.307080805E-2,8.255238533E0,3.024527788E0
7.218251040E-1,-7.657032460E-2,8.250452042E0,3.062813044E0
7.241307810E-1,-1.722832322E-1,8.279166222E0,3.067598581E0
7.266342180E-1,-2.440679073E-1,8.336593628E0,3.120240688E0
7.291376560E-1,-2.871387303E-1,8.365307808E0,3.259024382E0
7.316410410E-1,-3.349951804E-1,8.360522270E0,3.379263878E0
7.341444790E-1,-3.924229145E-1,8.403593063E0,3.460619688E0
7.366479160E-1,-4.217349887E-1,8.408378601E0,3.628117323E0
7.391513540E-1,-4.504488707E-1,8.441878319E0,3.747758389E0
7.416547910E-1,-4.839483798E-1,8.441878319E0,3.838685751E0
7.441582290E-1,-5.078766346E-1,8.441878319E0,3.939782381E0
7.466616660E-1,-5.365904570E-1,8.456234932E0,3.973282099E0
7.491651040E-1,-5.605186820E-1,8.456234932E0,4.054637909E0
7.516685410E-1,-6.418746710E-1,8.422736168E0,4.049852371E0
7.539742180E-1,-6.897311211E-1,8.451449394E0,4.073780537E0
7.564776560E-1,-7.088736892E-1,8.389236450E0,4.064209461E0
7.589810930E-1,-7.615157962E-1,8.317451477E0,4.030709743E0
7.614844790E-1,-7.663014531E-1,8.274380684E0,3.997210264E0
7.639879160E-1,-7.806583643E-1,8.245666504E0,4.030709743E0
7.664913540E-1,-8.620143533E-1,8.154141426E0,4.016352654E0
7.689947910E-1,-9.439685345E-1,8.091927528E0,4.045066833E0
7.714982290E-1,-9.726824164E-1,8.010572433E0,4.059423447E0
7.740016660E-1,-1.001396298E0,7.957930088E0,4.112065792E0
7.765051040E-1,-1.073180914E0,7.862216949E0,4.135993958E0
7.790085410E-1,-1.135394335E0,7.823931694E0,4.198207378E0
7.815119790E-1,-1.178465128E0,7.733004570E0,4.265206337E0
7.838176040E-1,-1.264606714E0,7.627720356E0,4.274777889E0
7.863210410E-1,-1.307677627E0,7.555337429E0,4.322634220E0
7.888244790E-1,-1.422533035E0,7.488338470E0,4.408775806E0
7.913278640E-1,-1.494915962E0,7.387839794E0,4.495515347E0
7.938313020E-1,-1.547558069E0,7.335197926E0,4.557728767E0
7.963347390E-1,-1.681556106E0,7.277770042E0,4.605585575E0
7.988381770E-1,-1.858624935E0,7.258627415E0,4.672584534E0
8.013416140E-1,-1.997408748E0,7.268198967E0,4.691727161E0
8.038450520E-1,-2.127219439E0,7.306483746E0,4.667798996E0
8.063484890E-1,-2.275574446E0,7.373483181E0,4.639084816E0
8.088519270E-1,-2.333002090E0,7.363911629E0,4.605585575E0
8.113553640E-1,-2.467000246E0,7.440482140E0,4.548157692E0
8.136610410E-1,-2.572882652E0,7.454838753E0,4.462016106E0
8.161644790E-1,-2.639881611E0,7.497909546E0,4.360919476E0
8.186679160E-1,-2.735594511E0,7.521838188E0,4.207778454E0
8.211713020E-1,-2.802593470E0,7.502695560E0,4.083351612E0
8.236747390E-1,-2.845664263E0,7.483552933E0,4.021138668E0
8.261781770E-1,-2.888735056E0,7.497909546E0,3.992424488E0
8.286816140E-1,-2.917448997E0,7.517052174E0,3.997210264E0
8.311850520E-1,-2.888735056E0,7.440482140E0,4.083351612E0
8.336884890E-1,-2.903092146E0,7.483552933E0,4.107280254E0
8.361919270E-1,-2.812164783E0,7.555337429E0,4.131208420E0
8.386953640E-1,-2.816950560E0,7.603193760E0,4.183850288E0
8.411988020E-1,-2.860021353E0,7.642077446E0,4.255635262E0
8.435044790E-1,-3.085544825E0,7.593622684E0,4.202992916E0
8.460079160E-1,-3.205185890E0,7.569694519E0,4.198207378E0
8.485113540E-1,-3.119044304E0,7.593622684E0,4.452444553E0
8.510147390E-1,-2.989233732E0,7.603193760E0,4.682155609E0
8.535181770E-1,-2.874378204E0,7.603193760E0,4.935794830E0
8.560216140E-1,-2.754737139E0,7.627720356E0,5.271388054E0
8.585250520E-1,-2.654238462E0,7.704290867E0,5.602196217E0
8.610284890E-1,-2.490928411E0,7.756932735E0,5.860620975E0
8.635319270E-1,-2.414358139E0,7.871788502E0,6.081358910E0
8.660353640E-1,-2.333002090E0,7.948358536E0,6.330212116E0
8.685388020E-1,-2.242074728E0,8.010572433E0,6.492924213E0
8.710422390E-1,-2.093719721E0,8.067999840E0,6.622735023E0
8.733479160E-1,-1.930409670E0,8.111070633E0,6.713662148E0
8.758513540E-1,-1.758126378E0,8.183453560E0,6.689733982E0
8.783547910E-1,-1.604985833E0,8.207381248E0,6.613163471E0
8.808581770E-1,-1.408176184E0,8.279166222E0,6.459424496E0
8.833616140E-1,-1.235892892E0,8.365307808E0,6.272784710E0
8.858650520E-1,-1.192822099E0,8.528019905E0,6.067001820E0
8.883684890E-1,-1.092323542E0,8.676374435E0,5.726622581E0
8.908719270E-1,-9.966106415E-1,8.854042053E0,5.539982796E0
8.933753640E-1,-9.726824164E-1,9.117252350E0,5.295316696E0
8.958788020E-1,-9.870393276E-1,9.328418732E0,4.989035130E0
8.983822390E-1,-9.726824164E-1,9.534201622E0,4.672584534E0
9.008856770E-1,-9.290133715E-1,9.711270332E0,4.452444553E0
9.031913540E-1,-1.010967612E0,9.831509590E0,4.236492634E0
9.056947910E-1,-1.068395257E0,9.927223206E0,4.068994999E0
9.081982290E-1,-1.101894855E0,1.005165005E1,3.963710785E0
9.107016140E-1,-1.183250785E0,1.004686451E1,3.886542082E0
9.132050520E-1,-1.298106313E0,1.004686451E1,3.848257065E0
9.157084890E-1,-1.369890928E0,1.002772141E1,3.853042603E0
9.182119270E-1,-1.475773335E0,9.946365356E0,3.838685751E0
9.207153640E-1,-1.595414519E0,9.874580383E0,3.862613916E0
9.232188020E-1,-1.700698733E0,9.730413437E0,3.872185230E0
9.257222390E-1,-1.748555183E0,9.649057388E0,3.829114437E0
9.282256770E-1,-1.801197290E0,9.481559753E0,3.843471289E0
9.307291140E-1,-1.772483349E0,9.371489525E0,3.881756544E0
9.330347390E-1,-1.695913076E0,9.189037323E0,3.958925009E0
9.355381770E-1,-1.590628862E0,9.064610481E0,3.963710785E0
9.380416140E-1,-1.504487276E0,8.949754715E0,4.121636868E0
9.405450000E-1,-1.451246977E0,8.820542336E0,4.274777889E0
9.430484370E-1,-1.283749342E0,8.720044136E0,4.399204254E0
9.455518750E-1,-1.226321578E0,8.599804878E0,4.591228485E0
9.480553120E-1,-1.121037364E0,8.441878319E0,4.811367989E0
9.505587500E-1,-9.966106415E-1,8.312665939E0,5.022534847E0
9.530621870E-1,-9.098708034E-1,8.245666504E0,5.242674351E0
9.555656250E-1,-7.902296782E-1,8.149355888E0,5.400600910E0
9.580690620E-1,-7.663014531E-1,8.149355888E0,5.664409637E0
9.605725000E-1,-7.519445419E-1,8.197810173E0,5.798407555E0
9.628781770E-1,-8.237292171E-1,8.365307808E0,5.999404430E0
9.653816140E-1,-9.726824164E-1,8.537590981E0,6.181857109E0
9.678850520E-1,-1.125823021E0,8.830113411E0,6.320641041E0
9.703884370E-1,-1.288534999E0,9.150752068E0,6.516852379E0
9.728918750E-1,-1.408176184E0,9.577272415E0,6.670591354E0
9.753953120E-1,-1.552343726E0,9.946365356E0,6.751947403E0
9.778987500E-1,-1.590628862E0,1.037288570E1,6.828517437E0
9.804021870E-1,-1.557129383E0,1.087597752E1,6.818946362E0
9.829056250E-1,-1.571486235E0,1.142692471E1,6.814160824E0
9.854090620E-1,-1.557129383E0,1.193958664E1,6.775875568E0
9.879125000E-1,-1.595414519E0,1.254796219E1,6.656234264E0
9.904159370E-1,-1.537986755E0,1.312762356E1,6.540780544E0
9.927216140E-1,-1.518844128E0,1.365942764E1,6.382854462E0
9.952250520E-1,-1.475773335E0,1.415773296E1,6.167500496E0
9.977284890E-1,-1.403390527E0,1.460818195E1,5.922834396E0
1.000231875E0,-1.269392371E0,1.495753479E1,5.559125423E0
1.002735312E0,-1.168893814E0,1.521655750E1,5.142175674E0
1.005238750E0,-1.097109199E0,1.540798283E1,4.710869789E0
1.007742187E0,-9.918249846E-1,1.544148254E1,4.317848682E0
1.010245625E0,-8.380861282E-1,1.543191147E1,3.915854216E0
1.012749062E0,-6.705885530E-1,1.525962830E1,3.671188116E0
1.015252500E0,-5.222335458E-1,1.502931881E1,3.565903902E0
1.017755937E0,-3.924229145E-1,1.475175190E1,3.455834150E0
1.020259375E0,-3.158525825E-1,1.443051529E1,3.360121250E0
1.022565572E0,-2.632105052E-1,1.402313709E1,3.330809116E0
1.025065677E0,-2.105683982E-1,1.359242916E1,3.321237803E0
1.027565833E0,-2.105683982E-1,1.320897961E1,3.297309637E0
1.030065989E0,-1.914258152E-1,1.280638695E1,3.239881754E0
1.032566093E0,-8.135596663E-2,1.232243824E1,3.153740168E0
1.035066250E0,2.871387079E-2,1.193480110E1,3.067598581E0
1.037566406E0,1.489532143E-1,1.151306629E1,2.947957516E0
1.040066510E0,2.685943544E-1,1.110568810E1,2.760719061E0
1.042566666E0,3.690928817E-1,1.074138069E1,2.502294302E0
1.045066822E0,4.648058116E-1,1.037767220E1,2.147558212E0
1.047566927E0,5.174478889E-1,1.006122112E1,1.846062660E0
1.050067083E0,6.083751321E-1,9.778867722E0,1.505683661E0
1.052409010E0,6.711867452E-1,9.515059471E0,1.223330617E0
1.054909114E0,6.903293133E-1,9.280562401E0,8.877372146E-1
1.057409270E0,6.658028960E-1,9.035896301E0,6.047859192E-1
1.059909427E0,6.035895348E-1,8.820542336E0,3.415754437E-1
1.062409531E0,4.695914388E-1,8.638090134E0,2.027917206E-1
1.064909687E0,3.499503136E-1,8.475378036E0,4.905286431E-2
1.067409843E0,2.255235314E-1,8.250452042E0,2.033899166E-2
1.069909947E0,4.785645381E-2,8.169096947E0,-8.374879137E-3
1.072410104E0,-1.339980662E-1,8.039285660E0,2.033899166E-2
1.074910260E0,-2.249253243E-1,7.910073280E0,6.340979785E-2
1.077410364E0,-3.684946895E-1,7.718647480E0,9.212367237E-2
1.079910520E0,-4.265206456E-1,7.569694519E0,1.447657645E-1
1.082252447E0,-3.780659735E-1,7.430910587E0,2.745763958E-1
1.084752552E0,-3.110669553E-1,7.339983463E0,4.133601189E-1
1.087252708E0,-2.871387303E-1,7.196413994E0,5.473581553E-1
1.089752864E0,-2.297109663E-1,7.033103943E0,8.159525394E-1
1.092252968E0,-1.292124242E-1,6.894320011E0,1.002592683E0
1.094753125E0,-1.292124242E-1,6.760322094E0,1.122233868E0
1.097253281E0,-1.196411327E-1,6.722036839E0,1.194018483E0
1.099753385E0,-8.135596663E-2,6.635895252E0,1.247258782E0
1.102253541E0,-5.742774159E-2,6.549155712E0,1.299900889E0
1.104753697E0,2.392822690E-2,6.491727829E0,1.347757339E0
1.107253802E0,-5.742774159E-2,6.549155712E0,1.357328653E0
1.109753958E0,-8.614161611E-2,6.534798622E0,1.362114310E0
1.112095885E0,-2.871387079E-2,6.616752625E0,1.371685624E0
1.114595989E0,-7.657032460E-2,6.674180508E0,1.285543919E0
1.117096145E0,-8.135596663E-2,6.784250259E0,1.242473125E0
1.119596302E0,-5.742774159E-2,6.884748936E0,1.160519004E0
1.122096406E0,4.307080805E-2,6.990033150E0,1.122233868E0
1.124596562E0,-2.392822690E-2,7.282555580E0,1.179661512E0
1.127096718E0,-1.674975902E-1,7.756932735E0,1.424327731E0
1.129596822E0,-1.148554832E-1,8.082356453E0,1.634896040E0
1.132096979E0,-1.244267747E-1,8.350951195E0,1.774278045E0
1.134597135E0,-5.264209956E-2,8.537590981E0,1.874776483E0
1.137097239E0,1.824527234E-1,8.590232849E0,1.936989903E0
1.139597395E0,3.595215976E-1,8.700901031E0,1.860419631E0
1.141939322E0,4.887340367E-1,8.892327309E0,1.884347796E0
1.144439427E0,3.690928817E-1,9.193822861E0,2.109273195E0
1.146939583E0,3.116651475E-1,9.558130264E0,2.137987137E0
1.149439739E0,2.638086975E-1,9.884152412E0,2.166700840E0
1.151939843E0,3.260220885E-1,1.016650486E1,2.373081923E0
1.154440000E0,4.743770957E-1,1.034895802E1,2.693720102E0
1.156940156E0,5.748756528E-1,1.054516983E1,2.938386202E0
1.159440260E0,7.190431952E-1,1.076530933E1,3.019742250E0
1.161940416E0,9.535398483E-1,1.098604679E1,3.062813044E0
1.164440572E0,1.178465128E0,1.114397335E1,3.062813044E0
1.166940677E0,1.509272933E0,1.118704414E1,3.081955671E0
1.169440833E0,1.768295884E0,1.100518990E1,2.871387243E0
1.171782760E0,1.878365755E0,1.111525917E1,2.540579557E0
1.174282864E0,1.887937069E0,1.139342499E1,2.382653236E0
1.176783020E0,1.916650891E0,1.154656601E1,2.392224550E0
1.179283177E0,1.801795483E0,1.177627659E1,2.392224550E0
1.181783281E0,1.844866276E0,1.200658607E1,2.243271112E0
1.184283437E0,2.041077614E0,1.201137161E1,2.128415823E0
1.186783593E0,2.242074728E0,1.192523003E1,2.018345833E0
1.189283697E0,2.400599241E0,1.184806156E1,1.903490424E0
1.191783854E0,2.572882652E0,1.168534946E1,1.788634896E0
1.194284010E0,2.596810818E0,1.157049370E1,1.817348838E0
1.196784114E0,2.362314224E0,1.157049370E1,2.109273195E0
1.199284270E0,2.141576290E0,1.172842026E1,2.320439816E0
1.201626197E0,1.825723648E0,1.191087246E1,2.540579557E0
1.204126302E0,1.624128342E0,1.190070343E1,2.789433002E0
1.206626458E0,1.504487276E0,1.177627659E1,2.943171740E0
1.209126614E0,1.432702541E0,1.174277687E1,3.172882795E0
1.211626718E0,1.490130305E0,1.166142082E1,3.330809116E0
1.214126875E0,1.585843205E0,1.152742290E1,3.455834150E0
1.216627031E0,1.648056626E0,1.130189991E1,3.551547050E0
1.219127135E0,1.652842283E0,1.089511967E1,3.618546009E0
1.221627291E0,1.643270969E0,1.064566803E1,3.527618885E0
1.224127447E0,1.643270969E0,1.034417248E1,3.398406267E0
1.226627552E0,1.763510346E0,1.003250694E1,3.326023579E0
1.229127708E0,1.897508383E0,9.739984512E0,3.225524902E0
1.231469635E0,2.045863390E0,9.428917885E0,3.029313564E0
1.233969739E0,2.021935225E0,9.145966530E0,2.857030153E0
1.236469895E0,1.926222205E0,8.839685440E0,2.660220623E0
1.238970052E0,1.902294040E0,8.614161491E0,2.483151674E0
1.241470156E0,1.921436548E0,8.403593063E0,2.276770830E0
1.243970312E0,2.074577332E0,8.202595711E0,2.027917147E0
1.246470468E0,2.222932339E0,7.981858253E0,1.725823283E0
1.248970572E0,2.175075769E0,7.742575645E0,1.491326690E0
1.251470729E0,2.227717876E0,7.526623726E0,1.634896040E0
1.253970885E0,2.324028969E0,7.301698208E0,1.634896040E0
1.256470989E0,2.295315027E0,7.220342159E0,1.721037745E0
1.258971145E0,2.227717876E0,7.196413994E0,1.869990945E0
1.261313072E0,2.151147604E0,7.167700291E0,1.965703845E0
1.263813177E0,2.079362869E0,7.105486870E0,2.018345833E0
1.266313333E0,2.017149448E0,7.143772125E0,2.099701881E0
1.268813489E0,1.978864312E0,7.138986588E0,2.152343988E0
1.271313593E0,1.921436548E0,7.124629498E0,2.271985054E0
1.273813750E0,1.940579176E0,7.076174736E0,2.276770830E0
1.276313906E0,1.931007862E0,7.210771084E0,2.281556368E0
1.278814010E0,1.983649969E0,7.272984505E0,2.252842426E0
1.281314166E0,1.974078655E0,7.344769001E0,2.286342144E0
1.283814322E0,1.926222205E0,7.464410305E0,2.368296146E0
1.286314427E0,1.935793519E0,7.622336388E0,2.387438774E0
1.288814583E0,1.926222205E0,7.780860901E0,2.473580360E0
1.291156510E0,1.892722726E0,7.924430370E0,2.449652195E0
1.293656614E0,1.830509305E0,8.072785378E0,2.497508526E0
1.296156770E0,1.835294962E0,8.173882484E0,2.492722988E0
1.298656927E0,1.816152334E0,8.245666504E0,2.540579557E0
1.301157031E0,1.782652855E0,8.336593628E0,2.478366137E0
1.303657187E0,1.773081541E0,8.456234932E0,2.478366137E0
1.306157343E0,1.705484390E0,8.580661774E0,2.430509567E0
1.308657447E0,1.590628862E0,8.743971825E0,2.392224550E0
1.311157604E0,1.360917926E0,8.944969177E0,2.382653236E0
1.313657760E0,1.183250785E0,9.074181557E0,2.353939295E0
1.316157864E0,1.063609719E0,9.256634712E0,2.252842426E0
1.318658020E0,9.487541914E-1,9.424132347E0,2.176272154E0
1.320999947E0,8.721838593E-1,9.591629982E0,2.152343988E0
1.323500052E0,7.860422134E-1,9.769296646E0,2.152343988E0
1.326000208E0,7.046862841E-1,9.831509590E0,2.204986095E0
1.328500364E0,6.418746710E-1,9.898509026E0,2.152343988E0
1.331000468E0,6.466603279E-1,9.884152412E0,2.128415823E0
1.333500625E0,6.179464459E-1,9.888937950E0,2.047059774E0
1.336000781E0,6.323033571E-1,9.898509026E0,1.965703845E0
1.338500885E0,6.323033571E-1,9.865009308E0,1.879562140E0
1.341001041E0,6.083751321E-1,9.860223770E0,1.779063582E0
1.343501197E0,5.653043389E-1,9.869794846E0,1.601396561E0
1.346001302E0,5.940182209E-1,9.855438232E0,1.520040631E0
1.348501458E0,5.940182209E-1,9.788438797E0,1.429113269E0
1.350843333E0,4.839483798E-1,9.749555588E0,1.333400369E0
1.353343437E0,4.648058116E-1,9.744770050E0,1.237687469E0
1.355843593E0,4.504488707E-1,9.634700775E0,1.141376376E0
1.358343750E0,4.408775866E-1,9.562915802E0,1.016949654E0
1.360843854E0,3.643072546E-1,9.548559189E0,9.451649189E-1
1.363344010E0,3.020938635E-1,9.486345291E0,8.925228715E-1
1.365844166E0,2.494517565E-1,9.471988678E0,8.207381964E-1
1.368344270E0,2.398804724E-1,9.438488960E0,8.063812256E-1
1.370844427E0,2.063809484E-1,9.390632629E0,7.489534616E-1
1.373344583E0,1.585244983E-1,9.376275063E0,7.345965505E-1
1.375844687E0,1.537388563E-1,9.357132912E0,7.728816867E-1
1.378344843E0,1.100698411E-1,9.404989243E0,7.920243144E-1
1.380686770E0,5.264209956E-2,9.448060036E0,8.733802438E-1
1.383186875E0,5.264209956E-2,9.467203140E0,9.020941257E-1
1.385687031E0,7.657032460E-2,9.481559753E0,9.164510965E-1
1.388187187E0,1.345962733E-1,9.495916367E0,8.733802438E-1
1.390687291E0,1.393819153E-1,9.534201622E0,8.494520187E-1
1.393187447E0,1.489532143E-1,9.610772133E0,9.978070259E-1
1.395687604E0,1.585244983E-1,9.644271851E0,1.098305583E0
1.398187708E0,1.441675574E-1,9.687342644E0,1.366899967E0
1.400687864E0,1.776670814E-1,9.778867722E0,1.433898926E0
1.403188020E0,2.685943544E-1,9.836296082E0,1.386042476E0
1.405688125E0,2.877369225E-1,9.903294563E0,1.414756417E0
1.408188281E0,3.451646566E-1,9.970293999E0,1.414756417E0
1.410530208E0,4.073780477E-1,1.001336479E1,1.529611826E0
1.413030312E0,4.265206456E-1,1.003250694E1,1.634896040E0
1.415530468E0,4.121637046E-1,1.007079220E1,1.740180254E0
1.418030625E0,5.126622319E-1,1.003729248E1,1.822134495E0
1.420530729E0,6.035895348E-1,1.003250694E1,1.869990945E0
1.423030885E0,6.514459848E-1,1.002772141E1,1.927418590E0
1.425531041E0,6.951149702E-1,1.006600666E1,2.003988981E0
1.428031145E0,7.668996453E-1,1.000379372E1,2.066202402E0
1.430531302E0,7.334001660E-1,9.917651176E0,2.161915302E0
1.433031458E0,7.286145091E-1,9.855438232E0,2.257628202E0
1.435531562E0,7.812566161E-1,9.793225288E0,2.315654039E0
1.438031718E0,8.291130662E-1,9.739984512E0,2.358724833E0
1.440334531E0,9.152546525E-1,9.663414001E0,2.296511650E0
1.442834635E0,9.631111026E-1,9.596415520E0,2.296511650E0
1.445334791E0,1.049252748E0,9.577272415E0,2.306082726E0
1.447834947E0,1.101894855E0,9.505488396E0,2.271985054E0
1.450335052E0,1.154536963E0,9.443274498E0,2.257628202E0
1.452835208E0,1.246062398E0,9.390632629E0,2.243271112E0
1.455335364E0,1.380060434E0,9.294919968E0,2.181057930E0
1.457835468E0,1.413560033E0,9.299705505E0,2.109273195E0
1.460335625E0,1.470987678E0,9.212965012E0,2.027917147E0
1.462835781E0,1.557129383E0,9.189037323E0,1.980060697E0
1.465335885E0,1.628913999E0,9.131608963E0,1.965703845E0
1.467836041E0,1.657627940E0,9.055039406E0,1.898704767E0
1.470216979E0,1.724626899E0,9.055039406E0,1.807777524E0
1.472717083E0,1.773081541E0,9.016754150E0,1.807777524E0
1.475217239E0,1.854437590E0,8.992825508E0,1.898704767E0
1.477717395E0,1.935793519E0,9.002396584E0,1.965703845E0
1.480217500E0,2.079362869E0,8.940183640E0,1.932204247E0
1.482717656E0,2.208575249E0,8.916254997E0,1.941775560E0
1.485217812E0,2.300100803E0,8.930612564E0,2.008774519E0
1.487717916E0,2.458027124E0,8.882756233E0,2.080559254E0
1.490218072E0,2.520240545E0,8.882756233E0,2.075773716E0
1.492718229E0,2.625524759E0,8.925827026E0,2.104487419E0
1.495218333E0,2.726023197E0,8.873184204E0,2.209771633E0
1.497718489E0,2.759522676E0,8.854042053E0,2.271985054E0
1.500060416E0,2.783450842E0,8.854042053E0,2.243271112E0
1.502560520E0,2.879761934E0,8.787042618E0,2.339582443E0
1.505060677E0,2.913261652E0,8.791828156E0,2.564507723E0
1.507560833E0,2.927618504E0,8.690732002E0,2.770290375E0
1.510060937E0,2.961117983E0,8.666803360E0,2.866601467E0
1.512561093E0,2.961117983E0,8.580661774E0,2.962314367E0
1.515061250E0,3.023331404E0,8.551948547E0,3.067598581E0
1.517561354E0,3.037688255E0,8.489734650E0,3.158525944E0
1.520061510E0,3.061616659E0,8.374878883E0,3.259024382E0
1.522561666E0,3.104687452E0,8.307880402E0,3.345165968E0
1.525061770E0,3.099901676E0,8.260024071E0,3.407977581E0
1.527561927E0,3.138186932E0,8.106285095E0,3.494119167E0
1.529904166E0,3.152543783E0,8.020143509E0,3.570689678E0
1.532401666E0,3.147758245E0,7.953144073E0,3.628117323E0
1.534899166E0,3.166900873E0,7.919644833E0,3.695116282E0
1.537396666E0,3.195614576E0,7.828717709E0,3.728615999E0
1.539894166E0,3.190829039E0,7.790432453E0,3.762115479E0
1.542391666E0,3.162115097E0,7.766504288E0,3.795614958E0
1.544889166E0,3.176471949E0,7.607979774E0,3.728615999E0
1.547386666E0,3.162115097E0,7.512266636E0,3.565903902E0
1.549884166E0,3.080759048E0,7.574480057E0,3.671188116E0
1.552381666E0,2.989831924E0,7.526623726E0,3.652045488E0
1.554879166E0,2.927618504E0,7.540980339E0,3.508476257E0
1.557376666E0,2.812762976E0,7.607979774E0,3.345165968E0
1.559747604E0,2.730808735E0,7.685148239E0,3.254238844E0
1.562245104E0,2.615953445E0,7.771289825E0,3.125026464E0
1.564742604E0,2.462812662E0,7.881359577E0,2.919243574E0
1.567240104E0,2.295315027E0,8.058428764E0,2.784647465E0
1.569737604E0,2.141576290E0,8.221738815E0,2.612364054E0
1.572235104E0,2.088934183E0,8.422736168E0,2.392224550E0
1.574732604E0,2.165504456E0,8.657232285E0,2.224128723E0
1.577230104E0,2.002792597E0,9.007183075E0,1.980060697E0
1.579727604E0,1.739582062E0,9.304491043E0,1.913061738E0
1.582225104E0,1.581057549E0,9.591629982E0,1.798206210E0
1.584722604E0,1.432702541E0,9.888937950E0,1.682752490E0
1.587220104E0,1.389631748E0,1.008036327E1,1.591825247E0
1.589590989E0,1.423131227E0,1.028614616E1,1.543968797E0
1.592088489E0,1.394417405E0,1.051167011E1,1.333400369E0
1.594585989E0,1.370489120E0,1.072702408E1,1.280758262E0
1.597083489E0,1.356132269E0,1.092861938E1,1.208375454E0
1.599580989E0,1.269990563E0,1.106261730E1,1.213161111E0
1.602078489E0,1.192822099E0,1.118704414E1,1.232901812E0
1.604575989E0,1.054038405E0,1.137906837E1,1.304686546E0
1.607073489E0,1.020538807E0,1.140778160E1,1.309472203E0
1.609570989E0,1.010967612E0,1.142213917E1,1.328614831E0
1.612068489E0,9.152546525E-1,1.144606686E1,1.376471281E0
1.614565989E0,8.099704385E-1,1.139342499E1,1.481755376E0
1.617063489E0,6.083751321E-1,1.135932732E1,1.634896040E0
1.619434375E0,4.839483798E-1,1.127318573E1,1.740180254E0
1.621931927E0,3.308077157E-1,1.123968601E1,1.860419631E0
1.624429375E0,2.015953064E-1,1.108175945E1,1.927418590E0
1.626926875E0,5.264209956E-2,1.100040436E1,1.936989903E0
1.629424375E0,-6.221338734E-2,1.085683441E1,2.003988981E0
1.631921875E0,-1.531406492E-1,1.073659515E1,1.960918188E0
1.634419375E0,-3.445664644E-1,1.065045357E1,1.975275040E0
1.636916875E0,-4.456632137E-1,1.051645565E1,1.903490424E0
1.639414375E0,-5.174478889E-1,1.042552853E1,1.802991867E0
1.641911875E0,-5.844469070E-1,1.029571724E1,1.687538147E0
1.644409375E0,-7.615157962E-1,1.020479012E1,1.639681697E0
1.646906875E0,-9.583254457E-1,1.023350430E1,1.596610904E0
1.649277760E0,-9.870393276E-1,1.014257717E1,1.486541033E0
1.651775260E0,-8.763712645E-1,1.001815033E1,1.314257860E0
1.654272760E0,-8.524430394E-1,1.000857925E1,1.131805062E0
1.656770260E0,-9.002995491E-1,9.989436150E0,9.690931439E-1
1.659267760E0,-9.439685345E-1,9.994221687E0,8.350951076E-1
1.661765260E0,-9.391828775E-1,1.005165005E1,7.058826685E-1
1.664262760E0,-9.290133715E-1,1.006122112E1,5.090730190E-1
1.666760260E0,-8.524430394E-1,1.007079220E1,2.937189937E-1
1.669257760E0,-6.897311211E-1,1.008993530E1,1.208375469E-1
1.671755260E0,-5.174478889E-1,1.009950638E1,-1.567298770E-1
1.674252760E0,-3.876372576E-1,1.008514881E1,-3.577269912E-1
1.676750260E0,-2.823530734E-1,1.002293587E1,-5.210371017E-1
1.679121197E0,-1.866401732E-1,9.917651176E0,-6.789634228E-1
1.681618750E0,1.435693540E-2,9.821938515E0,-8.225327730E-1
1.684116197E0,1.728814393E-1,9.649057388E0,-9.571290612E-1
1.686613697E0,2.829512656E-1,9.505488396E0,-1.028913736E0
1.689111197E0,3.738785386E-1,9.328418732E0,-1.148554921E0
1.691608697E0,5.222335458E-1,9.165108681E0,-1.253839016E0
1.694106197E0,6.179464459E-1,8.968897820E0,-1.287338614E0
1.696603697E0,7.190431952E-1,8.806185722E0,-1.406979680E0
1.699101197E0,7.668996453E-1,8.657232285E0,-1.450050473E0
1.701598697E0,8.817551732E-1,8.504091263E0,-1.508076429E0
1.704096197E0,9.774680734E-1,8.389236450E0,-1.517647743E0
1.706593697E0,1.020538807E0,8.307880402E0,-1.546361685E0
1.708964583E0,1.087537885E0,8.149355888E0,-1.555932879E0
1.711462083E0,1.192822099E0,7.938787460E0,-1.541576028E0
1.713959583E0,1.265205026E0,7.833503246E0,-1.512862086E0
1.716457083E0,1.317847013E0,7.752147198E0,-1.445264935E0
1.718954583E0,1.332203984E0,7.637291908E0,-1.387837172E0
1.721452083E0,1.322632670E0,7.545766354E0,-1.363908887E0
1.723949583E0,1.413560033E0,7.454838753E0,-1.320838094E0
1.726447083E0,1.351346612E0,7.373483181E0,-1.229910851E0
1.728944583E0,1.380060434E0,7.268198967E0,-1.148554921E0
1.731442083E0,1.413560033E0,7.153343201E0,-1.057627559E0
1.733939583E0,1.375274777E0,7.090531826E0,-9.810572863E-1
1.736437083E0,1.418345571E0,7.047461033E0,-8.703892231E-1
1.738808020E0,1.418345571E0,6.980462074E0,-7.842476368E-1
1.741305520E0,1.456630826E0,6.966104984E0,-6.358926296E-1
1.743803020E0,1.585843205E0,6.951747894E0,-5.018945336E-1
1.746300520E0,1.576271892E0,6.913462639E0,-3.290131092E-1
1.748798020E0,1.552343726E0,6.956533432E0,-8.973085135E-2
1.751295520E0,1.576271892E0,6.999604225E0,1.256231815E-1
1.753793020E0,1.561915040E0,7.129415035E0,2.985046208E-1
1.756290520E0,1.542772412E0,7.258627415E0,4.325026870E-1
1.758788020E0,1.418345571E0,7.464410305E0,4.947160780E-1
1.761285520E0,1.289133191E0,7.704290867E0,5.808576941E-1
1.763783020E0,1.207777262E0,7.948358536E0,7.489534616E-1
1.766280572E0,1.173679471E0,8.245666504E0,8.638089895E-1
1.768651406E0,1.236491084E0,8.542376518E0,9.308080077E-1
1.771148906E0,1.346560955E0,8.834898949E0,1.045663476E0
1.773646406E0,1.470987678E0,9.193822861E0,1.021735311E0
1.776143906E0,1.461416483E0,9.610772133E0,9.978070259E-1
1.778641406E0,1.475773335E0,1.002772141E1,9.643075466E-1
1.781138906E0,1.384846091E0,1.048774147E1,8.733802438E-1
1.783636406E0,1.236491084E0,1.095733356E1,7.250252366E-1
1.786133906E0,1.030110121E0,1.145563793E1,7.824530005E-1
1.788631406E0,6.855437160E-1,1.199701500E1,9.595218897E-1
1.791128906E0,3.355933726E-1,1.244746304E1,1.319043517E0
1.793626406E0,5.264209956E-2,1.276810169E1,1.716252089E0
1.796123906E0,-1.770688742E-1,1.304148197E1,2.109273195E0
1.798494843E0,-3.637090325E-1,1.322812176E1,2.468794823E0
1.800992343E0,-5.413761139E-1,1.340519047E1,2.770290375E0
1.803489843E0,-6.658028960E-1,1.336690521E1,3.172882795E0
1.805987343E0,-7.710871100E-1,1.336211967E1,3.470191002E0
1.808484843E0,-1.020538807E0,1.329512119E1,3.656831264E0
1.810982343E0,-1.317248821E0,1.310848045E1,3.843471289E0
1.813479843E0,-1.643270969E0,1.284467220E1,3.881756544E0
1.815977343E0,-1.892124534E0,1.264367485E1,3.829114437E0
1.818474843E0,-1.901695848E0,1.259103298E1,3.786043644E0
1.820972343E0,-1.978266120E0,1.269631672E1,3.652045488E0
1.823469843E0,-2.108076811E0,1.275853062E1,3.484548092E0
1.825967343E0,-2.203789711E0,1.281117249E1,3.230310678E0
1.828338281E0,-2.199003935E0,1.296909904E1,2.943171740E0
1.830835781E0,-2.079362869E0,1.307019520E1,2.679363251E0
1.833333281E0,-1.963909149E0,1.312762356E1,2.487937450E0
1.835830781E0,-1.772483349E0,1.308455276E1,2.440080881E0
1.838328281E0,-1.796411633E0,1.322333622E1,2.176272154E0
1.840825781E0,-1.791625977E0,1.335254860E1,1.817348838E0
1.843323281E0,-1.681556106E0,1.340040493E1,1.539183140E0
1.845820781E0,-1.609771490E0,1.353021526E1,1.218544960E0
1.848318281E0,-1.719841242E0,1.363071442E1,9.212366939E-1
1.850815781E0,-1.719841242E0,1.363549995E1,5.712863803E-1
1.853313281E0,-1.465603828E0,1.350568962E1,3.798605800E-1
1.855810781E0,-1.336391449E0,1.337647724E1,2.937189937E-1
1.858181718E0,-1.159322619E0,1.327119255E1,1.692921966E-1
1.860679218E0,-9.439685345E-1,1.309890938E1,2.512463741E-2
1.863176718E0,-6.179464459E-1,1.282552910E1,-4.666004330E-2
1.865674218E0,-3.349951804E-1,1.251446247E1,-3.230310604E-2
1.868171718E0,-1.052841991E-1,1.213101292E1,1.304088384E-1
1.870669218E0,2.685943544E-1,1.165184975E1,2.793620527E-1
1.873166718E0,6.562315822E-1,1.120140076E1,3.942175210E-1
1.875664218E0,9.678967595E-1,1.085204887E1,6.095715761E-1
1.878161718E0,1.077966571E0,1.058824062E1,9.212366939E-1
1.880659218E0,1.121037364E0,1.030588722E1,1.127019525E0
1.883156718E0,1.121037364E0,1.008514881E1,1.160519004E0
1.885654218E0,1.044467092E0,9.831509590E0,1.218544960E0
1.888025156E0,9.248259664E-1,9.677771568E0,1.342971683E0
1.890522656E0,7.477570772E-1,9.558130264E0,1.548754454E0
1.893020156E0,5.174478889E-1,9.457631111E0,1.725823283E0
1.895517656E0,2.925225794E-1,9.366703987E0,1.884347796E0
1.898015156E0,1.441675574E-1,9.280562401E0,2.003988981E0
1.900512656E0,4.785645381E-2,9.266205788E0,2.200200319E0
1.903010156E0,-6.699903309E-2,9.160323143E0,2.248056889E0
1.905507656E0,-1.339980662E-1,9.107681274E0,2.271985054E0
1.908005156E0,-1.435693651E-1,9.107681274E0,2.392224550E0
1.910502656E0,-2.297109663E-1,9.055039406E0,2.545365095E0
1.913000156E0,-2.105683982E-1,8.983254433E0,2.636292458E0
1.915497656E0,-2.584248483E-1,8.925827026E0,2.722434044E0
1.917868593E0,-2.871387303E-1,8.854042053E0,2.900100946E0
1.920366093E0,-3.828516304E-1,8.839685440E0,3.058027267E0
1.922863593E0,-4.695914388E-1,8.830113411E0,3.105883837E0
1.925361093E0,-4.983053207E-1,8.796614647E0,3.215953588E0
1.927858593E0,-5.461617708E-1,8.844470978E0,3.235096216E0
1.930356093E0,-5.461617708E-1,8.877969742E0,3.230310678E0
1.932853593E0,-5.605186820E-1,8.863613129E0,3.215953588E0
1.935351093E0,-5.413761139E-1,8.834898949E0,3.201596737E0
1.937848593E0,-5.174478889E-1,8.777471542E0,3.201596737E0
1.940346093E0,-5.461617708E-1,8.868398666E0,3.139383316E0
1.942843593E0,-5.270192027E-1,8.973683357E0,3.120240688E0
1.945341093E0,-5.557330847E-1,9.007183075E0,3.182454109E0
1.947712031E0,-6.227321029E-1,9.117252350E0,3.311666489E0
1.950209531E0,-6.562315822E-1,9.165108681E0,3.297309637E0
1.952707031E0,-6.849454641E-1,9.198608398E0,3.230310678E0
1.955204531E0,-6.131607890E-1,9.212965012E0,3.235096216E0
1.957702031E0,-5.365904570E-1,9.222537041E0,3.335594654E0
1.960199531E0,-5.413761139E-1,9.222537041E0,3.326023579E0
1.962697031E0,-5.174478889E-1,9.309276581E0,3.249453068E0
1.965194531E0,-4.648058116E-1,9.376275063E0,3.153740168E0
1.967692031E0,-4.408775866E-1,9.433703423E0,2.976671457E0
1.970189531E0,-4.121637046E-1,9.500701904E0,2.866601467E0
1.972687031E0,-3.206382394E-1,9.505488396E0,2.775076151E0
1.975184531E0,-2.584248483E-1,9.543772697E0,2.779861689E0
1.977555468E0,-2.201396823E-1,9.596415520E0,2.684148788E0
1.980052968E0,-1.004985496E-1,9.538987160E0,2.607578516E0
1.982550468E0,-4.307080805E-2,9.577272415E0,2.583650351E0
1.985047968E0,6.221338734E-2,9.591629982E0,2.583650351E0
1.987545468E0,5.742774159E-2,9.629914284E0,2.669791937E0
1.990042968E0,1.345962733E-1,9.639486313E0,2.636292458E0
1.992540468E0,2.207378894E-1,9.639486313E0,2.669791937E0
1.995037968E0,2.877369225E-1,9.582057953E0,2.712862730E0
1.997535468E0,3.690928817E-1,9.538987160E0,2.732005358E0
2.000032968E0,4.648058116E-1,9.572486877E0,2.779861689E0
2.002530468E0,5.413761139E-1,9.586843491E0,2.818146944E0
2.005027968E0,6.083751321E-1,9.548559189E0,2.823530674E0
2.007398906E0,6.562315822E-1,9.591629982E0,2.876172781E0
2.009896406E0,6.855437160E-1,9.562915802E0,2.986242771E0
2.012393906E0,7.046862841E-1,9.510273933E0,3.038884640E0
2.014891406E0,6.999006271E-1,9.553344727E0,3.014956474E0
2.017388906E0,7.334001660E-1,9.510273933E0,3.019742250E0
2.019886406E0,8.099704385E-1,9.476774216E0,2.967100143E0
2.022383906E0,8.530412912E-1,9.323633194E0,3.062813044E0
2.024881406E0,9.822536707E-1,9.237491608E0,3.077169895E0
2.027378906E0,1.077966571E0,9.088538170E0,3.110669374E0
2.029876406E0,1.077966571E0,8.940183640E0,3.144168854E0
2.032373906E0,1.030110121E0,8.839685440E0,3.215953588E0
2.034871406E0,1.039681435E0,8.753543854E0,3.302095175E0
2.037242708E0,9.918249846E-1,8.638090134E0,3.427120209E0
2.039738125E0,9.056833982E-1,8.551948547E0,3.585046530E0
2.042233489E0,9.152546525E-1,8.513663292E0,3.628117323E0
2.044728854E0,9.056833982E-1,8.422736168E0,3.699902058E0
2.047224270E0,8.338986635E-1,8.341380119E0,3.752544165E0
2.049719635E0,8.051848412E-1,8.303094864E0,3.675973892E0
2.052215052E0,7.956135273E-1,8.216953278E0,3.675973892E0
2.054710416E0,8.003991842E-1,8.149355888E0,3.733401537E0
2.057205833E0,7.668996453E-1,8.091927528E0,3.738187075E0
2.059701197E0,7.381857634E-1,8.072785378E0,3.752544165E0
2.062196614E0,6.951149702E-1,8.029714584E0,3.790829182E0
2.064691979E0,6.370890141E-1,8.010572433E0,3.829114437E0
2.067086145E0,4.983053207E-1,8.029714584E0,3.786043644E0
2.069581510E0,3.690928817E-1,8.058428764E0,3.800400496E0
2.072076927E0,2.733799815E-1,8.134998322E0,3.795614958E0
2.074572291E0,2.446661144E-1,8.197810173E0,3.829114437E0
2.077067708E0,2.255235314E-1,8.216953278E0,3.824328899E0
2.079563072E0,1.585244983E-1,8.279166222E0,3.790829182E0
2.082058489E0,3.828516230E-2,8.312665939E0,3.814757586E0
2.084553854E0,-8.614161611E-2,8.322237015E0,3.901497364E0
2.087049270E0,-1.674975902E-1,8.331808090E0,3.906282902E0
2.089544635E0,-2.249253243E-1,8.389236450E0,3.911068678E0
2.092040052E0,-3.014956415E-1,8.384450912E0,3.896711588E0
2.094535416E0,-3.493520916E-1,8.398807526E0,3.848257065E0
2.096929583E0,-4.169493318E-1,8.422736168E0,3.805186272E0
2.099424947E0,-4.648058116E-1,8.470592499E0,3.800400496E0
2.101920364E0,-5.078766346E-1,8.398807526E0,3.742972851E0
2.104415729E0,-5.892325640E-1,8.432307243E0,3.781257868E0
2.106911145E0,-6.131607890E-1,8.432307243E0,3.776472330E0
2.109406510E0,-6.418746710E-1,8.408378601E0,3.752544165E0
2.111901927E0,-7.423732281E-1,8.437092781E0,3.747758389E0
2.114397291E0,-8.093722463E-1,8.374878883E0,3.800400496E0
2.116892708E0,-9.050851464E-1,8.327022552E0,3.862613916E0
2.119388072E0,-9.726824164E-1,8.250452042E0,3.911068678E0
2.121883489E0,-1.058824062E0,8.207381248E0,3.997210264E0
2.124378854E0,-1.140179992E0,8.134998322E0,4.001996040E0
2.126773020E0,-1.183250785E0,8.082356453E0,4.006781578E0
2.129268385E0,-1.211964726E0,8.053643227E0,4.092923164E0
2.131763802E0,-1.245464206E0,7.953144073E0,4.121636868E0
2.134259166E0,-1.288534999E0,7.886145115E0,4.174279213E0
2.136754583E0,-1.326820135E0,7.852645874E0,4.193421841E0
2.139249947E0,-1.393819213E0,7.833503246E0,4.179064751E0
2.141745364E0,-1.456032634E0,7.771289825E0,4.207778454E0
2.144240781E0,-1.523629785E0,7.709076405E0,4.222135544E0
2.146736145E0,-1.557129383E0,7.704290867E0,4.183850288E0
2.149231510E0,-1.695913076E0,7.670791149E0,4.174279213E0
2.151726927E0,-1.748555183E0,7.651648521E0,4.088137627E0
2.154222291E0,-1.820339799E0,7.651648521E0,4.054637909E0
2.156616458E0,-1.887338877E0,7.637291908E0,3.949353695E0
2.159111822E0,-1.920838356E0,7.603193760E0,3.915854216E0
2.161607239E0,-1.949552298E0,7.607979774E0,3.963710785E0
2.164102604E0,-1.992623091E0,7.569694519E0,3.954139471E0
2.166598020E0,-2.060220242E0,7.584051132E0,3.925425529E0
2.169093385E0,-2.136790514E0,7.531409264E0,3.978067636E0
2.171588802E0,-2.175075769E0,7.502695560E0,4.059423447E0
2.174084166E0,-2.213361025E0,7.545766354E0,4.159922123E0
2.176579583E0,-2.218146563E0,7.526623726E0,4.174279213E0
2.179074947E0,-2.227717876E0,7.502695560E0,4.303491592E0
2.181570364E0,-2.155933142E0,7.497909546E0,4.466801643E0
2.184065729E0,-2.213361025E0,7.550551891E0,4.581656933E0
2.186459947E0,-2.222932339E0,7.517052174E0,4.619942188E0
2.188955312E0,-2.218146563E0,7.493124008E0,4.619942188E0
2.191450729E0,-2.050648928E0,7.488338470E0,4.753940582E0
2.193946093E0,-1.896910191E0,7.378268719E0,4.916652203E0
2.196441510E0,-1.729412556E0,7.249056339E0,5.146961689E0
2.198936875E0,-1.695913076E0,7.292127132E0,5.304887772E0
2.201432291E0,-1.628913999E0,7.287341595E0,5.300102234E0
2.203927656E0,-1.590628862E0,7.292127132E0,5.424529076E0
2.206423072E0,-1.542772412E0,7.292127132E0,5.516054630E0
2.208918437E0,-1.470389485E0,7.330412388E0,5.602196217E0
2.211413854E0,-1.412961721E0,7.330412388E0,5.673980713E0
2.213909218E0,-1.336391449E0,7.383054256E0,5.712265968E0
2.216303385E0,-1.255035520E0,7.450053215E0,5.788836002E0
2.218798750E0,-1.235892892E0,7.579265594E0,5.807978630E0
2.221294166E0,-1.211964726E0,7.713861942E0,5.812764645E0
2.223789531E0,-1.173679471E0,7.823931694E0,5.827121258E0
2.226284947E0,-1.130608678E0,7.948358536E0,5.798407555E0
2.228780312E0,-1.073180914E0,8.120641708E0,5.750551224E0
2.231275729E0,-1.092323542E0,8.173882484E0,5.717051506E0
2.233771093E0,-1.058824062E0,8.331808090E0,5.683551788E0
2.236266510E0,-1.025324464E0,8.441878319E0,5.554339409E0
2.238761875E0,-1.015753269E0,8.523234367E0,5.501697540E0
2.241257291E0,-1.025324464E0,8.585447311E0,5.376672268E0
2.243752656E0,-1.039681435E0,8.638090134E0,5.290530682E0
2.246146770E0,-1.044467092E0,8.690732002E0,5.180460930E0
2.248642135E0,-1.054038405E0,8.767900467E0,5.060820103E0
2.251137552E0,-1.058824062E0,8.796614647E0,4.993820667E0
2.253632916E0,-1.111466169E0,8.801400185E0,4.883152962E0
2.256128333E0,-1.116251707E0,8.801400185E0,4.787439823E0
2.258623697E0,-1.068395257E0,8.748757362E0,4.734797955E0
2.261119114E0,-1.058824062E0,8.734400749E0,4.686941147E0
2.263614479E0,-1.063609719E0,8.700901031E0,4.596014023E0
2.266109895E0,-1.077966571E0,8.681160927E0,4.581656933E0
2.268605260E0,-1.082752228E0,8.657232285E0,4.576871395E0
2.271100677E0,-1.101894855E0,8.599804878E0,4.591228485E0
2.273596041E0,-1.125823021E0,8.556734085E0,4.576871395E0
2.275990260E0,-1.135394335E0,8.513663292E0,4.548157692E0
2.278485625E0,-1.144965649E0,8.532805443E0,4.605585575E0
2.280981041E0,-1.154536963E0,8.504091263E0,4.639084816E0
2.283476406E0,-1.183250785E0,8.518448830E0,4.677370071E0
2.285971822E0,-1.211964726E0,8.475378036E0,4.710869789E0
2.288467187E0,-1.221535921E0,8.470592499E0,4.744369030E0
2.290962604E0,-1.255035520E0,8.499305725E0,4.744369030E0
2.293457968E0,-1.255035520E0,8.523234367E0,4.777868748E0
2.295953385E0,-1.283749342E0,8.590232849E0,4.854438782E0
2.298448750E0,-1.312463164E0,8.604590416E0,4.868795872E0
2.300944166E0,-1.264606714E0,8.618947029E0,4.911866665E0
2.303439531E0,-1.274178028E0,8.690732002E0,4.945366383E0
2.305833697E0,-1.298106313E0,8.720044136E0,4.984249592E0
2.308329062E0,-1.269392371E0,8.825327873E0,5.041677475E0
2.310824479E0,-1.250249863E0,8.887541771E0,5.070391178E0
2.313319843E0,-1.259821177E0,8.988039970E0,5.084748268E0
2.315815260E0,-1.240678549E0,9.074181557E0,5.166104317E0
2.318310625E0,-1.197607756E0,9.145966530E0,5.280959606E0
2.320806041E0,-1.130608678E0,9.290133476E0,5.300102234E0
2.323301406E0,-1.097109199E0,9.404989243E0,5.410171986E0
2.325796822E0,-1.063609719E0,9.500701904E0,5.486742496E0
2.328292187E0,-1.025324464E0,9.610772133E0,5.530411243E0
2.330787604E0,-9.822536707E-1,9.716055870E0,5.630909920E0
2.333282968E0,-9.678967595E-1,9.812367439E0,5.669195175E0
2.335677135E0,-9.918249846E-1,9.836296082E0,5.669195175E0
2.338172500E0,-9.487541914E-1,9.860223770E0,5.673980713E0
2.340667916E0,-9.146564603E-1,9.912865639E0,5.616552830E0
2.343163281E0,-9.002995491E-1,9.922437668E0,5.563910961E0
2.345658697E0,-8.093722463E-1,9.970293999E0,5.501697540E0
2.348154062E0,-7.471588850E-1,1.003250694E1,5.338387489E0
2.350649479E0,-6.275177598E-1,1.010907745E1,5.233103275E0
2.353144843E0,-4.887340367E-1,1.017129040E1,5.146961689E0
2.355640260E0,-4.073780477E-1,1.023828983E1,5.032105923E0
2.358135625E0,-3.445664644E-1,1.035374355E1,4.844867706E0
2.360631041E0,-2.488535494E-1,1.046859932E1,4.715655327E0
2.363126406E0,-1.052841991E-1,1.060738277E1,4.481158733E0
2.365520572E0,-3.349951655E-2,1.073180962E1,4.308277130E0
2.368015937E0,6.699903309E-2,1.080359459E1,4.164707661E0
2.370511354E0,2.207378894E-1,1.095254707E1,3.872185230E0
2.373006718E0,2.446661144E-1,1.112004471E1,3.632902861E0
2.375502135E0,3.164508045E-1,1.134975624E1,3.407977581E0
2.377997500E0,3.308077157E-1,1.149392319E1,3.120240688E0
2.380492916E0,3.643072546E-1,1.173320580E1,2.861815929E0
2.382988281E0,3.930211067E-1,1.193958664E1,2.598007202E0
2.385483697E0,3.786641955E-1,1.219322586E1,2.401795626E0
2.387979062E0,3.212364316E-1,1.239900875E1,2.291725874E0
2.390474479E0,2.303091735E-1,1.261974621E1,2.137987137E0
2.392969843E0,1.004985496E-1,1.288295746E1,2.056631088E0
2.395364010E0,-3.349951655E-2,1.311805153E1,1.951346874E0
2.397859375E0,-1.196411327E-1,1.336211967E1,1.956132531E0
2.400354791E0,-2.919243574E-1,1.348654652E1,1.946561217E0
2.402850156E0,-5.030909777E-1,1.371685600E1,1.917847395E0
2.405345572E0,-7.280163169E-1,1.389392471E1,2.003988981E0
2.407840937E0,-9.337990284E-1,1.403270817E1,2.056631088E0
2.410336354E0,-1.130608678E0,1.413859081E1,2.228914261E0
2.412831718E0,-1.350748420E0,1.426301765E1,2.406581402E0
2.415327135E0,-1.614557028E0,1.431087399E1,2.617149830E0
2.417822500E0,-1.892124534E0,1.420080376E1,2.895315409E0
2.420317916E0,-2.280359983E0,1.388913918E1,3.220739365E0
2.422813281E0,-2.759522676E0,1.329512119E1,3.532404423E0
2.425207500E0,-2.989233732E0,1.270110226E1,3.709473372E0
2.427702864E0,-2.912663460E0,1.190070343E1,3.766901016E0
2.430198281E0,-2.592025042E0,1.116790104E1,3.747758389E0
2.432693645E0,-2.318645239E0,1.046859932E1,3.613760471E0
2.435189062E0,-2.074577332E0,9.778867722E0,3.398406267E0
2.437684427E0,-1.676770449E0,9.217751503E0,3.110669374E0
2.440179843E0,-1.365105271E0,8.720044136E0,2.732005358E0
2.442675208E0,-1.030110121E0,8.269595146E0,2.296511650E0
2.445170625E0,-7.232306600E-1,7.890930653E0,1.841277003E0
2.447665989E0,-3.876372576E-1,7.536194801E0,1.457827210E0
2.450161406E0,1.914258115E-2,7.253841877E0,1.122233868E0
2.452656770E0,5.413761139E-1,6.970890522E0,7.824530005E-1
2.455050937E0,1.020538807E0,6.745965004E0,5.712863803E-1
2.457546302E0,1.413560033E0,6.592824459E0,3.894318938E-1
2.460041718E0,1.777867198E0,6.463014126E0,3.128615618E-1
2.462537083E0,2.041077614E0,6.367300987E0,2.075773627E-1
2.465032500E0,2.256431818E0,6.262016773E0,1.351944804E-1
2.467527864E0,2.357528448E0,6.233303070E0,1.208375469E-1
2.470023281E0,2.290529490E0,6.252445698E0,1.645065546E-1
2.472518645E0,2.194218397E0,6.228517532E0,1.980060786E-1
2.475014062E0,2.031506538E0,6.295516491E0,2.650051117E-1
2.477509427E0,1.758724689E0,6.463014126E0,2.889333367E-1
2.480004843E0,1.561915040E0,6.549155712E0,2.650051117E-1
2.482500208E0,1.408774376E0,6.669394970E0,2.745763958E-1
2.484894375E0,1.226919770E0,6.851249218E0,2.697907388E-1
2.487389739E0,1.063609719E0,7.004390240E0,1.836491376E-1
2.489885156E0,9.343972206E-1,7.119843960E0,1.016949639E-1
2.492380520E0,8.099704385E-1,7.249056339E0,-3.589233849E-3
2.494875937E0,6.227321029E-1,7.387839794E0,-1.040877849E-1
2.497371302E0,3.930211067E-1,7.632505894E0,-5.623133108E-2
2.499866718E0,1.680957973E-1,7.996214867E0,2.991028316E-2
2.502362083E0,0.000000000E0,8.255238533E0,2.362912297E-1
2.504857500E0,-1.339980662E-1,8.484949112E0,4.181457460E-1
2.507352864E0,-2.297109663E-1,8.739186287E0,6.095715761E-1
2.509848281E0,-2.967100143E-1,9.045467377E0,8.542376757E-1
2.512343645E0,-3.445664644E-1,9.357132912E0,1.064806104E0
2.514737812E0,-3.924229145E-1,9.701699257E0,1.333400369E0
2.517233177E0,-3.206382394E-1,9.960722923E0,1.500898004E0
2.519728593E0,-2.967100143E-1,1.036331463E1,1.725823283E0
2.522223958E0,-3.493520916E-1,1.075095177E1,2.023131609E0
2.524719375E0,-3.110669553E-1,1.114875889E1,2.344367981E0
2.527214739E0,-2.201396823E-1,1.165663528E1,2.708076954E0
2.529710156E0,-4.307080805E-2,1.201615715E1,3.005385160E0
2.532205520E0,3.828516230E-2,1.237508011E1,3.244667530E0
2.534700937E0,1.776670814E-1,1.270110226E1,3.412763357E0
2.537196302E0,3.834498227E-1,1.300798225E1,3.522833109E0
2.539691718E0,5.796613097E-1,1.322812176E1,3.671188116E0
2.542187083E0,7.812566161E-1,1.342911911E1,3.771686792E0
2.544581562E0,9.343972206E-1,1.370249844E1,3.838685751E0
2.547075260E0,1.140179992E0,1.382213974E1,3.766901016E0
2.549568958E0,1.408774376E0,1.382213974E1,3.714258909E0
2.552062656E0,1.811366796E0,1.360200024E1,3.714258909E0
2.554556354E0,2.222932339E0,1.341954803E1,3.675973892E0
2.557050052E0,2.644667149E0,1.314198017E1,3.632902861E0
2.559543750E0,2.913261652E0,1.291167068E1,3.527618885E0
2.562037500E0,3.004188776E0,1.263888931E1,3.388834953E0
2.564531197E0,3.004188776E0,1.224108219E1,3.306880951E0
2.567024895E0,3.123830080E0,1.174756241E1,3.230310678E0
2.569518593E0,3.339184046E0,1.134018517E1,3.125026464E0
2.572012291E0,3.397209883E0,1.091904831E1,3.034099102E0
2.574424947E0,3.354139090E0,1.050688457E1,2.976671457E0
2.576918645E0,3.368496180E0,1.009472084E1,2.943171740E0
2.579412343E0,3.354139090E0,9.783653259E0,2.991028309E0
2.581906041E0,3.300898790E0,9.400203705E0,3.043670416E0
2.584399739E0,3.272184849E0,9.045467377E0,3.115455151E0
2.586893437E0,3.229114056E0,8.638090134E0,3.177668571E0
2.589387135E0,3.253042459E0,8.144570351E0,3.302095175E0
2.591880885E0,3.315255880E0,7.459624767E0,3.532404423E0
2.594374583E0,3.128615618E0,7.253841877E0,3.489333630E0
2.596868281E0,2.812762976E0,7.277770042E0,3.220739365E0
2.599361979E0,2.620738983E0,7.249056339E0,3.010170937E0
2.601855677E0,2.553740025E0,7.229913712E0,2.794218540E0
2.604268437E0,2.534597397E0,7.229913712E0,2.679363251E0
2.606762135E0,2.458027124E0,7.349554539E0,2.583650351E0
2.609255833E0,2.467598438E0,7.473981380E0,2.531008244E0
2.611749531E0,2.472383976E0,7.550551891E0,2.497508526E0
2.614243229E0,2.429313183E0,7.685148239E0,2.444866419E0
2.616736927E0,2.338385820E0,7.819146156E0,2.334796667E0
2.619230625E0,2.266003132E0,7.934001446E0,2.281556368E0
2.621724375E0,2.290529490E0,7.948358536E0,2.291725874E0
2.624218072E0,2.410170555E0,7.876574039E0,2.306082726E0
2.626711770E0,2.376671076E0,7.795217991E0,2.420938253E0
2.629205468E0,2.237289190E0,7.776075363E0,2.636292458E0
2.631699166E0,2.088934183E0,7.814360619E0,2.823530674E0
2.634111875E0,1.954936147E0,7.977072716E0,3.019742250E0
2.636605572E0,1.797009826E0,8.130212784E0,3.168097258E0
2.639099270E0,1.695913076E0,8.327022552E0,3.206382275E0
2.641592968E0,1.662413478E0,8.403593063E0,3.254238844E0
2.644086666E0,1.628913999E0,8.532805443E0,3.335594654E0
2.646580364E0,1.600200176E0,8.638090134E0,3.379263878E0
2.649074062E0,1.681556106E0,8.777471542E0,3.282952785E0
2.651567812E0,1.667199135E0,8.863613129E0,3.206382275E0
2.654061510E0,1.619342685E0,8.935398102E0,3.091526747E0
2.656555208E0,1.571486235E0,9.078967094E0,2.924029350E0
2.659048906E0,1.451845169E0,9.179466248E0,2.803789854E0
2.661542604E0,1.351346612E0,9.217751503E0,2.703291416E0
2.663955312E0,1.231705427E0,9.342776299E0,2.511865616E0
2.666449010E0,1.168893814E0,9.433703423E0,2.430509567E0
2.668942708E0,1.077966571E0,9.452845573E0,2.411366940E0
2.671436406E0,1.010967612E0,9.519845009E0,2.330011129E0
2.673930104E0,1.001396298E0,9.481559753E0,2.224128723E0
2.676423802E0,9.152546525E-1,9.510273933E0,2.147558212E0
2.678917500E0,8.291130662E-1,9.519845009E0,2.070987940E0
2.681411250E0,7.046862841E-1,9.486345291E0,1.984846354E0
2.683904947E0,5.557330847E-1,9.524630547E0,1.922633052E0
2.686398645E0,4.073780477E-1,9.529416084E0,1.941775560E0
2.688892343E0,2.638086975E-1,9.601201057E0,1.898704767E0
2.691386041E0,9.571290761E-2,9.625128746E0,1.932204247E0
2.693798750E0,-9.092725813E-2,9.687342644E0,1.989632010E0
2.696292447E0,-2.249253243E-1,9.696913719E0,2.008774519E0
2.698786145E0,-3.158525825E-1,9.668199539E0,2.075773716E0
2.701279843E0,-4.025924206E-1,9.706484795E0,2.137987137E0
2.703773541E0,-4.456632137E-1,9.716055870E0,2.128415823E0
2.706267239E0,-4.743770957E-1,9.739984512E0,2.123630047E0
2.708760937E0,-4.887340367E-1,9.802796364E0,2.042274237E0
2.711254687E0,-4.648058116E-1,9.817152977E0,2.027917147E0
2.713748385E0,-4.600201547E-1,9.836296082E0,2.023131609E0
2.716242083E0,-4.456632137E-1,9.821938515E0,1.956132531E0
2.718735781E0,-3.780659735E-1,9.821938515E0,1.917847395E0
2.721229479E0,-2.823530734E-1,9.812367439E0,1.913061738E0
2.723642187E0,-1.483550072E-1,9.821938515E0,1.884347796E0
2.726135885E0,-8.614161611E-2,9.783653259E0,1.798206210E0
2.728629583E0,2.392822690E-2,9.754341125E0,1.807777524E0
2.731123281E0,1.393819153E-1,9.735198975E0,1.822134495E0
2.733616979E0,2.590230405E-1,9.706484795E0,1.759921074E0
2.736110677E0,3.595215976E-1,9.629914284E0,1.730608940E0
2.738604375E0,4.456632137E-1,9.586843491E0,1.706680775E0
2.741098125E0,5.461617708E-1,9.529416084E0,1.654038668E0
2.743591822E0,6.711867452E-1,9.448060036E0,1.649253011E0
2.746085520E0,7.381857634E-1,9.404989243E0,1.644467354E0
2.748579218E0,8.195417523E-1,9.333204269E0,1.639681697E0
2.751072916E0,8.961120844E-1,9.266205788E0,1.654038668E0
2.753485625E0,9.535398483E-1,9.193822861E0,1.644467354E0
2.755979322E0,9.966106415E-1,9.102895737E0,1.740180254E0
2.758473020E0,1.049252748E0,9.088538170E0,1.730608940E0
2.760966718E0,1.097109199E0,9.002396584E0,1.654038668E0
2.763460416E0,1.149751306E0,8.940183640E0,1.620539188E0
2.765954114E0,1.125823021E0,8.935398102E0,1.658824325E0
2.768447812E0,1.101894855E0,8.940183640E0,1.730608940E0
2.770941562E0,1.077966571E0,8.921041489E0,1.725823283E0
2.773435260E0,1.077966571E0,8.877969742E0,1.755135417E0
2.775928958E0,1.068395257E0,8.882756233E0,1.749751568E0
2.778422656E0,1.101894855E0,8.901898384E0,1.793420553E0
2.780916354E0,1.121037364E0,8.944969177E0,1.802991867E0
2.783329062E0,1.111466169E0,8.973683357E0,1.701895118E0
2.785822760E0,1.073180914E0,9.083752632E0,1.558325768E0
2.788316458E0,1.092323542E0,9.122037888E0,1.529611826E0
2.790810156E0,1.068395257E0,9.141180992E0,1.534397483E0
2.793303854E0,1.010967612E0,9.198608398E0,1.548754454E0
2.795797552E0,1.039681435E0,9.217751503E0,1.596610904E0
2.798291250E0,1.054038405E0,9.227322578E0,1.692323804E0
2.800785000E0,1.101894855E0,9.217751503E0,1.779063582E0
2.803278697E0,1.164108157E0,9.232108116E0,1.831705689E0
2.805772395E0,1.260419369E0,9.222537041E0,1.879562140E0
2.808266093E0,1.274776220E0,9.232108116E0,1.884347796E0
2.810759791E0,1.289133191E0,9.198608398E0,1.889133453E0
2.813172447E0,1.246062398E0,9.294919968E0,1.908276081E0
2.815666145E0,1.236491084E0,9.280562401E0,1.917847395E0
2.818159843E0,1.217348576E0,9.270991325E0,1.908276081E0
2.820653541E0,1.250848055E0,9.266205788E0,1.984846354E0
2.823147239E0,1.289133191E0,9.270991325E0,2.003988981E0
2.825640937E0,1.317847013E0,9.193822861E0,1.946561217E0
2.828134635E0,1.308275819E0,9.208179474E0,1.908276081E0
2.830628385E0,1.313061476E0,9.160323143E0,1.946561217E0
2.833122083E0,1.313061476E0,9.155537605E0,1.965703845E0
2.835615781E0,1.351346612E0,9.165108681E0,1.989632010E0
2.838109479E0,1.427916884E0,9.179466248E0,1.951346874E0
2.840603177E0,1.499701619E0,9.136395454E0,1.917847395E0
2.843015833E0,1.533201098E0,9.145966530E0,1.927418590E0
2.845509531E0,1.547558069E0,9.189037323E0,1.922633052E0
2.848003229E0,1.542772412E0,9.247062683E0,1.922633052E0
2.850496927E0,1.585843205E0,9.247062683E0,1.984846354E0
2.852990625E0,1.614557028E0,9.247062683E0,2.023131609E0
2.855484322E0,1.652842283E0,9.304491043E0,2.090130568E0
2.857978020E0,1.710269928E0,9.256634712E0,2.027917147E0
2.860471770E0,1.710269928E0,9.237491608E0,2.018345833E0
2.862965468E0,1.763510346E0,9.266205788E0,2.099701881E0
2.865459166E0,1.825723648E0,9.299705505E0,2.157129526E0
2.867952864E0,1.892722726E0,9.266205788E0,2.271985054E0
2.870446562E0,1.969292998E0,9.222537041E0,2.281556368E0
2.872859270E0,2.017149448E0,9.266205788E0,2.238485575E0
2.875352968E0,2.021935225E0,9.232108116E0,2.204986095E0
2.877846666E0,2.036292076E0,9.212965012E0,2.224128723E0
2.880340364E0,2.108076811E0,9.203393936E0,2.214557409E0
2.882834062E0,2.112862349E0,9.189037323E0,2.171486616E0
2.885327760E0,2.108076811E0,9.102895737E0,2.085345030E0
2.887821458E0,2.132004976E0,9.064610481E0,1.908276081E0
2.890315208E0,2.170290232E0,8.988039970E0,1.984846354E0
2.892808906E0,2.155933142E0,8.944969177E0,2.128415823E0
2.895302604E0,2.151147604E0,8.882756233E0,2.114058733E0
2.897796302E0,2.160718918E0,8.839685440E0,2.123630047E0
2.900290000E0,2.151147604E0,8.801400185E0,2.099701881E0
2.902702656E0,2.160718918E0,8.720044136E0,2.099701881E0
2.905196354E0,2.155933142E0,8.595019341E0,2.042274237E0
2.907690052E0,2.136790514E0,8.542376518E0,1.836491346E0
2.910183750E0,2.203789711E0,8.451449394E0,1.846062660E0
2.912677447E0,2.227717876E0,8.456234932E0,1.975275040E0
2.915171145E0,2.194218397E0,8.379665375E0,2.018345833E0
2.917664843E0,2.155933142E0,8.384450912E0,1.951346874E0
2.920158593E0,2.208575249E0,8.312665939E0,1.779063582E0
2.922652291E0,2.237289190E0,8.264809608E0,1.855633974E0
2.925145989E0,2.179861546E0,8.317451477E0,1.893919110E0
2.927639687E0,2.199003935E0,8.336593628E0,1.865205288E0
2.930133385E0,2.165504456E0,8.379665375E0,1.841277003E0
2.932546093E0,2.155933142E0,8.494520187E0,1.922633052E0
2.935039791E0,2.194218397E0,8.580661774E0,1.994417667E0
2.937533489E0,2.184647083E0,8.705686569E0,1.932204247E0
2.940027187E0,2.151147604E0,8.787042618E0,1.980060697E0
2.942520885E0,2.165504456E0,8.901898384E0,2.008774519E0
2.945014583E0,2.194218397E0,9.011968613E0,1.975275040E0
2.947508281E0,2.189432621E0,9.193822861E0,2.032702923E0
2.950002031E0,2.295315027E0,9.309276581E0,2.099701881E0
2.952495729E0,2.381456852E0,9.481559753E0,2.118844509E0
2.954989427E0,2.304886341E0,9.634700775E0,2.224128723E0
2.957483125E0,2.333600283E0,9.754341125E0,2.416152716E0
2.959976822E0,2.381456852E0,9.884152412E0,2.478366137E0
2.962389531E0,2.395813704E0,9.912865639E0,2.483151674E0
2.964883229E0,2.419741869E0,9.999007225E0,2.358724833E0
2.967376927E0,2.338385820E0,1.015693378E1,2.248056889E0
2.969870625E0,2.338385820E0,1.019521904E1,2.296511650E0
2.972364322E0,2.261217356E0,1.021436119E1,2.281556368E0
2.974858020E0,2.309672117E0,1.019043350E1,2.267199516E0
2.977351718E0,2.352742910E0,1.021914768E1,2.368296146E0
2.979845468E0,2.352742910E0,1.024307537E1,2.444866419E0
2.982339166E0,2.381456852E0,1.014736271E1,2.473580360E0
2.984832864E0,2.414956331E0,1.013300610E1,2.406581402E0
2.987326562E0,2.333600283E0,1.009950638E1,2.334796667E0
2.989820260E0,2.199003935E0,1.009950638E1,2.330011129E0
2.992232916E0,2.136790514E0,1.006600666E1,2.306082726E0
2.994726614E0,2.079362869E0,9.989436150E0,2.315654039E0
2.997220312E0,1.993221283E0,9.927223206E0,2.204986095E0
2.999714010E0,1.945364833E0,9.802796364E0,2.161915302E0
3.002207708E0,1.873580098E0,9.701699257E0,2.123630047E0
3.004701406E0,1.773081541E0,9.553344727E0,2.114058733E0
3.007195104E0,1.638485312E0,9.428917885E0,2.047059774E0
3.009688854E0,1.561915040E0,9.376275063E0,2.008774519E0
3.012182552E0,1.485344648E0,9.232108116E0,1.951346874E0
3.014676250E0,1.399203062E0,9.169894218E0,1.917847395E0
3.017169947E0,1.293918848E0,9.107681274E0,1.879562140E0
3.019663645E0,1.183250785E0,9.069396019E0,1.807777524E0
3.022076302E0,1.092323542E0,9.011968613E0,1.755135417E0
3.024570000E0,1.001396298E0,8.992825508E0,1.721037745E0
3.027063697E0,8.673982024E-1,9.031110764E0,1.682752490E0
3.029557395E0,7.812566161E-1,9.093324661E0,1.682752490E0
3.032051093E0,6.514459848E-1,9.117252350E0,1.644467354E0
3.034544791E0,5.844469070E-1,9.122037888E0,1.634896040E0
3.037038489E0,4.552344978E-1,9.184251785E0,1.577468276E0
3.039532239E0,3.212364316E-1,9.266205788E0,1.543968797E0
3.042025937E0,2.446661144E-1,9.352347374E0,1.476969719E0
3.044519635E0,9.092725813E-2,9.467203140E0,1.448255897E0
3.047013333E0,-3.828516230E-2,9.548559189E0,1.424327731E0
3.049507031E0,-1.292124242E-1,9.677771568E0,1.352542996E0
3.051919895E0,-2.201396823E-1,9.774082184E0,1.290329576E0
3.054412239E0,-3.349951804E-1,9.893723488E0,1.213161111E0
3.056904583E0,-3.493520916E-1,1.005643559E1,1.174875975E0
3.059396927E0,-3.972085714E-1,1.012821960E1,1.040877819E0
3.061889322E0,-4.552344978E-1,1.017607689E1,8.638089895E-1
3.064381666E0,-4.456632137E-1,1.022871876E1,6.963114142E-1
3.066874010E0,-5.126622319E-1,1.026221848E1,5.090730190E-1
3.069366354E0,-5.653043389E-1,1.031067276E1,3.511467278E-1
3.071858697E0,-5.509474277E-1,1.030050373E1,1.501496136E-1
3.074351093E0,-5.461617708E-1,1.030050373E1,-3.708875179E-2
3.076843437E0,-5.700899959E-1,1.033938694E1,-2.667997181E-1
3.079335781E0,-5.748756528E-1,1.037288570E1,-4.636093974E-1
3.081763281E0,-5.940182209E-1,1.031545830E1,-6.646065116E-1
3.084255625E0,-5.844469070E-1,1.031545830E1,-8.416753411E-1
3.086747968E0,-5.365904570E-1,1.026700401E1,-9.858429432E-1
3.089240312E0,-5.605186820E-1,1.020479012E1,-1.138983607E0
3.091732708E0,-5.030909777E-1,1.013779163E1,-1.359123230E0
3.094225052E0,-4.791627228E-1,1.006600666E1,-1.488933921E0
3.096717395E0,-4.504488707E-1,9.936794281E0,-1.642074585E0
3.099209739E0,-3.589234054E-1,9.874580383E0,-1.771286964E0
3.101702083E0,-3.397808075E-1,9.774082184E0,-1.804786444E0
3.104194479E0,-2.823530734E-1,9.620343208E0,-1.881356835E0
3.106686822E0,-2.009970993E-1,9.471988678E0,-1.886142492E0
3.109179166E0,-5.742774159E-2,9.290133476E0,-1.900499344E0
3.111606666E0,7.657032460E-2,9.136395454E0,-1.924427629E0
3.114099010E0,1.824527234E-1,8.968897820E0,-1.919641972E0
3.116591354E0,2.733799815E-1,8.810971260E0,-1.823929071E0
3.119083697E0,4.456632137E-1,8.681160927E0,-1.771286964E0
3.121576093E0,5.700899959E-1,8.542376518E0,-1.689931035E0
3.124068437E0,6.951149702E-1,8.355736732E0,-1.618146300E0
3.126560781E0,7.956135273E-1,8.240880966E0,-1.512862086E0
3.129053125E0,9.152546525E-1,8.169096947E0,-1.402194023E0
3.131545468E0,9.583254457E-1,8.058428764E0,-1.296909928E0
3.134037864E0,1.044467092E0,7.948358536E0,-1.210768223E0
3.136530208E0,1.101894855E0,7.814360619E0,-1.033699393E0
3.139022552E0,1.183250785E0,7.709076405E0,-9.182456732E-1
3.141450104E0,1.192822099E0,7.627720356E0,-7.890332937E-1
3.143942447E0,1.231705427E0,7.521838188E0,-6.358926296E-1
3.146434791E0,1.293918848E0,7.416553974E0,-4.492524564E-1
3.148927135E0,1.298704505E0,7.306483746E0,-3.194418252E-1
3.151419531E0,1.279561877E0,7.186842918E0,-2.285145670E-1
3.153911875E0,1.289133191E0,7.047461033E0,-8.015955985E-2
3.156404218E0,1.279561877E0,6.913462639E0,3.948157281E-2
3.158896562E0,1.317847013E0,6.798607349E0,1.208375469E-1
3.161388906E0,1.346560955E0,6.678966045E0,2.602194548E-1
3.163881302E0,1.356132269E0,6.659823418E0,4.181457460E-1
3.166373645E0,1.423131227E0,6.583253384E0,5.712863803E-1
3.168865989E0,1.432702541E0,6.539584160E0,7.776673436E-1
3.171293489E0,1.451845169E0,6.501298904E0,1.002592683E0
3.173785833E0,1.528415442E0,6.510870457E0,1.174875975E0
3.176278177E0,1.590628862E0,6.544369698E0,1.290329576E0
3.178770520E0,1.648056626E0,6.564110756E0,1.424327731E0
3.181262916E0,1.734198213E0,6.736393929E0,1.524826288E0
3.183755260E0,1.883151412E0,6.894320011E0,1.630110383E0
3.186247604E0,1.954936147E0,7.162914753E0,1.706680775E0
3.188739947E0,1.998006940E0,7.483552933E0,1.744965911E0
3.191232291E0,2.103291035E0,7.847859859E0,1.841277003E0
3.193724687E0,2.165504456E0,8.240880966E0,1.965703845E0
3.196217031E0,2.280958176E0,8.705686569E0,2.013560295E0
3.198709375E0,2.246860504E0,9.208179474E0,2.013560295E0
3.201136927E0,2.175075769E0,9.730413437E0,2.018345833E0
3.203629270E0,2.036292076E0,1.018086243E1,1.975275040E0
3.206121614E0,1.887937069E0,1.058345413E1,2.075773716E0
3.208613958E0,1.773081541E0,1.094776154E1,2.291725874E0
3.211106354E0,1.671984792E0,1.120618629E1,2.492722988E0
3.213598697E0,1.609771490E0,1.142692471E1,2.722434044E0
3.216091041E0,1.475773335E0,1.153220844E1,2.986242771E0
3.218583385E0,1.437488198E0,1.158963680E1,3.268595695E0
3.221075729E0,1.298704505E0,1.155613708E1,3.384049416E0
3.223568125E0,1.068395257E0,1.146520996E1,3.455834150E0
3.226060468E0,1.049252748E0,1.141735363E1,3.594617844E0
3.228552812E0,1.092323542E0,1.143649578E1,3.570689678E0
3.230980364E0,1.092323542E0,1.137428284E1,3.728615999E0
3.233472708E0,1.173679471E0,1.133061314E1,3.838685751E0
3.235965052E0,1.231705427E0,1.147956657E1,3.987638950E0
3.238457395E0,1.087537885E0,1.184327602E1,3.997210264E0
3.240949791E0,8.817551732E-1,1.226979637E1,3.925425529E0
3.243442135E0,6.323033571E-1,1.269631672E1,3.805186272E0
3.245934479E0,3.212364316E-1,1.319462204E1,3.675973892E0
3.248426822E0,1.968096644E-1,1.352542973E1,3.618546009E0
3.250919166E0,-4.307080805E-2,1.385085392E1,3.330809116E0
3.253411562E0,-2.249253243E-1,1.417687607E1,3.005385160E0
3.255903906E0,-5.126622319E-1,1.459382534E1,2.511865616E0
3.258396250E0,-7.519445419E-1,1.488574982E1,2.142772675E0
3.260823802E0,-1.054038405E0,1.514477253E1,1.932204247E0
3.263316145E0,-1.240678549E0,1.544148254E1,1.673181176E0
3.265808541E0,-1.475773335E0,1.573879051E1,1.342971683E0
3.268300833E0,-1.916052699E0,1.604507256E1,1.012163997E0
3.270793229E0,-2.079362869E0,1.622274017E1,6.382854581E-1
3.273285572E0,-2.026720762E0,1.619881058E1,3.224328458E-1
3.275777916E0,-1.983051777E0,1.618385506E1,4.426721856E-2
3.278270260E0,-1.872981906E0,1.602114487E1,-2.285145670E-1
3.280762604E0,-1.561915040E0,1.570050621E1,-4.396811724E-1
3.283255000E0,-1.140179992E0,1.519262886E1,-8.129615188E-1
3.285747343E0,-5.892325640E-1,1.453579903E1,-1.134197950E0
3.288239687E0,-2.392822690E-2,1.378864002E1,-1.292124271E0
3.290667239E0,6.035895348E-1,1.296909904E1,-1.368694544E0
3.293159583E0,1.001396298E0,1.217886925E1,-1.301695466E0
3.295651927E0,1.308275819E0,1.144128132E1,-1.220339537E0
3.298144270E0,1.504487276E0,1.084247780E1,-1.028913736E0
3.300636666E0,1.537986755E0,1.036331463E1,-8.129615188E-1
3.303129010E0,1.466202021E0,9.951150894E0,-5.641079545E-1
3.305621354E0,1.164108157E0,9.649057388E0,-3.146561682E-1
3.308113697E0,8.243274093E-1,9.309276581E0,-6.580262631E-2
3.310606041E0,5.365904570E-1,9.040681839E0,1.549352705E-1
3.313098437E0,3.164508045E-1,8.830113411E0,3.894318938E-1
3.315590781E0,1.052841991E-1,8.647661209E0,5.473581553E-1
3.318083125E0,-7.657032460E-2,8.528019905E0,7.441678643E-1
3.320510729E0,-7.178468257E-2,8.470592499E0,1.007378340E0
3.323003072E0,-3.828516230E-2,8.408378601E0,1.247258782E0
3.325495416E0,-2.871387079E-2,8.336593628E0,1.515254974E0
3.327987760E0,-1.914258115E-2,8.370093346E0,1.846062660E0
3.330480156E0,-1.435693540E-2,8.398807526E0,2.109273195E0
3.332972500E0,-4.785645381E-2,8.432307243E0,2.420938253E0
3.335464843E0,-4.307080805E-2,8.451449394E0,2.755933523E0
3.337957187E0,-8.135596663E-2,8.508877754E0,3.062813044E0
3.340449531E0,-1.866401732E-1,8.585447311E0,3.259024382E0
3.342941927E0,-2.201396823E-1,8.720044136E0,3.427120209E0
3.345434270E0,-2.871387303E-1,8.815756798E0,3.565903902E0
3.347926614E0,-3.349951804E-1,8.940183640E0,3.661616802E0
3.350354166E0,-3.302095234E-1,8.901898384E0,3.819543123E0
3.352846510E0,-2.775674164E-1,8.935398102E0,3.982853174E0
3.355338854E0,-3.397808075E-1,9.102895737E0,4.030709743E0
3.357831197E0,-3.732803464E-1,9.285347939E0,4.083351612E0
3.360323593E0,-4.073780477E-1,9.314062119E0,4.140779495E0
3.362815937E0,-3.780659735E-1,9.376275063E0,4.222135544E0
3.365308281E0,-4.073780477E-1,9.443274498E0,4.255635262E0
3.367800625E0,-3.828516304E-1,9.476774216E0,4.269991875E0
3.370292968E0,-3.493520916E-1,9.548559189E0,4.260420799E0
3.372785364E0,-3.924229145E-1,9.610772133E0,4.226921082E0
3.375277708E0,-4.504488707E-1,9.663414001E0,4.169493675E0
3.377770052E0,-3.924229145E-1,9.672985077E0,4.054637909E0
3.380197604E0,-3.062812984E-1,9.620343208E0,4.030709743E0
3.382689947E0,-3.206382394E-1,9.730413437E0,4.116851330E0
3.385182291E0,-3.637090325E-1,9.879366875E0,4.059423447E0
3.387674635E0,-3.541377485E-1,9.884152412E0,3.997210264E0
3.390167031E0,-3.062812984E-1,9.893723488E0,3.915854216E0
3.392659375E0,-2.536391914E-1,9.922437668E0,3.838685751E0
3.395151718E0,-2.153540403E-1,9.898509026E0,3.699902058E0
3.397644062E0,-2.201396823E-1,9.865009308E0,3.599403381E0
3.400136406E0,-2.440679073E-1,9.879366875E0,3.427120209E0
3.402628802E0,-2.488535494E-1,9.908080101E0,3.211168051E0
3.405121145E0,-2.536391914E-1,9.865009308E0,3.034099102E0
3.407613489E0,-2.153540403E-1,9.841081619E0,2.914458036E0
3.410041041E0,-1.579262912E-1,9.778867722E0,2.760719061E0
3.412533385E0,-1.435693540E-2,9.696913719E0,2.641077995E0
3.415025729E0,3.828516230E-2,9.682557106E0,2.564507723E0
3.417518072E0,3.349951655E-2,9.629914284E0,2.473580360E0
3.420010468E0,1.004985496E-1,9.548559189E0,2.444866419E0
3.422502812E0,1.776670814E-1,9.357132912E0,2.478366137E0
3.424995156E0,1.728814393E-1,9.179466248E0,2.554936409E0
3.427487500E0,2.015953064E-1,9.007183075E0,2.602792740E0
3.429979843E0,2.303091735E-1,8.830113411E0,2.545365095E0
3.432472239E0,2.350948304E-1,8.739186287E0,2.507079840E0
3.434964583E0,1.920240223E-1,8.685946465E0,2.554936409E0
3.437456927E0,1.680957973E-1,8.633303642E0,2.564507723E0
3.439884479E0,2.015953064E-1,8.504091263E0,2.550150633E0
3.442376822E0,2.446661144E-1,8.427521706E0,2.492722988E0
3.444869166E0,3.068794906E-1,8.298309326E0,2.507079840E0
3.447361510E0,4.121637046E-1,8.245666504E0,2.526222467E0
3.449853906E0,4.265206456E-1,8.236095428E0,2.516651154E0
3.452346250E0,3.930211067E-1,8.169096947E0,2.593221426E0
3.454838593E0,3.978067636E-1,8.115856171E0,2.631506681E0
3.457330937E0,3.595215976E-1,8.039285660E0,2.736790895E0
3.459823281E0,3.690928817E-1,7.996214867E0,2.837887764E0
3.462315677E0,3.068794906E-1,7.943572998E0,2.933600664E0
3.464808020E0,2.542374134E-1,7.934001446E0,3.043670416E0
3.467300364E0,1.872383654E-1,7.977072716E0,3.115455151E0
3.469727968E0,1.292124242E-1,7.967501163E0,3.244667530E0
3.472220312E0,8.135596663E-2,7.967501163E0,3.379263878E0
3.474712656E0,1.914258115E-2,8.039285660E0,3.465405464E0
3.477205000E0,-6.699903309E-2,8.029714584E0,3.537189960E0
3.479697395E0,-1.004985496E-1,8.005785942E0,3.599403381E0
3.482189739E0,-1.866401732E-1,8.020143509E0,3.656831264E0
3.484682083E0,-2.392822653E-1,8.077570915E0,3.762115479E0
3.487174427E0,-2.727817893E-1,8.231309891E0,3.906282902E0
3.489666770E0,-3.541377485E-1,8.298309326E0,4.045066833E0
3.492159166E0,-3.828516304E-1,8.269595146E0,4.169493675E0
3.494651510E0,-4.552344978E-1,8.245666504E0,4.284348965E0
3.497143854E0,-5.030909777E-1,8.245666504E0,4.438087940E0
3.499571406E0,-5.748756528E-1,8.207381248E0,4.471587181E0
3.502063750E0,-6.370890141E-1,8.221738815E0,4.500301361E0
3.504556093E0,-6.753742099E-1,8.216953278E0,4.428516388E0
3.507048437E0,-7.280163169E-1,8.240880966E0,4.433301926E0
3.509540833E0,-7.806583643E-1,8.245666504E0,4.413561344E0
3.512033177E0,-7.710871100E-1,8.260024071E0,4.375276089E0
3.514525520E0,-7.902296782E-1,8.236095428E0,4.313062668E0
3.517017864E0,-7.710871100E-1,8.298309326E0,4.265206337E0
3.519510208E0,-7.519445419E-1,8.341380119E0,4.236492634E0
3.522002604E0,-8.380861282E-1,8.212167740E0,4.198207378E0
3.524494947E0,-9.487541914E-1,8.236095428E0,4.212564468E0
3.526987291E0,-9.726824164E-1,8.207381248E0,4.265206337E0
3.529414843E0,-1.039681435E0,8.164310455E0,4.365705013E0
3.531907187E0,-1.025324464E0,8.139784813E0,4.438087940E0
3.534399531E0,-1.092323542E0,8.120641708E0,4.533800602E0
3.536891875E0,-1.221535921E0,8.034500122E0,4.600799561E0
3.539384270E0,-1.302891970E0,8.020143509E0,4.663012981E0
3.541876614E0,-1.408176184E0,8.010572433E0,4.686941147E0
3.544368958E0,-1.490130305E0,8.005785942E0,4.715655327E0
3.546861302E0,-1.547558069E0,7.986643791E0,4.730011940E0
3.549353645E0,-1.643270969E0,7.967501163E0,4.734797955E0
3.551846041E0,-1.738983870E0,7.943572998E0,4.811367989E0
3.554338385E0,-1.844268084E0,7.957930088E0,4.825725079E0
3.556830729E0,-1.954337835E0,7.876574039E0,4.864010334E0
3.559258437E0,-2.012363911E0,7.890930653E0,4.830510616E0
3.561749739E0,-2.155933142E0,7.895716667E0,4.806582451E0
3.564240989E0,-2.342573404E0,7.857431412E0,4.830510616E0
3.566732291E0,-2.457428932E0,7.857431412E0,4.797011375E0
3.569223541E0,-2.596810818E0,7.862216949E0,4.758726120E0
3.571714843E0,-2.726023197E0,7.847859859E0,4.753940582E0
3.574206093E0,-2.821736097E0,7.828717709E0,4.739583492E0
3.576697343E0,-2.922234535E0,7.814360619E0,4.677370071E0
3.579188645E0,-3.027518749E0,7.823931694E0,4.634299278E0
3.581679895E0,-3.114258766E0,7.814360619E0,4.567300320E0
3.584171197E0,-3.133401155E0,7.766504288E0,4.519443989E0
3.586662447E0,-3.171686411E0,7.800003529E0,4.543372154E0
3.589101875E0,-3.138186932E0,7.823931694E0,4.581656933E0
3.591593177E0,-3.123830080E0,7.795217991E0,4.615156651E0
3.594084427E0,-3.119044304E0,7.823931694E0,4.643870354E0
3.596575729E0,-3.109472990E0,7.833503246E0,4.658227444E0
3.599066979E0,-3.075375319E0,7.809575081E0,4.691727161E0
3.601558281E0,-3.037090063E0,7.718647480E0,4.830510616E0
3.604049531E0,-2.998805046E0,7.699504852E0,4.931009293E0
3.606540781E0,-2.922234535E0,7.632505894E0,5.041677475E0
3.609032083E0,-2.879163742E0,7.579265594E0,5.194818020E0
3.611523333E0,-2.821736097E0,7.512266636E0,5.290530682E0
3.614014635E0,-2.740380049E0,7.397411346E0,5.448457241E0
3.616505885E0,-2.649452925E0,7.344769001E0,5.587839127E0
3.618945312E0,-2.572882652E0,7.277770042E0,5.616552830E0
3.621436614E0,-2.481357098E0,7.201199532E0,5.697908878E0
3.623927864E0,-2.409572363E0,7.167700291E0,5.760122299E0
3.626419166E0,-2.299502611E0,7.158128738E0,5.798407555E0
3.628910416E0,-2.184647083E0,7.182057381E0,5.798407555E0
3.631401718E0,-2.117648125E0,7.162914753E0,5.697908878E0
3.633892968E0,-1.973480463E0,7.205985546E0,5.616552830E0
3.636384218E0,-1.849053741E0,7.268198967E0,5.467599869E0
3.638875520E0,-1.753340840E0,7.320840836E0,5.285745144E0
3.641366770E0,-1.633699656E0,7.397411346E0,5.113461971E0
3.643858072E0,-1.571486235E0,7.493124008E0,4.897509575E0
3.646349322E0,-1.436890006E0,7.555337429E0,4.658227444E0
3.648788802E0,-1.298106313E0,7.661220074E0,4.524229527E0
3.651280104E0,-1.288534999E0,7.804789066E0,4.351347923E0
3.653771354E0,-1.164108157E0,7.929215908E0,4.169493675E0
3.656262656E0,-1.049252748E0,8.082356453E0,4.078566074E0
3.658753906E0,-1.025324464E0,8.274380684E0,4.045066833E0
3.661245156E0,-9.391828775E-1,8.432307243E0,3.987638950E0
3.663736458E0,-9.146564603E-1,8.628518105E0,3.939782381E0
3.666227708E0,-9.146564603E-1,8.801400185E0,3.997210264E0
3.668719010E0,-9.098708034E-1,9.011968613E0,4.078566074E0
3.671210260E0,-8.476574421E-1,9.155537605E0,4.135993958E0
3.673701562E0,-8.620143533E-1,9.251849174E0,4.198207378E0
3.676192812E0,-8.811569214E-1,9.333204269E0,4.265206337E0
3.678632239E0,-8.333004713E-1,9.419346809E0,4.360919476E0
3.681123541E0,-8.476574421E-1,9.433703423E0,4.375276089E0
3.683614791E0,-8.524430394E-1,9.433703423E0,4.403990269E0
3.686106093E0,-8.811569214E-1,9.471988678E0,4.442873478E0
3.688597343E0,-8.572286963E-1,9.471988678E0,4.476373196E0
3.691088645E0,-8.237292171E-1,9.385847092E0,4.423132420E0
3.693579895E0,-8.237292171E-1,9.371489525E0,4.346562386E0
3.696071145E0,-7.950153351E-1,9.294919968E0,4.303491592E0
3.698562447E0,-7.040880919E-1,9.227322578E0,4.332205296E0
3.701053697E0,-5.844469070E-1,9.126823425E0,4.336990833E0
3.703545000E0,-4.887340367E-1,8.964112282E0,4.418346882E0
3.706036250E0,-3.637090325E-1,8.815756798E0,4.509872437E0
3.708475677E0,-2.344966233E-1,8.690732002E0,4.581656933E0
3.710966979E0,-1.674975902E-1,8.575876236E0,4.686941147E0
3.713458229E0,-7.657032460E-2,8.451449394E0,4.835296154E0
3.715949531E0,1.914258115E-2,8.370093346E0,4.993820667E0
3.718440781E0,8.614161611E-2,8.307880402E0,5.137390137E0
3.720932083E0,1.345962733E-1,8.279166222E0,5.290530682E0
3.723423333E0,1.441675574E-1,8.231309891E0,5.429314613E0
3.725914583E0,1.292124242E-1,8.331808090E0,5.549553871E0
3.728405885E0,1.148554832E-1,8.437092781E0,5.654838085E0
3.730897135E0,1.004985496E-1,8.523234367E0,5.736194134E0
3.733388437E0,6.221338734E-2,8.623732567E0,5.774479389E0
3.735879687E0,2.392822690E-2,8.739186287E0,5.760122299E0
3.738319114E0,-4.785645381E-2,8.897112846E0,5.807978630E0
3.740810416E0,-1.674975902E-1,9.045467377E0,5.764907837E0
3.743301666E0,-2.967100143E-1,9.174679756E0,5.659623623E0
3.745792968E0,-3.876372576E-1,9.347561836E0,5.568696499E0
3.748284218E0,-4.648058116E-1,9.534201622E0,5.434100151E0
3.750775520E0,-5.078766346E-1,9.754341125E0,5.276174068E0
3.753266770E0,-5.365904570E-1,9.955936432E0,5.060820103E0
3.755758020E0,-4.456632137E-1,1.024307537E1,4.840082169E0
3.758249322E0,-3.684946895E-1,1.052124119E1,4.653441906E0
3.760740572E0,-3.780659735E-1,1.074616623E1,4.428516388E0
3.763231875E0,-4.169493318E-1,1.099083233E1,4.179064751E0
3.765723125E0,-3.828516304E-1,1.129232788E1,3.954139471E0
3.768162552E0,-3.541377485E-1,1.155135155E1,3.752544165E0
3.770653854E0,-3.684946895E-1,1.176191998E1,3.489333630E0
3.773145104E0,-3.828516304E-1,1.200180054E1,3.302095175E0
3.775636406E0,-4.456632137E-1,1.219801140E1,3.043670416E0
3.778127656E0,-4.935196638E-1,1.242293739E1,2.823530674E0
3.780618958E0,-5.222335458E-1,1.264846039E1,2.669791937E0
3.783110208E0,-5.844469070E-1,1.280638695E1,2.497508526E0
3.785601458E0,-6.131607890E-1,1.296909904E1,2.281556368E0
3.788092760E0,-7.136593461E-1,1.311326599E1,2.137987137E0
3.790584010E0,-8.811569214E-1,1.322812176E1,2.070987940E0
3.793075312E0,-9.774680734E-1,1.332861996E1,2.003988981E0
3.795566562E0,-1.044467092E0,1.336211967E1,1.989632010E0
3.798006041E0,-1.159322619E0,1.339083385E1,1.922633052E0
3.800497343E0,-1.312463164E0,1.345783234E1,1.927418590E0
3.802988593E0,-1.499701619E0,1.344826126E1,1.893919110E0
3.805479895E0,-1.700698733E0,1.344826126E1,1.846062660E0
3.807971145E0,-1.925624013E0,1.342433357E1,1.874776483E0
3.810462447E0,-2.093719721E0,1.339561939E1,1.917847395E0
3.812953697E0,-2.222932339E0,1.331904888E1,1.980060697E0
3.815444947E0,-2.380858421E0,1.320419312E1,2.027917147E0
3.817936250E0,-2.471785784E0,1.296431351E1,2.099701881E0
3.820427500E0,-2.644667149E0,1.258624744E1,2.104487419E0
3.822918802E0,-2.917448997E0,1.213579845E1,2.061416626E0
3.825410052E0,-3.138186932E0,1.166620636E1,1.965703845E0
3.827849479E0,-3.128615618E0,1.115832996E1,1.755135417E0
3.830340781E0,-2.984447956E0,1.062652493E1,1.500898004E0
3.832832031E0,-2.740380049E0,1.008514881E1,1.179661512E0
3.835323333E0,-2.500499725E0,9.582057953E0,9.020941257E-1
3.837814583E0,-2.155933142E0,9.141180992E0,7.010970116E-1
3.840305885E0,-1.839482427E0,8.791828156E0,5.042873621E-1
3.842797135E0,-1.542772412E0,8.417949677E0,2.602194548E-1
3.845288385E0,-1.317248821E0,8.072785378E0,8.733802289E-2
3.847779687E0,-1.001396298E0,7.742575645E0,2.512463741E-2
3.850270937E0,-6.705885530E-1,7.483552933E0,-2.751746029E-2
3.852762239E0,-4.265206456E-1,7.306483746E0,-1.316052489E-2
3.855253489E0,-2.249253243E-1,7.201199532E0,-1.316052489E-2
3.857692916E0,-4.785645381E-2,7.210771084E0,1.076770201E-2
3.860184218E0,1.393819153E-1,7.191628456E0,5.383851007E-2
3.862675468E0,2.350948304E-1,7.229913712E0,8.733802289E-2
3.865166770E0,3.595215976E-1,7.258627415E0,8.733802289E-2
3.867658020E0,4.887340367E-1,7.162914753E0,2.033899166E-2
3.870149322E0,5.030909777E-1,7.172485828E0,-3.230310604E-2
3.872640572E0,5.365904570E-1,7.186842918E0,-5.623133108E-2
3.875131822E0,5.270192027E-1,7.205985546E0,-9.451649338E-2
3.877623125E0,5.988038778E-1,7.258627415E0,-9.930214286E-2
3.880114375E0,5.844469070E-1,7.311269760E0,-2.751746029E-2
3.882605677E0,5.413761139E-1,7.464410305E0,4.426721856E-2
3.885096927E0,5.270192027E-1,7.593622684E0,2.027917206E-1
3.887536406E0,5.700899959E-1,7.579265594E0,2.506481707E-1
3.890027708E0,6.807580590E-1,7.607979774E0,1.932204217E-1
3.892518958E0,7.860422134E-1,7.666005611E0,2.219343036E-1
3.895010260E0,8.099704385E-1,7.847859859E0,3.942175210E-1
3.897501510E0,7.908278704E-1,8.178668022E0,7.106683254E-1
3.899992760E0,8.003991842E-1,8.470592499E0,1.122233868E0
3.902484062E0,7.668996453E-1,8.834898949E0,1.438684583E0
3.904975312E0,8.051848412E-1,9.126823425E0,1.836491346E0
3.907466614E0,8.865407705E-1,9.390632629E0,2.195414782E0
3.909957864E0,8.673982024E-1,9.932008743E0,2.276770830E0
3.912449166E0,7.429714203E-1,1.063131142E1,2.559721947E0
3.914940416E0,7.764709592E-1,1.129232788E1,2.952743053E0
3.917379843E0,9.104689956E-1,1.187677479E1,3.360121250E0
3.919871145E0,1.116251707E0,1.232243824E1,3.685544968E0
3.922362395E0,1.447059512E0,1.272981644E1,3.766901016E0
3.924853697E0,1.782652855E0,1.298405361E1,3.704687595E0
3.927344947E0,2.045863390E0,1.321376514E1,3.656831264E0
3.929836250E0,2.213361025E0,1.352542973E1,3.675973892E0
3.932327500E0,2.424527645E0,1.381256866E1,3.647259951E0
3.934818750E0,2.563311338E0,1.402313709E1,3.580260992E0
3.937310052E0,2.620738983E0,1.419601822E1,3.589832067E0
3.939801302E0,2.620738983E0,1.433001614E1,3.551547050E0
3.942292604E0,2.410170555E0,1.451187134E1,3.498904943E0
3.944783854E0,2.208575249E0,1.453579903E1,3.541975737E0
3.947223281E0,2.074577332E0,1.452144241E1,3.632902861E0
3.949714583E0,1.921436548E0,1.440180111E1,3.594617844E0
3.952205833E0,1.926222205E0,1.404227924E1,3.546761274E0
3.954697135E0,1.974078655E0,1.353500175E1,3.518047571E0
3.957188385E0,2.108076811E0,1.299841118E1,3.403192043E0
3.959679687E0,2.362314224E0,1.237986660E1,3.335594654E0
3.962170937E0,2.668595552E0,1.169013500E1,3.287738323E0
3.964662187E0,2.999403238E0,1.090469074E1,3.163311481E0
3.967153489E0,3.291327477E0,1.020479012E1,2.962314367E0
3.969644739E0,3.502494097E0,9.644271851E0,2.588435888E0
3.972136041E0,3.746562004E0,9.026325226E0,2.368296146E0
3.974627291E0,4.029513359E0,8.499305725E0,2.190629244E0
3.977066718E0,4.139583111E0,8.149355888E0,2.008774519E0
3.979558020E0,4.158725739E0,7.756932735E0,1.802991867E0
3.982049270E0,4.130012035E0,7.488338470E0,1.644467354E0
3.984540572E0,4.086941242E0,7.287341595E0,1.524826288E0
3.987031822E0,4.005585194E0,7.119843960E0,1.395613790E0
3.989523125E0,3.967299938E0,6.956533432E0,1.357328653E0
3.992014375E0,3.996013880E0,6.698108673E0,1.419542074E0
3.994505625E0,3.851846218E0,6.530013084E0,1.558325768E0
3.996996927E0,3.492922783E0,6.477370739E0,1.677966833E0
3.999488177E0,3.157329559E0,6.611967087E0,1.917847395E0
4.001979479E0,2.985046148E0,6.631109715E0,2.185843468E0
4.004470729E0,2.802593470E0,6.784250259E0,2.368296146E0
4.006910156E0,2.773879766E0,6.889534473E0,2.569293261E0
4.009401458E0,2.740380049E0,7.037889481E0,2.962314367E0
4.011892708E0,2.745165825E0,7.076174736E0,3.278167009E0
4.014384010E0,2.745165825E0,7.134200573E0,3.441477060E0
4.016875260E0,2.754737139E0,7.143772125E0,3.623331785E0
4.019366562E0,2.764308453E0,7.201199532E0,3.752544165E0
4.021857812E0,2.769093990E0,7.272984505E0,3.876971006E0
4.024349062E0,2.759522676E0,7.344769001E0,3.987638950E0
4.026840364E0,2.769093990E0,7.411767960E0,4.045066833E0
4.029331614E0,2.802593470E0,7.526623726E0,4.112065792E0
4.031822916E0,2.793022156E0,7.588837147E0,4.116851330E0
4.034314166E0,2.735594511E0,7.723433495E0,4.035495281E0
4.036753593E0,2.783450842E0,7.819146156E0,3.881756544E0
4.039244895E0,2.769093990E0,7.890930653E0,3.608974695E0
4.041736145E0,2.726023197E0,7.991429329E0,3.379263878E0
4.044227447E0,2.568096876E0,8.115856171E0,3.043670416E0
4.046718697E0,2.438884497E0,8.250452042E0,2.775076151E0
4.049210000E0,2.256431818E0,8.346165657E0,2.487937450E0
4.051701250E0,2.002792597E0,8.494520187E0,2.190629244E0
4.054192500E0,1.787438512E0,8.618947029E0,2.018345833E0
4.056683802E0,1.485344648E0,8.729615211E0,1.874776483E0
4.059175052E0,1.222134113E0,8.873184204E0,1.917847395E0
4.061666354E0,9.918249846E-1,8.940183640E0,2.056631088E0
4.064157604E0,7.429714203E-1,9.050253868E0,2.123630047E0
4.066597187E0,4.552344978E-1,9.184251785E0,2.204986095E0
4.069087604E0,2.685943544E-1,9.266205788E0,2.166700840E0
4.071577968E0,6.221338734E-2,9.314062119E0,2.181057930E0
4.074068385E0,-1.339980662E-1,9.385847092E0,2.238485575E0
4.076558802E0,-2.440679073E-1,9.481559753E0,2.296511650E0
4.079049218E0,-3.254238665E-1,9.553344727E0,2.325225353E0
4.081539635E0,-3.589234054E-1,9.596415520E0,2.320439816E0
4.084030052E0,-4.265206456E-1,9.663414001E0,2.334796667E0
4.086520468E0,-4.935196638E-1,9.730413437E0,2.363510609E0
4.089010885E0,-5.653043389E-1,9.778867722E0,2.358724833E0
4.091501250E0,-7.136593461E-1,9.774082184E0,2.373081923E0
4.093991666E0,-7.567301393E-1,9.763913155E0,2.420938253E0
4.096440625E0,-8.237292171E-1,9.754341125E0,2.392224550E0
4.098931041E0,-8.333004713E-1,9.725627899E0,2.334796667E0
4.101421406E0,-8.285148144E-1,9.711270332E0,2.301297188E0
4.103911822E0,-8.237292171E-1,9.639486313E0,2.133201361E0
4.106402239E0,-7.758727670E-1,9.625128746E0,1.936989903E0
4.108892656E0,-7.710871100E-1,9.596415520E0,1.783849239E0
4.111383072E0,-7.710871100E-1,9.586843491E0,1.663609982E0
4.113873489E0,-7.663014531E-1,9.572486877E0,1.529611826E0
4.116363906E0,-7.519445419E-1,9.586843491E0,1.448255897E0
4.118854322E0,-6.753742099E-1,9.620343208E0,1.371685624E0
4.121344687E0,-5.940182209E-1,9.605986595E0,1.342971683E0
4.123835104E0,-4.983053207E-1,9.572486877E0,1.319043517E0
4.126284062E0,-4.121637046E-1,9.582057953E0,1.366899967E0
4.128774479E0,-3.924229145E-1,9.577272415E0,1.352542996E0
4.131264843E0,-2.967100143E-1,9.538987160E0,1.314257860E0
4.133755260E0,-2.632105052E-1,9.519845009E0,1.232901812E0
4.136245677E0,-8.614161611E-2,9.577272415E0,1.141376376E0
4.138736093E0,4.785645381E-2,9.567701340E0,1.093519926E0
4.141226510E0,1.196411327E-1,9.582057953E0,1.007378340E0
4.143716927E0,1.633101404E-1,9.634700775E0,9.308080077E-1
4.146207343E0,1.824527234E-1,9.701699257E0,8.781659007E-1
4.148697760E0,1.441675574E-1,9.696913719E0,8.829515576E-1
4.151188125E0,1.776670814E-1,9.716055870E0,8.877372146E-1
4.153678541E0,1.920240223E-1,9.754341125E0,1.021735311E0
4.156127500E0,1.776670814E-1,9.788438797E0,1.074377418E0
4.158617916E0,1.393819153E-1,9.807581902E0,1.146162033E0
4.161108281E0,1.489532143E-1,9.855438232E0,1.242473125E0
4.163598697E0,2.398804724E-1,9.836296082E0,1.309472203E0
4.166089114E0,2.159522474E-1,9.850652695E0,1.371685624E0
4.168579531E0,2.111666054E-1,9.826724052E0,1.462612867E0
4.171069947E0,2.733799815E-1,9.798010826E0,1.630110383E0
4.173560364E0,3.260220885E-1,9.778867722E0,1.779063582E0
4.176050781E0,3.930211067E-1,9.735198975E0,1.865205288E0
4.178541197E0,4.935196638E-1,9.672985077E0,1.956132531E0
4.181031562E0,5.796613097E-1,9.696913719E0,2.008774519E0
4.183521979E0,6.562315822E-1,9.668199539E0,2.061416626E0
4.185970885E0,7.525427341E-1,9.663414001E0,2.161915302E0
4.188461302E0,8.386843204E-1,9.663414001E0,2.228914261E0
4.190951666E0,8.961120844E-1,9.591629982E0,2.397010088E0
4.193442083E0,1.006181955E0,9.649057388E0,2.492722988E0
4.195932500E0,1.063609719E0,9.639486313E0,2.507079840E0
4.198422916E0,1.106680512E0,9.639486313E0,2.535793781E0
4.200913333E0,1.164108157E0,9.610772133E0,2.588435888E0
4.203403750E0,1.144965649E0,9.653842926E0,2.679363251E0
4.205894166E0,1.279561877E0,9.634700775E0,2.784647465E0
4.208384583E0,1.413560033E0,9.601201057E0,2.880958557E0
4.210874947E0,1.466202021E0,9.610772133E0,2.904886723E0
4.213365364E0,1.509272933E0,9.567701340E0,2.947957516E0
4.215814322E0,1.595414519E0,9.505488396E0,3.048455954E0
4.218304739E0,1.676770449E0,9.476774216E0,2.986242771E0
4.220795104E0,1.705484390E0,9.395418167E0,2.991028309E0
4.223285520E0,1.816152334E0,9.309276581E0,3.081955671E0
4.225775937E0,1.954936147E0,9.217751503E0,3.192025423E0
4.228266354E0,2.088934183E0,9.107681274E0,3.297309637E0
4.230756770E0,2.117648125E0,8.959325790E0,3.427120209E0
4.233247187E0,2.251646042E0,8.854042053E0,3.460619688E0
4.235737604E0,2.400599241E0,8.662017822E0,3.374478102E0
4.238228020E0,2.481955290E0,8.528019905E0,3.311666489E0
4.240718385E0,2.606382132E0,8.336593628E0,3.249453068E0
4.243208802E0,2.654238462E0,8.173882484E0,3.244667530E0
4.245657708E0,2.740380049E0,8.058428764E0,3.192025423E0
4.248148125E0,2.769093990E0,7.934001446E0,3.225524902E0
4.250638489E0,2.841476917E0,7.776075363E0,3.287738323E0
4.253128906E0,2.903690338E0,7.689933777E0,3.326023579E0
4.255619322E0,2.908475876E0,7.564908981E0,3.374478102E0
4.258109739E0,2.918047190E0,7.459624767E0,3.417548895E0
4.260600156E0,2.999403238E0,7.363911629E0,3.455834150E0
4.263090572E0,3.037688255E0,7.296912670E0,3.527618885E0
4.265580989E0,3.075973511E0,7.268198967E0,3.532404423E0
4.268071406E0,3.085544825E0,7.258627415E0,3.580260992E0
4.270561770E0,3.109472990E0,7.249056339E0,3.589832067E0
4.273052187E0,3.119044304E0,7.296912670E0,3.618546009E0
4.275501093E0,3.123830080E0,7.373483181E0,3.623331785E0
4.277991510E0,3.109472990E0,7.469195843E0,3.647259951E0
4.280481875E0,3.133401155E0,7.560122967E0,3.685544968E0
4.282972291E0,3.099901676E0,7.607979774E0,3.690330744E0
4.285462708E0,3.080759048E0,7.699504852E0,3.742972851E0
4.287953125E0,3.061616659E0,7.776075363E0,3.742972851E0
4.290443541E0,3.075973511E0,7.843074322E0,3.690330744E0
4.292933958E0,3.032902718E0,7.900502205E0,3.642474174E0
4.295424375E0,2.903690338E0,7.967501163E0,3.589832067E0
4.297914791E0,2.841476917E0,8.072785378E0,3.508476257E0
4.300405156E0,2.721237659E0,8.164310455E0,3.436691523E0
4.302895572E0,2.659024239E0,8.331808090E0,3.311666489E0
4.305344531E0,2.510669231E0,8.537590981E0,3.192025423E0
4.307834947E0,2.405385017E0,8.720044136E0,3.005385160E0
4.310325312E0,2.246860504E0,8.921041489E0,2.808575630E0
4.312815729E0,2.041077614E0,9.174679756E0,2.358724833E0
4.315306145E0,1.897508383E0,9.424132347E0,1.984846354E0
4.317796562E0,1.782652855E0,9.668199539E0,2.109273195E0
4.320286979E0,1.590628862E0,9.979865074E0,1.975275040E0
4.322777395E0,1.389631748E0,1.023350430E1,1.793420553E0
4.325267812E0,1.217348576E0,1.043509960E1,1.654038668E0
4.327758229E0,1.034895778E0,1.059302616E1,1.462612867E0
4.330248593E0,9.726824164E-1,1.073659515E1,1.319043517E0
4.332739010E0,1.039681435E0,1.082752228E1,1.136590719E0
4.335187916E0,9.008977413E-1,1.088554859E1,8.973084688E-1
4.337678333E0,5.174478889E-1,1.090947628E1,8.207381964E-1
4.340168697E0,4.217349887E-1,1.095733356E1,8.685946465E-1
4.342659114E0,4.265206456E-1,1.093340492E1,8.255237937E-1
4.345149531E0,3.786641955E-1,1.086640549E1,7.298108935E-1
4.347639947E0,2.733799815E-1,1.084726334E1,6.574280262E-1
4.350130364E0,-4.785645287E-3,1.087119102E1,5.760720372E-1
4.352620781E0,-9.571290761E-2,1.089033413E1,4.564309120E-1
4.355111197E0,-1.866401732E-1,1.093340492E1,4.085744619E-1
4.357601614E0,-2.823530734E-1,1.084726334E1,4.325026870E-1
4.360091979E0,-3.637090325E-1,1.079402256E1,3.415754437E-1
4.362582395E0,-6.035895348E-1,1.077009487E1,2.123630047E-1
4.365031302E0,-8.811569214E-1,1.071266651E1,1.351944804E-1
4.367521718E0,-1.077966571E0,1.074138069E1,1.160518974E-1
4.370012083E0,-1.322034478E0,1.069830990E1,7.298108935E-2
4.372502500E0,-1.494915962E0,1.062173939E1,-8.374879137E-3
4.374992916E0,-1.633699656E0,1.054038334E1,2.033899166E-2
4.377483333E0,-1.849053741E0,1.045424175E1,5.982056726E-3
4.379973750E0,-2.065006018E0,1.042074299E1,-8.374879137E-3
4.382464166E0,-2.232503414E0,1.040159988E1,-2.273181453E-2
4.384954583E0,-2.366501570E0,1.037288570E1,-4.666004330E-2
4.387445000E0,-2.299502611E0,1.033938694E1,-4.666004330E-2
4.389935364E0,-2.098505497E0,1.034417248E1,-5.144568533E-2
4.392425781E0,-1.820339799E0,1.028614616E1,-1.519442350E-1
4.394874687E0,-1.490130305E0,1.028136063E1,-2.524427772E-1
4.397365104E0,-1.216750264E0,1.024307537E1,-3.625126183E-1
4.399855468E0,-1.034895778E0,1.016171932E1,-5.736792088E-1
4.402345885E0,-8.476574421E-1,1.005165005E1,-7.124629617E-1
4.404836302E0,-5.988038778E-1,9.850652695E0,-8.608179688E-1
4.407326718E0,-3.493520916E-1,9.672985077E0,-9.182456732E-1
4.409817135E0,-1.292124242E-1,9.404989243E0,-9.619147182E-1
4.412307552E0,1.537388563E-1,9.093324661E0,-9.667003751E-1
4.414797968E0,3.978067636E-1,8.854042053E0,-9.379864931E-1
4.417288385E0,5.844469070E-1,8.633303642E0,-9.230313301E-1
4.419778750E0,8.386843204E-1,8.394021988E0,-9.571290612E-1
4.422269166E0,1.097109199E0,8.202595711E0,-9.858429432E-1
4.424718125E0,1.298704505E0,7.967501163E0,-1.062413216E0
4.427208541E0,1.442273855E0,7.823931694E0,-1.091127157E0
4.429698906E0,1.566700578E0,7.656434059E0,-1.182054400E0
4.432189322E0,1.710269928E0,7.416553974E0,-1.282552958E0
4.434679739E0,1.777867198E0,7.330412388E0,-1.378265858E0
4.437170156E0,1.892722726E0,7.186842918E0,-1.450050473E0
4.439660572E0,1.983649969E0,7.061817646E0,-1.493719578E0
4.442150989E0,2.117648125E0,6.937391281E0,-1.551147223E0
4.444641406E0,2.160718918E0,6.865606308E0,-1.560718536E0
4.447131822E0,2.251646042E0,6.798607349E0,-1.517647743E0
4.449622187E0,2.270788670E0,6.736393929E0,-1.532004714E0
4.452112604E0,2.232503414E0,6.741179466E0,-1.594218135E0
4.454561510E0,2.261217356E0,6.736393929E0,-1.589432478E0
4.457051927E0,2.256431818E0,6.808178425E0,-1.603789330E0
4.459542291E0,2.280958176E0,6.918248653E0,-1.608574986E0
4.462032708E0,2.300100803E0,6.990033150E0,-1.565504193E0
4.464523125E0,2.295315027E0,7.033103943E0,-1.488933921E0
4.467013541E0,2.314457655E0,7.110272408E0,-1.301695466E0
4.469503958E0,2.242074728E0,7.215556622E0,-1.124626637E0
4.471994375E0,2.213361025E0,7.301698208E0,-9.379864931E-1
4.474484791E0,2.246860504E0,7.363911629E0,-7.172485590E-1
4.476975208E0,2.256431818E0,7.526623726E0,-4.157529473E-1
4.479465572E0,2.242074728E0,7.603193760E0,-1.758724600E-1
4.481955989E0,2.227717876E0,7.833503246E0,-1.316052489E-2
4.484404947E0,2.280958176E0,8.082356453E0,1.932204217E-1
4.486895364E0,2.270788670E0,8.379665375E0,3.176472187E-1
4.489385729E0,2.194218397E0,8.877969742E0,2.267199457E-1
4.491876145E0,2.055434704E0,9.390632629E0,2.219343036E-1
4.494366562E0,1.921436548E0,1.007557774E1,2.554338276E-1
4.496856979E0,1.806581140E0,1.066959572E1,2.458625287E-1
4.499347395E0,1.686341763E0,1.128275681E1,3.367897868E-1
4.501837812E0,1.537986755E0,1.183849049E1,4.133601189E-1
4.504328229E0,1.317847013E0,1.238943768E1,5.617151260E-1
4.506818645E0,1.020538807E0,1.295474148E1,7.537391186E-1
4.509309010E0,7.286145091E-1,1.331904888E1,9.834501147E-1
4.511799427E0,2.781656384E-1,1.360678577E1,1.290329576E0
4.514248385E0,-1.435693651E-1,1.379342651E1,1.610967875E0
4.516738802E0,-5.413761139E-1,1.394656658E1,2.047059774E0
4.519229166E0,-8.237292171E-1,1.401835155E1,2.521436930E0
4.521719583E0,-1.044467092E0,1.390828133E1,2.991028309E0
4.524210000E0,-1.331605792E0,1.364507103E1,3.340380430E0
4.526700416E0,-1.681556106E0,1.327597809E1,3.656831264E0
4.529190833E0,-1.715055585E0,1.316112232E1,3.982853174E0
4.531681250E0,-1.643270969E0,1.307976723E1,4.212564468E0
4.534171666E0,-1.590628862E0,1.304148197E1,4.260420799E0
4.536662083E0,-1.686341763E0,1.306540966E1,4.126422882E0
4.539152447E0,-1.872981906E0,1.309412384E1,3.934996843E0
4.541642864E0,-1.868196249E0,1.308933830E1,3.809971809E0
4.544091822E0,-1.868196249E0,1.315633678E1,3.647259951E0
4.546582239E0,-2.088934183E0,1.323290730E1,3.455834150E0
4.549072604E0,-2.289931297E0,1.334297752E1,3.244667530E0
4.551563020E0,-2.519642353E0,1.348654652E1,2.789433002E0
4.554053437E0,-2.447857618E0,1.354457283E1,2.425724030E0
4.556543854E0,-2.486142635E0,1.368335629E1,2.200200319E0
4.559034270E0,-2.663809776E0,1.392263889E1,1.788634896E0
4.561524687E0,-3.065804005E0,1.422473240E1,1.357328653E0
4.564015104E0,-3.195614576E0,1.437787342E1,9.020941257E-1
4.566505520E0,-3.013161898E0,1.435873032E1,6.669993401E-1
4.568995885E0,-2.927020311E0,1.429651737E1,4.995017350E-1
4.571486302E0,-2.802593470E0,1.416730499E1,3.128615618E-1
4.573935364E0,-2.635095835E0,1.397528076E1,1.597209126E-1
4.576425104E0,-2.400001049E0,1.366899967E1,1.196411322E-3
4.578914843E0,-2.117648125E0,1.338604832E1,-2.237289101E-1
4.581404531E0,-1.705484390E0,1.299362469E1,-3.577269912E-1
4.583894270E0,-1.188036442E0,1.250010586E1,-4.253242314E-1
4.586383958E0,-6.418746710E-1,1.197787189E1,-4.875376225E-1
4.588873697E0,-8.135596663E-2,1.137428284E1,-4.636093974E-1
4.591363385E0,4.648058116E-1,1.085204887E1,-3.290131092E-1
4.593853125E0,9.631111026E-1,1.032981491E1,-1.663011760E-1
4.596342864E0,1.284347534E0,9.893723488E0,6.340979785E-2
4.598832552E0,1.509272933E0,9.634700775E0,2.554338276E-1
4.601322291E0,1.710269928E0,9.395418167E0,5.186443329E-1
4.603778802E0,1.835294962E0,9.155537605E0,6.963114142E-1
4.606268541E0,1.864008784E0,8.921041489E0,9.020941257E-1
4.608758281E0,1.849651933E0,8.796614647E0,1.122233868E0
4.611247968E0,1.816152334E0,8.681160927E0,1.347757339E0
4.613737708E0,1.768295884E0,8.604590416E0,1.606182218E0
4.616227395E0,1.671984792E0,8.499305725E0,1.836491346E0
4.618717135E0,1.542772412E0,8.470592499E0,2.037488461E0
4.621206822E0,1.423131227E0,8.480163574E0,2.228914261E0
4.623696562E0,1.298704505E0,8.470592499E0,2.344367981E0
4.626186302E0,1.231705427E0,8.513663292E0,2.392224550E0
4.628675989E0,1.164108157E0,8.446663857E0,2.511865616E0
4.631165729E0,1.068395257E0,8.432307243E0,2.602792740E0
4.633622239E0,9.918249846E-1,8.394021988E0,2.641077995E0
4.636111979E0,8.578268886E-1,8.398807526E0,2.674577475E0
4.638601718E0,8.147560954E-1,8.427521706E0,2.755933523E0
4.641091406E0,6.999006271E-1,8.465806961E0,2.842673302E0
4.643581145E0,5.940182209E-1,8.475378036E0,2.852244616E0
4.646070833E0,5.270192027E-1,8.451449394E0,2.952743053E0
4.648560572E0,5.413761139E-1,8.417949677E0,3.019742250E0
4.651050260E0,3.786641955E-1,8.547162056E0,3.101098061E0
4.653540000E0,2.350948304E-1,8.739186287E0,3.187239647E0
4.656029739E0,0.000000000E0,8.858827591E0,3.311666489E0
4.658519427E0,-1.674975902E-1,8.968897820E0,3.441477060E0
4.661009166E0,-2.727817893E-1,9.055039406E0,3.479762316E0
4.663465729E0,-3.014956415E-1,9.107681274E0,3.541975737E0
4.665955416E0,-3.684946895E-1,9.179466248E0,3.766901016E0
4.668445208E0,-5.126622319E-1,9.366703987E0,4.001996040E0
4.670934895E0,-6.993024349E-1,9.582057953E0,3.992424488E0
4.673424635E0,-7.328019142E-1,9.696913719E0,4.006781578E0
4.675914322E0,-7.184450030E-1,9.778867722E0,4.006781578E0
4.678404062E0,-8.141579032E-1,9.922437668E0,3.973282099E0
4.680893750E0,-8.955138922E-1,1.013300610E1,3.891327858E0
4.683383489E0,-9.918249846E-1,1.033460140E1,3.733401537E0
4.685873229E0,-1.044467092E0,1.048295593E1,3.642474174E0
4.688362916E0,-1.073180914E0,1.054995537E1,3.551547050E0
4.690852656E0,-1.073180914E0,1.064566803E1,3.522833109E0
4.693309166E0,-1.015753269E0,1.068873882E1,3.474976778E0
4.695798906E0,-9.583254457E-1,1.062652493E1,3.360121250E0
4.698288645E0,-8.763712645E-1,1.060738277E1,3.254238844E0
4.700778333E0,-8.093722463E-1,1.060259724E1,3.158525944E0
4.703268072E0,-7.615157962E-1,1.056909752E1,3.077169895E0
4.705757760E0,-6.897311211E-1,1.048295593E1,3.038884640E0
4.708247500E0,-7.280163169E-1,1.040638542E1,3.058027267E0
4.710737187E0,-7.040880919E-1,1.039681435E1,3.072384357E0
4.713226927E0,-7.328019142E-1,1.031067276E1,3.053241730E0
4.715716666E0,-7.280163169E-1,1.029093170E1,3.053241730E0
4.718206354E0,-7.232306600E-1,1.027178955E1,2.962314367E0
4.720696093E0,-7.471588850E-1,1.025743294E1,2.842673302E0
4.723152604E0,-6.993024349E-1,1.015693378E1,2.746362209E0
4.725642343E0,-5.700899959E-1,9.999007225E0,2.669791937E0
4.728132083E0,-4.791627228E-1,9.874580383E0,2.631506681E0
4.730621770E0,-4.265206456E-1,9.759127617E0,2.545365095E0
4.733111510E0,-2.919243574E-1,9.668199539E0,2.483151674E0
4.735601197E0,-1.435693651E-1,9.505488396E0,2.440080881E0
4.738090937E0,-9.571290575E-3,9.323633194E0,2.397010088E0
4.740580625E0,1.196411327E-1,9.203393936E0,2.334796667E0
4.743070364E0,2.111666054E-1,9.040681839E0,2.330011129E0
4.745560104E0,2.925225794E-1,8.877969742E0,2.330011129E0
4.748049791E0,3.499503136E-1,8.758329391E0,2.349153519E0
4.750539531E0,3.690928817E-1,8.618947029E0,2.349153519E0
4.752996041E0,3.308077157E-1,8.494520187E0,2.411366940E0
4.755485781E0,2.925225794E-1,8.398807526E0,2.468794823E0
4.757975520E0,2.303091735E-1,8.346165657E0,2.559721947E0
4.760465208E0,1.680957973E-1,8.264809608E0,2.755933523E0
4.762954947E0,1.728814393E-1,8.231309891E0,2.995813847E0
4.765444635E0,1.100698411E-1,8.125427246E0,3.182454109E0
4.767934375E0,7.178468257E-2,8.020143509E0,3.412763357E0
4.770424062E0,2.392822690E-2,7.981858253E0,3.637688637E0
4.772913802E0,-1.579262912E-1,7.986643791E0,3.930211306E0
4.775403541E0,-2.009970993E-1,7.895716667E0,4.131208420E0
4.777893229E0,-2.584248483E-1,7.852645874E0,4.313062668E0
4.780382968E0,-3.732803464E-1,7.838288784E0,4.438087940E0
4.782839479E0,-4.408775866E-1,7.776075363E0,4.596014023E0
4.785329218E0,-4.839483798E-1,7.718647480E0,4.648656368E0
4.787818958E0,-5.653043389E-1,7.704290867E0,4.682155609E0
4.790308645E0,-6.466603279E-1,7.603193760E0,4.749154568E0
4.792798385E0,-6.897311211E-1,7.598408222E0,4.773082733E0
4.795288072E0,-7.184450030E-1,7.588837147E0,4.749154568E0
4.797777812E0,-7.519445419E-1,7.607979774E0,4.677370071E0
4.800267500E0,-8.093722463E-1,7.603193760E0,4.667798996E0
4.802757239E0,-8.524430394E-1,7.598408222E0,4.600799561E0
4.805246979E0,-8.955138922E-1,7.666005611E0,4.538586140E0
4.807736666E0,-9.002995491E-1,7.670791149E0,4.543372154E0
4.810226406E0,-9.774680734E-1,7.685148239E0,4.509872437E0
4.812682916E0,-1.001396298E0,7.666005611E0,4.548157692E0
4.815172656E0,-1.130608678E0,7.723433495E0,4.557728767E0
4.817662395E0,-1.211964726E0,7.646862984E0,4.533800602E0
4.820152083E0,-1.221535921E0,7.637291908E0,4.462016106E0
4.822641822E0,-1.307677627E0,7.632505894E0,4.452444553E0
4.825131510E0,-1.336391449E0,7.593622684E0,4.471587181E0
4.827621250E0,-1.365105271E0,7.574480057E0,4.471587181E0
4.830110937E0,-1.427318692E0,7.612765312E0,4.447659016E0
4.832600677E0,-1.460818172E0,7.574480057E0,4.466801643E0
4.835090416E0,-1.475773335E0,7.545766354E0,4.389633179E0
4.837580104E0,-1.537986755E0,7.536194801E0,4.365705013E0
4.840069843E0,-1.595414519E0,7.521838188E0,4.351347923E0
4.842526406E0,-1.657627940E0,7.512266636E0,4.298706055E0
4.845016145E0,-1.753340840E0,7.459624767E0,4.274777889E0
4.847505885E0,-1.863410592E0,7.440482140E0,4.212564468E0
4.849995572E0,-1.959123492E0,7.483552933E0,4.164707661E0
4.852485312E0,-2.127219439E0,7.488338470E0,4.126422882E0
4.854975000E0,-2.237289190E0,7.550551891E0,4.068994999E0
4.857464739E0,-2.347358942E0,7.507481098E0,4.016352654E0
4.859954427E0,-2.476571321E0,7.493124008E0,3.987638950E0
4.862444166E0,-2.654238462E0,7.478767395E0,4.011567116E0
4.864933906E0,-2.778665304E0,7.454838753E0,4.040280819E0
4.867423593E0,-2.869592667E0,7.469195843E0,4.073780537E0
4.869913333E0,-2.998805046E0,7.459624767E0,4.135993958E0
4.872369843E0,-3.090330362E0,7.392625332E0,4.236492634E0
4.874859583E0,-3.195614576E0,7.330412388E0,4.356133461E0
4.877349322E0,-3.238685369E0,7.292127132E0,4.447659016E0
4.879839010E0,-3.305684566E0,7.229913712E0,4.615156651E0
4.882328750E0,-3.320041418E0,7.258627415E0,4.730011940E0
4.884818437E0,-3.296113253E0,7.201199532E0,4.806582451E0
4.887308177E0,-3.243471146E0,7.167700291E0,4.989035130E0
4.889797864E0,-3.238685369E0,7.129415035E0,5.137390137E0
4.892287604E0,-3.186043262E0,7.100701332E0,5.347958565E0
4.894777343E0,-3.114258766E0,7.042675018E0,5.400600910E0
4.897267031E0,-3.190829039E0,7.057032108E0,5.400600910E0
4.899756770E0,-3.162115097E0,6.970890522E0,5.376672268E0
4.902213281E0,-2.965305567E0,6.927819729E0,5.462814331E0
4.904703020E0,-2.682952404E0,6.889534473E0,5.673980713E0
4.907192760E0,-2.462214470E0,6.875177860E0,5.879763603E0
4.909682447E0,-2.323430777E0,6.899106026E0,6.086144447E0
4.912172187E0,-2.165504456E0,6.970890522E0,6.229713917E0
4.914661875E0,-1.992623091E0,7.018746853E0,6.301498413E0
4.917151614E0,-1.925624013E0,7.076174736E0,6.311069489E0
4.919641302E0,-1.815554142E0,7.095915318E0,6.358926296E0
4.922130989E0,-1.710269928E0,7.225128174E0,6.320641041E0
4.924620781E0,-1.557129383E0,7.330412388E0,6.234499454E0
4.927110468E0,-1.403390527E0,7.363911629E0,6.119643688E0
4.929600208E0,-1.269392371E0,7.507481098E0,5.985047817E0
4.932056718E0,-1.207179070E0,7.622336388E0,5.798407555E0
4.934546458E0,-1.092323542E0,7.756932735E0,5.602196217E0
4.937036197E0,-1.030110121E0,7.919644833E0,5.400600910E0
4.939525885E0,-9.966106415E-1,8.096714020E0,5.228317261E0
4.942015625E0,-9.726824164E-1,8.226524353E0,5.017749310E0
4.944505312E0,-9.678967595E-1,8.408378601E0,4.873581409E0
4.946995052E0,-9.918249846E-1,8.595019341E0,4.706083775E0
4.949484739E0,-1.030110121E0,8.734400749E0,4.457230568E0
4.951974479E0,-1.034895778E0,8.858827591E0,4.260420799E0
4.954464218E0,-1.082752228E0,8.954540253E0,4.150351048E0
4.956953906E0,-1.159322619E0,9.045467377E0,4.116851330E0
4.959443645E0,-1.168893814E0,9.126823425E0,4.045066833E0
4.961900156E0,-1.255035520E0,9.227322578E0,3.968496323E0
4.964389895E0,-1.274178028E0,9.285347939E0,3.915854216E0
4.966879635E0,-1.312463164E0,9.280562401E0,3.872185230E0
4.969369322E0,-1.317248821E0,9.347561836E0,3.881756544E0
4.971859062E0,-1.345962763E0,9.342776299E0,3.857828379E0
4.974348750E0,-1.374676585E0,9.304491043E0,3.930211306E0
4.976838489E0,-1.403390527E0,9.261420250E0,4.011567116E0
4.979328177E0,-1.374676585E0,9.189037323E0,4.016352654E0
4.981817864E0,-1.436890006E0,9.055039406E0,4.126422882E0
4.984307656E0,-1.523629785E0,8.901898384E0,4.222135544E0
4.986797343E0,-1.604985833E0,8.787042618E0,4.322634220E0
4.989287083E0,-1.681556106E0,8.633303642E0,4.447659016E0
4.991743593E0,-1.734198213E0,8.542376518E0,4.639084816E0
4.994233333E0,-1.748555183E0,8.413164139E0,4.782654285E0
4.996723072E0,-1.738983870E0,8.355736732E0,4.921437740E0
4.999212760E0,-1.743769526E0,8.293522835E0,5.094319344E0
5.001702500E0,-1.724626899E0,8.260024071E0,5.285745144E0
5.004192187E0,-1.782054663E0,8.255238533E0,5.410171986E0
5.006681927E0,-1.748555183E0,8.245666504E0,5.583053589E0
5.009171614E0,-1.772483349E0,8.283951759E0,5.669195175E0
5.011661354E0,-1.791625977E0,8.336593628E0,5.678766251E0
5.014151093E0,-1.839482427E0,8.389236450E0,5.678766251E0
5.016640781E0,-1.939980984E0,8.518448830E0,5.688337803E0
5.019130520E0,-1.968694806E0,8.657232285E0,5.654838085E0
5.021587031E0,-1.892124534E0,8.844470978E0,5.525625706E0
5.024076770E0,-1.829911113E0,9.083752632E0,5.434100151E0
5.026566510E0,-1.758126378E0,9.390632629E0,5.280959606E0
5.029056197E0,-1.652842283E0,9.639486313E0,5.108676434E0
5.031545937E0,-1.523629785E0,9.989436150E0,5.003392220E0
5.034035625E0,-1.403390527E0,1.032981491E1,4.897509575E0
5.036525364E0,-1.240678549E0,1.065045357E1,4.720440865E0
5.039015052E0,-1.063609719E0,1.099561787E1,4.581656933E0
5.041504739E0,-9.439685345E-1,1.133539867E1,4.447659016E0
5.043994531E0,-7.615157962E-1,1.163749313E1,4.327419758E0
5.046484218E0,-5.892325640E-1,1.194915771E1,4.250849247E0
5.048973958E0,-4.456632137E-1,1.221715450E1,4.121636868E0
5.051430468E0,-3.158525825E-1,1.244207954E1,3.915854216E0
5.053920208E0,-2.201396823E-1,1.261017513E1,3.719044685E0
5.056409947E0,-2.201396823E-1,1.281595802E1,3.551547050E0
5.058899635E0,-1.435693651E-1,1.289252853E1,3.354737282E0
5.061389375E0,-1.100698411E-1,1.296431351E1,3.187239647E0
5.063879062E0,-1.052841991E-1,1.308455276E1,3.077169895E0
5.066368802E0,-1.531406492E-1,1.319940758E1,3.048455954E0
5.068858489E0,-2.488535494E-1,1.325683594E1,3.014956474E0
5.071348229E0,-4.217349887E-1,1.337647724E1,2.995813847E0
5.073837968E0,-5.605186820E-1,1.346740437E1,3.058027267E0
5.076327656E0,-7.663014531E-1,1.356371498E1,3.101098061E0
5.078817395E0,-1.020538807E0,1.364028549E1,3.067598581E0
5.081274010E0,-1.164108157E0,1.374078369E1,3.029313564E0
5.083763177E0,-1.389033556E0,1.384606838E1,3.005385160E0
5.086252343E0,-1.585843205E0,1.387478256E1,2.957528830E0
5.088741510E0,-1.705484390E0,1.388435364E1,2.895315409E0
5.091230677E0,-1.743769526E0,1.381735420E1,2.871387243E0
5.093719843E0,-1.782054663E0,1.373121262E1,2.890529871E0
5.096209010E0,-1.772483349E0,1.348176098E1,2.928814888E0
5.098698177E0,-1.863410592E0,1.313719463E1,2.823530674E0
5.101187343E0,-1.992623091E0,1.263410378E1,2.703291416E0
5.103676510E0,-1.930409670E0,1.205444241E1,2.487937450E0
5.106165677E0,-1.782054663E0,1.144128132E1,2.243271112E0
5.108654843E0,-1.518844128E0,1.089511967E1,1.936989903E0
5.111117447E0,-1.240678549E0,1.037288570E1,1.606182218E0
5.113606614E0,-1.063609719E0,9.874580383E0,1.237687469E0
5.116095781E0,-8.620143533E-1,9.433703423E0,8.733802438E-1
5.118584947E0,-5.653043389E-1,9.102895737E0,4.995017350E-1
5.121074114E0,-3.206382394E-1,8.758329391E0,1.597209126E-1
5.123563281E0,0.000000000E0,8.413164139E0,-6.101697683E-2
5.126052447E0,2.063809484E-1,8.169096947E0,-1.710868180E-1
5.128541614E0,4.025924206E-1,7.938787460E0,-2.811566591E-1
5.131030781E0,5.892325640E-1,7.742575645E0,-3.529413342E-1
5.133519947E0,6.855437160E-1,7.574480057E0,-2.955136001E-1
5.136009114E0,7.190431952E-1,7.426125050E0,-2.189432681E-1
5.138498281E0,6.903293133E-1,7.296912670E0,-1.184447184E-1
5.140960937E0,6.711867452E-1,7.172485828E0,-3.589233849E-3
5.143450052E0,6.610172391E-1,7.066603661E0,8.733802289E-2
5.145939270E0,5.700899959E-1,7.009175777E0,2.315055877E-1
5.148428437E0,4.169493318E-1,6.999604225E0,2.889333367E-1
5.150917604E0,3.547359705E-1,6.937391281E0,3.032902777E-1
5.153406770E0,3.212364316E-1,6.918248653E0,2.697907388E-1
5.155895937E0,3.212364316E-1,6.918248653E0,1.980060786E-1
5.158385104E0,3.451646566E-1,6.923034191E0,1.016949639E-1
5.160874270E0,3.547359705E-1,6.956533432E0,-4.187439755E-2
5.163363437E0,3.738785386E-1,7.028318405E0,-1.854437590E-1
5.165852604E0,2.638086975E-1,7.162914753E0,-2.811566591E-1
5.168341770E0,3.212364316E-1,7.292127132E0,-4.540380836E-1
5.170804375E0,3.786641955E-1,7.406982422E0,-5.976074338E-1
5.173293541E0,4.217349887E-1,7.512266636E0,-6.885347366E-1
5.175782708E0,4.408775866E-1,7.617550850E0,-6.023930907E-1
5.178271875E0,3.116651475E-1,7.953144073E0,-4.013960063E-1
5.180761041E0,2.733799815E-1,8.360522270E0,-1.663011760E-1
5.183250208E0,4.552344978E-1,8.580661774E0,1.555334684E-2
5.185739375E0,5.509474277E-1,8.642875671E0,2.410768867E-1
5.188228541E0,6.514459848E-1,8.748757362E0,5.617151260E-1
5.190717708E0,6.807580590E-1,8.959325790E0,1.141376376E0
5.193206875E0,6.035895348E-1,9.337990761E0,1.817348838E0
5.195696041E0,5.461617708E-1,9.668199539E0,2.550150633E0
5.198185208E0,5.174478889E-1,9.855438232E0,2.981456995E0
