"Time (s)","Acceleration x (m/s^2)","Acceleration y (m/s^2)","Acceleration z (m/s^2)"
0.000000000E0,-4.560283661E0,6.160529613E0,3.971099615E0
3.970313000E-3,-4.295255184E0,6.029078484E0,3.879641056E0
7.940625000E-3,-3.916674614E0,6.080209255E0,3.912891626E0
1.191093800E-2,-3.605926275E0,6.136367798E0,3.977870464E0
1.588125000E-2,-3.355885506E0,6.254478455E0,4.141222000E0
1.985312500E-2,-3.154533148E0,6.337806225E0,4.232708931E0
2.382343800E-2,-3.118026257E0,6.411930561E0,4.206717968E0
2.779218800E-2,-3.207445145E0,6.404546738E0,4.285190105E0
3.176406300E-2,-3.373794079E0,6.314218521E0,4.417618275E0
3.573437500E-2,-3.661500454E0,6.220979214E0,4.613253593E0
3.970468800E-2,-3.936555862E0,6.104017258E0,4.702882290E0
4.367500000E-2,-4.024509430E0,5.981376648E0,4.635471344E0
4.764531300E-2,-4.013907909E0,5.909119606E0,4.473566055E0
5.161718800E-2,-3.988941193E0,5.976042271E0,4.424953938E0
5.558750000E-2,-3.966378212E0,6.175871849E0,4.536026001E0
5.955781300E-2,-4.006399632E0,6.397680759E0,4.684063911E0
6.352812500E-2,-4.078082085E0,6.685176373E0,4.802203655E0
6.749843800E-2,-4.172853947E0,6.902148247E0,4.791132927E0
7.146875000E-2,-4.269167900E0,7.021255016E0,4.647652626E0
7.544062500E-2,-4.333418846E0,7.050100803E0,4.300580025E0
7.941093800E-2,-4.321773529E0,6.999276161E0,3.837426424E0
8.338125000E-2,-4.286818504E0,6.930964947E0,3.305377483E0
8.735156300E-2,-4.246509075E0,6.855461597E0,2.927237272E0
9.132187500E-2,-4.178944588E0,6.786815166E0,2.609871387E0
9.529218800E-2,-4.113506794E0,6.746065617E0,2.357034206E0
9.926406300E-2,-4.181339264E0,6.644771576E0,2.247025490E0
1.032343750E-1,-4.416440487E0,6.554816723E0,2.139659643E0
1.072031250E-1,-4.762459755E0,6.597347260E0,1.930138469E0
1.111750000E-1,-5.085897446E0,6.660880089E0,1.784082532E0
1.151453130E-1,-5.502986431E0,6.675762177E0,1.874717355E0
1.191156250E-1,-5.981577873E0,6.670044899E0,2.322299004E0
1.230859380E-1,-6.307534218E0,6.775839806E0,3.283293247E0
1.270562500E-1,-6.481496811E0,6.888281345E0,3.877007246E0
1.310265630E-1,-6.601503372E0,6.998940945E0,4.492949009E0
1.349984380E-1,-6.792072296E0,7.044679642E0,4.858649254E0
1.389687500E-1,-7.005022526E0,7.066151142E0,4.917508125E0
1.429390630E-1,-7.178659439E0,7.098281384E0,5.108910084E0
1.469093750E-1,-7.178362846E0,7.132144928E0,5.398608685E0
1.508796880E-1,-6.941977978E0,7.160089970E0,5.453464985E0
1.548500000E-1,-6.559097767E0,7.264400482E0,5.330852985E0
1.588218750E-1,-6.285325050E0,7.350477219E0,5.027335167E0
1.627921880E-1,-6.251183987E0,7.472140789E0,4.675396919E0
1.667609380E-1,-6.435863495E0,7.562287331E0,4.309467316E0
1.707328130E-1,-6.622352600E0,7.652797222E0,3.805918694E0
1.747031250E-1,-6.696026802E0,7.753067017E0,3.173274994E0
1.786734380E-1,-6.706379414E0,7.788002968E0,2.568901777E0
1.826453130E-1,-6.670734406E0,7.765114307E0,1.913723707E0
1.866171880E-1,-6.553974152E0,7.622869968E0,1.342131972E0
1.905843750E-1,-6.348953724E0,7.395440102E0,9.924827814E-1
1.945562500E-1,-6.069741726E0,7.126686096E0,7.321468592E-1
1.985265630E-1,-5.788547993E0,6.886490345E0,6.699264050E-1
2.024968750E-1,-5.511998177E0,6.670724392E0,8.382770419E-1
2.064671880E-1,-5.360320568E0,6.488564491E0,1.015055418E0
2.104375000E-1,-5.240303993E0,6.247372627E0,1.373917460E0
2.144078130E-1,-5.151957989E0,5.985149860E0,1.837961555E0
2.183796880E-1,-5.089478970E0,5.755728245E0,2.171292067E0
2.223500000E-1,-4.958420277E0,5.098749638E0,1.474033356E0
2.263203130E-1,-3.588199615E0,4.533334732E0,-1.053496599E0
2.302906250E-1,-2.855660200E0,4.578432083E0,-2.889312983E0
2.342609380E-1,-3.493111610E0,5.001219273E0,-2.684072495E0
2.382312500E-1,-3.935981512E0,5.152331352E0,-5.648592114E-1
2.422031250E-1,-4.081548691E0,5.053891659E0,1.664755464E0
2.461718750E-1,-4.248194695E0,4.934114933E0,2.999762535E0
2.501437500E-1,-4.275278091E0,4.749981403E0,3.762363434E0
2.541140630E-1,-4.926692486E0,4.826184273E0,3.914941072E0
2.580843750E-1,-5.841440201E0,5.087544441E0,3.852759123E0
2.620546880E-1,-6.789956093E0,5.413318634E0,3.805957079E0
2.660250000E-1,-7.484226704E0,5.705009460E0,3.905757189E0
2.699953130E-1,-7.944354057E0,5.948470592E0,4.054484844E0
2.739671880E-1,-8.397279739E0,6.219964027E0,4.190629005E0
2.779375000E-1,-8.708621025E0,6.446828842E0,4.256402493E0
2.819078130E-1,-9.013680458E0,6.625666142E0,4.279041767E0
2.858781250E-1,-9.150361061E0,6.758630276E0,4.230477810E0
2.898484380E-1,-9.000703812E0,6.804349899E0,4.004828930E0
2.938187500E-1,-8.492405891E0,6.712709427E0,3.767496586E0
2.977890630E-1,-7.793461800E0,6.565686703E0,3.561135530E0
3.017609380E-1,-7.141194820E0,6.435834408E0,3.512102365E0
3.057296880E-1,-6.332376003E0,6.313911915E0,3.547287703E0
3.097015630E-1,-5.697079659E0,6.269887924E0,3.672542572E0
3.136718750E-1,-5.183552265E0,6.304402351E0,3.903755426E0
3.176421880E-1,-4.927171230E0,6.474859715E0,4.128503799E0
3.216140630E-1,-4.891268253E0,6.670111656E0,4.291664124E0
3.255828130E-1,-4.955470562E0,6.809665203E0,4.339873314E0
3.295531250E-1,-5.109734058E0,6.950760365E0,4.341473103E0
3.335250000E-1,-5.260032177E0,7.040102005E0,4.320633888E0
3.374953130E-1,-5.399997711E0,7.051757336E0,4.330517292E0
3.414656250E-1,-5.609748363E0,7.058642864E0,4.341377258E0
3.454359380E-1,-5.828032494E0,7.000655174E0,4.324953079E0
3.494062500E-1,-6.064311981E0,6.984853745E0,4.137735844E0
3.533765630E-1,-6.248215199E0,6.887543678E0,3.513510227E0
3.573484380E-1,-6.389195442E0,6.780647278E0,2.857498884E0
3.613187500E-1,-6.840358734E0,6.417743683E0,1.199562192E0
3.652875000E-1,-7.242422104E0,5.981060505E0,-4.980705678E-1
3.692593750E-1,-7.021906376E0,5.836039066E0,1.281089485E-1
3.732296880E-1,-6.871732235E0,6.440326214E0,3.146363974E0
3.772000000E-1,-6.042754173E0,7.219427586E0,5.666644573E0
3.811703130E-1,-5.684361458E0,7.771492481E0,5.546416759E0
3.851437500E-1,-5.864147186E0,7.900846481E0,4.231981277E0
3.891109380E-1,-5.973370552E0,7.940906048E0,3.561078072E0
3.930828130E-1,-5.970526218E0,7.982479095E0,3.395916462E0
3.970531250E-1,-5.807059765E0,8.006037712E0,3.780492544E0
4.010234380E-1,-5.608551979E0,7.959906578E0,4.347429752E0
4.049937500E-1,-5.734026909E0,7.713734627E0,4.700373650E0
4.089640630E-1,-5.743412018E0,7.496762753E0,4.550611496E0
4.129359380E-1,-5.679247379E0,7.408627510E0,4.221035004E0
4.169046880E-1,-5.486140728E0,7.334330559E0,4.007376671E0
4.208765630E-1,-5.280200958E0,7.329111099E0,3.895251274E0
4.248468750E-1,-5.127422333E0,7.403934479E0,3.753236771E0
4.288171880E-1,-5.118851185E0,7.492663383E0,3.590306759E0
4.327875000E-1,-5.318202019E0,7.652481556E0,3.267424583E0
4.367578130E-1,-5.794092655E0,7.858105183E0,2.840327740E0
4.407281250E-1,-6.393016815E0,8.116592407E0,2.428505898E0
4.446984380E-1,-6.847656250E0,8.360705376E0,2.125514984E0
4.486703130E-1,-7.231743813E0,8.584084511E0,1.783986688E0
4.526406250E-1,-7.323546886E0,8.697417259E0,1.520404339E0
4.566109380E-1,-7.257572174E0,8.725600243E0,1.359140396E0
4.605812500E-1,-6.980582714E0,8.760853767E0,1.716460705E0
4.645515630E-1,-6.673817635E0,8.791479111E0,1.795296907E0
4.685437500E-1,-6.443438530E0,8.777688980E0,1.585038066E0
4.724921880E-1,-6.335996151E0,8.729642868E0,1.406727552E0
4.764625000E-1,-6.314295292E0,8.720200539E0,1.196765661E0
4.804328130E-1,-6.299326897E0,8.713304520E0,9.685887098E-1
4.844046880E-1,-6.258203506E0,8.713735580E0,7.120643258E-1
4.883750000E-1,-6.148999691E0,8.718140602E0,3.901878297E-1
4.923453130E-1,-5.902549744E0,8.707443237E0,-4.933013022E-2
4.963156250E-1,-5.623548985E0,8.729613304E0,-3.202388287E-1
5.002859380E-1,-5.349729061E0,8.783301353E0,-5.283524394E-1
5.042562500E-1,-5.180391788E0,8.916160583E0,-6.116323471E-1
5.082281250E-1,-5.165269852E0,9.113212585E0,-6.455054879E-1
5.121984380E-1,-5.272099018E0,9.369210243E0,-7.363414764E-1
5.161687500E-1,-5.398589611E0,9.703296661E0,-9.062724113E-1
5.201390630E-1,-5.519410610E0,1.008246231E1,-1.085454464E0
5.241093750E-1,-5.561596870E0,1.041376305E1,-1.147904754E0
5.280796880E-1,-5.531189919E0,1.084422112E1,-1.133893967E0
5.320515630E-1,-5.505945683E0,1.129502964E1,-1.061445475E0
5.360218750E-1,-5.558684826E0,1.171547031E1,-1.030684710E0
5.399906250E-1,-5.585001945E0,1.200630856E1,-1.099063158E0
5.439625000E-1,-5.575674534E0,1.227506256E1,-1.262500882E0
5.479328130E-1,-5.553772449E0,1.242721844E1,-1.409294248E0
5.519031250E-1,-5.481448174E0,1.256496239E1,-1.532059193E0
5.558734380E-1,-5.365501881E0,1.271491623E1,-1.645410299E0
5.598437500E-1,-5.232882500E0,1.283266258E1,-1.822083235E0
5.638140630E-1,-5.039248466E0,1.289683723E1,-1.944494009E0
5.677859380E-1,-4.711540222E0,1.294762230E1,-1.971950650E0
5.717562500E-1,-4.371917248E0,1.295972729E1,-1.788315415E0
5.757265630E-1,-4.137803078E0,1.296973515E1,-1.493407249E0
5.796968750E-1,-3.841764927E0,1.300174141E1,-1.078520894E0
5.836718750E-1,-3.590057611E0,1.301622200E1,-6.184127331E-1
5.876390630E-1,-3.319924593E0,1.304190636E1,-2.441798449E-1
5.916093750E-1,-2.968340874E0,1.303707886E1,1.741733849E-1
5.955796880E-1,-2.603684902E0,1.298219395E1,6.608188748E-1
5.995500000E-1,-2.247465849E0,1.288242340E1,1.029085279E0
6.035203130E-1,-1.952452421E0,1.276219654E1,1.247503519E0
6.074906250E-1,-1.578353524E0,1.256674290E1,1.256687760E0
6.114609380E-1,-1.229489565E0,1.235752869E1,1.183262348E0
6.154312500E-1,-1.019671321E0,1.219008827E1,1.190607786E0
6.194015630E-1,-8.470206857E-1,1.202764511E1,1.297551990E0
6.233718750E-1,-8.328278065E-1,1.186864185E1,1.439509034E0
6.273437500E-1,-8.954314590E-1,1.176819038E1,1.583927274E0
6.313140630E-1,-1.016041756E0,1.172884941E1,1.689607263E0
6.352843750E-1,-1.232822418E0,1.176910019E1,1.842184901E0
6.392546880E-1,-1.460826874E0,1.183556366E1,2.024173021E0
6.432250000E-1,-1.679149389E0,1.190133667E1,2.299487114E0
6.471968750E-1,-1.913877010E0,1.197805691E1,2.335831165E0
6.511671880E-1,-2.073455334E0,1.197631454E1,2.136643171E0
6.551359380E-1,-2.155509233E0,1.197563362E1,1.941841245E0
6.591078130E-1,-2.181615829E0,1.199458694E1,1.859767914E0
6.630781250E-1,-2.218247175E0,1.200367451E1,1.794636130E0
6.670484380E-1,-2.229490280E0,1.196870995E1,1.708722711E0
6.710187500E-1,-2.259561300E0,1.191123962E1,1.609267473E0
6.749890630E-1,-2.342055798E0,1.183433819E1,1.520921350E0
6.789593750E-1,-2.368066549E0,1.176872730E1,1.466295242E0
6.829312500E-1,-2.319550514E0,1.166249084E1,1.398644805E0
6.869015630E-1,-2.170870543E0,1.147688389E1,1.304543138E0
6.908718750E-1,-1.904970527E0,1.120314980E1,1.166704059E0
6.948421880E-1,-1.601021886E0,1.092265415E1,1.060276985E0
6.988125000E-1,-1.280016899E0,1.059237862E1,9.416682720E-1
7.027828130E-1,-1.120294809E0,1.025728703E1,8.372906446E-1
7.067546880E-1,-1.115104198E0,9.986800194E0,7.726854682E-1
7.107250000E-1,-1.133530021E0,9.812118530E0,7.793701291E-1
7.146953130E-1,-2.196536303E0,9.783138275E0,-4.298204899E0
7.186656250E-1,-1.777522326E0,9.904266357E0,1.723825186E-1
7.226359380E-1,-1.006982088E0,9.633185387E0,2.669333696E0
7.266062500E-1,-1.197292328E0,9.291571617E0,1.397284746E0
7.305781250E-1,-8.691335320E-1,9.012914658E0,6.920487881E-1
7.345468750E-1,-4.364055097E-1,8.937880516E0,1.292466640E0
7.385187500E-1,-1.169328094E-1,8.937717438E0,1.853878260E0
7.424890630E-1,-1.060152501E-1,8.953021049E0,1.628401995E0
7.464593750E-1,-2.638314366E-1,8.997515678E0,1.171952128E0
7.504296880E-1,-3.781210780E-1,9.076504707E0,9.135220051E-1
7.544000000E-1,-4.647049904E-1,9.195171356E0,7.968669534E-1
7.583703130E-1,-4.439807832E-1,9.302833557E0,8.431803584E-1
7.623406250E-1,-3.996976018E-1,9.335892677E0,9.174006581E-1
7.663125000E-1,-3.782263994E-1,9.295392990E0,9.738750458E-1
7.702828130E-1,-3.743669391E-1,9.159765244E0,1.010736227E0
7.742578130E-1,-4.099352062E-1,8.956018448E0,1.005717993E0
7.782234380E-1,-4.650880396E-1,8.819462776E0,9.644994140E-1
7.821937500E-1,-5.503982306E-1,8.670314789E0,8.639045954E-1
7.861640630E-1,-7.184903622E-1,8.560420036E0,7.018171549E-1
7.901359380E-1,-9.400498271E-1,8.476796150E0,5.679046512E-1
7.941062500E-1,-1.296306968E0,8.400421143E0,3.856101334E-1
7.980765630E-1,-1.796714306E0,8.368156433E0,1.354926676E-1
8.020468750E-1,-2.304984093E0,8.361740112E0,-1.697105914E-1
8.060171880E-1,-2.876020432E0,8.408454895E0,-5.566518903E-1
8.099875000E-1,-3.367502213E0,8.521356583E0,-8.840254545E-1
8.139578130E-1,-3.627483606E0,8.648268700E0,-1.170343280E0
8.179281250E-1,-3.750402212E0,8.799016953E0,-1.470116496E0
8.219000000E-1,-3.694780111E0,8.927498817E0,-1.742519140E0
8.258703130E-1,-3.591781378E0,9.007292747E0,-1.919948578E0
8.298406250E-1,-3.556328058E0,9.047631264E0,-1.997472882E0
8.338109380E-1,-3.495831251E0,9.088859558E0,-2.025101900E0
8.377812500E-1,-3.406575441E0,9.062695503E0,-2.063007116E0
8.417515630E-1,-3.298759699E0,9.018842697E0,-2.194984913E0
8.457234380E-1,-3.170967102E0,8.918918610E0,-2.365088224E0
8.496937500E-1,-3.034842253E0,8.823887825E0,-2.525969028E0
8.536640630E-1,-2.942023754E0,8.680370331E0,-2.638161421E0
8.576343750E-1,-2.885396242E0,8.499530792E0,-2.780903578E0
8.616046880E-1,-2.879238367E0,8.346100807E0,-2.867037296E0
8.655750000E-1,-3.011187553E0,8.243379593E0,-2.897414923E0
8.695468750E-1,-3.265911341E0,8.161623001E0,-2.995050430E0
8.735156250E-1,-3.549509287E0,8.062177658E0,-3.134584665E0
8.775218750E-1,-3.767219067E0,7.900511265E0,-3.325201511E0
8.814578130E-1,-3.864375830E0,7.692273140E0,-3.486407757E0
8.854281250E-1,-3.876164436E0,7.445909500E0,-3.672360659E0
8.893984380E-1,-3.806617975E0,7.198875904E0,-3.721891880E0
8.933687500E-1,-3.793296576E0,7.035677910E0,-3.618251801E0
8.973390630E-1,-3.839667559E0,6.937323570E0,-3.413049459E0
9.013093750E-1,-3.946573257E0,6.897206306E0,-3.098412991E0
9.052812500E-1,-4.117854595E0,7.013114929E0,-2.779160738E0
9.092515630E-1,-4.278189659E0,7.212360382E0,-2.574408531E0
9.132218750E-1,-4.497526646E0,7.456070900E0,-2.632453680E0
9.171921880E-1,-4.679371357E0,7.580875874E0,-2.884400129E0
9.211625000E-1,-4.771183968E0,7.567420483E0,-3.105030537E0
9.251328130E-1,-4.840166092E0,7.403456211E0,-3.180716038E0
9.291046880E-1,-4.788863182E0,7.156575203E0,-3.156439066E0
9.330734380E-1,-4.655256748E0,6.890168190E0,-3.103076935E0
9.370453130E-1,-4.512045383E0,6.590442181E0,-3.092331886E0
9.410140630E-1,-4.457774162E0,6.349030495E0,-3.180074453E0
9.449859380E-1,-4.458013058E0,6.221648693E0,-3.417110205E0
9.489562500E-1,-4.481687069E0,6.230651379E0,-3.642634392E0
9.529265630E-1,-4.532712460E0,6.345898628E0,-3.949762344E0
9.568968750E-1,-4.495362759E0,6.544358730E0,-4.176665306E0
9.608671880E-1,-4.403138161E0,6.730570316E0,-4.280526161E0
9.648390630E-1,-4.339758873E0,7.077451706E0,-4.506711483E0
9.688093750E-1,-4.290572166E0,7.346512318E0,-4.814519405E0
9.727796880E-1,-4.236827374E0,7.395918846E0,-5.069492340E0
9.767500000E-1,-4.170144081E0,7.351932526E0,-4.933262348E0
9.807203130E-1,-4.166322708E0,7.260608196E0,-4.755526543E0
9.846906250E-1,-4.437853813E0,7.152840137E0,-4.846179962E0
9.886625000E-1,-4.704711914E0,7.026656151E0,-5.041949272E0
9.926312500E-1,-4.952549934E0,6.927526951E0,-5.140504360E0
9.966031250E-1,-4.972297192E0,6.942533493E0,-5.040493488E0
1.000571875E0,-4.907883644E0,7.101853371E0,-4.806599140E0
1.004543750E0,-4.894485950E0,7.293274879E0,-4.431925774E0
1.008514063E0,-4.937638760E0,7.436265945E0,-4.105586529E0
1.012490625E0,-5.007252216E0,7.633998394E0,-3.929383039E0
1.016454688E0,-5.005873680E0,7.829585552E0,-3.887110949E0
1.020426563E0,-4.837857723E0,7.923984051E0,-3.886249065E0
1.024396875E0,-4.504958630E0,7.950837612E0,-3.785481930E0
1.028367188E0,-4.138607502E0,7.957014561E0,-3.708551407E0
1.032337500E0,-3.780971289E0,8.047668457E0,-3.667926550E0
1.036307813E0,-3.565052509E0,8.048683167E0,-3.718338966E0
1.040278125E0,-3.470194340E0,8.019072533E0,-3.833921432E0
1.044250000E0,-3.455168247E0,8.031818390E0,-3.936163425E0
1.048218750E0,-3.474139929E0,8.060626030E0,-3.981461763E0
1.052189063E0,-3.477175713E0,8.088494301E0,-3.989123106E0
1.056160938E0,-3.403386593E0,8.089998245E0,-3.881700039E0
1.060131250E0,-3.413183689E0,8.142306328E0,-3.926912069E0
1.064101563E0,-3.522033453E0,8.260235786E0,-4.108325481E0
1.068071875E0,-3.648658037E0,8.371708870E0,-4.296375751E0
1.072042188E0,-3.831555843E0,8.485194206E0,-4.429158211E0
1.076014063E0,-4.055289268E0,8.609578133E0,-4.556175232E0
1.079982813E0,-4.238053322E0,8.691478729E0,-4.657804489E0
1.083954688E0,-4.296634197E0,8.504339218E0,-4.478028774E0
1.087925000E0,-4.524208069E0,8.791029930E0,-4.407313347E0
1.091895313E0,-4.666663170E0,9.049785614E0,-4.525721073E0
1.095865625E0,-4.650727272E0,9.202937126E0,-4.602498531E0
1.099835938E0,-4.531390667E0,9.242183685E0,-4.475222588E0
1.103807813E0,-4.585978508E0,9.180048943E0,-4.434166908E0
1.107776563E0,-4.736554623E0,9.066582680E0,-4.491800308E0
1.111748438E0,-4.732091904E0,8.711695671E0,-4.501626015E0
1.115718750E0,-4.005221844E0,7.710373402E0,-4.372559071E0
1.119689063E0,-4.021454334E0,7.694360733E0,-4.087898254E0
1.123659375E0,-4.315769196E0,8.259508133E0,-3.766787767E0
1.127629688E0,-4.966024399E0,9.078017235E0,-3.983453512E0
1.131600000E0,-5.411288738E0,9.588557243E0,-4.448043346E0
1.135571875E0,-5.138445377E0,9.333957672E0,-4.744359970E0
1.139540625E0,-4.851208210E0,9.167723656E0,-4.680740833E0
1.143512500E0,-4.474322319E0,9.109515190E0,-4.092351437E0
1.147482813E0,-4.375346184E0,9.097889900E0,-3.608521700E0
1.151453125E0,-4.310999393E0,8.923754692E0,-3.375996828E0
1.155423438E0,-4.280938148E0,8.655690193E0,-3.401308298E0
1.159393750E0,-4.378008366E0,8.515542984E0,-3.519984245E0
1.163365625E0,-4.364256382E0,8.374582291E0,-3.788623095E0
1.167335938E0,-4.134853363E0,8.209727287E0,-3.964558601E0
1.171306250E0,-3.964453459E0,8.159524918E0,-3.976108074E0
1.175276563E0,-4.018734455E0,8.183994293E0,-3.854817867E0
1.179246875E0,-4.072010040E0,8.124800682E0,-3.722648382E0
1.183217188E0,-4.218391895E0,8.189126968E0,-3.713799477E0
1.187187500E0,-4.199008465E0,8.278622627E0,-3.761942148E0
1.191157813E0,-4.025371552E0,8.363914490E0,-3.814145327E0
1.195129688E0,-3.792195320E0,8.303607941E0,-3.733853340E0
1.199100000E0,-3.608531237E0,8.264764786E0,-3.539865494E0
1.203070313E0,-3.439739943E0,8.212792397E0,-3.294469595E0
1.207040625E0,-3.285773754E0,8.066199303E0,-3.182708025E0
1.211010938E0,-3.174060345E0,7.950320244E0,-3.210739613E0
1.214981250E0,-3.083118916E0,7.957397461E0,-3.194190741E0
1.218951563E0,-3.303672791E0,8.190736771E0,-3.208441019E0
1.222923438E0,-3.356441021E0,8.291063309E0,-3.294680119E0
1.226893750E0,-2.973445415E0,8.034040451E0,-3.266409397E0
1.230864063E0,-3.100644588E0,8.646898270E0,-3.074537992E0
1.234834375E0,-3.963983774E0,9.898893356E0,-3.168515444E0
1.238804688E0,-4.392661095E0,1.052647209E1,-3.594443798E0
1.242775000E0,-4.362216473E0,1.041427898E1,-4.122489929E0
1.246745313E0,-3.979977369E0,1.023044300E1,-3.997148514E0
1.250715625E0,-3.495572805E0,1.014653111E1,-3.714326143E0
1.254687500E0,-3.261180401E0,9.867472649E0,-3.760601282E0
1.258657813E0,-3.075007439E0,9.380990028E0,-3.695689678E0
1.262628125E0,-2.974671125E0,9.279264450E0,-3.590766430E0
1.266598438E0,-3.145090342E0,9.375300407E0,-3.713598490E0
1.270568750E0,-3.528880835E0,9.446619987E0,-4.189393044E0
1.274539063E0,-3.625079870E0,9.298772812E0,-4.516814709E0
1.278509375E0,-3.668261766E0,9.284656525E0,-4.549778461E0
1.282479688E0,-3.902002811E0,9.280213356E0,-4.493150234E0
1.286451563E0,-4.153298378E0,9.245439529E0,-4.405302048E0
1.290421875E0,-4.077497959E0,9.149154663E0,-4.256325722E0
1.294392188E0,-4.111562729E0,9.113203049E0,-4.270690918E0
1.298362500E0,-4.148758888E0,8.985017776E0,-4.229223251E0
1.302332813E0,-3.713426113E0,8.673589706E0,-4.303452969E0
1.306303125E0,-3.644348383E0,8.733406067E0,-4.224262238E0
1.310275000E0,-3.781852245E0,8.992133141E0,-4.180410385E0
1.314245313E0,-3.849378347E0,9.008241653E0,-4.182383537E0
1.318214063E0,-3.595564127E0,8.752080917E0,-4.074596405E0
1.322185938E0,-3.027448893E0,8.438210487E0,-3.842597961E0
1.326156250E0,-3.136950254E0,8.719174385E0,-3.570176125E0
1.330126563E0,-3.056370735E0,8.888080597E0,-3.571105003E0
1.334098438E0,-3.079115629E0,9.116478920E0,-3.807853222E0
1.338067188E0,-3.004809380E0,9.240651131E0,-3.971511364E0
1.342039063E0,-2.898870707E0,9.279609680E0,-3.982898235E0
1.346009375E0,-2.689761162E0,9.260848999E0,-3.830914259E0
1.349979688E0,-2.617149591E0,9.355113029E0,-3.516622543E0
1.353950000E0,-2.259685755E0,9.336103439E0,-3.123743534E0
1.357920313E0,-1.786620378E0,9.352690697E0,-3.022918940E0
1.361890625E0,-1.399612069E0,9.571395874E0,-3.067183018E0
1.365860938E0,-1.388924360E0,9.941261292E0,-3.203317404E0
1.369832813E0,-1.597009182E0,1.028164101E1,-3.252906084E0
1.373803125E0,-1.682836533E0,1.026890373E1,-3.339279413E0
1.377773438E0,-1.624590278E0,1.002644730E1,-3.343004704E0
1.381743750E0,-1.560339570E0,9.689411163E0,-3.290226698E0
1.385714063E0,-1.573028803E0,9.460495949E0,-3.315021276E0
1.389685938E0,-1.720435023E0,9.329926491E0,-3.402275562E0
1.393656250E0,-1.842242479E0,9.266423225E0,-3.588563442E0
1.397625000E0,-1.877130747E0,9.303025246E0,-3.734734297E0
1.401596875E0,-1.879630208E0,9.535301208E0,-3.877218008E0
1.405567188E0,-1.736035585E0,9.726328850E0,-3.847376823E0
1.409537500E0,-1.687663198E0,9.867779732E0,-3.761492014E0
1.413507813E0,-1.711404085E0,9.847140312E0,-3.711175442E0
1.417478125E0,-1.694338202E0,9.589400291E0,-3.636677504E0
1.421448438E0,-1.717657685E0,9.282770157E0,-3.438839912E0
1.425420313E0,-1.792739868E0,9.106546402E0,-3.184556484E0
1.429390625E0,-1.920896769E0,9.049392700E0,-3.055326939E0
1.433360938E0,-1.918081164E0,9.083649635E0,-3.131021976E0
1.437331250E0,-1.886937380E0,9.148934364E0,-3.251124859E0
1.441301563E0,-1.889580607E0,9.210436821E0,-3.250578880E0
1.445271875E0,-1.940251470E0,9.187127113E0,-3.107501507E0
1.449243750E0,-1.882963061E0,9.148550987E0,-2.761970282E0
1.453214063E0,-1.816365957E0,9.209134102E0,-2.470624447E0
1.457182813E0,-1.695066094E0,9.303033829E0,-2.293271780E0
1.461154688E0,-1.657141924E0,9.487014771E0,-2.365174294E0
1.465125000E0,-1.654977560E0,9.700826645E0,-2.558051348E0
1.469095313E0,-1.594346762E0,9.646612167E0,-2.732521534E0
1.473065625E0,-1.367261648E0,9.374746323E0,-2.609363794E0
1.477035938E0,-1.403471470E0,9.341321945E0,-2.440122604E0
1.481006250E0,-1.767811537E0,9.483738899E0,-2.417157173E0
1.484978125E0,-1.990539312E0,9.641286850E0,-2.497113943E0
1.488948438E0,-2.044064045E0,9.769549370E0,-2.718031645E0
1.492918750E0,-2.162356615E0,9.833340645E0,-3.136576653E0
1.496889063E0,-2.237745285E0,9.862808228E0,-3.189881086E0
1.500859375E0,-2.286453009E0,9.807875633E0,-3.037370443E0
1.504829688E0,-2.177028656E0,9.537753105E0,-2.893086195E0
1.508801563E0,-1.271301985E0,8.481842995E0,-2.505656481E0
1.512771875E0,-1.762553811E0,8.887707710E0,-2.003372192E0
1.516740625E0,-2.324329376E0,9.542770386E0,-2.073608398E0
1.520712500E0,-3.396108150E0,1.013931084E1,-2.774745703E0
1.524682813E0,-3.441837311E0,9.588873863E0,-3.927084446E0
1.528653125E0,-3.157856226E0,9.223805428E0,-3.704241991E0
1.532625000E0,-2.904128313E0,9.247872353E0,-3.009176254E0
1.536593750E0,-2.435333967E0,9.110866547E0,-2.402753830E0
1.540564063E0,-2.567465305E0,9.094288826E0,-2.402906895E0
1.544535938E0,-2.963178873E0,9.108213425E0,-2.516574144E0
1.548506250E0,-3.149486065E0,8.659109116E0,-2.694501638E0
1.552476563E0,-2.980656624E0,8.357257843E0,-2.477405071E0
1.556446875E0,-3.010813951E0,8.377120018E0,-2.300703287E0
1.560417188E0,-3.075419188E0,8.597616196E0,-2.229978561E0
1.564389063E0,-3.011522770E0,8.673426628E0,-2.364599943E0
1.568359375E0,-2.851379395E0,8.408541679E0,-2.761482000E0
1.572329688E0,-2.964653730E0,8.143609047E0,-3.043595552E0
1.576300000E0,-3.258460760E0,7.807549477E0,-3.334663391E0
1.580270313E0,-3.407724857E0,7.469200611E0,-3.078225136E0
1.584240625E0,-2.936411858E0,7.301070213E0,-1.065036774E0
1.588210938E0,-1.561996341E0,7.558609962E0,-1.531340957E0
1.592182813E0,-1.021155715E0,8.182442665E0,-1.960793734E0
1.596151563E0,-1.011186242E0,8.599866867E0,-2.377767801E0
1.600123438E0,-7.936969995E-1,8.430003166E0,-2.641886711E0
1.604093750E0,-8.147755861E-1,8.354547501E0,-3.116838932E0
1.608068750E0,-4.757087231E-1,8.084309578E0,-2.635766983E0
1.612034375E0,-5.657402873E-1,8.070959091E0,-2.662524700E0
1.616004688E0,-8.037143350E-1,7.924807549E0,-2.814068079E0
1.619975000E0,-1.053831816E0,7.821655750E0,-2.704863787E0
1.623946875E0,-1.411085010E0,7.988445282E0,-3.229557753E0
1.627915625E0,-1.437143564E0,7.851343632E0,-3.775225163E0
1.631887500E0,-1.279423118E0,7.417572498E0,-3.437048912E0
1.635857813E0,-1.100193143E0,7.320472717E0,-3.531447411E0
1.639828125E0,-8.660306334E-1,7.569440842E0,-1.783038616E0
1.643798438E0,-4.382442534E-1,8.386687279E0,-2.169108391E0
1.647770313E0,1.215201020E-1,8.206653595E0,-2.887148619E0
1.651740625E0,6.492021680E-1,8.595826149E0,-2.195865870E0
1.655709375E0,1.411688328E0,8.494339943E0,-2.221790552E0
1.659681250E0,1.629263759E0,8.544886589E0,-2.393071651E0
1.663651563E0,1.696617603E0,8.837936401E0,-2.174011707E0
1.667621875E0,1.807957530E0,9.038226128E0,-2.018350363E0
1.671592188E0,1.814000487E0,9.326267242E0,-2.283225536E0
1.675564063E0,1.787664175E0,9.148675919E0,-2.189277172E0
1.679532813E0,1.526983500E0,8.980018616E0,-1.947903275E0
1.683504688E0,7.799159884E-1,9.072280884E0,-2.053659916E0
1.687475000E0,3.247494996E-1,9.121037483E0,-2.336961269E0
1.691445313E0,1.106504276E-1,8.924740791E0,-2.560828686E0
1.695415625E0,2.596559823E-1,8.494483948E0,-2.695430756E0
1.699385938E0,3.304285705E-1,8.467668533E0,-2.471563339E0
1.703356250E0,4.531266093E-1,8.470541954E0,-2.533314466E0
1.707328125E0,1.133644938E0,7.877469063E0,-2.375297070E0
1.711298438E0,1.292045236E0,7.911849976E0,-1.727991104E0
1.715267188E0,1.338330030E0,8.057829857E0,-1.741417885E0
1.719239063E0,1.311974645E0,8.570570946E0,-2.029085875E0
1.723209375E0,1.357914567E0,9.006977081E0,-2.475642920E0
1.727181250E0,2.001227140E0,8.839259148E0,-3.140196562E0
1.731150000E0,2.130638361E0,8.786135674E0,-3.046545267E0
1.735120313E0,1.914154649E0,8.746717453E0,-2.852413654E0
1.739092188E0,1.526849508E0,9.025307655E0,-2.780750275E0
1.743062500E0,1.135167599E0,9.337577820E0,-2.677426338E0
1.747032813E0,8.996931314E-1,9.122665405E0,-2.743170977E0
1.751003125E0,1.008610129E0,8.485108376E0,-3.833528757E0
1.754973438E0,7.729919553E-1,8.343812943E0,-3.599634171E0
1.758943750E0,4.698956013E-1,8.485300064E0,-3.379827499E0
1.762914063E0,1.914403737E-1,8.709109306E0,-3.376801252E0
1.766885938E0,1.490630060E-1,8.907656670E0,-3.496674061E0
1.770856250E0,3.358777761E-1,8.884106636E0,-3.728461742E0
1.774826563E0,7.828656435E-1,8.745214462E0,-3.204801798E0
1.778796875E0,2.675472498E0,6.778425694E0,-4.026376724E0
1.782767188E0,2.715340853E0,6.101191998E0,-4.350120544E0
1.786737500E0,2.596856356E0,5.686966419E0,-3.790538311E0
1.790707813E0,2.048967361E0,5.906505585E0,-2.796475649E0
1.794678125E0,1.207261801E0,6.443333149E0,-2.361075401E0
1.798650000E0,4.197897613E-1,7.096548080E0,-2.443340302E0
1.802620313E0,-1.175361499E-1,7.814530849E0,-2.433313370E0
1.806590625E0,-8.229253888E-1,8.328469276E0,-2.081193447E0
1.810560938E0,-1.656797171E0,8.401770592E0,-1.998411417E0
1.814531250E0,-1.830625772E0,8.184157372E0,-2.174260855E0
1.818501563E0,-7.338515520E-1,7.573999405E0,-3.302849054E0
1.822473438E0,1.300051510E-1,7.193685532E0,-3.695048094E0
1.826442188E0,6.096308231E-1,6.781231403E0,-2.933701515E0
1.830412500E0,9.991291165E-1,6.633920670E0,-1.695295930E0
1.834384375E0,1.457388878E0,6.591850281E0,-1.968321055E-1
1.838354688E0,2.013380051E0,6.750566483E0,6.274915338E-1
1.842325000E0,2.237831593E0,6.951698780E0,1.540285826E0
1.846295313E0,2.200233221E0,7.209477425E0,2.195731878E0
1.850265625E0,3.083291292E0,7.506425858E0,2.043001175E0
1.854235938E0,4.195091248E0,8.088110924E0,1.642958641E0
1.858207813E0,4.013237476E0,8.504070282E0,2.048574686E0
1.862178125E0,2.338550806E0,8.323978424E0,3.631362200E0
1.866148438E0,6.140935421E-1,8.263539314E0,4.055854321E0
1.870154688E0,2.656501055E0,1.049792290E1,-1.143671870E0
1.874092188E0,6.945684433E0,1.167364883E1,-2.837876081E0
1.878059375E0,5.810468674E0,1.168591690E1,-4.027478218E0
1.882031250E0,5.332864285E0,1.054204369E1,-7.665755153E-1
1.886001563E0,2.268199682E0,8.754963875E0,3.438025713E0
1.889971875E0,-5.823464990E-1,7.117186069E0,6.258653641E0
1.893942188E0,-3.075227499E0,4.366679192E0,6.303061485E0
1.897912500E0,-2.780415297E0,-4.683633149E-1,-9.567326307E-1
1.901882813E0,-3.278476000E0,-1.975273848E0,-9.441755295E0
1.905853125E0,-6.147830963E0,1.161360264E0,-3.917201161E-1
1.909823438E0,-4.252494812E0,1.420125484E0,5.682120800E0
1.913795313E0,-1.060363173E0,8.734813929E-1,3.696226120E0
1.917765625E0,1.734311819E0,1.079976559E0,1.132428765E0
1.921735938E0,3.305003881E0,1.804126740E0,4.882830679E-1
1.925706250E0,2.472836971E0,3.319608688E0,1.366801858E0
1.929676563E0,1.027591377E-1,6.357735157E0,4.250291824E0
1.933646875E0,-2.186672449E0,1.197073078E1,-8.954601288E-1
1.937617188E0,-5.604912758E0,3.175329018E1,-2.234623194E0
1.941589063E0,-6.182499528E-1,4.929878616E1,-4.511997700E0
1.945559375E0,6.396607876E0,5.833766556E1,4.007452965E0
1.949529688E0,1.088195324E1,5.123707581E1,4.176043510E0
1.953500000E0,1.064547253E1,3.588070297E1,1.878126740E0
1.957470313E0,6.029701233E0,2.395851707E1,1.664477825E0
1.961440625E0,1.614764571E0,1.539377785E1,2.058323860E0
1.965420313E0,-9.114246815E-2,1.111297417E1,1.028491616E0
1.969381250E0,-1.344775259E-1,9.718658447E0,-4.587386250E-1
1.973353125E0,6.287844181E-1,9.533854485E0,-1.478725910E0
1.977323438E0,1.420968294E0,1.020160770E1,-1.902107000E0
1.981293750E0,1.854290009E0,1.082991314E1,-1.696646214E0
1.985264063E0,1.894378543E0,1.101023483E1,-6.059149504E-1
1.989234375E0,1.788842201E0,1.077903080E1,7.453246117E-1
1.993204688E0,1.870637655E0,1.052949810E1,1.700591922E0
1.997176563E0,2.025092363E0,1.040491295E1,2.117135048E0
2.001146875E0,2.260720253E0,1.028452301E1,2.261601210E0
2.005117188E0,2.438523293E0,1.023037624E1,-6.046699882E-1
2.009087500E0,1.998957276E0,1.015296650E1,-1.499411821E0
2.013057813E0,1.657113194E0,1.014396477E1,-1.383810282E0
2.017034375E0,1.669927001E0,1.013432026E1,-3.813867569E-1
2.021000000E0,1.771316648E0,1.008767223E1,4.735634923E-1
2.024968750E0,1.980962515E0,1.004398251E1,7.698986530E-1
2.028939063E0,2.275449276E0,1.014380169E1,5.457822084E-1
2.032910938E0,2.714114904E0,1.008792114E1,-3.433763981E-1
2.036881250E0,2.854185343E0,9.977222443E0,-8.077653050E-1
2.040851563E0,2.821298599E0,1.004473972E1,-1.274672985E0
2.044821875E0,2.679312706E0,1.020380974E1,-1.743151188E0
2.048792188E0,2.485813379E0,1.032783890E1,-2.139544964E0
2.052762500E0,2.195205212E0,1.054309654E1,-2.497315168E0
2.056734375E0,1.911664724E0,1.077488518E1,-2.934362411E0
2.060704688E0,1.693572164E0,1.093297863E1,-2.959539890E0
2.064675000E0,1.388943434E0,1.100335884E1,-2.556298733E0
2.068645313E0,1.250606418E0,1.081639099E1,-2.060631752E0
2.072618750E0,1.351871610E0,1.050392818E1,-1.208152413E0
2.076585938E0,1.088346720E0,1.048756123E1,-4.442584813E-1
2.080557813E0,3.063907921E-1,1.092476177E1,2.060258538E-1
2.084528125E0,-5.340889096E-1,1.169860554E1,1.389719129E0
2.088498438E0,-1.185014844E0,1.290729523E1,3.893604040E0
2.092468750E0,-6.809109449E-2,1.140453148E1,5.188474655E0
2.096439063E0,1.060305834E0,9.437608719E0,3.918130159E0
2.100409375E0,1.773720384E0,7.891279221E0,2.085876465E0
2.104379688E0,2.355406046E0,6.688250542E0,5.393561721E-1
2.108350000E0,2.078253269E0,6.394711494E0,1.814326048E-1
2.112320313E0,1.937962651E0,6.338246346E0,1.213180304E0
2.116292188E0,3.751244783E0,6.088167667E0,1.692384481E0
2.120262500E0,3.673749208E0,7.208673477E0,-9.854342937E-1
2.124232813E0,1.104799509E0,8.527821541E0,-3.519581795E0
2.128203125E0,2.409620434E-1,8.947476387E0,-3.593735218E0
2.132173438E0,5.022843480E-1,8.986779213E0,-2.899713278E0
2.136143750E0,7.952676415E-1,8.958901405E0,-1.898793459E0
2.140115625E0,9.077472091E-1,9.031062126E0,-1.293836236E0
2.144084375E0,7.681748271E-1,9.364315987E0,-8.600450754E-1
2.148056250E0,7.556771040E-1,9.653804779E0,-7.480635643E-1
2.152026563E0,8.125250340E-1,9.836702347E0,-8.109161258E-1
2.155996875E0,8.303857446E-1,9.940016747E0,-8.056488633E-1
2.159968750E0,9.549416900E-1,1.001320267E1,-7.287279367E-1
2.163937500E0,1.172114968E0,1.004596519E1,-5.523806214E-1
2.167907813E0,1.316590667E0,1.004469109E1,-3.785041273E-1
2.171879688E0,1.397811532E0,1.007525063E1,-1.960468143E-1
2.175850000E0,1.467425466E0,1.010359859E1,-8.165185899E-2
2.179820313E0,1.484855175E0,1.011235142E1,-6.545747072E-2
2.183790625E0,1.484318852E0,1.013594818E1,-9.286629409E-2
2.187760938E0,1.466122866E0,1.017465782E1,-8.587522805E-2
2.191731250E0,1.474512219E0,1.020750713E1,-1.214626357E-1
2.195703125E0,1.463144541E0,1.026088810E1,-1.386242807E-1
2.199673438E0,1.487852693E0,1.029771137E1,-1.844780296E-1
2.203656250E0,1.487115264E0,1.032357693E1,-2.189641148E-1
2.207614063E0,1.500455856E0,1.031058216E1,-2.551644444E-1
2.211584375E0,1.528554082E0,1.028558636E1,-2.863273621E-1
2.215554688E0,1.541511655E0,1.022869015E1,-3.014299870E-1
2.219525000E0,1.581264853E0,1.019630146E1,-3.016406894E-1
2.223495313E0,1.608625889E0,1.011165237E1,-3.187927604E-1
2.227467188E0,1.624456286E0,1.003280640E1,-3.119357526E-1
2.231437500E0,1.621315122E0,9.970614433E0,-3.044371009E-1
2.235407813E0,1.631954908E0,9.895714760E0,-2.861262560E-1
2.239378125E0,1.622378111E0,9.848040581E0,-2.590717673E-1
2.243348438E0,1.640775204E0,9.802464485E0,-2.259168774E-1
2.247318750E0,1.634617329E0,9.777277946E0,-1.986229718E-1
2.251289063E0,1.650926471E0,9.766647339E0,-2.003946900E-1
2.255260938E0,1.653789997E0,9.758526802E0,-2.221723497E-1
2.259231250E0,1.653435707E0,9.743511200E0,-2.521477640E-1
2.263201563E0,1.671966791E0,9.739861488E0,-2.814336121E-1
2.267171875E0,1.684474111E0,9.732995033E0,-3.104609251E-1
2.271143750E0,1.669773698E0,9.746880531E0,-3.168582022E-1
2.275112500E0,1.656529069E0,9.744592667E0,-3.344220817E-1
2.279082813E0,1.655293584E0,9.743413925E0,-3.570042253E-1
2.283053125E0,1.640631437E0,9.733808517E0,-3.454833031E-1
2.287025000E0,1.610512495E0,9.728149414E0,-3.435871005E-1
2.290995313E0,1.576208353E0,9.722719193E0,-3.338283300E-1
2.294965625E0,1.555005193E0,9.713334084E0,-3.201430738E-1
2.298935938E0,1.535133481E0,9.716599464E0,-2.912019789E-1
2.302906250E0,1.530641794E0,9.719203949E0,-3.047052622E-1
2.306876563E0,1.529119134E0,9.717623711E0,-2.906943858E-1
2.310846875E0,1.523871064E0,9.725851059E0,-2.863752544E-1
2.314818750E0,1.517435431E0,9.720985413E0,-2.663980424E-1
2.318789063E0,1.507954478E0,9.737227440E0,-2.558539808E-1
2.322759375E0,1.501384735E0,9.739938736E0,-2.502706945E-1
2.326729688E0,1.491980314E0,9.757444382E0,-2.576161027E-1
2.330700000E0,1.475939155E0,9.775372505E0,-2.563040853E-1
2.334671875E0,1.477184057E0,9.798337936E0,-2.767697275E-1
2.338642188E0,1.479204893E0,9.812454224E0,-2.853122354E-1
2.342610938E0,1.473477960E0,9.812558174E0,-2.905507386E-1
2.346582813E0,1.478879213E0,9.832958221E0,-3.072526753E-1
2.350553125E0,1.499555588E0,9.835553169E0,-3.172604740E-1
2.354523438E0,1.485688329E0,9.835293770E0,-3.055192828E-1
2.358493750E0,1.473985434E0,9.860931396E0,-2.955977321E-1
2.362464063E0,1.492765665E0,9.859322548E0,-2.809547782E-1
2.366434375E0,1.479262352E0,9.856995583E0,-2.898612022E-1
2.370404688E0,1.470949531E0,9.881617546E0,-2.897654474E-1
2.374376563E0,1.470499516E0,9.876149178E0,-2.754864097E-1
2.378346875E0,1.466477275E0,9.876924515E0,-2.476945370E-1
2.382317188E0,1.466783643E0,9.888790131E0,-2.428295165E-1
2.386287500E0,1.471878529E0,9.902523041E0,-2.386540174E-1
2.390257813E0,1.478429079E0,9.910425186E0,-2.272384614E-1
2.394229688E0,1.469982386E0,9.906181335E0,-2.091670334E-1
2.398198438E0,1.478802562E0,9.899430275E0,-2.351872325E-1
2.402170313E0,1.470250487E0,9.897323608E0,-2.354745269E-1
2.406140625E0,1.480794549E0,9.884231567E0,-2.173073292E-1
2.410110938E0,1.464360833E0,9.890724182E0,-2.257253379E-1
2.414081250E0,1.439202547E0,9.868209839E0,-2.310787588E-1
2.418051563E0,1.443176866E0,9.857043266E0,-2.417952120E-1
2.422021875E0,1.446126580E0,9.854391098E0,-2.419676036E-1
2.425992188E0,1.434050202E0,9.852475166E0,-2.365567088E-1
2.429964063E0,1.422184587E0,9.843502045E0,-2.473114580E-1
2.433934375E0,1.416764021E0,9.834240913E0,-2.210135460E-1
2.437904688E0,1.422241926E0,9.824492455E0,-2.291442603E-1
2.441875000E0,1.419541359E0,9.821514130E0,-2.315480411E-1
2.445845313E0,1.421313167E0,9.807856560E0,-2.290389091E-1
2.449815625E0,1.433360696E0,9.795990944E0,-2.255625278E-1
2.453785938E0,1.434835434E0,9.801324844E0,-2.324482501E-1
2.457756250E0,1.421494961E0,9.795167923E0,-1.950508207E-1
2.461726563E0,1.426158905E0,9.801564217E0,-2.004617155E-1
2.465698438E0,1.424406409E0,9.799017906E0,-1.876766831E-1
2.469670313E0,1.425421476E0,9.801795006E0,-1.776210368E-1
2.473639063E0,1.435055733E0,9.821225166E0,-1.626429111E-1
2.477609375E0,1.430545092E0,9.822135925E0,-1.640794426E-1
2.481579688E0,1.433772445E0,9.822278976E0,-1.691551358E-1
2.485551563E0,1.426589847E0,9.838292122E0,-1.664640456E-1
2.489520313E0,1.432383776E0,9.833503723E0,-1.560444981E-1
2.493492188E0,1.442295790E0,9.836711884E0,-1.737424284E-1
2.497462500E0,1.423467755E0,9.857033730E0,-1.523286849E-1
2.501432813E0,1.418641090E0,9.847485542E0,-1.259637326E-1
2.505403125E0,1.428380728E0,9.858805656E0,-1.336922348E-1
2.509373438E0,1.417961240E0,9.873984337E0,-1.493981928E-1
2.513343750E0,1.411027551E0,9.879615784E0,-1.333570331E-1
2.517314063E0,1.409380317E0,9.897792816E0,-1.419857293E-1
2.521285938E0,1.386568308E0,9.917051315E0,-1.473487616E-1
2.525256250E0,1.388512492E0,9.915472031E0,-1.637346596E-1
2.529226563E0,1.372758627E0,9.919024467E0,-1.504707932E-1
2.533196875E0,1.357023954E0,9.923085213E0,-1.571745574E-1
2.537167188E0,1.336998940E0,9.936827660E0,-1.470423043E-1
2.541137500E0,1.314684987E0,9.942956924E0,-1.611872464E-1
2.545109375E0,1.295981288E0,9.946280479E0,-1.611393541E-1
2.549079688E0,1.318075061E0,9.919666290E0,-1.594729871E-1
2.553050000E0,1.312692881E0,9.927173615E0,-1.723346412E-1
2.557020313E0,1.294018149E0,9.922184944E0,-1.710609347E-1
2.560996875E0,1.283043146E0,9.909696579E0,-1.595304459E-1
2.564960938E0,1.286136508E0,9.901278496E0,-1.583333462E-1
2.568931250E0,1.283656001E0,9.902178764E0,-1.475019902E-1
2.572901563E0,1.277028918E0,9.875325203E0,-1.185608655E-1
2.576873438E0,1.288272142E0,9.873036385E0,-1.349563599E-1
2.580843750E0,1.291470647E0,9.880114555E0,-1.260307729E-1
2.584814063E0,1.277890801E0,9.878064156E0,-1.140406206E-1
2.588784375E0,1.290560961E0,9.875928879E0,-1.250635237E-1
2.592754688E0,1.295042872E0,9.873276711E0,-1.396681517E-1
2.596725000E0,1.286193848E0,9.873161316E0,-1.501164436E-1
2.600696875E0,1.301717877E0,9.856277466E0,-1.460654587E-1
2.604667188E0,1.297446609E0,9.857474327E0,-1.339795291E-1
2.608637500E0,1.300999641E0,9.862319946E0,-1.534108669E-1
2.612607813E0,1.317778230E0,9.873803139E0,-1.480765790E-1
2.616578125E0,1.314081550E0,9.857301712E0,-1.406354010E-1
2.620548438E0,1.299946189E0,9.865087509E0,-1.432211399E-1
2.624518750E0,1.286021471E0,9.845407486E0,-1.233205423E-1
2.628489063E0,1.288137913E0,9.862607002E0,-1.144524142E-1
2.632460938E0,1.280476570E0,9.851038933E0,-1.202559695E-1
2.636431250E0,1.275688052E0,9.848347664E0,-1.052299514E-1
2.640401563E0,1.273255587E0,9.867233276E0,-1.124604419E-1
2.644371875E0,1.248547435E0,9.849717140E0,-1.105929613E-1
2.648342188E0,1.258631825E0,9.854868889E0,-1.128530875E-1
2.652312500E0,1.250836253E0,9.847533226E0,-1.295263022E-1
2.656282813E0,1.247886539E0,9.857263565E0,-1.173350364E-1
2.660254688E0,1.244180441E0,9.846566200E0,-1.228895858E-1
2.664225000E0,1.238884449E0,9.859523773E0,-1.312692910E-1
2.668196875E0,1.243787885E0,9.865613937E0,-1.276588291E-1
2.672165625E0,1.250692606E0,9.865145683E0,-1.237706542E-1
2.676135938E0,1.237170219E0,9.872557640E0,-1.399075836E-1
2.680107813E0,1.228024364E0,9.872557640E0,-1.249198690E-1
2.684078125E0,1.240167737E0,9.887478828E0,-1.122689024E-1
2.688046875E0,1.236231685E0,9.892161369E0,-1.216446012E-1
2.692018750E0,1.237227678E0,9.896968842E0,-1.178330332E-1
2.695989063E0,1.224500179E0,9.898118019E0,-1.056034490E-1
2.699959375E0,1.207932234E0,9.905118942E0,-1.042626947E-1
2.703929688E0,1.199609995E0,9.897830963E0,-9.979990125E-2
2.707900000E0,1.217758060E0,9.892898560E0,-1.085052192E-1
2.711870313E0,1.229077816E0,9.888809204E0,-1.137820408E-1
2.715840625E0,1.227085829E0,9.886578560E0,-1.197866946E-1
2.719812500E0,1.240541220E0,9.879241943E0,-1.242686436E-1
2.723782813E0,1.243308902E0,9.874223709E0,-1.355692744E-1
2.727753125E0,1.243059993E0,9.851230621E0,-1.153047532E-1
2.731723438E0,1.247589707E0,9.856440544E0,-1.119720265E-1
2.735693750E0,1.255107522E0,9.840734482E0,-9.855491668E-2
2.739665625E0,1.257655025E0,9.844851494E0,-1.020217240E-1
2.743635938E0,1.266120791E0,9.819473267E0,-1.315853298E-1
2.747604688E0,1.272403359E0,9.836223602E0,-1.232056171E-1
2.751576563E0,1.265230179E0,9.837726593E0,-1.375899762E-1
2.755546875E0,1.266389012E0,9.819205284E0,-1.477701217E-1
2.759517188E0,1.275946617E0,9.821091652E0,-1.447151303E-1
2.763487500E0,1.280323267E0,9.818802834E0,-1.548569649E-1
2.767457813E0,1.285868287E0,9.823305130E0,-1.440543234E-1
2.771428125E0,1.271742463E0,9.822595596E0,-1.295071542E-1
2.775400000E0,1.286155462E0,9.829471588E0,-1.093575582E-1
2.779370313E0,1.299084187E0,9.824530602E0,-1.091756001E-1
2.783340625E0,1.289143562E0,9.840207100E0,-1.089553311E-1
2.787310938E0,1.285868287E0,9.853346825E0,-1.052108034E-1
2.791281250E0,1.299706817E0,9.857493401E0,-1.102865040E-1
2.795251563E0,1.295445085E0,9.873084068E0,-8.936118335E-2
2.799232813E0,1.289306402E0,9.889690399E0,-9.502107650E-2
2.803193750E0,1.303671479E0,9.907934189E0,-9.725247324E-2
2.807162500E0,1.316638589E0,9.923525810E0,-1.029506773E-1
2.811134375E0,1.307167172E0,9.938934326E0,-1.114453003E-1
2.815104688E0,1.298950195E0,9.943264008E0,-1.432881802E-1
2.819075000E0,1.302330852E0,9.955551147E0,-1.488714665E-1
2.823046875E0,1.308737636E0,9.967320442E0,-1.379730552E-1
2.827015625E0,1.287802696E0,9.975202560E0,-1.556614190E-1
2.830985938E0,1.293855309E0,9.959055901E0,-1.514667869E-1
2.834957813E0,1.283876300E0,9.949478149E0,-1.554794610E-1
2.838928125E0,1.284766912E0,9.941644669E0,-1.595304459E-1
2.842898438E0,1.287889004E0,9.935985565E0,-1.830414981E-1
2.846868750E0,1.265402555E0,9.920125961E0,-1.759355217E-1
2.850839063E0,1.289057374E0,9.876225471E0,-1.761653572E-1
2.854809375E0,1.273370504E0,9.835169792E0,-1.910860240E-1
2.858781250E0,1.270928502E0,9.825142860E0,-1.920628697E-1
2.862785938E0,1.248623967E0,9.813727379E0,-1.739818454E-1
2.866721875E0,1.259464979E0,9.805041313E0,-1.828787029E-1
2.870692188E0,1.249955177E0,9.792074203E0,-1.809633523E-1
2.874662500E0,1.260978103E0,9.788205147E0,-2.063610405E-1
2.878632813E0,1.275554061E0,9.792255402E0,-2.195866108E-1
2.882604688E0,1.275716782E0,9.783330917E0,-2.167231441E-1
2.886573438E0,1.284642458E0,9.789211273E0,-2.339422256E-1
2.890545313E0,1.304571748E0,9.794746399E0,-2.093106806E-1
2.894515625E0,1.297044396E0,9.791749001E0,-2.207932770E-1
2.898485938E0,1.314129353E0,9.801383018E0,-1.899368167E-1
2.902456250E0,1.329816341E0,9.816226959E0,-1.967459321E-1
2.906426563E0,1.334326863E0,9.833962440E0,-2.049436718E-1
2.910396875E0,1.335581422E0,9.837708473E0,-2.052501291E-1
2.914368750E0,1.332066774E0,9.837420464E0,-2.138596773E-1
2.918340625E0,1.347523808E0,9.866927147E0,-2.301785648E-1
2.922309375E0,1.350061655E0,9.884241104E0,-2.313564867E-1
2.926279688E0,1.337228656E0,9.881866455E0,-2.223064154E-1
2.930250000E0,1.331702828E0,9.892850876E0,-2.086786181E-1
2.934220313E0,1.336663723E0,9.879721642E0,-1.851771325E-1
2.938190625E0,1.350770235E0,9.886837006E0,-1.881459504E-1
2.942162500E0,1.345704079E0,9.898281097E0,-2.056044638E-1
2.946131250E0,1.343846321E0,9.900129318E0,-1.921107471E-1
2.950103125E0,1.350502253E0,9.913948059E0,-1.731199324E-1
2.954073438E0,1.357598543E0,9.896759033E0,-1.663587093E-1
2.958043750E0,1.362856150E0,9.907705307E0,-1.721622646E-1
2.962014063E0,1.376570225E0,9.919445038E0,-1.728230566E-1
2.965984375E0,1.385390520E0,9.910626411E0,-1.482298076E-1
2.969954688E0,1.398290396E0,9.912646294E0,-1.668184102E-1
2.973926563E0,1.407560825E0,9.924646378E0,-1.530948281E-1
2.977896875E0,1.414341211E0,9.943272591E0,-1.671152860E-1
2.981867188E0,1.419627547E0,9.936578751E0,-1.764047891E-1
2.985837500E0,1.433312774E0,9.935247421E0,-1.814517528E-1
2.989807813E0,1.440955043E0,9.934730530E0,-1.851100922E-1
2.993778125E0,1.430219531E0,9.925172806E0,-1.651233137E-1
2.997750000E0,1.410826445E0,9.902868271E0,-1.653340012E-1
3.001718750E0,1.420001030E0,9.902657509E0,-1.686954498E-1
3.005689063E0,1.401345491E0,9.883685112E0,-1.701319665E-1
3.009660938E0,1.400521874E0,9.878170013E0,-1.859145463E-1
3.013631250E0,1.412425756E0,9.864647865E0,-1.751885265E-1
3.017601563E0,1.394047856E0,9.827872276E0,-1.938824505E-1
3.021571875E0,1.403969526E0,9.817098618E0,-1.956828982E-1
3.025542188E0,1.415480852E0,9.814407349E0,-2.086115927E-1
3.029512500E0,1.407369256E0,9.811658859E0,-1.933174282E-1
3.033484375E0,1.402983069E0,9.798519135E0,-1.837214679E-1
3.037454688E0,1.406986237E0,9.785906792E0,-2.050681561E-1
3.041425000E0,1.412148118E0,9.779729843E0,-2.063801885E-1
3.045395313E0,1.415634036E0,9.777105331E0,-2.167039812E-1
3.049365625E0,1.423831820E0,9.784566879E0,-2.200462967E-1
3.053335938E0,1.418248415E0,9.788750648E0,-2.420537919E-1
3.057307813E0,1.401326299E0,9.810222626E0,-2.436339706E-1
3.061278125E0,1.395426989E0,9.812424660E0,-2.439883053E-1
3.065250000E0,1.401220918E0,9.818017960E0,-2.610733211E-1
3.069218750E0,1.401163459E0,9.826043129E0,-2.622321248E-1
3.073189063E0,1.389901161E0,9.840801239E0,-2.799396217E-1
3.077159375E0,1.415337205E0,9.846863747E0,-2.614372671E-1
3.081129688E0,1.394833088E0,9.860404015E0,-2.577980757E-1
3.085100000E0,1.395091772E0,9.873199463E0,-2.508740127E-1
3.089071875E0,1.385907650E0,9.874156952E0,-2.285026163E-1
3.093042188E0,1.364034176E0,9.889317513E0,-2.331856638E-1
3.097012500E0,1.361611247E0,9.900962830E0,-2.354649454E-1
3.100982813E0,1.344564557E0,9.905550003E0,-2.261084169E-1
3.104953125E0,1.338837624E0,9.910538673E0,-2.335783243E-1
3.108923438E0,1.315173388E0,9.889240265E0,-2.231778949E-1
3.112893750E0,1.319731832E0,9.905577660E0,-2.312128395E-1
3.116864063E0,1.313995361E0,9.893013954E0,-2.245474011E-1
3.120835938E0,1.318831682E0,9.906870842E0,-2.467176914E-1
3.124806250E0,1.320411921E0,9.902102470E0,-2.550686896E-1
3.128776563E0,1.307875752E0,9.899517059E0,-2.569936216E-1
3.132746875E0,1.309666634E0,9.902523041E0,-2.536800504E-1
3.136717188E0,1.302972436E0,9.889422417E0,-2.468326092E-1
3.140687500E0,1.306898952E0,9.882565498E0,-2.446203828E-1
3.144657813E0,1.331032515E0,9.869971275E0,-2.543504238E-1
3.148629688E0,1.321359873E0,9.866342545E0,-2.556720078E-1
3.152600000E0,1.326148272E0,9.861495972E0,-2.415557951E-1
3.156570313E0,1.323093295E0,9.844727516E0,-2.547239065E-1
3.160540625E0,1.316178799E0,9.831866264E0,-2.428773940E-1
3.164510938E0,1.318755031E0,9.819483757E0,-2.380219549E-1
3.168481250E0,1.336002827E0,9.825756073E0,-2.430210412E-1
3.172453125E0,1.343740940E0,9.815451622E0,-2.390562445E-1
3.176423438E0,1.350712895E0,9.808891296E0,-2.386061400E-1
3.180392188E0,1.377997160E0,9.810538292E0,-2.260892540E-1
3.184364063E0,1.392697453E0,9.796049118E0,-2.305328995E-1
3.188334375E0,1.380822301E0,9.795215607E0,-2.403299659E-1
3.192304688E0,1.402389288E0,9.802464485E0,-2.349478006E-1
3.196275000E0,1.412176728E0,9.805932045E0,-2.385869920E-1
3.200245313E0,1.418698549E0,9.809455872E0,-2.382326573E-1
3.204215625E0,1.411209464E0,9.801075935E0,-2.457600087E-1
3.208187500E0,1.432594538E0,9.803662300E0,-2.474072278E-1
3.212157813E0,1.422979355E0,9.817003250E0,-2.442851812E-1
3.216128125E0,1.423199654E0,9.818037033E0,-2.518508732E-1
3.220098438E0,1.421734333E0,9.820623398E0,-2.333197445E-1
3.224068750E0,1.420010567E0,9.828284264E0,-2.389988005E-1
3.228040625E0,1.412301302E0,9.832297325E0,-2.429444343E-1
3.232010938E0,1.417626023E0,9.835897446E0,-2.201229036E-1
3.235981250E0,1.424971461E0,9.835428238E0,-2.460473180E-1
3.239951563E0,1.415950060E0,9.848415375E0,-2.264052927E-1
3.243921875E0,1.396834731E0,9.844171524E0,-2.240493894E-1
3.247892188E0,1.408757806E0,9.842524529E0,-2.322375625E-1
3.251862500E0,1.418363452E0,9.843865395E0,-2.202665508E-1
3.255832813E0,1.423161387E0,9.852944374E0,-2.113026530E-1
3.259803125E0,1.422931552E0,9.843117714E0,-2.110536695E-1
3.263778125E0,1.420307517E0,9.848999023E0,-2.189353853E-1
3.267745313E0,1.442669272E0,9.844372749E0,-2.118772715E-1
3.271715625E0,1.411305308E0,9.859810829E0,-2.232257873E-1
3.275685938E0,1.422701716E0,9.853509903E0,-2.141086757E-1
3.279656250E0,1.425076723E0,9.857646942E0,-2.079316229E-1
3.283626563E0,1.429367185E0,9.861208916E0,-2.118198127E-1
3.287596875E0,1.432010412E0,9.866237640E0,-2.267692089E-1
3.291568750E0,1.428610563E0,9.861199379E0,-2.230629921E-1
3.295539063E0,1.437938333E0,9.856363297E0,-2.082189322E-1
3.299509375E0,1.444555879E0,9.856544495E0,-2.257732302E-1
3.303479688E0,1.430066228E0,9.869512558E0,-2.104024440E-1
3.307450000E0,1.439576030E0,9.859341621E0,-2.244133204E-1
3.311420313E0,1.445369959E0,9.865959167E0,-2.366524637E-1
3.315390625E0,1.431244135E0,9.851268768E0,-2.480297238E-1
3.319360938E0,1.436425328E0,9.844066620E0,-2.333867848E-1
3.323332813E0,1.443684459E0,9.837803841E0,-2.245952785E-1
3.327303125E0,1.417281270E0,9.837593079E0,-2.330515832E-1
3.331273438E0,1.439250350E0,9.830190659E0,-2.185427248E-1
3.335243750E0,1.433379889E0,9.825889587E0,-2.272384614E-1
3.339214063E0,1.435304761E0,9.837957382E0,-2.156122327E-1
3.343184375E0,1.449507236E0,9.827325821E0,-2.254955024E-1
3.347156250E0,1.437191367E0,9.821197510E0,-2.383284122E-1
3.351126563E0,1.434107661E0,9.823888779E0,-2.360778600E-1
3.355096875E0,1.421686530E0,9.817625046E0,-2.274874747E-1
3.359067188E0,1.435036659E0,9.821887016E0,-2.186001837E-1
3.363037500E0,1.428093433E0,9.815825462E0,-2.245952785E-1
3.367007813E0,1.432134867E0,9.824367523E0,-2.229001820E-1
3.370978125E0,1.432489157E0,9.834068298E0,-2.151908427E-1
3.374948438E0,1.427854061E0,9.838148117E0,-2.125668079E-1
3.378918750E0,1.417989850E0,9.854256630E0,-2.114846259E-1
3.382890625E0,1.424569249E0,9.846566200E0,-2.080465555E-1
3.386860938E0,1.429798126E0,9.852293015E0,-2.064184844E-1
3.390831250E0,1.427700758E0,9.857014656E0,-2.034017891E-1
3.394820313E0,1.428591490E0,9.869311333E0,-1.964298785E-1
3.398771875E0,1.441290259E0,9.883370399E0,-1.971098334E-1
3.402742188E0,1.410347700E0,9.896824837E0,-2.000307590E-1
3.406714063E0,1.426379204E0,9.896059990E0,-1.840853691E-1
3.410684375E0,1.410069823E0,9.905904770E0,-1.841907203E-1
3.414654688E0,1.414159179E0,9.915087700E0,-1.884907037E-1
3.418625000E0,1.417214274E0,9.919791222E0,-2.013523579E-1
3.422595313E0,1.416467190E0,9.926235199E0,-2.022430152E-1
3.426565625E0,1.409677267E0,9.922739983E0,-2.026835382E-1
3.430535938E0,1.389278650E0,9.924894333E0,-1.977514774E-1
3.434506250E0,1.404247165E0,9.918420792E0,-2.097703665E-1
3.438478125E0,1.402456284E0,9.936550140E0,-1.971672922E-1
3.442448438E0,1.399401426E0,9.923458099E0,-2.106131315E-1
3.446418750E0,1.398319125E0,9.915145874E0,-2.197685689E-1
3.450389063E0,1.373496056E0,9.897610664E0,-2.289335579E-1
3.454359375E0,1.380774379E0,9.865299225E0,-2.275353521E-1
3.458329688E0,1.390782237E0,9.851325989E0,-2.299391329E-1
3.462303125E0,1.400081277E0,9.848279953E0,-2.289527059E-1
3.466271875E0,1.416946054E0,9.839547157E0,-2.251507193E-1
3.470242188E0,1.422835827E0,9.840571404E0,-2.184182256E-1
3.474212500E0,1.404850483E0,9.834039688E0,-2.146353871E-1
3.478182813E0,1.410529494E0,9.835572243E0,-2.271618545E-1
3.482153125E0,1.415432811E0,9.839230537E0,-2.273629755E-1
3.486125000E0,1.408039570E0,9.844306946E0,-2.284930199E-1
3.490093750E0,1.404227972E0,9.851651192E0,-2.418909967E-1
3.494064063E0,1.396815538E0,9.848702431E0,-2.331952453E-1
3.498035938E0,1.389508367E0,9.843463898E0,-2.685815394E-1
3.502006250E0,1.402552128E0,9.865940094E0,-2.655361295E-1
3.505976563E0,1.402044535E0,9.892784119E0,-2.397745103E-1
3.509946875E0,1.429022312E0,9.909993172E0,-2.303796709E-1
3.513917188E0,1.417626023E0,9.936722755E0,-2.195770293E-1
3.517887500E0,1.394306421E0,9.970298767E0,-2.038519084E-1
3.521859375E0,1.266944408E0,9.956277847E0,-2.565530837E-1
3.525829688E0,1.277814150E0,9.855348587E0,-3.764067888E-1
3.529800000E0,1.370172858E0,9.791097641E0,-3.643974960E-1
3.533770313E0,1.389259577E0,9.798117638E0,-2.718759775E-1
3.537740625E0,1.386961102E0,9.829059601E0,-1.975982487E-1
3.541710938E0,1.389623404E0,9.869292259E0,-2.085924298E-1
3.545682813E0,1.411132932E0,9.874808311E0,-2.642432451E-1
3.549651563E0,1.427672029E0,9.864398003E0,-3.072718382E-1
3.553623438E0,1.436367750E0,9.833254814E0,-3.379080594E-1
3.557593750E0,1.444575071E0,9.821599960E0,-3.076261878E-1
3.561564063E0,1.436597705E0,9.829710960E0,-2.595123053E-1
3.565534375E0,1.416074634E0,9.835743904E0,-2.197302580E-1
3.569504688E0,1.393358350E0,9.860424042E0,-1.991401166E-1
3.573475000E0,1.399228930E0,9.871178627E0,-2.016971260E-1
3.577446875E0,1.399267197E0,9.883724213E0,-2.088318467E-1
3.581417188E0,1.436521053E0,9.896451950E0,-2.183128744E-1
3.585387500E0,1.463747978E0,9.912014961E0,-2.313373387E-1
3.589357813E0,1.508624792E0,9.901910782E0,-2.109291703E-1
3.593328125E0,1.534788609E0,9.888243675E0,-1.992358863E-1
3.597298438E0,1.534348130E0,9.876838684E0,-1.866040826E-1
3.601268750E0,1.545428514E0,9.867214203E0,-2.100002170E-1
3.605240625E0,1.553013325E0,9.855645180E0,-2.387210727E-1
3.609210938E0,1.570912361E0,9.857417107E0,-2.206017524E-1
3.613181250E0,1.481570363E0,9.882843018E0,-2.329845577E-1
3.617151563E0,1.465701580E0,9.868765831E0,-2.863656878E-1
3.621121875E0,1.490122437E0,9.873084068E0,-3.101161420E-1
3.625092188E0,1.437593579E0,9.896049500E0,-3.202484250E-1
3.629062500E0,1.413249373E0,9.879664421E0,-3.048680723E-1
3.633032813E0,1.454209328E0,9.877450943E0,-3.196450770E-1
3.637004688E0,1.427451730E0,9.879653931E0,-3.115143776E-1
3.640975000E0,1.413622975E0,9.868076324E0,-2.717418969E-1
3.644945313E0,1.432163596E0,9.883044243E0,-2.539002895E-1
3.648915625E0,1.400722861E0,9.902667046E0,-2.586120963E-1
3.652885938E0,1.441692472E0,9.913459778E0,-2.654020488E-1
3.656856250E0,1.445178509E0,9.937459946E0,-2.614181042E-1
3.660826563E0,1.426053643E0,9.950780869E0,-2.835788131E-1
3.664798438E0,1.373496056E0,9.955329895E0,-2.910774648E-1
3.668768750E0,1.362453938E0,9.966218948E0,-2.989974916E-1
3.672739063E0,1.321666360E0,9.992622375E0,-3.123475611E-1
3.676709375E0,1.285695910E0,1.005521584E1,-3.165901005E-1
3.680679688E0,1.296383500E0,1.009966183E1,-3.461919725E-1
3.684651563E0,1.319961667E0,1.009719181E1,-4.137276411E-1
3.688620313E0,1.440514565E0,1.001093292E1,-4.128465652E-1
3.692590625E0,1.495619535E0,9.917837143E0,-3.592068851E-1
3.696562500E0,1.498502016E0,9.833580017E0,-2.778614759E-1
3.700532813E0,1.500886679E0,9.825410843E0,-2.248251140E-1
3.704503125E0,1.507781982E0,9.818812370E0,-1.831085533E-1
3.708473438E0,1.544470787E0,9.807646751E0,-1.821508706E-1
3.712443750E0,1.548368573E0,9.807445526E0,-1.625758708E-1
3.716415625E0,1.580077410E0,9.790120125E0,-1.528362632E-1
3.720384375E0,1.587346196E0,9.758038521E0,-1.373026669E-1
3.724356250E0,1.590908647E0,9.729652405E0,-1.421868503E-1
3.728326563E0,1.577778935E0,9.686729431E0,-1.552591920E-1
3.732296875E0,1.582280040E0,9.628818512E0,-1.978951395E-1
3.736267188E0,1.573900223E0,9.600787163E0,-2.312032580E-1
3.740237500E0,1.573459864E0,9.560622215E0,-2.510080934E-1
3.744207813E0,1.559860706E0,9.533873558E0,-2.549920678E-1
3.748178125E0,1.511928797E0,9.509309769E0,-2.665991485E-1
3.752150000E0,1.493455052E0,9.516406059E0,-2.912977338E-1
3.756120313E0,1.442544818E0,9.561924934E0,-3.279002905E-1
3.760090625E0,1.440744400E0,9.614443779E0,-3.371706307E-1
3.764060938E0,1.405348539E0,9.663773537E0,-3.687262237E-1
3.768031250E0,1.366572022E0,9.739151955E0,-3.694253266E-1
3.772001563E0,1.340187907E0,9.782114029E0,-3.658148944E-1
3.775971875E0,1.313583493E0,9.811007500E0,-3.559795022E-1
3.779942188E0,1.296919942E0,9.844478607E0,-3.494480848E-1
3.783914063E0,1.281817317E0,9.864657402E0,-3.257550895E-1
3.787884375E0,1.282698393E0,9.886884689E0,-3.218190372E-1
3.791854688E0,1.300290942E0,9.894794464E0,-2.899761498E-1
3.795825000E0,1.324797988E0,9.900981903E0,-3.062950075E-1
3.799795313E0,1.348510146E0,9.871676445E0,-3.015161753E-1
3.803767188E0,1.374626040E0,9.850588799E0,-3.054043651E-1
3.807735938E0,1.411190271E0,9.849286079E0,-2.723643780E-1
3.811707813E0,1.434280038E0,9.832488060E0,-2.620788813E-1
3.815678125E0,1.488705039E0,9.842332840E0,-2.560071945E-1
3.819648438E0,1.497056007E0,9.852083206E0,-2.709853351E-1
3.823618750E0,1.507724643E0,9.844881058E0,-2.766164839E-1
3.827589063E0,1.516410708E0,9.851009369E0,-3.011905849E-1
3.831559375E0,1.521026731E0,9.859638214E0,-3.029622734E-1
3.835531250E0,1.509132266E0,9.886109352E0,-3.199228346E-1
3.839500000E0,1.486818314E0,9.882536888E0,-3.176435232E-1
3.843470313E0,1.452102542E0,9.893396378E0,-2.989974916E-1
3.847442188E0,1.439422846E0,9.897073746E0,-2.975609601E-1
3.851412500E0,1.415643573E0,9.918257713E0,-3.384443521E-1
3.855418750E0,1.394766092E0,9.921638489E0,-3.407906890E-1
3.859353125E0,1.381464005E0,9.930688858E0,-3.469772935E-1
3.863323438E0,1.373247027E0,9.939883232E0,-3.504632711E-1
3.867293750E0,1.370105863E0,9.943991661E0,-3.596090972E-1
3.871265625E0,1.347638726E0,9.950531960E0,-3.465559185E-1
3.875235938E0,1.356018424E0,9.932901382E0,-2.986335754E-1
3.879204688E0,1.363813877E0,9.936491966E0,-2.773826420E-1
3.883176563E0,1.360500336E0,9.960520744E0,-2.466123551E-1
3.887146875E0,1.389585137E0,9.957149506E0,-2.154973000E-1
3.891118750E0,1.378131270E0,9.968948364E0,-2.202378213E-1
3.895089063E0,1.375210285E0,9.995379448E0,-2.350244075E-1
3.899059375E0,1.391031146E0,9.997391701E0,-2.728336453E-1
3.903029688E0,1.395829201E0,1.000472736E1,-2.723739743E-1
3.907000000E0,1.443789840E0,9.998138428E0,-2.572521865E-1
3.910970313E0,1.507293582E0,9.985822678E0,-2.676238716E-1
3.914940625E0,1.539960027E0,9.974225998E0,-2.699318826E-1
3.918910938E0,1.558587074E0,9.969944000E0,-2.754864097E-1
3.922881250E0,1.588437915E0,9.948520660E0,-2.971108258E-1
3.926853125E0,1.525623679E0,9.930813789E0,-3.356000483E-1
3.930823438E0,1.486933351E0,9.876953125E0,-3.679504991E-1
3.934793750E0,1.425162911E0,9.854016304E0,-3.804577887E-1
3.938764063E0,1.423276186E0,9.837276459E0,-3.751905560E-1
3.942734375E0,1.368985295E0,9.834050179E0,-4.208240211E-1
3.946704688E0,1.335217476E0,9.798864365E0,-4.577139020E-1
3.950675000E0,1.384758472E0,9.735868454E0,-4.771165252E-1
3.954646875E0,1.435285687E0,9.677334785E0,-4.138425589E-1
3.958615625E0,1.421782374E0,9.657730103E0,-3.688890040E-1
3.962587500E0,1.423094392E0,9.668025970E0,-3.109685183E-1
3.966557813E0,1.431244135E0,9.667815208E0,-2.646071911E-1
3.970528125E0,1.450579762E0,9.674825668E0,-2.221627682E-1
3.974500000E0,1.447342753E0,9.693548203E0,-2.094734907E-1
3.978468750E0,1.415308356E0,9.719472885E0,-2.152866274E-1
3.982439063E0,1.366150618E0,9.794046402E0,-2.557103038E-1
3.986410938E0,1.332306147E0,9.809475899E0,-2.883768082E-1
3.990381250E0,1.307780027E0,9.846375465E0,-3.438648283E-1
3.994351563E0,1.306784034E0,9.874846458E0,-3.387987018E-1
3.998321875E0,1.295598269E0,9.895033836E0,-3.469868898E-1
4.002292188E0,1.265316367E0,9.908921242E0,-3.424283266E-1
4.006262500E0,1.279863596E0,9.929003716E0,-3.259274662E-1
4.010234375E0,1.280438185E0,9.936252594E0,-3.006542623E-1
4.014204688E0,1.292198539E0,9.958959579E0,-2.783786356E-1
4.018173438E0,1.322806001E0,9.977174759E0,-2.748256326E-1
4.022145313E0,1.344516635E0,9.969905853E0,-2.512762547E-1
4.026115625E0,1.370881557E0,9.985276222E0,-2.438638210E-1
4.030085938E0,1.382546186E0,1.000303268E1,-2.545419335E-1
4.034057813E0,1.393971324E0,9.984960556E0,-2.606711090E-1
4.038026563E0,1.389805317E0,9.979233742E0,-2.603837848E-1
4.041996875E0,1.353279471E0,9.954755783E0,-2.798534632E-1
4.045968750E0,1.341298819E0,9.936751366E0,-2.854846120E-1
4.049939063E0,1.351277828E0,9.929338455E0,-2.748160362E-1
4.053909375E0,1.352685690E0,9.884126663E0,-2.726804316E-1
4.057879688E0,1.340053797E0,9.871350288E0,-2.739732862E-1
4.061850000E0,1.337793708E0,9.854534149E0,-2.652009130E-1
4.065821875E0,1.324989557E0,9.862032890E0,-2.843066752E-1
4.069792188E0,1.260537624E0,9.859638214E0,-3.074538112E-1
4.073762500E0,1.257722020E0,9.870221138E0,-3.382911384E-1
4.077732813E0,1.261485696E0,9.856056213E0,-3.291644156E-1
4.081703125E0,1.285944939E0,9.834442139E0,-3.126061261E-1
4.085673438E0,1.302589297E0,9.824530602E0,-2.610829175E-1
4.089643750E0,1.283761382E0,9.829605103E0,-2.264627516E-1
4.093615625E0,1.285494804E0,9.837985039E0,-2.080944330E-1
4.097584375E0,1.284834027E0,9.838685036E0,-2.233023942E-1
4.101556250E0,1.262768984E0,9.842093468E0,-2.327642888E-1
4.105526563E0,1.239842176E0,9.863201141E0,-2.721536756E-1
4.109496875E0,1.380602002E0,9.864293098E0,-2.571947277E-1
4.113467188E0,1.281223536E0,9.895972252E0,-2.115325034E-1
4.117437500E0,1.320258498E0,9.884614944E0,-2.118293941E-1
4.121407813E0,1.332967043E0,9.873036385E0,-2.143480778E-1
4.125379688E0,1.321053505E0,9.862483025E0,-2.115037888E-1
4.129350000E0,1.350990653E0,9.867721558E0,-2.410673797E-1
4.133320313E0,1.346135139E0,9.871666908E0,-2.915084362E-1
4.137290625E0,1.393291235E0,9.859763145E0,-3.264158964E-1
4.141260938E0,1.376972437E0,9.861094475E0,-3.159771860E-1
4.145231250E0,1.359877825E0,9.865681648E0,-2.959328890E-1
4.149203125E0,1.345321059E0,9.876263618E0,-2.599241138E-1
4.153173438E0,1.295646191E0,9.869195938E0,-2.933280170E-1
4.157142188E0,1.277660847E0,9.863746643E0,-2.945442796E-1
4.161114063E0,1.255337358E0,9.866640091E0,-3.377548158E-1
4.165084375E0,1.255691767E0,9.849419594E0,-3.364523649E-1
4.169054688E0,1.261188865E0,9.833292961E0,-3.358394504E-1
4.173026563E0,1.265823960E0,9.808105469E0,-3.186970055E-1
4.176995313E0,1.305998802E0,9.767031670E0,-2.912019789E-1
4.180965625E0,1.302407503E0,9.775477409E0,-2.669726610E-1
4.184937500E0,1.324644804E0,9.760183334E0,-2.584205568E-1
4.188907813E0,1.325343847E0,9.750223160E0,-2.423506826E-1
4.192878125E0,1.299160838E0,9.778504372E0,-2.639559507E-1
4.196848438E0,1.333350062E0,9.770210266E0,-2.694243193E-1
4.200818750E0,1.334757805E0,9.791231155E0,-2.788766026E-1
4.204789063E0,1.335705876E0,9.810959816E0,-2.744233906E-1
4.208759375E0,1.382057786E0,9.837247849E0,-2.845077813E-1
4.212731250E0,1.399114013E0,9.862741470E0,-2.706692815E-1
4.216701563E0,1.446183920E0,9.867750168E0,-2.534406185E-1
4.220671875E0,1.474962234E0,9.869397163E0,-2.247293591E-1
4.224642188E0,1.472185016E0,9.878514290E0,-2.310404629E-1
4.228614063E0,1.480191231E0,9.911937714E0,-2.397649437E-1
4.232582813E0,1.476111531E0,9.927872658E0,-2.630174160E-1
4.236553125E0,1.483571887E0,9.917339325E0,-2.814623415E-1
4.240525000E0,1.511967182E0,9.914906502E0,-2.713492513E-1
4.244495313E0,1.514600754E0,9.925584793E0,-2.627588511E-1
4.248465625E0,1.484922290E0,9.923506737E0,-2.566201091E-1
4.252435938E0,1.474665403E0,9.920173645E0,-2.734178603E-1
4.256406250E0,1.387660146E0,9.910558701E0,-3.242036402E-1
4.260376563E0,1.439001441E0,9.840935707E0,-3.484233618E-1
4.264348438E0,1.449468851E0,9.798203468E0,-3.301125169E-1
4.268318750E0,1.393080592E0,9.762884140E0,-2.669630647E-1
4.272289063E0,1.417319536E0,9.777862549E0,-2.241643220E-1
4.276259375E0,1.516123414E0,9.826445580E0,-1.845642179E-1
4.280229688E0,1.351057649E0,9.846364975E0,-2.180543244E-1
4.284200000E0,1.505445361E0,9.817299843E0,-1.912679970E-1
4.288170313E0,1.395896196E0,9.807358742E0,-2.091670334E-1
4.292140625E0,1.360107660E0,9.814215660E0,-2.523009777E-1
4.296110938E0,1.484663606E0,9.833819389E0,-2.202569693E-1
4.300082813E0,1.376263738E0,9.868315697E0,-2.251698822E-1
4.304053125E0,1.386405587E0,9.874751091E0,-2.124231607E-1
4.308023438E0,1.443253517E0,9.858767509E0,-2.133904099E-1
4.311993750E0,1.346853375E0,9.864982605E0,-2.424847484E-1
4.315964063E0,1.408403516E0,9.887908936E0,-1.850526482E-1
4.319934375E0,1.468143702E0,9.891855240E0,-2.320077270E-1
4.323906250E0,1.329816341E0,9.891164780E0,-2.590239048E-1
4.327876563E0,1.566344261E0,9.858097076E0,-2.276311219E-1
4.331846875E0,1.436568856E0,9.880860329E0,-2.382996827E-1
4.335817188E0,1.575231433E0,9.873113632E0,-2.534023225E-1
4.339787500E0,1.523123980E0,9.855472565E0,-2.660819888E-1
4.343757813E0,1.503539562E0,9.872462273E0,-2.678154111E-1
4.347728125E0,1.494747996E0,9.834508896E0,-2.840002179E-1
4.351700000E0,1.541473269E0,9.831809044E0,-2.993518412E-1
4.355668750E0,1.498933077E0,9.845005035E0,-3.055959046E-1
4.359640625E0,1.563557386E0,9.833512306E0,-3.157664835E-1
4.363610938E0,1.498166919E0,9.853519440E0,-2.677292228E-1
4.367581250E0,1.304619670E0,9.915097237E0,-2.831095457E-1
4.371551563E0,1.535688877E0,9.893511772E0,-3.290016055E-1
4.375521875E0,1.394507527E0,9.914848328E0,-3.162452877E-1
4.379493750E0,1.441376448E0,9.865385056E0,-2.593973875E-1
4.383464063E0,1.440169811E0,9.812022209E0,-2.214061916E-1
4.387434375E0,1.366974235E0,9.799180984E0,-2.301977128E-1
4.391404688E0,1.433303237E0,9.787927628E0,-2.253997177E-1
4.395375000E0,1.467942476E0,9.789238930E0,-1.748725027E-1
4.399345313E0,1.303269267E0,9.813267708E0,-1.574905813E-1
4.403315625E0,1.422194123E0,9.806190491E0,-1.813176870E-1
4.407285938E0,1.316006422E0,9.835945129E0,-1.936526000E-1
4.411256250E0,1.342706680E0,9.855280876E0,-2.358480245E-1
4.415226563E0,1.316810966E0,9.880228043E0,-2.410099208E-1
4.419198438E0,1.428993702E0,9.891309738E0,-2.010554820E-1
4.423168750E0,1.513710141E0,9.887363434E0,-1.585727632E-1
4.427139063E0,1.490706563E0,9.889690399E0,-1.295837760E-1
4.431109375E0,1.438081980E0,9.921524048E0,-1.885673255E-1
4.435079688E0,1.408307791E0,9.949948311E0,-2.990453839E-1
4.439051563E0,1.543101311E0,9.976092339E0,-3.473316431E-1
4.443021875E0,1.513930321E0,9.941233635E0,-3.086509109E-1
4.446992188E0,1.333953381E0,9.891549110E0,-2.547239065E-1
4.450962500E0,1.239918709E0,9.884346962E0,-2.965649664E-1
4.454932813E0,1.347226977E0,9.893597603E0,-3.619267046E-1
4.458903125E0,1.318257093E0,9.871102333E0,-4.272500873E-1
4.462873438E0,1.153382659E0,9.840379715E0,-3.473124802E-1
4.466843750E0,1.093968272E0,9.807991028E0,-2.714928985E-1
4.470814063E0,1.088643551E0,9.827987671E0,-3.228724599E-1
4.474785938E0,1.123024344E0,9.846528053E0,-3.677110672E-1
4.478756250E0,1.141909719E0,9.907311440E0,-3.292027414E-1
4.482726563E0,1.162997842E0,9.939585686E0,-3.221637905E-1
4.486696875E0,1.265249372E0,9.951747894E0,-3.259561956E-1
4.490667188E0,1.321177959E0,9.929195404E0,-3.276033998E-1
4.494637500E0,1.393023252E0,9.929846764E0,-2.960956991E-1
4.498609375E0,1.435639858E0,9.901929855E0,-2.297571748E-1
4.502579688E0,1.489365816E0,9.869435310E0,-1.880214512E-1
4.506548438E0,1.489634037E0,9.881196022E0,-1.629206389E-1
4.510520313E0,1.450847864E0,9.877594948E0,-2.270852327E-1
4.514490625E0,1.502007246E0,9.851766586E0,-2.827073336E-1
4.518460938E0,1.506814837E0,9.836845398E0,-3.063524663E-1
4.522432813E0,1.503012776E0,9.822442055E0,-2.959328890E-1
4.526403125E0,1.494355321E0,9.794104576E0,-2.835788131E-1
4.530371875E0,1.464944959E0,9.791356087E0,-2.838278115E-1
4.534343750E0,1.491271615E0,9.779059410E0,-3.000796437E-1
4.538314063E0,1.443081141E0,9.792906761E0,-2.774018049E-1
4.542284375E0,1.494479895E0,9.788856506E0,-2.976950407E-1
4.546256250E0,1.609545112E0,9.804275513E0,-2.479339391E-1
4.550225000E0,1.614094138E0,9.823504448E0,-1.976461262E-1
4.554200000E0,1.559899092E0,9.841557503E0,-2.039572597E-1
4.558167188E0,1.576409459E0,9.859236717E0,-2.582194507E-1
4.562137500E0,1.593820095E0,9.882335663E0,-2.639272213E-1
4.566107813E0,1.645381570E0,9.889891624E0,-2.124231607E-1
4.570078125E0,1.596367598E0,9.896356583E0,-1.929439306E-1
4.574048438E0,1.574618578E0,9.883830070E0,-1.677952260E-1
4.578018750E0,1.556058764E0,9.877835274E0,-1.683123708E-1
4.581990625E0,1.618106842E0,9.851698875E0,-1.371207088E-1
4.585959375E0,1.510789156E0,9.850617409E0,-1.127381697E-1
4.589931250E0,1.467501998E0,9.850617409E0,-1.537364870E-1
4.593901563E0,1.465011954E0,9.827805519E0,-1.841140985E-1
4.597871875E0,1.459725618E0,9.834700584E0,-1.929726601E-1
4.601842188E0,1.453893304E0,9.841567039E0,-1.923693269E-1
4.605812500E0,1.433695793E0,9.857742310E0,-1.847366095E-1
4.609782813E0,1.488532662E0,9.856046677E0,-2.250645310E-1
4.613753125E0,1.529789567E0,9.855664253E0,-2.260988355E-1
4.617725000E0,1.561019540E0,9.841959953E0,-2.123944312E-1
4.621695313E0,1.546692610E0,9.837678909E0,-2.219616473E-1
4.625665625E0,1.522951603E0,9.855147362E0,-2.562944889E-1
4.629635938E0,1.508691907E0,9.866600990E0,-3.129509091E-1
4.633606250E0,1.498128653E0,9.866237640E0,-3.277949393E-1
4.637578125E0,1.624829769E0,9.849094391E0,-3.306775391E-1
4.641548438E0,1.633621335E0,9.834346771E0,-2.954923809E-1
4.645517188E0,1.530440807E0,9.835428238E0,-2.886162400E-1
4.649489063E0,1.616124511E0,9.820498466E0,-3.515166938E-1
4.653459375E0,1.559745908E0,9.824405670E0,-3.326503932E-1
4.657429688E0,1.581868172E0,9.825085640E0,-3.004819155E-1
4.661400000E0,1.610167742E0,9.806152344E0,-2.699606121E-1
4.665370313E0,1.593647718E0,9.816916466E0,-2.705543935E-1
4.669340625E0,1.552381277E0,9.812703133E0,-2.605370283E-1
4.673312500E0,1.612638593E0,9.775851250E0,-2.566680014E-1
4.677282813E0,1.443186522E0,9.809742928E0,-2.529617846E-1
4.681253125E0,1.411343575E0,9.825104713E0,-3.298635185E-1
4.685223438E0,1.669534326E0,9.798442841E0,-2.863369584E-1
4.689193750E0,1.474684596E0,9.832573891E0,-1.966884583E-1
4.693164063E0,1.642326593E0,9.768362045E0,-1.642230898E-1
4.697135938E0,1.429683208E0,9.778829575E0,-2.105844170E-1
4.701106250E0,1.628526330E0,9.740522385E0,-2.249304652E-1
4.705076563E0,1.423170924E0,9.798997879E0,-1.923118532E-1
4.709046875E0,1.640918851E0,9.745559692E0,-1.897835881E-1
4.713017188E0,1.409476042E0,9.787774086E0,-1.967746466E-1
4.716987500E0,1.521314144E0,9.768284798E0,-2.273821235E-1
4.720959375E0,1.694663763E0,9.740379333E0,-1.678718477E-1
4.724928125E0,1.518977284E0,9.748289108E0,-6.976703554E-2
4.728900000E0,1.497161388E0,9.750348091E0,-8.962933719E-2
4.732870313E0,1.508921623E0,9.761533737E0,-1.726889759E-1
4.736840625E0,1.428840399E0,9.805069923E0,-2.239536345E-1
4.740810938E0,1.384346604E0,9.850262642E0,-2.413546890E-1
4.744781250E0,1.303336382E0,9.919388771E0,-2.825636864E-1
4.748751563E0,1.464973807E0,9.912521362E0,-2.608818114E-1
4.752725000E0,1.380793571E0,9.923065186E0,-2.352159619E-1
4.756693750E0,1.491338611E0,9.902321815E0,-1.873606443E-1
4.760664063E0,1.362655163E0,9.917243004E0,-2.186289281E-1
4.764634375E0,1.530948400E0,9.873726845E0,-2.549058795E-1
4.768604688E0,1.637538195E0,9.843980789E0,-2.042445540E-1
4.772575000E0,1.349525213E0,9.883666992E0,-1.545600891E-1
4.776545313E0,1.559956551E0,9.844546318E0,-2.343061566E-1
4.780515625E0,1.619246483E0,9.833091736E0,-2.856665552E-1
4.784485938E0,1.409840107E0,9.869847298E0,-2.357522547E-1
4.788457813E0,1.505589008E0,9.838732719E0,-2.415749580E-1
4.792428125E0,1.685259342E0,9.776272774E0,-2.598379254E-1
4.796398438E0,1.496979356E0,9.778341293E0,-1.838268191E-1
4.800368750E0,1.400550485E0,9.772508621E0,-2.114942074E-1
4.804339063E0,1.304447293E0,9.832555771E0,-3.845183849E-1
4.808309375E0,1.466975212E0,9.881847382E0,-3.883969784E-1
4.812281250E0,1.609861255E0,9.924263000E0,-3.049925566E-1
4.816251563E0,1.535152555E0,9.899076462E0,-2.071463317E-1
4.820221875E0,1.653531551E0,9.864034653E0,-9.111373872E-2
4.824192188E0,1.482393980E0,9.841012001E0,-1.743744910E-1
4.828162500E0,1.709239721E0,9.743730545E0,-1.810399592E-1
4.832132813E0,1.495945096E0,9.737103462E0,-1.046361923E-1
4.836103125E0,1.271445513E0,9.818208694E0,-1.558816880E-1
4.840075000E0,1.537345529E0,9.802751541E0,-2.584396899E-1
4.844043750E0,1.340791225E0,9.799525261E0,-2.530767024E-1
4.848051563E0,1.288511515E0,9.772681236E0,-1.507006437E-1
4.851985938E0,1.325420499E0,9.766992569E0,-1.942272186E-1
4.855956250E0,1.416055441E0,9.775784492E0,-2.013906687E-1
4.859926563E0,1.319454074E0,9.790657043E0,-1.289612800E-1
4.863896875E0,1.316877961E0,9.805664062E0,-1.263659596E-1
4.867867188E0,1.475536942E0,9.815805435E0,-1.620108336E-1
4.871839063E0,1.513010979E0,9.860175133E0,-1.669716388E-1
4.875809375E0,1.431014419E0,9.918909073E0,-1.569447219E-1
4.879779688E0,1.379136801E0,9.952917099E0,-2.165507525E-1
4.883750000E0,1.545323133E0,9.951719284E0,-2.569936216E-1
4.887720313E0,1.473085284E0,9.953175545E0,-2.832723558E-1
4.891690625E0,1.468450069E0,9.972711563E0,-2.817209065E-1
4.895662500E0,1.389613748E0,1.000329113E1,-3.335027099E-1
4.899631250E0,1.490342617E0,9.952313423E0,-3.714747727E-1
4.903603125E0,1.447275758E0,9.928811073E0,-3.520721495E-1
4.907573438E0,1.449823260E0,9.925182343E0,-3.017651737E-1
4.911543750E0,1.622550488E0,9.897534370E0,-2.230055183E-1
4.915514063E0,1.485075474E0,9.904199600E0,-2.807728350E-1
4.919484375E0,1.415892601E0,9.844018936E0,-3.067259789E-1
4.923454688E0,1.530354619E0,9.780601501E0,-2.634962797E-1
4.927426563E0,1.470614552E0,9.753431320E0,-2.747298479E-1
4.931395313E0,1.494815111E0,9.706103325E0,-2.541013956E-1
4.935367188E0,1.506872177E0,9.666502953E0,-2.409716249E-1
4.939337500E0,1.475833893E0,9.626998901E0,-2.465261519E-1
4.943309375E0,1.391739845E0,9.533911705E0,-3.028473556E-1
4.947278125E0,1.411046743E0,9.400938034E0,-3.343454897E-1
4.951250000E0,1.535660148E0,9.327119827E0,-2.769804001E-1
4.955220313E0,1.563231826E0,9.352268219E0,-1.981345564E-1
4.959190625E0,1.585641503E0,9.430665016E0,-1.056226045E-1
4.963160938E0,1.639645100E0,9.526193619E0,-5.414726585E-2
4.967131250E0,1.668231845E0,9.627554893E0,-1.687433384E-2
4.971101563E0,1.663702011E0,9.747446060E0,1.471955236E-2
4.975071875E0,1.645237923E0,9.909084320E0,8.322244510E-3
4.979042188E0,1.612944961E0,1.003524876E1,-1.457590051E-2
4.983012500E0,1.599614024E0,1.017194843E1,-8.113470674E-2
4.986984375E0,1.614142060E0,1.035088062E1,-1.294305474E-1
4.990953125E0,1.732195258E0,1.055680180E1,-1.667322069E-1
4.994925000E0,1.734512925E0,1.076927280E1,-2.032677233E-1
4.998895313E0,1.706529498E0,1.094824409E1,-2.861933112E-1
5.002865625E0,1.645400763E0,1.100894165E1,-3.614574373E-1
5.006835938E0,1.699212909E0,1.096491718E1,-3.870945573E-1
5.010806250E0,1.745871067E0,1.083705711E1,-2.944006026E-1
5.014778125E0,1.671736956E0,1.069498539E1,-1.465730220E-1
5.018748438E0,1.633736253E0,1.053855801E1,-7.881712168E-2
5.022718750E0,1.638218164E0,1.031889439E1,-3.552037850E-2
5.026689063E0,1.632290125E0,1.007046318E1,-5.088157207E-2
5.030659375E0,1.634119272E0,9.857417107E0,-5.556463078E-2
5.034629688E0,1.597037792E0,9.707884789E0,-8.866208047E-2
5.038600000E0,1.589433789E0,9.579297066E0,-1.668088287E-1
5.042570313E0,1.573143840E0,9.527046204E0,-2.216551900E-1
5.046542188E0,1.501988053E0,9.536125183E0,-2.603742480E-1
5.050512500E0,1.480852008E0,9.554924011E0,-3.247399330E-1
5.054482813E0,1.483753800E0,9.558476448E0,-4.131242931E-1
5.058453125E0,1.456536531E0,9.522161484E0,-4.920659065E-1
5.062423438E0,1.482049227E0,9.450497627E0,-4.982716739E-1
5.066393750E0,1.483294249E0,9.341256142E0,-4.280449450E-1
5.070364063E0,1.499335289E0,9.249605179E0,-3.362991214E-1
5.074334375E0,1.497496605E0,9.174455643E0,-2.573766708E-1
5.078306250E0,1.517339706E0,9.130527496E0,-2.024153918E-1
5.082276563E0,1.558060288E0,9.114667892E0,-1.857230067E-1
5.086246875E0,1.560655594E0,9.134530067E0,-1.765771657E-1
5.090217188E0,1.560703516E0,9.180413246E0,-2.008256316E-1
5.094187500E0,1.540391088E0,9.273777008E0,-2.358384430E-1
5.098157813E0,1.499823689E0,9.353025436E0,-2.511900663E-1
5.102128125E0,1.454582930E0,9.405746460E0,-2.746819854E-1
5.106100000E0,1.423688054E0,9.471338272E0,-2.776412070E-1
5.110068750E0,1.403385282E0,9.541018486E0,-2.814336121E-1
5.114040625E0,1.394612908E0,9.607184410E0,-2.957222164E-1
5.118010938E0,1.386625886E0,9.691796303E0,-3.087083697E-1
5.121981250E0,1.362635970E0,9.779021263E0,-3.034889996E-1
5.125951563E0,1.368219256E0,9.841691017E0,-3.069270849E-1
5.129921875E0,1.390312910E0,9.915308952E0,-2.898899615E-1
5.133893750E0,1.404199362E0,9.981904984E0,-2.799396217E-1
5.137864063E0,1.437976718E0,1.005859661E1,-2.803801596E-1
5.141834375E0,1.439892054E0,1.012926388E1,-2.894302607E-1
5.145804688E0,1.459984303E0,1.019535351E1,-2.931173444E-1
5.149778125E0,1.475479484E0,1.023871803E1,-2.853122354E-1
5.153745313E0,1.502572298E0,1.028322029E1,-2.750171423E-1
5.157715625E0,1.504410982E0,1.032107830E1,-3.009511530E-1
5.161687500E0,1.496692181E0,1.036652946E1,-2.931652367E-1
5.165657813E0,1.473880172E0,1.041407776E1,-3.518997729E-1
5.169628125E0,1.477155447E0,1.043494606E1,-3.611126542E-1
5.173598438E0,1.495360970E0,1.037673855E1,-3.593792319E-1
5.177568750E0,1.534999251E0,1.029533577E1,-3.263105452E-1
5.181539063E0,1.554267764E0,1.023741531E1,-2.889514267E-1
5.185510938E0,1.549996614E0,1.019425201E1,-2.472252697E-1
5.189479688E0,1.573383212E0,1.011960030E1,-2.240972817E-1
5.193451563E0,1.590133071E0,1.003717422E1,-2.363364398E-1
5.197421875E0,1.539931417E0,9.935573578E0,-2.463442087E-1
5.201392188E0,1.556633353E0,9.808804512E0,-2.313277721E-1
5.205362500E0,1.530593991E0,9.702760696E0,-2.287228703E-1
5.209332813E0,1.465213180E0,9.594897270E0,-2.241834700E-1
5.213303125E0,1.521160841E0,9.474047661E0,-2.190503031E-1
5.217275000E0,1.504094958E0,9.393516541E0,-2.038231790E-1
5.221245313E0,1.553817749E0,9.270099640E0,-2.090521157E-1
5.225215625E0,1.614678383E0,9.111814499E0,-1.823711246E-1
5.229185938E0,1.728920102E0,9.001106262E0,-1.206964925E-1
5.233156250E0,1.795248985E0,8.998300552E0,-5.622543395E-2
5.237126563E0,1.833680749E0,9.074838638E0,-2.803131379E-2
5.241098438E0,1.809202552E0,9.212792397E0,-5.757576227E-2
5.245068750E0,1.748964310E0,9.351416588E0,-1.416122466E-1
5.249037500E0,1.668107390E0,9.498363495E0,-2.650668621E-1
5.253009375E0,1.607486248E0,9.633587837E0,-3.498120010E-1
5.256979688E0,1.538533211E0,9.721282005E0,-4.388188720E-1
5.260950000E0,1.539883494E0,9.774070740E0,-4.574266076E-1
5.264920313E0,1.520547986E0,9.840360641E0,-4.323641062E-1
5.268890625E0,1.510884881E0,9.879176140E0,-3.832733631E-1
5.272862500E0,1.534980178E0,9.913393974E0,-3.326503932E-1
5.276832813E0,1.584195375E0,9.969273567E0,-3.093691766E-1
5.280803125E0,1.567129493E0,1.003217506E1,-3.022536039E-1
5.284773438E0,1.595898151E0,1.007339287E1,-2.874478400E-1
5.288743750E0,1.574963331E0,1.014698982E1,-3.078655899E-1
5.292714063E0,1.582998276E0,1.015028477E1,-3.150386214E-1
5.296684375E0,1.594739556E0,1.017727280E1,-2.999455929E-1
5.300654688E0,1.574685693E0,1.020318794E1,-2.874478400E-1
5.304626563E0,1.557744265E0,1.019546890E1,-2.692232132E-1
5.308595313E0,1.522913456E0,1.019284439E1,-2.787521183E-1
5.312567188E0,1.489576578E0,1.017815304E1,-3.251517415E-1
5.316537500E0,1.488561392E0,1.015363693E1,-3.647231162E-1
5.320507813E0,1.500819683E0,1.020272732E1,-3.177871704E-1
5.324479688E0,1.483485699E0,1.018367004E1,-3.661596477E-1
5.328448438E0,1.533074379E0,1.008745193E1,-3.719631732E-1
5.332420313E0,1.576007247E0,1.002127647E1,-3.809941113E-1
5.336390625E0,1.471792340E0,1.001361465E1,-3.701627553E-1
5.340360938E0,1.490438461E0,9.933887482E0,-4.078857601E-1
5.344331250E0,1.525096893E0,9.833408356E0,-4.666586220E-1
5.348303125E0,1.574216366E0,9.677783966E0,-4.435019195E-1
5.352271875E0,1.589462638E0,9.553248405E0,-3.513826430E-1
5.356242188E0,1.624370098E0,9.407872200E0,-2.789149284E-1
5.360214063E0,1.658980727E0,9.309738159E0,-1.907125264E-1
5.364184375E0,1.598560572E0,9.302536964E0,-1.627386808E-1
5.368153125E0,1.769286394E0,9.322906494E0,-1.121348366E-1
5.372125000E0,1.546826601E0,9.446877480E0,-1.454525441E-1
5.376095313E0,1.645257115E0,9.481651306E0,-2.353787571E-1
5.380065625E0,1.646636128E0,9.549244881E0,-3.106715977E-1
5.384037500E0,1.557303667E0,9.554397583E0,-2.636016011E-1
5.388006250E0,1.477318287E0,9.575800896E0,-2.749405503E-1
5.391978125E0,1.485697865E0,9.681040764E0,-3.248548508E-1
5.395948438E0,1.255279899E0,9.842515945E0,-4.560571313E-1
5.399918750E0,1.220056415E0,9.786204338E0,-4.800757468E-1
5.403889063E0,1.333148956E0,9.697607994E0,-3.415376544E-1
5.407859375E0,1.228895903E0,9.757089615E0,-3.035368919E-1
5.411829688E0,1.176213861E0,9.849017143E0,-3.894121051E-1
5.415801563E0,1.191115379E0,9.945782661E0,-3.794713914E-1
5.419771875E0,1.149599910E0,1.001495552E1,-4.015842378E-1
5.423742188E0,1.367022038E0,1.003293037E1,-3.684293330E-1
5.427712500E0,1.376081824E0,1.005134678E1,-3.490841985E-1
5.431704688E0,1.479415536E0,1.004382896E1,-3.134201765E-1
5.435653125E0,1.639827013E0,1.007111359E1,-3.214359581E-1
5.439623438E0,1.687548399E0,1.012643814E1,-2.640421391E-1
5.443593750E0,1.687500358E0,1.014423275E1,-2.963351309E-1
5.447564063E0,1.780998826E0,1.014249897E1,-2.765111327E-1
5.451535938E0,1.872907400E0,1.010306168E1,-2.960478067E-1
5.455506250E0,1.928223014E0,1.009177017E1,-3.500993252E-1
5.459476563E0,1.889264584E0,1.004223919E1,-3.478392065E-1
5.463446875E0,1.940012097E0,9.964485168E0,-3.503674567E-1
5.467417188E0,1.851378679E0,9.951931000E0,-3.482318521E-1
5.471387500E0,1.769085169E0,9.916553497E0,-3.595133424E-1
5.475359375E0,1.842625499E0,9.755624771E0,-3.713023663E-1
5.479329688E0,1.795593858E0,9.544034958E0,-2.924565077E-1
5.483300000E0,1.756194830E0,9.432627678E0,-2.601156533E-1
5.487270313E0,1.799012661E0,9.396341324E0,-1.818252504E-1
5.491240625E0,1.868779778E0,9.408340454E0,-7.422982901E-2
5.495210938E0,1.908379912E0,9.470858574E0,6.704722345E-2
5.499181250E0,1.890921354E0,9.591018677E0,9.465716034E-2
5.503153125E0,1.912718177E0,9.708401680E0,2.213199995E-2
5.507121875E0,1.919613361E0,9.761466980E0,-3.549164534E-2
5.511093750E0,1.906100631E0,9.823926926E0,-9.457097203E-2
5.515064063E0,1.868760586E0,9.874818802E0,-1.624801010E-1
5.519034375E0,1.856636405E0,9.899295807E0,-2.243366987E-1
5.523004688E0,1.861051321E0,9.895331383E0,-2.833777070E-1
5.526975000E0,1.841112375E0,9.923497200E0,-3.230161071E-1
5.530945313E0,1.851800084E0,9.953884125E0,-3.944016397E-1
5.534917188E0,1.870130181E0,1.001073170E1,-4.064588249E-1
5.538887500E0,1.872668028E0,1.004611778E1,-4.224425256E-1
5.542857813E0,1.910659194E0,1.007297134E1,-3.876116574E-1
5.546829688E0,1.908255339E0,1.008679104E1,-3.557017446E-1
5.550798438E0,1.909567356E0,1.008802605E1,-3.389519453E-1
5.554770313E0,1.905870676E0,1.009153080E1,-3.258029819E-1
5.558740625E0,1.882512927E0,1.007258892E1,-3.425240815E-1
5.562709375E0,1.858120680E0,1.006339455E1,-3.674046099E-1
5.566681250E0,1.846312642E0,1.004378128E1,-4.061811268E-1
5.570651563E0,1.835931301E0,1.001698494E1,-4.223467708E-1
5.574621875E0,1.812199950E0,9.981839180E0,-4.294335842E-1
5.578592188E0,1.790355325E0,9.953261375E0,-4.531553388E-1
5.582562500E0,1.770291924E0,9.913192749E0,-4.670895934E-1
5.586532813E0,1.739713192E0,9.894402504E0,-4.844140410E-1
5.590504688E0,1.720741510E0,9.870872498E0,-4.997369349E-1
5.594475000E0,1.713970661E0,9.847456932E0,-5.068237782E-1
5.598445313E0,1.717131019E0,9.823390961E0,-5.203653574E-1
5.602415625E0,1.712227702E0,9.807349205E0,-4.908975661E-1
5.606385938E0,1.712850213E0,9.792180061E0,-4.532319605E-1
5.610356250E0,1.712064981E0,9.786270142E0,-4.050510526E-1
5.614326563E0,1.709134340E0,9.787592888E0,-4.158441126E-1
5.618298438E0,1.687538743E0,9.792619705E0,-4.019290209E-1
5.622267188E0,1.662849784E0,9.804944992E0,-3.985483944E-1
5.626239063E0,1.627338886E0,9.860280037E0,-4.189278185E-1
5.630209375E0,1.595390677E0,9.912110329E0,-4.181904197E-1
5.634179688E0,1.548473835E0,9.992602348E0,-4.294048846E-1
5.638151563E0,1.506661534E0,1.005847263E1,-4.404948056E-1
5.642120313E0,1.498885155E0,1.011923695E1,-4.481083751E-1
5.646090625E0,1.442506433E0,1.016766739E1,-4.605486393E-1
5.650062500E0,1.419474244E0,1.021872044E1,-4.762450159E-1
5.654032813E0,1.383149505E0,1.027195835E1,-5.065939426E-1
5.658003125E0,1.357914567E0,1.027375889E1,-5.098212957E-1
5.661973438E0,1.343884468E0,1.028945541E1,-5.005030632E-1
5.665943750E0,1.344909310E0,1.026304245E1,-4.640441537E-1
5.669914063E0,1.367951035E0,1.023655319E1,-4.036240876E-1
5.673885938E0,1.386012912E0,1.017619038E1,-3.169540167E-1
5.677856250E0,1.328159451E0,1.011761951E1,-1.765292883E-1
5.681826563E0,1.426417470E0,1.000588608E1,-1.322652698E-1
5.685796875E0,1.497372031E0,9.862310410E0,-1.641751975E-1
5.689767188E0,1.569456697E0,9.680092812E0,-1.174020767E-1
5.693737500E0,1.489385009E0,9.539112091E0,-5.262455344E-2
5.697707813E0,1.476264715E0,9.419220924E0,-6.228755042E-2
5.701678125E0,1.547267199E0,9.250975609E0,-1.212423742E-1
5.705648438E0,1.564562917E0,9.130632401E0,-1.781956553E-1
5.709620313E0,1.587671757E0,9.055483818E0,-1.084381863E-1
5.713590625E0,1.662725210E0,9.016103745E0,-1.032762825E-1
5.717560938E0,1.702650905E0,9.039308548E0,-1.686763018E-1
5.721531250E0,1.613280177E0,9.141234398E0,-1.412674785E-1
5.725501563E0,1.599077702E0,9.223126411E0,-1.006330848E-1
5.729473438E0,1.604450345E0,9.281687737E0,-1.064174771E-1
5.733443750E0,1.569427967E0,9.356176376E0,-1.058907583E-1
5.737414063E0,1.632654071E0,9.431460381E0,-2.512379587E-1
5.741384375E0,1.546089292E0,9.545126915E0,-3.823635876E-1
5.745357813E0,1.566784739E0,9.605652809E0,-4.041795731E-1
5.749325000E0,1.553702831E0,9.649810791E0,-4.016225636E-1
5.753295313E0,1.571429491E0,9.681960106E0,-4.116685987E-1
5.757265625E0,1.566947460E0,9.734316826E0,-4.118984640E-1
5.761235938E0,1.579857111E0,9.765250206E0,-3.812431097E-1
5.765207813E0,1.595620513E0,9.803413391E0,-3.562476635E-1
5.769178125E0,1.606902003E0,9.871609688E0,-3.233034015E-1
5.773148438E0,1.636724114E0,9.916601181E0,-2.899665534E-1
5.777118750E0,1.658884883E0,9.965433121E0,-2.893249094E-1
5.781089063E0,1.651118159E0,1.001987839E1,-2.947262228E-1
5.785059375E0,1.631342053E0,1.007155514E1,-3.002328873E-1
5.789031250E0,1.613960028E0,1.009444237E1,-3.310797811E-1
5.793001563E0,1.582806706E0,1.012296295E1,-3.624055088E-1
5.796970313E0,1.558376312E0,1.012353706E1,-3.888087869E-1
5.800942188E0,1.524780869E0,1.013237667E1,-4.197131395E-1
5.804912500E0,1.512809873E0,1.013635063E1,-4.620234668E-1
5.808882813E0,1.484443307E0,1.010934448E1,-4.799320996E-1
5.812854688E0,1.463527560E0,1.008427238E1,-4.795873463E-1
5.816823438E0,1.469695091E0,1.006769466E1,-4.904378653E-1
5.820793750E0,1.467616916E0,1.005072498E1,-4.878233969E-1
5.824765625E0,1.477279902E0,1.001547241E1,-4.574361742E-1
5.828735938E0,1.474512219E0,9.965903282E0,-4.487308562E-1
5.832706250E0,1.491396070E0,9.921073914E0,-4.276618958E-1
5.836676563E0,1.513106704E0,9.904659271E0,-3.946793377E-1
5.840682813E0,1.518010020E0,9.860078812E0,-3.641867936E-1
5.844617188E0,1.542430878E0,9.831693649E0,-3.615627885E-1
5.848589063E0,1.566890121E0,9.799332619E0,-3.300550878E-1
5.852559375E0,1.580814838E0,9.779931068E0,-3.211677969E-1
5.856528125E0,1.580699801E0,9.775065422E0,-3.219722509E-1
5.860500000E0,1.586637497E0,9.759455681E0,-2.980397940E-1
5.864470313E0,1.588715553E0,9.740062714E0,-2.899378240E-1
5.868440625E0,1.583113194E0,9.733014107E0,-2.998210788E-1
5.872412500E0,1.574695230E0,9.726683617E0,-2.843737006E-1
5.876381250E0,1.582213044E0,9.708440781E0,-2.685049474E-1
5.880353125E0,1.572415948E0,9.718035698E0,-2.597900331E-1
5.884323438E0,1.562494397E0,9.697503090E0,-2.541684508E-1
5.888293750E0,1.584300756E0,9.693031311E0,-2.610445917E-1
5.892264063E0,1.576907516E0,9.704053879E0,-2.602114379E-1
5.896235938E0,1.564237356E0,9.702367783E0,-2.575011849E-1
5.900204688E0,1.573794961E0,9.704111099E0,-2.799779475E-1
5.904175000E0,1.575288892E0,9.718591690E0,-2.947453856E-1
5.908146875E0,1.596798420E0,9.718496323E0,-3.300359249E-1
5.912117188E0,1.595065117E0,9.757951736E0,-3.323439360E-1
5.916087500E0,1.597784877E0,9.774088860E0,-3.454928994E-1
5.920057813E0,1.606739163E0,9.778780937E0,-3.607295752E-1
5.924028125E0,1.613270521E0,9.791585922E0,-3.907720447E-1
5.927998438E0,1.602649927E0,9.796412468E0,-4.073781967E-1
5.931970313E0,1.610043168E0,9.820278168E0,-4.285142124E-1
5.935939063E0,1.617321491E0,9.830907822E0,-4.396424592E-1
5.939910938E0,1.602812767E0,9.828704834E0,-4.472560287E-1
5.943882813E0,1.601270914E0,9.851852417E0,-4.604528844E-1
5.947851563E0,1.592163324E0,9.860376358E0,-4.552431107E-1
5.951821875E0,1.585181713E0,9.873917580E0,-4.562007785E-1
5.955792188E0,1.574264288E0,9.885055542E0,-4.249325097E-1
5.959762500E0,1.551212907E0,9.889403343E0,-4.067557156E-1
5.963734375E0,1.553156972E0,9.890964508E0,-3.968150020E-1
5.967704688E0,1.566516638E0,9.918219566E0,-3.769814074E-1
5.971675000E0,1.553568721E0,9.919484138E0,-3.577128947E-1
5.975645313E0,1.547315121E0,9.928505898E0,-3.299114108E-1
5.979615625E0,1.532959461E0,9.931809425E0,-3.205165565E-1
5.983585938E0,1.530603528E0,9.940179825E0,-3.140713871E-1
5.987557813E0,1.544221759E0,9.920882225E0,-2.996582985E-1
5.991528125E0,1.544279337E0,9.941530228E0,-2.948028445E-1
5.995496875E0,1.546194553E0,9.924511909E0,-2.886258066E-1
5.999468750E0,1.544327140E0,9.912569046E0,-3.030676246E-1
6.003439063E0,1.538944960E0,9.915960312E0,-3.024355471E-1
6.007409375E0,1.558989286E0,9.881694794E0,-3.019375503E-1
6.011379688E0,1.549604058E0,9.875967026E0,-3.170018792E-1
6.015350000E0,1.546079755E0,9.866696358E0,-3.301029801E-1
6.019320313E0,1.561383367E0,9.852169037E0,-3.295953870E-1
6.023292188E0,1.557428241E0,9.824022293E0,-3.085551560E-1
6.027262500E0,1.543848276E0,9.818429947E0,-3.143682480E-1
6.031232813E0,1.526102424E0,9.803307533E0,-3.087083697E-1
6.035203125E0,1.530048132E0,9.795320511E0,-2.976471484E-1
6.039173438E0,1.530134320E0,9.786117554E0,-2.982600629E-1
6.043143750E0,1.533323407E0,9.779183388E0,-3.048776686E-1
6.047115625E0,1.538801312E0,9.772642136E0,-3.117442131E-1
6.051085938E0,1.546740532E0,9.780811310E0,-3.303232193E-1
6.055056250E0,1.566076040E0,9.791950226E0,-3.492086828E-1
6.059026563E0,1.571640134E0,9.792361259E0,-3.649242222E-1
6.062996875E0,1.553903937E0,9.831167221E0,-3.672705293E-1
6.066967188E0,1.554890394E0,9.839038849E0,-3.977152109E-1
6.070937500E0,1.556968451E0,9.850703239E0,-4.051659405E-1
6.074907813E0,1.569370508E0,9.844747543E0,-4.128274322E-1
6.078879688E0,1.574446201E0,9.868028641E0,-4.159781933E-1
6.082850000E0,1.564697027E0,9.885275841E0,-4.215997756E-1
6.086820313E0,1.560243726E0,9.879931450E0,-4.477923214E-1
6.090790625E0,1.567771077E0,9.894900322E0,-4.457524717E-1
6.094760938E0,1.544518709E0,9.900110245E0,-4.118793011E-1
6.098731250E0,1.543513060E0,9.905358315E0,-3.913945258E-1
6.102701563E0,1.521926999E0,9.906085968E0,-3.786765039E-1
6.106673438E0,1.533112645E0,9.910070419E0,-3.850355148E-1
6.110643750E0,1.522654772E0,9.912760735E0,-3.727197647E-1
6.114614063E0,1.530526996E0,9.906583786E0,-3.810036778E-1
6.118584375E0,1.513671756E0,9.894210815E0,-3.751522601E-1
6.122554688E0,1.503960967E0,9.875843048E0,-3.951869309E-1
6.126525000E0,1.508816242E0,9.880458832E0,-3.894599974E-1
6.130495313E0,1.507485151E0,9.857283592E0,-3.911359608E-1
6.134475000E0,1.509055734E0,9.852340698E0,-4.048116207E-1
6.138437500E0,1.499258637E0,9.819435120E0,-3.980887234E-1
6.142410938E0,1.498684049E0,9.815566063E0,-3.959818184E-1
6.146378125E0,1.508375883E0,9.801449776E0,-3.895845115E-1
6.150348438E0,1.504746199E0,9.788999557E0,-3.845758438E-1
6.154318750E0,1.497908354E0,9.753987312E0,-3.842406273E-1
6.158289063E0,1.502610564E0,9.738923073E0,-3.745297492E-1
6.162260938E0,1.510521054E0,9.725410461E0,-3.672705293E-1
6.166231250E0,1.521524787E0,9.706649780E0,-3.788489103E-1
6.170201563E0,1.524168015E0,9.727229118E0,-3.577128947E-1
6.174171875E0,1.536732674E0,9.726990700E0,-3.542077541E-1
6.178142188E0,1.524081826E0,9.711284637E0,-3.564583063E-1
6.182112500E0,1.548847437E0,9.715316772E0,-3.462398648E-1
6.186082813E0,1.542727828E0,9.729183197E0,-3.427347839E-1
6.190053125E0,1.538379908E0,9.733828545E0,-3.543131053E-1
6.194023438E0,1.545399785E0,9.743511200E0,-3.475806415E-1
6.197995313E0,1.542756557E0,9.744601250E0,-3.459142745E-1
6.201965625E0,1.534118295E0,9.757702827E0,-3.287622035E-1
6.205935938E0,1.547477961E0,9.770018578E0,-3.342975974E-1
6.209906250E0,1.534759879E0,9.772882462E0,-3.393541574E-1
6.213876563E0,1.534443855E0,9.796632767E0,-3.348913491E-1
6.217848438E0,1.536972165E0,9.815126419E0,-3.277949393E-1
6.221817188E0,1.541090250E0,9.837851524E0,-3.026654124E-1
6.225789063E0,1.549153805E0,9.844018936E0,-2.999838889E-1
6.229759375E0,1.554545522E0,9.868555069E0,-2.946304679E-1
6.233729688E0,1.557715416E0,9.874118805E0,-2.787616849E-1
6.237700000E0,1.553223968E0,9.898127556E0,-2.807824016E-1
6.241670313E0,1.556499243E0,9.894622803E0,-2.823913097E-1
6.245642188E0,1.556403399E0,9.912004471E0,-2.864518762E-1
6.249610938E0,1.568690538E0,9.916093826E0,-2.589664161E-1
6.253582813E0,1.571391225E0,9.920297623E0,-2.510943115E-1
6.257553125E0,1.571094394E0,9.913996696E0,-2.518796027E-1
6.261523438E0,1.573019266E0,9.907044411E0,-2.605561912E-1
6.265493750E0,1.571410418E0,9.907771111E0,-2.614947259E-1
6.269464063E0,1.581159592E0,9.889882088E0,-2.488437444E-1
6.273434375E0,1.571936965E0,9.879203796E0,-2.660149634E-1
6.277406250E0,1.594318151E0,9.869129181E0,-2.540918291E-1
6.281376563E0,1.599020243E0,9.859590530E0,-2.547047436E-1
6.285346875E0,1.607629895E0,9.846441269E0,-2.765973210E-1
6.289317188E0,1.619102836E0,9.820248604E0,-2.786659300E-1
6.293287500E0,1.619409323E0,9.815393448E0,-2.743084729E-1
6.297257813E0,1.613701582E0,9.804906845E0,-2.799588144E-1
6.301228125E0,1.628076315E0,9.803767204E0,-2.918531895E-1
6.305198438E0,1.635316372E0,9.782066345E0,-2.787137926E-1
6.309170313E0,1.616794825E0,9.781865120E0,-2.799875140E-1
6.313140625E0,1.611202002E0,9.779203415E0,-3.017843366E-1
6.317110938E0,1.616459608E0,9.779663086E0,-2.979632020E-1
6.321081250E0,1.594902277E0,9.783435822E0,-2.937302589E-1
6.325053125E0,1.596128106E0,9.777794838E0,-2.820944190E-1
6.329021875E0,1.582931280E0,9.775812149E0,-2.914605439E-1
6.332992188E0,1.572052002E0,9.774950981E0,-2.939696610E-1
6.336964063E0,1.555943847E0,9.782937050E0,-2.916424870E-1
6.340934375E0,1.534807682E0,9.797063828E0,-2.981643081E-1
6.344904688E0,1.539126992E0,9.820248604E0,-3.105471134E-1
6.348875000E0,1.513288736E0,9.826416969E0,-3.060556054E-1
6.352845313E0,1.500666499E0,9.828648567E0,-3.155749440E-1
6.356815625E0,1.466640115E0,9.848166466E0,-3.159579933E-1
6.360785938E0,1.455521345E0,9.852838516E0,-3.102214932E-1
6.364757813E0,1.449985981E0,9.853605270E0,-2.982983589E-1
6.368726563E0,1.430707932E0,9.870977402E0,-2.998402417E-1
6.372698438E0,1.414513588E0,9.872107506E0,-3.064674139E-1
6.376668750E0,1.408288598E0,9.872241974E0,-3.186682463E-1
6.380639063E0,1.415854216E0,9.899650574E0,-3.185150027E-1
6.384609375E0,1.409236670E0,9.894038200E0,-3.169540167E-1
6.388579688E0,1.419512630E0,9.893607140E0,-3.203058839E-1
6.392550000E0,1.410682797E0,9.912655830E0,-3.206698000E-1
6.396521875E0,1.401766896E0,9.935840607E0,-3.160346448E-1
6.400492188E0,1.402935147E0,9.936856270E0,-3.148375154E-1
6.404462500E0,1.402647853E0,9.926033974E0,-2.912785709E-1
6.408432813E0,1.397466779E0,9.921734810E0,-3.104992509E-1
6.412403125E0,1.404821754E0,9.913968086E0,-2.944389284E-1
6.416373438E0,1.406114578E0,9.916496277E0,-3.105183840E-1
6.420343750E0,1.416907668E0,9.903874397E0,-3.038720787E-1
6.424315625E0,1.431866646E0,9.889584541E0,-3.056725264E-1
6.428285938E0,1.448894262E0,9.885649681E0,-3.204782605E-1
6.432256250E0,1.473305583E0,9.882613182E0,-3.068504632E-1
6.436226563E0,1.484443307E0,9.865489960E0,-3.155366182E-1
6.440196875E0,1.473995090E0,9.866648674E0,-3.062279522E-1
6.444167188E0,1.461535692E0,9.855817795E0,-2.871892750E-1
6.448137500E0,1.446318150E0,9.861630440E0,-2.832723558E-1
6.452109375E0,1.452073693E0,9.849123001E0,-2.751129270E-1
6.456079688E0,1.439327002E0,9.835897446E0,-2.611116469E-1
6.460050000E0,1.428945780E0,9.829730034E0,-2.555858195E-1
6.464020313E0,1.434500337E0,9.816054344E0,-2.617341280E-1
6.467990625E0,1.446452141E0,9.810461998E0,-2.602497339E-1
6.471960938E0,1.446337223E0,9.801105499E0,-2.680739760E-1
6.475932813E0,1.456383348E0,9.796154022E0,-2.568595409E-1
6.479901563E0,1.469139695E0,9.786816597E0,-2.715120614E-1
6.483873438E0,1.480057120E0,9.787046432E0,-2.467943132E-1
6.487843750E0,1.484701872E0,9.786787987E0,-2.648369968E-1
6.491814063E0,1.490974784E0,9.790216446E0,-2.526170015E-1
6.495784375E0,1.485554338E0,9.798280716E0,-2.560837865E-1
6.499754688E0,1.495705724E0,9.788827896E0,-2.786563337E-1
6.503725000E0,1.512493730E0,9.788368225E0,-2.790106833E-1
6.507695313E0,1.501327276E0,9.798778534E0,-2.647029459E-1
6.511667188E0,1.508011818E0,9.809015274E0,-2.711768448E-1
6.515637500E0,1.500254631E0,9.818783760E0,-2.763291895E-1
6.519607813E0,1.504525900E0,9.806534767E0,-2.730730474E-1
6.523578125E0,1.509821892E0,9.830477715E0,-2.734848559E-1
6.527548438E0,1.505866647E0,9.842926979E0,-2.800928652E-1
6.531518750E0,1.508471608E0,9.837507248E0,-2.630174160E-1
6.535490625E0,1.501451731E0,9.827144623E0,-2.504239082E-1
6.539459375E0,1.482815266E0,9.838407516E0,-2.534597516E-1
6.543431250E0,1.503491521E0,9.853077888E0,-2.744233906E-1
6.547401563E0,1.490179777E0,9.858509064E0,-2.844024301E-1
6.551371875E0,1.478563190E0,9.843194962E0,-2.755438983E-1
6.555342188E0,1.472328782E0,9.855827332E0,-2.878884077E-1
6.559312500E0,1.466956019E0,9.864234924E0,-3.017364442E-1
6.563282813E0,1.467367887E0,9.855960846E0,-3.031538129E-1
6.567254688E0,1.445331693E0,9.847083092E0,-3.189555407E-1
6.571225000E0,1.442209601E0,9.858853340E0,-2.995337844E-1
6.575195313E0,1.452045083E0,9.851191521E0,-3.135254979E-1
6.579165625E0,1.444469690E0,9.841815948E0,-3.180553317E-1
6.583135938E0,1.432431817E0,9.842448235E0,-3.229586482E-1
6.587106250E0,1.425871611E0,9.834183693E0,-3.324013948E-1
6.591076563E0,1.422328234E0,9.841806412E0,-3.155749440E-1
6.595048438E0,1.420987368E0,9.844105721E0,-3.074729741E-1
6.599017188E0,1.418487906E0,9.850378036E0,-3.077411056E-1
6.602989063E0,1.413278103E0,9.849218369E0,-3.178829253E-1
6.606959375E0,1.435390949E0,9.849899292E0,-3.372664154E-1
6.610929688E0,1.407110572E0,9.851019859E0,-3.131615818E-1
6.614900000E0,1.412464142E0,9.855922699E0,-3.047148585E-1
6.618870313E0,1.428361535E0,9.851134300E0,-3.151535690E-1
6.622840625E0,1.423209190E0,9.857435226E0,-3.061321974E-1
6.626812500E0,1.429539561E0,9.873860359E0,-3.045041561E-1
6.630782813E0,1.429558754E0,9.868430138E0,-2.925044298E-1
6.634753125E0,1.423199654E0,9.878188133E0,-3.123666942E-1
6.638723438E0,1.418133497E0,9.868219376E0,-3.118495345E-1
6.642693750E0,1.422337770E0,9.885955811E0,-3.060939014E-1
6.646664063E0,1.424099803E0,9.869962692E0,-3.009511530E-1
6.650635938E0,1.427078247E0,9.857234001E0,-3.004531562E-1
6.654606250E0,1.444651723E0,9.870834351E0,-3.163506389E-1
6.658575000E0,1.451365113E0,9.862961769E0,-3.265116513E-1
6.662546875E0,1.442094684E0,9.865346909E0,-3.116771877E-1
6.666517188E0,1.447266221E0,9.842946053E0,-3.155174851E-1
6.670487500E0,1.464312911E0,9.842974663E0,-3.047244251E-1
6.674459375E0,1.453452706E0,9.854984283E0,-3.034028113E-1
6.678428125E0,1.451987505E0,9.859907150E0,-2.964692116E-1
6.682398438E0,1.459965110E0,9.846690178E0,-2.987389266E-1
6.686370313E0,1.464820385E0,9.834058762E0,-2.720004618E-1
6.690340625E0,1.463623405E0,9.845052719E0,-2.875531912E-1
6.694310938E0,1.443856835E0,9.845790863E0,-2.860975266E-1
6.698281250E0,1.467224240E0,9.840542793E0,-3.000509441E-1
6.702251563E0,1.460520506E0,9.842123032E0,-2.901102006E-1
6.706223438E0,1.473602414E0,9.853624344E0,-3.044179678E-1
6.710193750E0,1.485544682E0,9.823026657E0,-3.058161736E-1
6.714164063E0,1.464657664E0,9.829816818E0,-2.996008396E-1
6.718134375E0,1.453280449E0,9.823418617E0,-2.865667939E-1
6.722104688E0,1.478821754E0,9.819981575E0,-2.963064015E-1
6.726075000E0,1.483208060E0,9.823112488E0,-2.798534632E-1
6.730059375E0,1.491281271E0,9.818314552E0,-2.788574398E-1
6.734017188E0,1.485506296E0,9.827173233E0,-2.834447622E-1
6.737985938E0,1.481627822E0,9.826339722E0,-2.892578840E-1
6.741957813E0,1.473334193E0,9.827814102E0,-2.659096122E-1
6.745928125E0,1.469292879E0,9.834375381E0,-2.650668621E-1
6.749898438E0,1.463824511E0,9.831013680E0,-2.593973875E-1
6.753868750E0,1.469187498E0,9.838158607E0,-2.636207640E-1
6.757839063E0,1.463795781E0,9.820057869E0,-2.418431044E-1
6.761809375E0,1.473506570E0,9.821426392E0,-2.654116154E-1
6.765781250E0,1.475747705E0,9.812137604E0,-2.566584051E-1
6.769751563E0,1.483907104E0,9.824933052E0,-2.580949366E-1
6.773721875E0,1.482748270E0,9.818927765E0,-2.649711072E-1
6.777692188E0,1.473209739E0,9.828130722E0,-2.551644444E-1
6.781662500E0,1.478237510E0,9.824090004E0,-2.370355427E-1
6.785632813E0,1.463518023E0,9.812999725E0,-2.476083338E-1
6.789603125E0,1.467616916E0,9.839527130E0,-2.471582294E-1
6.793573438E0,1.459342480E0,9.853107452E0,-2.564190030E-1
6.797543750E0,1.453510284E0,9.865757942E0,-2.475796044E-1
6.801515625E0,1.441836238E0,9.868861198E0,-2.445150316E-1
6.805485938E0,1.436147571E0,9.881559372E0,-2.519274652E-1
6.809456250E0,1.466189981E0,9.896835327E0,-2.597613335E-1
6.813426563E0,1.460865259E0,9.897285461E0,-2.701425850E-1
6.817396875E0,1.453309178E0,9.918785095E0,-2.502802610E-1
6.821367188E0,1.474445224E0,9.909285545E0,-2.555953860E-1
6.825339063E0,1.461075902E0,9.929750443E0,-2.461239249E-1
6.829309375E0,1.495810986E0,9.921782494E0,-2.539290190E-1
6.833315625E0,1.493359327E0,9.938858032E0,-2.657468319E-1
6.837250000E0,1.502102971E0,9.949699402E0,-2.722015679E-1
6.841220313E0,1.498645782E0,9.935822487E0,-3.126540184E-1
6.845190625E0,1.531063199E0,9.926321983E0,-2.984133065E-1
6.849160938E0,1.506067753E0,9.928591728E0,-3.032017052E-1
6.853132813E0,1.509869695E0,9.922760010E0,-3.157951832E-1
6.857101563E0,1.516640663E0,9.917079926E0,-3.271436989E-1
6.861073438E0,1.516544819E0,9.894613266E0,-3.369599581E-1
6.865043750E0,1.513623953E0,9.879357338E0,-3.399287760E-1
6.869014063E0,1.523918986E0,9.857331276E0,-3.455407619E-1
6.872984375E0,1.529329777E0,9.823524475E0,-3.459047079E-1
6.876954688E0,1.520950198E0,9.793434143E0,-3.447746336E-1
6.880926563E0,1.513422728E0,9.770162582E0,-3.304764330E-1
6.884896875E0,1.516793847E0,9.741537094E0,-3.319704235E-1
6.888865625E0,1.505167603E0,9.702703476E0,-3.274884820E-1
6.892837500E0,1.520471334E0,9.698058128E0,-3.272299170E-1
6.896807813E0,1.524349928E0,9.706974983E0,-3.340294361E-1
6.900778125E0,1.515338182E0,9.703785896E0,-3.365960419E-1
6.904748438E0,1.509888887E0,9.710622787E0,-3.399287760E-1
6.908720313E0,1.504516363E0,9.735073090E0,-3.417100608E-1
6.912690625E0,1.497659326E0,9.761294365E0,-3.511048853E-1
6.916660938E0,1.506412625E0,9.763075829E0,-3.423612714E-1
6.920631250E0,1.510061264E0,9.788885117E0,-3.456748426E-1
6.924601563E0,1.514591217E0,9.824060440E0,-3.492757380E-1
6.928571875E0,1.516487360E0,9.845598221E0,-3.371706307E-1
6.932542188E0,1.518690109E0,9.856325150E0,-3.350541592E-1
6.936512500E0,1.525154471E0,9.885074615E0,-3.363278806E-1
6.940484375E0,1.521323562E0,9.917434692E0,-3.216753602E-1
6.944454688E0,1.529942751E0,9.914590836E0,-3.267318904E-1
6.948425000E0,1.529952407E0,9.929846764E0,-3.180936277E-1
6.952395313E0,1.530776024E0,9.934079170E0,-3.133243918E-1
6.956365625E0,1.528602004E0,9.933676720E0,-3.014682829E-1
6.960335938E0,1.534261942E0,9.946394920E0,-2.828126848E-1
6.964307813E0,1.532499790E0,9.953778267E0,-2.869306803E-1
6.968285938E0,1.532949805E0,9.955616951E0,-2.852930725E-1
6.972248438E0,1.548416376E0,9.975374222E0,-2.770857513E-1
6.976218750E0,1.547343850E0,9.986004829E0,-2.676142752E-1
6.980189063E0,1.569437504E0,9.988591194E0,-2.892003953E-1
6.984159375E0,1.582816243E0,9.990677834E0,-2.808781862E-1
6.988129688E0,1.591665268E0,9.989643097E0,-2.747873366E-1
6.992100000E0,1.605034590E0,9.991750717E0,-2.744233906E-1
6.996070313E0,1.614956021E0,9.990621567E0,-2.929545343E-1
7.000042188E0,1.637643576E0,9.991463661E0,-2.847471833E-1
7.004012500E0,1.656088471E0,9.977290154E0,-2.674227655E-1
7.007982813E0,1.660034060E0,9.981072426E0,-2.624619603E-1
7.011953125E0,1.673355460E0,9.976399422E0,-2.432509065E-1
7.015923438E0,1.653837919E0,9.985258102E0,-2.147598863E-1
7.019893750E0,1.635258913E0,9.991205215E0,-2.213391513E-1
7.023865625E0,1.637279630E0,9.989710808E0,-2.094926387E-1
7.027835938E0,1.621813059E0,1.001130676E1,-2.048287541E-1
7.031806250E0,1.617752552E0,1.002189827E1,-1.941697598E-1
7.035776563E0,1.595687509E0,1.002161121E1,-2.010459006E-1
7.039746875E0,1.578727007E0,1.000465012E1,-2.141757011E-1
7.043717188E0,1.543704629E0,9.988274574E0,-2.266542763E-1
7.047687500E0,1.528994679E0,9.977184296E0,-2.578076422E-1
7.051657813E0,1.528439164E0,9.962167740E0,-2.586886883E-1
7.055628125E0,1.519772172E0,9.943302155E0,-2.113409787E-1
7.059600000E0,1.519982934E0,9.927662849E0,-1.425220370E-1
7.063570313E0,1.515242457E0,9.908758163E0,-9.233956784E-2
7.067540625E0,1.513327003E0,9.923353195E0,-7.418194413E-2
7.071510938E0,1.522032380E0,9.970825195E0,-9.225337952E-2
7.075481250E0,1.534376860E0,9.988168716E0,-9.730993956E-2
7.079451563E0,1.525776863E0,9.991406441E0,-9.057743847E-2
7.083423438E0,1.532796621E0,1.000100231E1,-8.104851842E-2
7.087393750E0,1.544681549E0,9.984683037E0,-9.561483562E-2
7.091364063E0,1.524321198E0,9.957858086E0,-1.079880744E-1
7.095334375E0,1.536502957E0,9.925977707E0,-1.653722972E-1
7.099304688E0,1.588131428E0,9.848279953E0,-2.256008387E-1
7.103275000E0,1.628382802E0,9.796700478E0,-2.875627875E-1
7.107245313E0,1.687443018E0,9.718160629E0,-3.242706954E-1
7.111215625E0,1.767141104E0,9.636929512E0,-3.598293662E-1
7.115185938E0,1.821364999E0,9.567794800E0,-3.448799849E-1
7.119157813E0,1.914863348E0,9.474296570E0,-3.553569913E-1
7.123128125E0,1.956474662E0,9.410065651E0,-3.159771860E-1
7.127098438E0,2.024680614E0,9.358608246E0,-2.790010870E-1
7.131068750E0,2.050815582E0,9.326334953E0,-2.474646866E-1
7.135039063E0,2.102836847E0,9.307717323E0,-2.232832462E-1
7.139010938E0,2.126989841E0,9.306577682E0,-1.571937054E-1
7.142981250E0,2.139027596E0,9.330883980E0,-1.334144920E-1
7.146951563E0,2.148547173E0,9.359576225E0,-1.161475107E-1
7.150921875E0,2.156965017E0,9.399358749E0,-7.306145877E-2
7.154892188E0,2.147646666E0,9.471327782E0,-8.103893697E-2
7.158862500E0,2.137964487E0,9.535147667E0,-8.523358405E-2
7.162832813E0,2.125610590E0,9.611159325E0,-1.229087338E-1
7.166803125E0,2.092647314E0,9.693595886E0,-1.325142831E-1
7.170773438E0,2.060449839E0,9.755845070E0,-1.375038028E-1
7.174745313E0,1.999598980E0,9.846461296E0,-9.771215916E-2
7.178715625E0,1.920599818E0,9.914954185E0,-7.450754941E-2
7.182685938E0,1.862976193E0,9.993206024E0,-8.429504931E-2
7.186656250E0,1.789148688E0,1.002611256E1,-9.175538272E-2
7.190626563E0,1.732779503E0,1.008401394E1,-1.133031994E-1
7.194596875E0,1.684119701E0,1.012878513E1,-1.260882467E-1
7.198568750E0,1.617580056E0,1.014206791E1,-1.453855038E-1
7.202539063E0,1.568613887E0,1.015335941E1,-1.817869395E-1
7.206515625E0,1.522760153E0,1.015775490E1,-1.791437566E-1
7.210479688E0,1.470058918E0,1.015476704E1,-1.784829497E-1
7.214450000E0,1.442535281E0,1.012903404E1,-1.761366278E-1
7.218420313E0,1.410117745E0,1.010989094E1,-1.789426357E-1
7.222392188E0,1.375219822E0,1.008783531E1,-1.720473319E-1
7.226360938E0,1.347801566E0,1.005226707E1,-1.549239904E-1
7.230332813E0,1.325860977E0,1.000035095E1,-1.035731658E-1
7.234304688E0,1.273926020E0,9.942487717E0,-5.186798424E-2
7.238273438E0,1.249610424E0,9.907809258E0,1.771709183E-3
7.242243750E0,1.227133632E0,9.850588799E0,5.254793912E-2
7.246214063E0,1.175016761E0,9.793319702E0,9.572018683E-2
7.250184375E0,1.169155717E0,9.751008987E0,1.222958192E-1
7.254154688E0,1.154158473E0,9.708468437E0,1.139640063E-1
7.258126563E0,1.122420907E0,9.667652130E0,1.170956194E-1
7.262096875E0,1.122181535E0,9.630503654E0,1.118666828E-1
7.266067188E0,1.111417055E0,9.587704659E0,8.718724549E-2
7.270037500E0,1.114098668E0,9.592990875E0,7.217081636E-2
7.274007813E0,1.106829882E0,9.581010818E0,3.679408878E-2
7.277978125E0,1.132208347E0,9.582476616E0,7.354987785E-3
7.281950000E0,1.124048948E0,9.578577995E0,-1.990060508E-2
7.285918750E0,1.149676561E0,9.594370842E0,-4.036623985E-2
7.289890625E0,1.178234458E0,9.604847908E0,-5.332366005E-2
7.293860938E0,1.199389696E0,9.625945091E0,-7.829039544E-2
7.297831250E0,1.230064154E0,9.656935692E0,-6.992026418E-2
7.301803125E0,1.269262075E0,9.687667847E0,-5.815037340E-2
7.305771875E0,1.258823395E0,9.726224899E0,-5.048892647E-2
7.309742188E0,1.289038181E0,9.753614426E0,-3.673662990E-2
7.313714063E0,1.300013185E0,9.794573784E0,-1.800439693E-2
7.317684375E0,1.315546751E0,9.824252129E0,4.778826609E-3
7.321654688E0,1.313842177E0,9.861880302E0,2.668098360E-2
7.325631250E0,1.313133478E0,9.915347099E0,5.100607127E-2
7.329595313E0,1.331539989E0,9.967913628E0,6.841670722E-2
7.333565625E0,1.333647013E0,1.001696682E1,9.038589895E-2
7.337535938E0,1.327268839E0,1.006260967E1,1.309436858E-1
7.341507813E0,1.339776158E0,1.012951279E1,1.264617294E-1
7.345478125E0,1.318630457E0,1.018561459E1,1.099800467E-1
7.349448438E0,1.323351979E0,1.023896694E1,9.644801915E-2
7.353418750E0,1.328312635E0,1.027677536E1,9.182242304E-2
7.357389063E0,1.333254218E0,1.031623268E1,1.062642485E-1
7.361359375E0,1.342084050E0,1.037942028E1,1.354926676E-1
7.365329688E0,1.342170238E0,1.039993382E1,1.451939642E-1
7.369300000E0,1.379673123E0,1.041596508E1,1.584674269E-1
7.373271875E0,1.421945095E0,1.043600845E1,1.614841223E-1
7.377242188E0,1.483016372E0,1.044832516E1,1.997817755E-1
7.381212500E0,1.435352683E0,1.045348740E1,2.292879075E-1
7.385182813E0,1.403126717E0,1.040540123E1,1.585344523E-1
7.389153125E0,1.476676464E0,1.036887550E1,1.169711128E-1
7.393123438E0,1.491060972E0,1.034690666E1,1.006426588E-1
7.397093750E0,1.514045238E0,1.031436443E1,7.819462568E-2
7.401065625E0,1.613241792E0,1.025173283E1,8.393114060E-2
7.405035938E0,1.636886954E0,1.020974731E1,9.291417897E-2
7.409006250E0,1.726286530E0,1.015196133E1,8.092401922E-2
7.412976563E0,1.747499108E0,1.008224201E1,3.980121017E-2
7.416946875E0,1.796963215E0,9.992344856E0,-3.729208931E-2
7.420917188E0,1.866251469E0,9.943809509E0,-7.298484445E-2
7.424887500E0,1.914078116E0,9.862234116E0,-1.396585703E-1
7.428857813E0,1.984984756E0,9.778925896E0,-1.907316893E-1
7.432831250E0,2.082792759E0,9.692800522E0,-2.477519959E-1
7.436800000E0,2.100548029E0,9.629354477E0,-2.842396200E-1
7.440770313E0,2.156304121E0,9.537781715E0,-3.156707287E-1
7.444740625E0,2.232506752E0,9.425014496E0,-3.846141398E-1
7.448710938E0,2.283254385E0,9.321077347E0,-4.436168373E-1
7.452681250E0,2.372787952E0,9.194068909E0,-5.450160503E-1
7.456653125E0,2.434836149E0,9.057360649E0,-6.120824814E-1
7.460623438E0,2.477903128E0,8.943876266E0,-6.356701255E-1
7.464593750E0,2.515444040E0,8.826099396E0,-6.481199861E-1
7.468564063E0,2.560809374E0,8.736661911E0,-6.548045874E-1
7.472534375E0,2.587518930E0,8.682888985E0,-6.529945731E-1
7.476504688E0,2.596301079E0,8.667671204E0,-6.600239277E-1
7.480475000E0,2.614305496E0,8.683578491E0,-6.741114259E-1
7.484445313E0,2.592336178E0,8.717317581E0,-6.484168768E-1
7.488417188E0,2.568422794E0,8.767719269E0,-6.159994006E-1
7.492387500E0,2.507313490E0,8.851306915E0,-5.730569363E-1
7.496357813E0,2.394718647E0,8.963393211E0,-5.175306201E-1
7.500328125E0,2.281463623E0,9.067224503E0,-4.814739823E-1
7.504298438E0,2.152377605E0,9.233785629E0,-4.472272992E-1
7.508268750E0,2.024862528E0,9.382847786E0,-4.015076160E-1
7.512239063E0,1.891323566E0,9.502451897E0,-3.688219786E-1
7.516210938E0,1.799970508E0,9.610085487E0,-3.559124470E-1
7.520181250E0,1.638706565E0,9.721684456E0,-3.029814363E-1
7.524151563E0,1.501154900E0,9.827527046E0,-2.650476992E-1
7.528121875E0,1.427739143E0,9.931196213E0,-2.572809160E-1
7.532092188E0,1.308182240E0,1.005384636E1,-2.899378240E-1
7.536062500E0,1.202885270E0,1.018557549E1,-3.227862716E-1
7.540032813E0,1.189784169E0,1.027673721E1,-3.681612015E-1
7.544004688E0,1.100853920E0,1.037191105E1,-3.757077157E-1
7.547975000E0,9.738559127E-1,1.044470501E1,-3.545621037E-1
7.551943750E0,8.986396194E-1,1.048139381E1,-3.503579199E-1
7.555915625E0,8.495681286E-1,1.053363514E1,-3.842980862E-1
7.559885938E0,7.205110192E-1,1.055744362E1,-3.446884155E-1
7.563860938E0,6.305561066E-1,1.053770542E1,-2.852260470E-1
7.567828125E0,5.839745402E-1,1.051916504E1,-2.072899789E-1
7.571798438E0,4.885320663E-1,1.045621586E1,-9.769301116E-2
7.575768750E0,4.386464953E-1,1.036312962E1,-6.550535560E-3
7.579739063E0,3.905038834E-1,1.028342152E1,6.271850318E-2
7.583709375E0,3.512676954E-1,1.020557213E1,1.104780436E-1
7.587679688E0,2.965458333E-1,1.011536789E1,1.738765091E-1
7.591650000E0,1.970428079E-1,1.001951408E1,2.181022018E-1
7.595621875E0,1.873319298E-1,9.931129456E0,2.450992167E-1
7.599592188E0,1.720664799E-1,9.843789101E0,2.705352306E-1
7.603562500E0,1.663203984E-1,9.773419380E0,3.072048128E-1
7.607532813E0,1.363066882E-1,9.737035751E0,3.052319884E-1
7.611503125E0,9.323021770E-2,9.671138763E0,3.055288792E-1
7.615473438E0,6.748775393E-2,9.617488861E0,3.213497698E-1
7.619443750E0,2.881661244E-2,9.576117516E0,2.988346815E-1
7.623414063E0,2.673844621E-2,9.540012360E0,3.081816435E-1
7.627385938E0,4.190810770E-2,9.489150047E0,3.225468397E-1
7.631357813E0,6.978619099E-2,9.481671333E0,3.099054694E-1
7.635326563E0,-2.641283162E-2,9.457690239E0,2.625194490E-1
7.639296875E0,7.756256312E-2,9.418626785E0,1.789809465E-1
7.643267188E0,9.872730076E-2,9.365312576E0,1.337784082E-1
7.647237500E0,7.730398327E-2,9.345440865E0,9.866983443E-2
7.651207813E0,1.411334127E-1,9.303408623E0,5.334281549E-2
7.655178125E0,2.294794470E-1,9.290871620E0,3.547249362E-2
7.659148438E0,3.310702145E-1,9.313138008E0,1.369483396E-2
7.663120313E0,4.753448069E-1,9.311107635E0,-2.639367804E-2
7.667090625E0,7.378450632E-1,9.291522980E0,-9.118077904E-2
7.671060938E0,8.664711714E-1,9.328652382E0,-2.068877518E-1
7.675031250E0,1.063686371E0,9.325138092E0,-3.698083758E-1
7.679001563E0,1.442650199E0,9.261758804E0,-4.814547896E-1
7.682973438E0,1.841715693E0,9.204508781E0,-5.030313134E-1
7.686943750E0,1.832799673E0,9.239607811E0,-5.444797873E-1
7.690912500E0,1.847653270E0,9.291714668E0,-8.175432682E-1
7.694884375E0,2.362990856E0,9.287060738E0,-9.988130331E-1
7.698854688E0,2.327728987E0,9.346063614E0,-9.970700741E-1
7.702825000E0,2.252972364E0,9.417084694E0,-7.905654311E-1
7.706795313E0,2.356105328E0,9.510190010E0,-5.834956765E-1
7.710765625E0,2.066215277E0,9.625255585E0,-6.260645986E-1
7.714735938E0,1.920896769E0,9.724040985E0,-8.232510090E-1
7.718707813E0,1.785768032E0,9.825372696E0,-9.594427943E-1
7.722678125E0,1.943833232E0,1.006382656E1,-8.705700636E-1
7.726662500E0,1.736064315E0,1.016994667E1,-8.621041179E-1
7.730618750E0,1.399937630E0,1.042397118E1,-8.336706161E-1
7.734589063E0,1.301574230E0,1.063283157E1,-5.234299302E-1
7.738559375E0,1.282526016E0,1.082278824E1,-4.204888642E-1
7.742531250E0,1.075302958E0,1.103992271E1,-7.067778707E-1
7.746501563E0,7.478240728E-1,1.129587173E1,-1.321810007E0
7.750471875E0,4.165432155E-1,1.151545906E1,-2.112404108E0
7.754442188E0,2.759652734E-1,1.163592625E1,-2.657267094E0
7.758412500E0,2.999168634E-1,1.166410065E1,-2.971635342E0
7.762382813E0,3.063333035E-1,1.162131119E1,-3.090263128E0
7.766353125E0,3.401394486E-1,1.152737236E1,-3.047952890E0
7.770323438E0,3.000701070E-1,1.133266640E1,-2.918589354E0
7.774295313E0,2.305424660E-1,1.108725071E1,-2.906896114E0
7.778265625E0,2.779285014E-1,1.085271454E1,-2.857881784E0
7.782235938E0,4.390582740E-1,1.051867580E1,-2.778212309E0
7.786206250E0,6.314946413E-1,1.018789387E1,-2.618921280E0
7.790176563E0,8.628415465E-1,9.852906227E0,-2.507552624E0
7.794146875E0,9.824750423E-1,9.648431778E0,-2.534157276E0
7.798117188E0,1.174930573E0,9.399788857E0,-2.556815863E0
7.802095313E0,1.380161524E0,9.183985710E0,-2.539989471E0
7.806059375E0,1.525863051E0,9.013106346E0,-2.478889465E0
7.810028125E0,1.666029215E0,8.855567932E0,-2.361573458E0
7.814000000E0,1.763023019E0,8.733023643E0,-2.291002035E0
7.817970313E0,1.825875759E0,8.662556648E0,-2.194266558E0
7.821940625E0,1.877647996E0,8.598191261E0,-2.102147579E0
7.825946875E0,1.941362381E0,8.556465149E0,-1.992808938E0
7.829884375E0,1.989131451E0,8.574421883E0,-1.886219144E0
7.833851563E0,1.922218442E0,8.598717690E0,-1.824487090E0
7.837823438E0,1.876038909E0,8.622889519E0,-1.741877556E0
7.841793750E0,1.854165554E0,8.651323318E0,-1.616450071E0
7.845764063E0,1.799271345E0,8.715689659E0,-1.517780304E0
7.849734375E0,1.767830729E0,8.793414116E0,-1.492516637E0
7.853704688E0,1.708042622E0,8.890810966E0,-1.477356553E0
7.857675000E0,1.672934055E0,8.979941368E0,-1.531446338E0
7.861646875E0,1.701616526E0,9.056834221E0,-1.545849800E0
7.865617188E0,1.704106569E0,9.133917809E0,-1.472874641E0
7.869587500E0,1.683612227E0,9.238889694E0,-1.437430739E0
7.873557813E0,1.738343596E0,9.318549156E0,-1.437488317E0
7.877528125E0,1.773758650E0,9.403781891E0,-1.436549783E0
7.881498438E0,1.774122596E0,9.502327919E0,-1.437832952E0
7.885470313E0,1.783354640E0,9.582304001E0,-1.494709730E0
7.889439063E0,1.804289579E0,9.660459518E0,-1.563940406E0
7.893410938E0,1.834667206E0,9.736969948E0,-1.610119700E0
7.897381250E0,1.855372190E0,9.803499222E0,-1.622933626E0
7.901351563E0,1.903620243E0,9.867903709E0,-1.648034453E0
7.905321875E0,1.912325621E0,9.926963806E0,-1.604536533E0
7.909292188E0,2.006638050E0,9.940505028E0,-1.613069415E0
7.913262500E0,2.067326069E0,9.932269096E0,-1.605628252E0
7.917234375E0,2.089448452E0,9.931723595E0,-1.552611113E0
7.921204688E0,2.116934061E0,9.920259476E0,-1.551835299E0
7.925175000E0,2.125639439E0,9.900541306E0,-1.571831703E0
7.929145313E0,2.124145269E0,9.869742393E0,-1.536186934E0
7.933115625E0,2.143174648E0,9.795369148E0,-1.522539973E0
7.937085938E0,2.180054665E0,9.758785248E0,-1.533026457E0
7.941057813E0,2.200242758E0,9.716705322E0,-1.527874112E0
7.945028125E0,2.279557943E0,9.930181503E0,-1.478793144E0
7.948996875E0,2.389307976E0,9.726281166E0,-1.625691652E0
7.952968750E0,2.293386698E0,9.591277122E0,-1.550523281E0
7.956945313E0,2.183981180E0,9.472716331E0,-1.481388330E0
7.960909375E0,2.146737099E0,9.388382912E0,-1.493905306E0
7.964881250E0,2.137188911E0,9.338038445E0,-1.590113878E0
7.968850000E0,2.118073702E0,9.281716347E0,-1.708100080E0
7.972820313E0,2.060746908E0,9.210043907E0,-1.763358235E0
7.976792188E0,1.965371490E0,9.144634247E0,-1.831976056E0
7.980762500E0,1.862047195E0,9.084117889E0,-1.778077841E0
7.984732813E0,1.701195240E0,9.029607773E0,-1.722005606E0
7.988703125E0,1.635086536E0,9.020920753E0,-1.803485155E0
7.992673438E0,1.526619673E0,9.036138535E0,-1.898678541E0
7.996643750E0,1.424980998E0,9.096261978E0,-1.978453398E0
8.000615625E0,1.386836529E0,9.159650803E0,-2.105623722E0
8.004585938E0,1.303010702E0,9.244750023E0,-2.216542244E0
8.008554688E0,1.176127672E0,9.363722801E0,-2.335505486E0
8.012526563E0,1.026672006E0,9.459462166E0,-2.424148321E0
8.016496875E0,8.968200684E-1,9.553459167E0,-2.398080349E0
8.020467188E0,8.796967268E-1,9.650778770E0,-2.452878952E0
8.024439063E0,8.984289765E-1,9.746163368E0,-2.599786997E0
8.028410938E0,8.538776636E-1,9.854984283E0,-2.685489655E0
8.032378125E0,8.165664077E-1,9.959936142E0,-2.915553570E0
8.036350000E0,7.751754522E-1,1.005444050E1,-3.038270712E0
8.040320313E0,7.612603903E-1,1.010850239E1,-3.020620584E0
8.044290625E0,7.734420896E-1,1.012710953E1,-2.951226950E0
8.048260938E0,7.307390571E-1,1.018995190E1,-2.994054794E0
8.052231250E0,6.968946457E-1,1.024638844E1,-3.102119207E0
8.056203125E0,6.746860147E-1,1.029877377E1,-3.184134960E0
8.060173438E0,6.786699891E-1,1.034815121E1,-3.161227226E0
8.064143750E0,6.278841496E-1,1.039962673E1,-3.175937176E0
8.068114063E0,5.663340688E-1,1.047695065E1,-3.217021704E0
8.072084375E0,4.726824760E-1,1.055631351E1,-3.255060673E0
8.076054688E0,3.577415943E-1,1.065664005E1,-3.301067829E0
8.080025000E0,2.586025000E-1,1.073504448E1,-3.311104298E0
8.083996875E0,1.135713533E-1,1.082361126E1,-3.296633720E0
8.087965625E0,-6.313031167E-2,1.094155979E1,-3.347113132E0
8.091937500E0,-2.131414115E-1,1.100844383E1,-3.393311739E0
8.095907813E0,-3.473891020E-1,1.104498863E1,-3.321188688E0
8.099878125E0,-4.766759872E-1,1.106789684E1,-3.286846161E0
8.103848438E0,-5.706340075E-1,1.110987186E1,-3.239766598E0
8.107818750E0,-6.604357362E-1,1.114474106E1,-3.216763258E0
8.111789063E0,-7.283545136E-1,1.117443848E1,-3.245905399E0
8.115760938E0,-7.388123274E-1,1.120640659E1,-3.251469374E0
8.119731250E0,-6.947782040E-1,1.118660069E1,-3.263373613E0
8.123701563E0,-6.111630797E-1,1.120073605E1,-3.296116590E0
8.127671875E0,-4.883405566E-1,1.125902081E1,-3.372424603E0
8.131642188E0,-3.572531939E-1,1.136404037E1,-3.461134434E0
8.135612500E0,-2.444384098E-1,1.149213982E1,-3.608636379E0
8.139584375E0,-1.266149580E-1,1.158044720E1,-3.756703615E0
8.143554688E0,2.580949478E-2,1.166795063E1,-3.904655695E0
8.147523438E0,8.347144723E-2,1.179152966E1,-4.054791451E0
8.151495313E0,1.477126628E-1,1.187946415E1,-4.188550472E0
8.155465625E0,1.893334687E-1,1.197115231E1,-4.273496628E0
8.159435938E0,2.001456916E-1,1.205663490E1,-4.369782448E0
8.163406250E0,2.353979200E-1,1.211731339E1,-4.409133434E0
8.167376563E0,3.229682446E-1,1.221794605E1,-4.452305317E0
8.171346875E0,4.514698088E-1,1.232661438E1,-4.528986931E0
8.175318750E0,6.872699857E-1,1.244352818E1,-4.570118904E0
8.179287500E0,9.767289162E-1,1.254049301E1,-4.552899837E0
8.183259375E0,1.470020652E0,1.264576149E1,-4.530097485E0
8.187229688E0,1.956369281E0,1.273906803E1,-4.387939453E0
8.191200000E0,2.292381048E0,1.284849358E1,-4.185601234E0
8.195170313E0,2.711643934E0,1.292164040E1,-3.874431133E0
8.199140625E0,3.107012987E0,1.299801540E1,-3.429492950E0
8.203110938E0,3.392114401E0,1.305274677E1,-3.050433397E0
