"Time (s)","Acceleration x (m/s^2)","Acceleration y (m/s^2)","Acceleration z (m/s^2)"
0.000000000E0,-2.143325806E0,4.827636719E0,5.920333862E0
3.875733000E-3,-2.241485596E0,4.873123169E0,6.188491821E0
7.873536000E-3,-2.294158936E0,4.887481689E0,6.530868530E0
1.190185600E-2,-2.296554565E0,4.868331909E0,6.916320801E0
1.593017600E-2,-2.229507446E0,4.834808350E0,7.311370850E0
1.995849600E-2,-2.116989136E0,4.803680420E0,7.680084229E0
2.398681700E-2,-1.956573486E0,4.789321899E0,7.974563599E0
2.801513700E-2,-1.784194946E0,4.791717529E0,8.199615479E0
3.201294000E-2,-1.611801147E0,4.798904419E0,8.367218018E0
3.604126000E-2,-1.460968018E0,4.813262939E0,8.482131958E0
4.006958000E-2,-1.355621338E0,4.834808350E0,8.570724487E0
4.409790100E-2,-1.314926147E0,4.853973389E0,8.647338867E0
4.812622100E-2,-1.362808228E0,4.885086060E0,8.709579468E0
5.212402400E-2,-1.425064087E0,4.894668579E0,8.731140137E0
5.615234400E-2,-1.499282837E0,4.873123169E0,8.723953247E0
6.018066400E-2,-1.599838257E0,4.837203979E0,8.697616577E0
6.420898500E-2,-1.693206787E0,4.774963379E0,8.656906128E0
6.820678700E-2,-1.779403687E0,4.693557739E0,8.592269897E0
7.223510800E-2,-1.844039917E0,4.597793579E0,8.520446777E0
7.626342800E-2,-1.884750366E0,4.504409790E0,8.427062988E0
8.029174800E-2,-1.915863037E0,4.418228149E0,8.321731567E0
8.428955100E-2,-1.932632446E0,4.351181030E0,8.202011108E0
8.831787100E-2,-1.927841187E0,4.317657471E0,8.079910278E0
9.234619200E-2,-1.925445557E0,4.315277100E0,7.955413818E0
9.634399500E-2,-1.908691406E0,4.341613770E0,7.823730469E0
1.003723150E-1,-1.899108887E0,4.387100220E0,7.696838379E0
1.044006350E-1,-1.899108887E0,4.439773560E0,7.596282959E0
1.084289550E-1,-1.903900146E0,4.487655640E0,7.510086060E0
1.124267580E-1,-1.899108887E0,4.530746460E0,7.435867310E0
1.164550790E-1,-1.884750366E0,4.576232910E0,7.376007080E0
1.204833990E-1,-1.853622437E0,4.597793579E0,7.340103149E0
1.244812020E-1,-1.834472656E0,4.612152100E0,7.313766479E0
1.285095220E-1,-1.817703247E0,4.609756470E0,7.304183960E0
1.325378420E-1,-1.793762207E0,4.607360840E0,7.332916260E0
1.365356450E-1,-1.753067017E0,4.593002319E0,7.402343750E0
1.405639650E-1,-1.726730347E0,4.583419800E0,7.507690430E0
1.445922860E-1,-1.717147827E0,4.585815430E0,7.646560669E0
1.486206060E-1,-1.717147827E0,4.595397949E0,7.802185059E0
1.526184090E-1,-1.719543457E0,4.619338989E0,7.955413818E0
1.566467290E-1,-1.693206787E0,4.657638550E0,8.108642578E0
1.606750490E-1,-1.686019897E0,4.693557739E0,8.235534668E0
1.646728520E-1,-1.686019897E0,4.727066040E0,8.343276978E0
1.687011720E-1,-1.702789307E0,4.739044189E0,8.417495728E0
1.727294930E-1,-1.721939087E0,4.719894409E0,8.446228027E0
1.767272950E-1,-1.755462646E0,4.688766479E0,8.427062988E0
1.807556160E-1,-1.779403687E0,4.645675659E0,8.357635498E0
1.847839360E-1,-1.827285767E0,4.595397949E0,8.257080078E0
1.887817390E-1,-1.882354736E0,4.540328979E0,8.125396729E0
1.928100590E-1,-1.961364746E0,4.492446899E0,7.986541748E0
1.968383790E-1,-2.049942017E0,4.454132080E0,7.847671509E0
2.008361820E-1,-2.121765137E0,4.434982300E0,7.723175049E0
2.048645020E-1,-2.198379517E0,4.418228149E0,7.629806519E0
2.088928230E-1,-2.253448486E0,4.408645630E0,7.553192139E0
2.128906250E-1,-2.294158936E0,4.413436890E0,7.498123169E0
2.169189460E-1,-2.318099976E0,4.413436890E0,7.455017090E0
2.209472660E-1,-2.315704346E0,4.418228149E0,7.433471680E0
2.249450690E-1,-2.298934937E0,4.442169189E0,7.438262939E0
2.289733890E-1,-2.263031006E0,4.487655640E0,7.440658569E0
2.330017090E-1,-2.210357666E0,4.537933350E0,7.500518799E0
2.369995120E-1,-2.136138916E0,4.581024170E0,7.584304810E0
2.410278320E-1,-2.064315796E0,4.616943359E0,7.692047119E0
2.450561530E-1,-1.982910156E0,4.655242920E0,7.799789429E0
2.490539550E-1,-1.894317627E0,4.700744629E0,7.890762329E0
2.530822760E-1,-1.817703247E0,4.736648560E0,7.943435669E0
2.571105960E-1,-1.743484497E0,4.782135010E0,7.969772339E0
2.611083990E-1,-1.707580566E0,4.825241089E0,7.972167969E0
2.651367190E-1,-1.693206787E0,4.846786499E0,7.948226929E0
2.691650390E-1,-1.690811157E0,4.877914429E0,7.900344849E0
2.731628420E-1,-1.681243896E0,4.923400879E0,7.828521729E0
2.771911620E-1,-1.688415527E0,4.968887329E0,7.713592529E0
2.812194830E-1,-1.690811157E0,4.997619629E0,7.610641479E0
2.852172860E-1,-1.726730347E0,4.992828369E0,7.495727539E0
2.892456060E-1,-1.774612427E0,4.971282959E0,7.390380859E0
2.932434090E-1,-1.841644287E0,4.937759399E0,7.320953369E0
2.972717290E-1,-1.949386597E0,4.880294800E0,7.294616699E0
3.013000490E-1,-2.064315796E0,4.808471680E0,7.277847290E0
3.052978520E-1,-2.186416626E0,4.731857300E0,7.287429810E0
3.093261720E-1,-2.282180786E0,4.657638550E0,7.320953369E0
3.133544930E-1,-2.361190796E0,4.578628540E0,7.332916260E0
3.173522950E-1,-2.440200806E0,4.497222900E0,7.320953369E0
3.213806160E-1,-2.495269775E0,4.449340820E0,7.263488770E0
3.254089360E-1,-2.514419556E0,4.418228149E0,7.119842529E0
3.294067390E-1,-2.526397705E0,4.427795410E0,6.813369751E0
3.334350590E-1,-2.528793335E0,4.494842529E0,6.346511841E0
3.374633790E-1,-2.545547485E0,4.607360840E0,5.817382812E0
3.414611820E-1,-2.552734375E0,4.731857300E0,5.336151123E0
3.454895020E-1,-2.557510376E0,4.851577759E0,4.977020264E0
3.495178230E-1,-2.562301636E0,4.956924438E0,4.766342163E0
3.535156250E-1,-2.516815186E0,5.028747559E0,4.713668823E0
3.575439460E-1,-2.370773315E0,5.100570679E0,4.775909424E0
3.615722660E-1,-2.116989136E0,5.174789429E0,4.828582764E0
3.655700690E-1,-1.788970947E0,5.277740479E0,4.900405884E0
3.695983890E-1,-1.405899048E0,5.387878418E0,4.984207153E0
3.735961920E-1,-1.046768188E0,5.462097168E0,5.147018433E0
3.776245120E-1,-7.211608887E-1,5.500396729E0,5.352920532E0
3.816528320E-1,-4.314575195E-1,5.509979248E0,5.556427002E0
3.856506350E-1,-1.657104492E-1,5.481246948E0,5.724014282E0
3.896789550E-1,3.300476074E-2,5.435760498E0,5.865280151E0
3.937072760E-1,1.072235107E-1,5.363937378E0,6.052017212E0
3.977050790E-1,1.072235107E-1,5.241821289E0,6.351303101E0
4.017333990E-1,1.144104004E-1,5.098175049E0,6.736755371E0
4.057617190E-1,1.503295898E-1,4.913818359E0,7.167724609E0
4.097595220E-1,1.646881104E-1,4.679183960E0,7.627410889E0
4.137878420E-1,1.551208496E-1,4.403854370E0,8.043991089E0
4.178161620E-1,4.498291016E-2,4.063873291E0,8.400726318E0
4.218139650E-1,-1.513366699E-1,3.673629761E0,8.666488647E0
4.258422860E-1,-4.386444092E-1,3.242675781E0,8.841262817E0
4.298706060E-1,-7.977752686E-1,2.809310913E0,8.932250977E0
4.338684090E-1,-1.164093018E0,2.414276123E0,8.901123047E0
4.378967290E-1,-1.482513428E0,2.100631714E0,8.673675537E0
4.418945320E-1,-1.738693237E0,1.887542725E0,8.230743408E0
4.459228520E-1,-1.939819336E0,1.775024414E0,7.718383789E0
4.499511720E-1,-1.863204956E0,1.767837524E0,7.474182129E0
4.539489750E-1,-1.884750366E0,1.305755615E0,7.648956299E0
4.579772950E-1,-1.551956177E0,1.492507935E0,7.565155029E0
4.620056160E-1,-7.977752686E-1,2.093444824E0,7.330520630E0
4.660034180E-1,2.844085693E-1,2.842834473E0,7.028854370E0
4.700317390E-1,1.728103638E0,3.477294922E0,6.849288940E0
4.740600590E-1,3.217300415E0,3.865158081E0,6.810989380E0
4.780578620E-1,3.835006714E0,4.023178101E0,6.561981201E0
4.820861820E-1,3.269973755E0,4.047119141E0,6.097503662E0
4.861145020E-1,2.511001587E0,4.054306030E0,5.597122192E0
4.901123050E-1,2.230880737E0,4.006423950E0,5.321792603E0
4.941406250E-1,2.544525146E0,3.774185181E0,5.381637573E0
4.981689460E-1,3.097595215E0,3.312103271E0,5.872451782E0
5.021667480E-1,3.066467285E0,2.759033203E0,6.233978271E0
5.061950690E-1,2.714523315E0,2.337661743E0,6.207641602E0
5.102233890E-1,2.482284546E0,2.021621704E0,6.413543701E0
5.142211920E-1,2.578048706E0,1.825302124E0,7.210815430E0
5.182495120E-1,2.827041626E0,1.698410034E0,8.395950317E0
5.222473150E-1,2.951538086E0,1.600250244E0,9.619384766E0
5.262756350E-1,2.853378296E0,1.502090454E0,1.054115295E1
5.303039550E-1,2.688186646E0,1.482925415E0,1.101998901E1
5.343017580E-1,2.628326416E0,1.712768555E0,1.114208984E1
5.383300790E-1,2.805496216E0,2.050354004E0,1.103434753E1
5.423583990E-1,3.193359375E0,2.416671753E0,1.072789001E1
5.463562020E-1,3.566848755E0,2.648910522E0,1.034004211E1
5.503845220E-1,3.851760864E0,2.720733643E0,9.930633545E0
5.544128420E-1,4.000198364E0,2.617782593E0,9.571502686E0
5.584106450E-1,4.016967773E0,2.337661743E0,9.327285767E0
5.624389650E-1,3.851760864E0,1.911499023E0,9.269821167E0
5.664672860E-1,3.602767944E0,1.480529785E0,9.356018066E0
5.704650880E-1,3.406433105E0,1.114227295E0,9.566711426E0
5.744934090E-1,3.286727905E0,7.981872559E-1,9.846832275E0
5.785217290E-1,3.183776855E0,4.917297363E-1,1.011019897E1
5.825195320E-1,3.047317505E0,1.637268066E-1,1.035919189E1
5.865478520E-1,2.886901855E0,-1.762542725E-1,1.058903503E1
5.905456550E-1,2.640289307E0,-5.425720215E-1,1.072071838E1
5.945739750E-1,2.460723877E0,-7.652282715E-1,1.079254150E1
5.986022950E-1,2.187789917E0,-8.753662109E-1,1.050283813E1
6.026000980E-1,1.754440308E0,-1.002258301E0,9.542770386E0
6.066284180E-1,1.266021729E0,-1.078872681E0,8.340881348E0
6.106567390E-1,1.021820068E0,-9.806976318E-1,6.717605591E0
6.146545410E-1,1.052932739E0,-7.771911621E-1,5.166168213E0
6.186828620E-1,1.177444458E0,-6.311492920E-1,3.973846436E0
6.227111820E-1,1.419250488E0,-4.970703125E-1,3.109542847E0
6.267089850E-1,1.876541138E0,-2.744140625E-1,2.508605957E0
6.307373050E-1,2.465515137E0,1.289367676E-2,2.103988647E0
6.347656250E-1,3.018585205E0,2.283630371E-1,1.869354248E0
6.387634280E-1,3.487838745E0,3.289184570E-1,1.775970459E0
6.427917480E-1,3.954711914E0,3.241424561E-1,1.799911499E0
6.468200690E-1,4.301864624E0,1.254119873E-1,1.989059448E0
6.508178710E-1,4.613113403E0,-2.025909424E-1,2.369735718E0
6.548461920E-1,4.902816772E0,-5.856628418E-1,2.918014526E0
6.588745120E-1,5.254760742E0,-9.208526611E-1,3.463882446E0
6.628723150E-1,5.752761841E0,-1.150695801E0,3.928359985E0
6.669006350E-1,6.140625000E0,-1.366165161E0,4.239608765E0
6.708984380E-1,6.267517090E0,-1.641510010E0,4.407211304E0
6.749267580E-1,6.047241211E0,-2.007812500E0,4.560440063E0
6.789550790E-1,5.288284302E0,-2.510604858E0,4.854919434E0
6.829528810E-1,4.076812744E0,-3.046905518E0,5.489379883E0
6.869812020E-1,2.906051636E0,-3.497009277E0,6.698455811E0
6.910095220E-1,1.862182617E0,-3.599960327E0,9.674453735E0
6.950073250E-1,9.308319092E-1,-3.286315918E0,1.379725647E1
6.990356450E-1,6.794433594E-1,-2.668609619E0,1.584191895E1
7.030639650E-1,1.096038818E0,-2.089218140E0,1.602626038E1
7.070617680E-1,1.773590088E0,-1.715728760E0,1.558811951E1
7.110900880E-1,2.537338257E0,-1.540939331E0,1.483634949E1
7.151184090E-1,3.253204346E0,-1.526580811E0,1.383557129E1
7.191162110E-1,3.576431274E0,-1.708541870E0,1.269114685E1
7.231445320E-1,2.944366455E0,-2.117950439E0,1.163290405E1
7.271728520E-1,2.262008667E0,-2.472290039E0,1.073747253E1
7.311706550E-1,2.415237427E0,-2.620727539E0,9.906692505E0
7.351989750E-1,3.688949585E0,-2.594390869E0,9.121383667E0
7.391967780E-1,5.276306152E0,-2.362152100E0,8.202011108E0
7.432250980E-1,6.834930420E0,-2.046127319E0,7.057586670E0
7.472534180E-1,8.225967407E0,-1.842620850E0,5.621063232E0
7.512512210E-1,9.296173096E0,-1.751632690E0,3.899627686E0
7.552795410E-1,1.010781860E1,-1.811492920E0,1.955535889E0
7.593078620E-1,1.076861572E1,-1.974304199E0,1.000366211E-1
7.633056640E-1,1.129533386E1,-2.287933350E0,-1.252685547E0
7.673339850E-1,1.132167053E1,-2.649459839E0,-1.947006226E0
7.713623050E-1,1.033766174E1,-2.843399048E0,-2.090652466E0
7.753601080E-1,8.249908447E0,-2.881698608E0,-1.810531616E0
7.793884280E-1,5.793457031E0,-2.917617798E0,-1.281417847E0
7.834167480E-1,3.590789795E0,-3.097183228E0,-6.900482178E-1
7.874145510E-1,2.010620117E0,-3.422790527E0,-1.705169678E-1
7.914428710E-1,1.160675049E0,-3.774734497E0,4.040985107E-1
7.954711920E-1,9.428100586E-1,-4.071624756E0,1.038558960E0
7.994689950E-1,1.153503418E0,-4.265548706E0,1.831039429E0
8.034973150E-1,1.579666138E0,-4.418777466E0,2.752807617E0
8.074951180E-1,2.020202637E0,-4.648620605E0,3.684158325E0
8.115234380E-1,2.281158447E0,-5.108306885E0,4.483825684E0
8.155517580E-1,2.252441406E0,-5.922332764E0,5.029693604E0
8.195495610E-1,2.137512207E0,-6.860870361E0,5.585159302E0
8.235778810E-1,2.307495117E0,-7.468994141E0,6.403961182E0
8.276062020E-1,2.719299316E0,-7.658126831E0,7.543609619E0
8.316040040E-1,3.080825806E0,-7.543212891E0,8.922668457E0
8.356323250E-1,3.305877686E0,-7.298995972E0,1.034004211E1
8.396606450E-1,3.444747925E0,-7.057189941E0,1.152276611E1
8.436584480E-1,3.571640015E0,-6.863250732E0,1.228413391E1
8.476867680E-1,3.808670044E0,-6.760299683E0,1.251875305E1
8.517150880E-1,4.172592163E0,-6.731582642E0,1.231047058E1
8.557128910E-1,4.637054443E0,-6.789031982E0,1.188429260E1
8.597412110E-1,5.041687012E0,-6.949447632E0,1.093379211E1
8.637695320E-1,5.328979492E0,-7.138595581E0,9.516433716E0
8.677673340E-1,5.463058472E0,-7.277450562E0,7.814147949E0
8.717956550E-1,5.532485962E0,-7.354064941E0,6.164550781E0
8.757934570E-1,5.604324341E0,-7.308578491E0,4.799850464E0
8.798217780E-1,5.642623901E0,-7.126617432E0,3.772735596E0
8.838500980E-1,5.573196411E0,-6.844100952E0,2.817459106E0
8.878479010E-1,5.388839722E0,-6.666931152E0,1.483886719E0
8.918762210E-1,5.182937622E0,-6.499343872E0,5.836639404E-1
8.959045410E-1,5.044067383E0,-6.379623413E0,-2.206420898E-2
8.999023440E-1,5.084777832E0,-6.250335693E0,-4.697875977E-1
9.039306640E-1,5.319412231E0,-6.073165894E0,-6.565399170E-1
9.079589850E-1,5.685714722E0,-5.824172974E0,-7.355346680E-1
9.119567870E-1,6.126251221E0,-5.709259033E0,-5.870971680E-1
9.159851080E-1,6.468627930E0,-5.855300903E0,-1.776885986E-1
9.200134280E-1,6.617065430E0,-6.307800293E0,5.046539307E-1
9.240112310E-1,6.700866699E0,-6.860870361E0,1.500640869E0
9.280395510E-1,6.643402100E0,-7.452224731E0,2.429595947E0
9.320678710E-1,6.473419189E0,-8.045989990E0,3.152648926E0
9.360656740E-1,6.351303101E0,-8.560745239E0,4.016952515E0
9.400939950E-1,6.188507080E0,-8.970153809E0,4.550857544E0
9.441223150E-1,6.099914551E0,-9.319702148E0,4.751968384E0
9.481201180E-1,6.183715820E0,-9.611801147E0,4.943511963E0
9.521484380E-1,6.482986450E0,-9.875167847E0,4.931533813E0
9.561462410E-1,6.894790649E0,-1.014810181E1,4.854919434E0
9.601745610E-1,7.318572998E0,-1.030612183E1,4.888442993E0
9.642028810E-1,7.737548828E0,-1.029414368E1,5.008148193E0
9.682006840E-1,8.182876587E0,-1.015768433E1,5.130249023E0
9.722290040E-1,8.731140137E0,-9.925445557E0,5.204467773E0
9.762573250E-1,9.435043335E0,-9.587860107E0,5.235595703E0
9.802551270E-1,1.024188232E1,-9.161697388E0,5.185317993E0
9.842834480E-1,1.107267761E1,-8.651733398E0,5.058425903E0
9.883117680E-1,1.184361267E1,-8.098663330E0,4.881256104E0
9.923095710E-1,1.255708313E1,-7.564758301E0,4.680145264E0
9.963378910E-1,1.320352173E1,-7.081130981E0,4.502975464E0
1.000366211E0,1.376136780E1,-6.724395752E0,4.431152344E0
1.004364014E0,1.415161133E1,-6.556793213E0,4.524520874E0
1.008392334E0,1.429527283E1,-6.563980103E0,4.881256104E0
1.012420655E0,1.409176636E1,-6.745941162E0,5.391220093E0
1.016418457E0,1.357461548E1,-7.088317871E0,6.008926392E0
1.020446778E0,1.289466858E1,-7.607849121E0,6.696060181E0
1.024444580E0,1.224104309E1,-8.290206909E0,7.433471680E0
1.028472901E0,1.170474243E1,-9.068313599E0,8.249893188E0
1.032501221E0,1.139109802E1,-9.731506348E0,8.872390747E0
1.036499024E0,1.118998718E1,-1.027259827E1,9.188430786E0
1.040527344E0,1.102239990E1,-1.069638062E1,9.190826416E0
1.044555664E0,1.088592529E1,-1.110099792E1,8.944213867E0
1.048553467E0,1.070156860E1,-1.129971313E1,8.836471558E0
1.052581787E0,1.047172546E1,-1.127098083E1,8.656906128E0
1.056610108E0,1.027540588E1,-1.089270020E1,8.621002197E0
1.060607911E0,9.798965454E0,-1.058384705E1,8.556350708E0
1.064636231E0,9.061538696E0,-1.042343140E1,8.415100098E0
1.068664551E0,8.350463867E0,-1.014091492E1,8.221160889E0
1.072662354E0,7.809371948E0,-9.765029907E0,8.075119019E0
1.076690674E0,7.457427979E0,-9.338867188E0,8.015274048E0
1.080718995E0,7.359268188E0,-8.871994019E0,7.950622559E0
1.084716797E0,7.459823608E0,-8.421890259E0,7.866821289E0
1.088745118E0,7.682479858E0,-8.012481689E0,7.823730469E0
1.092773438E0,7.974578857E0,-7.677291870E0,7.787811279E0
1.096771241E0,8.209213257E0,-7.476165771E0,7.476577759E0
1.100799561E0,8.350463867E0,-7.471389771E0,6.916320801E0
1.104797364E0,8.515670776E0,-7.706008911E0,6.389602661E0
1.108825684E0,8.786209106E0,-8.110641479E0,6.195678711E0
1.112854004E0,8.999298096E0,-8.611022949E0,6.954635620E0
1.116851807E0,9.032821655E0,-9.109024048E0,9.075897217E0
1.120880127E0,9.087875366E0,-9.504058838E0,1.162571716E1
1.124908448E0,9.346450806E0,-9.793762207E0,1.302873230E1
1.128906250E0,9.696014404E0,-1.003556824E1,1.351475525E1
1.132934571E0,9.997680664E0,-1.027020264E1,1.383557129E1
1.136962891E0,1.018681335E1,-1.049765015E1,1.405343628E1
1.140960694E0,1.021075439E1,-1.070355225E1,1.398880005E1
1.144989014E0,1.013414001E1,-1.083283997E1,1.353630066E1
1.149017334E0,9.983306885E0,-1.085200500E1,1.271748352E1
1.153015137E0,9.772628784E0,-1.076341248E1,1.162094116E1
1.157043457E0,9.475738525E0,-1.064131165E1,1.039509583E1
1.161071778E0,9.123794556E0,-1.049765015E1,9.171661377E0
1.165069580E0,8.862823486E0,-1.035400391E1,8.070327759E0
1.169097901E0,8.649749756E0,-1.018641663E1,7.119842529E0
1.173095704E0,8.565948486E0,-9.930236816E0,6.324966431E0
1.177124024E0,8.616226196E0,-9.575881958E0,5.743164062E0
1.181152344E0,8.733535767E0,-9.152114868E0,5.443893433E0
1.185150147E0,8.862823486E0,-8.716369629E0,5.494171143E0
1.189178467E0,8.913101196E0,-8.357238770E0,5.903579712E0
1.193206787E0,8.793395996E0,-8.141754150E0,6.573959351E0
1.197204590E0,8.261886597E0,-8.496109009E0,7.421508789E0
1.201232911E0,7.771072388E0,-8.864807129E0,8.252288818E0
1.205261231E0,7.438278198E0,-9.094650269E0,9.075897217E0
1.209259034E0,7.103088379E0,-9.341262817E0,9.779800415E0
1.213287354E0,6.629043579E0,-9.585464478E0,1.019877625E1
1.217315674E0,6.049636841E0,-9.812911987E0,1.032566833E1
1.221313477E0,5.482208252E0,-1.007388306E1,1.031848145E1
1.225341797E0,4.886062622E0,-1.044497681E1,1.031130981E1
1.229370118E0,4.242019653E0,-1.088311768E1,1.032806396E1
1.233367920E0,3.590789795E0,-1.134999084E1,1.030891418E1
1.237396241E0,2.913238525E0,-1.180009460E1,1.013414001E1
1.241424561E0,2.238067627E0,-1.220233154E1,9.695999146E0
1.245422364E0,1.771194458E0,-1.245132446E1,8.956192017E0
1.249450684E0,1.658676147E0,-1.244413757E1,7.972167969E0
1.253448487E0,1.912460327E0,-1.213768005E1,6.557205200E0
1.257476807E0,2.649871826E0,-1.144096375E1,4.273132324E0
1.261505127E0,3.650650024E0,-1.064848328E1,2.068069458E0
1.265502930E0,4.656219482E0,-9.841644287E0,1.239776611E-1
1.269531250E0,4.625091553E0,-9.125778198E0,-8.097686768E-1
1.273559571E0,3.894851685E0,-8.771438599E0,-8.241271973E-1
1.277557373E0,3.609954834E0,-8.527221680E0,-6.158294678E-1
1.281585694E0,4.548477173E0,-8.045989990E0,-1.449020386E0
1.285614014E0,5.786270142E0,-7.437866211E0,-2.729904175E0
1.289611817E0,6.217239380E0,-7.002120972E0,-3.522384644E0
1.293640137E0,5.716842651E0,-6.863250732E0,-3.493667603E0
1.297668457E0,4.771133423E0,-7.083526611E0,-2.935806274E0
1.301666260E0,3.933166504E0,-7.600677490E0,-2.490493774E0
1.305694580E0,3.662612915E0,-8.199218750E0,-2.401901245E0
1.309722901E0,3.849365234E0,-8.723556519E0,-2.284591675E0
1.313720704E0,3.928375244E0,-9.173660278E0,-1.913482666E0
1.317749024E0,3.811065674E0,-9.504058838E0,-1.216781616E0
1.321746827E0,3.509384155E0,-9.865585327E0,-1.249694824E-2
1.325775147E0,3.059280396E0,-1.039709473E1,1.198974609E0
1.329803467E0,2.601989746E0,-1.112973022E1,1.723297119E0
1.333801270E0,2.678604126E0,-1.185516357E1,1.395294189E0
1.337829590E0,3.222091675E0,-1.237710571E1,1.014617920E0
1.341857911E0,3.775146484E0,-1.259019470E1,9.619445801E-1
1.345855713E0,3.937957764E0,-1.250160217E1,1.244461060E0
1.349884034E0,3.504608154E0,-1.231964111E1,1.735275269E0
1.353912354E0,2.922805786E0,-1.207783508E1,2.063278198E0
1.357910157E0,2.475097656E0,-1.174264526E1,1.993850708E0
1.361938477E0,2.352996826E0,-1.128773499E1,1.661056519E0
1.365966797E0,2.386505127E0,-1.099804688E1,1.404876709E0
1.369964600E0,2.745635986E0,-1.070355225E1,1.208557129E0
1.373992920E0,3.255599976E0,-1.031568909E1,1.189392090E0
1.378021241E0,3.621917725E0,-9.927841187E0,1.258834839E0
1.382019043E0,3.904434204E0,-9.621383667E0,1.421630859E0
1.386047364E0,4.086395264E0,-9.425048828E0,1.711334229E0
1.390075684E0,4.048080444E0,-9.365203857E0,2.125534058E0
1.394073487E0,3.751205444E0,-9.465759277E0,2.604370117E0
1.398101807E0,3.327438354E0,-9.690811157E0,3.020965576E0
1.402099610E0,2.623535156E0,-1.025344849E1,3.219680786E0
1.406127930E0,1.380950928E0,-1.139308167E1,3.001800537E0
1.410156250E0,2.104187012E-2,-1.258061218E1,2.762390137E0
1.414154053E0,-9.701538086E-1,-1.341139221E1,3.109542847E0
1.418182373E0,-1.559127808E0,-1.371784973E1,4.110321045E0
1.422210694E0,-1.978118896E0,-1.369630432E1,5.127853394E0
1.426208496E0,-1.958969116E0,-1.351913452E1,5.776687622E0
1.430236817E0,-1.422668457E0,-1.309057617E1,5.915557861E0
1.434265137E0,-6.014556885E-1,-1.242259216E1,5.283477783E0
1.438262940E0,-1.417694092E-1,-1.189587402E1,4.622680664E0
1.442291260E0,-5.391998291E-1,-1.193656921E1,4.531707764E0
1.446319580E0,-9.605865479E-1,-1.277932739E1,5.039276123E0
1.450317383E0,-9.533996582E-1,-1.276736450E1,5.458251953E0
1.454345704E0,-7.427062988E-1,-1.177375793E1,6.176513672E0
1.458374024E0,-7.951354980E-2,-1.058863831E1,6.312988281E0
1.462371827E0,1.000274658E0,-9.420257568E0,4.862106323E0
1.466400147E0,2.211730957E0,-8.223159790E0,2.443954468E0
1.470397950E0,3.111953735E0,-7.143371582E0,4.280395508E-1
1.474426270E0,3.332214355E0,-6.453842163E0,9.284973145E-2
1.478454590E0,3.291519165E0,-6.070770264E0,5.405731201E-1
1.482452393E0,2.817474365E0,-6.025283813E0,1.055328369E0
1.486480713E0,2.290740967E0,-6.027679443E0,1.594024658E0
1.490509034E0,2.005828857E0,-6.058807373E0,2.752807617E0
1.494506836E0,2.017807007E0,-6.111480713E0,4.790283203E0
1.498535157E0,2.396087646E0,-6.147384644E0,7.234756470E0
1.502563477E0,2.992248535E0,-6.039657593E0,8.901123047E0
1.506561280E0,3.528549194E0,-5.872055054E0,9.262649536E0
1.510589600E0,3.818237305E0,-5.687698364E0,8.606628418E0
1.514617920E0,3.949920654E0,-5.544052124E0,7.297012329E0
1.518615723E0,4.184555054E0,-5.201675415E0,5.317001343E0
1.522644043E0,4.014572144E0,-5.038879395E0,5.091949463E0
1.526672364E0,3.229263306E0,-5.132247925E0,4.148635864E0
1.530670166E0,1.957946777E0,-5.587142944E0,3.645843506E0
1.534698487E0,5.860748291E-1,-6.202453613E0,3.497406006E0
1.538726807E0,-5.751190186E-1,-6.820159912E0,3.044906616E0
1.542724610E0,-1.360412598E0,-7.404342651E0,2.700134277E0
1.546752930E0,-1.856018066E0,-7.832916260E0,2.786331177E0
1.550750733E0,-2.057128906E0,-7.976562500E0,3.205322266E0
1.554779053E0,-2.061920166E0,-7.832916260E0,3.626693726E0
1.558807373E0,-1.863204956E0,-7.531234741E0,3.909210205E0
1.562805176E0,-1.554351807E0,-7.298995972E0,4.620285034E0
1.566833496E0,-1.099441528E0,-7.100280762E0,5.374465942E0
1.570861817E0,-7.977752686E-1,-6.920715332E0,5.489379883E0
1.574859620E0,-1.018051147E0,-6.824951172E0,5.565994263E0
1.578887940E0,-1.427459717E0,-6.729187012E0,5.568389893E0
1.582916260E0,-1.829681396E0,-6.717208862E0,5.831756592E0
1.586914063E0,-2.026000977E0,-6.803405762E0,6.253128052E0
1.590942383E0,-1.954177856E0,-6.877624512E0,6.633819580E0
1.594970704E0,-1.690811157E0,-6.875228882E0,6.538040161E0
1.598968506E0,-1.305343628E0,-6.640594482E0,6.063995361E0
1.602996827E0,-7.522888184E-1,-6.252731323E0,5.290664673E0
1.607025147E0,-1.920471191E-1,-5.884033203E0,4.517333984E0
1.611022950E0,2.583312988E-2,-5.769104004E0,4.452697754E0
1.615051270E0,-6.994628906E-2,-5.742767334E0,4.811828613E0
1.619049073E0,-2.183837891E-1,-5.709259033E0,5.087158203E0
1.623077393E0,-2.662658691E-1,-5.805023193E0,5.319396973E0
1.627105713E0,-1.848602295E-1,-6.051620483E0,5.501358032E0
1.631103516E0,-9.628295898E-2,-6.396392822E0,5.712051392E0
1.635131836E0,-8.909606934E-2,-6.769882202E0,5.611480713E0
1.639160157E0,-1.728973389E-1,-7.018875122E0,5.309814453E0
1.643157959E0,-2.495117188E-1,-7.234359741E0,5.089553833E0
1.647186280E0,-2.542877197E-1,-7.346893311E0,4.974624634E0
1.651214600E0,-1.465606689E-1,-7.313369751E0,5.108703613E0
1.655212403E0,2.413024902E-1,-6.978179932E0,5.144622803E0
1.659240723E0,7.297210693E-1,-6.494552612E0,5.072799683E0
1.663269043E0,1.024215698E0,-6.231185913E0,4.933929443E0
1.667266846E0,1.115188599E0,-6.295837402E0,4.529312134E0
1.671295166E0,1.050552368E0,-6.645385742E0,4.016952515E0
1.675323487E0,7.919769287E-1,-7.148162842E0,3.899627686E0
1.679321289E0,5.525512695E-1,-7.595886230E0,3.978637695E0
1.683349610E0,3.657989502E-1,-7.854461670E0,4.249191284E0
1.687377930E0,2.676391602E-1,-8.007690430E0,4.680145264E0
1.691375733E0,2.413024902E-1,-8.031631470E0,5.029693604E0
1.695404053E0,3.442535400E-1,-7.983749390E0,5.029693604E0
1.699401856E0,5.381927490E-1,-7.804183960E0,4.677749634E0
1.703430176E0,6.004333496E-1,-7.634185791E0,4.385650635E0
1.707458496E0,5.812835693E-1,-7.413925171E0,4.174972534E0
1.711456299E0,4.950866699E-1,-7.179290771E0,3.995407104E0
1.715484620E0,4.160766602E-1,-6.923110962E0,3.846954346E0
1.719512940E0,4.041137695E-1,-6.563980103E0,3.617111206E0
1.723510743E0,4.663543701E-1,-6.142608643E0,3.363327026E0
1.727539063E0,5.740966797E-1,-5.737976074E0,3.087997437E0
1.731567383E0,5.980377197E-1,-5.520111084E0,3.013778687E0
1.735565186E0,-1.345825195E-1,-5.812210083E0,3.499801636E0
1.739593506E0,-1.073104858E0,-6.245559692E0,3.921188354E0
1.743621827E0,-1.856018066E0,-6.580734253E0,4.119903564E0
1.747619629E0,-2.579071045E0,-6.920715332E0,4.383255005E0
1.751647950E0,-3.381118774E0,-7.442657471E0,4.905197144E0
1.755676270E0,-4.307678223E0,-8.249496460E0,5.779083252E0
1.759674073E0,-5.284515381E0,-9.226333618E0,6.619445801E0
1.763702393E0,-6.129669189E0,-1.027259827E1,7.378402710E0
1.767700196E0,-6.881439209E0,-1.126618958E1,8.405517578E0
1.771728516E0,-7.314788818E0,-1.214247131E1,9.286590576E0
1.775756836E0,-7.333953857E0,-1.268356323E1,9.430236816E0
1.779754639E0,-7.077774048E0,-1.291580200E1,9.391937256E0
1.783782959E0,-6.455276489E0,-1.288227844E1,9.695999146E0
1.787811280E0,-5.318023682E0,-1.239625549E1,9.873168945E0
1.791809082E0,-4.156845093E0,-1.150561523E1,9.358413696E0
1.795837403E0,-3.340423584E0,-1.047850037E1,8.288208008E0
1.799865723E0,-2.875946045E0,-9.518432617E0,7.016891479E0
1.803863526E0,-2.624557495E0,-8.757064819E0,5.886825562E0
1.807891846E0,-2.622161865E0,-8.256683350E0,4.792663574E0
1.811920166E0,-2.662857056E0,-8.060363770E0,3.981033325E0
1.815917969E0,-2.643707275E0,-8.096267700E0,3.691345215E0
1.819946289E0,-2.660461426E0,-8.201614380E0,3.370513916E0
1.823974610E0,-2.653289795E0,-8.306961060E0,3.121520996E0
1.827972412E0,-2.543151855E0,-8.402725220E0,3.011383057E0
1.832000733E0,-2.468933105E0,-8.508071899E0,2.985046387E0
1.836029053E0,-2.437805176E0,-8.613418579E0,2.898864746E0
1.840026856E0,-2.468933105E0,-8.730728149E0,2.685775757E0
1.844055176E0,-2.466537476E0,-8.840866089E0,2.247634888E0
1.848052979E0,-2.454559326E0,-8.886352539E0,1.582046509E0
1.852081299E0,-2.394714355E0,-8.824111938E0,7.704162598E-1
1.856109620E0,-2.315704346E0,-8.795379639E0,-2.423400879E-1
1.860107422E0,-2.337249756E0,-8.781005859E0,-1.695617676E0
1.864135743E0,-2.028396606E0,-9.300552368E0,-5.286926270E0
1.868164063E0,-2.203170776E0,-9.753051758E0,-8.229385376E0
1.872161866E0,-3.081848145E0,-9.518432617E0,-8.995544434E0
1.876190186E0,-4.436965942E0,-8.967758179E0,-8.894973755E0
1.880218506E0,-5.770538330E0,-8.227951050E0,-7.307632446E0
1.884216309E0,-6.467254639E0,-7.322937012E0,-5.186355591E0
1.888244629E0,-6.177551270E0,-6.276672363E0,-3.323669434E0
1.892272950E0,-4.913406372E0,-5.225616455E0,-2.061935425E0
1.896270752E0,-3.045928955E0,-4.074005127E0,-7.475128174E-1
1.900299073E0,-1.065933228E0,-2.924789429E0,1.692184448E0
1.904327393E0,4.879150391E-1,-2.144287109E0,5.680923462E0
1.908325196E0,1.000274658E0,-2.024581909E0,9.669662476E0
1.912353516E0,3.251037598E-1,-2.738052368E0,1.211653137E1
1.916351319E0,-7.570800781E-1,-4.066833496E0,1.405105591E1
1.920379639E0,-1.492095947E0,-5.589538574E0,1.588740540E1
1.924407959E0,-1.741088867E0,-7.073944092E0,1.698634338E1
1.928405762E0,-1.887145996E0,-8.433853149E0,1.694563293E1
1.932434082E0,-2.351608276E0,-9.733901978E0,1.559291077E1
1.936462403E0,-3.232681274E0,-1.086875916E1,1.325617981E1
1.940460205E0,-4.051498413E0,-1.172348022E1,1.121870422E1
1.944488526E0,-4.611740112E0,-1.217359924E1,9.801345825E0
1.948516846E0,-5.033126831E0,-1.248484802E1,8.510864258E0
1.952514649E0,-5.370697021E0,-1.268116760E1,6.990554810E0
1.956542969E0,-5.392257690E0,-1.259257507E1,5.767105103E0
1.960571289E0,-4.882293701E0,-1.216162109E1,4.696899414E0
1.964569092E0,-4.092193604E0,-1.150082397E1,3.334594727E0
1.968597412E0,-3.345214844E0,-1.080650330E1,2.108764648E0
1.972625733E0,-2.626953125E0,-1.016246033E1,1.203765869E0
1.976623536E0,-1.834472656E0,-9.549545288E0,4.471893311E-1
1.980651856E0,-9.533996582E-1,-8.929458618E0,-5.080871582E-1
1.984680176E0,-1.633148193E-1,-8.323715210E0,-1.638153076E0
1.988677979E0,4.280548096E-1,-7.725173950E0,-2.648513794E0
1.992706299E0,6.459197998E-1,-7.275054932E0,-3.168045044E0
1.996704102E0,-1.417694092E-1,-7.631790161E0,-2.679626465E0
2.000732422E0,-1.271835327E0,-8.254287720E0,-2.677246094E0
2.004760743E0,-1.966156006E0,-8.687637329E0,-3.311706543E0
2.008758545E0,-2.564697266E0,-9.063522339E0,-3.639709473E0
2.012786866E0,-2.959747314E0,-9.276611328E0,-3.697174072E0
2.016815186E0,-3.213531494E0,-9.295761108E0,-3.658859253E0
2.020812989E0,-3.278167725E0,-9.092254639E0,-3.089035034E0
2.024841309E0,-3.151275635E0,-8.773834229E0,-1.781814575E0
2.028869629E0,-2.866363525E0,-8.510467529E0,-5.368194580E-1
2.032867432E0,-2.433013916E0,-8.409912109E0,3.322753906E-1
2.036895752E0,-1.765029907E0,-8.860015869E0,4.663543701E-1
2.040924073E0,-1.305343628E0,-9.702774048E0,3.298797607E-1
2.044921875E0,-1.240707397E0,-1.051441956E1,4.495849609E-1
2.048950196E0,-1.379562378E0,-1.113690186E1,1.036163330E0
2.052978516E0,-1.410690308E0,-1.154870605E1,1.826248169E0
2.056976319E0,-1.381958008E0,-1.201318359E1,2.125534058E0
2.061004639E0,-1.322113037E0,-1.249920654E1,2.173416138E0
2.065002442E0,-1.458572388E0,-1.293974304E1,1.854980469E0
2.069030762E0,-1.867980957E0,-1.324859619E1,1.294738770E0
2.073059082E0,-2.179229736E0,-1.336590576E1,7.584381104E-1
2.077056885E0,-2.251052856E0,-1.330606079E1,3.753662109E-1
2.081085205E0,-2.203170776E0,-1.311691284E1,2.245330811E-1
2.085113526E0,-2.095428467E0,-1.280326843E1,3.490295410E-1
2.089111329E0,-1.942199707E0,-1.241540527E1,6.914062500E-1
2.093139649E0,-2.014038086E0,-1.200122070E1,1.129547119E0
2.097167969E0,-2.174438477E0,-1.161575317E1,1.292343140E0
2.101165772E0,-2.119384766E0,-1.122789001E1,1.345016479E0
2.105194092E0,-1.944595337E0,-1.088072205E1,1.414459229E0
2.109222412E0,-1.712356567E0,-1.059820557E1,1.431213379E0
2.113220215E0,-1.403503418E0,-1.040667725E1,1.352203369E0
2.117248536E0,-1.111419678E0,-1.032048035E1,1.062500000E0
2.121276856E0,-9.342498779E-1,-1.037554932E1,6.123962402E-1
2.125274659E0,-1.003677368E0,-1.054075623E1,1.335601807E-1
2.129302979E0,-1.099441528E0,-1.071792603E1,-1.274108887E-1
2.133331299E0,-1.319717407E0,-1.086875916E1,-2.950134277E-1
2.137329102E0,-1.530410767E0,-1.100044250E1,-3.381042480E-1
2.141357422E0,-1.791366577E0,-1.111056519E1,-3.404998779E-1
2.145355225E0,-2.337249756E0,-1.127816772E1,-3.716278076E-1
2.149383545E0,-2.792144775E0,-1.139068604E1,-3.045806885E-1
2.153411866E0,-3.086639404E0,-1.143139648E1,-2.040252686E-1
2.157409668E0,-3.282958984E0,-1.140985107E1,-1.178436279E-1
2.161437989E0,-3.259017944E0,-1.129252625E1,8.566284180E-2
2.165466309E0,-2.954956055E0,-1.106507874E1,3.562164307E-1
2.169464112E0,-2.200775146E0,-1.072988892E1,8.182983398E-1
2.173492432E0,-1.346054077E0,-1.034442139E1,1.076873779E0
2.177520752E0,-5.176544189E-1,-9.939804077E0,1.198974609E0
2.181518555E0,2.484893799E-1,-9.525604248E0,1.254043579E0
2.185546875E0,7.584533691E-1,-9.099441528E0,1.313888550E0
2.189575196E0,1.002655029E0,-8.797775269E0,1.333053589E0
2.193572998E0,8.925323486E-1,-8.591873169E0,1.141510010E0
2.197601319E0,7.153625488E-1,-8.441040039E0,9.212493896E-1
2.201629639E0,2.556762695E-1,-8.359634399E0,4.759216309E-1
2.205627442E0,-3.021850586E-1,-8.328506470E0,9.284973145E-2
2.209655762E0,-1.034805298E0,-8.393157959E0,-1.417846680E-1
2.213653565E0,-1.808135986E0,-8.591873169E0,-3.164672852E-2
2.217681885E0,-2.471328735E0,-8.893539429E0,3.753662109E-1
2.221710205E0,-3.084243774E0,-9.245483398E0,8.350524902E-1
2.225708008E0,-3.584625244E0,-9.662078857E0,1.333053589E0
2.229736329E0,-3.867141724E0,-1.004994202E1,1.986663818E0
2.233764649E0,-3.941360474E0,-1.035879517E1,2.795913696E0
2.237762452E0,-3.905456543E0,-1.057186890E1,3.442337036E0
2.241790772E0,-3.871932983E0,-1.063172913E1,3.662612915E0
2.245819092E0,-3.776168823E0,-1.048568726E1,3.715286255E0
2.249816895E0,-3.637298584E0,-1.019837952E1,3.703308105E0
2.253845215E0,-3.498443604E0,-9.805725098E0,3.552474976E0
2.257873536E0,-3.311691284E0,-9.389144897E0,3.257980347E0
2.261871338E0,-3.318878174E0,-9.022827148E0,3.485443115E0
2.265899659E0,-2.986083984E0,-8.536804199E0,4.069625854E0
2.269927979E0,-2.272613525E0,-7.976562500E0,4.275527954E0
2.273925782E0,-1.317321777E0,-7.461807251E0,4.117507935E0
2.277954102E0,-4.961090088E-1,-7.042816162E0,3.662612915E0
2.281982422E0,8.567810059E-2,-6.801010132E0,3.073638916E0
2.285980225E0,6.866302490E-1,-6.781860352E0,2.585220337E0
2.290008545E0,1.285171509E0,-6.961425781E0,2.285934448E0
2.294006348E0,1.737686157E0,-7.253509521E0,2.065673828E0
2.298034668E0,2.139907837E0,-7.521667480E0,1.962722778E0
2.302062989E0,2.554107666E0,-7.785018921E0,2.082427979E0
2.306060791E0,2.934783936E0,-8.057968140E0,2.350585938E0
2.310089112E0,3.353775024E0,-8.323715210E0,2.798294067E0
2.314117432E0,3.744018555E0,-8.589477539E0,3.365722656E0
2.318115235E0,3.973861694E0,-8.826507568E0,3.894851685E0
2.322143555E0,4.048080444E0,-9.013244629E0,4.277923584E0
2.326171875E0,3.969070435E0,-9.137756348E0,4.548461914E0
2.330169678E0,3.801483154E0,-9.171264648E0,4.670562744E0
2.334197998E0,3.557281494E0,-9.089859009E0,4.548461914E0
2.338226319E0,3.128707886E0,-8.907913208E0,4.198913574E0
2.342224121E0,2.511001587E0,-8.656509399E0,3.705703735E0
2.346252442E0,1.936401367E0,-8.381179810E0,3.188552856E0
2.350280762E0,1.479110718E0,-8.194427490E0,2.764785767E0
2.354278565E0,1.069702148E0,-8.146545410E0,2.506210327E0
2.358306885E0,7.321166992E-1,-8.244705200E0,2.405654907E0
2.362335205E0,5.310058594E-1,-8.421890259E0,2.396072388E0
2.366333008E0,5.573425293E-1,-8.584686279E0,2.360168457E0
2.370361329E0,7.943725586E-1,-8.718765259E0,2.276367188E0
2.374359131E0,1.194198608E0,-8.838470459E0,2.111160278E0
2.378387452E0,1.708953857E0,-8.989303589E0,1.922027588E0
2.382415772E0,2.187789917E0,-9.214370728E0,1.802307129E0
2.386413575E0,2.391296387E0,-9.654891968E0,1.673019409E0
2.390441895E0,2.455947876E0,-1.010501099E1,1.462341309E0
2.394470215E0,2.635513306E0,-1.035639954E1,1.115173340E0
2.398468018E0,2.858169556E0,-1.041146851E1,7.081604004E-1
2.402496338E0,2.958724976E0,-1.035160828E1,3.705749512E-1
2.406524659E0,2.834228516E0,-1.027020264E1,3.060913086E-2
2.410522461E0,2.022598267E0,-1.028936768E1,-7.187805176E-1
2.414550782E0,6.985931396E-1,-1.040188599E1,-1.712371826E0
2.418579102E0,-9.174804688E-1,-1.052159119E1,-2.854415894E0
2.422576905E0,-2.739471436E0,-1.062933350E1,-3.982086182E0
2.426605225E0,-4.393875122E0,-1.069398499E1,-4.709915161E0
2.430633545E0,-5.775329590E0,-1.075622559E1,-5.059463501E0
2.434631348E0,-6.907775879E0,-1.081129456E1,-5.059463501E0
2.438659668E0,-8.054595947E0,-1.106507874E1,-4.673995972E0
2.442657471E0,-8.792022705E0,-1.151519775E1,-3.893493652E0
2.446685791E0,-8.753707886E0,-1.187432861E1,-3.417053223E0
2.450714112E0,-8.193466187E0,-1.209219360E1,-2.899902344E0
2.454711914E0,-7.585342407E0,-1.239385986E1,-1.896728516E0
2.458740235E0,-6.934112549E0,-1.292776489E1,-6.182250977E-1
2.462768555E0,-5.969253540E0,-1.357899475E1,6.770324707E-1
2.466766358E0,-4.535125732E0,-1.417993164E1,1.859771729E0
2.470794678E0,-3.244659424E0,-1.492692566E1,3.061660767E0
2.474822998E0,-2.591033936E0,-1.579122925E1,3.755981445E0
2.478820801E0,-2.026000977E0,-1.650471497E1,3.485443115E0
2.482849121E0,-1.290985107E0,-1.683988953E1,2.372131348E0
2.486877442E0,-2.590789795E-1,-1.682073975E1,7.871704102E-1
2.490875245E0,7.057800293E-1,-1.655738831E1,-5.966796875E-1
2.494903565E0,1.436019897E0,-1.602107239E1,-1.200012207E0
2.498931885E0,1.706558228E0,-1.530043030E1,-1.159317017E0
2.502929688E0,1.526992798E0,-1.435472107E1,-1.197616577E0
2.506958008E0,1.352218628E0,-1.322705078E1,-1.566329956E0
2.510986329E0,1.349822998E0,-1.205389404E1,-1.659698486E0
2.514984131E0,1.414459229E0,-1.098846436E1,-1.190444946E0
2.519012452E0,1.869369507E0,-9.908676147E0,-4.219055176E-1
2.523010254E0,2.534957886E0,-8.828903198E0,7.871704102E-1
2.527038575E0,2.151885986E0,-8.352447510E0,2.017791748E0
2.531066895E0,1.225326538E0,-8.486526489E0,2.221298218E0
2.535064698E0,7.201385498E-1,-8.737915039E0,1.799911499E0
2.539093018E0,7.871856689E-1,-8.857620239E0,1.388122559E0
2.543121338E0,1.486297607E0,-8.340484619E0,2.460723877E0
2.547119141E0,1.347427368E0,-7.789810181E0,3.959487915E0
2.551147461E0,1.287567139E0,-7.018875122E0,4.641830444E0
2.555175782E0,2.034561157E0,-6.092330933E0,3.914001465E0
2.559173584E0,2.702545166E0,-5.496170044E0,2.072860718E0
2.563201905E0,2.769577026E0,-5.225616455E0,-4.673919678E-1
2.567230225E0,2.661849976E0,-5.108306885E0,-3.409866333E0
2.571228028E0,3.076034546E0,-4.945495605E0,-5.013977051E0
2.575256348E0,3.430389404E0,-4.730026245E0,-5.229461670E0
2.579284668E0,3.262786865E0,-4.627075195E0,-4.156860352E0
2.583282471E0,2.422424316E0,-4.804244995E0,-2.088272095E0
2.587310791E0,6.866302490E-1,-5.472229004E0,4.447937012E-1
2.591308594E0,-9.725494385E-1,-6.449066162E0,2.319458008E0
2.595336914E0,-2.552734375E0,-7.540817261E0,3.597961426E0
2.599365235E0,-4.080230713E0,-8.541595459E0,4.253982544E0
2.603363037E0,-5.689132690E0,-9.300552368E0,4.510162354E0
2.607391358E0,-7.101715088E0,-9.808120728E0,4.459869385E0
2.611419678E0,-7.798431396E0,-1.026303101E1,3.858932495E0
2.615417481E0,-7.705047607E0,-1.066525269E1,2.733657837E0
2.619445801E0,-7.056228638E0,-1.097650146E1,1.368957520E0
2.623474121E0,-6.187118530E0,-1.137153625E1,-1.274108887E-1
2.627471924E0,-5.107345581E0,-1.151997375E1,-1.736312866E0
2.631500245E0,-3.658843994E0,-1.133802795E1,-3.460144043E0
2.635528565E0,-1.985305786E0,-1.081129456E1,-4.422607422E0
2.639526368E0,-3.476715088E-1,-1.004515076E1,-3.972503662E0
2.643554688E0,8.781585693E-1,-9.267028809E0,-2.428237915E0
2.647583008E0,1.625152588E0,-8.718765259E0,-3.548583984E-1
2.651580811E0,1.938796997E0,-8.373992920E0,1.864562988E0
2.655609131E0,2.003433228E0,-8.194427490E0,3.535720825E0
2.659637452E0,1.615570068E0,-8.144149780E0,4.510162354E0
2.663635254E0,1.079269409E0,-8.053176880E0,4.620285034E0
2.667663575E0,5.717010498E-1,-7.847274780E0,4.004974365E0
2.671661377E0,1.144104004E-1,-7.533630371E0,2.913223267E0
2.675689698E0,-3.117523193E-1,-7.205627441E0,1.917236328E0
2.679718018E0,-6.517333984E-1,-6.856079102E0,1.189392090E0
2.683715821E0,-8.672027588E-1,-6.508911133E0,8.278656006E-1
2.687744141E0,-1.013259888E0,-6.207244873E0,8.374481201E-1
2.691772461E0,-1.101837158E0,-6.080352783E0,1.151092529E0
2.695770264E0,-1.135360718E0,-6.233581543E0,1.735275269E0
2.699798584E0,-1.161697388E0,-6.585525513E0,2.556488037E0
2.703826905E0,-1.195220947E0,-7.126617432E0,3.636276245E0
2.707824707E0,-1.235916138E0,-7.689254761E0,4.900405884E0
2.711853028E0,-1.207183838E0,-8.081909180E0,6.233978271E0
2.715881348E0,-1.003677368E0,-8.318939209E0,7.103073120E0
2.719879151E0,-6.253967285E-1,-8.500885010E0,6.717605591E0
2.723907471E0,-2.471160889E-1,-8.364425659E0,5.874847412E0
2.727935791E0,1.000518799E-1,-8.038803101E0,4.529312134E0
2.731933594E0,5.046691895E-1,-7.423507690E0,3.550079346E0
2.735961914E0,7.057800293E-1,-6.511306763E0,3.993011475E0
2.739990235E0,9.428100586E-1,-5.498565674E0,5.036880493E0
2.743988037E0,1.285171509E0,-4.627075195E0,5.977798462E0
2.748016358E0,1.591629028E0,-4.081192017E0,6.569168091E0
2.752014161E0,1.799926758E0,-3.882476807E0,7.115051270E0
2.756042481E0,2.084838867E0,-3.726852417E0,7.610641479E0
2.760070801E0,2.302719116E0,-3.702911377E0,7.557968140E0
2.764068604E0,2.400878906E0,-3.793884277E0,7.150955200E0
2.768096924E0,2.470306396E0,-3.918395996E0,6.571563721E0
2.772125245E0,2.621139526E0,-4.057250977E0,5.496566772E0
2.776123047E0,3.317855835E0,-4.897613525E0,3.665008545E0
2.780151368E0,4.069641113E0,-7.804183960E0,1.541351318E0
2.784179688E0,2.618743896E0,-1.092382812E1,3.384887695E0
2.788177491E0,1.218139648E0,-1.287271118E1,2.542114258E0
2.792205811E0,-5.703277588E-1,-1.507536316E1,1.778366089E0
2.796234131E0,-2.770599365E0,-1.766349792E1,1.424026489E0
2.800231934E0,-4.609344482E0,-2.029232788E1,3.059387207E-1
2.804260254E0,-4.594985962E0,-2.187011719E1,4.735260010E-1
2.808288575E0,-3.304504395E0,-2.229388428E1,3.037719727E0
2.812286377E0,-3.452758789E-1,-2.040725708E1,7.476577759E0
2.816314698E0,3.198150635E0,-1.596841431E1,1.205906677E1
2.820312500E0,5.288284302E0,-1.097410583E1,1.243257141E1
2.824340821E0,5.417572021E0,-7.564758301E0,1.023229980E1
2.828369141E0,4.969848633E0,-5.773895264E0,8.367218018E0
2.832366944E0,4.256378174E0,-4.847335815E0,6.279464722E0
2.836395264E0,3.662612915E0,-4.248794556E0,4.522125244E0
2.840423584E0,3.188568115E0,-3.825012207E0,2.649856567E0
2.844421387E0,2.740844727E0,-3.695724487E0,1.208557129E0
2.848449707E0,2.194976807E0,-3.856140137E0,5.166320801E-1
2.852478028E0,1.622756958E0,-4.267944336E0,5.190277100E-1
2.856475830E0,9.452056885E-1,-5.120285034E0,6.985931396E-1
2.860504151E0,1.383514404E-1,-6.597503662E0,8.757629395E-1
2.864532471E0,-8.430480957E-2,-7.579116821E0,1.560501099E0
2.868530274E0,3.657989502E-1,-7.864028931E0,2.862945557E0
2.872558594E0,6.267700195E-1,-8.639755249E0,4.242004395E0
2.876586914E0,-7.283477783E-1,-1.132125854E1,4.469451904E0
2.880584717E0,-3.132125854E0,-1.542492676E1,4.285095215E0
2.884613037E0,-5.552658081E0,-1.998348999E1,3.432769775E0
2.888641358E0,-7.420135498E0,-2.429064941E1,2.420013428E0
2.892639161E0,-8.849472046E0,-2.815968323E1,1.780761719E0
2.896667481E0,-7.944473267E0,-3.006068420E1,1.622741699E0
2.900665284E0,-4.676391602E0,-2.969197083E1,1.771194458E0
2.904693604E0,-8.719940186E-1,-2.800166321E1,2.211715698E0
2.908721924E0,2.333831787E0,-2.588279724E1,2.707321167E0
2.912719727E0,5.053649902E0,-2.318214417E1,3.107147217E0
2.916748047E0,6.858886719E0,-2.021810913E1,3.023361206E0
2.920776368E0,7.464614868E0,-1.741690063E1,2.554092407E0
2.924774170E0,6.727203369E0,-1.501312256E1,1.831039429E0
2.928802491E0,5.058441162E0,-1.308578491E1,8.733673096E-1
2.932830811E0,2.822250366E0,-1.159658813E1,-1.728973389E-1
2.936828614E0,1.622924805E-1,-1.055990601E1,-1.310150146E0
2.940856934E0,-2.301330566E0,-9.911071777E0,-2.258255005E0
2.944885254E0,-4.199935913E0,-9.427444458E0,-2.351623535E0
2.948883057E0,-5.423370361E0,-9.123382568E0,-1.966156006E0
2.952911377E0,-5.995590210E0,-9.360412598E0,-2.701187134E0
2.956939698E0,-5.969253540E0,-9.875167847E0,-4.135314941E0
2.960937500E0,-5.291702271E0,-9.925445557E0,-4.441772461E0
2.964965821E0,-4.535125732E0,-9.578277588E0,-2.969329834E0
2.968963623E0,-4.154449463E0,-9.300552368E0,-7.618713379E-1
2.972991944E0,-4.058685303E0,-9.231124878E0,1.186996460E0
2.977020264E0,-4.159240723E0,-9.360412598E0,2.621124268E0
2.981018067E0,-4.393875122E0,-9.630950928E0,3.866119385E0
2.985046387E0,-4.666809082E0,-1.002839661E1,4.962661743E0
2.989074707E0,-4.942138672E0,-1.046414185E1,6.116668701E0
2.993072510E0,-5.365921021E0,-1.092861938E1,7.311370850E0
2.997100830E0,-6.048263550E0,-1.131169128E1,8.431854248E0
3.001129151E0,-6.689910889E0,-1.157983398E1,9.231521606E0
3.005126954E0,-7.448867798E0,-1.193896484E1,9.367996216E0
3.009155274E0,-7.798431396E0,-1.224302673E1,8.862808228E0
3.013183594E0,-7.357894897E0,-1.227175903E1,7.715988159E0
3.017181397E0,-6.522308350E0,-1.213050842E1,6.403961182E0
3.021209717E0,-5.406616211E0,-1.172348022E1,5.044067383E0
3.025238037E0,-4.266983032E0,-1.112014771E1,3.918792725E0
3.029235840E0,-3.158462524E0,-1.068200684E1,3.169403076E0
3.033264161E0,-2.016433716E0,-1.036358643E1,2.843795776E0
3.037292481E0,-1.061141968E0,-9.865585327E0,3.356155396E0
3.041290284E0,-6.230010986E-1,-9.276611328E0,4.019348145E0
3.045318604E0,-6.996154785E-1,-8.740310669E0,4.414382935E0
3.049316407E0,-1.032409668E0,-8.223159790E0,4.830978394E0
3.053344727E0,-1.302947998E0,-7.832916260E0,4.790283203E0
3.057373047E0,-1.314926147E0,-7.567153931E0,4.364105225E0
3.061370850E0,-1.101837158E0,-7.459411621E0,3.717681885E0
3.065399170E0,-7.714385986E-1,-7.459411621E0,3.296295166E0
3.069427491E0,-5.511779785E-1,-7.586303711E0,2.915618896E0
3.073425293E0,-4.601898193E-1,-7.840087891E0,2.132705688E0
3.077453614E0,-2.159881592E-1,-8.091476440E0,1.433609009E0
3.081481934E0,2.915802002E-1,-8.239929199E0,1.215728760E0
3.085479737E0,7.584533691E-1,-8.261474609E0,1.431213379E0
3.089508057E0,9.691467285E-1,-8.192031860E0,2.032150269E0
3.093536377E0,8.278808594E-1,-8.160919189E0,2.680984497E0
3.097534180E0,3.729858398E-1,-8.244705200E0,2.898864746E0
3.101562500E0,-2.590789795E-1,-8.419494629E0,2.795913696E0
3.105590821E0,-1.113815308E0,-8.625396729E0,2.750411987E0
3.109588623E0,-1.978118896E0,-8.864807129E0,2.736053467E0
3.113616944E0,-2.658065796E0,-9.147323608E0,2.465499878E0
3.117645264E0,-2.969314575E0,-9.267028809E0,2.554092407E0
3.121643067E0,-2.942977905E0,-9.262252808E0,2.590011597E0
3.125671387E0,-3.203948975E0,-9.425048828E0,3.068847656E0
3.129669190E0,-3.134521484E0,-9.487304688E0,3.064056396E0
3.133697510E0,-2.942977905E0,-9.487304688E0,2.946746826E0
3.137725830E0,-2.679626465E0,-9.410690308E0,2.898864746E0
3.141723633E0,-2.377944946E0,-9.322097778E0,2.728866577E0
3.145751954E0,-2.011642456E0,-9.099441528E0,2.616348267E0
3.149780274E0,-1.674057007E0,-8.761856079E0,2.558883667E0
3.153778077E0,-1.298171997E0,-8.321319580E0,2.515777588E0
3.157806397E0,-8.528442383E-1,-7.744323730E0,2.556488037E0
3.161834717E0,-3.883666992E-1,-7.215209961E0,2.695343018E0
3.165832520E0,9.286499023E-2,-6.834533691E0,2.621124268E0
3.169860840E0,2.844085693E-1,-6.657348633E0,3.008987427E0
3.173889161E0,4.902954102E-1,-6.489761353E0,3.502197266E0
3.177886963E0,7.967529297E-1,-6.216827393E0,3.542892456E0
3.181915284E0,1.074493408E0,-5.874450684E0,2.757598877E0
3.185943604E0,1.215744019E0,-5.579971313E0,2.290725708E0
3.189941407E0,1.385726929E0,-5.472229004E0,2.142288208E0
3.193969727E0,1.287567139E0,-5.656585693E0,1.675415039E0
3.197967530E0,8.398590088E-1,-6.089935303E0,8.087158203E-1
3.201995850E0,1.694793701E-1,-6.674118042E0,4.017028809E-1
3.206024170E0,-6.036376953E-2,-7.279846191E0,-7.379302979E-1
3.210021973E0,-1.705017090E-1,-7.804183960E0,-2.974090576E-1
3.214050293E0,-1.896514893E-1,-8.330902100E0,-5.128784180E-1
3.218078614E0,-2.782287598E-1,-8.826507568E0,1.167907715E-1
3.222076416E0,-3.668212891E-1,-9.046768188E0,6.195831299E-1
3.226104737E0,-4.410400391E-1,-9.020431519E0,1.802307129E0
3.230133057E0,-2.638702393E-1,-8.764251709E0,2.771957397E0
3.234130860E0,5.934143066E-2,-8.196823120E0,3.911605835E0
3.238159180E0,3.394622803E-1,-7.461807251E0,4.641830444E0
3.242187500E0,1.040969849E0,-6.544830322E0,4.886047363E0
3.246185303E0,1.766418457E0,-5.108306885E0,2.997024536E0
3.250213623E0,1.919647217E0,-3.987823486E0,1.474304199E0
3.254241944E0,2.056106567E0,-3.439544678E0,3.849487305E-1
3.258239746E0,1.452774048E0,-3.470672607E0,5.934143066E-2
3.262268067E0,6.004333496E-1,-4.275131226E0,4.759216309E-1
3.266296387E0,-4.577941895E-1,-5.479415894E0,1.380935669E0
3.270294190E0,-1.381958008E0,-7.038040161E0,2.556488037E0
3.274322510E0,-2.449783325E0,-8.888748169E0,3.851745605E0
3.278320313E0,-3.239868164E0,-1.069638062E1,4.656204224E0
3.282348633E0,-3.721099854E0,-1.218795776E1,5.079971313E0
3.286376954E0,-4.580612183E0,-1.371307373E1,5.879638672E0
3.290374756E0,-5.095367432E0,-1.473060608E1,6.193283081E0
3.294403077E0,-5.492813110E0,-1.531958008E1,5.961044312E0
3.298431397E0,-5.873489380E0,-1.549195862E1,5.623458862E0
3.302429200E0,-6.062622070E0,-1.516395569E1,5.173355103E0
3.306457520E0,-5.926162720E0,-1.447442627E1,4.572402954E0
3.310485840E0,-5.593368530E0,-1.361491394E1,3.928359985E0
3.314483643E0,-5.097763062E0,-1.278172302E1,3.348968506E0
3.318511963E0,-4.635681152E0,-1.215922546E1,2.906036377E0
3.322540284E0,-4.094589233E0,-1.163729858E1,2.582824707E0
3.326538086E0,-3.598999023E0,-1.133084106E1,2.434387207E0
3.330566407E0,-3.201553345E0,-1.116323853E1,2.398468018E0
3.334594727E0,-2.878341675E0,-1.102198792E1,2.489456177E0
3.338592530E0,-2.588638306E0,-1.074665833E1,2.525360107E0
3.342620850E0,-2.576675415E0,-1.083523560E1,2.427200317E0
3.346618653E0,-2.789749146E0,-1.129013062E1,2.479873657E0
3.350646973E0,-2.976501465E0,-1.180249023E1,2.640289307E0
3.354675293E0,-3.148880005E0,-1.209698486E1,2.805480957E0
3.358673096E0,-3.345214844E0,-1.222148132E1,3.037719727E0
3.362701416E0,-3.476882935E0,-1.223583984E1,3.229263306E0
3.366729737E0,-3.601394653E0,-1.222866821E1,3.389663696E0
3.370727539E0,-3.706726074E0,-1.222148132E1,3.562057495E0
3.374755860E0,-3.771377563E0,-1.215922546E1,3.748794556E0
3.378784180E0,-3.785736084E0,-1.203472900E1,3.868515015E0
3.382781983E0,-3.764190674E0,-1.186714172E1,3.933151245E0
3.386810303E0,-3.678009033E0,-1.165644836E1,4.028915405E0
3.390838623E0,-3.496047974E0,-1.124943542E1,4.124694824E0
3.394836426E0,-3.247039795E0,-1.060539246E1,4.225250244E0
3.398864746E0,-2.983688354E0,-9.812911987E0,4.285095215E0
3.402893067E0,-2.696380615E0,-8.953399658E0,4.285095215E0
3.406890870E0,-2.349227905E0,-8.034027100E0,4.251586914E0
3.410919190E0,-1.985305786E0,-7.071548462E0,4.237213135E0
3.414947510E0,-1.623779297E0,-6.245559692E0,4.222854614E0
3.418945313E0,-1.238311768E0,-5.704467773E0,4.182144165E0
3.422973633E0,-8.336944580E-1,-5.302230835E0,4.127090454E0
3.426971436E0,-5.128631592E-1,-5.014938354E0,4.043289185E0
3.430999756E0,-2.878112793E-1,-4.856918335E0,4.014556885E0
3.435028077E0,-8.670043945E-2,-4.610321045E0,3.949905396E0
3.439025879E0,3.540039062E-2,-4.540878296E0,3.779922485E0
3.443054200E0,5.934143066E-2,-4.737213135E0,3.621902466E0
3.447082520E0,-2.204895020E-2,-5.196899414E0,3.370513916E0
3.451080323E0,-2.327423096E-1,-5.898391724E0,2.968292236E0
3.455108643E0,-5.248413086E-1,-6.774673462E0,2.448745728E0
3.459136963E0,-8.695983887E-1,-7.677291870E0,1.835830688E0
3.463134766E0,-1.214370728E0,-8.462585449E0,1.163055420E0
3.467163086E0,-1.487304688E0,-9.092254639E0,3.538208008E-1
3.471191407E0,-1.671661377E0,-9.535186768E0,-4.554138184E-1
3.475189209E0,-1.745880127E0,-9.753051758E0,-9.917144775E-1
3.479217530E0,-1.575897217E0,-9.654891968E0,-1.355636597E0
3.483215332E0,-1.420272827E0,-9.458572388E0,-1.381973267E0
3.487243653E0,-1.109024048E0,-9.152114868E0,-1.535202026E0
3.491271973E0,-8.911590576E-1,-8.781005859E0,-1.384368896E0
3.495269776E0,-7.810211182E-1,-8.357238770E0,-1.575912476E0
3.499298096E0,-8.049621582E-1,-7.978958130E0,-1.638153076E0
3.503326416E0,-7.810211182E-1,-7.672500610E0,-1.463378906E0
3.507324219E0,-7.714385986E-1,-7.603073120E0,-1.156921387E0
3.511352539E0,-7.355346680E-1,-7.579116821E0,-5.942840576E-1
3.515380860E0,-6.684875488E-1,-7.531234741E0,-3.716278076E-1
3.519378662E0,-8.408660889E-1,-7.780242920E0,-9.174957275E-1
3.523406983E0,-1.118606567E0,-8.321319580E0,-1.302963257E0
3.527435303E0,-1.216766357E0,-8.860015869E0,-1.106643677E0
3.531433106E0,-1.283798218E0,-9.496871948E0,-5.248565674E-1
3.535461426E0,-1.415481567E0,-1.023429871E1,2.245330811E-1
3.539489746E0,-1.767425537E0,-1.115127563E1,7.464752197E-1
3.543487549E0,-2.212753296E0,-1.203952026E1,9.930725098E-1
3.547515870E0,-2.705963135E0,-1.283918762E1,1.050537109E0
3.551544190E0,-3.105789185E0,-1.365321350E1,8.422393799E-1
3.555541993E0,-3.579833984E0,-1.466117859E1,5.884552002E-1
3.559570313E0,-4.085021973E0,-1.587023926E1,3.825531006E-1
3.563598633E0,-4.666809082E0,-1.706256104E1,4.831085205E-1
3.567596436E0,-5.227050781E0,-1.795799255E1,8.877258301E-1
3.571624756E0,-5.595764160E0,-1.836979675E1,1.048141479E0
3.575622559E0,-5.744201660E0,-1.842007446E1,5.455017090E-2
3.579650879E0,-5.758560181E0,-1.820698547E1,-1.276626587E0
3.583679200E0,-5.361129761E0,-1.724212646E1,-1.444229126E0
3.587677002E0,-4.563858032E0,-1.589897156E1,-1.611816406E0
3.591705323E0,-3.644485474E0,-1.481918335E1,-9.366607666E-1
3.595733643E0,-2.526397705E0,-1.417036438E1,-2.207946777E-1
3.599731446E0,-1.381958008E0,-1.387826538E1,7.105560303E-1
3.603759766E0,-3.213348389E-1,-1.379208374E1,1.816680908E0
3.607788086E0,8.254852295E-1,-1.365800476E1,2.738449097E0
3.611785889E0,1.905273438E0,-1.352153015E1,3.729644775E0
3.615814209E0,2.774368286E0,-1.315043640E1,4.292282104E0
3.619842530E0,3.485443115E0,-1.254469299E1,3.916397095E0
3.623840332E0,3.787124634E0,-1.193656921E1,2.946746826E0
3.627868653E0,3.566848755E0,-1.134519958E1,1.785552979E0
3.631896973E0,3.126312256E0,-1.073228455E1,7.752075195E-1
3.635894776E0,2.673812866E0,-1.011697388E1,7.609558105E-2
3.639923096E0,2.362564087E0,-9.508850098E0,-4.841461182E-1
3.643951416E0,2.120758057E0,-9.044372559E0,-9.941101074E-1
3.647949219E0,1.742477417E0,-8.864807129E0,-1.415496826E0
3.651977539E0,1.357009888E0,-8.862411499E0,-1.657302856E0
3.655975342E0,9.835052490E-1,-9.025222778E0,-1.913482666E0
3.660003662E0,6.219787598E-1,-9.317321777E0,-2.200790405E0
3.664031983E0,2.939758301E-1,-9.635742188E0,-2.368392944E0
3.668029786E0,8.088684082E-2,-9.899108887E0,-2.401901245E0
3.672058106E0,-1.178283691E-1,-1.014810181E1,-2.289382935E0
3.676086426E0,-1.441650391E-1,-1.018879700E1,-1.853637695E0
3.680084229E0,-2.710571289E-1,-1.018162537E1,-1.305358887E0
3.684112549E0,-5.487823486E-1,-1.023429871E1,-6.732940674E-1
3.688140870E0,-6.397552490E-1,-1.031568909E1,1.215820312E-1
3.692138672E0,-8.600311279E-1,-1.048329163E1,6.746368408E-1
3.696166993E0,-9.940948486E-1,-1.058384705E1,9.763183594E-1
3.700195313E0,-8.169250488E-1,-1.059820557E1,1.177429199E0
3.704193116E0,-4.577941895E-1,-1.061018372E1,1.479095459E0
3.708221436E0,-6.755065918E-2,-1.066764832E1,1.850204468E0
3.712249756E0,7.850646973E-2,-1.076101685E1,1.852584839E0
3.716247559E0,8.807373047E-2,-1.086875916E1,1.687393188E0
3.720275879E0,3.300476074E-2,-1.093099976E1,1.313888550E0
3.724273682E0,-1.727294922E-2,-1.086875916E1,9.499816895E-1
3.728302002E0,-2.207794189E-1,-1.082804871E1,6.315460205E-1
3.732330323E0,-6.182098389E-1,-1.097171021E1,4.519805908E-1
3.736328125E0,-1.219161987E0,-1.131646729E1,1.694641113E-1
3.740356446E0,-1.671661377E0,-1.160856628E1,-8.911132812E-2
3.744384766E0,-1.750671387E0,-1.153434753E1,-8.911132812E-2
3.748382569E0,-1.645324707E0,-1.072271729E1,5.956420898E-1
3.752410889E0,-1.812911987E0,-9.650115967E0,5.860595703E-1
3.756439209E0,-2.289367676E0,-9.113800049E0,1.000366211E-1
3.760437012E0,-2.658065796E0,-8.881576538E0,1.838378906E-1
3.764465332E0,-2.871154785E0,-8.690032959E0,1.311645508E-1
3.768493653E0,-3.024383545E0,-8.721160889E0,-5.798339844E-2
3.772491455E0,-3.036361694E0,-8.673278809E0,-1.681213379E-1
3.776519776E0,-2.971710205E0,-8.603836060E0,-1.178436279E-1
3.780548096E0,-2.799331665E0,-8.419494629E0,9.764099121E-2
3.784545899E0,-2.641311646E0,-8.175277710E0,3.969116211E-1
3.788574219E0,-2.531173706E0,-7.749114990E0,9.020996094E-1
3.792602539E0,-2.579071045E0,-7.437866211E0,1.210937500E0
3.796600342E0,-2.492874146E0,-6.844100952E0,1.778366089E0
3.800628662E0,-2.181625366E0,-5.752349854E0,3.020965576E0
3.804626465E0,-1.908691406E0,-4.550460815E0,4.694503784E0
3.808654786E0,-2.174438477E0,-3.951904297E0,6.573959351E0
3.812683106E0,-2.962142944E0,-4.287094116E0,7.380798340E0
3.816680909E0,-3.440979004E0,-4.777908325E0,6.736755371E0
3.820709229E0,-3.309295654E0,-5.433914185E0,4.804641724E0
3.824737549E0,-2.145706177E0,-5.103515625E0,2.532546997E0
3.828735352E0,-2.078674316E0,-4.890441895E0,3.993011475E0
3.832763672E0,-1.817703247E0,-4.703689575E0,4.694503784E0
3.836791993E0,-1.039596558E0,-4.469055176E0,5.288269043E0
3.840789795E0,-3.093566895E-1,-4.813827515E0,5.453475952E0
3.844818116E0,4.472045898E-1,-5.314208984E0,5.034484863E0
3.848846436E0,1.072097778E0,-6.020492554E0,4.083984375E0
3.852844239E0,2.039352417E0,-6.116271973E0,3.698516846E0
3.856872559E0,2.803100586E0,-6.214431763E0,3.269958496E0
3.860900879E0,3.688949585E0,-7.014099121E0,1.732879639E0
3.864898682E0,5.216461182E0,-6.846496582E0,3.037719727E0
3.868927002E0,6.382431030E0,-5.917541504E0,6.188491821E0
3.872955323E0,6.763107300E0,-6.410751343E0,7.696838379E0
3.876953125E0,6.557205200E0,-7.976562500E0,6.545227051E0
3.880981446E0,6.061614990E0,-9.451385498E0,5.594726562E0
3.884979248E0,5.415176392E0,-1.097410583E1,5.477416992E0
3.889007569E0,4.524536133E0,-1.235795593E1,5.048843384E0
3.893035889E0,3.959503174E0,-1.336590576E1,4.385650635E0
3.897033692E0,3.499816895E0,-1.407220459E1,3.971466064E0
3.901062012E0,2.925201416E0,-1.421824646E1,3.846954346E0
3.905090332E0,2.137512207E0,-1.395248413E1,4.136657715E0
3.909088135E0,1.285171509E0,-1.368434143E1,4.450302124E0
3.913116455E0,7.129669189E-1,-1.334915161E1,4.819000244E0
3.917144776E0,5.429687500E-1,-1.298522949E1,5.084762573E0
3.921142579E0,5.980377197E-1,-1.259257507E1,5.362487793E0
3.925170899E0,7.847900391E-1,-1.214726257E1,5.530090332E0
3.929199219E0,9.595642090E-1,-1.166363525E1,5.604309082E0
3.933197022E0,1.093643188E0,-1.110578918E1,5.558822632E0
3.937225342E0,1.084060669E0,-1.055751038E1,5.312210083E0
3.941253662E0,9.595642090E-1,-1.005473328E1,4.854919434E0
3.945251465E0,7.632446289E-1,-9.657287598E0,4.139053345E0
3.949279786E0,6.315612793E-1,-9.413085938E0,3.231658936E0
3.953277588E0,5.764923096E-1,-9.355621338E0,2.223693848E0
3.957305909E0,5.094604492E-1,-9.484909058E0,1.234893799E0
3.961334229E0,3.993225098E-1,-9.705169678E0,3.873443604E-1
3.965332032E0,3.825683594E-1,-9.944595337E0,-2.112121582E-1
3.969360352E0,5.094604492E-1,-1.014091492E1,-4.961242676E-1
3.973388672E0,6.938171387E-1,-1.029414368E1,-4.961242676E-1
3.977386475E0,9.044952393E-1,-1.042103577E1,-3.620452881E-1
3.981414795E0,1.155883789E0,-1.056948853E1,-2.064208984E-1
3.985443116E0,1.447982788E0,-1.077539062E1,-5.319213867E-2
3.989440918E0,1.670639038E0,-1.111296082E1,1.359558105E-1
3.993469239E0,1.577270508E0,-1.160377502E1,4.160766602E-1
3.997497559E0,9.356231689E-1,-1.233639526E1,8.470306396E-1
4.001495362E0,-2.782287598E-1,-1.337069702E1,1.266006470E0
4.005523682E0,-1.856018066E0,-1.455104065E1,1.323471069E0
4.009552002E0,-3.560684204E0,-1.572898865E1,8.973083496E-1
4.013549805E0,-5.243804932E0,-1.683988953E1,-4.290771484E-1
4.017578125E0,-6.804824829E0,-1.784785461E1,-2.351623535E0
4.021606446E0,-7.891799927E0,-1.854696655E1,-3.891098022E0
4.025604248E0,-8.097702026E0,-1.853738403E1,-4.504013062E0
4.029632569E0,-7.891799927E0,-1.742648315E1,-4.439376831E0
4.033630371E0,-7.523086548E0,-1.540815735E1,-3.816879272E0
4.037658692E0,-7.099319458E0,-1.329408264E1,-3.010040283E0
4.041687012E0,-6.725814819E0,-1.139068604E1,-1.949401855E0
4.045684815E0,-6.282897949E0,-9.774612427E0,-7.666625977E-1
4.049713135E0,-5.748992920E0,-8.405120850E0,5.836639404E-1
4.053741455E0,-5.037902832E0,-7.275054932E0,1.811889648E0
4.057739258E0,-4.243041992E0,-6.386810303E0,2.867736816E0
4.061767579E0,-3.486465454E0,-5.735595703E0,3.729644775E0
4.065795899E0,-2.801727295E0,-5.347732544E0,4.546066284E0
4.069793702E0,-2.028396606E0,-5.230407715E0,5.333755493E0
4.073822022E0,-1.369995117E0,-5.371673584E0,6.004135132E0
4.077850342E0,-1.022827148E0,-5.668548584E0,6.631423950E0
4.081848145E0,-1.037200928E0,-6.171325684E0,7.019271851E0
4.085876465E0,-1.460968018E0,-6.863250732E0,7.107864380E0
4.089904786E0,-2.152893066E0,-7.720382690E0,6.657760620E0
4.093902588E0,-2.794540405E0,-8.520050049E0,6.303405762E0
4.097930909E0,-3.378723145E0,-9.314926147E0,5.664154053E0
4.101928711E0,-3.876724243E0,-1.009542847E1,4.680145264E0
4.105957032E0,-4.408233643E0,-1.098367310E1,3.090393066E0
4.109985352E0,-4.884674072E0,-1.174743652E1,2.369735718E0
4.113983155E0,-5.203109741E0,-1.243934631E1,1.802307129E0
4.118011475E0,-5.318023682E0,-1.297087097E1,1.299530029E0
4.122039795E0,-5.030731201E0,-1.315521240E1,1.562896729E0
4.126037598E0,-4.642868042E0,-1.316479492E1,2.024978638E0
4.130065918E0,-4.199935913E0,-1.310015869E1,2.333831787E0
4.134094239E0,-3.709121704E0,-1.296607971E1,2.211715698E0
4.138092041E0,-3.383514404E0,-1.272665405E1,1.890899658E0
4.142120362E0,-3.141708374E0,-1.230767822E1,1.617965698E0
4.146148682E0,-2.808914185E0,-1.171151733E1,1.553314209E0
4.150146485E0,-2.380340576E0,-1.108662415E1,1.352203369E0
4.154174805E0,-1.942199707E0,-1.044259644E1,7.656250000E-1
4.158203125E0,-1.322113037E0,-9.547164917E0,9.116668701E-1
4.162200928E0,-8.504486084E-1,-8.623001099E0,1.220520020E0
4.166229248E0,-6.062469482E-1,-7.835296631E0,1.555709839E0
4.170257569E0,-7.690429688E-1,-7.337310791E0,1.603591919E0
4.174255371E0,-9.174804688E-1,-6.923110962E0,2.329040527E0
4.178283692E0,-1.159301758E0,-6.690872192E0,2.685775757E0
4.182281495E0,-1.310134888E0,-6.544830322E0,3.008987427E0
4.186309815E0,-1.504074097E0,-6.578353882E0,2.441558838E0
4.190338135E0,-1.549560547E0,-6.480178833E0,2.506210327E0
4.194335938E0,-1.566314697E0,-6.417938232E0,2.896469116E0
4.198364258E0,-1.580688477E0,-6.310195923E0,3.914001465E0
4.202392579E0,-1.719543457E0,-6.391601562E0,3.724853516E0
4.206390381E0,-1.760253906E0,-6.367660522E0,3.588394165E0
4.210418702E0,-1.750671387E0,-6.384414673E0,3.590774536E0
4.214447022E0,-1.714752197E0,-6.358078003E0,4.246795654E0
4.218444825E0,-1.693206787E0,-6.420333862E0,4.502975464E0
4.222473145E0,-1.628570557E0,-6.535247803E0,4.342559814E0
4.226501465E0,-1.556747437E0,-6.645385742E0,4.000183105E0
4.230499268E0,-1.506454468E0,-6.798614502E0,3.516555786E0
4.234527588E0,-1.453796387E0,-7.023666382E0,2.805480957E0
4.238555909E0,-1.374786377E0,-7.361251831E0,1.577255249E0
4.242553711E0,-1.451400757E0,-7.610244751E0,1.493453979E0
4.246582032E0,-1.449005127E0,-7.801788330E0,2.372131348E0
4.250610352E0,-1.422668457E0,-7.966979980E0,3.631484985E0
4.254608155E0,-1.389144897E0,-8.235137939E0,3.760772705E0
4.258636475E0,-1.429840088E0,-8.608627319E0,3.334594727E0
4.262634278E0,-1.508850098E0,-9.094650269E0,2.451141357E0
4.266662598E0,-1.535186768E0,-9.604614258E0,1.778366089E0
4.270690918E0,-1.559127808E0,-1.003079224E1,1.610778809E0
4.274688721E0,-1.446609497E0,-1.039230347E1,1.759216309E0
4.278717041E0,-1.329284668E0,-1.065087891E1,1.950759888E0
4.282745362E0,-1.302947998E0,-1.084481812E1,2.039337158E0
4.286743164E0,-1.334075928E0,-1.098606873E1,2.053710938E0
4.290771485E0,-1.358016968E0,-1.101959229E1,2.261993408E0
4.294799805E0,-1.415481567E0,-1.101480103E1,2.178207397E0
4.298797608E0,-1.341262817E0,-1.109141541E1,1.684997559E0
4.302825928E0,-1.231124878E0,-1.109620667E1,1.538955688E0
4.306854248E0,-1.164093018E0,-1.097650146E1,1.759216309E0
4.310852051E0,-1.111419678E0,-1.078974915E1,2.051315308E0
4.314880371E0,-1.039596558E0,-1.055271912E1,2.259613037E0
4.318908692E0,-9.151000977E-1,-1.029414368E1,2.386505127E0
4.322906495E0,-7.929840088E-1,-1.005712891E1,2.487060547E0
4.326934815E0,-6.684875488E-1,-9.848831177E0,2.609161377E0
4.330932618E0,-5.679321289E-1,-9.652496338E0,2.762390137E0
4.334960938E0,-4.458312988E-1,-9.513641357E0,2.822250366E0
4.338989258E0,-3.045654297E-1,-9.439422607E0,2.894073486E0
4.342987061E0,-2.231750488E-1,-9.381958008E0,2.987442017E0
4.347015381E0,-1.848602295E-1,-9.322097778E0,3.104751587E0
4.351043702E0,-2.423248291E-1,-9.307739258E0,3.222076416E0
4.355041504E0,-2.830200195E-1,-9.231124878E0,3.461502075E0
4.359069825E0,-2.495117188E-1,-9.140136719E0,3.528533936E0
4.363098145E0,-1.800689697E-1,-9.073104858E0,3.456710815E0
4.367095948E0,-1.489562988E-1,-8.984527588E0,3.449523926E0
4.371124268E0,-2.088012695E-1,-8.905517578E0,3.511779785E0
4.375152588E0,-3.117523193E-1,-8.790588379E0,3.643447876E0
4.379150391E0,-4.769592285E-1,-8.704391479E0,3.777526855E0
4.383178711E0,-6.732788086E-1,-8.630172729E0,3.909210205E0
4.387207032E0,-9.151000977E-1,-8.579895020E0,4.012161255E0
4.391204834E0,-1.075500488E0,-8.560745239E0,3.993011475E0
4.395233155E0,-1.113815308E0,-8.567932129E0,3.976242065E0
4.399261475E0,-1.147338867E0,-8.630172729E0,3.947525024E0
4.403259278E0,-1.173660278E0,-8.725952148E0,3.935546875E0
4.407287598E0,-1.199996948E0,-8.857620239E0,3.969070435E0
4.411285401E0,-1.250274658E0,-9.013244629E0,4.024139404E0
4.415313721E0,-1.243103027E0,-9.137756348E0,4.141448975E0
4.419342041E0,-1.214370728E0,-9.226333618E0,4.313827515E0
4.423339844E0,-1.211975098E0,-9.288589478E0,4.536499023E0
4.427368164E0,-1.267044067E0,-9.381958008E0,4.821395874E0
4.431396485E0,-1.235916138E0,-9.415481567E0,5.048843384E0
4.435394287E0,-1.216766357E0,-9.410690308E0,5.218841553E0
4.439422608E0,-1.247894287E0,-9.413085938E0,5.434310913E0
4.443450928E0,-1.283798218E0,-9.439422607E0,5.625854492E0
4.447448731E0,-1.338867188E0,-9.453781128E0,5.707260132E0
4.451477051E0,-1.365203857E0,-9.415481567E0,5.733596802E0
4.455505371E0,-1.381958008E0,-9.293365479E0,5.704864502E0
4.459503174E0,-1.350845337E0,-9.077896118E0,5.628250122E0
4.463531495E0,-1.259857178E0,-8.804962158E0,5.527694702E0
4.467559815E0,-1.130569458E0,-8.460189819E0,5.463043213E0
4.471557618E0,-9.605865479E-1,-8.115417480E0,5.386428833E0
4.475585938E0,-7.068023682E-1,-7.725173950E0,5.364883423E0
4.479583741E0,-4.075164795E-1,-7.330123901E0,5.214050293E0
4.483612061E0,-4.600524902E-2,-6.932693481E0,5.022521973E0
4.487640381E0,3.538360596E-1,-6.463424683E0,4.876464844E0
4.491638184E0,7.321166992E-1,-5.986984253E0,4.689727783E0
4.495666504E0,1.127166748E0,-5.486587524E0,4.479034424E0
4.499694825E0,1.531784058E0,-4.969436646E0,4.227645874E0
4.503692627E0,1.941192627E0,-4.445114136E0,3.985824585E0
4.507720948E0,2.352996826E0,-3.983032227E0,3.574020386E0
4.511749268E0,2.776763916E0,-3.532928467E0,3.234039307E0
4.515747071E0,3.131103516E0,-3.185760498E0,2.906036377E0
4.519775391E0,3.346588135E0,-3.027740479E0,2.561279297E0
4.523803711E0,3.427993774E0,-3.061264038E0,2.209320068E0
4.527801514E0,3.370529175E0,-3.319839478E0,1.790344238E0
4.531829834E0,3.224487305E0,-3.793884277E0,1.256439209E0
4.535858155E0,2.918029785E0,-4.433135986E0,6.459197998E-1
4.539855957E0,2.453552246E0,-5.223236084E0,1.383361816E-1
4.543884278E0,1.795135498E0,-6.183303833E0,-3.572540283E-1
4.547912598E0,6.985931396E-1,-7.516876221E0,-7.523040771E-1
4.551910401E0,-7.546844482E-1,-9.219146729E0,-1.015655518E0
4.555938721E0,-2.303726196E0,-1.113450623E1,-1.132980347E0
4.559936524E0,-3.788131714E0,-1.320310974E1,-7.546997070E-1
4.563964844E0,-4.781723022E0,-1.511128235E1,-2.303619385E-1
4.567993164E0,-5.100158691E0,-1.656695557E1,8.805847168E-2
4.571990967E0,-4.934951782E0,-1.767068481E1,4.424133301E-1
4.576019287E0,-4.606948853E0,-1.866427612E1,9.092712402E-1
4.580047608E0,-3.828842163E0,-1.946873474E1,1.306716919E0
4.584045411E0,-3.426605225E0,-2.052935791E1,1.665847778E0
4.588073731E0,-3.050720215E0,-2.166181946E1,2.355377197E0
4.592102051E0,-2.727508545E0,-2.263146973E1,3.267562866E0
4.596099854E0,-2.981292725E0,-2.374716187E1,4.172576904E0
4.600128174E0,-3.326049805E0,-2.463063049E1,4.795059204E0
4.604156495E0,-3.572662354E0,-2.521481323E1,4.799850464E0
4.608154297E0,-3.790527344E0,-2.549493408E1,4.239608765E0
4.612182618E0,-3.788131714E0,-2.531057739E1,3.222076416E0
4.616210938E0,-3.587020874E0,-2.469526672E1,1.764007568E0
4.620208741E0,-3.199157715E0,-2.367054749E1,9.524536133E-2
4.624237061E0,-2.646102905E0,-2.223403931E1,-1.511260986E0
4.628265381E0,-2.116989136E0,-2.053894043E1,-2.873565674E0
4.632263184E0,-1.568710327E0,-1.872174072E1,-4.063476562E0
4.636291504E0,-9.414367676E-1,-1.686622620E1,-5.131301880E0
4.640289307E0,-2.926025391E-1,-1.508015442E1,-5.658020020E0
4.644317627E0,4.376373291E-1,-1.344252014E1,-6.002792358E0
4.648345948E0,1.301940918E0,-1.194375610E1,-6.421768188E0
4.652343750E0,2.388900757E0,-1.047850037E1,-6.572601318E0
4.656372071E0,3.748809814E0,-9.214370728E0,-6.194320679E0
4.660400391E0,4.996185303E0,-8.323715210E0,-5.775329590E0
4.664398194E0,5.882049561E0,-7.674896240E0,-5.095382690E0
4.668426514E0,6.289062500E0,-7.200836182E0,-4.104187012E0
4.672454834E0,6.528472900E0,-6.882415771E0,-3.029190063E0
4.676452637E0,7.028869629E0,-6.437088013E0,-1.489715576E0
4.680480957E0,7.548416138E0,-5.785873413E0,6.195831299E-1
4.684509278E0,7.919509888E0,-5.290267944E0,1.615570068E0
4.688507080E0,8.044006348E0,-5.096343994E0,1.649078369E0
4.692535401E0,7.593902588E0,-5.239990234E0,2.039337158E0
4.696563721E0,6.490173340E0,-5.656585693E0,2.865341187E0
4.700561524E0,5.259552002E0,-5.977401733E0,3.461502075E0
4.704589844E0,4.500595093E0,-6.039657593E0,3.332214355E0
4.708587647E0,3.873306274E0,-6.145004272E0,2.690567017E0
4.712615967E0,3.030548096E0,-6.365264893E0,2.024978638E0
4.716644287E0,2.068084717E0,-6.568771362E0,1.759216309E0
4.720642090E0,1.256454468E0,-6.707641602E0,1.775970459E0
4.724670411E0,5.597381592E-1,-6.872833252E0,1.838226318E0
4.728698731E0,-3.642272949E-2,-7.193664551E0,1.759216309E0
4.732696534E0,-5.607452393E-1,-7.543212891E0,1.704147339E0
4.736724854E0,-9.557952881E-1,-7.866424561E0,1.807098389E0
4.740753174E0,-1.460968018E0,-8.388366699E0,1.749633789E0
4.744750977E0,-1.987701416E0,-8.931854248E0,1.555709839E0
4.748779297E0,-2.456954956E0,-9.238311768E0,1.893295288E0
4.752807618E0,-3.081848145E0,-9.719543457E0,2.199752808E0
4.756805420E0,-3.603775024E0,-1.026541138E1,2.238052368E0
4.760833741E0,-3.986862183E0,-1.056469727E1,2.515777588E0
4.764862061E0,-4.240646362E0,-1.072749329E1,2.779144287E0
4.768859864E0,-4.329223633E0,-1.067961121E1,2.970687866E0
4.772888184E0,-4.310073853E0,-1.042822266E1,3.109542847E0
4.776916504E0,-4.314865112E0,-1.015528870E1,3.047302246E0
4.780914307E0,-4.326828003E0,-1.001881409E1,2.733657837E0
4.784942627E0,-4.113754272E0,-9.690811157E0,2.297912598E0
4.788940430E0,-3.754623413E0,-9.149719238E0,2.036941528E0
4.792968750E0,-3.359573364E0,-8.630172729E0,1.795135498E0
4.796997071E0,-2.911865234E0,-8.280624390E0,1.538955688E0
4.800994873E0,-2.581451416E0,-7.899948120E0,1.285171509E0
4.805023194E0,-2.210357666E0,-7.500122070E0,1.277984619E0
4.809051514E0,-1.942199707E0,-7.287033081E0,1.388122559E0
4.813049317E0,-1.705184937E0,-7.198440552E0,1.526977539E0
4.817077637E0,-1.451400757E0,-7.184082031E0,1.649078369E0
4.821105957E0,-1.147338867E0,-7.150558472E0,1.768798828E0
4.825103760E0,-8.432617188E-1,-7.105072021E0,1.960327148E0
4.829132080E0,-5.272369385E-1,-7.059585571E0,2.192565918E0
4.833160401E0,-1.896514893E-1,-7.004516602E0,2.443954468E0
4.837158204E0,1.670837402E-1,-6.975784302E0,2.697738647E0
4.841186524E0,5.310058594E-1,-6.975784302E0,2.934768677E0
4.845214844E0,9.140777588E-1,-7.018875122E0,3.123916626E0
4.849212647E0,1.333068848E0,-7.064376831E0,3.310653687E0
4.853240967E0,1.811904907E0,-7.117050171E0,3.526138306E0
4.857269287E0,2.290740967E0,-7.191268921E0,3.734436035E0
4.861267090E0,2.767181396E0,-7.296600342E0,3.894851685E0
4.865295411E0,3.234054565E0,-7.464202881E0,3.969070435E0
4.869293213E0,3.734451294E0,-7.691650391E0,3.952301025E0
4.873321534E0,4.263565063E0,-7.995712280E0,3.820617676E0
4.877349854E0,4.807052612E0,-8.388366699E0,3.712890625E0
4.881347657E0,5.407989502E0,-8.831298828E0,3.684158325E0
4.885375977E0,6.023300171E0,-9.295761108E0,3.755981445E0
4.889404297E0,6.636215210E0,-9.803344727E0,3.885269165E0
4.893402100E0,7.172515869E0,-1.038273621E1,4.031311035E0
4.897430420E0,7.625030518E0,-1.101240540E1,4.139053345E0
4.901458741E0,7.986541748E0,-1.166123962E1,4.239608765E0
4.905456543E0,8.216384888E0,-1.225740051E1,4.335372925E0
4.909484864E0,8.271453857E0,-1.274819946E1,4.447906494E0
4.913513184E0,8.079925537E0,-1.309536743E1,4.558044434E0
4.917510987E0,7.608261108E0,-1.319352722E1,4.663391113E0
4.921539307E0,6.849304199E0,-1.299960327E1,4.857315063E0
4.925567627E0,5.920349121E0,-1.259736633E1,5.170959473E0
4.929565430E0,5.051254272E0,-1.209938049E1,5.561203003E0
4.933593750E0,4.359329224E0,-1.157264709E1,5.891616821E0
4.937591553E0,3.811065674E0,-1.109381104E1,6.107086182E0
4.941619873E0,3.411224365E0,-1.068919373E1,6.176513672E0
4.945648194E0,3.145477295E0,-1.030133057E1,6.099899292E0
4.949645996E0,2.949142456E0,-9.908676147E0,5.850906372E0
4.953674317E0,2.745635986E0,-9.492095947E0,5.463043213E0
4.957702637E0,2.487060547E0,-9.116195679E0,4.965057373E0
4.961700440E0,2.168640137E0,-8.759460449E0,4.373687744E0
4.965728760E0,1.854995728E0,-8.472167969E0,3.727249146E0
4.969757080E0,1.675430298E0,-8.342880249E0,3.073638916E0
4.973754883E0,1.550933838E0,-8.443435669E0,2.477478027E0
4.977783204E0,1.414459229E0,-8.740310669E0,1.938781738E0
4.981811524E0,1.206161499E0,-9.228729248E0,1.474304199E0
4.985809327E0,9.308319092E-1,-9.834457397E0,1.105606079E0
4.989837647E0,6.842346191E-1,-1.052877808E1,7.895660400E-1
4.993865967E0,5.238189697E-1,-1.134759521E1,4.759216309E-1
4.997863770E0,4.232635498E-1,-1.224063110E1,1.598968506E-1
5.001892090E0,1.694793701E-1,-1.321507263E1,-9.150695801E-2
5.005889893E0,-4.338531494E-1,-1.428767395E1,-1.465606689E-1
5.009918213E0,-1.494491577E0,-1.546322632E1,8.088684082E-2
5.013946534E0,-3.098602295E0,-1.669145203E1,5.357818604E-1
5.017944336E0,-4.918197632E0,-1.773054504E1,8.015289307E-1
5.021972657E0,-6.500762939E0,-1.838175964E1,8.159027100E-1
5.026000977E0,-7.865463257E0,-1.858766174E1,6.626739502E-1
5.029998780E0,-8.722579956E0,-1.833387756E1,2.173461914E-1
5.034027100E0,-9.153549194E0,-1.739295959E1,-5.392150879E-1
5.038055420E0,-9.177490234E0,-1.590376282E1,-1.293395996E0
5.042053223E0,-8.770477295E0,-1.432598877E1,-1.640548706E0
5.046081543E0,-8.054595947E0,-1.279847717E1,-1.425064087E0
5.050109864E0,-7.039459229E0,-1.134519958E1,-6.421661377E-1
5.054107666E0,-5.957275391E0,-1.000923157E1,5.645141602E-1
5.058135987E0,-5.011566162E0,-8.867202759E0,1.831039429E0
5.062164307E0,-4.271759033E0,-7.904739380E0,2.810272217E0
5.066162110E0,-3.713912964E0,-7.145767212E0,3.365722656E0
5.070190430E0,-3.223098755E0,-6.607070923E0,3.597961426E0
5.074218750E0,-2.701171875E0,-6.317382812E0,3.607543945E0
5.078216553E0,-2.167266846E0,-6.252731323E0,3.542892456E0
5.082244873E0,-1.820098877E0,-6.427505493E0,3.578811646E0
5.086242676E0,-1.635742188E0,-6.743545532E0,3.724853516E0
5.090270996E0,-1.690811157E0,-7.119430542E0,3.914001465E0
5.094299317E0,-1.779403687E0,-7.473785400E0,4.048080444E0
5.098297120E0,-2.021209717E0,-7.799392700E0,4.170181274E0
5.102325440E0,-2.215148926E0,-8.084304810E0,4.227645874E0
5.106353760E0,-2.543151855E0,-8.414703369E0,4.122299194E0
5.110351563E0,-2.928619385E0,-8.785797119E0,3.794296265E0
5.114379883E0,-3.531951904E0,-9.279006958E0,3.250808716E0
5.118408204E0,-4.243041992E0,-9.851226807E0,2.525360107E0
5.122406006E0,-4.714691162E0,-1.045935059E1,1.785552979E0
5.126434327E0,-4.848770142E0,-1.105789185E1,1.273193359E0
5.130462647E0,-4.695541382E0,-1.156307983E1,1.045745850E0
5.134460450E0,-4.372314453E0,-1.196530151E1,9.954681396E-1
5.138488770E0,-3.989242554E0,-1.224542236E1,9.882812500E-1
5.142517090E0,-3.565475464E0,-1.233401489E1,9.763183594E-1
5.146514893E0,-3.191986084E0,-1.221429443E1,9.643402100E-1
5.150543213E0,-2.907073975E0,-1.188629150E1,1.048141479E0
5.154571534E0,-2.634124756E0,-1.144096375E1,1.337844849E0
5.158569336E0,-2.308517456E0,-1.092861938E1,1.704147339E0
5.162597657E0,-1.982910156E0,-1.034921265E1,2.154266357E0
5.166595459E0,-1.731521606E0,-9.791366577E0,2.329040527E0
5.170623780E0,-1.587860107E0,-9.259857178E0,2.329040527E0
5.174652100E0,-1.573501587E0,-8.790588379E0,2.266784668E0
5.178649903E0,-1.683639526E0,-8.345275879E0,2.281158447E0
5.182678223E0,-1.733917236E0,-7.938247681E0,2.329040527E0
5.186706543E0,-1.729125977E0,-7.552780151E0,2.439163208E0
5.190704346E0,-1.688415527E0,-7.186477661E0,2.625915527E0
5.194732666E0,-1.642929077E0,-6.858474731E0,2.882095337E0
5.198760987E0,-1.571105957E0,-6.563980103E0,3.447128296E0
5.202758789E0,-1.604629517E0,-6.358078003E0,4.038497925E0
5.206787110E0,-1.844039917E0,-6.310195923E0,4.490997314E0
5.210815430E0,-1.951782227E0,-6.212036133E0,4.694503784E0
5.214813233E0,-1.949386597E0,-6.080352783E0,5.123077393E0
5.218841553E0,-1.994873047E0,-6.101898193E0,5.218841553E0
5.222869873E0,-1.980514526E0,-6.238372803E0,4.878860474E0
5.226867676E0,-1.659683228E0,-6.240768433E0,3.928359985E0
5.230895996E0,-1.209579468E0,-6.221618652E0,3.083206177E0
5.234893799E0,-7.235565186E-1,-6.204849243E0,2.815063477E0
5.238922120E0,-5.559692383E-1,-6.365264893E0,2.858154297E0
5.242950440E0,-5.847015381E-1,-6.774673462E0,2.554092407E0
5.246948243E0,-5.607452393E-1,-7.114654541E0,2.252426147E0
5.250976563E0,-4.530181885E-1,-7.495330811E0,1.969909668E0
5.255004883E0,-3.213348389E-1,-7.933471680E0,1.579650879E0
5.259002686E0,-2.303466797E-1,-8.371597290E0,1.287567139E0
5.263031006E0,-2.686614990E-1,-8.723556519E0,1.950759888E0
5.267059327E0,-4.697723389E-1,-9.128173828E0,2.369735718E0
5.271057129E0,-6.325836182E-1,-9.671661377E0,2.297912598E0
5.275085450E0,-7.187652588E-1,-1.019837952E1,1.883712769E0
5.279113770E0,-6.349792480E-1,-1.068679810E1,1.189392090E0
5.283111573E0,-5.583648682E-1,-1.117042542E1,5.453643799E-1
5.287139893E0,-4.865264893E-1,-1.151997375E1,8.757629395E-1
5.291168213E0,-4.937133789E-1,-1.173785400E1,1.483886719E0
5.295166016E0,-6.972198486E-1,-1.188629150E1,2.024978638E0
5.299194336E0,-1.080291748E0,-1.207783508E1,2.412841797E0
5.303222657E0,-1.109024048E0,-1.190304565E1,2.544509888E0
5.307220459E0,-1.027618408E0,-1.147927856E1,2.570846558E0
5.311248780E0,-9.701538086E-1,-1.117761230E1,1.694580078E0
5.315246582E0,-9.869232178E-1,-1.092143250E1,1.151092529E0
5.319274903E0,-1.118606567E0,-1.068200684E1,1.127151489E0
5.323303223E0,-1.214370728E0,-1.044737244E1,1.356994629E0
5.327301026E0,-1.240707397E0,-1.022232056E1,1.519790649E0
5.331329346E0,-1.298171997E0,-1.005952454E1,1.617965698E0
5.335357666E0,-1.257461548E0,-9.908676147E0,1.708938599E0
5.339355469E0,-1.221557617E0,-9.810516357E0,1.802307129E0
5.343383789E0,-1.197616577E0,-9.741088867E0,1.984268188E0
5.347412110E0,-1.164093018E0,-9.731506348E0,2.264389038E0
5.351409912E0,-1.185638428E0,-9.724334717E0,2.721679688E0
5.355438233E0,-1.104232788E0,-9.702774048E0,2.937164307E0
5.359466553E0,-1.020431519E0,-9.657287598E0,3.181365967E0
5.363464356E0,-9.749450684E-1,-9.614196777E0,3.530929565E0
5.367492676E0,-8.791809082E-1,-9.472930908E0,4.378479004E0
5.371520996E0,-8.217163086E-1,-9.362808228E0,4.541275024E0
5.375518799E0,-6.996154785E-1,-9.324493408E0,4.411987305E0
5.379547120E0,-5.583648682E-1,-9.298156738E0,4.117507935E0
5.383575440E0,-4.194946289E-1,-9.293365479E0,3.890060425E0
5.387573243E0,-3.237304688E-1,-9.283798218E0,3.861328125E0
5.391601563E0,-2.878112793E-1,-9.259857178E0,4.143844604E0
5.395599366E0,-2.495117188E-1,-9.204788208E0,4.629867554E0
5.399627686E0,-2.423248291E-1,-9.085083008E0,5.237991333E0
5.403656006E0,-2.471160889E-1,-9.032409668E0,5.017730713E0
5.407653809E0,-2.758483887E-1,-8.998886108E0,4.419174194E0
5.411682129E0,-2.758483887E-1,-8.972549438E0,3.777526855E0
5.415710450E0,-2.686614990E-1,-8.948608398E0,3.119125366E0
5.419708252E0,-2.088012695E-1,-8.879180908E0,2.903640747E0
5.423736573E0,-1.178283691E-1,-8.735519409E0,3.054473877E0
5.427764893E0,-5.078125000E-2,-8.618209839E0,3.131088257E0
5.431762696E0,1.892089844E-3,-8.512863159E0,3.143066406E0
5.435791016E0,9.765625000E-2,-8.424270630E0,3.023361206E0
5.439819336E0,1.598968506E-1,-8.405120850E0,2.846191406E0
5.443817139E0,2.101745605E-1,-8.467376709E0,2.539733887E0
5.447845459E0,2.460937500E-1,-8.527221680E0,2.613952637E0
5.451873780E0,2.413024902E-1,-8.584686279E0,2.939559937E0
5.455871582E0,1.718750000E-1,-8.637359619E0,3.262771606E0
5.459899903E0,5.456542969E-2,-8.687637329E0,3.542892456E0
5.463897705E0,-3.402709961E-2,-8.687637329E0,3.858932495E0
5.467926026E0,-1.369781494E-1,-8.656509399E0,4.249191284E0
5.471954346E0,-2.399291992E-1,-8.606231689E0,4.653808594E0
5.475952149E0,-3.285217285E-1,-8.558349609E0,5.029693604E0
5.479980469E0,-4.099121094E-1,-8.498504639E0,5.362487793E0
5.484008789E0,-5.104675293E-1,-8.433853149E0,5.625854492E0
5.488006592E0,-6.086425781E-1,-8.350051880E0,5.807815552E0
5.492034912E0,-7.091979980E-1,-8.254287720E0,5.882034302E0
5.496063233E0,-7.834167480E-1,-8.122604370E0,5.870056152E0
5.500061036E0,-8.025665283E-1,-7.950225830E0,5.807815552E0
5.504089356E0,-7.546844482E-1,-7.715591431E0,5.695281982E0
5.508117676E0,-6.206054688E-1,-7.433074951E0,5.530090332E0
5.512115479E0,-3.955535889E-1,-7.114654541E0,5.307418823E0
5.516143799E0,-1.130371094E-1,-6.791427612E0,5.044067383E0
5.520172120E0,1.766662598E-1,-6.453842163E0,4.759155273E0
5.524169922E0,4.663543701E-1,-6.097106934E0,4.469451904E0
5.528198243E0,7.033843994E-1,-5.764312744E0,4.206085205E0
5.532226563E0,9.164733887E-1,-5.421951294E0,4.009765625E0
5.536224366E0,1.160675049E0,-5.060424805E0,3.887664795E0
5.540252686E0,1.445587158E0,-4.746780396E0,3.787109375E0
5.544250489E0,1.740081787E0,-4.490600586E0,3.758377075E0
5.548278809E0,1.972320557E0,-4.378082275E0,3.751190186E0
5.552307129E0,2.123153687E0,-4.435531616E0,3.629089355E0
5.556304932E0,2.156661987E0,-4.684539795E0,3.351364136E0
5.560333252E0,2.015411377E0,-5.125061035E0,2.980255127E0
5.564361573E0,1.773590088E0,-5.647003174E0,2.427200317E0
5.568359375E0,1.416854858E0,-6.233581543E0,1.874145508E0
5.572387696E0,1.026611328E0,-6.827346802E0,1.426422119E0
5.576416016E0,5.740966797E-1,-7.433074951E0,1.012222290E0
5.580413819E0,-6.755065918E-2,-8.110641479E0,7.081604004E-1
5.584442139E0,-9.845275879E-1,-8.974945068E0,4.088897705E-1
5.588470459E0,-2.136138916E0,-1.007148743E1,5.215454102E-2
5.592468262E0,-3.309295654E0,-1.125901794E1,-3.117675781E-1
5.596496582E0,-4.259796143E0,-1.242498779E1,-4.243011475E-1
5.600524903E0,-4.764968872E0,-1.334436035E1,-2.830352783E-1
5.604522705E0,-4.736236572E0,-1.398840332E1,-1.896667480E-1
5.608551026E0,-4.460906982E0,-1.455104065E1,-2.997894287E-1
5.612548829E0,-4.099380493E0,-1.520465088E1,-4.458465576E-1
5.616577149E0,-3.704345703E0,-1.600910950E1,-1.896667480E-1
5.620605469E0,-3.383514404E0,-1.700988770E1,3.777618408E-1
5.624603272E0,-3.321273804E0,-1.829557800E1,1.048141479E0
5.628631592E0,-3.148880005E0,-1.950942993E1,1.850204468E0
5.632659912E0,-3.168045044E0,-2.086454773E1,2.580429077E0
5.636657715E0,-3.290145874E0,-2.219332886E1,3.224472046E0
5.640686036E0,-3.491256714E0,-2.344309998E1,3.609939575E0
5.644714356E0,-3.788131714E0,-2.473837280E1,3.811050415E0
5.648712159E0,-4.080230713E0,-2.579182434E1,3.724853516E0
5.652740479E0,-4.482452393E0,-2.653401184E1,3.116729736E0
5.656768799E0,-4.714691162E0,-2.659866333E1,1.586837769E0
5.660766602E0,-4.207122803E0,-2.572956848E1,-5.751342773E-1
5.664794922E0,-3.278167725E0,-2.415179443E1,-2.622177124E0
5.668823243E0,-2.277389526E0,-2.216699219E1,-4.305297852E0
5.672821045E0,-1.324508667E0,-1.994277954E1,-5.270156860E0
5.676849366E0,-4.649810791E-1,-1.766349792E1,-5.600555420E0
5.680877686E0,3.131256104E-1,-1.544168091E1,-5.533523560E0
5.684875489E0,1.340240479E0,-1.321986389E1,-5.133682251E0
5.688903809E0,2.781555176E0,-1.109620667E1,-4.839202881E0
5.692901612E0,4.215682983E0,-9.377166748E0,-4.391494751E0
5.696929932E0,5.211669922E0,-8.081909180E0,-3.828842163E0
5.700958252E0,5.884445190E0,-7.035644531E0,-3.062698364E0
5.704956055E0,6.430313110E0,-6.202453613E0,-2.030807495E0
5.708984375E0,7.048019409E0,-5.639816284E0,-8.456726074E-1
5.713012696E0,7.328140259E0,-5.103515625E0,3.753662109E-1
5.717010498E0,7.249130249E0,-4.763549805E0,1.237274170E0
5.721038819E0,6.942672729E0,-4.662979126E0,2.680984497E0
5.725067139E0,6.609878540E0,-4.528915405E0,4.321014404E0
5.729064942E0,6.030487061E0,-4.074005127E0,5.350524902E0
5.733093262E0,5.077590942E0,-3.834594727E0,5.046463013E0
5.737121582E0,4.048080444E0,-3.805862427E0,4.385650635E0
5.741119385E0,2.879714966E0,-4.124298096E0,3.897232056E0
5.745147705E0,1.965133667E0,-4.579193115E0,3.451919556E0
5.749176026E0,1.412063599E0,-5.022109985E0,2.798294067E0
5.753173829E0,1.045761108E0,-5.668548584E0,1.981872559E0
5.757202149E0,6.698608398E-1,-6.077957153E0,1.658660889E0
5.761230469E0,1.958160400E-1,-6.463424683E0,1.613174438E0
5.765228272E0,-5.176544189E-1,-6.875228882E0,1.486282349E0
5.769256592E0,-1.300567627E0,-7.454620361E0,8.422393799E-1
5.773254395E0,-1.774612427E0,-7.796997070E0,6.842193604E-1
5.777282715E0,-2.109802246E0,-8.105850220E0,7.823791504E-1
5.781311036E0,-2.332458496E0,-8.390762329E0,1.005050659E0
5.785308838E0,-2.485687256E0,-8.589477539E0,1.414459229E0
5.789337159E0,-2.832855225E0,-8.922271729E0,1.596405029E0
5.793365479E0,-3.091430664E0,-9.243087769E0,1.653869629E0
5.797363282E0,-3.414642334E0,-9.628555298E0,1.605987549E0
5.801391602E0,-3.606170654E0,-1.005712891E1,1.455154419E0
5.805419922E0,-3.567871094E0,-1.009303284E1,1.658660889E0
5.809417725E0,-3.486465454E0,-1.001881409E1,1.888504028E0
5.813446045E0,-3.670822144E0,-1.005952454E1,1.888504028E0
5.817474366E0,-3.654067993E0,-1.010021973E1,1.730484009E0
5.821472168E0,-3.776168823E0,-9.999664307E0,1.522186279E0
5.825500489E0,-3.742645264E0,-9.726730347E0,1.409667969E0
5.829528809E0,-3.747436523E0,-9.463363647E0,1.230102539E0
5.833526612E0,-3.809677124E0,-9.223937988E0,1.043350220E0
5.837554932E0,-3.802505493E0,-9.010848999E0,9.164581299E-1
5.841583252E0,-3.658843994E0,-8.802566528E0,8.925170898E-1
5.845581055E0,-3.436187744E0,-8.603836060E0,9.954681396E-1
5.849609375E0,-3.191986084E0,-8.409912109E0,1.198974609E0
5.853607178E0,-2.964523315E0,-8.208801270E0,1.474304199E0
5.857635498E0,-2.725112915E0,-7.986145020E0,1.771194458E0
5.861663819E0,-2.483291626E0,-7.777847290E0,2.089614868E0
5.865661621E0,-2.239089966E0,-7.600677490E0,2.386505127E0
5.869689942E0,-1.973327637E0,-7.452224731E0,2.630706787E0
5.873718262E0,-1.712356567E0,-7.310974121E0,2.743240356E0
5.877716065E0,-1.456176758E0,-7.179290771E0,2.791122437E0
5.881744385E0,-1.209579468E0,-7.071548462E0,2.793518066E0
5.885772705E0,-9.629821777E-1,-6.992538452E0,2.750411987E0
5.889770508E0,-6.565246582E-1,-6.935089111E0,2.697738647E0
5.893798829E0,-3.428802490E-1,-6.913528442E0,2.659439087E0
5.897827149E0,-1.248168945E-2,-6.959030151E0,2.661834717E0
5.901824952E0,3.705902100E-1,-7.042816162E0,2.724075317E0
5.905853272E0,8.542175293E-1,-7.179290771E0,2.929977417E0
5.909881592E0,1.378555298E0,-7.373229980E0,3.200531006E0
5.913879395E0,2.044143677E0,-7.567153931E0,3.552474976E0
5.917907715E0,2.815078735E0,-7.840087891E0,3.890060425E0
5.921905518E0,3.629104614E0,-8.189651489E0,4.275527954E0
5.925933838E0,4.385665894E0,-8.615814209E0,4.737609863E0
5.929962159E0,5.154205322E0,-9.101837158E0,5.180526733E0
5.933959961E0,5.934722900E0,-9.671661377E0,5.546844482E0
5.937988282E0,6.650588989E0,-1.037315369E1,5.807815552E0
5.942016602E0,7.215621948E0,-1.119915771E1,5.984985352E0
5.946014405E0,7.675308228E0,-1.203952026E1,6.195678711E0
5.950042725E0,7.964996338E0,-1.280326843E1,6.511703491E0
5.954071045E0,8.063156128E0,-1.340661621E1,6.892379761E0
5.958068848E0,7.847686768E0,-1.376335144E1,7.275451660E0
5.962097168E0,7.093505859E0,-1.383757019E1,7.562759399E0
5.966125489E0,5.944290161E0,-1.359814453E1,7.737533569E0
5.970123291E0,4.804656982E0,-1.313606262E1,7.850067139E0
5.974151612E0,3.923583984E0,-1.259736633E1,7.821334839E0
5.978179932E0,3.281936646E0,-1.208261108E1,7.596282959E0
5.982177735E0,2.817474365E0,-1.164926147E1,7.170120239E0
5.986206055E0,2.499038696E0,-1.130690002E1,6.538040161E0
5.990234375E0,2.331451416E0,-1.100044250E1,5.750350952E0
5.994232178E0,2.317077637E0,-1.072271729E1,4.893234253E0
5.998260498E0,2.372146606E0,-1.043061829E1,4.043289185E0
6.002258301E0,2.391296387E0,-1.014091492E1,3.212493896E0
6.006286621E0,2.259613037E0,-9.848831177E0,2.427200317E0
6.010314942E0,1.852600098E0,-9.571105957E0,1.749633789E0
6.014312745E0,1.277999878E0,-9.300552368E0,1.191787720E0
6.018341065E0,8.518218994E-1,-9.075500488E0,7.225341797E-1
6.022369385E0,7.560577393E-1,-8.960571289E0,3.083343506E-1
6.026367188E0,8.183135986E-1,-9.063522339E0,-2.445983887E-2
6.030395508E0,8.973236084E-1,-9.329284668E0,-2.399444580E-1
6.034423829E0,9.020996094E-1,-9.654891968E0,-3.261260986E-1
6.038421631E0,8.111267090E-1,-1.000923157E1,-2.926177979E-1
6.042449952E0,6.124114990E-1,-1.044737244E1,-2.734527588E-1
6.046478272E0,4.256591797E-1,-1.101959229E1,-3.021850586E-1
6.050476075E0,2.700347900E-1,-1.174024963E1,-3.548583984E-1
6.054504395E0,1.598968506E-1,-1.252793884E1,-3.309173584E-1
6.058532715E0,-1.824645996E-1,-1.346168518E1,-3.404998779E-1
6.062530518E0,-9.055175781E-1,-1.442414856E1,-2.638854980E-1
6.066558838E0,-1.841644287E0,-1.529084778E1,-6.277465820E-2
6.070556641E0,-2.837631226E0,-1.597319031E1,1.263732910E-1
6.074584961E0,-3.809677124E0,-1.638259888E1,3.322753906E-1
6.078613282E0,-4.662017822E0,-1.658370972E1,4.400177002E-1
6.082611084E0,-5.358734131E0,-1.651428223E1,2.245330811E-1
6.086639405E0,-5.928558350E0,-1.610726929E1,3.060913086E-2
6.090667725E0,-6.493591309E0,-1.533633423E1,-5.558776855E-2
6.094665528E0,-6.766525269E0,-1.422543335E1,9.048461914E-3
6.098693848E0,-6.677932739E0,-1.301635742E1,1.551055908E-1
6.102722168E0,-6.443298340E0,-1.192460632E1,2.819976807E-1
6.106719971E0,-6.012344360E0,-1.098846436E1,3.753662109E-1
6.110748291E0,-5.392257690E0,-1.017443848E1,4.687500000E-1
6.114776612E0,-4.798492432E0,-9.501663208E0,6.100006104E-1
6.118774414E0,-4.281341553E0,-8.953399658E0,7.608337402E-1
6.122802735E0,-3.788131714E0,-8.510467529E0,8.302612305E-1
6.126831055E0,-3.395492554E0,-8.182464600E0,7.919616699E-1
6.130828858E0,-3.112976074E0,-7.938247681E0,6.722564697E-1
6.134857178E0,-2.866363525E0,-7.775451660E0,6.363372803E-1
6.138885498E0,-2.722717285E0,-7.732345581E0,9.403991699E-1
6.142883301E0,-2.713134766E0,-7.828125000E0,1.742462158E0
6.146911621E0,-2.782577515E0,-8.079513550E0,2.965896606E0
6.150909424E0,-3.060302734E0,-8.414703369E0,4.316223145E0
6.154937745E0,-3.361968994E0,-8.728347778E0,5.551635742E0
6.158966065E0,-3.625335693E0,-9.046768188E0,6.471008301E0
6.162963868E0,-3.840805054E0,-9.322097778E0,6.983367920E0
6.166992188E0,-4.147262573E0,-9.630950928E0,7.043228149E0
6.171020508E0,-4.585403442E0,-1.003556824E1,6.708038330E0
6.175018311E0,-4.934951782E0,-1.043540955E1,6.152572632E0
6.179046631E0,-5.155227661E0,-1.081369019E1,5.518112183E0
6.183074952E0,-5.205505371E0,-1.111296082E1,4.926742554E0
6.187072754E0,-5.150436401E0,-1.128535461E1,4.297073364E0
6.191101075E0,-5.258178711E0,-1.139547729E1,3.657821655E0
6.195129395E0,-5.284515381E0,-1.145294189E1,3.123916626E0
6.199127198E0,-5.150436401E0,-1.139547729E1,2.731262207E0
6.203155518E0,-4.769760132E0,-1.123985291E1,2.525360107E0
6.207183838E0,-4.168807983E0,-1.099085999E1,2.436782837E0
6.211181641E0,-3.496047974E0,-1.059103394E1,2.396072388E0
6.215209961E0,-2.854400635E0,-1.010261536E1,2.458328247E0
6.219207764E0,-2.296554565E0,-9.602218628E0,2.570846558E0
6.223236084E0,-1.829681396E0,-9.125778198E0,2.585220337E0
6.227264405E0,-1.494491577E0,-8.699615479E0,2.364944458E0
6.231262207E0,-1.276611328E0,-8.314147949E0,1.998641968E0
6.235290528E0,-1.094665527E0,-7.904739380E0,1.768798828E0
6.239318848E0,-1.032409668E0,-7.492935181E0,1.718521118E0
6.243316651E0,-1.125778198E0,-7.124221802E0,1.778366089E0
6.247344971E0,-1.403503418E0,-6.903961182E0,1.711334229E0
6.251373291E0,-1.597442627E0,-6.650177002E0,1.828643799E0
6.255371094E0,-1.779403687E0,-6.441879272E0,2.613952637E0
6.259399414E0,-1.875167847E0,-6.312591553E0,2.874908447E0
6.263427735E0,-1.808135986E0,-6.255126953E0,2.740844727E0
6.267425537E0,-1.686019897E0,-6.250335693E0,2.429595947E0
6.271453858E0,-1.573501587E0,-6.324554443E0,1.941177368E0
6.275482178E0,-1.173660278E0,-6.216827393E0,2.101593018E0
6.279479981E0,-8.791809082E-1,-6.214431763E0,2.518173218E0
6.283508301E0,-5.391998291E-1,-6.247940063E0,2.985046387E0
6.287536621E0,-2.016143799E-1,-6.235977173E0,3.583602905E0
6.291534424E0,-8.909606934E-2,-6.281463623E0,4.124694824E0
6.295562745E0,7.371520996E-2,-6.429901123E0,3.645843506E0
6.299560547E0,1.814575195E-1,-6.626235962E0,2.805480957E0
6.303588868E0,2.604522705E-1,-6.822555542E0,2.487060547E0
6.307617188E0,3.131256104E-1,-7.124221802E0,2.431991577E0
6.311614991E0,3.466491699E-1,-7.471389771E0,2.424804688E0
6.315643311E0,4.448089600E-1,-7.794601440E0,2.379318237E0
6.319671631E0,5.764923096E-1,-8.115417480E0,2.400863647E0
6.323669434E0,6.866302490E-1,-8.373992920E0,2.855758667E0
6.327697754E0,6.459197998E-1,-8.699615479E0,2.961105347E0
6.331726075E0,6.028289795E-1,-9.125778198E0,2.525360107E0
6.335723877E0,5.908660889E-1,-9.559127808E0,2.118347168E0
6.339752198E0,6.076202393E-1,-9.920654297E0,2.063278198E0
6.343780518E0,6.267700195E-1,-1.021752930E1,2.230880737E0
6.347778321E0,5.405883789E-1,-1.047610474E1,2.360168457E0
6.351806641E0,3.945312500E-1,-1.071073914E1,2.396072388E0
6.355834961E0,2.245483398E-1,-1.091424561E1,2.331436157E0
6.359832764E0,6.413269043E-2,-1.108901978E1,2.276367188E0
6.363861084E0,-1.010589600E-1,-1.120155334E1,2.206939697E0
6.367889405E0,-2.590789795E-1,-1.127816772E1,2.159042358E0
6.371887207E0,-3.859710693E-1,-1.130450439E1,2.166229248E0
6.375915528E0,-5.104675293E-1,-1.128773499E1,2.254821777E0
6.379913330E0,-6.014556885E-1,-1.120394897E1,2.333831787E0
6.383941651E0,-6.158142090E-1,-1.109141541E1,2.338607788E0
6.387969971E0,-6.493377686E-1,-1.095494080E1,2.451141357E0
6.391967774E0,-7.331390381E-1,-1.076101685E1,2.635498047E0
6.395996094E0,-7.570800781E-1,-1.059342957E1,2.958709717E0
6.400024414E0,-6.972198486E-1,-1.046174622E1,3.061660767E0
6.404022217E0,-6.517333984E-1,-1.033724976E1,3.234039307E0
6.408050537E0,-6.541290283E-1,-1.019119263E1,3.552474976E0
6.412078858E0,-6.684875488E-1,-1.003079224E1,3.882873535E0
6.416076661E0,-5.918731689E-1,-9.894317627E0,4.028915405E0
6.420104981E0,-5.080718994E-1,-9.767425537E0,4.177368164E0
6.424133301E0,-4.745635986E-1,-9.741088867E0,4.048080444E0
6.428131104E0,-4.099121094E-1,-9.741088867E0,3.820617676E0
6.432159424E0,-3.213348389E-1,-9.743484497E0,3.660217285E0
6.436187745E0,-2.279510498E-1,-9.726730347E0,3.597961426E0
6.440185547E0,-1.465606689E-1,-9.674057007E0,3.698516846E0
6.444213868E0,-9.867858887E-2,-9.647720337E0,3.669784546E0
6.448211670E0,-6.036376953E-2,-9.638137817E0,3.557266235E0
6.452239991E0,-3.402709961E-2,-9.628555298E0,3.425582886E0
6.456268311E0,-4.600524902E-2,-9.616592407E0,3.413604736E0
6.460266114E0,-4.838562012E-2,-9.585464478E0,3.459106445E0
6.464294434E0,-4.838562012E-2,-9.523208618E0,3.528533936E0
6.468322754E0,-7.472229004E-2,-9.482513428E0,3.523742676E0
6.472320557E0,-1.727294922E-2,-9.441818237E0,3.289108276E0
6.476348877E0,5.216979980E-2,-9.427444458E0,3.006591797E0
6.480377198E0,8.567810059E-2,-9.437026978E0,2.968292236E0
6.484375000E0,1.192016602E-1,-9.429840088E0,3.095184326E0
6.488403321E0,1.000518799E-1,-9.389144897E0,3.226867676E0
6.492431641E0,5.934143066E-2,-9.276611328E0,3.320236206E0
6.496433086E0,-5.078125000E-2,-9.185638428E0,3.557266235E0
6.500461406E0,-1.561279297E-1,-9.144927979E0,3.892456055E0
6.504489726E0,-2.662658691E-1,-9.065917969E0,4.220458984E0
6.508487529E0,-3.572387695E-1,-8.951004028E0,4.534103394E0
6.512515849E0,-4.290771484E-1,-8.792984009E0,4.802246094E0
6.516544170E0,-5.439910889E-1,-8.666091919E0,5.180526733E0
6.520541972E0,-6.493377686E-1,-8.548782349E0,5.534866333E0
6.524570293E0,-7.594757080E-1,-8.424270630E0,5.793441772E0
6.528568096E0,-8.456573486E-1,-8.287811279E0,5.922729492E0
6.532596416E0,-8.935394287E-1,-8.127395630E0,5.920333862E0
6.536624736E0,-9.605865479E-1,-8.024444580E0,5.917938232E0
6.540622539E0,-9.964904785E-1,-7.928680420E0,5.846115112E0
6.544650859E0,-9.462127686E-1,-7.775451660E0,5.635437012E0
6.548679179E0,-8.360900879E-1,-7.586303711E0,5.305023193E0
6.552676982E0,-6.828613281E-1,-7.445053101E0,5.008148193E0
6.556705303E0,-5.009002686E-1,-7.294219971E0,4.649017334E0
6.560733623E0,-3.141479492E-1,-7.073944092E0,4.263549805E0
6.564731426E0,-1.585235596E-1,-6.865646362E0,4.067230225E0
6.568759746E0,3.779602051E-2,-6.626235962E0,3.904418945E0
6.572788066E0,2.652435303E-1,-6.360473633E0,3.787109375E0
6.576785869E0,5.357971191E-1,-6.121047974E0,3.684158325E0
6.580814189E0,7.823944092E-1,-5.991775513E0,3.655426025E0
6.584842510E0,9.811096191E-1,-5.989379883E0,3.672180176E0
6.588840312E0,1.119979858E0,-6.109085083E0,3.638671875E0
6.592868633E0,1.158279419E0,-6.350891113E0,3.552474976E0
6.596896953E0,1.110397339E0,-6.638198853E0,3.339385986E0
6.600894756E0,9.547729492E-1,-6.906356812E0,3.032928467E0
6.604923076E0,7.129669189E-1,-7.205627441E0,2.633102417E0
6.608920879E0,4.543914795E-1,-7.531234741E0,2.197357178E0
6.612949199E0,1.982116699E-1,-7.866424561E0,1.811889648E0
6.616977519E0,-1.345825195E-1,-8.244705200E0,1.433609009E0
6.620975322E0,-6.613159180E-1,-8.723556519E0,9.763183594E-1
6.625003642E0,-1.322113037E0,-9.276611328E0,4.950714111E-1
6.629031963E0,-1.982910156E0,-9.805725098E0,4.257202148E-2
6.633029765E0,-2.440200806E0,-1.025823975E1,-4.530181885E-1
6.637058086E0,-2.682022095E0,-1.068440247E1,-9.222869873E-1
6.641086406E0,-2.741867065E0,-1.105311584E1,-1.353240967E0
6.645084209E0,-2.567092896E0,-1.132125854E1,-1.846450806E0
6.649112529E0,-2.210357666E0,-1.158702087E1,-2.301345825E0
6.653140849E0,-1.760253906E0,-1.194854736E1,-2.605407715E0
6.657138652E0,-1.408294678E0,-1.252793884E1,-2.603012085E0
6.661166972E0,-1.202392578E0,-1.332281494E1,-2.296554565E0
6.665195293E0,-1.168884277E0,-1.432119751E1,-1.738708496E0
6.669193096E0,-1.269439697E0,-1.548716736E1,-9.462280273E-1
6.673221416E0,-1.420272827E0,-1.677764893E1,-1.727294922E-2
6.677219219E0,-1.551956177E0,-1.808009338E1,8.925170898E-1
6.681247539E0,-1.887145996E0,-1.951661682E1,1.653869629E0
6.685275859E0,-2.365982056E0,-2.097468567E1,2.357772827E0
6.689273662E0,-2.890304565E0,-2.236332703E1,2.891677856E0
6.693301982E0,-3.512802124E0,-2.361309814E1,3.231658936E0
6.697330303E0,-4.092193604E0,-2.447740173E1,3.214889526E0
6.701328105E0,-4.427383423E0,-2.478385925E1,2.695343018E0
6.705356426E0,-4.204727173E0,-2.425952148E1,1.651473999E0
6.709384746E0,-3.500839233E0,-2.296186829E1,2.388916016E-1
6.713382549E0,-2.478500366E0,-2.115185547E1,-1.252685547E0
6.717410869E0,-1.271835327E0,-1.905453491E1,-2.294158936E0
6.721439189E0,-1.800689697E-1,-1.691650391E1,-2.847229004E0
6.725436992E0,7.225341797E-1,-1.483834839E1,-2.904693604E0
6.729465312E0,1.570083618E0,-1.282241821E1,-2.665267944E0
6.733493633E0,2.647476196E0,-1.081608582E1,-2.014038086E0
6.737491435E0,4.021743774E0,-8.974945068E0,-6.110382080E-1
6.741519756E0,5.039291382E0,-7.749114990E0,-7.020263672E-1
6.745548076E0,5.482208252E0,-6.891983032E0,-1.039611816E0
6.749545879E0,5.613891602E0,-6.338928223E0,-8.696136475E-1
6.753574199E0,5.527709961E0,-5.874450684E0,-9.628295898E-2
6.757572002E0,5.407989502E0,-5.371673584E0,8.757629395E-1
6.761600322E0,4.989013672E0,-4.962265015E0,1.890899658E0
6.765628642E0,4.311447144E0,-4.698898315E0,2.611557007E0
6.769626445E0,3.866134644E0,-4.334976196E0,3.528533936E0
6.773654765E0,3.777542114E0,-4.212875366E0,4.165390015E0
6.777683086E0,3.437561035E0,-4.378082275E0,4.143844604E0
6.781680888E0,2.716903687E0,-4.691711426E0,3.533325195E0
6.785709209E0,1.924423218E0,-5.038879395E0,2.731262207E0
6.789737529E0,1.117584229E0,-5.457855225E0,2.077651978E0
6.793735332E0,4.113006592E-1,-5.876846313E0,1.754425049E0
6.797763652E0,-1.705017090E-1,-6.279067993E0,1.677810669E0
6.801791972E0,-7.068023682E-1,-6.844100952E0,1.251647949E0
6.805789775E0,-1.025222778E0,-7.145767212E0,1.368957520E0
6.809818096E0,-1.348449707E0,-7.473785400E0,1.589233398E0
6.813846416E0,-1.609405518E0,-7.756301880E0,1.943572998E0
6.817844219E0,-1.832077026E0,-8.053176880E0,2.338607788E0
6.821872539E0,-2.052337646E0,-8.359634399E0,2.695343018E0
6.825900859E0,-2.327667236E0,-8.699615479E0,2.932373047E0
6.829898662E0,-2.746658325E0,-9.152114868E0,2.925186157E0
6.833926982E0,-3.077056885E0,-9.621383667E0,2.810272217E0
6.837924785E0,-3.318878174E0,-1.005233765E1,2.640289307E0
6.841953105E0,-3.486465454E0,-1.050483704E1,2.235656738E0
6.845981426E0,-3.496047974E0,-1.063891602E1,2.187774658E0
6.849979228E0,-3.563079834E0,-1.072032166E1,2.092010498E0
6.854007549E0,-3.673217773E0,-1.079693604E1,1.852584839E0
6.858035869E0,-3.785736084E0,-1.082087708E1,1.560501099E0
6.862033672E0,-3.938964844E0,-1.092382812E1,1.031387329E0
6.866061992E0,-3.783340454E0,-1.056469727E1,7.488708496E-1
6.870090312E0,-3.620544434E0,-1.021035767E1,4.471893311E-1
6.874088115E0,-3.505615234E0,-9.925445557E0,1.048278809E-1
6.878116435E0,-3.290145874E0,-9.647720337E0,-1.872711182E-1
6.882144756E0,-3.010025024E0,-9.417877197E0,-3.333129883E-1
6.886142558E0,-2.717926025E0,-9.235916138E0,-3.045806885E-1
6.890170879E0,-2.447387695E0,-9.065917969E0,-1.250152588E-1
6.894199199E0,-2.210357666E0,-8.893539429E0,1.383361816E-1
6.898197002E0,-1.911087036E0,-8.654113770E0,4.352264404E-1
6.902225322E0,-1.697998047E0,-8.450607300E0,7.009735107E-1
6.906253642E0,-1.542373657E0,-8.254287720E0,9.164581299E-1
6.910251445E0,-1.358016968E0,-8.067535400E0,1.086441040E0
6.914279765E0,-1.171279907E0,-7.899948120E0,1.230102539E0
6.918277568E0,-9.605865479E-1,-7.691650391E0,1.368957520E0
6.922305888E0,-7.474975586E-1,-7.488143921E0,1.524581909E0
6.926334209E0,-5.368041992E-1,-7.301391602E0,1.713729858E0
6.930332012E0,-3.021850586E-1,-7.126617432E0,1.960327148E0
6.934360332E0,-3.642272949E-2,-6.980575562E0,2.273971558E0
6.938388652E0,2.413024902E-1,-6.887207031E0,2.666625977E0
6.942386455E0,5.812835693E-1,-6.812973022E0,3.102371216E0
6.946414775E0,9.811096191E-1,-6.769882202E0,3.578811646E0
6.950443096E0,1.431228638E0,-6.774673462E0,4.103134155E0
6.954440898E0,1.847808838E0,-6.870437622E0,4.586776733E0
6.958469219E0,2.269195557E0,-7.035644531E0,5.012939453E0
6.962497539E0,2.669021606E0,-7.270278931E0,5.372070312E0
6.966495342E0,3.040130615E0,-7.648559570E0,5.625854492E0
6.970523662E0,3.495025635E0,-8.105850220E0,5.800628662E0
6.974521465E0,4.095977783E0,-8.587081909E0,5.874847412E0
6.978549785E0,4.713668823E0,-9.118591309E0,5.922729492E0
6.982578105E0,5.271530151E0,-9.683624268E0,6.008926392E0
6.986575908E0,5.728820801E0,-1.025823975E1,6.135818481E0
6.990604228E0,6.049636841E0,-1.083044434E1,6.303405762E0
6.994632549E0,6.176528931E0,-1.134759521E1,6.487762451E0
6.998630351E0,6.109497070E0,-1.176179504E1,6.650573730E0
7.002658672E0,5.803039551E0,-1.201797485E1,6.767883301E0
7.006686992E0,5.173355103E0,-1.208023071E1,6.813369751E0
7.010684795E0,4.309051514E0,-1.198684692E1,6.801406860E0
7.014713115E0,3.497421265E0,-1.181686401E1,6.715209961E0
7.018741435E0,2.815078735E0,-1.168278503E1,6.514099121E0
7.022739238E0,2.214126587E0,-1.162771606E1,6.243560791E0
7.026767558E0,1.740081787E0,-1.158222961E1,5.870056152E0
7.030795879E0,1.443191528E0,-1.150321960E1,5.364883423E0
7.034793681E0,1.316299438E0,-1.138111877E1,4.771118164E0
7.038822002E0,1.273208618E0,-1.121591187E1,4.136657715E0
7.042850322E0,1.251663208E0,-1.103395081E1,3.516555786E0
7.046848125E0,1.234893799E0,-1.080410767E1,2.939559937E0
7.050876445E0,1.146316528E0,-1.053117371E1,2.422409058E0
7.054874248E0,9.236602783E-1,-1.023190308E1,1.967514038E0
7.058902568E0,6.148071289E-1,-9.935012817E0,1.505432129E0
7.062930888E0,4.448089600E-1,-9.671661377E0,9.906768799E-1
7.066928691E0,5.070648193E-1,-9.518432617E0,4.687500000E-1
7.070957012E0,6.746520996E-1,-9.561523438E0,6.651306152E-2
7.074985332E0,8.278808594E-1,-9.829666138E0,-1.824798584E-1
7.078983135E0,9.643554688E-1,-1.028697205E1,-3.093719482E-1
7.083011455E0,1.103225708E0,-1.092143250E1,-3.381042480E-1
7.087039775E0,1.323486328E0,-1.166842651E1,-3.165588379E-1
7.091037578E0,1.591629028E0,-1.247047424E1,-1.968383789E-1
7.095065898E0,1.754440308E0,-1.333717346E1,2.342224121E-2
7.099094219E0,1.390518188E0,-1.429725647E1,2.484741211E-1
7.103092021E0,4.807281494E-1,-1.517114258E1,4.855041504E-1
7.107120342E0,-6.469421387E-1,-1.579122925E1,1.014617920E0
7.111148662E0,-1.697998047E0,-1.603784180E1,1.728088379E0
7.115146465E0,-2.555114746E0,-1.589897156E1,2.396072388E0
7.119174785E0,-3.249435425E0,-1.541773987E1,2.700134277E0
7.123203105E0,-3.785736084E0,-1.463244629E1,2.415222168E0
7.127200908E0,-4.211914062E0,-1.360533142E1,1.608383179E0
7.131229228E0,-4.458511353E0,-1.247766113E1,6.506958008E-1
7.135227031E0,-5.057067871E0,-1.153674316E1,-4.099273682E-1
7.139255351E0,-5.540695190E0,-1.078735352E1,-1.326904297E0
7.143283672E0,-5.693923950E0,-1.020796204E1,-1.798568726E0
7.147281474E0,-5.598159790E0,-9.721939087E0,-1.788986206E0
7.151309795E0,-5.224655151E0,-9.281402588E0,-1.422683716E0
7.155338115E0,-4.736236572E0,-8.910293579E0,-8.360900879E-1
7.159335918E0,-4.247817993E0,-8.620605469E0,-2.399444580E-1
7.163364238E0,-3.879119873E0,-8.433853149E0,3.107299805E-1
7.167392558E0,-3.675613403E0,-8.371597290E0,6.387329102E-1
7.171390361E0,-3.560684204E0,-8.419494629E0,8.278656006E-1
7.175418681E0,-3.393096924E0,-8.496109009E0,9.356079102E-1
7.179447002E0,-3.163253784E0,-8.591873169E0,1.091232300E0
7.183444804E0,-3.014816284E0,-8.723556519E0,1.321075439E0
7.187473125E0,-2.995651245E0,-8.912689209E0,1.756820679E0
7.191501445E0,-3.060302734E0,-9.137756348E0,2.357772827E0
7.195499248E0,-3.172821045E0,-9.434631348E0,3.030532837E0
7.199527568E0,-3.347595215E0,-9.812911987E0,3.629089355E0
7.203525371E0,-3.548721313E0,-1.023907471E1,4.158203125E0
7.207553691E0,-3.656448364E0,-1.065087891E1,4.713668823E0
7.211582012E0,-4.144866943E0,-1.118957520E1,5.439102173E0
7.215579814E0,-5.258178711E0,-1.187670898E1,6.075958252E0
7.219608135E0,-6.807220459E0,-1.256146240E1,6.006530762E0
7.223636455E0,-8.119247437E0,-1.302832031E1,5.089553833E0
7.227634258E0,-8.715408325E0,-1.320310974E1,3.892456055E0
7.231662578E0,-8.447250366E0,-1.308099365E1,2.929977417E0
7.235690898E0,-7.487182617E0,-1.274342346E1,2.367340088E0
7.239688701E0,-6.156005859E0,-1.218316650E1,2.285934448E0
7.243717021E0,-4.695541382E0,-1.136196899E1,2.630706787E0
7.247745342E0,-3.474502563E0,-1.044497681E1,3.176589966E0
7.251743144E0,-2.535964966E0,-9.463363647E0,3.892456055E0
7.255771465E0,-1.851226807E0,-8.517654419E0,4.653808594E0
7.259799785E0,-1.417877197E0,-7.744323730E0,4.986602783E0
7.263797588E0,-1.166488647E0,-7.157745361E0,4.450302124E0
7.267825908E0,-1.061141968E0,-6.779464722E0,3.629089355E0
7.271854228E0,-9.917144775E-1,-6.547225952E0,3.028137207E0
7.275852031E0,-8.959350586E-1,-6.348510742E0,2.738449097E0
7.279880351E0,-8.073577881E-1,-6.152175903E0,2.748016357E0
7.283878154E0,-7.882080078E-1,-5.970214844E0,2.891677856E0
7.287906474E0,-8.360900879E-1,-5.816986084E0,3.001800537E0
7.291934795E0,-9.414367676E-1,-5.735595703E0,2.958709717E0
7.295932597E0,-1.034805298E0,-5.625457764E0,3.538116455E0
7.299960918E0,-1.190429688E0,-5.670944214E0,3.588394165E0
7.303989238E0,-1.226333618E0,-5.759536743E0,3.334594727E0
7.307987041E0,-1.137756348E0,-5.862487793E0,2.951522827E0
7.312015361E0,-9.893188477E-1,-6.013320923E0,2.508605957E0
7.316043681E0,-7.762298584E-1,-6.207244873E0,2.149475098E0
7.320041484E0,-5.344085693E-1,-6.408355713E0,2.039337158E0
7.324069804E0,-3.141479492E-1,-6.652572632E0,2.065673828E0
7.328098125E0,-1.297912598E-1,-6.970993042E0,1.965118408E0
7.332095928E0,-1.273956299E-1,-7.282241821E0,2.350585938E0
7.336124248E0,-2.088012695E-1,-7.638977051E0,2.769577026E0
7.340152568E0,-2.566833496E-1,-8.067535400E0,2.779144287E0
7.344150371E0,-2.782287598E-1,-8.546386719E0,2.475082397E0
7.348178691E0,-2.614746094E-1,-8.970153809E0,2.070465088E0
7.352207012E0,-2.782287598E-1,-9.393936157E0,1.687393188E0
7.356204814E0,-3.524627686E-1,-9.887130737E0,1.345016479E0
7.360233135E0,-3.787994385E-1,-1.031568909E1,1.254043579E0
7.364230937E0,-3.979492188E-1,-1.067961121E1,1.371353149E0
7.368259258E0,-4.577941895E-1,-1.096452332E1,1.646682739E0
7.372287578E0,-5.176544189E-1,-1.118957520E1,1.967514038E0
7.376285381E0,-5.511779785E-1,-1.137393188E1,2.204544067E0
7.380313701E0,-4.985046387E-1,-1.152955627E1,2.333831787E0
7.384342021E0,-4.075164795E-1,-1.155828857E1,2.647460938E0
7.388339824E0,-4.266815186E-1,-1.149603271E1,3.123916626E0
7.392368144E0,-5.080718994E-1,-1.157025146E1,2.793518066E0
7.396396465E0,-5.248413086E-1,-1.164686584E1,2.142288208E0
7.400394267E0,-4.793548584E-1,-1.171870422E1,1.436004639E0
7.404422588E0,-4.170989990E-1,-1.171391296E1,1.175033569E0
7.408450908E0,-4.051361084E-1,-1.159898376E1,1.340225220E0
7.412448711E0,-4.673767090E-1,-1.139547729E1,1.622741699E0
7.416477031E0,-5.032958984E-1,-1.114888000E1,1.797531128E0
7.420505351E0,-5.248413086E-1,-1.086875916E1,1.898086548E0
7.424503154E0,-5.391998291E-1,-1.060778809E1,1.991455078E0
7.428531474E0,-5.272369385E-1,-1.036358643E1,2.068069458E0
7.432529277E0,-4.913177490E-1,-1.012416077E1,2.245239258E0
7.436557597E0,-4.841308594E-1,-9.896713257E0,2.513397217E0
7.440585918E0,-4.865264893E-1,-9.688415527E0,2.865341187E0
7.444583721E0,-4.985046387E-1,-9.506454468E0,3.195739746E0
7.448612041E0,-4.577941895E-1,-9.290985107E0,3.495010376E0
7.452640361E0,-4.434356689E-1,-9.080291748E0,3.844573975E0
7.456638164E0,-4.649810791E-1,-8.898330688E0,4.230026245E0
7.460666484E0,-5.296325684E-1,-8.742706299E0,4.524520874E0
7.464694804E0,-5.056915283E-1,-8.627777100E0,4.500579834E0
7.468692607E0,-4.482269287E-1,-8.505676270E0,4.426361084E0
7.472720928E0,-3.716125488E-1,-8.359634399E0,4.529312134E0
7.476749248E0,-2.111968994E-1,-8.187255859E0,4.814224243E0
7.480747051E0,-7.951354980E-2,-8.012481689E0,4.821395874E0
7.484775371E0,6.892395020E-2,-7.868820190E0,4.500579834E0
7.488803691E0,1.862335205E-1,-7.775451660E0,4.074417114E0
7.492801494E0,2.460937500E-1,-7.749114990E0,3.698516846E0
7.496829814E0,3.155212402E-1,-7.775451660E0,3.451919556E0
7.500858135E0,3.274993896E-1,-7.808959961E0,3.547683716E0
7.504855937E0,2.844085693E-1,-7.890365601E0,3.808654785E0
7.508884258E0,1.982116699E-1,-8.055572510E0,3.937942505E0
7.512882060E0,1.192016602E-1,-8.232742310E0,4.086380005E0
7.516910381E0,5.456542969E-2,-8.441040039E0,4.021743774E0
7.520938701E0,1.145935059E-2,-8.728347778E0,3.542892456E0
7.524936504E0,-2.923583984E-2,-9.015640259E0,3.119125366E0
7.528964824E0,-9.149169922E-2,-9.276611328E0,3.056869507E0
7.532993144E0,-1.585235596E-1,-9.441818237E0,3.341781616E0
7.536990947E0,-2.662658691E-1,-9.554336548E0,3.667388916E0
7.541019267E0,-4.434356689E-1,-9.664474487E0,3.954696655E0
7.545047588E0,-6.110229492E-1,-9.755447388E0,4.208480835E0
7.549045390E0,-7.355346680E-1,-9.839248657E0,4.534103394E0
7.553073711E0,-8.001708984E-1,-9.911071777E0,4.893234253E0
7.557102031E0,-8.504486084E-1,-9.937408447E0,5.221237183E0
7.561099834E0,-8.983306885E-1,-9.920654297E0,5.508544922E0
7.565128154E0,-9.557952881E-1,-9.870376587E0,5.738388062E0
7.569156474E0,-1.020431519E0,-9.808120728E0,5.896392822E0
7.573154277E0,-1.053955078E0,-9.702774048E0,5.889221191E0
7.577182597E0,-1.046768188E0,-9.556732178E0,5.786270142E0
7.581180400E0,-9.773406982E-1,-9.369979858E0,5.592330933E0
7.585208721E0,-8.648223877E-1,-9.092254639E0,5.269119263E0
7.589237041E0,-7.522888184E-1,-8.809738159E0,4.933929443E0
7.593234844E0,-6.038513184E-1,-8.532012939E0,4.572402954E0
7.597263164E0,-4.338531494E-1,-8.242324829E0,4.208480835E0
7.601291484E0,-2.638702393E-1,-7.919097900E0,3.925964355E0
7.605289287E0,-6.755065918E-2,-7.598281860E0,3.830200195E0
7.609317607E0,1.263885498E-1,-7.301391602E0,3.875686646E0
7.613345928E0,3.490447998E-1,-7.028457642E0,3.914001465E0
7.617343730E0,5.717010498E-1,-6.791427612E0,3.935546875E0
7.621372051E0,7.464752197E-1,-6.688476562E0,3.909210205E0
7.625400371E0,8.733673096E-1,-6.705245972E0,3.825408936E0
7.629398174E0,8.805541992E-1,-6.846496582E0,3.770339966E0
7.633426494E0,8.901367188E-1,-7.006912231E0,3.576416016E0
7.637454814E0,8.159179688E-1,-7.188873291E0,3.279541016E0
7.641452617E0,7.009887695E-1,-7.370834351E0,2.922805786E0
7.645480937E0,5.812835693E-1,-7.519271851E0,2.410446167E0
7.649509258E0,3.777770996E-1,-7.684463501E0,1.919631958E0
7.653507060E0,1.670837402E-1,-7.835296631E0,1.469512939E0
7.657535381E0,-1.250000000E-1,-8.029235840E0,1.069686890E0
7.661533183E0,-4.410400391E-1,-8.261474609E0,6.626739502E-1
7.665561504E0,-8.312988281E-1,-8.587081909E0,2.436828613E-1
7.669589824E0,-1.209579468E0,-9.049163818E0,-1.513519287E-1
7.673587627E0,-1.597442627E0,-9.583068848E0,-5.032958984E-1
7.677615947E0,-1.949386597E0,-1.009542847E1,-8.624267578E-1
7.681644267E0,-2.253448486E0,-1.056469727E1,-1.132980347E0
7.685642070E0,-2.476119995E0,-1.096931458E1,-1.250289917E0
7.689670390E0,-2.504837036E0,-1.130210876E1,-1.264663696E0
7.693698711E0,-2.334854126E0,-1.160856628E1,-1.221557617E0
7.697696513E0,-2.047546387E0,-1.199882507E1,-9.749603271E-1
7.701724834E0,-1.688415527E0,-1.248245239E1,-5.152740479E-1
7.705753154E0,-1.233520508E0,-1.311691284E1,-1.633300781E-1
7.709750957E0,-8.911590576E-1,-1.396206665E1,2.005920410E-1
7.713779277E0,-5.391998291E-1,-1.492692566E1,5.669097900E-1
7.717807597E0,-4.793548584E-1,-1.617430115E1,9.858856201E-1
7.721805400E0,-6.636962891E-1,-1.756533813E1,1.644302368E0
7.725833721E0,-9.294586182E-1,-1.906411743E1,2.391281128E0
7.729862041E0,-1.346054077E0,-2.067062378E1,3.133483887E0
7.733859844E0,-1.772216797E0,-2.213825989E1,3.741622925E0
7.737888164E0,-2.119384766E0,-2.330424500E1,3.856536865E0
7.741885967E0,-2.423446655E0,-2.403207397E1,3.370513916E0
7.745914287E0,-2.504837036E0,-2.411347961E1,2.273971558E0
7.749942607E0,-2.124160767E0,-2.337127686E1,7.512512207E-1
7.753940410E0,-1.432235718E0,-2.197067261E1,-8.768005371E-1
7.757968730E0,-6.086425781E-1,-2.013192749E1,-2.243881226E0
7.761997051E0,2.891845703E-1,-1.802742004E1,-3.045944214E0
7.765994853E0,1.206161499E0,-1.583673096E1,-3.548721313E0
7.770023174E0,2.001037598E0,-1.378968811E1,-4.264587402E0
7.774051494E0,2.642684937E0,-1.194375610E1,-4.937362671E0
7.778049297E0,3.241241455E0,-1.026541138E1,-5.365921021E0
7.782077617E0,3.679382324E0,-8.900726318E0,-5.555068970E0
7.786105937E0,4.095977783E0,-7.959808350E0,-5.298889160E0
7.790103740E0,4.665786743E0,-7.162536621E0,-4.408248901E0
7.794132060E0,5.326583862E0,-6.401184082E0,-2.820892334E0
7.798160381E0,5.743179321E0,-5.721221924E0,-1.041992188E0
7.802158183E0,5.518127441E0,-5.307022095E0,1.215820312E-1
7.806186504E0,5.142242432E0,-5.041275024E0,1.196578979E0
7.810184306E0,4.658615112E0,-4.785095215E0,2.039337158E0
7.814212627E0,4.215682983E0,-4.629470825E0,2.918014526E0
7.818240947E0,3.545303345E0,-4.785095215E0,3.818237305E0
7.822238750E0,2.788742065E0,-5.038879395E0,3.969070435E0
7.826267070E0,2.044143677E0,-5.297454834E0,3.339385986E0
7.830295390E0,1.505447388E0,-5.412368774E0,2.618728638E0
7.834293193E0,8.183135986E-1,-5.642211914E0,2.242843628E0
7.838321513E0,-4.600524902E-2,-5.963043213E0,2.252426147E0
7.842349834E0,-6.996154785E-1,-6.425125122E0,2.017791748E0
7.846347637E0,-1.022827148E0,-6.633407593E0,2.029754639E0
7.850375957E0,-1.264648438E0,-6.906356812E0,2.041732788E0
7.854404277E0,-1.530410767E0,-7.251113892E0,2.063278198E0
7.858402080E0,-1.772216797E0,-7.571945190E0,2.204544067E0
7.862430400E0,-2.064315796E0,-7.945434570E0,2.379318237E0
7.866458721E0,-2.327667236E0,-8.350051880E0,2.544509888E0
7.870456523E0,-2.550338745E0,-8.692428589E0,2.829421997E0
7.874484844E0,-2.715530396E0,-9.022827148E0,3.085601807E0
7.878513164E0,-2.907073975E0,-9.391540527E0,3.164611816E0
7.882510967E0,-3.072265625E0,-9.803344727E0,3.090393066E0
7.886539287E0,-3.139312744E0,-1.017443848E1,2.908432007E0
7.890537090E0,-3.247039795E0,-1.060060120E1,2.484664917E0
7.894565410E0,-3.065093994E0,-1.066525269E1,2.367340088E0
7.898593730E0,-2.873550415E0,-1.060539246E1,2.271575928E0
7.902591533E0,-2.907073975E0,-1.061018372E1,1.993850708E0
7.906619853E0,-2.866363525E0,-1.056230164E1,1.670639038E0
7.910648174E0,-2.818481445E0,-1.043780518E1,1.330657959E0
7.914645976E0,-2.737075806E0,-1.024386597E1,1.021804810E0
7.918674297E0,-2.595825195E0,-1.001162720E1,7.368927002E-1
7.922702617E0,-2.581451416E0,-9.757843018E0,5.070495605E-1
7.926700420E0,-2.413864136E0,-9.429840088E0,4.591674805E-1
7.930728740E0,-2.243881226E0,-9.204788208E0,5.022583008E-1
7.934757060E0,-2.006851196E0,-9.010848999E0,6.578826904E-1
7.938754863E0,-1.714752197E0,-8.792984009E0,9.451904297E-1
7.942783183E0,-1.487304688E0,-8.560745239E0,1.335449219E0
7.946811504E0,-1.312530518E0,-8.335693359E0,1.759216309E0
7.950809306E0,-1.183242798E0,-8.113037109E0,2.106369019E0
7.954837627E0,-1.068328857E0,-7.878402710E0,2.345794678E0
7.958865947E0,-9.701538086E-1,-7.667709351E0,2.491836548E0
7.962863750E0,-8.959350586E-1,-7.502502441E0,2.534942627E0
7.966892070E0,-7.690429688E-1,-7.358856201E0,2.546905518E0
7.970889873E0,-5.870819092E-1,-7.251113892E0,2.592391968E0
7.974918193E0,-3.285217285E-1,-7.152954102E0,2.719299316E0
7.978946513E0,2.343750000E-2,-7.057189941E0,2.946746826E0
7.982944316E0,3.993225098E-1,-7.033248901E0,3.207702637E0
7.986972637E0,8.494262695E-1,-7.090713501E0,3.473464966E0
7.991000957E0,1.426437378E0,-7.186477661E0,3.751190186E0
7.994998760E0,2.070480347E0,-7.310974121E0,4.038497925E0
7.999027080E0,2.726486206E0,-7.468994141E0,4.285095215E0
8.003055400E0,3.325042725E0,-7.686859131E0,4.550857544E0
8.007053203E0,3.854156494E0,-7.971771240E0,4.833374023E0
8.011081523E0,4.431152344E0,-8.304565430E0,5.178131104E0
8.015109844E0,5.046463013E0,-8.670883179E0,5.546844482E0
8.019107646E0,5.647415161E0,-9.085083008E0,5.846115112E0
8.023135967E0,6.229202271E0,-9.566314697E0,5.992172241E0
8.027164287E0,6.763107300E0,-1.010261536E1,5.965835571E0
8.031162090E0,7.227584839E0,-1.062454224E1,5.834152222E0
8.035190410E0,7.526855469E0,-1.107945251E1,5.714431763E0
8.039188213E0,7.445465088E0,-1.142660522E1,5.628250122E0
8.043216533E0,6.870849609E0,-1.157264709E1,5.577972412E0
8.047244853E0,5.958663940E0,-1.146012878E1,5.609100342E0
8.051242656E0,5.041687012E0,-1.115846252E1,5.779083252E0
8.055270976E0,4.258773804E0,-1.079454041E1,5.975402832E0
8.059299297E0,3.607559204E0,-1.044976807E1,6.128631592E0
8.063297099E0,3.076034546E0,-1.015768433E1,6.169342041E0
8.067325420E0,2.652267456E0,-9.944595337E0,6.037658691E0
8.071353740E0,2.405670166E0,-9.781784058E0,5.764709473E0
8.075351543E0,2.329055786E0,-9.630950928E0,5.415161133E0
8.079379863E0,2.307495117E0,-9.504058838E0,5.015335083E0
8.083408183E0,2.278778076E0,-9.374771118E0,4.581985474E0
8.087405986E0,2.159057617E0,-9.267028809E0,4.112716675E0
8.091434306E0,1.828659058E0,-9.168869019E0,3.554870605E0
8.095462627E0,1.395309448E0,-9.010848999E0,2.951522827E0
8.099460429E0,9.978790283E-1,-8.972549438E0,2.221298218E0
8.103488750E0,8.470458984E-1,-9.070709229E0,1.390502930E0
8.107517070E0,8.302764893E-1,-9.341262817E0,6.291503906E-1
8.111514873E0,7.608489990E-1,-9.800949097E0,5.215454102E-2
8.115543193E0,6.315612793E-1,-1.040188599E1,-2.974090576E-1
8.119540996E0,4.974822998E-1,-1.112493896E1,-4.769744873E-1
8.123569316E0,4.017181396E-1,-1.200839233E1,-6.062469482E-1
8.127597637E0,2.748260498E-1,-1.304029846E1,-7.523040771E-1
8.131595439E0,4.019165039E-2,-1.420866394E1,-9.558105469E-1
8.135623760E0,-4.913177490E-1,-1.549914551E1,-1.231140137E0
8.139652080E0,-1.192825317E0,-1.670103455E1,-1.336486816E0
8.143649883E0,-1.638137817E0,-1.759167480E1,-9.486236572E-1
8.147678203E0,-2.133743286E0,-1.824530029E1,-4.195098877E-1
8.151706523E0,-3.024383545E0,-1.871934509E1,-3.620452881E-1
8.155704326E0,-4.053894043E0,-1.876722717E1,-6.110382080E-1
8.159732646E0,-5.104949951E0,-1.828599548E1,-8.289184570E-1
8.163760967E0,-6.091354370E0,-1.713917542E1,-1.094665527E0
8.167758769E0,-6.613296509E0,-1.543688965E1,-1.492111206E0
8.171787090E0,-6.622863770E0,-1.363406372E1,-1.796173096E0
8.175815410E0,-6.213455200E0,-1.203712463E1,-1.702804565E0
8.179813213E0,-5.710678101E0,-1.073468018E1,-1.171279907E0
8.183841533E0,-5.198318481E0,-9.674057007E0,-2.806396484E-1
8.187839336E0,-4.559066772E0,-8.778625488E0,7.392883301E-1
8.191867656E0,-4.135299683E0,-8.022048950E0,1.627532959E0
8.195895976E0,-3.622940063E0,-7.399551392E0,2.180603027E0
8.199893779E0,-3.112976074E0,-6.956634521E0,2.350585938E0
8.203922099E0,-2.607788086E0,-6.695663452E0,2.228485107E0
8.207950420E0,-2.138534546E0,-6.619049072E0,2.034545898E0
8.211948222E0,-1.666870117E0,-6.662139893E0,1.917236328E0
8.215976543E0,-1.267044067E0,-6.777069092E0,2.120742798E0
8.220004863E0,-1.228729248E0,-7.102676392E0,2.518173218E0
8.224002666E0,-1.537582397E0,-7.598281860E0,3.207702637E0
8.228030986E0,-2.150497437E0,-8.160919189E0,4.016952515E0
8.232059306E0,-2.844818115E0,-8.709182739E0,4.773513794E0
8.236057109E0,-3.385910034E0,-9.202392578E0,5.343338013E0
8.240085429E0,-3.816864014E0,-9.717147827E0,5.625854492E0
8.244113750E0,-4.338806152E0,-1.028697205E1,5.542053223E0
8.248111553E0,-4.808059692E0,-1.087355042E1,5.300247192E0
8.252139873E0,-5.294082642E0,-1.149363708E1,4.876464844E0
8.256168193E0,-5.725051880E0,-1.209458923E1,4.352142334E0
8.260165996E0,-6.103332520E0,-1.265722656E1,3.899627686E0
8.264194316E0,-6.364303589E0,-1.313606262E1,3.583602905E0
8.268192119E0,-6.574981689E0,-1.354307556E1,3.243621826E0
