"Time (s)","Gyroscope x (rad/s)","Gyroscope y (rad/s)","Gyroscope z (rad/s)"
9.234619200E-2,1.175689697E-1,1.226654053E-1,5.346679688E-2
9.634399500E-2,9.092712402E-2,1.397094727E-1,6.091308594E-2
1.003723150E-1,6.536865234E-2,1.492919922E-1,6.623840332E-2
1.044006350E-1,3.979492188E-2,1.514282227E-1,6.730651855E-2
1.084289550E-1,1.210021973E-2,1.461029053E-1,6.837463379E-2
1.124267580E-1,-1.026916504E-2,1.386413574E-1,6.518554688E-2
1.164550790E-1,-3.157043457E-2,1.226654053E-1,5.986022949E-2
1.204833990E-1,-4.968261719E-2,1.034851074E-1,5.346679688E-2
1.244812020E-1,-6.565856934E-2,8.325195312E-2,4.707336426E-2
1.285095220E-1,-7.844543457E-2,5.769348145E-2,3.961181641E-2
1.325378420E-1,-8.909606934E-2,2.786254883E-2,3.215026855E-2
1.365356450E-1,-9.335327148E-2,-9.002685547E-4,2.363586426E-2
1.405639650E-1,-9.548950195E-2,-2.647399902E-2,1.617431641E-2
1.445922860E-1,-9.123229980E-2,-4.884338379E-2,8.728027344E-3
1.486206060E-1,-7.737731934E-2,-6.375122070E-2,2.334594727E-3
1.526184090E-1,-5.926513672E-2,-7.546997070E-2,-7.263183594E-3
1.566467290E-1,-3.689575195E-2,-8.293151855E-2,-1.791381836E-2
1.606750490E-1,-1.345825195E-2,-8.186340332E-2,-3.388977051E-2
1.646728520E-1,1.210021973E-2,-7.228088379E-2,-5.093383789E-2
1.687011720E-1,3.660583496E-2,-6.163024902E-2,-6.690979004E-2
1.727294930E-1,5.790710449E-2,-4.670715332E-2,-7.969665527E-2
1.767272950E-1,7.495117188E-2,-3.073120117E-2,-9.248352051E-2
1.807556160E-1,8.666992188E-2,-1.049804688E-2,-9.992980957E-2
1.847839360E-1,9.306335449E-2,7.614135742E-3,-1.042022705E-1
1.887817390E-1,9.306335449E-2,2.465820312E-2,-1.052551270E-1
1.928100590E-1,8.773803711E-2,3.637695312E-2,-1.009979248E-1
1.968383790E-1,7.708740234E-2,4.383850098E-2,-9.674072266E-2
2.008361820E-1,6.430053711E-2,4.597473145E-2,-8.927917480E-2
2.048645020E-1,4.832458496E-2,4.597473145E-2,-7.969665527E-2
2.088928230E-1,3.234863281E-2,4.170227051E-2,-6.797790527E-2
2.128906250E-1,1.742553711E-2,3.211975098E-2,-5.625915527E-2
2.169189460E-1,4.653930664E-3,1.614379883E-2,-4.560852051E-2
2.209472660E-1,-6.011962891E-3,-8.361816406E-3,-3.602600098E-2
2.249450690E-1,-1.452636719E-2,-3.179931641E-2,-2.963256836E-2
2.289733890E-1,-2.198791504E-2,-5.628967285E-2,-2.642822266E-2
2.330017090E-1,-2.410888672E-2,-8.505249023E-2,-2.536010742E-2
2.369995120E-1,-2.305603027E-2,-1.095581055E-1,-2.536010742E-2
2.410278320E-1,-2.305603027E-2,-1.266021729E-1,-2.536010742E-2
2.450561530E-1,-2.091979980E-2,-1.372528076E-1,-2.642822266E-2
2.490539550E-1,-1.773071289E-2,-1.415252686E-1,-2.856445312E-2
2.530822760E-1,-1.452636719E-2,-1.404571533E-1,-3.814697266E-2
2.571105960E-1,-1.133728027E-2,-1.404571533E-1,-5.307006836E-2
2.611083990E-1,-1.133728027E-2,-1.393890381E-1,-6.797790527E-2
2.651367190E-1,-1.133728027E-2,-1.372528076E-1,-8.395385742E-2
2.691650390E-1,-1.452636719E-2,-1.372528076E-1,-1.020660400E-1
2.731628420E-1,-2.198791504E-2,-1.372528076E-1,-1.212463379E-1
2.771911620E-1,-2.944946289E-2,-1.425781250E-1,-1.436157227E-1
2.812194830E-1,-3.796386719E-2,-1.606903076E-1,-1.649169922E-1
2.852172860E-1,-4.968261719E-2,-1.851959229E-1,-1.840972900E-1
2.892456060E-1,-6.140136719E-2,-2.139587402E-1,-2.064666748E-1
2.932434090E-1,-7.098388672E-2,-2.469787598E-1,-2.245788574E-1
2.972717290E-1,-7.951354980E-2,-2.842712402E-1,-2.362823486E-1
3.013000490E-1,-8.802795410E-2,-3.194122314E-1,-2.426757812E-1
3.052978520E-1,-9.335327148E-2,-3.588256836E-1,-2.426757812E-1
3.093261720E-1,-9.228515625E-2,-3.993072510E-1,-2.352294922E-1
3.133544930E-1,-9.016418457E-2,-4.376678467E-1,-2.235107422E-1
3.173522950E-1,-8.590698242E-2,-4.802703857E-1,-2.075347900E-1
3.213806160E-1,-7.951354980E-2,-5.260772705E-1,-1.894226074E-1
3.254089360E-1,-7.098388672E-2,-5.836029053E-1,-1.723785400E-1
3.294067390E-1,-6.246948242E-2,-6.634979248E-1,-1.563873291E-1
3.334350590E-1,-5.181884766E-2,-7.849426270E-1,-1.468048096E-1
3.374633790E-1,-4.542541504E-2,-9.457855225E-1,-1.436157227E-1
3.414611820E-1,-5.075073242E-2,-1.136474609E0,-1.500091553E-1
3.454895020E-1,-5.926513672E-2,-1.342071533E0,-1.606597900E-1
3.495178230E-1,-7.205200195E-2,-1.550857544E0,-1.744995117E-1
3.535156250E-1,-8.802795410E-2,-1.753265381E0,-1.862182617E-1
3.575439460E-1,-1.018829346E-1,-1.941818237E0,-2.032623291E-1
3.615722660E-1,-1.136016846E-1,-2.117584229E0,-2.256317139E-1
3.655700690E-1,-1.306457520E-1,-2.289093018E0,-2.597198486E-1
3.695983890E-1,-1.530151367E-1,-2.445678711E0,-3.065948486E-1
3.735961920E-1,-1.860351562E-1,-2.572448730E0,-3.705139160E-1
3.776245120E-1,-2.286529541E-1,-2.657669067E0,-4.418792725E-1
3.816528320E-1,-2.755126953E-1,-2.716262817E0,-5.239105225E-1
3.856506350E-1,-3.202667236E-1,-2.759933472E0,-6.091308594E-1
3.896789550E-1,-3.660583496E-1,-2.806808472E0,-7.007446289E-1
3.937072760E-1,-4.076080322E-1,-2.868591309E0,-7.923583984E-1
3.977050790E-1,-4.438323975E-1,-2.923995972E0,-8.797149658E-1
4.017333990E-1,-4.757843018E-1,-2.955947876E0,-9.617309570E-1
4.057617190E-1,-5.034790039E-1,-2.960205078E0,-1.032043457E0
4.097595220E-1,-5.290527344E-1,-2.929321289E0,-1.095962524E0
4.137878420E-1,-5.514221191E-1,-2.861145020E0,-1.147094727E0
4.178161620E-1,-5.759277344E-1,-2.770584106E0,-1.185440063E0
4.218139650E-1,-5.961608887E-1,-2.673645020E0,-1.203552246E0
4.258422860E-1,-6.164093018E-1,-2.582046509E0,-1.196090698E0
4.298706060E-1,-6.366424561E-1,-2.502151489E0,-1.159866333E0
4.338684090E-1,-6.590118408E-1,-2.431838989E0,-1.092758179E0
4.378967290E-1,-6.813812256E-1,-2.382827759E0,-1.002212524E0
4.418945320E-1,-7.058868408E-1,-2.380706787E0,-8.903656006E-1
4.459228520E-1,-7.325134277E-1,-2.445678711E0,-7.614593506E-1
4.499511720E-1,-7.644805908E-1,-2.554336548E0,-6.219177246E-1
4.539489750E-1,-8.241271973E-1,-2.599090576E0,-4.546661377E-1
4.579772950E-1,-9.370422363E-1,-2.566055298E0,-2.362823486E-1
4.620056160E-1,-1.070205688E0,-2.579910278E0,-7.011413574E-2
4.660034180E-1,-1.189514160E0,-2.666198730E0,1.937866211E-2
4.700317390E-1,-1.265151978E0,-2.817459106E0,3.321838379E-2
4.740600590E-1,-1.283264160E0,-3.004943848E0,-1.684570312E-2
4.780578620E-1,-1.258758545E0,-3.229721069E0,-1.212463379E-1
4.820861820E-1,-1.223602295E0,-3.488586426E0,-2.501373291E-1
4.861145020E-1,-1.214019775E0,-3.718673706E0,-3.843536377E-1
4.901123050E-1,-1.237457275E0,-3.842254639E0,-5.270996094E-1
4.941406250E-1,-1.293914795E0,-3.799636841E0,-6.719818115E-1
4.981689460E-1,-1.383392334E0,-3.624938965E0,-7.891540527E-1
5.021667480E-1,-1.509094238E0,-3.398025513E0,-8.669281006E-1
5.061950690E-1,-1.665695190E0,-3.220138550E0,-9.127349854E-1
5.102233890E-1,-1.823348999E0,-3.115737915E0,-9.351043701E-1
5.142211920E-1,-1.935195923E0,-2.987899780E0,-9.159240723E-1
5.182495120E-1,-1.979934692E0,-2.771652222E0,-8.456268311E-1
5.222473150E-1,-1.958633423E0,-2.491485596E0,-7.316436768E-1
5.262756350E-1,-1.891525269E0,-2.219848633E0,-5.825042725E-1
5.303039550E-1,-1.787124634E0,-2.008926392E0,-4.141845703E-1
5.343017580E-1,-1.658233643E0,-1.867248535E0,-2.469482422E-1
5.383300790E-1,-1.513351440E0,-1.782028198E0,-9.780883789E-2
5.423583990E-1,-1.363159180E0,-1.744735718E0,1.191711426E-2
5.463562020E-1,-1.220413208E0,-1.752197266E0,7.369995117E-2
5.503845220E-1,-1.104293823E0,-1.742614746E0,1.056671143E-1
5.544128420E-1,-1.037185669E0,-1.674438477E0,1.163177490E-1
5.584106450E-1,-1.028656006E0,-1.534881592E0,1.259002686E-1
5.624389650E-1,-1.077667236E0,-1.322891235E0,1.429443359E-1
5.664672860E-1,-1.167144775E0,-1.062973022E0,1.759643555E-1
5.704650880E-1,-1.261947632E0,-8.094329834E-1,2.207031250E-1
5.744934090E-1,-1.331192017E0,-5.921325684E-1,2.665100098E-1
5.785217290E-1,-1.359954834E0,-4.238128662E-1,3.016662598E-1
5.825195320E-1,-1.345046997E0,-2.906494141E-1,3.229675293E-1
5.865478520E-1,-1.297103882E0,-1.628265381E-1,3.410797119E-1
5.905456550E-1,-1.223602295E0,-3.073120117E-2,3.687744141E-1
5.945739750E-1,-1.144775391E0,1.098785400E-1,4.167175293E-1
5.986022950E-1,-1.112823486E0,3.335876465E-1,4.795684814E-1
6.026000980E-1,-1.140518188E0,5.200042725E-1,5.690460205E-1
6.066284180E-1,-1.155426025E0,4.848632812E-1,7.053985596E-1
6.106567390E-1,-1.195907593E0,3.538360596E-1,8.651885986E-1
6.146545410E-1,-1.272598267E0,1.162719727E-1,1.004745483E0
6.186828620E-1,-1.373809814E0,-1.915893555E-1,1.111267090E0
6.227111820E-1,-1.501632690E0,-5.101013184E-1,1.177322388E0
6.267089850E-1,-1.664627075E0,-8.073120117E-1,1.208206177E0
6.307373050E-1,-1.870223999E0,-1.087478638E0,1.209274292E0
6.347656250E-1,-2.112030029E0,-1.347396851E0,1.200759888E0
6.387634280E-1,-2.380477905E0,-1.581756592E0,1.198623657E0
6.427917480E-1,-2.651062012E0,-1.826766968E0,1.215667725E0
6.468200690E-1,-2.897140503E0,-2.115447998E0,1.252944946E0
6.508178710E-1,-3.109115601E0,-2.421188354E0,1.310470581E0
6.548461920E-1,-3.280624390E0,-2.721588135E0,1.390365601E0
6.588745120E-1,-3.412719727E0,-3.018798828E0,1.492630005E0
6.628723150E-1,-3.507537842E0,-3.322402954E0,1.616210938E0
6.669006350E-1,-3.566116333E0,-3.638778687E0,1.760009766E0
6.708984380E-1,-3.598083496E0,-3.939193726E0,1.930465698E0
6.749267580E-1,-3.605529785E0,-4.196975708E0,2.126464844E0
6.789550790E-1,-3.584228516E0,-4.380203247E0,2.344848633E0
6.829528810E-1,-3.526702881E0,-4.461166382E0,2.589859009E0
6.869812020E-1,-3.416976929E0,-4.424942017E0,2.867889404E0
6.910095220E-1,-3.203933716E0,-4.259826660E0,3.157638550E0
6.950073250E-1,-2.783157349E0,-3.916809082E0,3.445266724E0
6.990356450E-1,-2.168487549E0,-3.487518311E0,3.716903687E0
7.030639650E-1,-1.525070190E0,-3.154083252E0,3.924636841E0
7.070617680E-1,-9.168090820E-1,-2.946365356E0,4.056732178E0
7.110900880E-1,-3.436889648E-1,-2.824920654E0,4.117446899E0
7.151184090E-1,1.985321045E-1,-2.767395020E0,4.116378784E0
7.191162110E-1,6.938781738E-1,-2.758880615E0,4.067382812E0
7.231445320E-1,1.123168945E0,-2.747161865E0,4.010925293E0
7.271728520E-1,1.478973389E0,-2.665130615E0,4.004531860E0
7.311706550E-1,1.764465332E0,-2.506408691E0,4.017318726E0
7.351989750E-1,1.989227295E0,-2.304000854E0,3.976837158E0
7.391967780E-1,2.153289795E0,-2.092010498E0,3.835144043E0
7.432250980E-1,2.252349854E0,-1.889617920E0,3.612518311E0
7.472534180E-1,2.276855469E0,-1.729827881E0,3.323822021E0
7.512512210E-1,2.217193604E0,-1.689346313E0,2.966964722E0
7.552795410E-1,2.051025391E0,-1.822509766E0,2.541915894E0
7.593078620E-1,1.768722534E0,-2.126098633E0,2.043380737E0
7.633056640E-1,1.379898071E0,-2.487228394E0,1.487304688E0
7.673339850E-1,9.314270020E-1,-2.734375000E0,9.141998291E-1
7.713623050E-1,4.808197021E-1,-2.791900635E0,4.049987793E-1
7.753601080E-1,7.176208496E-2,-2.720520020E0,6.518554688E-2
7.793884280E-1,-2.595367432E-1,-2.636367798E0,-5.839538574E-2
7.834167480E-1,-4.981536865E-1,-2.620391846E0,1.983642578E-4
7.874145510E-1,-6.568756104E-1,-2.703475952E0,1.791687012E-1
7.914428710E-1,-7.559509277E-1,-2.862197876E0,4.188537598E-1
7.954711920E-1,-8.060150146E-1,-3.043304443E0,6.638641357E-1
7.994689950E-1,-8.241271973E-1,-3.204147339E0,8.854370117E-1
8.034973150E-1,-8.188018799E-1,-3.294708252E0,1.072921753E0
8.074951180E-1,-7.996215820E-1,-3.300033569E0,1.231643677E0
8.115234380E-1,-7.666015625E-1,-3.249954224E0,1.377593994E0
8.155517580E-1,-7.048187256E-1,-3.244628906E0,1.538436890E0
8.195495610E-1,-5.940246582E-1,-3.366073608E0,1.739776611E0
8.235778810E-1,-4.299774170E-1,-3.572738647E0,1.973068237E0
8.276062020E-1,-2.307739258E-1,-3.755966187E0,2.205291748E0
8.316040040E-1,-9.201049805E-3,-3.845443726E0,2.413024902E0
8.356323250E-1,2.283477783E-1,-3.810287476E0,2.596252441E0
8.396606450E-1,4.712371826E-1,-3.655822754E0,2.751770020E0
8.436584480E-1,7.066497803E-1,-3.410812378E0,2.880676270E0
8.476867680E-1,9.165191650E-1,-3.097625732E0,2.982940674E0
8.517150880E-1,1.085891724E0,-2.740768433E0,3.051116943E0
8.557128910E-1,1.221176147E0,-2.343414307E0,3.083068848E0
8.597412110E-1,1.317047119E0,-1.909851074E0,3.077743530E0
8.637695320E-1,1.344741821E0,-1.529556274E0,3.068161011E0
8.677673340E-1,1.285095215E0,-1.247268677E0,3.075622559E0
8.717956550E-1,1.159393311E0,-1.086410522E0,3.097991943E0
8.757934570E-1,1.002792358E0,-1.021423340E0,3.121429443E0
8.798217780E-1,8.504638672E-1,-1.004379272E0,3.137405396E0
8.838500980E-1,7.087860107E-1,-1.010772705E0,3.148056030E0
8.878479010E-1,5.585784912E-1,-1.091735840E0,3.183212280E0
8.918762210E-1,3.700256348E-1,-1.315444946E0,3.272689819E0
8.959045410E-1,1.687011719E-1,-1.503997803E0,3.382415771E0
8.999023440E-1,-3.050231934E-2,-1.637145996E0,3.493194580E0
9.039306640E-1,-2.329101562E-1,-1.708526611E0,3.585876465E0
9.079589850E-1,-4.480895996E-1,-1.680831909E0,3.654052734E0
9.119567870E-1,-6.899108887E-1,-1.565780640E0,3.695602417E0
9.159851080E-1,-9.210662842E-1,-1.439010620E0,3.707321167E0
9.200134280E-1,-1.122406006E0,-1.311172485E0,3.711578369E0
9.240112310E-1,-1.281127930E0,-1.183349609E0,3.724365234E0
9.280395510E-1,-1.394042969E0,-1.026748657E0,3.733947754E0
9.320678710E-1,-1.465423584E0,-9.532470703E-1,3.768035889E0
9.360656740E-1,-1.514419556E0,-9.638977051E-1,3.834091187E0
9.400939950E-1,-1.533599854E0,-9.702911377E-1,3.900131226E0
9.441223150E-1,-1.541046143E0,-1.059783936E0,3.984283447E0
9.481201180E-1,-1.545318604E0,-1.212112427E0,4.089752197E0
9.521484380E-1,-1.537857056E0,-1.363372803E0,4.186691284E0
9.561462410E-1,-1.516555786E0,-1.544464111E0,4.269775391E0
9.601745610E-1,-1.478195190E0,-1.726638794E0,4.334762573E0
9.642028810E-1,-1.427062988E0,-1.872573853E0,4.384826660E0
9.682006840E-1,-1.366348267E0,-1.965255737E0,4.411453247E0
9.722290040E-1,-1.302429199E0,-1.997207642E0,4.418914795E0
9.762573250E-1,-1.243850708E0,-1.971649170E0,4.397613525E0
9.802551270E-1,-1.191650391E0,-1.892807007E0,4.340087891E0
9.842834480E-1,-1.151168823E0,-1.783096313E0,4.244216919E0
9.883117680E-1,-1.123474121E0,-1.661651611E0,4.114257812E0
9.923095710E-1,-1.116012573E0,-1.541275024E0,3.955520630E0
9.963378910E-1,-1.129867554E0,-1.437942505E0,3.765914917E0
1.000366211E0,-1.163955688E0,-1.350601196E0,3.551788330E0
1.004364014E0,-1.215087891E0,-1.281356812E0,3.320632935E0
1.008392334E0,-1.269409180E0,-1.212112427E0,3.077743530E0
1.012420655E0,-1.316284180E0,-1.130081177E0,2.833801270E0
1.016418457E0,-1.364212036E0,-1.048065186E0,2.618621826E0
1.020446778E0,-1.411087036E0,-9.479217529E-1,2.452438354E0
1.024444580E0,-1.459030151E0,-8.105010986E-1,2.332061768E0
1.028472901E0,-1.502700806E0,-6.081085205E-1,2.252166748E0
1.032501221E0,-1.553833008E0,-3.130187988E-1,2.210617065E0
1.036499024E0,-1.601776123E0,1.826477051E-2,2.208496094E0
1.040527344E0,-1.645446777E0,3.303985596E-1,2.240447998E0
1.044555664E0,-1.690185547E0,5.636901855E-1,2.317153931E0
1.048553467E0,-1.751968384E0,7.479705811E-1,2.441787720E0
1.052581787E0,-1.811630249E0,9.578399658E-1,2.560028076E0
1.056610108E0,-1.852111816E0,1.146392822E0,2.631408691E0
1.060607911E0,-1.875549316E0,1.338134766E0,2.635665894E0
1.064636231E0,-1.879806519E0,1.500061035E0,2.638854980E0
1.068664551E0,-1.868087769E0,1.623626709E0,2.679336548E0
1.072662354E0,-1.845718384E0,1.706710815E0,2.740066528E0
1.076690674E0,-1.818023682E0,1.775955200E0,2.803970337E0
1.080718995E0,-1.794586182E0,1.866500854E0,2.855102539E0
1.084716797E0,-1.782867432E0,1.993270874E0,2.876419067E0
1.088745118E0,-1.788192749E0,2.161590576E0,2.858306885E0
1.092773438E0,-1.804168701E0,2.373565674E0,2.790130615E0
1.096771241E0,-1.835067749E0,2.590881348E0,2.677215576E0
1.100799561E0,-1.900039673E0,2.737884521E0,2.553634644E0
1.104797364E0,-2.006576538E0,2.779434204E0,2.426864624E0
1.108825684E0,-2.125885010E0,2.748550415E0,2.291580200E0
1.112854004E0,-2.223892212E0,2.697418213E0,2.139251709E0
1.116851807E0,-2.220687866E0,2.692077637E0,1.991180420E0
1.120880127E0,-2.056640625E0,2.737884521E0,1.869735718E0
1.124908448E0,-1.767959595E0,2.783691406E0,1.770675659E0
1.128906250E0,-1.456893921E0,2.792221069E0,1.674789429E0
1.132934571E0,-1.153289795E0,2.814590454E0,1.586380005E0
1.136962891E0,-8.411712646E-1,2.891296387E0,1.506484985E0
1.140960694E0,-5.205230713E-1,3.003143311E0,1.439376831E0
1.144989014E0,-2.201232910E-1,3.111801147E0,1.383972168E0
1.149017334E0,3.340148926E-2,3.198089600E0,1.341369629E0
1.153015137E0,2.166290283E-1,3.252410889E0,1.299819946E0
1.157043457E0,3.135681152E-1,3.284378052E0,1.262542725E0
1.161071778E0,3.252868652E-1,3.308868408E0,1.229507446E0
1.165069580E0,2.603149414E-1,3.333374023E0,1.192230225E0
1.169097901E0,1.282196045E-1,3.366394043E0,1.143234253E0
1.173095704E0,-5.500793457E-2,3.410079956E0,1.072921753E0
1.177124024E0,-2.744598389E-1,3.455886841E0,9.738464355E-1
1.181152344E0,-5.120086670E-1,3.500625610E0,8.470916748E-1
1.185150147E0,-7.474365234E-1,3.537902832E0,6.990203857E-1
1.189178467E0,-9.519653320E-1,3.558151245E0,5.349578857E-1
1.193206787E0,-1.103225708E0,3.554946899E0,3.666534424E-1
1.197204590E0,-1.193771362E0,3.534713745E0,2.100524902E-1
1.201232911E0,-1.219345093E0,3.512344360E0,1.003417969E-1
1.205261231E0,-1.186325073E0,3.479309082E0,4.455566406E-3
1.209259034E0,-1.098968506E0,3.446289062E0,-1.009979248E-1
1.213287354E0,-9.647369385E-1,3.410079956E0,-2.181854248E-1
1.217315674E0,-7.942962646E-1,3.323791504E0,-3.183135986E-1
1.221313477E0,-6.014862061E-1,3.195953369E0,-3.864898682E-1
1.225341797E0,-3.990936279E-1,3.071319580E0,-4.099273682E-1
1.229370118E0,-1.892242432E-1,2.969055176E0,-3.843536377E-1
1.233367920E0,2.488708496E-2,2.883834839E0,-3.151245117E-1
1.237396241E0,2.379455566E-1,2.814590454E0,-2.139129639E-1
1.241424561E0,4.403381348E-1,2.761322021E0,-8.502197266E-2
1.245422364E0,6.182403564E-1,2.715515137E0,6.518554688E-2
1.249450684E0,7.641754150E-1,2.655868530E0,2.132568359E-1
1.253448487E0,8.770904541E-1,2.572769165E0,3.378906250E-1
1.257476807E0,9.303588867E-1,2.408721924E0,4.103240967E-1
1.261505127E0,9.090576172E-1,2.132827759E0,4.145812988E-1
1.265502930E0,8.344879150E-1,1.790878296E0,3.517303467E-1
1.269531250E0,7.322235107E-1,1.443588257E0,2.516021729E-1
1.273559571E0,6.406097412E-1,1.229476929E0,1.994018555E-1
1.277557373E0,5.884094238E-1,1.146392822E0,2.153778076E-1
1.281585694E0,5.521850586E-1,1.089920044E0,2.185821533E-1
1.285614014E0,4.765625000E-1,9.439849854E-1,1.365509033E-1
1.289611817E0,3.647003174E-1,7.149505615E-1,-8.697509766E-4
1.293640137E0,2.613677979E-1,4.614257812E-1,-1.233673096E-1
1.297668457E0,1.995849609E-1,2.547607422E-1,-1.904754639E-1
1.301666260E0,1.665649414E-1,1.354522705E-1,-2.043304443E-1
1.305694580E0,1.399383545E-1,5.555725098E-2,-1.904754639E-1
1.309722901E0,1.175689697E-1,-4.031372070E-2,-1.904754639E-1
1.313720704E0,1.079711914E-1,-1.511077881E-1,-2.107238770E-1
1.317749024E0,1.303405762E-1,-2.714843750E-1,-2.266998291E-1
1.321746827E0,1.963958740E-1,-3.769378662E-1,-2.277679443E-1
1.325775147E0,3.071746826E-1,-4.078369141E-1,-2.117919922E-1
1.329803467E0,4.414062500E-1,-4.025115967E-1,-1.691741943E-1
1.333801270E0,5.702972412E-1,-4.610900879E-1,-1.020660400E-1
1.337829590E0,6.651153564E-1,-6.027832031E-1,-4.135131836E-2
1.341857911E0,7.215728760E-1,-7.263488770E-1,3.002929688E-2
1.345855713E0,7.481994629E-1,-7.583007812E-1,1.440124512E-1
1.349884034E0,7.652435303E-1,-6.911926270E-1,3.112640381E-1
1.353912354E0,7.609863281E-1,-5.324707031E-1,5.424194336E-1
1.357910157E0,7.300872803E-1,-3.354034424E-1,8.002166748E-1
1.361938477E0,6.661682129E-1,-1.457824707E-1,1.035629272E0
1.365966797E0,5.735015869E-1,1.400756836E-2,1.209274292E0
1.369964600E0,4.605865479E-1,1.556854248E-1,1.316864014E0
1.373992920E0,3.359375000E-1,2.792663574E-1,1.339233398E0
1.378021241E0,2.134399414E-1,3.847198486E-1,1.291305542E0
1.382019043E0,1.026458740E-1,4.497070312E-1,1.203948975E0
1.386047364E0,1.742553711E-2,4.848632812E-1,1.094223022E0
1.390075684E0,-3.263854980E-2,5.040283203E-1,9.866333008E-1
1.394073487E0,-4.328918457E-2,5.402526855E-1,9.003448486E-1
1.398101807E0,-2.091979980E-2,6.105651855E-1,8.470916748E-1
1.402099610E0,1.849365234E-2,7.042999268E-1,8.268432617E-1
1.406127930E0,7.495117188E-2,7.746124268E-1,8.619995117E-1
1.410156250E0,1.441955566E-1,7.490386963E-1,9.823760986E-1
1.414154053E0,2.283477783E-1,6.659545898E-1,1.164535522E0
1.418182373E0,3.476562500E-1,6.062927246E-1,1.360534668E0
1.422210694E0,4.967956543E-1,5.775299072E-1,1.550155640E0
1.426208496E0,6.395416260E-1,5.594329834E-1,1.738708496E0
1.430236817E0,7.599182129E-1,5.349273682E-1,1.914474487E0
1.434265137E0,8.493957520E-1,4.390563965E-1,2.048706055E0
1.438262940E0,8.973388672E-1,2.313232422E-1,2.134994507E0
1.442291260E0,8.962707520E-1,5.130004883E-2,2.222335815E0
1.446319580E0,8.568572998E-1,4.277038574E-2,2.400238037E0
1.450317383E0,7.929382324E-1,1.972351074E-1,2.740066528E0
1.454345704E0,7.077178955E-1,4.326629639E-1,3.054306030E0
1.458374024E0,5.841522217E-1,8.001708984E-1,3.257781982E0
1.462371827E0,4.190368652E-1,1.125076294E0,3.368560791E0
1.466400147E0,2.400665283E-1,1.080337524E0,3.378158569E0
1.470397950E0,6.855773926E-2,6.766052246E-1,3.282272339E0
1.474426270E0,-6.459045410E-2,1.908416748E-1,3.136337280E0
1.478454590E0,-1.317138672E-1,-1.244812012E-1,2.992523193E0
1.482452393E0,-1.551361084E-1,-2.714843750E-1,2.861495972E0
1.486480713E0,-1.498107910E-1,-3.577728271E-1,2.748580933E0
1.490509034E0,-1.231842041E-1,-3.865356445E-1,2.626083374E0
1.494506836E0,-5.287170410E-2,-2.799987793E-1,2.476943970E0
1.498535157E0,8.880615234E-2,-1.049804688E-2,2.295837402E0
1.502563477E0,2.975921631E-1,3.410491943E-1,2.076400757E0
1.506561280E0,5.319519043E-1,6.212158203E-1,1.807952881E0
1.510589600E0,7.396850586E-1,7.618255615E-1,1.500091553E0
1.514617920E0,8.888092041E-1,7.969818115E-1,1.175186157E0
1.518615723E0,9.527282715E-1,7.586364746E-1,8.374938965E-1
1.522644043E0,9.644470215E-1,7.170867920E-1,4.870300293E-1
1.526672364E0,1.000671387E0,7.490386963E-1,1.674499512E-1
1.530670166E0,1.005996704E0,6.904602051E-1,-4.028320312E-2
1.534698487E0,1.002792358E0,5.935211182E-1,-1.009979248E-1
1.538726807E0,9.889526367E-1,4.805908203E-1,-4.667663574E-2
1.542724610E0,9.367523193E-1,3.708801270E-1,7.263183594E-2
1.546752930E0,8.728332520E-1,3.048248291E-1,2.121887207E-1
1.550750733E0,8.217010498E-1,2.824554443E-1,3.432159424E-1
1.554779053E0,7.854919434E-1,2.941741943E-1,4.529418945E-1
1.558807373E0,7.535247803E-1,2.973632812E-1,5.338897705E-1
1.562805176E0,7.311553955E-1,2.856597900E-1,5.818328857E-1
1.566833496E0,7.503356934E-1,3.005676270E-1,5.946197510E-1
1.570861817E0,7.854919434E-1,3.027038574E-1,5.733184814E-1
1.574859620E0,7.961425781E-1,2.760620117E-1,5.392303467E-1
1.578887940E0,7.940063477E-1,2.057647705E-1,5.338897705E-1
1.582916260E0,8.046569824E-1,1.013641357E-1,5.541381836E-1
1.586914063E0,8.536682129E-1,3.744506836E-2,5.935516357E-1
1.590942383E0,9.399414062E-1,1.220703125E-3,6.340332031E-1
1.594970704E0,1.044342041E0,-4.670715332E-2,6.532135010E-1
1.598968506E0,1.125305176E0,-1.393890381E-1,6.510772705E-1
1.602996827E0,1.152999878E0,-2.469787598E-1,6.223144531E-1
1.607025147E0,1.102935791E0,-3.407287598E-1,5.658569336E-1
1.611022950E0,9.921417236E-1,-3.588256836E-1,5.008697510E-1
1.615051270E0,8.770904541E-1,-2.778778076E-1,4.561309814E-1
1.619049073E0,7.908172607E-1,-1.553649902E-1,4.380187988E-1
1.623077393E0,7.279663086E-1,-4.031372070E-2,4.422912598E-1
1.627105713E0,6.778869629E-1,6.834411621E-2,4.603881836E-1
1.631103516E0,6.437988281E-1,1.556854248E-1,4.848937988E-1
1.635131836E0,6.416778564E-1,1.801910400E-1,5.179138184E-1
1.639160157E0,6.693725586E-1,6.727600098E-2,5.637207031E-1
1.643157959E0,7.215728760E-1,-1.383209229E-1,6.042022705E-1
1.647186280E0,7.886810303E-1,-3.449859619E-1,6.287078857E-1
1.651214600E0,8.547210693E-1,-5.101013184E-1,6.393585205E-1
1.655212403E0,9.143829346E-1,-6.070404053E-1,6.180572510E-1
1.659240723E0,9.463348389E-1,-6.400604248E-1,5.392303467E-1
1.663269043E0,9.399414062E-1,-6.102294922E-1,4.369506836E-1
1.667266846E0,8.834838867E-1,-5.793457031E-1,3.517303467E-1
1.671295166E0,7.801513672E-1,-5.995788574E-1,3.016662598E-1
1.675323487E0,6.555175781E-1,-6.539154053E-1,2.931518555E-1
1.679321289E0,5.564575195E-1,-7.071685791E-1,3.187103271E-1
1.683349610E0,4.936065674E-1,-7.540435791E-1,3.613281250E-1
1.687377930E0,4.680328369E-1,-7.806701660E-1,4.018096924E-1
1.691375733E0,4.659118652E-1,-7.785491943E-1,4.369506836E-1
1.695404053E0,4.722900391E-1,-7.732238770E-1,4.614562988E-1
1.699401856E0,4.659118652E-1,-7.977142334E-1,4.689178467E-1
1.703430176E0,4.360809326E-1,-8.414001465E-1,4.614562988E-1
1.707458496E0,3.955993652E-1,-8.648376465E-1,4.497375488E-1
1.711456299E0,3.466033936E-1,-8.499145508E-1,4.390869141E-1
1.715484620E0,2.890777588E-1,-7.998504639E-1,4.316253662E-1
1.719512940E0,2.251586914E-1,-7.327423096E-1,4.316253662E-1
1.723510743E0,1.484527588E-1,-6.581726074E-1,4.209747314E-1
1.727539063E0,5.364990234E-2,-5.633697510E-1,3.900909424E-1
1.731567383E0,-5.181884766E-2,-4.515075684E-1,3.421478271E-1
1.735565186E0,-1.444854736E-1,-3.290100098E-1,3.027343750E-1
1.739593506E0,-1.966857910E-1,-2.150268555E-1,3.197784424E-1
1.743621827E0,-2.275848389E-1,-1.596221924E-1,3.709106445E-1
1.747619629E0,-2.542114258E-1,-1.851959229E-1,4.241790771E-1
1.751647950E0,-2.765808105E-1,-2.789306641E-1,4.689178467E-1
1.755676270E0,-2.893676758E-1,-4.216766357E-1,5.093994141E-1
1.759674073E0,-2.840423584E-1,-6.091766357E-1,5.520019531E-1
1.763702393E0,-2.669982910E-1,-8.616333008E-1,6.010131836E-1
1.767700196E0,-2.275848389E-1,-1.150329590E0,6.564025879E-1
1.771728516E0,-1.402282715E-1,-1.432617188E0,7.213897705E-1
1.775756836E0,-2.731323242E-2,-1.692550659E0,7.629241943E-1
1.779754639E0,6.855773926E-2,-1.935424805E0,7.735748291E-1
1.783782959E0,1.473846436E-1,-2.134628296E0,7.661285400E-1
1.787811280E0,2.251586914E-1,-2.245422363E0,7.256469727E-1
1.791809082E0,2.677612305E-1,-2.267791748E0,6.329650879E-1
1.795837403E0,2.347412109E-1,-2.197479248E0,5.136566162E-1
1.799865723E0,1.218261719E-1,-2.031295776E0,3.932800293E-1
1.803863526E0,-4.435729980E-2,-1.774566650E0,2.867584229E-1
1.807891846E0,-2.222595215E-1,-1.479492188E0,2.057952881E-1
1.811920166E0,-3.980255127E-1,-1.263244629E0,1.994018555E-1
1.815917969E0,-5.450286865E-1,-1.056579590E0,1.876831055E-1
1.819946289E0,-6.419677734E-1,-7.891998291E-1,1.578521729E-1
1.823974610E0,-6.994934082E-1,-5.026397705E-1,1.216430664E-1
1.827972412E0,-7.069549561E-1,-2.576293945E-1,7.690429688E-2
1.832000733E0,-6.579437256E-1,-6.800842285E-2,1.831054688E-2
1.836029053E0,-5.588836670E-1,6.620788574E-2,-4.774475098E-2
1.840026856E0,-4.299774170E-1,1.610107422E-1,-1.159210205E-1
1.844055176E0,-2.925567627E-1,2.206726074E-1,-1.777038574E-1
1.848052979E0,-1.711273193E-1,2.526245117E-1,-2.373504639E-1
1.852081299E0,-9.016418457E-2,2.654113770E-1,-2.927551270E-1
1.856109620E0,-6.565856934E-2,2.654113770E-1,-3.460083008E-1
1.860107422E0,-1.221160889E-1,2.515716553E-1,-3.918151855E-1
1.864135743E0,-3.138732910E-1,1.823272705E-1,-4.120635986E-1
1.868164063E0,-7.698059082E-1,-4.884338379E-2,-4.259033203E-1
1.872161866E0,-1.343978882E0,-3.023681641E-1,-3.747711182E-1
1.876190186E0,-1.935195923E0,-4.877319336E-1,-2.469482422E-1
1.880218506E0,-2.521102905E0,-5.836029053E-1,-4.454040527E-2
1.884216309E0,-3.012176514E0,-5.825347900E-1,1.962127686E-1
1.888244629E0,-3.385025024E0,-5.420532227E-1,4.252471924E-1
1.892272950E0,-3.673706055E0,-4.845275879E-1,6.105957031E-1
1.896270752E0,-3.902740479E0,-4.536437988E-1,7.373657227E-1
1.900299073E0,-4.068923950E0,-4.110260010E-1,7.810363770E-1
1.904327393E0,-4.132843018E0,-2.160797119E-1,7.299041748E-1
1.908325196E0,-4.077453613E0,1.663360596E-1,5.871582031E-1
1.912353516E0,-3.953872681E0,5.125579834E-1,3.836975098E-1
1.916351319E0,-3.820724487E0,7.213439941E-1,1.621246338E-1
1.920379639E0,-3.659866333E0,9.791412354E-1,-5.625915527E-2
1.924407959E0,-3.414855957E0,1.256103516E0,-2.735748291E-1
1.928405762E0,-3.064376831E0,1.317901611E0,-4.930114746E-1
1.932434082E0,-2.653182983E0,1.055831909E0,-7.028808594E-1
1.936462403E0,-2.280349731E0,6.031036377E-1,-8.701171875E-1
1.940460205E0,-2.009765625E0,1.588897705E-1,-9.734497070E-1
1.944488526E0,-1.804168701E0,-1.734771729E-1,-1.026718140E0
1.948516846E0,-1.647583008E0,-3.812103271E-1,-1.040557861E0
1.952514649E0,-1.569808960E0,-4.557647705E-1,-1.019256592E0
1.956542969E0,-1.597518921E0,-3.705444336E-1,-9.691925049E-1
1.960571289E0,-1.696578979E0,-1.670837402E-1,-9.105987549E-1
1.964569092E0,-1.843582153E0,5.342102051E-2,-8.701171875E-1
1.968597412E0,-2.044921875E0,2.462310791E-1,-8.552093506E-1
1.972625733E0,-2.288864136E0,4.614257812E-1,-8.605346680E-1
1.976623536E0,-2.563705444E0,7.309265137E-1,-8.829040527E-1
1.980651856E0,-2.849197388E0,1.007904053E0,-9.329681396E-1
1.984680176E0,-3.146408081E0,1.227340698E0,-1.019256592E0
1.988677979E0,-3.447875977E0,1.364761353E0,-1.130050659E0
1.992706299E0,-3.719512939E0,1.405242920E0,-1.256805420E0
1.996704102E0,-3.938964844E0,1.431884766E0,-1.370788574E0
2.000732422E0,-4.126449585E0,1.606582642E0,-1.408081055E0
2.004760743E0,-4.297958374E0,1.714172363E0,-1.389968872E0
2.008758545E0,-4.439636230E0,1.661972046E0,-1.365463257E0
2.012786866E0,-4.550430298E0,1.568237305E0,-1.336700439E0
2.016815186E0,-4.613281250E0,1.441467285E0,-1.303680420E0
2.020812989E0,-4.637771606E0,1.292327881E0,-1.264266968E0
2.024841309E0,-4.585571289E0,1.158111572E0,-1.224853516E0
2.028869629E0,-4.422592163E0,1.030273438E0,-1.201416016E0
2.032867432E0,-4.180770874E0,8.811340332E-1,-1.199295044E0
2.036895752E0,-3.897415161E0,7.405242920E-1,-1.234436035E0
2.040924073E0,-3.625778198E0,6.403808594E-1,-1.315399170E0
2.044921875E0,-3.360519409E0,5.935211182E-1,-1.416595459E0
2.048950196E0,-3.065444946E0,5.604858398E-1,-1.507156372E0
2.052978516E0,-2.732025146E0,5.764770508E-1,-1.590240479E0
2.056976319E0,-2.377288818E0,6.414489746E-1,-1.675460815E0
2.061004639E0,-2.007644653E0,6.158905029E-1,-1.732986450E0
2.065002442E0,-1.632659912E0,5.072326660E-1,-1.745773315E0
2.069030762E0,-1.291778564E0,3.868560791E-1,-1.696762085E0
2.073059082E0,-1.002029419E0,2.835235596E-1,-1.570007324E0
2.077056885E0,-7.591552734E-1,1.833801270E-1,-1.381454468E0
2.081085205E0,-5.439605713E-1,6.620788574E-2,-1.159866333E0
2.085113526E0,-3.532867432E-1,-4.138183594E-2,-9.159240723E-1
2.089111329E0,-1.849670410E-1,-9.571838379E-2,-6.698455811E-1
2.093139649E0,-3.477478027E-2,-9.465026855E-2,-4.333648682E-1
2.097167969E0,9.838867188E-2,-7.014465332E-2,-1.968688965E-1
2.101165772E0,2.102355957E-1,-6.481933594E-2,1.831054688E-2
2.105194092E0,3.029174805E-1,-8.079528809E-2,1.951446533E-1
2.109222412E0,3.774871826E-1,-1.063690186E-1,3.272399902E-1
2.113220215E0,4.339447021E-1,-1.351318359E-1,4.145812988E-1
2.117248536E0,4.595184326E-1,-1.606903076E-1,4.625244141E-1
2.121276856E0,4.488677979E-1,-1.819915771E-1,4.891510010E-1
2.125274659E0,4.009246826E-1,-2.224731445E-1,5.147247314E-1
2.129302979E0,3.316802979E-1,-3.002471924E-1,5.562744141E-1
2.133331299E0,2.677612305E-1,-4.280700684E-1,6.063385010E-1
2.137329102E0,2.176971436E-1,-6.081085205E-1,6.691894531E-1
2.141357422E0,1.846771240E-1,-8.168945312E-1,7.362976074E-1
2.145355225E0,1.687011719E-1,-1.038467407E0,8.108673096E-1
2.149383545E0,1.687011719E-1,-1.247268677E0,8.928985596E-1
2.153411866E0,1.804199219E-1,-1.395339966E0,9.674530029E-1
2.157409668E0,1.963958740E-1,-1.478424072E0,1.028182983E0
2.161437989E0,2.187652588E-1,-1.508255005E0,1.063339233E0
2.165466309E0,2.592468262E-1,-1.519973755E0,1.068664551E0
2.169464112E0,3.220977783E-1,-1.537017822E0,1.037765503E0
2.173492432E0,4.051818848E-1,-1.537017822E0,9.674530029E-1
2.177520752E0,4.850769043E-1,-1.506118774E0,8.673248291E-1
2.181518555E0,5.500640869E-1,-1.458190918E0,7.544097900E-1
2.185546875E0,6.033325195E-1,-1.407058716E0,6.329650879E-1
2.189575196E0,6.448669434E-1,-1.345260620E0,5.136566162E-1
2.193572998E0,6.778869629E-1,-1.299453735E0,4.113922119E-1
2.197601319E0,6.928100586E-1,-1.279220581E0,3.378906250E-1
2.201629639E0,6.959991455E-1,-1.277084351E0,2.867584229E-1
2.205627442E0,6.864166260E-1,-1.320770264E0,2.675781250E-1
2.209655762E0,6.746978760E-1,-1.400665283E0,2.718353271E-1
2.213653565E0,6.757659912E-1,-1.506118774E0,3.005981445E-1
2.217681885E0,7.045288086E-1,-1.599868774E0,3.453521729E-1
2.221710205E0,7.620544434E-1,-1.661651611E0,3.922119141E-1
2.225708008E0,8.430023193E-1,-1.701065063E0,4.412231445E-1
2.229736329E0,9.399414062E-1,-1.724502563E0,4.944763184E-1
2.233764649E0,1.041152954E0,-1.694671631E0,5.541381836E-1
2.237762452E0,1.130630493E0,-1.582824707E0,6.233825684E-1
2.241790772E0,1.182830811E0,-1.410247803E0,7.096710205E-1
2.245819092E0,1.183898926E0,-1.241943359E0,8.151245117E-1
2.249816895E0,1.159393311E0,-1.131149292E0,9.312438965E-1
2.253845215E0,1.113586426E0,-1.125823975E0,1.054809570E0
2.257873536E0,1.045410156E0,-1.187606812E0,1.170928955E0
2.261871338E0,9.537963867E-1,-1.265365601E0,1.274261475E0
2.265899659E0,8.781585693E-1,-1.295196533E0,1.366928101E0
2.269927979E0,8.217010498E-1,-1.279220581E0,1.418060303E0
2.273925782E0,7.684478760E-1,-1.263244629E0,1.411682129E0
2.277954102E0,7.034606934E-1,-1.228088379E0,1.352020264E0
2.281982422E0,6.182403564E-1,-1.182281494E0,1.264663696E0
2.285980225E0,5.180969238E-1,-1.129013062E0,1.162399292E0
2.290008545E0,4.083862305E-1,-1.061904907E0,1.035629272E0
2.294006348E0,2.997283936E-1,-9.884033203E-1,8.896942139E-1
2.298034668E0,1.931915283E-1,-9.330139160E-1,7.277679443E-1
2.302062989E0,9.838867188E-2,-9.010467529E-1,5.552062988E-1
2.306060791E0,2.488708496E-2,-9.021148682E-1,3.730468750E-1
2.310089112E0,-1.452636719E-2,-9.298095703E-1,1.812896729E-1
2.314117432E0,-1.773071289E-2,-9.585723877E-1,-1.898193359E-2
2.318115235E0,1.316833496E-2,-9.532470703E-1,-2.235107422E-1
2.322143555E0,6.536865234E-2,-8.936004639E-1,-4.205780029E-1
2.326171875E0,1.346130371E-1,-8.051757812E-1,-6.069946289E-1
2.330169678E0,2.187652588E-1,-6.997222900E-1,-7.774505615E-1
2.334197998E0,3.114471436E-1,-5.910644531E-1,-9.297790527E-1
2.338226319E0,3.966674805E-1,-4.855957031E-1,-1.056549072E0
2.342224121E0,4.669647217E-1,-3.875885010E-1,-1.146026611E0
2.346252442E0,5.180969238E-1,-2.991790771E-1,-1.197158813E0
2.350280762E0,5.521850586E-1,-2.235412598E-1,-1.215270996E0
2.354278565E0,5.756225586E-1,-1.649475098E-1,-1.207809448E0
2.358306885E0,5.990600586E-1,-1.170196533E-1,-1.174789429E0
2.362335205E0,6.193084717E-1,-6.163024902E-2,-1.124725342E0
2.366333008E0,6.374206543E-1,1.678466797E-4,-1.063995361E0
2.370361329E0,6.501922607E-1,5.662536621E-2,-1.013931274E0
2.374359131E0,6.587219238E-1,9.815979004E-2,-9.787750244E-1
2.378387452E0,6.565856934E-1,1.205291748E-1,-9.649353027E-1
2.382415772E0,6.427459717E-1,1.258697510E-1,-9.649353027E-1
2.386413575E0,6.193084717E-1,1.215972900E-1,-9.670562744E-1
2.390441895E0,5.830841064E-1,1.173400879E-1,-9.521484375E-1
2.394470215E0,5.319519043E-1,1.184082031E-1,-9.297790527E-1
2.398468018E0,4.595184326E-1,1.215972900E-1,-9.169921875E-1
2.402496338E0,3.721618652E-1,1.397094727E-1,-9.244537354E-1
2.406524659E0,2.730865479E-1,1.940460205E-1,-9.446868896E-1
2.410522461E0,1.580505371E-1,2.696685791E-1,-9.596099854E-1
2.414550782E0,1.423645020E-2,3.367919922E-1,-9.446868896E-1
2.418579102E0,-1.583404541E-1,3.943023682E-1,-8.914337158E-1
2.422576905E0,-3.575439453E-1,4.294586182E-1,-7.998199463E-1
2.426605225E0,-5.673980713E-1,4.486389160E-1,-6.677246094E-1
2.430633545E0,-7.612762451E-1,4.720764160E-1,-5.090026855E-1
2.434631348E0,-9.263916016E-1,5.200042725E-1,-3.342895508E-1
2.438659668E0,-1.048904419E0,5.956420898E-1,-1.436157227E-1
2.442657471E0,-1.108551025E0,6.627502441E-1,7.583618164E-2
2.446685791E0,-1.078720093E0,6.489105225E-1,2.920837402E-1
2.450714112E0,-1.003097534E0,5.413208008E-1,4.571990967E-1
2.454711914E0,-8.859100342E-1,3.857879639E-1,5.775756836E-1
2.458740235E0,-7.016296387E-1,2.345275879E-1,6.830291748E-1
2.462768555E0,-4.523468018E-1,7.899475098E-2,7.671966553E-1
2.466766358E0,-1.540832520E-1,-8.399963379E-2,8.076629639E-1
2.470794678E0,1.825408936E-1,-2.512359619E-1,7.799682617E-1
2.474822998E0,5.468597412E-1,-4.025115967E-1,7.224426270E-1
2.478820801E0,9.005279541E-1,-5.569763184E-1,6.606597900E-1
2.482849121E0,1.190292358E0,-7.455291748E-1,5.743713379E-1
2.486877442E0,1.385223389E0,-9.884033203E-1,4.465484619E-1
2.490875245E0,1.480041504E0,-1.277084351E0,2.654571533E-1
2.494903565E0,1.496017456E0,-1.528488159E0,5.346679688E-2
2.498931885E0,1.476837158E0,-1.670166016E0,-1.744995117E-1
2.502929688E0,1.436355591E0,-1.704254150E0,-3.939514160E-1
2.506958008E0,1.359664917E0,-1.729827881E0,-5.803680420E-1
2.510986329E0,1.248870850E0,-1.787353516E0,-7.508087158E-1
2.514984131E0,1.134887695E0,-1.840621948E0,-9.159240723E-1
2.519012452E0,1.039016724E0,-1.854461670E0,-1.084243774E0
2.523010254E0,9.697723389E-1,-1.825698853E0,-1.291961670E0
2.527038575E0,9.442138672E-1,-1.713851929E0,-1.526321411E0
2.531066895E0,9.356842041E-1,-1.551925659E0,-1.694641113E0
2.535064698E0,8.888092041E-1,-1.450729370E0,-1.791580200E0
2.539093018E0,8.099822998E-1,-1.425155640E0,-1.873596191E0
2.543121338E0,7.268981934E-1,-1.402786255E0,-1.985458374E0
2.547119141E0,7.141113281E-1,-1.208908081E0,-2.135650635E0
2.551147461E0,7.343597412E-1,-8.286132812E-1,-2.246444702E0
2.555175782E0,7.354125977E-1,-4.365997314E-1,-2.358291626E0
2.559173584E0,6.810913086E-1,-1.905212402E-1,-2.511688232E0
2.563201905E0,5.319519043E-1,-1.063690186E-1,-2.654434204E0
2.567230225E0,2.581787109E-1,-1.372528076E-1,-2.746047974E0
2.571228028E0,-1.263885498E-1,-2.235412598E-1,-2.795059204E0
2.575256348E0,-5.311889648E-1,-2.523040771E-1,-2.846191406E0
2.579284668E0,-8.933715820E-1,-2.160797119E-1,-2.878143311E0
2.583282471E0,-1.162887573E0,-1.319274902E-1,-2.870681763E0
2.587310791E0,-1.306701660E0,-2.754211426E-2,-2.790786743E0
2.591308594E0,-1.325866699E0,2.893066406E-2,-2.619293213E0
2.595336914E0,-1.267272949E0,-3.924560547E-2,-2.385986328E0
2.599365235E0,-1.158615112E0,-2.437896729E-1,-2.074935913E0
2.603363037E0,-1.009490967E0,-6.379241943E-1,-1.670135498E0
2.607391358E0,-8.305206299E-1,-1.163101196E0,-1.163070679E0
2.611419678E0,-6.568756104E-1,-1.699996948E0,-6.006164551E-1
2.615417481E0,-5.247955322E-1,-2.204940796E0,-5.200195312E-2
2.619445801E0,-4.257202148E-1,-2.726913452E0,4.571990967E-1
2.623474121E0,-3.745880127E-1,-3.150894165E0,9.035491943E-1
2.627471924E0,-3.777770996E-1,-3.373535156E0,1.265731812E0
2.631500245E0,-4.076080322E-1,-3.508819580E0,1.524597168E0
2.635528565E0,-4.310455322E-1,-3.632385254E0,1.648162842E0
2.639526368E0,-4.054870605E-1,-3.692047119E0,1.635375977E0
2.643554688E0,-2.893676758E-1,-3.625991821E0,1.513946533E0
2.647583008E0,-7.205200195E-2,-3.473663330E0,1.329650879E0
2.651580811E0,2.283477783E-1,-3.229721069E0,1.117660522E0
2.655609131E0,5.692291260E-1,-2.911209106E0,9.014129639E-1
2.659637452E0,9.090576172E-1,-2.563934326E0,6.958160400E-1
2.663635254E0,1.213714600E0,-2.236892700E0,5.424194336E-1
2.667663575E0,1.465118408E0,-2.005737305E0,4.433441162E-1
2.671661377E0,1.657943726E0,-1.906661987E0,3.868865967E-1
2.675689698E0,1.795349121E0,-1.939682007E0,3.719787598E-1
2.679718018E0,1.889099121E0,-2.004669189E0,3.964843750E-1
2.683715821E0,1.956207275E0,-2.055801392E0,4.390869141E-1
2.687744141E0,2.011611938E0,-2.061126709E0,4.870300293E-1
2.691772461E0,2.075515747E0,-2.031295776E0,5.381622314E-1
2.695770264E0,2.159683228E0,-1.997207642E0,5.924835205E-1
2.699798584E0,2.271530151E0,-1.958862305E0,6.564025879E-1
2.703826905E0,2.418533325E0,-1.907730103E0,7.405548096E-1
2.707824707E0,2.601760864E0,-1.811859131E0,8.481445312E-1
2.711853028E0,2.821212769E0,-1.653121948E0,9.813079834E-1
2.715881348E0,3.069412231E0,-1.420898438E0,1.119796753E0
2.719879151E0,3.229202271E0,-1.228088379E0,1.238037109E0
2.723907471E0,3.135452271E0,-1.072555542E0,1.324325562E0
2.727935791E0,2.754089355E0,-8.328704834E-1,1.390365601E0
2.731933594E0,2.208679199E0,-5.282135010E-1,1.438308716E0
2.735961914E0,1.714401245E0,-1.106262207E-1,1.467071533E0
2.739990235E0,1.461929321E0,4.102935791E-1,1.489440918E0
2.743988037E0,1.458724976E0,9.152221680E-1,1.490509033E0
2.748016358E0,1.608932495E0,1.311508179E0,1.458541870E0
2.752014161E0,1.819854736E0,1.616165161E0,1.407409668E0
2.756042481E0,2.053146362E0,1.860107422E0,1.343490601E0
2.760070801E0,2.303482056E0,2.025222778E0,1.248687744E0
2.764068604E0,2.541046143E0,2.091278076E0,1.135772705E0
2.768096924E0,2.756225586E0,2.065704346E0,1.009002686E0
2.772125245E0,2.946899414E0,1.934677124E0,8.619995117E-1
2.776123047E0,3.024673462E0,1.610839844E0,6.489410400E-1
2.780151368E0,2.590042114E0,1.479812622E0,2.558593750E-1
2.784179688E0,1.867797852E0,1.516036987E0,-2.139129639E-1
2.788177491E0,1.269119263E0,1.784484863E0,-4.397583008E-1
2.792205811E0,7.450103760E-1,1.604446411E0,-5.228424072E-1
2.796234131E0,4.019927979E-1,1.010025024E0,-4.727783203E-1
2.800231934E0,1.580505371E-1,2.526245117E-1,-2.373504639E-1
2.804260254E0,-5.181884766E-2,-6.347351074E-1,1.120452881E-1
2.808288575E0,-1.998901367E-1,-1.328216553E0,4.305725098E-1
2.812286377E0,-2.020111084E-1,-1.535949707E0,6.223144531E-1
2.816314698E0,-2.410888672E-2,-1.255783081E0,5.765075684E-1
2.820312500E0,2.603149414E-1,-6.155548096E-1,2.942199707E-1
2.824340821E0,4.488677979E-1,-1.020965576E-1,-4.879760742E-2
2.828369141E0,5.607147217E-1,2.078857422E-1,-3.225708008E-1
2.832366944E0,6.448669434E-1,3.804626465E-1,-5.356292725E-1
2.836395264E0,6.491241455E-1,4.859161377E-1,-7.007446289E-1
2.840423584E0,5.521850586E-1,6.297302246E-1,-8.381652832E-1
2.844421387E0,3.764190674E-1,7.319946289E-1,-9.564056396E-1
2.848449707E0,1.963958740E-1,7.394561768E-1,-1.051223755E0
2.852478028E0,5.258178711E-2,6.755371094E-1,-1.113006592E0
2.856475830E0,-7.844543457E-2,6.137542725E-1,-1.142822266E0
2.860504151E0,-2.797851562E-1,6.723480225E-1,-1.115127563E0
2.864532471E0,-6.206665039E-1,9.557037354E-1,-1.026718140E0
2.868530274E0,-8.230590820E-1,1.046249390E0,-9.723815918E-1
2.872558594E0,-6.568756104E-1,5.892486572E-1,-9.787750244E-1
2.876586914E0,-2.840423584E-1,-2.128906250E-1,-9.478912354E-1
2.880584717E0,9.199523926E-2,-1.146057129E0,-7.209777832E-1
2.884613037E0,3.210296631E-1,-1.933288574E0,-2.725067139E-1
2.888641358E0,3.167724609E-1,-2.479766846E0,3.357543945E-1
2.892639161E0,1.495208740E-1,-2.823852539E0,1.035629272E0
2.896667481E0,-1.061401367E-1,-2.975128174E0,1.739776611E0
2.900665284E0,-4.001617432E-1,-2.975128174E0,2.197845459E0
2.904693604E0,-6.536865234E-1,-2.921859741E0,2.301177979E0
2.908721924E0,-7.325134277E-1,-3.044357300E0,2.223403931E0
2.912719727E0,-6.419677734E-1,-3.319198608E0,2.062545776E0
2.916748047E0,-4.843139648E-1,-3.571670532E0,1.796234131E0
2.920776368E0,-3.500823975E-1,-3.676071167E0,1.455352783E0
2.924774170E0,-2.797851562E-1,-3.546096802E0,1.092102051E0
2.928802491E0,-2.829742432E-1,-3.192428589E0,7.608032227E-1
2.932830811E0,-3.681945801E-1,-2.634231567E0,4.891510010E-1
2.936828614E0,-5.215911865E-1,-1.843811035E0,2.846221924E-1
2.940856934E0,-7.112121582E-1,-8.701629639E-1,1.386871338E-1
2.944885254E0,-8.795166016E-1,3.318786621E-2,1.937866211E-2
2.948883057E0,-9.540863037E-1,7.245483398E-1,-1.052551270E-1
2.952911377E0,-9.562225342E-1,1.126144409E0,-2.341613770E-1
2.956939698E0,-1.023330688E0,1.021743774E0,-3.268432617E-1
2.960937500E0,-1.173538208E0,5.263977051E-1,-3.822326660E-1
2.964965821E0,-1.291778564E0,1.614379883E-2,-4.344329834E-1
2.968963623E0,-1.302429199E0,-3.002471924E-1,-4.876861572E-1
2.972991944E0,-1.221466064E0,-4.834747314E-1,-5.090026855E-1
2.977020264E0,-1.102157593E0,-6.262207031E-1,-4.876861572E-1
2.981018067E0,-9.732666016E-1,-7.444610596E-1,-4.216461182E-1
2.985046387E0,-8.358459473E-1,-7.966613770E-1,-3.161773682E-1
2.989074707E0,-6.845855713E-1,-7.732238770E-1,-1.755676270E-1
2.993072510E0,-5.077514648E-1,-6.560363770E-1,-1.365661621E-2
2.997100830E0,-3.074798584E-1,-4.227447510E-1,1.738433838E-1
3.001129151E0,-8.163452148E-2,-7.653808594E-2,3.943481445E-1
3.005126954E0,1.399383545E-1,3.058929443E-1,6.361694336E-1
3.009155274E0,3.220977783E-1,6.520996094E-1,9.035491943E-1
3.013183594E0,4.371490479E-1,9.354705811E-1,1.137908936E0
3.017181397E0,4.786834717E-1,1.117630005E0,1.293426514E0
3.021209717E0,4.414062500E-1,1.210296631E0,1.363739014E0
3.025238037E0,2.624359131E-1,1.364761353E0,1.369064331E0
3.029235840E0,-6.459045410E-2,1.651321411E0,1.331787109E0
3.033264161E0,-3.884429932E-1,1.846267700E0,1.219924927E0
3.037292481E0,-5.865783691E-1,1.832412720E0,1.020721436E0
3.041290284E0,-6.153411865E-1,1.720565796E0,7.661285400E-1
3.045318604E0,-5.535583496E-1,1.582077026E0,5.370941162E-1
3.049316407E0,-4.491577148E-1,1.473419189E0,3.740997314E-1
3.053344727E0,-3.064117432E-1,1.436141968E0,2.729034424E-1
3.057373047E0,-1.615295410E-1,1.421218872E0,2.121887207E-1
3.061370850E0,-3.370666504E-2,1.396728516E0,1.748962402E-1
3.065399170E0,7.069396973E-2,1.354110718E0,1.504058838E-1
3.069427491E0,1.548461914E-1,1.379684448E0,1.418762207E-1
3.073425293E0,1.111755371E-1,1.599121094E0,1.930084229E-1
3.077453614E0,-1.647338867E-1,2.057189941E0,3.069915771E-1
3.081481934E0,-4.789886475E-1,2.468383789E0,4.082031250E-1
3.085479737E0,-6.888427734E-1,2.686752319E0,4.486694336E-1
3.089508057E0,-7.676696777E-1,2.737884521E0,4.476165771E-1
3.093536377E0,-7.271881104E-1,2.685699463E0,4.380187988E-1
3.097534180E0,-6.195983887E-1,2.579162598E0,4.486694336E-1
3.101562500E0,-5.194702148E-1,2.426834106E0,4.934234619E-1
3.105590821E0,-4.640655518E-1,2.292617798E0,5.679779053E-1
3.109588623E0,-4.363708496E-1,2.212722778E0,6.809082031E-1
3.113616944E0,-4.150695801E-1,2.107254028E0,8.151245117E-1
3.117645264E0,-4.012145996E-1,1.913375854E0,9.418945312E-1
3.121643067E0,-3.703308105E-1,1.705642700E0,1.030303955E0
3.125671387E0,-3.309173584E-1,1.528823853E0,1.089965820E0
3.129669190E0,-2.797851562E-1,1.407379150E0,1.138961792E0
3.133697510E0,-2.787170410E-1,1.282745361E0,1.157073975E0
3.137725830E0,-3.149261475E-1,1.181533813E0,1.151748657E0
3.141723633E0,-3.724517822E-1,1.112304688E0,1.133636475E0
3.145751954E0,-4.629974365E-1,1.033462524E0,1.109146118E0
3.149780274E0,-5.684661865E-1,9.503784180E-1,1.084640503E0
3.153778077E0,-6.909637451E-1,9.045715332E-1,1.071853638E0
3.157806397E0,-8.230590820E-1,8.822021484E-1,1.068664551E0
3.161834717E0,-9.306488037E-1,8.534393311E-1,1.067596436E0
3.165832520E0,-9.977722168E-1,7.863311768E-1,1.055877686E0
3.169860840E0,-1.024398804E0,6.702117920E-1,1.042022705E0
3.173889161E0,-9.892425537E-1,5.924530029E-1,1.050552368E0
3.177886963E0,-9.061584473E-1,5.583648682E-1,1.046295166E0
3.181915284E0,-8.390502930E-1,5.093536377E-1,1.007934570E0
3.185943604E0,-8.347778320E-1,3.612823486E-1,9.386901855E-1
3.189941407E0,-8.401031494E-1,2.558288574E-1,8.417510986E-1
3.193969727E0,-8.667449951E-1,2.771301270E-1,6.915588379E-1
3.197967530E0,-9.402465820E-1,3.048248291E-1,5.530700684E-1
3.201995850E0,-1.056350708E0,2.206726074E-1,4.721069336E-1
3.206024170E0,-1.175659180E0,3.318786621E-2,4.444122314E-1
3.210021973E0,-1.318405151E0,-2.469787598E-1,4.199066162E-1
3.214050293E0,-1.412155151E0,-4.270019531E-1,3.932800293E-1
3.218078614E0,-1.510162354E0,-6.688232422E-1,3.794403076E-1
3.222076416E0,-1.545318604E0,-8.318023682E-1,3.954162598E-1
3.226104737E0,-1.539993286E0,-9.489898682E-1,4.614562988E-1
3.230133057E0,-1.435592651E0,-9.489898682E-1,5.317687988E-1
3.234130860E0,-1.271545410E0,-8.669586182E-1,5.765075684E-1
3.238159180E0,-1.072341919E0,-6.794738770E-1,5.956878662E-1
3.242187500E0,-8.976287842E-1,-3.748168945E-1,5.594635010E-1
3.246185303E0,-8.326568604E-1,2.465820312E-2,4.082031250E-1
3.250213623E0,-9.754028320E-1,2.856597900E-1,1.898193359E-1
3.254241944E0,-1.143707275E0,2.941741943E-1,-2.217102051E-2
3.258239746E0,-1.292846680E0,9.815979004E-2,-2.256317139E-1
3.262268067E0,-1.408966064E0,-1.106262207E-1,-3.747711182E-1
3.266296387E0,-1.460098267E0,-2.544403076E-1,-4.578704834E-1
3.270294190E0,-1.451568604E0,-3.066406250E-1,-4.791717529E-1
3.274322510E0,-1.356765747E0,-3.375244141E-1,-4.663848877E-1
3.278320313E0,-1.195907593E0,-3.290100098E-1,-3.939514160E-1
3.282348633E0,-1.065948486E0,-3.183593750E-1,-3.065948486E-1
3.286376954E0,-9.327850342E-1,-3.151550293E-1,-2.149810791E-1
3.290374756E0,-7.644805908E-1,-2.523040771E-1,-1.095275879E-1
3.294403077E0,-6.355743408E-1,-1.255340576E-1,-2.536010742E-2
3.298431397E0,-5.514221191E-1,2.146911621E-2,4.281616211E-2
3.302429200E0,-4.800415039E-1,1.706085205E-1,1.216430664E-1
3.306457520E0,-4.182586670E-1,2.749938965E-1,1.919403076E-1
3.310485840E0,-3.767242432E-1,3.261260986E-1,2.484130859E-1
3.314483643E0,-3.586120605E-1,3.367919922E-1,2.984771729E-1
3.318511963E0,-3.554077148E-1,3.303985596E-1,3.421478271E-1
3.322540284E0,-3.671264648E-1,3.165435791E-1,3.826293945E-1
3.326538086E0,-3.894958496E-1,3.112182617E-1,3.975372314E-1
3.330566407E0,-4.161376953E-1,3.090820312E-1,3.868865967E-1
3.334594727E0,-4.395751953E-1,3.112182617E-1,3.538665771E-1
3.338592530E0,-4.534149170E-1,3.037567139E-1,2.942199707E-1
3.342620850E0,-4.704589844E-1,2.707366943E-1,2.260284424E-1
3.346618653E0,-4.917602539E-1,2.196044922E-1,1.898193359E-1
3.350646973E0,-5.034790039E-1,1.940460205E-1,1.823577881E-1
3.354675293E0,-5.002899170E-1,1.727294922E-1,1.748962402E-1
3.358673096E0,-4.832458496E-1,1.450347900E-1,1.685180664E-1
3.362701416E0,-4.598083496E-1,1.439666748E-1,1.695709229E-1
3.366729737E0,-4.363708496E-1,1.535644531E-1,1.717071533E-1
3.370727539E0,-4.150695801E-1,1.684722900E-1,1.759643555E-1
3.374755860E0,-3.863067627E-1,1.833801270E-1,1.834259033E-1
3.378784180E0,-3.490142822E-1,1.993713379E-1,1.887512207E-1
3.382781983E0,-3.149261475E-1,2.174682617E-1,1.951446533E-1
3.386810303E0,-2.851104736E-1,2.419738770E-1,2.026062012E-1
3.390838623E0,-2.595367432E-1,2.792663574E-1,2.132568359E-1
3.394836426E0,-2.350311279E-1,3.229370117E-1,2.111206055E-1
3.398864746E0,-2.084045410E-1,3.698120117E-1,1.951446533E-1
3.402893067E0,-1.828460693E-1,4.081573486E-1,1.663818359E-1
3.406890870E0,-1.625976562E-1,4.369201660E-1,1.280364990E-1
3.410919190E0,-1.444854736E-1,4.528961182E-1,7.583618164E-2
3.414947510E0,-1.263885498E-1,4.571533203E-1,1.191711426E-2
3.418945313E0,-1.072082520E-1,4.571533203E-1,-5.093383789E-2
3.422973633E0,-8.590698242E-2,4.518280029E-1,-1.137847900E-1
3.426971436E0,-6.246948242E-2,4.411773682E-1,-1.862182617E-1
3.430999756E0,-4.328918457E-2,4.220123291E-1,-2.639923096E-1
3.435028077E0,-1.666259766E-2,4.028320312E-1,-3.513336182E-1
3.439025879E0,1.316833496E-2,3.634185791E-1,-4.397583008E-1
3.443054200E0,4.725646973E-2,3.005676270E-1,-5.164489746E-1
3.447082520E0,9.306335449E-2,2.430419922E-1,-5.771789551E-1
3.451080323E0,1.399383545E-1,1.983032227E-1,-6.240386963E-1
3.455108643E0,1.782836914E-1,1.503601074E-1,-6.581268311E-1
3.459136963E0,2.038574219E-1,9.178161621E-2,-6.815643311E-1
3.463134766E0,2.230224609E-1,-2.326965332E-2,-7.007446289E-1
3.467163086E0,2.347412109E-1,-2.086334229E-1,-7.156524658E-1
3.471191407E0,2.230224609E-1,-4.824066162E-1,-7.295074463E-1
3.475189209E0,1.974639893E-1,-7.828063965E-1,-7.305755615E-1
3.479217530E0,1.665649414E-1,-1.036346436E0,-7.284393311E-1
3.483215332E0,1.367340088E-1,-1.219558716E0,-7.412261963E-1
3.487243653E0,1.175689697E-1,-1.351654053E0,-7.550659180E-1
3.491271973E0,1.122436523E-1,-1.470962524E0,-7.753143311E-1
3.495269776E0,1.260833740E-1,-1.595611572E0,-7.806396484E-1
3.499298096E0,1.420593262E-1,-1.775634766E0,-7.593383789E-1
3.503326416E0,1.729583740E-1,-1.946075439E0,-7.241821289E-1
3.507324219E0,2.219543457E-1,-2.028106689E0,-7.028808594E-1
3.511352539E0,2.911987305E-1,-1.982299805E0,-6.986083984E-1
3.515380860E0,3.881378174E-1,-1.807586670E0,-7.177886963E-1
3.519378662E0,4.669647217E-1,-1.643539429E0,-7.412261963E-1
3.523406983E0,4.978637695E-1,-1.584945679E0,-7.316436768E-1
3.527435303E0,5.383453369E-1,-1.559387207E0,-7.209777832E-1
3.531433106E0,6.246337891E-1,-1.514648438E0,-7.476196289E-1
3.535461426E0,7.567291260E-1,-1.420898438E0,-8.019409180E-1
3.539489746E0,9.197082520E-1,-1.280288696E0,-8.701171875E-1
3.543487549E0,1.067779541E0,-1.108779907E0,-9.276428223E-1
3.547515870E0,1.173248291E0,-9.191589355E-1,-9.649353027E-1
3.551544190E0,1.225433350E0,-7.316741943E-1,-9.787750244E-1
3.555541993E0,1.215850830E0,-5.761413574E-1,-9.809112549E-1
3.559570313E0,1.166854858E0,-4.728088379E-1,-9.585418701E-1
3.563598633E0,1.094406128E0,-4.227447510E-1,-9.095306396E-1
3.567596436E0,1.026229858E0,-3.726806641E-1,-8.253784180E-1
3.571624756E0,9.644470215E-1,-3.045043945E-1,-7.199249268E-1
3.575622559E0,8.707122803E-1,-2.970428467E-1,-6.027374268E-1
3.579650879E0,7.077178955E-1,-5.761413574E-1,-4.695892334E-1
3.583679200E0,5.511322021E-1,-1.054443359E0,-3.161773682E-1
3.587677002E0,4.445953369E-1,-1.479492188E0,-1.958160400E-1
3.591705323E0,3.551177979E-1,-1.885360718E0,-1.052551270E-1
3.595733643E0,3.497924805E-1,-2.155929565E0,-3.070068359E-2
3.599731446E0,3.913421631E-1,-2.324249268E0,1.191711426E-2
3.603759766E0,4.936065674E-1,-2.301879883E0,3.109741211E-2
3.607788086E0,6.427459717E-1,-2.071777344E0,2.682495117E-2
3.611785889E0,8.249053955E-1,-1.794815063E0,-2.110290527E-2
3.615814209E0,1.052871704E0,-1.513580322E0,-9.460449219E-2
3.619842530E0,1.281906128E0,-1.268569946E0,-1.904754639E-1
3.623840332E0,1.470443726E0,-1.135406494E0,-3.161773682E-1
3.627868653E0,1.597213745E0,-1.113037109E0,-4.322967529E-1
3.631896973E0,1.666458130E0,-1.143936157E0,-5.143280029E-1
3.635894776E0,1.688827515E0,-1.167373657E0,-5.792999268E-1
3.639923096E0,1.678176880E0,-1.164169312E0,-6.442871094E-1
3.643951416E0,1.640899658E0,-1.157775879E0,-7.124633789E-1
3.647949219E0,1.580169678E0,-1.165237427E0,-7.731781006E-1
3.651977539E0,1.497085571E0,-1.164169312E0,-8.094024658E-1
3.655975342E0,1.389495850E0,-1.124755859E0,-8.317718506E-1
3.660003662E0,1.259521484E0,-1.081085205E0,-8.413543701E-1
3.664031983E0,1.115722656E0,-1.070434570E0,-8.392333984E-1
3.668029786E0,9.729766846E-1,-1.107711792E0,-8.285827637E-1
3.672058106E0,8.376770020E-1,-1.197189331E0,-8.157958984E-1
3.676086426E0,7.183685303E-1,-1.319702148E0,-8.030090332E-1
3.680084229E0,6.203765869E-1,-1.437942505E0,-7.944946289E-1
3.684112549E0,5.404815674E-1,-1.518905640E0,-7.699890137E-1
3.688140870E0,4.850769043E-1,-1.554061890E0,-7.316436768E-1
3.692138672E0,4.627075195E-1,-1.579620361E0,-6.975555420E-1
3.696166993E0,4.509887695E-1,-1.632888794E0,-6.560058594E-1
3.700195313E0,4.435424805E-1,-1.708526611E0,-6.197814941E-1
3.704193116E0,4.392700195E-1,-1.782028198E0,-6.091308594E-1
3.708221436E0,4.414062500E-1,-1.807586670E0,-6.187133789E-1
3.712249756E0,4.435424805E-1,-1.762847900E0,-6.325683594E-1
3.716247559E0,4.243621826E-1,-1.656326294E0,-6.336364746E-1
3.720275879E0,3.860168457E-1,-1.496536255E0,-6.293792725E-1
3.724273682E0,3.316802979E-1,-1.315444946E0,-6.251068115E-1
3.728302002E0,2.698974609E-1,-1.159912109E0,-6.197814941E-1
3.732330323E0,1.963958740E-1,-1.018234253E0,-6.016693115E-1
3.736328125E0,1.250152588E-1,-8.712310791E-1,-5.643920898E-1
3.740356446E0,4.086303711E-2,-7.625732422E-1,-4.930114746E-1
3.744384766E0,-3.796386719E-2,-7.093048096E-1,-4.141845703E-1
3.748382569E0,-7.418823242E-2,-6.720275879E-1,-3.577270508E-1
3.752410889E0,-2.410888672E-2,-6.475219727E-1,-3.076629639E-1
3.756439209E0,-1.985168457E-2,-6.890716553E-1,-2.330932617E-1
3.760437012E0,-7.418823242E-2,-6.677551270E-1,-1.340179443E-1
3.764465332E0,-1.146697998E-1,-5.559082031E-1,-3.282165527E-2
3.768493653E0,-1.562042236E-1,-4.717559814E-1,7.476806641E-2
3.772491455E0,-2.286529541E-1,-4.014434814E-1,1.834259033E-1
3.776519776E0,-3.096008301E-1,-3.577728271E-1,2.814331055E-1
3.780548096E0,-3.948211670E-1,-3.108978271E-1,3.602600098E-1
3.784545899E0,-4.757843018E-1,-2.629547119E-1,4.188537598E-1
3.788574219E0,-5.343780518E-1,-2.182159424E-1,4.635925293E-1
3.792602539E0,-5.737915039E-1,-1.596221924E-1,5.104675293E-1
3.796600342E0,-6.387786865E-1,-5.310058594E-2,5.615997314E-1
3.800628662E0,-6.249237061E-1,5.493164062E-3,6.031341553E-1
3.804626465E0,-4.672698975E-1,5.493164062E-3,6.255035400E-1
3.808654786E0,-1.658020020E-1,-1.475524902E-2,6.425476074E-1
3.812683106E0,2.869415283E-1,-1.244812012E-1,7.128601074E-1
3.816680909E0,6.214294434E-1,-1.340637207E-1,8.406982422E-1
3.820709229E0,7.354125977E-1,-2.114868164E-2,9.738464355E-1
3.824737549E0,5.053253174E-1,1.588897705E-1,1.026046753E0
3.828735352E0,2.794799805E-1,1.706085205E-1,1.005813599E0
3.832763672E0,5.010528564E-1,-1.724090576E-1,1.082504272E0
3.836791993E0,7.801513672E-1,-6.059722900E-1,1.166656494E0
3.840789795E0,1.040084839E0,-9.915924072E-1,1.208206177E0
3.844818116E0,1.178573608E0,-1.194000244E0,1.223129272E0
3.848846436E0,1.192413330E0,-1.352722168E0,1.213531494E0
3.852844239E0,1.155136108E0,-1.544464111E0,1.194366455E0
3.856872559E0,1.166854858E0,-1.747940063E0,1.148559570E0
3.860900879E0,9.793701172E-1,-1.701065063E0,1.113403320E0
3.864898682E0,5.692291260E-1,-1.301589966E0,1.023925781E0
3.868927002E0,6.129150391E-1,-1.126892090E0,8.225860596E-1
3.872955323E0,9.591217041E-1,-8.509826660E-1,6.361694336E-1
3.876953125E0,1.051803589E0,-4.323425293E-1,4.710388184E-1
3.880981446E0,1.099731445E0,-4.770812988E-1,3.016662598E-1
3.884979248E0,1.138092041E0,-6.549682617E-1,1.163177490E-1
3.889007569E0,1.084823608E0,-6.368713379E-1,-2.856445312E-2
3.893035889E0,9.463348389E-1,-6.155548096E-1,-1.329650879E-1
3.897033692E0,7.471313477E-1,-5.985107422E-1,-2.405548096E-1
3.901062012E0,5.010528564E-1,-4.983825684E-1,-3.108520508E-1
3.905090332E0,2.869415283E-1,-3.875885010E-1,-3.438873291E-1
3.909088135E0,1.250152588E-1,-2.469787598E-1,-3.161773682E-1
3.913116455E0,3.446960449E-2,-1.670837402E-1,-2.501373291E-1
3.917144776E0,2.062988281E-2,-1.702880859E-1,-1.840972900E-1
3.921142579E0,6.855773926E-2,-2.501678467E-1,-1.286926270E-1
3.925170899E0,1.750946045E-1,-3.812103271E-1,-8.502197266E-2
3.929199219E0,3.103790283E-1,-5.132904053E-1,-4.879760742E-2
3.933197022E0,4.541931152E-1,-6.091766357E-1,-1.470947266E-2
3.937225342E0,5.788269043E-1,-6.336669922E-1,2.149963379E-2
3.941253662E0,6.640472412E-1,-5.921325684E-1,6.730651855E-2
3.945251465E0,6.992034912E-1,-5.026397705E-1,1.290893555E-1
3.949279786E0,6.693725586E-1,-3.950500488E-1,2.047271729E-1
3.953277588E0,5.724334717E-1,-2.970428467E-1,2.771606445E-1
3.957305909E0,4.147796631E-1,-2.192840576E-1,3.442840576E-1
3.961334229E0,2.187652588E-1,-1.660156250E-1,4.103240967E-1
3.965332032E0,4.653930664E-3,-1.319274902E-1,4.753112793E-1
3.969360352E0,-2.020111084E-1,-9.571838379E-2,5.253753662E-1
3.973388672E0,-3.788452148E-1,-3.819274902E-2,5.488128662E-1
3.977386475E0,-5.173339844E-1,4.064941406E-2,5.402832031E-1
3.981414795E0,-6.185302734E-1,1.130828857E-1,5.008697510E-1
3.985443116E0,-6.835174561E-1,1.439666748E-1,4.231109619E-1
3.989440918E0,-7.122802734E-1,1.066894531E-1,3.027343750E-1
3.993469239E0,-7.037506104E-1,-4.104614258E-3,1.440124512E-1
3.997497559E0,-6.579437256E-1,-1.542968750E-1,-2.749633789E-2
4.001495362E0,-5.748596191E-1,-2.736053467E-1,-1.766357422E-1
4.005523682E0,-4.747161865E-1,-3.204803467E-1,-2.757110596E-1
4.009552002E0,-3.756561279E-1,-2.725524902E-1,-3.278961182E-1
4.013549805E0,-3.138732910E-1,-8.612060547E-2,-3.492126465E-1
4.017578125E0,-3.383636475E-1,2.973632812E-1,-3.545379639E-1
4.021606446E0,-4.310455322E-1,7.724761963E-1,-3.524017334E-1
4.025604248E0,-5.066833496E-1,1.071823120E0,-3.662567139E-1
4.029632569E0,-5.141448975E-1,1.068618774E0,-4.195098877E-1
4.033630371E0,-4.747161865E-1,8.417205811E-1,-4.685211182E-1
4.037658692E0,-4.278564453E-1,5.711364746E-1,-4.610595703E-1
4.041687012E0,-3.873748779E-1,3.293304443E-1,-3.939514160E-1
4.045684815E0,-3.458251953E-1,1.450347900E-1,-2.874145508E-1
4.049713135E0,-2.968292236E-1,2.359008789E-2,-1.649169922E-1
4.053741455E0,-2.360992432E-1,-3.712463379E-2,-4.347229004E-2
4.057739258E0,-1.743164062E-1,-6.268310547E-2,5.986022949E-2
4.061767579E0,-1.136016846E-1,-6.588745117E-2,1.440124512E-1
4.065795899E0,-5.819702148E-2,-4.777526855E-2,2.089843750E-1
4.069793702E0,-4.943847656E-3,-9.002685547E-4,2.494659424E-1
4.073822022E0,5.364990234E-2,7.792663574E-2,2.547912598E-1
4.077850342E0,1.101074219E-1,1.908416748E-1,2.452087402E-1
4.081848145E0,1.687011719E-1,3.538360596E-1,2.409515381E-1
4.085876465E0,2.219543457E-1,5.349273682E-1,2.622528076E-1
4.089904786E0,2.603149414E-1,6.915130615E-1,3.240356445E-1
4.093902588E0,2.816162109E-1,8.118896484E-1,4.177856445E-1
4.097930909E0,3.007965088E-1,9.344024658E-1,5.200500488E-1
4.101928711E0,3.018493652E-1,1.048385620E0,6.233825684E-1
4.105957032E0,2.624359131E-1,1.162368774E0,7.160644531E-1
4.109985352E0,1.718902588E-1,1.313629150E0,7.863616943E-1
4.113983155E0,8.560180664E-2,1.538406372E0,8.279113770E-1
4.118011475E0,2.517700195E-3,1.713104248E0,8.460235596E-1
4.122039795E0,-6.459045410E-2,1.797256470E0,8.300476074E-1
4.126037598E0,-8.909606934E-2,1.859054565E0,7.639923096E-1
4.130065918E0,-7.737731934E-2,1.936813354E0,6.627960205E-1
4.134094239E0,-5.607604980E-2,1.996459961E0,5.370941162E-1
4.138092041E0,-5.287170410E-2,1.997528076E0,4.071350098E-1
4.142120362E0,-6.033325195E-2,1.941070557E0,3.165893555E-1
4.146148682E0,-7.630920410E-2,1.867568970E0,2.761077881E-1
4.150146485E0,-9.762573242E-2,1.798324585E0,2.707824707E-1
4.154174805E0,-1.423645020E-1,1.676895142E0,2.984771729E-1
4.158203125E0,-2.094726562E-1,1.543731689E0,3.325653076E-1
4.162200928E0,-2.659301758E-1,1.509643555E0,3.283081055E-1
4.166229248E0,-3.138732910E-1,1.566101074E0,2.888793945E-1
4.170257569E0,-3.596801758E-1,1.655578613E0,2.398834229E-1
4.174255371E0,-3.863067627E-1,1.789810181E0,2.026062012E-1
4.178283692E0,-3.724517822E-1,1.978363037E0,1.791687012E-1
4.182281495E0,-3.532867432E-1,2.133880615E0,1.727752686E-1
4.186309815E0,-3.309173584E-1,2.265975952E0,1.663818359E-1
4.190338135E0,-3.468933105E-1,2.281951904E0,1.738433838E-1
4.194335938E0,-3.468933105E-1,2.303268433E0,1.727752686E-1
4.198364258E0,-3.074798584E-1,2.358657837E0,1.589202881E-1
4.202392579E0,-2.169342041E-1,2.483291626E0,1.365509033E-1
4.206390381E0,-1.625976562E-1,2.459854126E0,1.344299316E-1
4.210418702E0,-1.136016846E-1,2.383163452E0,1.280364990E-1
4.214447022E0,-5.714416504E-2,2.308593750E0,1.152496338E-1
4.218444825E0,3.874206543E-2,2.338424683E0,9.181213379E-2
4.222473145E0,1.271514893E-1,2.332031250E0,7.157897949E-2
4.226501465E0,1.878662109E-1,2.273437500E0,5.239868164E-2
4.230499268E0,2.176971436E-1,2.192474365E0,3.215026855E-2
4.234527588E0,2.102355957E-1,2.082748413E0,1.724243164E-2
4.238555909E0,1.537780762E-1,1.918701172E0,1.298522949E-2
4.242553711E0,3.767395020E-2,1.726959229E0,1.405334473E-2
4.246582032E0,-4.754638672E-2,1.683273315E0,2.149963379E-2
4.250610352E0,-5.714416504E-2,1.817504883E0,2.363586426E-2
4.254608155E0,-1.773071289E-2,2.035888672E0,1.405334473E-2
4.258636475E0,-6.866455078E-4,2.145599365E0,1.405334473E-2
4.262634278E0,-2.198791504E-2,2.147735596E0,2.789306641E-2
4.266662598E0,-8.695983887E-2,2.029495239E0,6.411743164E-2
4.270690918E0,-1.636657715E-1,1.889938354E0,1.013946533E-1
4.274688721E0,-2.265167236E-1,1.811111450E0,1.259002686E-1
4.278717041E0,-2.680664062E-1,1.786605835E0,1.344299316E-1
4.282745362E0,-2.936248779E-1,1.784484863E0,1.269683838E-1
4.286743164E0,-3.191986084E-1,1.796203613E0,1.163177490E-1
4.290771485E0,-3.415679932E-1,1.804718018E0,1.035308838E-1
4.294799805E0,-3.522186279E-1,1.866500854E0,8.541870117E-2
4.298797608E0,-3.809814453E-1,1.843063354E0,7.902526855E-2
4.302825928E0,-4.321136475E-1,1.726959229E0,8.116149902E-2
4.306854248E0,-4.843139648E-1,1.644927979E0,8.222961426E-2
4.310852051E0,-5.205230713E-1,1.616165161E0,7.902526855E-2
4.314880371E0,-5.439605713E-1,1.604446411E0,7.583618164E-2
4.318908692E0,-5.663299561E-1,1.588470459E0,6.837463379E-2
4.322906495E0,-5.886993408E-1,1.573562622E0,5.772399902E-2
4.326934815E0,-6.132049561E-1,1.567169189E0,4.493713379E-2
4.330932618E0,-6.355743408E-1,1.577819824E0,2.577209473E-2
4.334960938E0,-6.579437256E-1,1.601257324E0,3.402709961E-3
4.338989258E0,-6.781921387E-1,1.605514526E0,-2.110290527E-2
4.342987061E0,-6.920318604E-1,1.607650757E0,-4.347229004E-2
4.347015381E0,-7.026824951E-1,1.623626709E0,-7.011413574E-2
4.351043702E0,-7.122802734E-1,1.647064209E0,-9.887695312E-2
4.355041504E0,-7.154693604E-1,1.675827026E0,-1.286926270E-1
4.359069825E0,-7.090759277E-1,1.724822998E0,-1.681060791E-1
4.363098145E0,-6.963043213E-1,1.701385498E0,-2.043304443E-1
4.367095948E0,-6.877746582E-1,1.626815796E0,-2.416229248E-1
4.371124268E0,-6.771240234E-1,1.565032959E0,-2.820892334E-1
4.375152588E0,-6.622161865E-1,1.521362305E0,-3.183135986E-1
4.379150391E0,-6.398315430E-1,1.480880737E0,-3.481445312E-1
4.383178711E0,-6.089477539E-1,1.422286987E0,-3.651885986E-1
4.387207032E0,-5.695343018E-1,1.365829468E0,-3.726501465E-1
4.391204834E0,-5.279846191E-1,1.304046631E0,-3.737030029E-1
4.395233155E0,-4.917602539E-1,1.240127563E0,-3.619842529E-1
4.399261475E0,-4.598083496E-1,1.187927246E0,-3.492126465E-1
4.403259278E0,-4.267883301E-1,1.144256592E0,-3.300323486E-1
4.407287598E0,-3.958892822E-1,1.109100342E0,-3.023376465E-1
4.411285401E0,-3.671264648E-1,1.076080322E0,-2.703704834E-1
4.415313721E0,-3.383636475E-1,1.034530640E0,-2.373504639E-1
4.419342041E0,-3.053436279E-1,9.919281006E-1,-2.043304443E-1
4.423339844E0,-2.701873779E-1,9.525146484E-1,-1.744995117E-1
4.427368164E0,-2.286529541E-1,9.184265137E-1,-1.446838379E-1
4.431396485E0,-1.849670410E-1,9.056396484E-1,-1.169738770E-1
4.435394287E0,-1.359710693E-1,8.779449463E-1,-9.460449219E-2
4.439422608E0,-8.483886719E-2,8.481140137E-1,-7.330322266E-2
4.443450928E0,-3.477478027E-2,8.332061768E-1,-5.412292480E-2
4.447448731E0,1.635742188E-2,8.332061768E-1,-3.388977051E-2
4.451477051E0,6.430053711E-2,8.332061768E-1,-1.470947266E-2
4.455505371E0,1.079711914E-1,8.353271484E-1,3.402709961E-3
4.459503174E0,1.516571045E-1,8.363952637E-1,2.149963379E-2
4.463531495E0,1.921386719E-1,8.321380615E-1,3.854370117E-2
4.467559815E0,2.326202393E-1,8.268127441E-1,4.919433594E-2
4.471557618E0,2.773590088E-1,8.278656006E-1,5.453491211E-2
4.475585938E0,3.306121826E-1,8.150939941E-1,5.453491211E-2
4.479583741E0,3.924102783E-1,8.044433594E-1,4.174804688E-2
4.483612061E0,4.605865479E-1,7.511749268E-1,2.363586426E-2
4.487640381E0,5.372772217E-1,6.829986572E-1,-7.263183594E-3
4.491638184E0,6.214294434E-1,6.286621094E-1,-5.625915527E-2
4.495666504E0,7.183685303E-1,5.594329834E-1,-1.063232422E-1
4.499694825E0,8.280944824E-1,4.774017334E-1,-1.681060791E-1
4.503692627E0,9.474029541E-1,3.911132812E-1,-2.352294922E-1
4.507720948E0,1.077362061E0,2.739410400E-1,-3.055267334E-1
4.511749268E0,1.207336426E0,9.922790527E-2,-3.822326660E-1
4.515747071E0,1.336227417E0,-8.079528809E-2,-4.770355225E-1
4.519775391E0,1.461929321E0,-2.501678467E-1,-5.803680420E-1
4.523803711E0,1.583374023E0,-4.078369141E-1,-6.932830811E-1
4.527801514E0,1.692031860E0,-5.420532227E-1,-8.136596680E-1
4.531829834E0,1.779373169E0,-6.560363770E-1,-9.393615723E-1
4.535858155E0,1.847549438E0,-7.593688965E-1,-1.069320679E0
4.539855957E0,1.885910034E0,-8.371429443E-1,-1.196090698E0
4.543884278E0,1.888031006E0,-8.680267334E-1,-1.315399170E0
4.547912598E0,1.857147217E0,-8.701629639E-1,-1.407012939E0
4.551910401E0,1.798553467E0,-8.211517334E-1,-1.437911987E0
4.555938721E0,1.722915649E0,-7.178192139E-1,-1.396362305E0
4.559936524E0,1.648345947E0,-5.718841553E-1,-1.289840698E0
4.563964844E0,1.604675293E0,-3.705444336E-1,-1.132171631E0
4.567993164E0,1.579101562E0,-1.660156250E-1,-9.766540527E-1
4.571990967E0,1.565261841E0,-1.687622070E-2,-8.733215332E-1
4.576019287E0,1.581237793E0,4.064941406E-2,-8.307037354E-1
4.580047608E0,1.635559082E0,-8.361816406E-3,-8.445587158E-1
4.584045411E0,1.705871582E0,-1.809387207E-1,-9.191284180E-1
4.588073731E0,1.774047852E0,-4.046325684E-1,-1.005416870E0
4.592102051E0,1.837966919E0,-5.729522705E-1,-1.093826294E0
4.596099854E0,1.894424438E0,-6.389923096E-1,-1.156677246E0
4.600128174E0,1.929580688E0,-5.367279053E-1,-1.142822266E0
4.604156495E0,1.932769775E0,-2.906494141E-1,-1.060806274E0
4.608154297E0,1.894424438E0,3.425598145E-2,-9.287109375E-1
4.612182618E0,1.826248169E0,3.655548096E-1,-7.657318115E-1
4.616210938E0,1.739959717E0,6.403808594E-1,-6.048736572E-1
4.620208741E0,1.645156860E0,8.118896484E-1,-4.610595703E-1
4.624237061E0,1.567382812E0,8.534393311E-1,-3.460083008E-1
4.628265381E0,1.521575928E0,7.682189941E-1,-2.703704834E-1
4.632263184E0,1.511993408E0,5.849914551E-1,-2.320251465E-1
4.636291504E0,1.506668091E0,3.378448486E-1,-2.245788574E-1
4.640289307E0,1.477905273E0,7.579040527E-2,-2.416229248E-1
4.644317627E0,1.427841187E0,-1.425781250E-1,-2.597198486E-1
4.648345948E0,1.341552734E0,-3.364562988E-1,-2.725067139E-1
4.652343750E0,1.208389282E0,-5.218200684E-1,-2.863616943E-1
4.656372071E0,1.056060791E0,-6.954498291E-1,-3.108520508E-1
4.660400391E0,9.090576172E-1,-8.445892334E-1,-3.662567139E-1
4.664398194E0,7.599182129E-1,-9.777526855E-1,-4.493408203E-1
4.668426514E0,6.278228760E-1,-1.095993042E0,-5.356292725E-1
4.672454834E0,5.159759521E-1,-1.182281494E0,-5.995483398E-1
4.676452637E0,4.296875000E-1,-1.230224609E0,-6.591949463E-1
4.680480957E0,3.892059326E-1,-1.181213379E0,-7.476196289E-1
4.684509278E0,3.955993652E-1,-1.026748657E0,-8.626708984E-1
4.688507080E0,3.519287109E-1,-8.690948486E-1,-9.947509766E-1
4.692535401E0,2.464599609E-1,-7.167663574E-1,-1.123657227E0
4.696563721E0,1.516571045E-1,-5.292816162E-1,-1.201416016E0
4.700561524E0,9.519958496E-2,-3.183593750E-1,-1.195022583E0
4.704589844E0,5.897521973E-2,-1.500396729E-1,-1.158813477E0
4.708587647E0,1.210021973E-2,-7.760620117E-2,-1.164138794E0
4.712615967E0,-5.500793457E-2,-9.251403809E-2,-1.190765381E0
4.716644287E0,-1.178588867E-1,-1.479034424E-1,-1.201416016E0
4.720642090E0,-1.551361084E-1,-1.947784424E-1,-1.197158813E0
4.724670411E0,-1.711273193E-1,-2.033081055E-1,-1.190765381E0
4.728698731E0,-1.817779541E-1,-1.788024902E-1,-1.183303833E0
4.732696534E0,-1.956176758E-1,-1.638946533E-1,-1.164138794E0
4.736724854E0,-2.073364258E-1,-1.340637207E-1,-1.148162842E0
4.740753174E0,-2.254486084E-1,-6.163024902E-2,-1.137496948E0
4.744750977E0,-2.520751953E-1,-2.540588379E-2,-1.102355957E0
4.748779297E0,-2.829742432E-1,-6.225585938E-3,-1.058670044E0
4.752807618E0,-2.925567627E-1,6.195068359E-2,-1.022460938E0
4.756805420E0,-2.893676758E-1,9.922790527E-2,-9.542846680E-1
4.760833741E0,-2.851104736E-1,8.538818359E-2,-8.679962158E-1
4.764862061E0,-2.701873779E-1,9.071350098E-2,-7.838287354E-1
4.768859864E0,-2.478179932E-1,1.066894531E-1,-7.050018311E-1
4.772888184E0,-2.190551758E-1,1.237335205E-1,-6.368255615E-1
4.776916504E0,-1.871032715E-1,1.322479248E-1,-5.718536377E-1
4.780914307E0,-1.572723389E-1,1.152038574E-1,-4.802398682E-1
4.784942627E0,-1.434326172E-1,6.195068359E-2,-3.587951660E-1
4.788940430E0,-1.295776367E-1,-4.351806641E-2,-2.213745117E-1
4.792968750E0,-1.253204346E-1,-1.170196533E-1,-9.141540527E-2
4.796997071E0,-1.338348389E-1,-1.681518555E-1,2.682495117E-2
4.800994873E0,-1.562042236E-1,-2.150268555E-1,1.365509033E-1
4.805023194E0,-1.807098389E-1,-2.618865967E-1,2.473449707E-1
4.809051514E0,-2.062835693E-1,-2.746734619E-1,3.496093750E-1
4.813049317E0,-2.297058105E-1,-2.650909424E-1,4.497375488E-1
4.817077637E0,-2.542114258E-1,-2.459106445E-1,5.424194336E-1
4.821105957E0,-2.808380127E-1,-2.256774902E-1,6.223144531E-1
4.825103760E0,-3.085479736E-1,-2.097015381E-1,6.915588379E-1
4.829132080E0,-3.298492432E-1,-1.926574707E-1,7.554779053E-1
4.833160401E0,-3.436889648E-1,-1.724090576E-1,8.172607422E-1
4.837158204E0,-3.532867432E-1,-1.511077881E-1,8.726501465E-1
4.841186524E0,-3.554077148E-1,-1.308593750E-1,9.227142334E-1
4.845214844E0,-3.554077148E-1,-1.138153076E-1,9.685211182E-1
4.849212647E0,-3.543548584E-1,-1.010437012E-1,1.007934570E0
4.853240967E0,-3.500823975E-1,-8.932495117E-2,1.032440186E0
4.857269287E0,-3.436889648E-1,-8.079528809E-2,1.045227051E0
4.861267090E0,-3.341064453E-1,-7.867431641E-2,1.045227051E0
4.865295411E0,-3.245239258E-1,-9.251403809E-2,1.035629272E0
4.869293213E0,-3.149261475E-1,-1.202087402E-1,1.015396118E0
4.873321534E0,-3.159942627E-1,-1.564331055E-1,9.791717529E-1
4.877349854E0,-3.319702148E-1,-1.926574707E-1,9.291076660E-1
4.881347657E0,-3.522186279E-1,-2.171478271E-1,8.683929443E-1
4.885375977E0,-3.724517822E-1,-2.310028076E-1,7.874298096E-1
4.889404297E0,-3.873748779E-1,-2.299346924E-1,6.894226074E-1
4.893402100E0,-3.980255127E-1,-2.139587402E-1,5.807647705E-1
4.897430420E0,-4.054870605E-1,-1.873321533E-1,4.635925293E-1
4.901458741E0,-4.118652344E-1,-1.511077881E-1,3.389587402E-1
4.905456543E0,-4.150695801E-1,-1.106262207E-1,2.111206055E-1
4.909484864E0,-4.086761475E-1,-7.653808594E-2,8.541870117E-2
4.913513184E0,-3.905639648E-1,-5.949401855E-2,-3.814697266E-2
4.917510987E0,-3.607330322E-1,-7.972717285E-2,-1.489410400E-1
4.921539307E0,-3.149261475E-1,-1.479034424E-1,-2.320251465E-1
4.925567627E0,-2.552795410E-1,-2.459106445E-1,-2.778320312E-1
4.929565430E0,-1.796417236E-1,-3.332672119E-1,-2.916870117E-1
4.933593750E0,-9.123229980E-2,-4.057006836E-1,-2.927551270E-1
4.937591553E0,-1.739501953E-3,-4.610900879E-1,-2.895507812E-1
4.941619873E0,8.453369141E-2,-5.026397705E-1,-2.767639160E-1
4.945648194E0,1.591033936E-1,-5.186157227E-1,-2.522735596E-1
4.949645996E0,2.134399414E-1,-5.005187988E-1,-2.203063965E-1
4.953674317E0,2.443237305E-1,-4.536437988E-1,-1.819610596E-1
4.957702637E0,2.496643066E-1,-3.897247314E-1,-1.340179443E-1
4.961700440E0,2.347412109E-1,-3.226165771E-1,-7.330322266E-2
4.965728760E0,1.942596436E-1,-2.650909424E-1,-5.126953125E-3
4.969757080E0,1.367340088E-1,-2.214202881E-1,5.986022949E-2
4.973754883E0,6.111145020E-2,-1.841278076E-1,1.109924316E-1
4.977783204E0,-1.878356934E-2,-1.436462402E-1,1.440124512E-1
4.981811524E0,-1.029510498E-1,-9.465026855E-2,1.546630859E-1
4.985809327E0,-1.828460693E-1,-3.712463379E-2,1.461334229E-1
4.989837647E0,-2.542114258E-1,1.507568359E-2,1.131134033E-1
4.993865967E0,-3.213195801E-1,5.130004883E-2,5.558776855E-2
4.997863770E0,-3.884429932E-1,5.448913574E-2,-2.749633789E-2
5.001892090E0,-4.523468018E-1,-1.155090332E-2,-1.372222900E-1
5.005889893E0,-5.141448975E-1,-1.575012207E-1,-2.671813965E-1
5.009918213E0,-5.652770996E-1,-3.417816162E-1,-3.928833008E-1
5.013946534E0,-5.929718018E-1,-5.015716553E-1,-4.876861572E-1
5.017944336E0,-6.004180908E-1,-5.665588379E-1,-5.217742920E-1
5.021972657E0,-6.025543213E-1,-5.005187988E-1,-5.015411377E-1
5.026000977E0,-5.908355713E-1,-2.927856445E-1,-4.535980225E-1
5.029998780E0,-5.652770996E-1,2.146911621E-2,-3.864898682E-1
5.034027100E0,-5.226593018E-1,3.218688965E-1,-3.129882812E-1
5.038055420E0,-4.800415039E-1,4.837951660E-1,-2.235107422E-1
5.042053223E0,-4.523468018E-1,4.752655029E-1,-1.127166748E-1
5.046081543E0,-4.331817627E-1,3.548889160E-1,3.402709961E-3
5.050109864E0,-4.172058105E-1,2.100219727E-1,1.088562012E-1
5.054107666E0,-3.884429932E-1,1.184082031E-1,1.834259033E-1
5.058135987E0,-3.426361084E-1,1.045532227E-1,2.356262207E-1
5.062164307E0,-2.882995605E-1,1.503601074E-1,2.750396729E-1
5.066162110E0,-2.446289062E-1,2.270660400E-1,3.101959229E-1
5.070190430E0,-2.222595215E-1,3.080291748E-1,3.389587402E-1
5.074218750E0,-2.275848389E-1,3.857879639E-1,3.570556641E-1
5.078216553E0,-2.574157715E-1,4.561004639E-1,3.560028076E-1
5.082244873E0,-2.925567627E-1,5.125579834E-1,3.336334229E-1
5.086242676E0,-3.170623779E-1,5.530395508E-1,3.101959229E-1
5.090270996E0,-3.287811279E-1,5.871276855E-1,2.974090576E-1
5.094299317E0,-3.277130127E-1,6.403808594E-1,3.027343750E-1
5.098297120E0,-3.181304932E-1,7.064361572E-1,3.208465576E-1
5.102325440E0,-2.946929932E-1,7.873992920E-1,3.496093750E-1
5.106353760E0,-2.563476562E-1,8.587646484E-1,3.815612793E-1
5.110351563E0,-2.062835693E-1,9.109649658E-1,4.177856445E-1
5.114379883E0,-1.594085693E-1,9.535675049E-1,4.582672119E-1
5.118408204E0,-1.317138672E-1,1.017486572E0,5.136566162E-1
5.122406006E0,-1.391601562E-1,1.124023438E0,5.690460205E-1
5.126434327E0,-1.732482910E-1,1.245452881E0,6.084594727E-1
5.130462647E0,-2.169342041E-1,1.361572266E0,6.148529053E-1
5.134460450E0,-2.531433105E-1,1.459579468E0,5.871582031E-1
5.138488770E0,-2.819061279E-1,1.521362305E0,5.392303467E-1
5.142517090E0,-3.042755127E-1,1.540527344E0,4.806365967E-1
5.146514893E0,-3.287811279E-1,1.529876709E0,4.167175293E-1
5.150543213E0,-3.554077148E-1,1.504318237E0,3.698425293E-1
5.154571534E0,-3.841705322E-1,1.487274170E0,3.485412598E-1
5.158569336E0,-4.065399170E-1,1.504318237E0,3.474731445E-1
5.162597657E0,-4.267883301E-1,1.552246094E0,3.485412598E-1
5.166595459E0,-4.416961670E-1,1.624694824E0,3.410797119E-1
5.170623780E0,-4.619445801E-1,1.670501709E0,3.293609619E-1
5.174652100E0,-4.896392822E-1,1.693939209E0,3.176422119E-1
5.178649903E0,-5.215911865E-1,1.717361450E0,3.112640381E-1
5.182678223E0,-5.524902344E-1,1.756790161E0,3.101959229E-1
5.186706543E0,-5.737915039E-1,1.804718018E0,3.091278076E-1
5.190704346E0,-5.801849365E-1,1.861175537E0,3.080596924E-1
5.194732666E0,-5.706024170E-1,1.916580200E0,3.038024902E-1
5.198760987E0,-5.365142822E-1,1.973037720E0,2.984771729E-1
5.202758789E0,-4.629974365E-1,2.060379028E0,2.888793945E-1
5.206787110E0,-3.618011475E-1,2.141342163E0,2.931518555E-1
5.210815430E0,-2.520751953E-1,2.202056885E0,3.123168945E-1
5.214813233E0,-1.338348389E-1,2.239349365E0,3.251037598E-1
5.218841553E0,9.979248047E-3,2.324569702E0,3.229675293E-1
5.222869873E0,1.516571045E-1,2.362915039E0,3.293609619E-1
5.226867676E0,2.613677979E-1,2.321380615E0,3.314971924E-1
5.230895996E0,3.188934326E-1,2.182891846E0,3.091278076E-1
5.234893799E0,3.444671631E-1,2.028427124E0,2.558593750E-1
5.238922120E0,3.753509521E-1,1.977294922E0,1.812896729E-1
5.242950440E0,4.073181152E-1,1.964508057E0,1.312255859E-1
5.246948243E0,4.158325195E-1,1.905914307E0,1.120452881E-1
5.250976563E0,4.062500000E-1,1.851593018E0,1.045989990E-1
5.255004883E0,3.700256348E-1,1.775955200E0,1.045989990E-1
5.259002686E0,2.975921631E-1,1.690734863E0,1.013946533E-1
5.263031006E0,2.081146240E-1,1.671554565E0,9.713745117E-2
5.267059327E0,1.537780762E-1,1.879287720E0,6.837463379E-2
5.271057129E0,1.058502197E-1,2.048660278E0,6.623840332E-2
5.275085450E0,4.725646973E-2,2.087020874E0,7.795715332E-2
5.279113770E0,-3.582763672E-2,2.026290894E0,9.394836426E-2
5.283111573E0,-1.625976562E-1,1.867568970E0,1.045989990E-1
5.287139893E0,-2.904357910E-1,1.723754883E0,1.088562012E-1
5.291168213E0,-3.820495605E-1,1.694992065E0,1.024627686E-1
5.295166016E0,-4.385070801E-1,1.740798950E0,9.074401855E-2
5.299194336E0,-4.715270996E-1,1.816436768E0,9.181213379E-2
5.303222657E0,-4.896392822E-1,1.898468018E0,1.056671143E-1
5.307220459E0,-4.981536865E-1,2.009246826E0,9.074401855E-2
5.311248780E0,-5.141448975E-1,2.064651489E0,6.091308594E-2
5.315246582E0,-5.769805908E-1,1.967712402E0,4.707336426E-2
5.319274903E0,-6.483612061E-1,1.889938354E0,4.493713379E-2
5.323303223E0,-6.994934082E-1,1.859054565E0,5.239868164E-2
5.327301026E0,-7.229309082E-1,1.837738037E0,6.198120117E-2
5.331329346E0,-7.378387451E-1,1.801528931E0,6.944274902E-2
5.335357666E0,-7.495574951E-1,1.756790161E0,8.116149902E-2
5.339355469E0,-7.559509277E-1,1.690734863E0,9.394836426E-2
5.343383789E0,-7.548828125E-1,1.616165161E0,1.109924316E-1
5.347412110E0,-7.453002930E-1,1.556518555E0,1.259002686E-1
5.351409912E0,-7.282562256E-1,1.526687622E0,1.418762207E-1
5.355438233E0,-7.016296387E-1,1.523483276E0,1.578521729E-1
5.359466553E0,-6.749877930E-1,1.461700439E0,1.748962402E-1
5.363464356E0,-6.451721191E-1,1.409500122E0,1.823577881E-1
5.367492676E0,-6.068115234E-1,1.421218872E0,1.834259033E-1
5.371520996E0,-5.407714844E-1,1.547988892E0,1.674499512E-1
5.375518799E0,-4.960327148E-1,1.584213257E0,1.631774902E-1
5.379547120E0,-4.811096191E-1,1.575683594E0,1.653137207E-1
5.383575440E0,-4.875030518E-1,1.523483276E0,1.674499512E-1
5.387573243E0,-5.024261475E-1,1.459579468E0,1.653137207E-1
5.391601563E0,-5.098724365E-1,1.423355103E0,1.557312012E-1
5.395599366E0,-5.056152344E-1,1.467025757E0,1.354827881E-1
5.399627686E0,-4.736633301E-1,1.614044189E0,9.606933594E-2
5.403656006E0,-4.225311279E-1,1.759979248E0,5.665588379E-2
5.407653809E0,-3.969573975E-1,1.768493652E0,2.896118164E-2
5.411682129E0,-4.033508301E-1,1.686477661E0,9.780883789E-3
5.415710450E0,-4.278564453E-1,1.538406372E0,-6.195068359E-3
5.419708252E0,-4.619445801E-1,1.349853516E0,-2.003479004E-2
5.423736573E0,-4.811096191E-1,1.231613159E0,-4.560852051E-2
5.427764893E0,-4.885711670E-1,1.192199707E0,-8.183288574E-2
5.431762696E0,-4.885711670E-1,1.183670044E0,-1.233673096E-1
5.435791016E0,-4.843139648E-1,1.175155640E0,-1.606597900E-1
5.439819336E0,-4.811096191E-1,1.138931274E0,-1.958160400E-1
5.443817139E0,-4.832458496E-1,1.055831909E0,-2.192382812E-1
5.447845459E0,-4.917602539E-1,9.173583984E-1,-2.299041748E-1
5.451873780E0,-4.864349365E-1,8.289337158E-1,-2.426757812E-1
5.455871582E0,-4.662017822E-1,7.831268311E-1,-2.554626465E-1
5.459899903E0,-4.353027344E-1,7.383880615E-1,-2.618560791E-1
5.463897705E0,-3.969573975E-1,6.819305420E-1,-2.650451660E-1
5.467926026E0,-3.490142822E-1,6.276092529E-1,-2.682495117E-1
5.471954346E0,-2.904357910E-1,5.818023682E-1,-2.682495117E-1
5.475952149E0,-2.222595215E-1,5.423889160E-1,-2.671813965E-1
5.479980469E0,-1.498107910E-1,5.061645508E-1,-2.639923096E-1
5.484008789E0,-7.630920410E-2,4.816589355E-1,-2.597198486E-1
5.488006592E0,-6.011962891E-3,4.667510986E-1,-2.533264160E-1
5.492034912E0,6.216430664E-2,4.592895508E-1,-2.448120117E-1
5.496063233E0,1.250152588E-1,4.486389160E-1,-2.341613770E-1
5.500061036E0,1.814727783E-1,4.326629639E-1,-2.245788574E-1
5.504089356E0,2.422027588E-1,4.081573486E-1,-2.128601074E-1
5.508117676E0,3.029174805E-1,3.730010986E-1,-2.053985596E-1
5.512115479E0,3.636474609E-1,3.261260986E-1,-2.043304443E-1
5.516143799E0,4.264984131E-1,2.675476074E-1,-2.107238770E-1
5.520172120E0,4.914703369E-1,1.919097900E-1,-2.213745117E-1
5.524169922E0,5.639038086E-1,9.922790527E-2,-2.373504639E-1
5.528198243E0,6.427459717E-1,-4.104614258E-3,-2.586669922E-1
5.532226563E0,7.311553955E-1,-1.308593750E-1,-2.767639160E-1
5.536224366E0,8.302307129E-1,-2.672271729E-1,-3.023376465E-1
5.540252686E0,9.388885498E-1,-4.163513184E-1,-3.406829834E-1
5.544250489E0,1.054992676E0,-5.697479248E-1,-3.907470703E-1
5.548278809E0,1.178573608E0,-7.188873291E-1,-4.589233398E-1
5.552307129E0,1.304275513E0,-8.616333008E-1,-5.409545898E-1
5.556304932E0,1.422515869E0,-9.937286377E-1,-6.293792725E-1
5.560333252E0,1.522644043E0,-1.104522705E0,-7.231140137E-1
5.564361573E0,1.599349976E0,-1.181213379E0,-8.147277832E-1
5.568359375E0,1.649414062E0,-1.229156494E0,-9.042053223E-1
5.572387696E0,1.673919678E0,-1.246200562E0,-9.830322266E-1
5.576416016E0,1.676040649E0,-1.240875244E0,-1.055480957E0
5.580413819E0,1.663269043E0,-1.238739014E0,-1.115127563E0
5.584442139E0,1.635559082E0,-1.239807129E0,-1.146026611E0
5.588470459E0,1.590820312E0,-1.239807129E0,-1.127914429E0
5.592468262E0,1.529037476E0,-1.219558716E0,-1.048019409E0
5.596496582E0,1.457672119E0,-1.171630859E0,-9.148559570E-1
5.600524903E0,1.393753052E0,-1.075759888E0,-7.657318115E-1
5.604522705E0,1.351135254E0,-9.766845703E-1,-6.442871094E-1
5.608551026E0,1.325576782E0,-9.500579834E-1,-5.729064941E-1
5.612548829E0,1.311721802E0,-1.028884888E0,-5.430908203E-1
5.616577149E0,1.319183350E0,-1.198257446E0,-5.516052246E-1
5.620605469E0,1.360733032E0,-1.396392822E0,-5.910186768E-1
5.624603272E0,1.428909302E0,-1.595611572E0,-6.389617920E-1
5.628631592E0,1.508804321E0,-1.746871948E0,-6.741180420E-1
5.632659912E0,1.598281860E0,-1.836349487E0,-7.050018311E-1
5.636657715E0,1.688827515E0,-1.834228516E0,-7.007446289E-1
5.640686036E0,1.769790649E0,-1.714920044E0,-6.591949463E-1
5.644714356E0,1.832641602E0,-1.490142822E0,-5.707855225E-1
5.648712159E0,1.875244141E0,-1.145004272E0,-4.408264160E-1
5.652740479E0,1.900817871E0,-7.604370117E-1,-2.842254639E-1
5.656768799E0,1.890167236E0,-4.259490967E-1,-1.052551270E-1
5.660766602E0,1.813461304E0,-2.277984619E-1,5.772399902E-2
5.664794922E0,1.693084717E0,-2.097015381E-1,1.472015381E-1
5.668823243E0,1.566329956E0,-3.641662598E-1,1.653137207E-1
5.672821045E0,1.453399658E0,-6.358032227E-1,1.386871338E-1
5.676849366E0,1.357528687E0,-9.212951660E-1,8.541870117E-2
5.680877686E0,1.260589600E0,-1.160980225E0,3.109741211E-2
5.684875489E0,1.154067993E0,-1.351654053E0,-1.937866211E-3
5.688903809E0,1.032623291E0,-1.508255005E0,-2.749633789E-2
5.692901612E0,8.941497803E-1,-1.653121948E0,-6.904602051E-2
5.696929932E0,7.545928955E-1,-1.775634766E0,-1.297607422E-1
5.700958252E0,6.150360107E-1,-1.876831055E0,-1.968688965E-1
5.704956055E0,4.797515869E-1,-1.920516968E0,-2.735748291E-1
5.708984375E0,3.593750000E-1,-1.892807007E0,-3.683776855E-1
5.713012696E0,2.667083740E-1,-1.847000122E0,-4.770355225E-1
5.717010498E0,1.953277588E-1,-1.784149170E0,-5.792999268E-1
5.721038819E0,1.431274414E-1,-1.703201294E0,-6.655883789E-1
5.725067139E0,1.569824219E-1,-1.560455322E0,-7.326965332E-1
5.729064942E0,2.336730957E-1,-1.363372803E0,-8.094024658E-1
5.733093262E0,3.029174805E-1,-1.166305542E0,-8.818359375E-1
5.737121582E0,3.178405762E-1,-1.062973022E0,-9.276428223E-1
5.741119385E0,3.167724609E-1,-1.043792725E0,-9.478912354E-1
5.745147705E0,3.316802979E-1,-1.092803955E0,-9.404296875E-1
5.749176026E0,3.391418457E-1,-1.149261475E0,-9.329681396E-1
5.753173829E0,3.220977783E-1,-1.191864014E0,-9.393615723E-1
5.757202149E0,2.944030762E-1,-1.286682129E0,-9.361724854E-1
5.761230469E0,2.762908936E-1,-1.287750244E0,-9.553375244E-1
5.765228272E0,2.656402588E-1,-1.221694946E0,-9.766540527E-1
5.769256592E0,2.613677979E-1,-1.220626831E0,-9.478912354E-1
5.773254395E0,2.389984131E-1,-1.309051514E0,-8.765106201E-1
5.777282715E0,2.123718262E-1,-1.333541870E0,-8.157958984E-1
5.781311036E0,1.868133545E-1,-1.285614014E0,-7.699890137E-1
5.785308838E0,1.729583740E-1,-1.195068359E0,-7.359008789E-1
5.789337159E0,1.654968262E-1,-1.064041138E0,-7.124633789E-1
5.793365479E0,1.495208740E-1,-9.532470703E-1,-6.666564941E-1
5.797363282E0,1.346130371E-1,-8.978576660E-1,-6.006164551E-1
5.801391602E0,1.186370850E-1,-8.776092529E-1,-5.015411377E-1
5.805419922E0,9.306335449E-2,-8.840026855E-1,-3.960723877E-1
5.809417725E0,7.495117188E-2,-8.371429443E-1,-3.183135986E-1
5.813446045E0,6.111145020E-2,-7.657623291E-1,-2.480010986E-1
5.817474366E0,4.193115234E-2,-7.231597900E-1,-1.574554443E-1
5.821472168E0,2.169799805E-2,-7.551116943E-1,-5.519104004E-2
5.825500489E0,1.449584961E-3,-8.062438965E-1,5.772399902E-2
5.829528809E0,-2.838134766E-2,-8.403320312E-1,1.578521729E-1
5.833526612E0,-6.672668457E-2,-8.765563965E-1,2.590637207E-1
5.837554932E0,-1.189270020E-1,-9.170379639E-1,3.719787598E-1
5.841583252E0,-1.775207520E-1,-9.489898682E-1,4.848937988E-1
5.845581055E0,-2.424926758E-1,-9.596405029E-1,5.839691162E-1
5.849609375E0,-3.032226562E-1,-9.543151855E-1,6.723785400E-1
5.853607178E0,-3.564758301E-1,-9.372711182E-1,7.554779053E-1
5.857635498E0,-3.980255127E-1,-9.127655029E-1,8.353729248E-1
5.861663819E0,-4.331817627E-1,-8.850708008E-1,9.088745117E-1
5.865661621E0,-4.576721191E-1,-8.488464355E-1,9.781188965E-1
5.869689942E0,-4.757843018E-1,-8.041076660E-1,1.045227051E0
5.873718262E0,-4.907073975E-1,-7.551116943E-1,1.099548340E0
5.877716065E0,-5.056152344E-1,-7.082366943E-1,1.148559570E0
5.881744385E0,-5.247955322E-1,-6.634979248E-1,1.191162109E0
5.885772705E0,-5.492858887E-1,-6.198272705E-1,1.227386475E0
5.889770508E0,-5.780487061E-1,-5.761413574E-1,1.258270264E0
5.893798829E0,-6.174621582E-1,-5.303344727E-1,1.280654907E0
5.897827149E0,-6.611480713E-1,-4.845275879E-1,1.297698975E0
5.901824952E0,-7.037506104E-1,-4.461822510E-1,1.309402466E0
5.905853272E0,-7.399749756E-1,-4.152984619E-1,1.311538696E0
5.909881592E0,-7.602081299E-1,-3.865356445E-1,1.298751831E0
5.913879395E0,-7.708587646E-1,-3.545684814E-1,1.267868042E0
5.917907715E0,-7.666015625E-1,-3.130187988E-1,1.213531494E0
5.921905518E0,-7.527618408E-1,-2.661590576E-1,1.137908936E0
5.925933838E0,-7.229309082E-1,-2.214202881E-1,1.037765503E0
5.929962159E0,-6.739196777E-1,-1.862640381E-1,9.259185791E-1
5.933959961E0,-6.089477539E-1,-1.617584229E-1,7.959594727E-1
5.937988282E0,-5.397033691E-1,-1.542968750E-1,6.457519531E-1
5.942016602E0,-4.683380127E-1,-1.724090576E-1,4.848937988E-1
5.946014405E0,-3.927001953E-1,-2.128906250E-1,3.155212402E-1
5.950042725E0,-3.085479736E-1,-2.661590576E-1,1.408081055E-1
5.954071045E0,-2.084045410E-1,-3.183593750E-1,-3.495788574E-2
5.958068848E0,-9.442138672E-2,-3.673553467E-1,-2.085876465E-1
5.962097168E0,3.446960449E-2,-4.152984619E-1,-3.545379639E-1
5.966125489E0,1.665649414E-1,-4.632263184E-1,-4.344329834E-1
5.970123291E0,2.975921631E-1,-4.994506836E-1,-4.525451660E-1
5.974151612E0,4.307556152E-1,-5.186157227E-1,-4.408264160E-1
5.978179932E0,5.628509521E-1,-5.420532227E-1,-4.344329834E-1
5.982177735E0,6.778869629E-1,-5.772094727E-1,-4.344329834E-1
5.986206055E0,7.641754150E-1,-6.187591553E-1,-4.280395508E-1
5.990234375E0,8.046569824E-1,-6.453857422E-1,-4.056701660E-1
5.994232178E0,7.982635498E-1,-6.496429443E-1,-3.673095703E-1
5.998260498E0,7.524566650E-1,-6.294097900E-1,-3.140563965E-1
6.002258301E0,6.746978760E-1,-5.942535400E-1,-2.501373291E-1
6.006286621E0,5.735015869E-1,-5.527038574E-1,-1.766357422E-1
6.010314942E0,4.541931152E-1,-5.101013184E-1,-8.927917480E-2
6.014312745E0,3.178405762E-1,-4.632263184E-1,1.724243164E-2
6.018341065E0,1.697692871E-1,-4.067687988E-1,1.290893555E-1
6.022369385E0,1.103210449E-2,-3.503112793E-1,2.175140381E-1
6.026367188E0,-1.476898193E-1,-3.108978271E-1,2.686462402E-1
6.030395508E0,-2.989501953E-1,-2.821350098E-1,2.963409424E-1
6.034423829E0,-4.353027344E-1,-2.491149902E-1,3.038024902E-1
6.038421631E0,-5.514221191E-1,-2.107543945E-1,2.931518555E-1
6.042449952E0,-6.451721191E-1,-1.713409424E-1,2.622528076E-1
6.046478272E0,-7.218627930E-1,-1.521759033E-1,2.121887207E-1
6.050476075E0,-7.804565430E-1,-1.788024902E-1,1.386871338E-1
6.054504395E0,-8.220062256E-1,-2.576293945E-1,4.067993164E-2
6.058532715E0,-8.464965820E-1,-3.769378662E-1,-7.969665527E-2
6.062530518E0,-8.592834473E-1,-5.271453857E-1,-1.968688965E-1
6.066558838E0,-8.497009277E-1,-6.656341553E-1,-2.874145508E-1
6.070556641E0,-8.188018799E-1,-7.433929443E-1,-3.492126465E-1
6.074584961E0,-7.740631104E-1,-7.284851074E-1,-3.971405029E-1
6.078613282E0,-7.080230713E-1,-6.358032227E-1,-4.291076660E-1
6.082611084E0,-6.270599365E-1,-4.973144531E-1,-4.493408203E-1
6.086639405E0,-5.524902344E-1,-3.236846924E-1,-4.642486572E-1
6.090667725E0,-4.853820801E-1,-1.383209229E-1,-4.738464355E-1
6.094665528E0,-4.321136475E-1,2.893066406E-2,-4.535980225E-1
6.098693848E0,-3.873748779E-1,1.397094727E-1,-4.184570312E-1
6.102722168E0,-3.511505127E-1,1.716766357E-1,-3.662567139E-1
6.106719971E0,-3.255920410E-1,1.503601074E-1,-3.012695312E-1
6.110748291E0,-3.159942627E-1,1.120147705E-1,-2.299041748E-1
6.114776612E0,-3.202667236E-1,8.538818359E-2,-1.649169922E-1
6.118774414E0,-3.330383301E-1,7.685852051E-2,-1.020660400E-1
6.122802735E0,-3.586120605E-1,7.579040527E-2,-4.028320312E-2
6.126831055E0,-3.958892822E-1,6.088256836E-2,1.617431641E-2
6.130828858E0,-4.470214844E-1,2.893066406E-2,6.518554688E-2
6.134857178E0,-5.162658691E-1,-7.293701172E-3,1.067199707E-1
6.138885498E0,-5.865783691E-1,-2.540588379E-2,1.322937012E-1
6.142883301E0,-6.408996582E-1,7.614135742E-3,1.504058838E-1
6.146911621E0,-6.515502930E-1,1.002960205E-1,1.748962402E-1
6.150909424E0,-6.068115234E-1,2.430419922E-1,2.111206055E-1
6.154937745E0,-5.098724365E-1,4.060211182E-1,2.686462402E-1
6.158966065E0,-3.724517822E-1,5.711364746E-1,3.400115967E-1
6.162963868E0,-2.147979736E-1,7.330627441E-1,4.124603271E-1
6.166992188E0,-4.754638672E-2,8.853912354E-1,4.838256836E-1
6.171020508E0,1.079711914E-1,1.008972168E0,5.637207031E-1
6.175018311E0,2.464599609E-1,1.094192505E0,6.510772705E-1
6.179046631E0,3.604431152E-1,1.161300659E0,7.299041748E-1
6.183074952E0,4.456634521E-1,1.233734131E0,7.863616943E-1
6.187072754E0,4.989318848E-1,1.317901611E0,8.183288574E-1
6.191101075E0,5.149078369E-1,1.411636353E0,8.300476074E-1
6.195129395E0,4.967956543E-1,1.505386353E0,8.396301270E-1
6.199127198E0,4.520568848E-1,1.612976074E0,8.374938965E-1
6.203155518E0,3.924102783E-1,1.730148315E0,8.193817139E-1
6.207183838E0,3.284912109E-1,1.840942383E0,7.735748291E-1
6.211181641E0,2.698974609E-1,1.918701172E0,7.000732422E-1
6.215209961E0,2.145080566E-1,1.964508057E0,6.137847900E-1
6.219207764E0,1.665649414E-1,1.995407104E0,5.328369141E-1
6.223236084E0,1.175689697E-1,2.033752441E0,4.689178467E-1
6.227264405E0,5.897521973E-2,2.079559326E0,4.209747314E-1
6.231262207E0,-1.773071289E-2,2.095535278E0,3.964843750E-1
6.235290528E0,-1.018829346E-1,2.094467163E0,3.815612793E-1
6.239318848E0,-1.838989258E-1,2.125366211E0,3.602600098E-1
6.243316651E0,-2.542114258E-1,2.186080933E0,3.314971924E-1
6.247344971E0,-3.096008301E-1,2.262786865E0,3.059234619E-1
6.251373291E0,-3.628692627E-1,2.329895020E0,2.931518555E-1
6.255371094E0,-3.820495605E-1,2.424697876E0,2.761077881E-1
6.259399414E0,-3.426361084E-1,2.575973511E0,2.622528076E-1
6.263427735E0,-2.904357910E-1,2.616455078E0,2.590637207E-1
6.267425537E0,-2.456970215E-1,2.552536011E0,2.569274902E-1
6.271453858E0,-2.222595215E-1,2.419372559E0,2.558593750E-1
6.275482178E0,-2.158660889E-1,2.263854980E0,2.484130859E-1
6.279479981E0,-1.956176758E-1,2.162643433E0,2.143249512E-1
6.283508301E0,-1.572723389E-1,2.095535278E0,1.748962402E-1
6.287536621E0,-1.029510498E-1,2.042266846E0,1.280364990E-1
6.291534424E0,-1.878356934E-2,2.065704346E0,6.091308594E-2
6.295562745E0,5.578613281E-2,2.078491211E0,6.591796875E-3
6.299560547E0,6.962585449E-2,1.930419922E0,-2.963256836E-2
6.303588868E0,3.340148926E-2,1.746124268E0,-5.625915527E-2
6.307617188E0,-1.133728027E-2,1.625762939E0,-7.649230957E-2
6.311614991E0,-6.246948242E-2,1.561843872E0,-8.821105957E-2
6.315643311E0,-1.178588867E-1,1.533081055E0,-9.353637695E-2
6.319671631E0,-1.721801758E-1,1.505386353E0,-1.042022705E-1
6.323669434E0,-2.147979736E-1,1.492599487E0,-1.244354248E-1
6.327697754E0,-2.297058105E-1,1.558639526E0,-1.542663574E-1
6.331726075E0,-2.542114258E-1,1.585281372E0,-1.702423096E-1
6.335723877E0,-3.032226562E-1,1.477676392E0,-1.606597900E-1
6.339752198E0,-3.639373779E-1,1.356246948E0,-1.414794922E-1
6.343780518E0,-4.214630127E-1,1.309371948E0,-1.265716553E-1
6.347778321E0,-4.651336670E-1,1.317901611E0,-1.137847900E-1
6.351806641E0,-4.981536865E-1,1.331741333E0,-9.460449219E-2
6.355834961E0,-5.301208496E-1,1.333877563E0,-7.116699219E-2
6.359832764E0,-5.642089844E-1,1.326416016E0,-4.135131836E-2
6.363861084E0,-6.025543213E-1,1.314697266E0,-6.195068359E-3
6.367889405E0,-6.387786865E-1,1.295516968E0,3.321838379E-2
6.371887207E0,-6.696624756E-1,1.252914429E0,7.690429688E-2
6.375915528E0,-6.963043213E-1,1.212432861E0,1.173858643E-1
6.379913330E0,-7.207946777E-1,1.200714111E0,1.589202881E-1
6.383941651E0,-7.484893799E-1,1.178344727E0,2.036590576E-1
6.387969971E0,-7.761993408E-1,1.125076294E0,2.462768555E-1
6.391967774E0,-7.975006104E-1,1.092056274E0,2.856903076E-1
6.395996094E0,-8.188018799E-1,1.093124390E0,3.208465576E-1
6.400024414E0,-8.294525146E-1,1.119750977E0,3.538665771E-1
6.404022217E0,-8.401031494E-1,1.100585938E0,3.847656250E-1
6.408050537E0,-8.486328125E-1,1.097381592E0,4.082031250E-1
6.412078858E0,-8.486328125E-1,1.149581909E0,4.241790771E-1
6.416076661E0,-8.422393799E-1,1.204971313E0,4.337615967E-1
6.420104981E0,-8.262634277E-1,1.246520996E0,4.305725098E-1
6.424133301E0,-8.102874756E-1,1.276351929E0,4.209747314E-1
6.428131104E0,-8.070831299E-1,1.264633179E0,4.145812988E-1
6.432159424E0,-8.156127930E-1,1.230545044E0,4.049987793E-1
6.436187745E0,-8.273315430E-1,1.202850342E0,3.858184814E-1
6.440185547E0,-8.326568604E-1,1.199645996E0,3.549346924E-1
6.444213868E0,-8.273315430E-1,1.214569092E0,3.155212402E-1
6.448211670E0,-8.177337646E-1,1.195388794E0,2.739715576E-1
6.452239991E0,-8.092193604E-1,1.139999390E0,2.292327881E-1
6.456268311E0,-7.942962646E-1,1.067550659E0,1.834259033E-1
6.460266114E0,-7.751312256E-1,1.016418457E0,1.344299316E-1
6.464294434E0,-7.559509277E-1,1.004699707E0,7.902526855E-2
6.468322754E0,-7.314453125E-1,1.029205322E0,2.256774902E-2
6.472320557E0,-7.090759277E-1,1.046249390E0,-2.963256836E-2
6.476348877E0,-6.984252930E-1,1.001510620E0,-7.862854004E-2
6.480377198E0,-6.888427734E-1,9.141540527E-1,-1.169738770E-1
6.484375000E0,-6.739196777E-1,8.459777832E-1,-1.500091553E-1
6.488403321E0,-6.579437256E-1,8.076324463E-1,-1.798248291E-1
6.492431641E0,-6.472930908E-1,7.767333984E-1,-2.075347900E-1
6.496433086E0,-6.419677734E-1,7.405242920E-1,-2.309570312E-1
6.500461406E0,-6.217346191E-1,6.915130615E-1,-2.405548096E-1
6.504489726E0,-5.833740234E-1,6.403808594E-1,-2.437438965E-1
6.508487529E0,-5.386352539E-1,5.924530029E-1,-2.416229248E-1
6.512515849E0,-4.949645996E-1,5.509033203E-1,-2.394866943E-1
6.516544170E0,-4.544830322E-1,5.125579834E-1,-2.373504639E-1
6.520541972E0,-4.012145996E-1,4.848632812E-1,-2.299041748E-1
6.524570293E0,-3.404998779E-1,4.667510986E-1,-2.171173096E-1
6.528568096E0,-2.733917236E-1,4.518280029E-1,-2.000732422E-1
6.532596416E0,-2.126617432E-1,4.369201660E-1,-1.851501465E-1
6.536624736E0,-1.604766846E-1,4.177398682E-1,-1.723785400E-1
6.540622539E0,-1.008148193E-1,3.975067139E-1,-1.574554443E-1
6.544650859E0,-3.903198242E-2,3.666076660E-1,-1.446838379E-1
6.548679179E0,1.316833496E-2,3.240051270E-1,-1.372222900E-1
6.552676982E0,6.855773926E-2,2.600860596E-1,-1.318969727E-1
6.556705303E0,1.378021240E-1,1.706085205E-1,-1.212463379E-1
6.560733623E0,2.102355957E-1,6.301879883E-2,-1.042022705E-1
6.564731426E0,2.901306152E-1,-5.949401855E-2,-8.715820312E-2
6.568759746E0,3.892059326E-1,-1.883850098E-1,-7.011413574E-2
6.572788066E0,5.021209717E-1,-3.108978271E-1,-6.051635742E-2
6.576785869E0,6.246337891E-1,-4.312744141E-1,-6.584167480E-2
6.580814189E0,7.577819824E-1,-5.505828857E-1,-8.715820312E-2
6.584842510E0,9.015960693E-1,-6.613616943E-1,-1.180419922E-1
6.588840312E0,1.051803589E0,-7.615051270E-1,-1.606597900E-1
6.592868633E0,1.198806763E0,-8.531188965E-1,-2.075347900E-1
6.596896953E0,1.337295532E0,-9.298095703E-1,-2.586669922E-1
6.600894756E0,1.452346802E0,-9.894714355E-1,-3.119201660E-1
6.604923076E0,1.545013428E0,-1.035278320E0,-3.662567139E-1
6.608920879E0,1.617462158E0,-1.078948975E0,-4.184570312E-1
6.612949199E0,1.672851562E0,-1.115173340E0,-4.695892334E-1
6.616977519E0,1.718658447E0,-1.140731812E0,-5.207214355E-1
6.620975322E0,1.748489380E0,-1.159912109E0,-5.548095703E-1
6.625003642E0,1.757003784E0,-1.175888062E0,-5.611877441E-1
6.629031963E0,1.747421265E0,-1.185470581E0,-5.377655029E-1
6.633029765E0,1.714401245E0,-1.188674927E0,-4.930114746E-1
6.637058086E0,1.655807495E0,-1.185470581E0,-4.472045898E-1
6.641086406E0,1.580169678E0,-1.178024292E0,-4.067382812E-1
6.645084209E0,1.496017456E0,-1.180145264E0,-3.811645508E-1
6.649112529E0,1.398010254E0,-1.209976196E0,-3.790283203E-1
6.653140849E0,1.302139282E0,-1.286682129E0,-4.035339355E-1
6.657138652E0,1.226501465E0,-1.417709351E0,-4.535980225E-1
6.661166972E0,1.187088013E0,-1.584945679E0,-5.143280029E-1
6.665195293E0,1.176437378E0,-1.763916016E0,-5.718536377E-1
6.669193096E0,1.193481445E0,-1.933288574E0,-6.197814941E-1
6.673221416E0,1.236099243E0,-2.060058594E0,-6.538696289E-1
6.677219219E0,1.296813965E0,-2.120773315E0,-6.741180420E-1
6.681247539E0,1.366058350E0,-2.115447998E0,-6.773071289E-1
6.685275859E0,1.424636841E0,-2.018508911E0,-6.432189941E-1
6.689273662E0,1.469390869E0,-1.807586670E0,-5.654602051E-1
6.693301982E0,1.487487793E0,-1.486953735E0,-4.557342529E-1
6.697330303E0,1.475769043E0,-1.069366455E0,-3.161773682E-1
6.701328105E0,1.435302734E0,-6.517791748E-1,-1.553344727E-1
6.705356426E0,1.373504639E0,-3.471069336E-1,2.334594727E-3
6.709384746E0,1.295745850E0,-2.192840576E-1,1.131134033E-1
6.713382549E0,1.208389282E0,-2.799987793E-1,1.685180664E-1
6.717410869E0,1.125305176E0,-4.866638184E-1,1.674499512E-1
6.721439189E0,1.053924561E0,-7.433929443E-1,1.269683838E-1
6.725436992E0,9.996032715E-1,-1.006515503E0,7.902526855E-2
6.729465312E0,9.548645020E-1,-1.223831177E0,3.961181641E-2
6.733493633E0,9.090576172E-1,-1.391067505E0,1.724243164E-2
6.737491435E0,8.994750977E-1,-1.498672485E0,-1.791381836E-2
6.741519756E0,9.133148193E-1,-1.542343140E0,-1.073913574E-1
6.745548076E0,8.664398193E-1,-1.675506592E0,-2.064666748E-1
6.749545879E0,7.727050781E-1,-1.808654785E0,-2.938079834E-1
6.753574199E0,6.725616455E-1,-1.857666016E0,-3.673095703E-1
6.757572002E0,6.001281738E-1,-1.824630737E0,-4.322967529E-1
6.761600322E0,5.607147217E-1,-1.757522583E0,-4.951477051E-1
6.765628642E0,5.532531738E-1,-1.692550659E0,-5.324401855E-1
6.769626445E0,5.671081543E-1,-1.630752563E0,-5.558624268E-1
6.773654765E0,5.969390869E-1,-1.488006592E0,-6.187133789E-1
6.777683086E0,6.139831543E-1,-1.298400879E0,-7.252502441E-1
6.781680888E0,6.001281738E-1,-1.175888062E0,-8.115386963E-1
6.785709209E0,5.436706543E-1,-1.125823975E0,-8.562774658E-1
6.789737529E0,4.573822021E-1,-1.104522705E0,-8.807678223E-1
6.793735332E0,3.764190674E-1,-1.116241455E0,-8.882293701E-1
6.797763652E0,3.199615479E-1,-1.154586792E0,-8.860931396E-1
6.801791972E0,2.858734131E-1,-1.227020264E0,-8.658599854E-1
6.805789775E0,2.549896240E-1,-1.352722168E0,-8.232574463E-1
6.809818096E0,2.347412109E-1,-1.377227783E0,-7.998199463E-1
6.813846416E0,2.230224609E-1,-1.320770264E0,-7.827758789E-1
6.817844219E0,2.326202393E-1,-1.216369629E0,-7.710571289E-1
6.821872539E0,2.485961914E-1,-1.068298340E0,-7.625274658E-1
6.825900859E0,2.773590088E-1,-9.127655029E-1,-7.486877441E-1
6.829898662E0,3.114471436E-1,-7.998504639E-1,-7.135314941E-1
6.833926982E0,3.391418457E-1,-7.220916748E-1,-6.453552246E-1
6.837924785E0,3.657684326E-1,-6.911926270E-1,-5.526733398E-1
6.841953105E0,3.860168457E-1,-6.943969727E-1,-4.461517334E-1
6.845981426E0,3.913421631E-1,-7.359313965E-1,-3.364257812E-1
6.849979228E0,3.945312500E-1,-7.284851074E-1,-2.490692139E-1
6.854007549E0,3.902740479E-1,-7.114410400E-1,-1.670532227E-1
6.858035869E0,3.785552979E-1,-7.380676270E-1,-7.116699219E-2
6.862033672E0,3.668365479E-1,-8.328704834E-1,4.067993164E-2
6.866061992E0,3.348846436E-1,-9.671020508E-1,1.674499512E-1
6.870090312E0,2.848052979E-1,-1.049118042E0,2.611846924E-1
6.874088115E0,2.176971436E-1,-1.125823975E0,3.442840576E-1
6.878116435E0,1.399383545E-1,-1.215301514E0,4.348297119E-1
6.882144756E0,5.578613281E-2,-1.301589966E0,5.264434814E-1
6.886142558E0,-3.157043457E-2,-1.360183716E0,6.137847900E-1
6.890170879E0,-1.167907715E-1,-1.379348755E0,6.915588379E-1
6.894199199E0,-1.934967041E-1,-1.369766235E0,7.608032227E-1
6.898197002E0,-2.574157715E-1,-1.350601196E0,8.236541748E-1
6.902225322E0,-3.245239258E-1,-1.309051514E0,8.737182617E-1
6.906253642E0,-3.863067627E-1,-1.258987427E0,9.195251465E-1
6.910251445E0,-4.491577148E-1,-1.204650879E0,9.631958008E-1
6.914279765E0,-5.109405518E-1,-1.146057129E0,1.004745483E0
6.918277568E0,-5.716552734E-1,-1.083206177E0,1.040969849E0
6.922305888E0,-6.302490234E-1,-1.015029907E0,1.072921753E0
6.926334209E0,-6.856384277E-1,-9.404602051E-1,1.102752686E0
6.930332012E0,-7.357177734E-1,-8.648376465E-1,1.127243042E0
6.934360332E0,-7.772521973E-1,-7.923889160E-1,1.144287109E0
6.938388652E0,-8.102874756E-1,-7.252807617E-1,1.152816772E0
6.942386455E0,-8.294525146E-1,-6.571044922E-1,1.154953003E0
6.946414775E0,-8.358459473E-1,-5.878601074E-1,1.147491455E0
6.950443096E0,-8.305206299E-1,-5.175628662E-1,1.125122070E0
6.954440898E0,-8.092193604E-1,-4.504394531E-1,1.089965820E0
6.958469219E0,-7.761993408E-1,-3.918609619E-1,1.048416138E0
6.962497539E0,-7.303924561E-1,-3.460540771E-1,9.951629639E-1
6.966495342E0,-6.803131104E-1,-3.162231445E-1,9.333648682E-1
6.970523662E0,-6.238555908E-1,-3.002471924E-1,8.630676270E-1
6.974521465E0,-5.727233887E-1,-2.970428467E-1,7.757110596E-1
6.978549785E0,-5.258483887E-1,-3.013153076E-1,6.702575684E-1
6.982578105E0,-4.768524170E-1,-3.226165771E-1,5.488128662E-1
6.986575908E0,-4.193267822E-1,-3.598937988E-1,4.199066162E-1
6.990604228E0,-3.543548584E-1,-4.025115967E-1,2.856903076E-1
6.994632549E0,-2.776489258E-1,-4.472503662E-1,1.535949707E-1
6.998630351E0,-1.945648193E-1,-4.855957031E-1,2.682495117E-2
7.002658672E0,-1.018829346E-1,-5.186157227E-1,-8.715820312E-2
7.006686992E0,-7.064819336E-3,-5.463256836E-1,-1.744995117E-1
7.010684795E0,8.773803711E-2,-5.665588379E-1,-2.117919922E-1
7.014713115E0,1.814727783E-1,-5.750885010E-1,-2.149810791E-1
7.018741435E0,2.741546631E-1,-5.804138184E-1,-2.117919922E-1
7.022739238E0,3.572540283E-1,-5.953216553E-1,-2.096557617E-1
7.026767558E0,4.275512695E-1,-6.155548096E-1,-1.979370117E-1
7.030795879E0,4.765625000E-1,-6.389923096E-1,-1.777038574E-1
7.034793681E0,5.010528564E-1,-6.634979248E-1,-1.531982422E-1
7.038822002E0,4.978637695E-1,-6.858673096E-1,-1.265716553E-1
7.042850322E0,4.754943848E-1,-7.029113770E-1,-9.353637695E-2
7.046848125E0,4.360809326E-1,-7.156982422E-1,-5.412292480E-2
7.050876445E0,3.806915283E-1,-7.210235596E-1,-8.316040039E-3
7.054874248E0,3.167724609E-1,-7.124938965E-1,4.600524902E-2
7.058902568E0,2.368774414E-1,-6.794738770E-1,1.120452881E-1
7.062930888E0,1.356811523E-1,-6.251525879E-1,1.802215576E-1
7.066928691E0,7.843017578E-3,-5.676269531E-1,2.303009033E-1
7.070957012E0,-1.349029541E-1,-5.143585205E-1,2.462768555E-1
7.074985332E0,-2.808380127E-1,-4.568328857E-1,2.281646729E-1
7.078983135E0,-4.182586670E-1,-3.971862793E-1,1.834259033E-1
7.083011455E0,-5.354461670E-1,-3.545684814E-1,1.205749512E-1
7.087039775E0,-6.323852539E-1,-3.428497314E-1,3.321838379E-2
7.091037578E0,-7.080230713E-1,-3.833312988E-1,-8.609008789E-2
7.095065898E0,-7.676696777E-1,-4.685516357E-1,-2.394866943E-1
7.099094219E0,-8.070831299E-1,-5.761413574E-1,-3.971405029E-1
7.103092021E0,-8.315887451E-1,-6.847991943E-1,-5.153961182E-1
7.107120342E0,-8.358459473E-1,-7.561798096E-1,-5.729064941E-1
7.111148662E0,-7.964324951E-1,-7.369995117E-1,-5.856933594E-1
7.115146465E0,-7.037506104E-1,-6.176910400E-1,-5.739746094E-1
7.119174785E0,-5.663299561E-1,-4.270019531E-1,-5.526733398E-1
7.123203105E0,-4.172058105E-1,-2.054290771E-1,-5.313720703E-1
7.127200908E0,-2.936248779E-1,-4.104614258E-3,-5.153961182E-1
7.131229228E0,-2.147979736E-1,1.461029053E-1,-5.143280029E-1
7.135227031E0,-1.775207520E-1,2.345275879E-1,-5.036773682E-1
7.139255351E0,-1.753845215E-1,2.409057617E-1,-4.546661377E-1
7.143283672E0,-1.924285889E-1,1.706085205E-1,-3.811645508E-1
7.147281474E0,-2.126617432E-1,7.473754883E-2,-3.034057617E-1
7.151309795E0,-2.275848389E-1,-1.475524902E-2,-2.288360596E-1
7.155338115E0,-2.318420410E-1,-7.867431641E-2,-1.595916748E-1
7.159335918E0,-2.339782715E-1,-1.063690186E-1,-9.674072266E-2
7.163364238E0,-2.318420410E-1,-1.063690186E-1,-3.921508789E-2
7.167392558E0,-2.350311279E-1,-8.932495117E-2,1.617431641E-2
7.171390361E0,-2.424926758E-1,-8.293151855E-2,7.583618164E-2
7.175418681E0,-2.574157715E-1,-8.825683594E-2,1.354827881E-1
7.179447002E0,-2.744598389E-1,-1.063690186E-1,1.823577881E-1
7.183444804E0,-2.925567627E-1,-1.191406250E-1,2.132568359E-1
7.187473125E0,-3.042755127E-1,-1.148834229E-1,2.377471924E-1
7.191501445E0,-3.000183105E-1,-7.867431641E-2,2.643890381E-1
7.195499248E0,-2.797851562E-1,-1.155090332E-2,2.963409424E-1
7.199527568E0,-2.403717041E-1,7.473754883E-2,3.336334229E-1
7.203525371E0,-1.881713867E-1,1.684722900E-1,3.740997314E-1
7.207553691E0,-1.274414062E-1,2.824554443E-1,4.135284424E-1
7.211582012E0,-5.181884766E-2,4.443817139E-1,4.444122314E-1
7.215579814E0,5.578613281E-2,6.339874268E-1,5.083312988E-1
7.219608135E0,1.825408936E-1,7.991027832E-1,6.340332031E-1
7.223636455E0,2.688293457E-1,9.322662354E-1,8.172607422E-1
7.227634258E0,2.752227783E-1,1.039855957E0,1.003677368E0
7.231662578E0,2.113037109E-1,1.157043457E0,1.136840820E0
7.235690898E0,1.154327393E-1,1.275283813E0,1.192230225E0
7.239688701E0,2.169799805E-2,1.383941650E0,1.167724609E0
7.243717021E0,-4.010009766E-2,1.478744507E0,1.083572388E0
7.247745342E0,-6.140136719E-2,1.556518555E0,9.674530029E-1
7.251743144E0,-5.075073242E-2,1.619369507E0,8.534698486E-1
7.255771465E0,-1.026916504E-2,1.698196411E0,7.490844727E-1
7.259799785E0,4.512023926E-2,1.801528931E0,6.606597900E-1
7.263797588E0,8.241271973E-2,1.889938354E0,5.924835205E-1
7.267825908E0,6.536865234E-2,1.894195557E0,5.488128662E-1
7.271854228E0,1.103210449E-2,1.857986450E0,5.264434814E-1
7.275852031E0,-5.607604980E-2,1.836685181E0,5.093994141E-1
7.279880351E0,-1.167907715E-1,1.850524902E0,4.848937988E-1
7.283878154E0,-1.572723389E-1,1.899520874E0,4.465484619E-1
7.287906474E0,-1.764526367E-1,1.969833374E0,4.018096924E-1
7.291934795E0,-1.838989258E-1,2.031616211E0,3.613281250E-1
7.295932597E0,-1.732482910E-1,2.124298096E0,3.229675293E-1
7.299960918E0,-1.199951172E-1,2.278762817E0,2.878265381E-1
7.303989238E0,-6.991577148E-2,2.351196289E0,2.729034424E-1
7.307987041E0,-2.944946289E-2,2.358657837E0,2.558593750E-1
7.312015361E0,-7.064819336E-3,2.322433472E0,2.324218750E-1
7.316043681E0,4.653930664E-3,2.240417480E0,2.026062012E-1
7.320041484E0,1.635742188E-2,2.127502441E0,1.610565186E-1
7.324069804E0,2.914428711E-2,2.024169922E0,1.099243164E-1
7.328098125E0,4.086303711E-2,1.937881470E0,5.239868164E-2
7.332095928E0,4.512023926E-2,1.846267700E0,-4.058837891E-3
7.336124248E0,7.708740234E-2,1.893142700E0,-6.372070312E-2
7.340152568E0,1.122436523E-1,1.937881470E0,-1.009979248E-1
7.344150371E0,1.260833740E-1,1.918701172E0,-1.233673096E-1
7.348178691E0,1.026458740E-1,1.857986450E0,-1.350860596E-1
7.352207012E0,4.725646973E-2,1.794067383E0,-1.521301270E-1
7.356204814E0,-3.582763672E-2,1.708847046E0,-1.542663574E-1
7.360233135E0,-1.306457520E-1,1.611907959E0,-1.404113770E-1
7.364230937E0,-2.297058105E-1,1.552246094E0,-1.244354248E-1
7.368259258E0,-3.213195801E-1,1.537338257E0,-1.063232422E-1
7.372287578E0,-3.927001953E-1,1.546920776E0,-8.395385742E-2
7.376285381E0,-4.459533691E-1,1.562911987E0,-5.732727051E-2
7.380313701E0,-4.885711670E-1,1.584213257E0,-3.070068359E-2
7.384342021E0,-5.290527344E-1,1.617233276E0,-1.577758789E-2
7.388339824E0,-5.471649170E-1,1.764236450E0,-2.642822266E-2
7.392368144E0,-5.503540039E-1,1.918701172E0,-3.495788574E-2
7.396396465E0,-5.737915039E-1,1.905914307E0,-1.152038574E-2
7.400394267E0,-6.238555908E-1,1.779159546E0,2.896118164E-2
7.404422588E0,-6.963043213E-1,1.599121094E0,7.690429688E-2
7.408450908E0,-7.655334473E-1,1.483016968E0,1.131134033E-1
7.412448711E0,-8.113403320E-1,1.442535400E0,1.376190186E-1
7.416477031E0,-8.401031494E-1,1.424423218E0,1.567993164E-1
7.420505351E0,-8.677978516E-1,1.393524170E0,1.748962402E-1
7.424503154E0,-8.997650146E-1,1.348785400E0,1.908874512E-1
7.428531474E0,-9.327850342E-1,1.297653198E0,2.047271729E-1
7.432529277E0,-9.658050537E-1,1.240127563E0,2.164459229E-1
7.436557597E0,-9.849853516E-1,1.184738159E0,2.228393555E-1
7.440585918E0,-9.903106689E-1,1.142120361E0,2.270965576E-1
7.444583721E0,-9.881744385E-1,1.122955322E0,2.292327881E-1
7.448612041E0,-9.849853516E-1,1.099517822E0,2.324218750E-1
7.452640361E0,-9.732666016E-1,1.078216553E0,2.324218750E-1
7.456638164E0,-9.540863037E-1,1.082473755E0,2.260284424E-1
7.460666484E0,-9.232025146E-1,1.122955322E0,2.185821533E-1
7.464694804E0,-8.859100342E-1,1.150650024E0,2.153778076E-1
7.468692607E0,-8.560943604E-1,1.122955322E0,2.132568359E-1
7.472720928E0,-8.347778320E-1,1.112304688E0,2.026062012E-1
7.476749248E0,-8.028259277E-1,1.185806274E0,1.759643555E-1
7.480747051E0,-7.516937256E-1,1.297653198E0,1.333618164E-1
7.484775371E0,-6.973571777E-1,1.348785400E0,9.074401855E-2
7.488803691E0,-6.536865234E-1,1.324279785E0,4.814147949E-2
7.492801494E0,-6.195983887E-1,1.245452881E0,5.523681641E-3
7.496829814E0,-5.919036865E-1,1.128280640E0,-3.388977051E-2
7.500858135E0,-5.610046387E-1,1.013229370E0,-7.543945312E-2
7.504855937E0,-5.184020996E-1,9.588928223E-1,-1.222991943E-1
7.508884258E0,-4.747161865E-1,9.631652832E-1,-1.691741943E-1
7.512882060E0,-4.353027344E-1,9.780731201E-1,-2.075347900E-1
7.516910381E0,-3.916320801E-1,1.040924072E0,-2.469482422E-1
7.520938701E0,-3.650054932E-1,1.053710938E0,-2.735748291E-1
7.524936504E0,-3.618011475E-1,9.663543701E-1,-2.863616943E-1
7.528964824E0,-3.692626953E-1,8.278656006E-1,-2.874145508E-1
7.532993144E0,-3.681945801E-1,7.224121094E-1,-2.874145508E-1
7.536990947E0,-3.618011475E-1,6.840667725E-1,-2.948760986E-1
7.541019267E0,-3.532867432E-1,6.627502441E-1,-2.959442139E-1
7.545047588E0,-3.373107910E-1,6.276092529E-1,-2.895507812E-1
7.549045390E0,-3.128051758E-1,5.796661377E-1,-2.746429443E-1
7.553073711E0,-2.744598389E-1,5.253295898E-1,-2.575988770E-1
7.557102031E0,-2.286529541E-1,4.774017334E-1,-2.373504639E-1
7.561099834E0,-1.807098389E-1,4.337310791E-1,-2.181854248E-1
7.565128154E0,-1.349029541E-1,4.006958008E-1,-2.021942139E-1
7.569156474E0,-9.123229980E-2,3.793945312E-1,-1.851501465E-1
7.573154277E0,-5.075073242E-2,3.602142334E-1,-1.681060791E-1
7.577182597E0,-1.878356934E-2,3.463745117E-1,-1.521301270E-1
7.581180400E0,1.103210449E-2,3.314666748E-1,-1.393432617E-1
7.585208721E0,3.979492188E-2,3.069610596E-1,-1.276397705E-1
7.589237041E0,6.748962402E-2,2.664794922E-1,-1.201782227E-1
7.593234844E0,1.037139893E-1,2.078857422E-1,-1.063232422E-1
7.597263164E0,1.463317871E-1,1.311950684E-1,-8.715820312E-2
7.601291484E0,1.963958740E-1,3.958129883E-2,-7.011413574E-2
7.605289287E0,2.603149414E-1,-6.800842285E-2,-5.944824219E-2
7.609317607E0,3.444671631E-1,-1.670837402E-1,-5.093383789E-2
7.613345928E0,4.520568848E-1,-2.555084229E-1,-5.412292480E-2
7.617343730E0,5.713653564E-1,-3.460540771E-1,-7.116699219E-2
7.621372051E0,6.970672607E-1,-4.365997314E-1,-1.052551270E-1
7.625400371E0,8.291625977E-1,-5.260772705E-1,-1.468048096E-1
7.629398174E0,9.601898193E-1,-6.102294922E-1,-1.936798096E-1
7.633426494E0,1.091217041E0,-6.847991943E-1,-2.416229248E-1
7.637454814E0,1.212661743E0,-7.593688965E-1,-2.927551270E-1
7.641452617E0,1.315994263E0,-8.232879639E-1,-3.492126465E-1
7.645480937E0,1.400146484E0,-8.797454834E-1,-4.046020508E-1
7.649509258E0,1.458724976E0,-9.383392334E-1,-4.578704834E-1
7.653507060E0,1.504531860E0,-9.926605225E-1,-5.015411377E-1
7.657535381E0,1.539688110E0,-1.034210205E0,-5.388183594E-1
7.661533183E0,1.561004639E0,-1.067230225E0,-5.686492920E-1
7.665561504E0,1.565261841E0,-1.093872070E0,-5.867614746E-1
7.669589824E0,1.549285889E0,-1.111968994E0,-5.899505615E-1
7.673587627E0,1.517318726E0,-1.130081177E0,-5.825042725E-1
7.677615947E0,1.476837158E0,-1.154586792E0,-5.579986572E-1
7.681644267E0,1.419311523E0,-1.171630859E0,-5.281677246E-1
7.685642070E0,1.355407715E0,-1.174819946E0,-4.951477051E-1
7.689670390E0,1.297882080E0,-1.176956177E0,-4.663848877E-1
7.693698711E0,1.255264282E0,-1.191864014E0,-4.535980225E-1
7.697696513E0,1.237152100E0,-1.239807129E0,-4.621276855E-1
7.701724834E0,1.252075195E0,-1.316497803E0,-4.855651855E-1
7.705753154E0,1.301071167E0,-1.418777466E0,-5.260467529E-1
7.709750957E0,1.359664917E0,-1.556182861E0,-5.782318115E-1
7.713779277E0,1.426773071E0,-1.705322266E0,-6.315002441E-1
7.717807597E0,1.499206543E0,-1.854461670E0,-6.847686768E-1
7.721805400E0,1.570587158E0,-1.938613892E0,-7.082061768E-1
7.725833721E0,1.644088745E0,-1.915176392E0,-6.858367920E-1
7.729862041E0,1.712265015E0,-1.760726929E0,-6.187133789E-1
7.733859844E0,1.768722534E0,-1.444335938E0,-5.079345703E-1
7.737888164E0,1.799621582E0,-9.947967529E-1,-3.673095703E-1
7.741885967E0,1.793228149E0,-5.271453857E-1,-2.139129639E-1
7.745914287E0,1.751678467E0,-1.500396729E-1,-5.093383789E-2
7.749942607E0,1.685638428E0,5.981445312E-2,9.927368164E-2
7.753940410E0,1.604675293E0,8.111572266E-2,2.026062012E-1
7.757968730E0,1.520523071E0,-4.991149902E-2,2.601165771E-1
7.761997051E0,1.449142456E0,-2.682800293E-1,2.771606445E-1
7.765994853E0,1.390548706E0,-4.919891357E-1,2.569274902E-1
7.770023174E0,1.320251465E0,-7.050476074E-1,2.111206055E-1
7.774051494E0,1.207336426E0,-9.425964355E-1,1.621246338E-1
7.778049297E0,1.047546387E0,-1.185470581E0,1.184387207E-1
7.782077617E0,8.568572998E-1,-1.429428101E0,8.755493164E-2
7.786105937E0,6.555175781E-1,-1.649932861E0,6.198120117E-2
7.790103740E0,4.744262695E-1,-1.851272583E0,1.831054688E-2
7.794132060E0,3.476562500E-1,-1.996139526E0,-6.265258789E-2
7.798160381E0,2.869415283E-1,-2.049407959E0,-1.787719727E-1
7.802158183E0,2.720336914E-1,-2.040878296E0,-3.002014160E-1
7.806186504E0,2.571105957E-1,-2.009994507E0,-3.896942139E-1
7.810184306E0,2.464599609E-1,-1.926895142E0,-4.578704834E-1
7.814212627E0,2.389984131E-1,-1.819305420E0,-5.153961182E-1
7.818240947E0,2.411346436E-1,-1.619033813E0,-5.761108398E-1
7.822238750E0,2.496643066E-1,-1.375091553E0,-6.251068115E-1
7.826267070E0,2.358093262E-1,-1.227020264E0,-6.528015137E-1
7.830295390E0,1.793518066E-1,-1.168426514E0,-6.762390137E-1
7.834293193E0,9.519958496E-2,-1.118362427E0,-7.113952637E-1
7.838321513E0,2.914428711E-2,-1.082153320E0,-7.284393311E-1
7.842349834E0,1.449584961E-3,-1.082153320E0,-7.124633789E-1
7.846347637E0,-6.011962891E-3,-1.197189331E0,-6.613311768E-1
7.850375957E0,-6.011962891E-3,-1.271759033E0,-6.283111572E-1
7.854404277E0,-1.026916504E-2,-1.270706177E0,-6.155242920E-1
7.858402080E0,-1.985168457E-2,-1.208908081E0,-6.069946289E-1
7.862430400E0,-1.985168457E-2,-1.127960205E0,-5.974121094E-1
7.866458721E0,-9.201049805E-3,-1.025680542E0,-5.761108398E-1
7.870456523E0,1.423645020E-2,-9.319458008E-1,-5.473480225E-1
7.874484844E0,5.258178711E-2,-8.137054443E-1,-5.164489746E-1
7.878513164E0,9.732055664E-2,-6.986541748E-1,-4.812927246E-1
7.882510967E0,1.431274414E-1,-6.155548096E-1,-4.291076660E-1
7.886539287E0,1.857452393E-1,-5.782775879E-1,-3.598632812E-1
7.890537090E0,2.262268066E-1,-5.931854248E-1,-2.682495117E-1
7.894565410E0,2.443237305E-1,-6.400604248E-1,-1.670532227E-1
7.898593730E0,2.507171631E-1,-6.389923096E-1,-9.567260742E-2
7.902591533E0,2.485961914E-1,-6.272735596E-1,-3.495788574E-2
7.906619853E0,2.294158936E-1,-6.379241943E-1,4.067993164E-2
7.910648174E0,2.049102783E-1,-6.911926270E-1,1.290893555E-1
7.914645976E0,1.687011719E-1,-7.668304443E-1,2.249755859E-1
7.918674297E0,1.186370850E-1,-8.392639160E-1,3.272399902E-1
7.922702617E0,5.790710449E-2,-9.106445312E-1,4.316253662E-1
7.926700420E0,-1.026916504E-2,-9.734954834E-1,5.445556641E-1
7.930728740E0,-8.909606934E-2,-9.809417725E-1,6.329650879E-1
7.934757060E0,-1.732482910E-1,-9.649658203E-1,7.096710205E-1
7.938754863E0,-2.499542236E-1,-9.425964355E-1,7.757110596E-1
7.942783183E0,-3.096008301E-1,-9.127655029E-1,8.321685791E-1
7.946811504E0,-3.511505127E-1,-8.744201660E-1,8.833007812E-1
7.950809306E0,-3.809814453E-1,-8.275451660E-1,9.333648682E-1
7.954837627E0,-4.054870605E-1,-7.796173096E-1,9.823760986E-1
7.958865947E0,-4.289093018E-1,-7.412567139E-1,1.030303955E0
7.962863750E0,-4.523468018E-1,-7.061157227E-1,1.079315186E0
7.966892070E0,-4.800415039E-1,-6.794738770E-1,1.129379272E0
7.970889873E0,-5.109405518E-1,-6.539154053E-1,1.171997070E0
7.974918193E0,-5.386352539E-1,-6.325988770E-1,1.211410522E0
7.978946513E0,-5.546112061E-1,-6.134338379E-1,1.241226196E0
7.982944316E0,-5.588836670E-1,-5.985107422E-1,1.261474609E0
7.986972637E0,-5.535583496E-1,-5.814666748E-1,1.274261475E0
7.991000957E0,-5.428924561E-1,-5.590972900E-1,1.274261475E0
7.994998760E0,-5.269165039E-1,-5.303344727E-1,1.254013062E0
7.999027080E0,-5.109405518E-1,-4.909210205E-1,1.217803955E0
8.003055400E0,-4.917602539E-1,-4.483184814E-1,1.169860840E0
8.007053203E0,-4.704589844E-1,-4.120941162E-1,1.110198975E0
8.011081523E0,-4.363708496E-1,-3.833312988E-1,1.034576416E0
8.015109844E0,-3.841705322E-1,-3.641662598E-1,9.365692139E-1
8.019107646E0,-3.191986084E-1,-3.556365967E-1,8.140563965E-1
8.023135967E0,-2.531433105E-1,-3.471069336E-1,6.713104248E-1
8.027164287E0,-1.881713867E-1,-3.428497314E-1,5.093994141E-1
8.031162090E0,-1.380920410E-1,-3.471069336E-1,3.336334229E-1
8.035190410E0,-9.442138672E-2,-3.673553467E-1,1.472015381E-1
8.039188213E0,-4.754638672E-2,-4.067687988E-1,-3.602600098E-2
8.043216533E0,6.774902344E-3,-4.749450684E-1,-1.904754639E-1
8.047244853E0,6.962585449E-2,-5.601654053E-1,-2.874145508E-1
8.051242656E0,1.441955566E-1,-6.358032227E-1,-3.364257812E-1
8.055270976E0,2.347412109E-1,-6.954498291E-1,-3.630523682E-1
8.059299297E0,3.338165283E-1,-7.540435791E-1,-3.854217529E-1
8.063297099E0,4.360809326E-1,-8.137054443E-1,-4.014129639E-1
8.067325420E0,5.266265869E-1,-8.627014160E-1,-4.056701660E-1
8.071353740E0,5.905456543E-1,-8.903961182E-1,-3.950195312E-1
8.075351543E0,6.299591064E-1,-8.850708008E-1,-3.726501465E-1
8.079379863E0,6.406097412E-1,-8.445892334E-1,-3.428192139E-1
8.083408183E0,6.320800781E-1,-7.732238770E-1,-2.980804443E-1
8.087405986E0,6.086578369E-1,-6.847991943E-1,-2.384185791E-1
8.091434306E0,5.735015869E-1,-6.038360596E-1,-1.606597900E-1
8.095462627E0,5.255584717E-1,-5.356597900E-1,-6.372070312E-2
8.099460429E0,4.424743652E-1,-4.419250488E-1,2.470397949E-2
8.103488750E0,3.295593262E-1,-3.620300293E-1,9.713745117E-2
8.107517070E0,1.995849609E-1,-3.194122314E-1,1.418762207E-1
8.111514873E0,6.216430664E-2,-2.959747314E-1,1.599884033E-1
8.115543193E0,-6.991577148E-2,-2.725524902E-1,1.621246338E-1
8.119540996E0,-1.828460693E-1,-2.384643555E-1,1.440124512E-1
8.123569316E0,-2.808380127E-1,-2.097015381E-1,9.820556641E-2
8.127597637E0,-3.639373779E-1,-2.128906250E-1,2.470397949E-2
8.131595439E0,-4.395751953E-1,-2.757415771E-1,-7.543945312E-2
8.135623760E0,-5.141448975E-1,-4.163513184E-1,-1.926116943E-1
8.139652080E0,-5.950927734E-1,-6.070404053E-1,-3.023376465E-1
